block_c,block_dur,condition,countdown,datetime,endtime,list,multichar_response,project,response,response_time,session_number,start_end,starttime,subject_id,task,task_vers,trial
,,,,Thu Feb 05 2026 16:21:15 GMT-0500 (Eastern Standard Time),,,,I,space,314,1,,,9047,WL,B,
prac,,0,,Thu Feb 05 2026 16:21:15 GMT-0500 (Eastern Standard Time),,NA,b,I,b,6038,1,,,9047,WL,B,1.0
prac,,0,,Thu Feb 05 2026 16:21:15 GMT-0500 (Eastern Standard Time),,NA,bo,I,o,838,1,,,9047,WL,B,1.0
prac,,0,,Thu Feb 05 2026 16:21:15 GMT-0500 (Eastern Standard Time),,NA,boo,I,o,117,1,,,9047,WL,B,1.0
prac,,0,,Thu Feb 05 2026 16:21:15 GMT-0500 (Eastern Standard Time),,NA,boos,I,s,192,1,,,9047,WL,B,1.0
prac,,0,,Thu Feb 05 2026 16:21:15 GMT-0500 (Eastern Standard Time),,NA,boost,I,t,104,1,,,9047,WL,B,1.0
prac,,0,,Thu Feb 05 2026 16:21:15 GMT-0500 (Eastern Standard Time),,NA,boostenter,I,enter,1306,1,,,9047,WL,B,1.0
1,1.366999864578247,learn,58633.00013542175,Thu Feb 05 2026 16:21:15 GMT-0500 (Eastern Standard Time),113843.0,A,s,I,s,1350,1,1366.1000003814697,112476.89999961853,9047,WL,B,1.0
1,1.750999927520752,learn,58249.00007247925,Thu Feb 05 2026 16:21:15 GMT-0500 (Eastern Standard Time),114226.0,A,st,I,t,366,1,1749.1000003814697,112476.89999961853,9047,WL,B,1.0
1,2.2669999599456787,learn,57733.00004005432,Thu Feb 05 2026 16:21:15 GMT-0500 (Eastern Standard Time),114742.39999961853,A,str,I,r,497,1,2265.5,112476.89999961853,9047,WL,B,1.0
1,2.634000062942505,learn,57365.999937057495,Thu Feb 05 2026 16:21:15 GMT-0500 (Eastern Standard Time),115109.39999961853,A,stre,I,e,347,1,2632.5,112476.89999961853,9047,WL,B,1.0
1,2.8339998722076416,learn,57166.00012779236,Thu Feb 05 2026 16:21:15 GMT-0500 (Eastern Standard Time),115309.39999961853,A,stree,I,e,174,1,2832.5,112476.89999961853,9047,WL,B,1.0
1,3.0,learn,57000.0,Thu Feb 05 2026 16:21:15 GMT-0500 (Eastern Standard Time),115476.0,A,street,I,t,139,1,2999.1000003814697,112476.89999961853,9047,WL,B,1.0
1,4.2170000076293945,learn,55782.999992370605,Thu Feb 05 2026 16:21:15 GMT-0500 (Eastern Standard Time),116692.10000038147,A,streetenter,I,enter,1196,1,4215.200000762939,112476.89999961853,9047,WL,B,1.0
1,5.483999967575073,learn,54516.00003242493,Thu Feb 05 2026 16:21:15 GMT-0500 (Eastern Standard Time),117959.19999980927,A,g,I,g,1249,1,1266.3999996185303,116692.80000019073,9047,WL,B,2.0
1,5.783999919891357,learn,54216.00008010864,Thu Feb 05 2026 16:21:15 GMT-0500 (Eastern Standard Time),118259.30000019073,A,gr,I,r,284,1,1566.5,116692.80000019073,9047,WL,B,2.0
1,6.083999872207642,learn,53916.00012779236,Thu Feb 05 2026 16:21:15 GMT-0500 (Eastern Standard Time),118559.30000019073,A,gra,I,a,287,1,1866.5,116692.80000019073,9047,WL,B,2.0
1,6.533999919891357,learn,53466.00008010864,Thu Feb 05 2026 16:21:15 GMT-0500 (Eastern Standard Time),119009.30000019073,A,gras,I,s,433,1,2316.5,116692.80000019073,9047,WL,B,2.0
1,6.700999975204468,learn,53299.00002479553,Thu Feb 05 2026 16:21:15 GMT-0500 (Eastern Standard Time),119176.0,A,grass,I,s,145,1,2483.199999809265,116692.80000019073,9047,WL,B,2.0
1,7.33299994468689,learn,52667.00005531311,Thu Feb 05 2026 16:21:15 GMT-0500 (Eastern Standard Time),119808.69999980927,A,grassenter,I,enter,608,1,3115.8999996185303,116692.80000019073,9047,WL,B,2.0
1,7.769000053405762,learn,52230.99994659424,Thu Feb 05 2026 16:21:15 GMT-0500 (Eastern Standard Time),120244.10000038147,A,d,I,d,421,1,434.70000076293945,119809.39999961853,9047,WL,B,3.0
1,8.0,learn,52000.0,Thu Feb 05 2026 16:21:15 GMT-0500 (Eastern Standard Time),120476.0,A,do,I,o,211,1,666.6000003814697,119809.39999961853,9047,WL,B,3.0
1,8.149999856948853,learn,51850.00014305115,Thu Feb 05 2026 16:21:15 GMT-0500 (Eastern Standard Time),120626.0,A,doo,I,o,135,1,816.6000003814697,119809.39999961853,9047,WL,B,3.0
1,8.533999919891357,learn,51466.00008010864,Thu Feb 05 2026 16:21:15 GMT-0500 (Eastern Standard Time),121009.5,A,door,I,r,359,1,1200.1000003814697,119809.39999961853,9047,WL,B,3.0
1,8.866999864578247,learn,51133.00013542175,Thu Feb 05 2026 16:21:15 GMT-0500 (Eastern Standard Time),121342.10000038147,A,doorenter,I,enter,320,1,1532.7000007629395,119809.39999961853,9047,WL,B,3.0
1,9.316999912261963,learn,50683.00008773804,Thu Feb 05 2026 16:21:15 GMT-0500 (Eastern Standard Time),121792.60000038147,A,a,I,a,440,1,450.1000003814697,121342.5,9047,WL,B,4.0
1,9.549999952316284,learn,50450.000047683716,Thu Feb 05 2026 16:21:15 GMT-0500 (Eastern Standard Time),122026.0,A,ar,I,r,210,1,683.5,121342.5,9047,WL,B,4.0
1,10.866999864578247,learn,49133.00013542175,Thu Feb 05 2026 16:21:15 GMT-0500 (Eastern Standard Time),123342.19999980927,A,arm,I,m,1294,1,1999.6999998092651,121342.5,9047,WL,B,4.0
1,11.182999849319458,learn,48817.00015068054,Thu Feb 05 2026 16:21:15 GMT-0500 (Eastern Standard Time),123658.80000019073,A,armenter,I,enter,291,1,2316.300000190735,121342.5,9047,WL,B,4.0
1,12.16700005531311,learn,47832.99994468689,Thu Feb 05 2026 16:21:15 GMT-0500 (Eastern Standard Time),124642.60000038147,A,s,I,s,971,1,983.4000005722046,123659.19999980927,9047,WL,B,5.0
1,12.366999864578247,learn,47633.00013542175,Thu Feb 05 2026 16:21:15 GMT-0500 (Eastern Standard Time),124842.69999980927,A,st,I,t,172,1,1183.5,123659.19999980927,9047,WL,B,5.0
1,12.5,learn,47500.0,Thu Feb 05 2026 16:21:15 GMT-0500 (Eastern Standard Time),124975.89999961853,A,sta,I,a,111,1,1316.6999998092651,123659.19999980927,9047,WL,B,5.0
1,12.616999864578247,learn,47383.00013542175,Thu Feb 05 2026 16:21:15 GMT-0500 (Eastern Standard Time),125092.60000038147,A,star,I,r,99,1,1433.4000005722046,123659.19999980927,9047,WL,B,5.0
1,13.08299994468689,learn,46917.00005531311,Thu Feb 05 2026 16:21:15 GMT-0500 (Eastern Standard Time),125558.80000019073,A,starenter,I,enter,434,1,1899.6000003814697,123659.19999980927,9047,WL,B,5.0
1,13.549999952316284,learn,46450.000047683716,Thu Feb 05 2026 16:21:15 GMT-0500 (Eastern Standard Time),126026.0,A,g,I,g,447,1,466.80000019073486,125559.19999980927,9047,WL,B,6.0
1,13.833999872207642,learn,46166.00012779236,Thu Feb 05 2026 16:21:15 GMT-0500 (Eastern Standard Time),126309.30000019073,A,gr,I,r,264,1,750.1000003814697,125559.19999980927,9047,WL,B,6.0
1,14.049999952316284,learn,45950.000047683716,Thu Feb 05 2026 16:21:15 GMT-0500 (Eastern Standard Time),126525.60000038147,A,gra,I,a,204,1,966.4000005722046,125559.19999980927,9047,WL,B,6.0
1,14.25,learn,45750.0,Thu Feb 05 2026 16:21:15 GMT-0500 (Eastern Standard Time),126725.80000019073,A,graa,I,a,172,1,1166.6000003814697,125559.19999980927,9047,WL,B,6.0
1,16.08399987220764,learn,43916.00012779236,Thu Feb 05 2026 16:21:15 GMT-0500 (Eastern Standard Time),128559.19999980927,A,gra,I,backspace,1813,1,3000.0,125559.19999980927,9047,WL,B,6.0
1,16.34999990463257,learn,43650.00009536743,Thu Feb 05 2026 16:21:15 GMT-0500 (Eastern Standard Time),128825.80000019073,A,gras,I,s,242,1,3266.6000003814697,125559.19999980927,9047,WL,B,6.0
1,16.533999919891357,learn,43466.00008010864,Thu Feb 05 2026 16:21:15 GMT-0500 (Eastern Standard Time),129009.19999980927,A,grass,I,s,169,1,3450.0,125559.19999980927,9047,WL,B,6.0
1,17.299999952316284,learn,42700.000047683716,Thu Feb 05 2026 16:21:15 GMT-0500 (Eastern Standard Time),129775.39999961853,A,grassenter,I,enter,750,1,4216.199999809265,125559.19999980927,9047,WL,B,6.0
1,20.233999967575073,learn,39766.00003242493,Thu Feb 05 2026 16:21:15 GMT-0500 (Eastern Standard Time),132709.19999980927,A,s,I,s,2919,1,2933.300000190735,129775.89999961853,9047,WL,B,7.0
1,20.43400001525879,learn,39565.99998474121,Thu Feb 05 2026 16:21:15 GMT-0500 (Eastern Standard Time),132909.30000019073,A,st,I,t,173,1,3133.4000005722046,129775.89999961853,9047,WL,B,7.0
1,20.549999952316284,learn,39450.000047683716,Thu Feb 05 2026 16:21:15 GMT-0500 (Eastern Standard Time),133025.89999961853,A,sta,I,a,94,1,3250.0,129775.89999961853,9047,WL,B,7.0
1,20.68400001525879,learn,39315.99998474121,Thu Feb 05 2026 16:21:15 GMT-0500 (Eastern Standard Time),133159.10000038147,A,star,I,r,105,1,3383.2000007629395,129775.89999961853,9047,WL,B,7.0
1,21.116999864578247,learn,38883.00013542175,Thu Feb 05 2026 16:21:15 GMT-0500 (Eastern Standard Time),133592.10000038147,A,starenter,I,enter,409,1,3816.2000007629395,129775.89999961853,9047,WL,B,7.0
1,22.134000062942505,learn,37865.999937057495,Thu Feb 05 2026 16:21:15 GMT-0500 (Eastern Standard Time),134609.10000038147,A,l,I,l,1006,1,1016.5,133592.60000038147,9047,WL,B,8.0
1,22.316999912261963,learn,37683.00008773804,Thu Feb 05 2026 16:21:15 GMT-0500 (Eastern Standard Time),134792.30000019073,A,la,I,a,161,1,1199.6999998092651,133592.60000038147,9047,WL,B,8.0
1,22.733999967575073,learn,37266.00003242493,Thu Feb 05 2026 16:21:15 GMT-0500 (Eastern Standard Time),135209.19999980927,A,lak,I,k,396,1,1616.5999994277954,133592.60000038147,9047,WL,B,8.0
1,22.884000062942505,learn,37115.999937057495,Thu Feb 05 2026 16:21:15 GMT-0500 (Eastern Standard Time),135359.19999980927,A,lake,I,e,138,1,1766.5999994277954,133592.60000038147,9047,WL,B,8.0
1,24.066999912261963,learn,35933.00008773804,Thu Feb 05 2026 16:21:15 GMT-0500 (Eastern Standard Time),136542.0,A,lakeenter,I,enter,1163,1,2949.3999996185303,133592.60000038147,9047,WL,B,8.0
1,24.84999990463257,learn,35150.00009536743,Thu Feb 05 2026 16:21:15 GMT-0500 (Eastern Standard Time),137325.80000019073,A,p,I,p,776,1,783.4000005722046,136542.39999961853,9047,WL,B,9.0
1,25.134000062942505,learn,34865.999937057495,Thu Feb 05 2026 16:21:15 GMT-0500 (Eastern Standard Time),137609.10000038147,A,pi,I,i,261,1,1066.7000007629395,136542.39999961853,9047,WL,B,9.0
1,25.316999912261963,learn,34683.00008773804,Thu Feb 05 2026 16:21:15 GMT-0500 (Eastern Standard Time),137792.60000038147,A,pip,I,p,170,1,1250.2000007629395,136542.39999961853,9047,WL,B,9.0
1,25.66700005531311,learn,34332.99994468689,Thu Feb 05 2026 16:21:15 GMT-0500 (Eastern Standard Time),138142.5,A,pipe,I,e,338,1,1600.1000003814697,136542.39999961853,9047,WL,B,9.0
1,25.866999864578247,learn,34133.00013542175,Thu Feb 05 2026 16:21:15 GMT-0500 (Eastern Standard Time),138342.10000038147,A,pipeenter,I,enter,179,1,1799.7000007629395,136542.39999961853,9047,WL,B,9.0
1,26.75,learn,33250.0,Thu Feb 05 2026 16:21:15 GMT-0500 (Eastern Standard Time),139225.80000019073,A,c,I,c,865,1,883.3000001907349,138342.5,9047,WL,B,10.0
1,27.033999919891357,learn,32966.00008010864,Thu Feb 05 2026 16:21:15 GMT-0500 (Eastern Standard Time),139509.30000019073,A,ci,I,i,257,1,1166.8000001907349,138342.5,9047,WL,B,10.0
1,27.366999864578247,learn,32633.000135421753,Thu Feb 05 2026 16:21:15 GMT-0500 (Eastern Standard Time),139842.5,A,cit,I,t,318,1,1500.0,138342.5,9047,WL,B,10.0
1,27.566999912261963,learn,32433.000087738037,Thu Feb 05 2026 16:21:15 GMT-0500 (Eastern Standard Time),140042.39999961853,A,city,I,y,175,1,1699.8999996185303,138342.5,9047,WL,B,10.0
1,28.532999992370605,learn,31467.000007629395,Thu Feb 05 2026 16:21:15 GMT-0500 (Eastern Standard Time),141008.80000019073,A,cityenter,I,enter,951,1,2666.300000190735,138342.5,9047,WL,B,10.0
1,33.64999985694885,learn,26350.000143051147,Thu Feb 05 2026 16:21:15 GMT-0500 (Eastern Standard Time),146125.89999961853,A,p,I,p,5094,1,5116.699999809265,141009.19999980927,9047,WL,B,11.0
1,33.86699986457825,learn,26133.000135421753,Thu Feb 05 2026 16:21:15 GMT-0500 (Eastern Standard Time),146342.60000038147,A,pi,I,i,196,1,5333.400000572205,141009.19999980927,9047,WL,B,11.0
1,34.03399991989136,learn,25966.000080108643,Thu Feb 05 2026 16:21:15 GMT-0500 (Eastern Standard Time),146509.19999980927,A,pip,I,p,131,1,5500.0,141009.19999980927,9047,WL,B,11.0
1,34.31699991226196,learn,25683.000087738037,Thu Feb 05 2026 16:21:15 GMT-0500 (Eastern Standard Time),146792.5,A,pipe,I,e,262,1,5783.300000190735,141009.19999980927,9047,WL,B,11.0
1,34.5,learn,25500.0,Thu Feb 05 2026 16:21:15 GMT-0500 (Eastern Standard Time),146975.5,A,pipeenter,I,enter,169,1,5966.300000190735,141009.19999980927,9047,WL,B,11.0
1,43.89999985694885,learn,16100.000143051147,Thu Feb 05 2026 16:21:15 GMT-0500 (Eastern Standard Time),156375.89999961853,A,c,I,c,9383,1,9399.89999961853,146976.0,9047,WL,B,12.0
1,44.08399987220764,learn,15916.000127792358,Thu Feb 05 2026 16:21:15 GMT-0500 (Eastern Standard Time),156559.19999980927,A,ca,I,a,170,1,9583.199999809265,146976.0,9047,WL,B,12.0
1,44.25,learn,15750.0,Thu Feb 05 2026 16:21:15 GMT-0500 (Eastern Standard Time),156725.80000019073,A,cab,I,b,148,1,9749.800000190735,146976.0,9047,WL,B,12.0
1,44.799999952316284,learn,15200.000047683716,Thu Feb 05 2026 16:21:15 GMT-0500 (Eastern Standard Time),157275.89999961853,A,cabi,I,i,522,1,10299.89999961853,146976.0,9047,WL,B,12.0
1,45.03399991989136,learn,14966.000080108643,Thu Feb 05 2026 16:21:15 GMT-0500 (Eastern Standard Time),157509.30000019073,A,cabin,I,n,215,1,10533.300000190735,146976.0,9047,WL,B,12.0
1,45.31699991226196,learn,14683.000087738037,Thu Feb 05 2026 16:21:15 GMT-0500 (Eastern Standard Time),157792.0,A,cabinenter,I,enter,260,1,10816.0,146976.0,9047,WL,B,12.0
1,60.01699995994568,learn,-16.99995994567871,Thu Feb 05 2026 16:21:15 GMT-0500 (Eastern Standard Time),172492.69999980927,A,None,I,None,14693,1,14700.300000190735,157792.39999961853,9047,WL,B,13.0
2,0.9330000877380371,learn,59066.99991226196,Thu Feb 05 2026 16:21:15 GMT-0500 (Eastern Standard Time),255992.60000038147,A,s,I,s,913,1,933.0,255059.60000038147,9047,WL,B,1.0
2,1.1160001754760742,learn,58883.999824523926,Thu Feb 05 2026 16:21:15 GMT-0500 (Eastern Standard Time),256175.69999980927,A,st,I,t,171,1,1116.0999994277954,255059.60000038147,9047,WL,B,1.0
2,1.3500001430511475,learn,58649.99985694885,Thu Feb 05 2026 16:21:15 GMT-0500 (Eastern Standard Time),256409.30000019073,A,str,I,r,204,1,1349.6999998092651,255059.60000038147,9047,WL,B,1.0
2,1.5830001831054688,learn,58416.99981689453,Thu Feb 05 2026 16:21:15 GMT-0500 (Eastern Standard Time),256642.30000019073,A,stre,I,e,218,1,1582.6999998092651,255059.60000038147,9047,WL,B,1.0
2,1.7660000324249268,learn,58233.99996757507,Thu Feb 05 2026 16:21:15 GMT-0500 (Eastern Standard Time),256825.69999980927,A,stree,I,e,161,1,1766.0999994277954,255059.60000038147,9047,WL,B,1.0
2,2.065999984741211,learn,57934.00001525879,Thu Feb 05 2026 16:21:15 GMT-0500 (Eastern Standard Time),257125.89999961853,A,street,I,t,279,1,2066.2999992370605,255059.60000038147,9047,WL,B,1.0
2,2.699000120162964,learn,57300.999879837036,Thu Feb 05 2026 16:21:15 GMT-0500 (Eastern Standard Time),257758.60000038147,A,streetenter,I,enter,620,1,2699.0,255059.60000038147,9047,WL,B,1.0
2,3.565999984741211,learn,56434.00001525879,Thu Feb 05 2026 16:21:15 GMT-0500 (Eastern Standard Time),258625.80000019073,A,g,I,g,856,1,866.9000005722046,257758.89999961853,9047,WL,B,2.0
2,3.8000001907348633,learn,56199.99980926514,Thu Feb 05 2026 16:21:15 GMT-0500 (Eastern Standard Time),258859.10000038147,A,gr,I,r,208,1,1100.2000007629395,257758.89999961853,9047,WL,B,2.0
2,4.050000190734863,learn,55949.99980926514,Thu Feb 05 2026 16:21:15 GMT-0500 (Eastern Standard Time),259109.19999980927,A,gra,I,a,232,1,1350.3000001907349,257758.89999961853,9047,WL,B,2.0
2,4.300000190734863,learn,55699.99980926514,Thu Feb 05 2026 16:21:15 GMT-0500 (Eastern Standard Time),259359.10000038147,A,gras,I,s,238,1,1600.2000007629395,257758.89999961853,9047,WL,B,2.0
2,4.483000040054321,learn,55516.99995994568,Thu Feb 05 2026 16:21:15 GMT-0500 (Eastern Standard Time),259542.39999961853,A,grass,I,s,164,1,1783.5,257758.89999961853,9047,WL,B,2.0
2,4.716000080108643,learn,55283.99991989136,Thu Feb 05 2026 16:21:15 GMT-0500 (Eastern Standard Time),259775.30000019073,A,grassenter,I,enter,220,1,2016.4000005722046,257758.89999961853,9047,WL,B,2.0
2,5.565999984741211,learn,54434.00001525879,Thu Feb 05 2026 16:21:15 GMT-0500 (Eastern Standard Time),260625.69999980927,A,d,I,d,840,1,850.0999994277954,259775.60000038147,9047,WL,B,3.0
2,5.8500001430511475,learn,54149.99985694885,Thu Feb 05 2026 16:21:15 GMT-0500 (Eastern Standard Time),260909.10000038147,A,do,I,o,258,1,1133.5,259775.60000038147,9047,WL,B,3.0
2,5.966000080108643,learn,54033.99991989136,Thu Feb 05 2026 16:21:15 GMT-0500 (Eastern Standard Time),261025.80000019073,A,doo,I,o,101,1,1250.1999998092651,259775.60000038147,9047,WL,B,3.0
2,6.233000040054321,learn,53766.99995994568,Thu Feb 05 2026 16:21:15 GMT-0500 (Eastern Standard Time),261292.39999961853,A,door,I,r,242,1,1516.7999992370605,259775.60000038147,9047,WL,B,3.0
2,6.499000072479248,learn,53500.99992752075,Thu Feb 05 2026 16:21:15 GMT-0500 (Eastern Standard Time),261558.69999980927,A,doorenter,I,enter,245,1,1783.0999994277954,259775.60000038147,9047,WL,B,3.0
2,6.966000080108643,learn,53033.99991989136,Thu Feb 05 2026 16:21:15 GMT-0500 (Eastern Standard Time),262025.69999980927,A,a,I,a,447,1,466.5999994277954,261559.10000038147,9047,WL,B,4.0
2,7.200000047683716,learn,52799.999952316284,Thu Feb 05 2026 16:21:15 GMT-0500 (Eastern Standard Time),262259.0,A,ar,I,r,216,1,699.8999996185303,261559.10000038147,9047,WL,B,4.0
2,8.466000080108643,learn,51533.99991989136,Thu Feb 05 2026 16:21:15 GMT-0500 (Eastern Standard Time),263525.69999980927,A,arm,I,m,1248,1,1966.5999994277954,261559.10000038147,9047,WL,B,4.0
2,8.799000024795532,learn,51200.99997520447,Thu Feb 05 2026 16:21:15 GMT-0500 (Eastern Standard Time),263858.60000038147,A,armenter,I,enter,316,1,2299.5,261559.10000038147,9047,WL,B,4.0
2,9.25,learn,50750.0,Thu Feb 05 2026 16:21:15 GMT-0500 (Eastern Standard Time),264309.10000038147,A,s,I,s,436,1,450.20000076293945,263858.89999961853,9047,WL,B,5.0
2,9.450000047683716,learn,50549.999952316284,Thu Feb 05 2026 16:21:15 GMT-0500 (Eastern Standard Time),264509.30000019073,A,st,I,t,191,1,650.4000005722046,263858.89999961853,9047,WL,B,5.0
2,9.616000175476074,learn,50383.999824523926,Thu Feb 05 2026 16:21:15 GMT-0500 (Eastern Standard Time),264675.80000019073,A,sta,I,a,141,1,816.9000005722046,263858.89999961853,9047,WL,B,5.0
2,9.766000032424927,learn,50233.99996757507,Thu Feb 05 2026 16:21:15 GMT-0500 (Eastern Standard Time),264825.80000019073,A,star,I,r,127,1,966.9000005722046,263858.89999961853,9047,WL,B,5.0
2,10.565999984741211,learn,49434.00001525879,Thu Feb 05 2026 16:21:15 GMT-0500 (Eastern Standard Time),265625.30000019073,A,starenter,I,enter,768,1,1766.4000005722046,263858.89999961853,9047,WL,B,5.0
2,12.266000032424927,learn,47733.99996757507,Thu Feb 05 2026 16:21:15 GMT-0500 (Eastern Standard Time),267325.80000019073,A,w,I,w,1677,1,1700.1999998092651,265625.60000038147,9047,WL,B,6.0
2,12.483000040054321,learn,47516.99995994568,Thu Feb 05 2026 16:21:15 GMT-0500 (Eastern Standard Time),267542.39999961853,A,wi,I,i,198,1,1916.7999992370605,265625.60000038147,9047,WL,B,6.0
2,13.315999984741211,learn,46684.00001525879,Thu Feb 05 2026 16:21:15 GMT-0500 (Eastern Standard Time),268375.89999961853,A,win,I,n,812,1,2750.2999992370605,265625.60000038147,9047,WL,B,6.0
2,13.516000032424927,learn,46483.99996757507,Thu Feb 05 2026 16:21:15 GMT-0500 (Eastern Standard Time),268575.69999980927,A,wind,I,d,187,1,2950.0999994277954,265625.60000038147,9047,WL,B,6.0
2,13.683000087738037,learn,46316.99991226196,Thu Feb 05 2026 16:21:15 GMT-0500 (Eastern Standard Time),268742.39999961853,A,windo,I,o,147,1,3116.7999992370605,265625.60000038147,9047,WL,B,6.0
2,13.900000095367432,learn,46099.99990463257,Thu Feb 05 2026 16:21:15 GMT-0500 (Eastern Standard Time),268959.10000038147,A,window,I,w,205,1,3333.5,265625.60000038147,9047,WL,B,6.0
2,14.166000127792358,learn,45833.99987220764,Thu Feb 05 2026 16:21:15 GMT-0500 (Eastern Standard Time),269225.30000019073,A,windowenter,I,enter,244,1,3599.699999809265,265625.60000038147,9047,WL,B,6.0
2,14.815999984741211,learn,45184.00001525879,Thu Feb 05 2026 16:21:15 GMT-0500 (Eastern Standard Time),269875.69999980927,A,w,I,w,637,1,650.0999994277954,269225.60000038147,9047,WL,B,7.0
2,15.183000087738037,learn,44816.99991226196,Thu Feb 05 2026 16:21:15 GMT-0500 (Eastern Standard Time),270242.5,A,wi,I,i,352,1,1016.8999996185303,269225.60000038147,9047,WL,B,7.0
2,15.950000047683716,learn,44049.999952316284,Thu Feb 05 2026 16:21:15 GMT-0500 (Eastern Standard Time),271009.10000038147,A,wif,I,f,753,1,1783.5,269225.60000038147,9047,WL,B,7.0
2,16.200000047683716,learn,43799.999952316284,Thu Feb 05 2026 16:21:15 GMT-0500 (Eastern Standard Time),271259.10000038147,A,wife,I,e,226,1,2033.5,269225.60000038147,9047,WL,B,7.0
2,16.56599998474121,learn,43434.00001525879,Thu Feb 05 2026 16:21:15 GMT-0500 (Eastern Standard Time),271625.19999980927,A,wifeenter,I,enter,344,1,2399.5999994277954,269225.60000038147,9047,WL,B,7.0
2,17.450000047683716,learn,42549.999952316284,Thu Feb 05 2026 16:21:15 GMT-0500 (Eastern Standard Time),272509.19999980927,A,p,I,p,878,1,883.5999994277954,271625.60000038147,9047,WL,B,8.0
2,17.81599998474121,learn,42184.00001525879,Thu Feb 05 2026 16:21:15 GMT-0500 (Eastern Standard Time),272875.69999980927,A,pu,I,u,343,1,1250.0999994277954,271625.60000038147,9047,WL,B,8.0
2,18.58300018310547,learn,41416.99981689453,Thu Feb 05 2026 16:21:15 GMT-0500 (Eastern Standard Time),273642.60000038147,A,pup,I,p,742,1,2017.0,271625.60000038147,9047,WL,B,8.0
2,18.782999992370605,learn,41217.000007629395,Thu Feb 05 2026 16:21:15 GMT-0500 (Eastern Standard Time),273842.39999961853,A,pupi,I,i,184,1,2216.7999992370605,271625.60000038147,9047,WL,B,8.0
2,19.06599998474121,learn,40934.00001525879,Thu Feb 05 2026 16:21:15 GMT-0500 (Eastern Standard Time),274125.39999961853,A,pupil,I,l,272,1,2499.7999992370605,271625.60000038147,9047,WL,B,8.0
2,19.532000064849854,learn,40467.99993515015,Thu Feb 05 2026 16:21:15 GMT-0500 (Eastern Standard Time),274591.89999961853,A,pupilenter,I,enter,453,1,2966.2999992370605,271625.60000038147,9047,WL,B,8.0
2,20.33300018310547,learn,39666.99981689453,Thu Feb 05 2026 16:21:15 GMT-0500 (Eastern Standard Time),275392.39999961853,A,c,I,c,791,1,800.1999998092651,274592.19999980927,9047,WL,B,9.0
2,20.549000024795532,learn,39450.99997520447,Thu Feb 05 2026 16:21:15 GMT-0500 (Eastern Standard Time),275609.0,A,ca,I,a,195,1,1016.8000001907349,274592.19999980927,9047,WL,B,9.0
2,20.800000190734863,learn,39199.99980926514,Thu Feb 05 2026 16:21:15 GMT-0500 (Eastern Standard Time),275859.10000038147,A,cak,I,k,235,1,1266.9000005722046,274592.19999980927,9047,WL,B,9.0
2,21.532999992370605,learn,38467.000007629395,Thu Feb 05 2026 16:21:15 GMT-0500 (Eastern Standard Time),276592.39999961853,A,ca,I,backspace,720,1,2000.1999998092651,274592.19999980927,9047,WL,B,9.0
2,21.91600012779236,learn,38083.99987220764,Thu Feb 05 2026 16:21:15 GMT-0500 (Eastern Standard Time),276975.60000038147,A,cab,I,b,371,1,2383.4000005722046,274592.19999980927,9047,WL,B,9.0
2,22.16600012779236,learn,37833.99987220764,Thu Feb 05 2026 16:21:15 GMT-0500 (Eastern Standard Time),277225.80000019073,A,cabi,I,i,227,1,2633.6000003814697,274592.19999980927,9047,WL,B,9.0
2,22.383000135421753,learn,37616.99986457825,Thu Feb 05 2026 16:21:15 GMT-0500 (Eastern Standard Time),277442.39999961853,A,cabin,I,n,203,1,2850.199999809265,274592.19999980927,9047,WL,B,9.0
2,23.049000024795532,learn,36950.99997520447,Thu Feb 05 2026 16:21:15 GMT-0500 (Eastern Standard Time),278108.5,A,cabinenter,I,enter,653,1,3516.300000190735,274592.19999980927,9047,WL,B,9.0
2,23.766000032424927,learn,36233.99996757507,Thu Feb 05 2026 16:21:15 GMT-0500 (Eastern Standard Time),278825.89999961853,A,l,I,l,697,1,717.0999994277954,278108.80000019073,9047,WL,B,10.0
2,23.966000080108643,learn,36033.99991989136,Thu Feb 05 2026 16:21:15 GMT-0500 (Eastern Standard Time),279025.69999980927,A,la,I,a,185,1,916.8999996185303,278108.80000019073,9047,WL,B,10.0
2,24.098999977111816,learn,35901.00002288818,Thu Feb 05 2026 16:21:15 GMT-0500 (Eastern Standard Time),279159.0,A,lak,I,k,106,1,1050.1999998092651,278108.80000019073,9047,WL,B,10.0
2,24.31599998474121,learn,35684.00001525879,Thu Feb 05 2026 16:21:15 GMT-0500 (Eastern Standard Time),279375.69999980927,A,lake,I,e,202,1,1266.8999996185303,278108.80000019073,9047,WL,B,10.0
2,24.616000175476074,learn,35383.999824523926,Thu Feb 05 2026 16:21:15 GMT-0500 (Eastern Standard Time),279675.30000019073,A,lakeenter,I,enter,275,1,1566.5,278108.80000019073,9047,WL,B,10.0
2,25.48300004005432,learn,34516.99995994568,Thu Feb 05 2026 16:21:15 GMT-0500 (Eastern Standard Time),280542.10000038147,A,f,I,f,860,1,866.5,279675.60000038147,9047,WL,B,11.0
2,25.73300004005432,learn,34266.99995994568,Thu Feb 05 2026 16:21:15 GMT-0500 (Eastern Standard Time),280792.39999961853,A,fi,I,i,230,1,1116.7999992370605,279675.60000038147,9047,WL,B,11.0
2,26.100000143051147,learn,33899.99985694885,Thu Feb 05 2026 16:21:15 GMT-0500 (Eastern Standard Time),281159.10000038147,A,fir,I,r,347,1,1483.5,279675.60000038147,9047,WL,B,11.0
2,26.41600012779236,learn,33583.99987220764,Thu Feb 05 2026 16:21:15 GMT-0500 (Eastern Standard Time),281475.69999980927,A,fire,I,e,301,1,1800.0999994277954,279675.60000038147,9047,WL,B,11.0
2,27.598999977111816,learn,32401.000022888184,Thu Feb 05 2026 16:21:15 GMT-0500 (Eastern Standard Time),282658.5,A,fireenter,I,enter,1165,1,2982.8999996185303,279675.60000038147,9047,WL,B,11.0
2,49.80000019073486,learn,10199.999809265137,Thu Feb 05 2026 16:21:15 GMT-0500 (Eastern Standard Time),304859.10000038147,A,f,I,f,22180,1,22200.20000076294,282658.89999961853,9047,WL,B,12.0
2,50.348999977111816,learn,9651.000022888184,Thu Feb 05 2026 16:21:15 GMT-0500 (Eastern Standard Time),305409.0,A,fi,I,i,536,1,22750.10000038147,282658.89999961853,9047,WL,B,12.0
2,50.699000120162964,learn,9300.999879837036,Thu Feb 05 2026 16:21:15 GMT-0500 (Eastern Standard Time),305759.0,A,fir,I,r,338,1,23100.10000038147,282658.89999961853,9047,WL,B,12.0
2,50.96600008010864,learn,9033.999919891357,Thu Feb 05 2026 16:21:15 GMT-0500 (Eastern Standard Time),306025.80000019073,A,fire,I,e,244,1,23366.900000572205,282658.89999961853,9047,WL,B,12.0
2,53.03200006484985,learn,6967.9999351501465,Thu Feb 05 2026 16:21:15 GMT-0500 (Eastern Standard Time),308091.89999961853,A,fireenter,I,enter,2041,1,25433.0,282658.89999961853,9047,WL,B,12.0
2,60.01600003242493,learn,-16.000032424926758,Thu Feb 05 2026 16:21:15 GMT-0500 (Eastern Standard Time),315075.89999961853,A,None,I,None,6977,1,6983.599999427795,308092.30000019073,9047,WL,B,13.0
3,0.9000000953674316,learn,59099.99990463257,Thu Feb 05 2026 16:21:15 GMT-0500 (Eastern Standard Time),386392.39999961853,A,s,I,s,880,1,899.7999992370605,385492.60000038147,9047,WL,B,1.0
3,1.1500000953674316,learn,58849.99990463257,Thu Feb 05 2026 16:21:15 GMT-0500 (Eastern Standard Time),386642.30000019073,A,st,I,t,232,1,1149.6999998092651,385492.60000038147,9047,WL,B,1.0
3,1.2829999923706055,learn,58717.000007629395,Thu Feb 05 2026 16:21:15 GMT-0500 (Eastern Standard Time),386775.39999961853,A,str,I,r,114,1,1282.7999992370605,385492.60000038147,9047,WL,B,1.0
3,1.6500000953674316,learn,58349.99990463257,Thu Feb 05 2026 16:21:15 GMT-0500 (Eastern Standard Time),387142.39999961853,A,stre,I,e,339,1,1649.7999992370605,385492.60000038147,9047,WL,B,1.0
3,1.816999912261963,learn,58183.00008773804,Thu Feb 05 2026 16:21:15 GMT-0500 (Eastern Standard Time),387309.10000038147,A,stree,I,e,157,1,1816.5,385492.60000038147,9047,WL,B,1.0
3,2.0160000324249268,learn,57983.99996757507,Thu Feb 05 2026 16:21:15 GMT-0500 (Eastern Standard Time),387509.0,A,street,I,t,182,1,2016.3999996185303,385492.60000038147,9047,WL,B,1.0
3,2.6489999294281006,learn,57351.0000705719,Thu Feb 05 2026 16:21:15 GMT-0500 (Eastern Standard Time),388141.69999980927,A,streetenter,I,enter,621,1,2649.0999994277954,385492.60000038147,9047,WL,B,1.0
3,3.299999952316284,learn,56700.000047683716,Thu Feb 05 2026 16:21:15 GMT-0500 (Eastern Standard Time),388792.30000019073,A,g,I,g,633,1,650.1999998092651,388142.10000038147,9047,WL,B,2.0
3,3.5329999923706055,learn,56467.000007629395,Thu Feb 05 2026 16:21:15 GMT-0500 (Eastern Standard Time),389025.69999980927,A,gr,I,r,219,1,883.5999994277954,388142.10000038147,9047,WL,B,2.0
3,3.7660000324249268,learn,56233.99996757507,Thu Feb 05 2026 16:21:15 GMT-0500 (Eastern Standard Time),389259.0,A,gra,I,a,209,1,1116.8999996185303,388142.10000038147,9047,WL,B,2.0
3,4.0,learn,56000.0,Thu Feb 05 2026 16:21:15 GMT-0500 (Eastern Standard Time),389492.39999961853,A,gras,I,s,216,1,1350.2999992370605,388142.10000038147,9047,WL,B,2.0
3,4.165999889373779,learn,55834.00011062622,Thu Feb 05 2026 16:21:15 GMT-0500 (Eastern Standard Time),389658.89999961853,A,grass,I,s,142,1,1516.7999992370605,388142.10000038147,9047,WL,B,2.0
3,4.348999977111816,learn,55651.00002288818,Thu Feb 05 2026 16:21:15 GMT-0500 (Eastern Standard Time),389841.80000019073,A,grassenter,I,enter,160,1,1699.6999998092651,388142.10000038147,9047,WL,B,2.0
3,4.75,learn,55250.0,Thu Feb 05 2026 16:21:15 GMT-0500 (Eastern Standard Time),390242.19999980927,A,d,I,d,389,1,400.0,389842.19999980927,9047,WL,B,3.0
3,5.016000032424927,learn,54983.99996757507,Thu Feb 05 2026 16:21:15 GMT-0500 (Eastern Standard Time),390508.89999961853,A,do,I,o,240,1,666.6999998092651,389842.19999980927,9047,WL,B,3.0
3,5.315999984741211,learn,54684.00001525879,Thu Feb 05 2026 16:21:15 GMT-0500 (Eastern Standard Time),390809.0,A,dor,I,r,277,1,966.8000001907349,389842.19999980927,9047,WL,B,3.0
3,6.165999889373779,learn,53834.00011062622,Thu Feb 05 2026 16:21:15 GMT-0500 (Eastern Standard Time),391659.0,A,dorm,I,m,817,1,1816.8000001907349,389842.19999980927,9047,WL,B,3.0
3,6.766000032424927,learn,53233.99996757507,Thu Feb 05 2026 16:21:15 GMT-0500 (Eastern Standard Time),392258.39999961853,A,dormenter,I,enter,582,1,2416.199999809265,389842.19999980927,9047,WL,B,3.0
3,8.16599988937378,learn,51834.00011062622,Thu Feb 05 2026 16:21:15 GMT-0500 (Eastern Standard Time),393658.19999980927,A,a,I,a,1389,1,1399.3999996185303,392258.80000019073,9047,WL,B,4.0
3,8.565999984741211,learn,51434.00001525879,Thu Feb 05 2026 16:21:15 GMT-0500 (Eastern Standard Time),394059.0,A,ar,I,r,381,1,1800.1999998092651,392258.80000019073,9047,WL,B,4.0
3,9.516000032424927,learn,50483.99996757507,Thu Feb 05 2026 16:21:15 GMT-0500 (Eastern Standard Time),395009.0,A,arm,I,m,936,1,2750.199999809265,392258.80000019073,9047,WL,B,4.0
3,9.882999897003174,learn,50117.000102996826,Thu Feb 05 2026 16:21:15 GMT-0500 (Eastern Standard Time),395375.10000038147,A,armenter,I,enter,353,1,3116.300000190735,392258.80000019073,9047,WL,B,4.0
3,10.58299994468689,learn,49417.00005531311,Thu Feb 05 2026 16:21:15 GMT-0500 (Eastern Standard Time),396075.69999980927,A,s,I,s,680,1,700.1999998092651,395375.5,9047,WL,B,5.0
3,10.816999912261963,learn,49183.00008773804,Thu Feb 05 2026 16:21:15 GMT-0500 (Eastern Standard Time),396309.0,A,st,I,t,211,1,933.5,395375.5,9047,WL,B,5.0
3,11.0,learn,49000.0,Thu Feb 05 2026 16:21:15 GMT-0500 (Eastern Standard Time),396492.30000019073,A,sta,I,a,157,1,1116.8000001907349,395375.5,9047,WL,B,5.0
3,11.132999897003174,learn,48867.000102996826,Thu Feb 05 2026 16:21:15 GMT-0500 (Eastern Standard Time),396625.5,A,star,I,r,119,1,1250.0,395375.5,9047,WL,B,5.0
3,11.698999881744385,learn,48301.000118255615,Thu Feb 05 2026 16:21:15 GMT-0500 (Eastern Standard Time),397191.69999980927,A,starenter,I,enter,545,1,1816.1999998092651,395375.5,9047,WL,B,5.0
3,12.349999904632568,learn,47650.00009536743,Thu Feb 05 2026 16:21:15 GMT-0500 (Eastern Standard Time),397842.30000019073,A,w,I,w,639,1,650.1999998092651,397192.10000038147,9047,WL,B,6.0
3,12.615999937057495,learn,47384.000062942505,Thu Feb 05 2026 16:21:15 GMT-0500 (Eastern Standard Time),398108.89999961853,A,wi,I,i,241,1,916.7999992370605,397192.10000038147,9047,WL,B,6.0
3,12.900000095367432,learn,47099.99990463257,Thu Feb 05 2026 16:21:15 GMT-0500 (Eastern Standard Time),398392.30000019073,A,wif,I,f,262,1,1200.1999998092651,397192.10000038147,9047,WL,B,6.0
3,13.065999984741211,learn,46934.00001525879,Thu Feb 05 2026 16:21:15 GMT-0500 (Eastern Standard Time),398558.89999961853,A,wife,I,e,155,1,1366.7999992370605,397192.10000038147,9047,WL,B,6.0
3,13.41599988937378,learn,46584.00011062622,Thu Feb 05 2026 16:21:15 GMT-0500 (Eastern Standard Time),398908.39999961853,A,wifeenter,I,enter,324,1,1716.2999992370605,397192.10000038147,9047,WL,B,6.0
3,13.700000047683716,learn,46299.999952316284,Thu Feb 05 2026 16:21:15 GMT-0500 (Eastern Standard Time),399192.10000038147,A,w,I,w,266,1,283.30000019073486,398908.80000019073,9047,WL,B,7.0
3,13.933000087738037,learn,46066.99991226196,Thu Feb 05 2026 16:21:15 GMT-0500 (Eastern Standard Time),399425.19999980927,A,wi,I,i,217,1,516.3999996185303,398908.80000019073,9047,WL,B,7.0
3,14.200000047683716,learn,45799.999952316284,Thu Feb 05 2026 16:21:15 GMT-0500 (Eastern Standard Time),399692.39999961853,A,win,I,n,245,1,783.5999994277954,398908.80000019073,9047,WL,B,7.0
3,14.382999897003174,learn,45617.000102996826,Thu Feb 05 2026 16:21:15 GMT-0500 (Eastern Standard Time),399875.30000019073,A,wind,I,d,164,1,966.5,398908.80000019073,9047,WL,B,7.0
3,14.532999992370605,learn,45467.000007629395,Thu Feb 05 2026 16:21:15 GMT-0500 (Eastern Standard Time),400025.5,A,windo,I,o,124,1,1116.6999998092651,398908.80000019073,9047,WL,B,7.0
3,14.799999952316284,learn,45200.000047683716,Thu Feb 05 2026 16:21:15 GMT-0500 (Eastern Standard Time),400292.30000019073,A,window,I,w,242,1,1383.5,398908.80000019073,9047,WL,B,7.0
3,15.33299994468689,learn,44667.00005531311,Thu Feb 05 2026 16:21:15 GMT-0500 (Eastern Standard Time),400825.19999980927,A,windowenter,I,enter,511,1,1916.3999996185303,398908.80000019073,9047,WL,B,7.0
3,16.31599998474121,learn,43684.00001525879,Thu Feb 05 2026 16:21:15 GMT-0500 (Eastern Standard Time),401808.89999961853,A,c,I,c,973,1,983.3999996185303,400825.5,9047,WL,B,8.0
3,16.716000080108643,learn,43283.99991989136,Thu Feb 05 2026 16:21:15 GMT-0500 (Eastern Standard Time),402208.89999961853,A,ci,I,i,386,1,1383.3999996185303,400825.5,9047,WL,B,8.0
3,17.23300004005432,learn,42766.99995994568,Thu Feb 05 2026 16:21:15 GMT-0500 (Eastern Standard Time),402725.60000038147,A,cit,I,t,498,1,1900.1000003814697,400825.5,9047,WL,B,8.0
3,17.5,learn,42500.0,Thu Feb 05 2026 16:21:15 GMT-0500 (Eastern Standard Time),402992.30000019073,A,city,I,y,251,1,2166.800000190735,400825.5,9047,WL,B,8.0
3,18.365999937057495,learn,41634.000062942505,Thu Feb 05 2026 16:21:15 GMT-0500 (Eastern Standard Time),403858.39999961853,A,cityenter,I,enter,846,1,3032.8999996185303,400825.5,9047,WL,B,8.0
3,19.282999992370605,learn,40717.000007629395,Thu Feb 05 2026 16:21:15 GMT-0500 (Eastern Standard Time),404775.5,A,p,I,p,901,1,916.8000001907349,403858.69999980927,9047,WL,B,9.0
3,19.65000009536743,learn,40349.99990463257,Thu Feb 05 2026 16:21:15 GMT-0500 (Eastern Standard Time),405142.30000019073,A,pu,I,u,348,1,1283.6000003814697,403858.69999980927,9047,WL,B,9.0
3,19.950000047683716,learn,40049.999952316284,Thu Feb 05 2026 16:21:15 GMT-0500 (Eastern Standard Time),405442.30000019073,A,pup,I,p,284,1,1583.6000003814697,403858.69999980927,9047,WL,B,9.0
3,20.282999992370605,learn,39717.000007629395,Thu Feb 05 2026 16:21:15 GMT-0500 (Eastern Standard Time),405775.60000038147,A,pupi,I,i,320,1,1916.9000005722046,403858.69999980927,9047,WL,B,9.0
3,20.549999952316284,learn,39450.000047683716,Thu Feb 05 2026 16:21:15 GMT-0500 (Eastern Standard Time),406042.19999980927,A,pupil,I,l,242,1,2183.5,403858.69999980927,9047,WL,B,9.0
3,20.948999881744385,learn,39051.000118255615,Thu Feb 05 2026 16:21:15 GMT-0500 (Eastern Standard Time),406441.69999980927,A,pupilenter,I,enter,377,1,2583.0,403858.69999980927,9047,WL,B,9.0
3,23.34999990463257,learn,36650.00009536743,Thu Feb 05 2026 16:21:15 GMT-0500 (Eastern Standard Time),408842.30000019073,A,c,I,c,2381,1,2400.199999809265,406442.10000038147,9047,WL,B,10.0
3,23.58299994468689,learn,36417.00005531311,Thu Feb 05 2026 16:21:15 GMT-0500 (Eastern Standard Time),409075.5,A,ca,I,a,217,1,2633.3999996185303,406442.10000038147,9047,WL,B,10.0
3,23.83299994468689,learn,36167.00005531311,Thu Feb 05 2026 16:21:15 GMT-0500 (Eastern Standard Time),409325.39999961853,A,cab,I,b,232,1,2883.2999992370605,406442.10000038147,9047,WL,B,10.0
3,24.617000102996826,learn,35382.999897003174,Thu Feb 05 2026 16:21:15 GMT-0500 (Eastern Standard Time),410109.30000019073,A,cabi,I,i,766,1,3667.199999809265,406442.10000038147,9047,WL,B,10.0
3,24.950000047683716,learn,35049.999952316284,Thu Feb 05 2026 16:21:15 GMT-0500 (Eastern Standard Time),410442.19999980927,A,cabin,I,n,310,1,4000.0999994277954,406442.10000038147,9047,WL,B,10.0
3,25.31599998474121,learn,34684.00001525879,Thu Feb 05 2026 16:21:15 GMT-0500 (Eastern Standard Time),410808.5,A,cabinenter,I,enter,345,1,4366.39999961853,406442.10000038147,9047,WL,B,10.0
3,26.15000009536743,learn,33849.99990463257,Thu Feb 05 2026 16:21:15 GMT-0500 (Eastern Standard Time),411642.30000019073,A,f,I,f,814,1,833.6000003814697,410808.69999980927,9047,WL,B,11.0
3,26.5,learn,33500.0,Thu Feb 05 2026 16:21:15 GMT-0500 (Eastern Standard Time),411992.19999980927,A,fi,I,i,329,1,1183.5,410808.69999980927,9047,WL,B,11.0
3,26.766000032424927,learn,33233.99996757507,Thu Feb 05 2026 16:21:15 GMT-0500 (Eastern Standard Time),412259.0,A,fir,I,r,251,1,1450.3000001907349,410808.69999980927,9047,WL,B,11.0
3,27.0,learn,33000.0,Thu Feb 05 2026 16:21:15 GMT-0500 (Eastern Standard Time),412492.30000019073,A,fire,I,e,202,1,1683.6000003814697,410808.69999980927,9047,WL,B,11.0
3,28.299000024795532,learn,31700.999975204468,Thu Feb 05 2026 16:21:15 GMT-0500 (Eastern Standard Time),413791.80000019073,A,fireenter,I,enter,1287,1,2983.1000003814697,410808.69999980927,9047,WL,B,11.0
3,28.865999937057495,learn,31134.000062942505,Thu Feb 05 2026 16:21:15 GMT-0500 (Eastern Standard Time),414358.89999961853,A,s,I,s,551,1,566.7999992370605,413792.10000038147,9047,WL,B,12.0
3,29.08299994468689,learn,30917.00005531311,Thu Feb 05 2026 16:21:15 GMT-0500 (Eastern Standard Time),414575.60000038147,A,sk,I,k,204,1,783.5,413792.10000038147,9047,WL,B,12.0
3,29.282999992370605,learn,30717.000007629395,Thu Feb 05 2026 16:21:15 GMT-0500 (Eastern Standard Time),414775.69999980927,A,ski,I,i,171,1,983.5999994277954,413792.10000038147,9047,WL,B,12.0
3,30.0,learn,30000.0,Thu Feb 05 2026 16:21:15 GMT-0500 (Eastern Standard Time),415492.30000019073,A,skin,I,n,699,1,1700.1999998092651,413792.10000038147,9047,WL,B,12.0
3,30.3989999294281,learn,29601.0000705719,Thu Feb 05 2026 16:21:15 GMT-0500 (Eastern Standard Time),415891.80000019073,A,skinenter,I,enter,382,1,2099.699999809265,413792.10000038147,9047,WL,B,12.0
3,30.83299994468689,learn,29167.00005531311,Thu Feb 05 2026 16:21:15 GMT-0500 (Eastern Standard Time),416325.5,A,l,I,l,419,1,433.3999996185303,415892.10000038147,9047,WL,B,13.0
3,31.0,learn,29000.0,Thu Feb 05 2026 16:21:15 GMT-0500 (Eastern Standard Time),416492.30000019073,A,la,I,a,139,1,600.1999998092651,415892.10000038147,9047,WL,B,13.0
3,31.115999937057495,learn,28884.000062942505,Thu Feb 05 2026 16:21:15 GMT-0500 (Eastern Standard Time),416609.0,A,lak,I,k,103,1,716.8999996185303,415892.10000038147,9047,WL,B,13.0
3,31.40000009536743,learn,28599.99990463257,Thu Feb 05 2026 16:21:15 GMT-0500 (Eastern Standard Time),416892.30000019073,A,lake,I,e,258,1,1000.1999998092651,415892.10000038147,9047,WL,B,13.0
3,31.598999977111816,learn,28401.000022888184,Thu Feb 05 2026 16:21:15 GMT-0500 (Eastern Standard Time),417091.80000019073,A,lakeenter,I,enter,182,1,1199.6999998092651,415892.10000038147,9047,WL,B,13.0
3,32.66599988937378,learn,27334.00011062622,Thu Feb 05 2026 16:21:15 GMT-0500 (Eastern Standard Time),418158.80000019073,A,c,I,c,1059,1,1066.6000003814697,417092.19999980927,9047,WL,B,14.0
3,32.91599988937378,learn,27084.00011062622,Thu Feb 05 2026 16:21:15 GMT-0500 (Eastern Standard Time),418409.0,A,ca,I,a,228,1,1316.8000001907349,417092.19999980927,9047,WL,B,14.0
3,33.04900002479553,learn,26950.999975204468,Thu Feb 05 2026 16:21:15 GMT-0500 (Eastern Standard Time),418542.0,A,cal,I,l,122,1,1449.8000001907349,417092.19999980927,9047,WL,B,14.0
3,33.26600003242493,learn,26733.999967575073,Thu Feb 05 2026 16:21:15 GMT-0500 (Eastern Standard Time),418758.80000019073,A,calo,I,o,196,1,1666.6000003814697,417092.19999980927,9047,WL,B,14.0
3,33.48300004005432,learn,26516.99995994568,Thu Feb 05 2026 16:21:15 GMT-0500 (Eastern Standard Time),418975.60000038147,A,caloc,I,c,199,1,1883.4000005722046,417092.19999980927,9047,WL,B,14.0
3,33.65000009536743,learn,26349.99990463257,Thu Feb 05 2026 16:21:15 GMT-0500 (Eastern Standard Time),419142.30000019073,A,calock,I,k,148,1,2050.1000003814697,417092.19999980927,9047,WL,B,14.0
3,34.71600008010864,learn,25283.999919891357,Thu Feb 05 2026 16:21:15 GMT-0500 (Eastern Standard Time),420208.89999961853,A,caloc,I,backspace,1047,1,3116.699999809265,417092.19999980927,9047,WL,B,14.0
3,34.90000009536743,learn,25099.99990463257,Thu Feb 05 2026 16:21:15 GMT-0500 (Eastern Standard Time),420392.19999980927,A,calo,I,backspace,162,1,3300.0,417092.19999980927,9047,WL,B,14.0
3,35.032999992370605,learn,24967.000007629395,Thu Feb 05 2026 16:21:15 GMT-0500 (Eastern Standard Time),420525.39999961853,A,cal,I,backspace,123,1,3433.199999809265,417092.19999980927,9047,WL,B,14.0
3,35.18300008773804,learn,24816.999912261963,Thu Feb 05 2026 16:21:15 GMT-0500 (Eastern Standard Time),420675.5,A,ca,I,backspace,134,1,3583.300000190735,417092.19999980927,9047,WL,B,14.0
3,35.34999990463257,learn,24650.00009536743,Thu Feb 05 2026 16:21:15 GMT-0500 (Eastern Standard Time),420842.19999980927,A,c,I,backspace,142,1,3750.0,417092.19999980927,9047,WL,B,14.0
3,36.0,learn,24000.0,Thu Feb 05 2026 16:21:15 GMT-0500 (Eastern Standard Time),421492.30000019073,A,cl,I,l,634,1,4400.10000038147,417092.19999980927,9047,WL,B,14.0
3,36.200000047683716,learn,23799.999952316284,Thu Feb 05 2026 16:21:15 GMT-0500 (Eastern Standard Time),421692.30000019073,A,clo,I,o,173,1,4600.10000038147,417092.19999980927,9047,WL,B,14.0
3,36.40000009536743,learn,23599.99990463257,Thu Feb 05 2026 16:21:15 GMT-0500 (Eastern Standard Time),421892.19999980927,A,cloc,I,c,183,1,4800.0,417092.19999980927,9047,WL,B,14.0
3,36.532999992370605,learn,23467.000007629395,Thu Feb 05 2026 16:21:15 GMT-0500 (Eastern Standard Time),422025.60000038147,A,clock,I,k,103,1,4933.400000572205,417092.19999980927,9047,WL,B,14.0
3,37.08299994468689,learn,22917.00005531311,Thu Feb 05 2026 16:21:15 GMT-0500 (Eastern Standard Time),422575.0,A,clockenter,I,enter,529,1,5482.800000190735,417092.19999980927,9047,WL,B,14.0
3,54.115999937057495,learn,5884.000062942505,Thu Feb 05 2026 16:21:15 GMT-0500 (Eastern Standard Time),439609.0,A,p,I,p,17015,1,17033.60000038147,422575.39999961853,9047,WL,B,15.0
3,54.33299994468689,learn,5667.00005531311,Thu Feb 05 2026 16:21:15 GMT-0500 (Eastern Standard Time),439825.60000038147,A,pi,I,i,201,1,17250.20000076294,422575.39999961853,9047,WL,B,15.0
3,54.51600003242493,learn,5483.999967575073,Thu Feb 05 2026 16:21:15 GMT-0500 (Eastern Standard Time),440008.80000019073,A,pip,I,p,162,1,17433.400000572205,422575.39999961853,9047,WL,B,15.0
3,55.032999992370605,learn,4967.0000076293945,Thu Feb 05 2026 16:21:15 GMT-0500 (Eastern Standard Time),440525.19999980927,A,pipe,I,e,497,1,17949.800000190735,422575.39999961853,9047,WL,B,15.0
3,55.41599988937378,learn,4584.000110626221,Thu Feb 05 2026 16:21:15 GMT-0500 (Eastern Standard Time),440908.39999961853,A,pipeenter,I,enter,373,1,18333.0,422575.39999961853,9047,WL,B,15.0
4,1.0,learn,59000.0,Thu Feb 05 2026 16:21:15 GMT-0500 (Eastern Standard Time),512108.80000019073,A,s,I,s,976,1,999.6000003814697,511109.19999980927,9047,WL,B,1.0
4,1.184000015258789,learn,58815.99998474121,Thu Feb 05 2026 16:21:15 GMT-0500 (Eastern Standard Time),512292.10000038147,A,st,I,t,167,1,1182.9000005722046,511109.19999980927,9047,WL,B,1.0
4,1.317000150680542,learn,58682.99984931946,Thu Feb 05 2026 16:21:15 GMT-0500 (Eastern Standard Time),512425.5,A,str,I,r,105,1,1316.3000001907349,511109.19999980927,9047,WL,B,1.0
4,1.5169999599456787,learn,58483.00004005432,Thu Feb 05 2026 16:21:15 GMT-0500 (Eastern Standard Time),512625.39999961853,A,stre,I,e,187,1,1516.1999998092651,511109.19999980927,9047,WL,B,1.0
4,1.7000000476837158,learn,58299.999952316284,Thu Feb 05 2026 16:21:15 GMT-0500 (Eastern Standard Time),512808.80000019073,A,stree,I,e,160,1,1699.6000003814697,511109.19999980927,9047,WL,B,1.0
4,1.7999999523162842,learn,58200.000047683716,Thu Feb 05 2026 16:21:15 GMT-0500 (Eastern Standard Time),512908.89999961853,A,street,I,t,90,1,1799.6999998092651,511109.19999980927,9047,WL,B,1.0
4,3.0,learn,57000.0,Thu Feb 05 2026 16:21:15 GMT-0500 (Eastern Standard Time),514108.30000019073,A,streetenter,I,enter,1191,1,2999.1000003814697,511109.19999980927,9047,WL,B,1.0
4,3.7339999675750732,learn,56266.00003242493,Thu Feb 05 2026 16:21:15 GMT-0500 (Eastern Standard Time),514842.10000038147,A,g,I,g,713,1,733.4000005722046,514108.69999980927,9047,WL,B,2.0
4,3.950000047683716,learn,56049.999952316284,Thu Feb 05 2026 16:21:15 GMT-0500 (Eastern Standard Time),515058.80000019073,A,gr,I,r,200,1,950.1000003814697,514108.69999980927,9047,WL,B,2.0
4,4.367000102996826,learn,55632.999897003174,Thu Feb 05 2026 16:21:15 GMT-0500 (Eastern Standard Time),515475.5,A,gra,I,a,399,1,1366.8000001907349,514108.69999980927,9047,WL,B,2.0
4,4.633000135421753,learn,55366.99986457825,Thu Feb 05 2026 16:21:15 GMT-0500 (Eastern Standard Time),515741.80000019073,A,gras,I,s,256,1,1633.1000003814697,514108.69999980927,9047,WL,B,2.0
4,4.766999959945679,learn,55233.00004005432,Thu Feb 05 2026 16:21:15 GMT-0500 (Eastern Standard Time),515875.39999961853,A,grass,I,s,116,1,1766.6999998092651,514108.69999980927,9047,WL,B,2.0
4,5.433000087738037,learn,54566.99991226196,Thu Feb 05 2026 16:21:15 GMT-0500 (Eastern Standard Time),516541.60000038147,A,grassenter,I,enter,656,1,2432.9000005722046,514108.69999980927,9047,WL,B,2.0
4,6.266999959945679,learn,53733.00004005432,Thu Feb 05 2026 16:21:15 GMT-0500 (Eastern Standard Time),517375.39999961853,A,d,I,d,824,1,833.5,516541.89999961853,9047,WL,B,3.0
4,6.617000102996826,learn,53382.999897003174,Thu Feb 05 2026 16:21:15 GMT-0500 (Eastern Standard Time),517725.19999980927,A,do,I,o,340,1,1183.3000001907349,516541.89999961853,9047,WL,B,3.0
4,6.934000015258789,learn,53065.99998474121,Thu Feb 05 2026 16:21:15 GMT-0500 (Eastern Standard Time),518042.10000038147,A,dor,I,r,292,1,1500.2000007629395,516541.89999961853,9047,WL,B,3.0
4,7.150000095367432,learn,52849.99990463257,Thu Feb 05 2026 16:21:15 GMT-0500 (Eastern Standard Time),518258.80000019073,A,dorn,I,n,201,1,1716.9000005722046,516541.89999961853,9047,WL,B,3.0
4,8.450000047683716,learn,51549.999952316284,Thu Feb 05 2026 16:21:15 GMT-0500 (Eastern Standard Time),519558.69999980927,A,dor,I,backspace,1280,1,3016.800000190735,516541.89999961853,9047,WL,B,3.0
4,9.41700005531311,learn,50582.99994468689,Thu Feb 05 2026 16:21:15 GMT-0500 (Eastern Standard Time),520525.30000019073,A,dorm,I,m,956,1,3983.4000005722046,516541.89999961853,9047,WL,B,3.0
4,9.733000040054321,learn,50266.99995994568,Thu Feb 05 2026 16:21:15 GMT-0500 (Eastern Standard Time),520841.60000038147,A,dormenter,I,enter,294,1,4299.700000762939,516541.89999961853,9047,WL,B,3.0
4,10.5,learn,49500.0,Thu Feb 05 2026 16:21:15 GMT-0500 (Eastern Standard Time),521608.80000019073,A,a,I,a,749,1,766.9000005722046,520841.89999961853,9047,WL,B,4.0
4,10.766999959945679,learn,49233.00004005432,Thu Feb 05 2026 16:21:15 GMT-0500 (Eastern Standard Time),521875.39999961853,A,ar,I,r,251,1,1033.5,520841.89999961853,9047,WL,B,4.0
4,11.25,learn,48750.0,Thu Feb 05 2026 16:21:15 GMT-0500 (Eastern Standard Time),522358.80000019073,A,arm,I,m,463,1,1516.9000005722046,520841.89999961853,9047,WL,B,4.0
4,11.799999952316284,learn,48200.000047683716,Thu Feb 05 2026 16:21:15 GMT-0500 (Eastern Standard Time),522908.30000019073,A,armenter,I,enter,524,1,2066.4000005722046,520841.89999961853,9047,WL,B,4.0
4,12.483999967575073,learn,47516.00003242493,Thu Feb 05 2026 16:21:15 GMT-0500 (Eastern Standard Time),523592.10000038147,A,s,I,s,666,1,683.4000005722046,522908.69999980927,9047,WL,B,5.0
4,12.684000015258789,learn,47315.99998474121,Thu Feb 05 2026 16:21:15 GMT-0500 (Eastern Standard Time),523792.0,A,st,I,t,187,1,883.3000001907349,522908.69999980927,9047,WL,B,5.0
4,12.884000062942505,learn,47115.999937057495,Thu Feb 05 2026 16:21:15 GMT-0500 (Eastern Standard Time),523992.19999980927,A,sta,I,a,177,1,1083.5,522908.69999980927,9047,WL,B,5.0
4,13.08400011062622,learn,46915.99988937378,Thu Feb 05 2026 16:21:15 GMT-0500 (Eastern Standard Time),524192.10000038147,A,star,I,r,187,1,1283.4000005722046,522908.69999980927,9047,WL,B,5.0
4,13.983000040054321,learn,46016.99995994568,Thu Feb 05 2026 16:21:15 GMT-0500 (Eastern Standard Time),525091.6000003815,A,starenter,I,enter,874,1,2182.9000005722046,522908.69999980927,9047,WL,B,5.0
4,14.817000150680542,learn,45182.99984931946,Thu Feb 05 2026 16:21:15 GMT-0500 (Eastern Standard Time),525925.3000001907,A,w,I,w,818,1,833.3000001907349,525092.0,9047,WL,B,6.0
4,15.032999992370605,learn,44967.000007629395,Thu Feb 05 2026 16:21:15 GMT-0500 (Eastern Standard Time),526141.8999996185,A,wi,I,i,206,1,1049.8999996185303,525092.0,9047,WL,B,6.0
4,15.41700005531311,learn,44582.99994468689,Thu Feb 05 2026 16:21:15 GMT-0500 (Eastern Standard Time),526525.3999996185,A,wif,I,f,372,1,1433.3999996185303,525092.0,9047,WL,B,6.0
4,15.617000102996826,learn,44382.999897003174,Thu Feb 05 2026 16:21:15 GMT-0500 (Eastern Standard Time),526725.5,A,wife,I,e,181,1,1633.5,525092.0,9047,WL,B,6.0
4,16.100000143051147,learn,43899.99985694885,Thu Feb 05 2026 16:21:15 GMT-0500 (Eastern Standard Time),527208.3000001907,A,wifeenter,I,enter,454,1,2116.300000190735,525092.0,9047,WL,B,6.0
4,16.534000158309937,learn,43465.99984169006,Thu Feb 05 2026 16:21:15 GMT-0500 (Eastern Standard Time),527642.1000003815,A,w,I,w,413,1,433.4000005722046,527208.6999998093,9047,WL,B,7.0
4,16.700000047683716,learn,43299.999952316284,Thu Feb 05 2026 16:21:15 GMT-0500 (Eastern Standard Time),527808.8000001907,A,wi,I,i,152,1,600.1000003814697,527208.6999998093,9047,WL,B,7.0
4,16.967000007629395,learn,43032.999992370605,Thu Feb 05 2026 16:21:15 GMT-0500 (Eastern Standard Time),528075.5,A,win,I,n,242,1,866.8000001907349,527208.6999998093,9047,WL,B,7.0
4,17.200000047683716,learn,42799.999952316284,Thu Feb 05 2026 16:21:15 GMT-0500 (Eastern Standard Time),528308.8000001907,A,wind,I,d,215,1,1100.1000003814697,527208.6999998093,9047,WL,B,7.0
4,17.40000009536743,learn,42599.99990463257,Thu Feb 05 2026 16:21:15 GMT-0500 (Eastern Standard Time),528508.6000003815,A,windo,I,o,174,1,1299.9000005722046,527208.6999998093,9047,WL,B,7.0
4,17.567000150680542,learn,42432.99984931946,Thu Feb 05 2026 16:21:15 GMT-0500 (Eastern Standard Time),528675.3999996185,A,window,I,w,150,1,1466.6999998092651,527208.6999998093,9047,WL,B,7.0
4,17.83299994468689,learn,42167.00005531311,Thu Feb 05 2026 16:21:15 GMT-0500 (Eastern Standard Time),528941.6000003815,A,windowenter,I,enter,255,1,1732.9000005722046,527208.6999998093,9047,WL,B,7.0
4,18.91700005531311,learn,41082.99994468689,Thu Feb 05 2026 16:21:15 GMT-0500 (Eastern Standard Time),530025.5,A,c,I,c,1065,1,1083.6000003814697,528941.8999996185,9047,WL,B,8.0
4,19.200000047683716,learn,40799.999952316284,Thu Feb 05 2026 16:21:15 GMT-0500 (Eastern Standard Time),530308.8000001907,A,ci,I,i,265,1,1366.9000005722046,528941.8999996185,9047,WL,B,8.0
4,19.549999952316284,learn,40450.000047683716,Thu Feb 05 2026 16:21:15 GMT-0500 (Eastern Standard Time),530658.6999998093,A,cit,I,t,333,1,1716.8000001907349,528941.8999996185,9047,WL,B,8.0
4,19.68400001525879,learn,40315.99998474121,Thu Feb 05 2026 16:21:15 GMT-0500 (Eastern Standard Time),530792.1000003815,A,city,I,y,112,1,1850.2000007629395,528941.8999996185,9047,WL,B,8.0
4,20.25,learn,39750.0,Thu Feb 05 2026 16:21:15 GMT-0500 (Eastern Standard Time),531358.1999998093,A,cityenter,I,enter,554,1,2416.300000190735,528941.8999996185,9047,WL,B,8.0
4,21.700000047683716,learn,38299.999952316284,Thu Feb 05 2026 16:21:15 GMT-0500 (Eastern Standard Time),532808.8000001907,A,p,I,p,1433,1,1450.1999998092651,531358.6000003815,9047,WL,B,9.0
4,22.016000032424927,learn,37983.99996757507,Thu Feb 05 2026 16:21:15 GMT-0500 (Eastern Standard Time),533124.6000003815,A,pu,I,u,298,1,1766.0,531358.6000003815,9047,WL,B,9.0
4,22.23300004005432,learn,37766.99995994568,Thu Feb 05 2026 16:21:15 GMT-0500 (Eastern Standard Time),533341.6000003815,A,pup,I,p,209,1,1983.0,531358.6000003815,9047,WL,B,9.0
4,22.41700005531311,learn,37582.99994468689,Thu Feb 05 2026 16:21:15 GMT-0500 (Eastern Standard Time),533525.5,A,pupi,I,i,170,1,2166.8999996185303,531358.6000003815,9047,WL,B,9.0
4,22.65000009536743,learn,37349.99990463257,Thu Feb 05 2026 16:21:15 GMT-0500 (Eastern Standard Time),533758.6999998093,A,pupil,I,l,222,1,2400.0999994277954,531358.6000003815,9047,WL,B,9.0
4,23.0,learn,37000.0,Thu Feb 05 2026 16:21:15 GMT-0500 (Eastern Standard Time),534108.1999998093,A,pupilenter,I,enter,340,1,2749.5999994277954,531358.6000003815,9047,WL,B,9.0
4,24.299999952316284,learn,35700.000047683716,Thu Feb 05 2026 16:21:15 GMT-0500 (Eastern Standard Time),535408.6999998093,A,f,I,f,1290,1,1300.1999998092651,534108.5,9047,WL,B,10.0
4,24.91700005531311,learn,35082.99994468689,Thu Feb 05 2026 16:21:15 GMT-0500 (Eastern Standard Time),536025.5,A,fi,I,i,594,1,1917.0,534108.5,9047,WL,B,10.0
4,25.25,learn,34750.0,Thu Feb 05 2026 16:21:15 GMT-0500 (Eastern Standard Time),536358.8999996185,A,fir,I,r,314,1,2250.3999996185303,534108.5,9047,WL,B,10.0
4,25.41700005531311,learn,34582.99994468689,Thu Feb 05 2026 16:21:15 GMT-0500 (Eastern Standard Time),536525.1999998093,A,fire,I,e,154,1,2416.699999809265,534108.5,9047,WL,B,10.0
4,26.16700005531311,learn,33832.99994468689,Thu Feb 05 2026 16:21:15 GMT-0500 (Eastern Standard Time),537275.0,A,fireenter,I,enter,725,1,3166.5,534108.5,9047,WL,B,10.0
4,27.0,learn,33000.0,Thu Feb 05 2026 16:21:15 GMT-0500 (Eastern Standard Time),538108.8999996185,A,l,I,l,826,1,833.5999994277954,537275.3000001907,9047,WL,B,11.0
4,27.200000047683716,learn,32799.999952316284,Thu Feb 05 2026 16:21:15 GMT-0500 (Eastern Standard Time),538308.6999998093,A,la,I,a,182,1,1033.3999996185303,537275.3000001907,9047,WL,B,11.0
4,27.40000009536743,learn,32599.99990463257,Thu Feb 05 2026 16:21:15 GMT-0500 (Eastern Standard Time),538508.8000001907,A,lak,I,k,168,1,1233.5,537275.3000001907,9047,WL,B,11.0
4,27.65000009536743,learn,32349.99990463257,Thu Feb 05 2026 16:21:15 GMT-0500 (Eastern Standard Time),538758.6999998093,A,lake,I,e,230,1,1483.3999996185303,537275.3000001907,9047,WL,B,11.0
4,28.100000143051147,learn,31899.999856948853,Thu Feb 05 2026 16:21:15 GMT-0500 (Eastern Standard Time),539208.1999998093,A,lakeenter,I,enter,427,1,1932.8999996185303,537275.3000001907,9047,WL,B,11.0
4,28.617000102996826,learn,31382.999897003174,Thu Feb 05 2026 16:21:15 GMT-0500 (Eastern Standard Time),539725.1000003815,A,p,I,p,510,1,516.5,539208.6000003815,9047,WL,B,12.0
4,28.83400011062622,learn,31165.99988937378,Thu Feb 05 2026 16:21:15 GMT-0500 (Eastern Standard Time),539942.1000003815,A,pi,I,i,198,1,733.5,539208.6000003815,9047,WL,B,12.0
4,29.067000150680542,learn,30932.999849319458,Thu Feb 05 2026 16:21:15 GMT-0500 (Eastern Standard Time),540175.3999996185,A,pie,I,e,211,1,966.7999992370605,539208.6000003815,9047,WL,B,12.0
4,29.200000047683716,learn,30799.999952316284,Thu Feb 05 2026 16:21:15 GMT-0500 (Eastern Standard Time),540308.6999998093,A,piep,I,p,116,1,1100.0999994277954,539208.6000003815,9047,WL,B,12.0
4,29.65000009536743,learn,30349.99990463257,Thu Feb 05 2026 16:21:15 GMT-0500 (Eastern Standard Time),540758.3000001907,A,piepenter,I,enter,430,1,1549.6999998092651,539208.6000003815,9047,WL,B,12.0
4,31.284000158309937,learn,28715.999841690063,Thu Feb 05 2026 16:21:15 GMT-0500 (Eastern Standard Time),542392.1000003815,A,p,I,p,1616,1,1633.4000005722046,540758.6999998093,9047,WL,B,13.0
4,31.617000102996826,learn,28382.999897003174,Thu Feb 05 2026 16:21:15 GMT-0500 (Eastern Standard Time),542725.3999996185,A,pi,I,i,315,1,1966.6999998092651,540758.6999998093,9047,WL,B,13.0
4,31.817000150680542,learn,28182.999849319458,Thu Feb 05 2026 16:21:15 GMT-0500 (Eastern Standard Time),542925.1999998093,A,pip,I,p,191,1,2166.5,540758.6999998093,9047,WL,B,13.0
4,32.03400015830994,learn,27965.999841690063,Thu Feb 05 2026 16:21:15 GMT-0500 (Eastern Standard Time),543142.1000003815,A,pipe,I,e,191,1,2383.4000005722046,540758.6999998093,9047,WL,B,13.0
4,32.41600012779236,learn,27583.99987220764,Thu Feb 05 2026 16:21:15 GMT-0500 (Eastern Standard Time),543524.8999996185,A,pipeenter,I,enter,365,1,2766.199999809265,540758.6999998093,9047,WL,B,13.0
4,34.66700005531311,learn,25332.99994468689,Thu Feb 05 2026 16:21:15 GMT-0500 (Eastern Standard Time),545775.3999996185,A,c,I,c,2241,1,2250.0999994277954,543525.3000001907,9047,WL,B,14.0
4,34.93400001525879,learn,25065.99998474121,Thu Feb 05 2026 16:21:15 GMT-0500 (Eastern Standard Time),546042.1000003815,A,ca,I,a,244,1,2516.800000190735,543525.3000001907,9047,WL,B,14.0
4,35.23399996757507,learn,24766.000032424927,Thu Feb 05 2026 16:21:15 GMT-0500 (Eastern Standard Time),546342.1000003815,A,cab,I,b,279,1,2816.800000190735,543525.3000001907,9047,WL,B,14.0
4,35.867000102996826,learn,24132.999897003174,Thu Feb 05 2026 16:21:15 GMT-0500 (Eastern Standard Time),546975.3999996185,A,cabi,I,i,620,1,3450.0999994277954,543525.3000001907,9047,WL,B,14.0
4,36.25,learn,23750.0,Thu Feb 05 2026 16:21:15 GMT-0500 (Eastern Standard Time),547358.6999998093,A,cabin,I,n,373,1,3833.3999996185303,543525.3000001907,9047,WL,B,14.0
4,36.58299994468689,learn,23417.00005531311,Thu Feb 05 2026 16:21:15 GMT-0500 (Eastern Standard Time),547691.6000003815,A,cabinenter,I,enter,308,1,4166.300000190735,543525.3000001907,9047,WL,B,14.0
4,37.01699995994568,learn,22983.00004005432,Thu Feb 05 2026 16:21:15 GMT-0500 (Eastern Standard Time),548125.3999996185,A,c,I,c,427,1,433.3999996185303,547692.0,9047,WL,B,15.0
4,37.200000047683716,learn,22799.999952316284,Thu Feb 05 2026 16:21:15 GMT-0500 (Eastern Standard Time),548308.6999998093,A,cl,I,l,166,1,616.6999998092651,547692.0,9047,WL,B,15.0
4,37.40000009536743,learn,22599.99990463257,Thu Feb 05 2026 16:21:15 GMT-0500 (Eastern Standard Time),548509.0,A,clo,I,o,189,1,817.0,547692.0,9047,WL,B,15.0
4,37.65000009536743,learn,22349.99990463257,Thu Feb 05 2026 16:21:15 GMT-0500 (Eastern Standard Time),548758.8000001907,A,cloc,I,c,222,1,1066.8000001907349,547692.0,9047,WL,B,15.0
4,37.884000062942505,learn,22115.999937057495,Thu Feb 05 2026 16:21:15 GMT-0500 (Eastern Standard Time),548992.1000003815,A,clock,I,k,220,1,1300.1000003814697,547692.0,9047,WL,B,15.0
4,38.200000047683716,learn,21799.999952316284,Thu Feb 05 2026 16:21:15 GMT-0500 (Eastern Standard Time),549308.3000001907,A,clockenter,I,enter,297,1,1616.3000001907349,547692.0,9047,WL,B,15.0
5,0.9500000476837158,learn,60000.0,Thu Feb 05 2026 16:21:15 GMT-0500 (Eastern Standard Time),626359.0,A,s,I,s,931,1,949.8999996185303,625409.1000003815,9047,WL,B,1.0
5,1.133000135421753,learn,60000.0,Thu Feb 05 2026 16:21:15 GMT-0500 (Eastern Standard Time),626541.8000001907,A,st,I,t,172,1,1132.6999998092651,625409.1000003815,9047,WL,B,1.0
5,1.2829999923706055,learn,60000.0,Thu Feb 05 2026 16:21:15 GMT-0500 (Eastern Standard Time),626691.8999996185,A,str,I,r,124,1,1282.7999992370605,625409.1000003815,9047,WL,B,1.0
5,1.4830000400543213,learn,60000.0,Thu Feb 05 2026 16:21:15 GMT-0500 (Eastern Standard Time),626892.0,A,stre,I,e,166,1,1482.8999996185303,625409.1000003815,9047,WL,B,1.0
5,1.683000087738037,learn,60000.0,Thu Feb 05 2026 16:21:15 GMT-0500 (Eastern Standard Time),627091.8999996185,A,stree,I,e,184,1,1682.7999992370605,625409.1000003815,9047,WL,B,1.0
5,1.7829999923706055,learn,60000.0,Thu Feb 05 2026 16:21:15 GMT-0500 (Eastern Standard Time),627192.0,A,street,I,t,78,1,1782.8999996185303,625409.1000003815,9047,WL,B,1.0
5,3.5830001831054688,learn,60000.0,Thu Feb 05 2026 16:21:15 GMT-0500 (Eastern Standard Time),628991.5,A,streetenter,I,enter,1778,1,3582.3999996185303,625409.1000003815,9047,WL,B,1.0
5,4.333000183105469,learn,60000.0,Thu Feb 05 2026 16:21:15 GMT-0500 (Eastern Standard Time),629741.6999998093,A,g,I,g,742,1,749.8000001907349,628991.8999996185,9047,WL,B,2.0
5,4.583000183105469,learn,60000.0,Thu Feb 05 2026 16:21:15 GMT-0500 (Eastern Standard Time),629991.8999996185,A,gr,I,r,221,1,1000.0,628991.8999996185,9047,WL,B,2.0
5,4.933000087738037,learn,60000.0,Thu Feb 05 2026 16:21:15 GMT-0500 (Eastern Standard Time),630342.1000003815,A,gra,I,a,329,1,1350.2000007629395,628991.8999996185,9047,WL,B,2.0
5,5.200000047683716,learn,60000.0,Thu Feb 05 2026 16:21:15 GMT-0500 (Eastern Standard Time),630608.6000003815,A,gras,I,s,253,1,1616.7000007629395,628991.8999996185,9047,WL,B,2.0
5,5.400000095367432,learn,60000.0,Thu Feb 05 2026 16:21:15 GMT-0500 (Eastern Standard Time),630808.6999998093,A,grass,I,s,177,1,1816.8000001907349,628991.8999996185,9047,WL,B,2.0
5,5.683000087738037,learn,60000.0,Thu Feb 05 2026 16:21:15 GMT-0500 (Eastern Standard Time),631091.6000003815,A,grassenter,I,enter,257,1,2099.7000007629395,628991.8999996185,9047,WL,B,2.0
5,6.583000183105469,learn,60000.0,Thu Feb 05 2026 16:21:15 GMT-0500 (Eastern Standard Time),631991.8999996185,A,d,I,d,883,1,900.0,631091.8999996185,9047,WL,B,3.0
5,6.817000150680542,learn,60000.0,Thu Feb 05 2026 16:21:15 GMT-0500 (Eastern Standard Time),632225.3999996185,A,do,I,o,218,1,1133.5,631091.8999996185,9047,WL,B,3.0
5,7.450000047683716,learn,60000.0,Thu Feb 05 2026 16:21:15 GMT-0500 (Eastern Standard Time),632858.6999998093,A,doo,I,o,609,1,1766.8000001907349,631091.8999996185,9047,WL,B,3.0
5,7.7170000076293945,learn,60000.0,Thu Feb 05 2026 16:21:15 GMT-0500 (Eastern Standard Time),633125.3000001907,A,door,I,r,248,1,2033.4000005722046,631091.8999996185,9047,WL,B,3.0
5,8.06600022315979,learn,60000.0,Thu Feb 05 2026 16:21:15 GMT-0500 (Eastern Standard Time),633474.8000001907,A,doorenter,I,enter,334,1,2382.9000005722046,631091.8999996185,9047,WL,B,3.0
5,8.700000047683716,learn,60000.0,Thu Feb 05 2026 16:21:15 GMT-0500 (Eastern Standard Time),634109.0,A,a,I,a,627,1,633.8999996185303,633475.1000003815,9047,WL,B,4.0
5,9.032999992370605,learn,60000.0,Thu Feb 05 2026 16:21:15 GMT-0500 (Eastern Standard Time),634442.0,A,ar,I,r,309,1,966.8999996185303,633475.1000003815,9047,WL,B,4.0
5,9.833000183105469,learn,60000.0,Thu Feb 05 2026 16:21:15 GMT-0500 (Eastern Standard Time),635242.0,A,arm,I,m,777,1,1766.8999996185303,633475.1000003815,9047,WL,B,4.0
5,10.266000032424927,learn,60000.0,Thu Feb 05 2026 16:21:15 GMT-0500 (Eastern Standard Time),635674.8000001907,A,armenter,I,enter,408,1,2199.699999809265,633475.1000003815,9047,WL,B,4.0
5,10.650000095367432,learn,60000.0,Thu Feb 05 2026 16:21:15 GMT-0500 (Eastern Standard Time),636058.6000003815,A,s,I,s,362,1,383.4000005722046,635675.1999998093,9047,WL,B,5.0
5,10.850000143051147,learn,60000.0,Thu Feb 05 2026 16:21:15 GMT-0500 (Eastern Standard Time),636258.6999998093,A,st,I,t,183,1,583.5,635675.1999998093,9047,WL,B,5.0
5,10.984000205993652,learn,60000.0,Thu Feb 05 2026 16:21:15 GMT-0500 (Eastern Standard Time),636392.1000003815,A,sta,I,a,104,1,716.9000005722046,635675.1999998093,9047,WL,B,5.0
5,11.100000143051147,learn,60000.0,Thu Feb 05 2026 16:21:15 GMT-0500 (Eastern Standard Time),636508.6000003815,A,star,I,r,97,1,833.4000005722046,635675.1999998093,9047,WL,B,5.0
5,11.550000190734863,learn,60000.0,Thu Feb 05 2026 16:21:15 GMT-0500 (Eastern Standard Time),636958.1000003815,A,starenter,I,enter,439,1,1282.9000005722046,635675.1999998093,9047,WL,B,5.0
5,12.367000102996826,learn,60000.0,Thu Feb 05 2026 16:21:15 GMT-0500 (Eastern Standard Time),637775.1999998093,A,w,I,w,808,1,816.8000001907349,636958.3999996185,9047,WL,B,6.0
5,12.550000190734863,learn,60000.0,Thu Feb 05 2026 16:21:15 GMT-0500 (Eastern Standard Time),637958.6000003815,A,wi,I,i,164,1,1000.2000007629395,636958.3999996185,9047,WL,B,6.0
5,12.833000183105469,learn,60000.0,Thu Feb 05 2026 16:21:15 GMT-0500 (Eastern Standard Time),638242.0,A,wif,I,f,267,1,1283.6000003814697,636958.3999996185,9047,WL,B,6.0
5,13.017000198364258,learn,60000.0,Thu Feb 05 2026 16:21:15 GMT-0500 (Eastern Standard Time),638425.3999996185,A,wife,I,e,161,1,1467.0,636958.3999996185,9047,WL,B,6.0
5,13.333000183105469,learn,60000.0,Thu Feb 05 2026 16:21:15 GMT-0500 (Eastern Standard Time),638741.5,A,wifeenter,I,enter,296,1,1783.1000003814697,636958.3999996185,9047,WL,B,6.0
5,13.817000150680542,learn,60000.0,Thu Feb 05 2026 16:21:15 GMT-0500 (Eastern Standard Time),639225.3999996185,A,w,I,w,464,1,483.5,638741.8999996185,9047,WL,B,7.0
5,14.0,learn,60000.0,Thu Feb 05 2026 16:21:15 GMT-0500 (Eastern Standard Time),639408.6000003815,A,wi,I,i,169,1,666.7000007629395,638741.8999996185,9047,WL,B,7.0
5,14.333000183105469,learn,60000.0,Thu Feb 05 2026 16:21:15 GMT-0500 (Eastern Standard Time),639741.6999998093,A,win,I,n,322,1,999.8000001907349,638741.8999996185,9047,WL,B,7.0
5,14.867000102996826,learn,60000.0,Thu Feb 05 2026 16:21:15 GMT-0500 (Eastern Standard Time),640275.5,A,wind,I,d,515,1,1533.6000003814697,638741.8999996185,9047,WL,B,7.0
5,15.083000183105469,learn,60000.0,Thu Feb 05 2026 16:21:15 GMT-0500 (Eastern Standard Time),640492.0,A,windo,I,o,186,1,1750.1000003814697,638741.8999996185,9047,WL,B,7.0
5,15.350000143051147,learn,60000.0,Thu Feb 05 2026 16:21:15 GMT-0500 (Eastern Standard Time),640758.6999998093,A,window,I,w,248,1,2016.8000001907349,638741.8999996185,9047,WL,B,7.0
5,16.31600022315979,learn,60000.0,Thu Feb 05 2026 16:21:15 GMT-0500 (Eastern Standard Time),641724.6999998093,A,windowenter,I,enter,956,1,2982.800000190735,638741.8999996185,9047,WL,B,7.0
5,16.767000198364258,learn,60000.0,Thu Feb 05 2026 16:21:15 GMT-0500 (Eastern Standard Time),642175.3000001907,A,c,I,c,441,1,450.30000019073486,641725.0,9047,WL,B,8.0
5,17.100000143051147,learn,60000.0,Thu Feb 05 2026 16:21:15 GMT-0500 (Eastern Standard Time),642508.8999996185,A,ci,I,i,323,1,783.8999996185303,641725.0,9047,WL,B,8.0
5,17.58300018310547,learn,60000.0,Thu Feb 05 2026 16:21:15 GMT-0500 (Eastern Standard Time),642992.0,A,cit,I,t,470,1,1267.0,641725.0,9047,WL,B,8.0
5,17.73300004005432,learn,60000.0,Thu Feb 05 2026 16:21:15 GMT-0500 (Eastern Standard Time),643141.8999996185,A,city,I,y,131,1,1416.8999996185303,641725.0,9047,WL,B,8.0
5,18.16600012779236,learn,60000.0,Thu Feb 05 2026 16:21:15 GMT-0500 (Eastern Standard Time),643574.8000001907,A,cityenter,I,enter,405,1,1849.8000001907349,641725.0,9047,WL,B,8.0
5,19.0,learn,60000.0,Thu Feb 05 2026 16:21:15 GMT-0500 (Eastern Standard Time),644408.6000003815,A,p,I,p,815,1,833.4000005722046,643575.1999998093,9047,WL,B,9.0
5,19.41700005531311,learn,60000.0,Thu Feb 05 2026 16:21:15 GMT-0500 (Eastern Standard Time),644825.1000003815,A,pu,I,u,393,1,1249.9000005722046,643575.1999998093,9047,WL,B,9.0
5,20.0,learn,60000.0,Thu Feb 05 2026 16:21:15 GMT-0500 (Eastern Standard Time),645408.6999998093,A,pup,I,p,570,1,1833.5,643575.1999998093,9047,WL,B,9.0
5,20.217000007629395,learn,60000.0,Thu Feb 05 2026 16:21:15 GMT-0500 (Eastern Standard Time),645625.5,A,pupi,I,i,191,1,2050.300000190735,643575.1999998093,9047,WL,B,9.0
5,20.450000047683716,learn,60000.0,Thu Feb 05 2026 16:21:15 GMT-0500 (Eastern Standard Time),645858.6000003815,A,pupil,I,l,208,1,2283.4000005722046,643575.1999998093,9047,WL,B,9.0
5,21.0,learn,60000.0,Thu Feb 05 2026 16:21:15 GMT-0500 (Eastern Standard Time),646408.1999998093,A,pupilenter,I,enter,529,1,2833.0,643575.1999998093,9047,WL,B,9.0
5,22.282999992370605,learn,60000.0,Thu Feb 05 2026 16:21:15 GMT-0500 (Eastern Standard Time),647691.8999996185,A,c,I,c,1261,1,1283.1999998092651,646408.6999998093,9047,WL,B,10.0
5,22.433000087738037,learn,60000.0,Thu Feb 05 2026 16:21:15 GMT-0500 (Eastern Standard Time),647842.0,A,ca,I,a,134,1,1433.3000001907349,646408.6999998093,9047,WL,B,10.0
5,22.950000047683716,learn,60000.0,Thu Feb 05 2026 16:21:15 GMT-0500 (Eastern Standard Time),648358.6999998093,A,cab,I,b,497,1,1950.0,646408.6999998093,9047,WL,B,10.0
5,23.183000087738037,learn,60000.0,Thu Feb 05 2026 16:21:15 GMT-0500 (Eastern Standard Time),648592.0,A,cabi,I,i,220,1,2183.300000190735,646408.6999998093,9047,WL,B,10.0
5,23.484000205993652,learn,60000.0,Thu Feb 05 2026 16:21:15 GMT-0500 (Eastern Standard Time),648892.1000003815,A,cabin,I,n,272,1,2483.4000005722046,646408.6999998093,9047,WL,B,10.0
5,23.966000080108643,learn,60000.0,Thu Feb 05 2026 16:21:15 GMT-0500 (Eastern Standard Time),649374.8999996185,A,cabinenter,I,enter,471,1,2966.199999809265,646408.6999998093,9047,WL,B,10.0
5,24.317000150680542,learn,60000.0,Thu Feb 05 2026 16:21:15 GMT-0500 (Eastern Standard Time),649725.0,A,l,I,l,343,1,349.8999996185303,649375.1000003815,9047,WL,B,11.0
5,24.567000150680542,learn,60000.0,Thu Feb 05 2026 16:21:15 GMT-0500 (Eastern Standard Time),649975.1999998093,A,la,I,a,229,1,600.0999994277954,649375.1000003815,9047,WL,B,11.0
5,24.700000047683716,learn,60000.0,Thu Feb 05 2026 16:21:15 GMT-0500 (Eastern Standard Time),650108.6999998093,A,lak,I,k,108,1,733.5999994277954,649375.1000003815,9047,WL,B,11.0
5,24.984000205993652,learn,60000.0,Thu Feb 05 2026 16:21:15 GMT-0500 (Eastern Standard Time),650392.0,A,lake,I,e,254,1,1016.8999996185303,649375.1000003815,9047,WL,B,11.0
5,25.58300018310547,learn,60000.0,Thu Feb 05 2026 16:21:15 GMT-0500 (Eastern Standard Time),650991.5,A,lakeenter,I,enter,586,1,1616.3999996185303,649375.1000003815,9047,WL,B,11.0
5,26.700000047683716,learn,60000.0,Thu Feb 05 2026 16:21:15 GMT-0500 (Eastern Standard Time),652108.5,A,s,I,s,1095,1,1116.6999998092651,650991.8000001907,9047,WL,B,12.0
5,27.282999992370605,learn,60000.0,Thu Feb 05 2026 16:21:15 GMT-0500 (Eastern Standard Time),652692.0,A,sk,I,k,566,1,1700.1999998092651,650991.8000001907,9047,WL,B,12.0
5,27.5,learn,60000.0,Thu Feb 05 2026 16:21:15 GMT-0500 (Eastern Standard Time),652908.8000001907,A,ski,I,i,207,1,1917.0,650991.8000001907,9047,WL,B,12.0
5,27.766000032424927,learn,60000.0,Thu Feb 05 2026 16:21:15 GMT-0500 (Eastern Standard Time),653174.5,A,skin,I,n,247,1,2182.699999809265,650991.8000001907,9047,WL,B,12.0
5,28.133000135421753,learn,60000.0,Thu Feb 05 2026 16:21:15 GMT-0500 (Eastern Standard Time),653541.5,A,skinenter,I,enter,351,1,2549.699999809265,650991.8000001907,9047,WL,B,12.0
5,28.716000080108643,learn,60000.0,Thu Feb 05 2026 16:21:15 GMT-0500 (Eastern Standard Time),654124.8999996185,A,f,I,f,576,1,583.0999994277954,653541.8000001907,9047,WL,B,13.0
5,29.117000102996826,learn,60000.0,Thu Feb 05 2026 16:21:15 GMT-0500 (Eastern Standard Time),654525.1000003815,A,fi,I,i,388,1,983.3000001907349,653541.8000001907,9047,WL,B,13.0
5,29.48300004005432,learn,60000.0,Thu Feb 05 2026 16:21:15 GMT-0500 (Eastern Standard Time),654891.5,A,fir,I,r,340,1,1349.6999998092651,653541.8000001907,9047,WL,B,13.0
5,29.683000087738037,learn,60000.0,Thu Feb 05 2026 16:21:15 GMT-0500 (Eastern Standard Time),655092.0,A,fire,I,e,184,1,1550.1999998092651,653541.8000001907,9047,WL,B,13.0
5,30.0,learn,60000.0,Thu Feb 05 2026 16:21:15 GMT-0500 (Eastern Standard Time),655408.1999998093,A,fireenter,I,enter,301,1,1866.3999996185303,653541.8000001907,9047,WL,B,13.0
5,31.484000205993652,learn,60000.0,Thu Feb 05 2026 16:21:15 GMT-0500 (Eastern Standard Time),656892.1000003815,A,p,I,p,1462,1,1483.6000003814697,655408.5,9047,WL,B,14.0
5,31.950000047683716,learn,60000.0,Thu Feb 05 2026 16:21:15 GMT-0500 (Eastern Standard Time),657358.5,A,pu,I,u,455,1,1950.0,655408.5,9047,WL,B,14.0
5,32.81700015068054,learn,60000.0,Thu Feb 05 2026 16:21:15 GMT-0500 (Eastern Standard Time),658225.3000001907,A,pup,I,p,850,1,2816.800000190735,655408.5,9047,WL,B,14.0
5,33.10000014305115,learn,60000.0,Thu Feb 05 2026 16:21:15 GMT-0500 (Eastern Standard Time),658508.6000003815,A,pupi,I,i,258,1,3100.1000003814697,655408.5,9047,WL,B,14.0
5,33.450000047683716,learn,60000.0,Thu Feb 05 2026 16:21:15 GMT-0500 (Eastern Standard Time),658858.6000003815,A,pupil,I,l,327,1,3450.1000003814697,655408.5,9047,WL,B,14.0
5,34.116000175476074,learn,60000.0,Thu Feb 05 2026 16:21:15 GMT-0500 (Eastern Standard Time),659524.8000001907,A,pupilenter,I,enter,646,1,4116.300000190735,655408.5,9047,WL,B,14.0
5,35.55000019073486,learn,60000.0,Thu Feb 05 2026 16:21:15 GMT-0500 (Eastern Standard Time),660958.5,A,d,I,d,1425,1,1433.3999996185303,659525.1000003815,9047,WL,B,15.0
5,37.08300018310547,learn,60000.0,Thu Feb 05 2026 16:21:15 GMT-0500 (Eastern Standard Time),662492.0,A,,I,backspace,1508,1,2966.8999996185303,659525.1000003815,9047,WL,B,15.0
5,37.75,learn,60000.0,Thu Feb 05 2026 16:21:15 GMT-0500 (Eastern Standard Time),663158.6000003815,A,c,I,c,647,1,3633.5,659525.1000003815,9047,WL,B,15.0
5,38.032999992370605,learn,60000.0,Thu Feb 05 2026 16:21:15 GMT-0500 (Eastern Standard Time),663442.0,A,cl,I,l,268,1,3916.8999996185303,659525.1000003815,9047,WL,B,15.0
5,38.282999992370605,learn,60000.0,Thu Feb 05 2026 16:21:15 GMT-0500 (Eastern Standard Time),663692.0,A,clo,I,o,223,1,4166.89999961853,659525.1000003815,9047,WL,B,15.0
5,38.467000007629395,learn,60000.0,Thu Feb 05 2026 16:21:15 GMT-0500 (Eastern Standard Time),663875.3000001907,A,cloc,I,c,166,1,4350.199999809265,659525.1000003815,9047,WL,B,15.0
5,38.65000009536743,learn,60000.0,Thu Feb 05 2026 16:21:15 GMT-0500 (Eastern Standard Time),664058.6999998093,A,clock,I,k,159,1,4533.599999427795,659525.1000003815,9047,WL,B,15.0
5,39.032999992370605,learn,60000.0,Thu Feb 05 2026 16:21:15 GMT-0500 (Eastern Standard Time),664441.5,A,clockenter,I,enter,351,1,4916.39999961853,659525.1000003815,9047,WL,B,15.0
6,1.6159999370574951,distr,58384.000062942505,Thu Feb 05 2026 16:21:15 GMT-0500 (Eastern Standard Time),736141.6999998093,B,b,I,b,1607,1,1616.0,734525.6999998093,9047,WL,B,1.0
6,1.8659999370574951,distr,58134.000062942505,Thu Feb 05 2026 16:21:15 GMT-0500 (Eastern Standard Time),736391.8999996185,B,ba,I,a,228,1,1866.1999998092651,734525.6999998093,9047,WL,B,1.0
6,2.065999984741211,distr,57934.00001525879,Thu Feb 05 2026 16:21:15 GMT-0500 (Eastern Standard Time),736591.8999996185,B,bab,I,b,186,1,2066.199999809265,734525.6999998093,9047,WL,B,1.0
6,2.632999897003174,distr,57367.000102996826,Thu Feb 05 2026 16:21:15 GMT-0500 (Eastern Standard Time),737158.6000003815,B,baby,I,y,548,1,2632.9000005722046,734525.6999998093,9047,WL,B,1.0
6,2.999000072479248,distr,57000.99992752075,Thu Feb 05 2026 16:21:15 GMT-0500 (Eastern Standard Time),737524.6999998093,B,babyenter,I,enter,348,1,2999.0,734525.6999998093,9047,WL,B,1.0
6,3.5160000324249268,distr,56483.99996757507,Thu Feb 05 2026 16:21:15 GMT-0500 (Eastern Standard Time),738041.8999996185,B,o,I,o,497,1,516.7999992370605,737525.1000003815,9047,WL,B,2.0
6,3.815999984741211,distr,56184.00001525879,Thu Feb 05 2026 16:21:15 GMT-0500 (Eastern Standard Time),738341.8999996185,B,oc,I,c,282,1,816.7999992370605,737525.1000003815,9047,WL,B,2.0
6,4.065999984741211,distr,55934.00001525879,Thu Feb 05 2026 16:21:15 GMT-0500 (Eastern Standard Time),738591.8000001907,B,oce,I,e,236,1,1066.6999998092651,737525.1000003815,9047,WL,B,2.0
6,4.25,distr,55750.0,Thu Feb 05 2026 16:21:15 GMT-0500 (Eastern Standard Time),738775.1999998093,B,ocea,I,a,162,1,1250.0999994277954,737525.1000003815,9047,WL,B,2.0
6,5.099999904632568,distr,54900.00009536743,Thu Feb 05 2026 16:21:15 GMT-0500 (Eastern Standard Time),739625.1999998093,B,ocean,I,n,827,1,2100.0999994277954,737525.1000003815,9047,WL,B,2.0
6,6.466000080108643,distr,53533.99991989136,Thu Feb 05 2026 16:21:15 GMT-0500 (Eastern Standard Time),740991.3999996185,B,oceanenter,I,enter,1353,1,3466.2999992370605,737525.1000003815,9047,WL,B,2.0
6,6.983000040054321,distr,53016.99995994568,Thu Feb 05 2026 16:21:15 GMT-0500 (Eastern Standard Time),741508.5,B,p,I,p,502,1,516.8000001907349,740991.6999998093,9047,WL,B,3.0
6,7.349999904632568,distr,52650.00009536743,Thu Feb 05 2026 16:21:15 GMT-0500 (Eastern Standard Time),741875.1999998093,B,pa,I,a,350,1,883.5,740991.6999998093,9047,WL,B,3.0
6,7.799999952316284,distr,52200.000047683716,Thu Feb 05 2026 16:21:15 GMT-0500 (Eastern Standard Time),742325.3000001907,B,pal,I,l,431,1,1333.6000003814697,740991.6999998093,9047,WL,B,3.0
6,8.150000095367432,distr,51849.99990463257,Thu Feb 05 2026 16:21:15 GMT-0500 (Eastern Standard Time),742675.3000001907,B,pala,I,a,333,1,1683.6000003814697,740991.6999998093,9047,WL,B,3.0
6,8.532999992370605,distr,51467.000007629395,Thu Feb 05 2026 16:21:15 GMT-0500 (Eastern Standard Time),743058.5,B,palac,I,c,365,1,2066.800000190735,740991.6999998093,9047,WL,B,3.0
6,8.799999952316284,distr,51200.000047683716,Thu Feb 05 2026 16:21:15 GMT-0500 (Eastern Standard Time),743325.1999998093,B,palace,I,e,254,1,2333.5,740991.6999998093,9047,WL,B,3.0
6,9.183000087738037,distr,50816.99991226196,Thu Feb 05 2026 16:21:15 GMT-0500 (Eastern Standard Time),743708.1000003815,B,palaceenter,I,enter,374,1,2716.4000005722046,740991.6999998093,9047,WL,B,3.0
6,10.065999984741211,distr,49934.00001525879,Thu Feb 05 2026 16:21:15 GMT-0500 (Eastern Standard Time),744591.8000001907,B,l,I,l,875,1,883.5,743708.3000001907,9047,WL,B,4.0
6,10.382999897003174,distr,49617.000102996826,Thu Feb 05 2026 16:21:15 GMT-0500 (Eastern Standard Time),744908.5,B,li,I,i,291,1,1200.1999998092651,743708.3000001907,9047,WL,B,4.0
6,10.58299994468689,distr,49417.00005531311,Thu Feb 05 2026 16:21:15 GMT-0500 (Eastern Standard Time),745108.6000003815,B,lip,I,p,181,1,1400.3000001907349,743708.3000001907,9047,WL,B,4.0
6,11.716000080108643,distr,48283.99991989136,Thu Feb 05 2026 16:21:15 GMT-0500 (Eastern Standard Time),746241.3999996185,B,lipenter,I,enter,1117,1,2533.0999994277954,743708.3000001907,9047,WL,B,4.0
6,14.632999897003174,distr,45367.000102996826,Thu Feb 05 2026 16:21:15 GMT-0500 (Eastern Standard Time),749158.5,B,b,I,b,2901,1,2916.800000190735,746241.6999998093,9047,WL,B,5.0
6,14.815999984741211,distr,45184.00001525879,Thu Feb 05 2026 16:21:15 GMT-0500 (Eastern Standard Time),749341.6000003815,B,ba,I,a,172,1,3099.9000005722046,746241.6999998093,9047,WL,B,5.0
6,15.016000032424927,distr,44983.99996757507,Thu Feb 05 2026 16:21:15 GMT-0500 (Eastern Standard Time),749541.8000001907,B,bar,I,r,173,1,3300.1000003814697,746241.6999998093,9047,WL,B,5.0
6,17.98300004005432,distr,42016.99995994568,Thu Feb 05 2026 16:21:15 GMT-0500 (Eastern Standard Time),752508.0,B,barenter,I,enter,2949,1,6266.300000190735,746241.6999998093,9047,WL,B,5.0
6,18.75,distr,41250.0,Thu Feb 05 2026 16:21:15 GMT-0500 (Eastern Standard Time),753275.1000003815,B,d,I,d,746,1,766.9000005722046,752508.1999998093,9047,WL,B,6.0
6,18.91599988937378,distr,41084.00011062622,Thu Feb 05 2026 16:21:15 GMT-0500 (Eastern Standard Time),753441.8999996185,B,dr,I,r,151,1,933.6999998092651,752508.1999998093,9047,WL,B,6.0
6,19.08299994468689,distr,40917.00005531311,Thu Feb 05 2026 16:21:15 GMT-0500 (Eastern Standard Time),753608.6000003815,B,dre,I,e,137,1,1100.4000005722046,752508.1999998093,9047,WL,B,6.0
6,19.40000009536743,distr,40599.99990463257,Thu Feb 05 2026 16:21:15 GMT-0500 (Eastern Standard Time),753925.1999998093,B,dres,I,s,298,1,1417.0,752508.1999998093,9047,WL,B,6.0
6,19.549999952316284,distr,40450.000047683716,Thu Feb 05 2026 16:21:15 GMT-0500 (Eastern Standard Time),754075.1999998093,B,dress,I,s,126,1,1567.0,752508.1999998093,9047,WL,B,6.0
6,20.516000032424927,distr,39483.99996757507,Thu Feb 05 2026 16:21:15 GMT-0500 (Eastern Standard Time),755041.3999996185,B,dressenter,I,enter,951,1,2533.199999809265,752508.1999998093,9047,WL,B,6.0
6,21.115999937057495,distr,38884.000062942505,Thu Feb 05 2026 16:21:15 GMT-0500 (Eastern Standard Time),755641.8000001907,B,s,I,s,581,1,600.1000003814697,755041.6999998093,9047,WL,B,7.0
6,21.31599998474121,distr,38684.00001525879,Thu Feb 05 2026 16:21:15 GMT-0500 (Eastern Standard Time),755841.8000001907,B,st,I,t,186,1,800.1000003814697,755041.6999998093,9047,WL,B,7.0
6,21.48300004005432,distr,38516.99995994568,Thu Feb 05 2026 16:21:15 GMT-0500 (Eastern Standard Time),756008.5,B,ste,I,e,145,1,966.8000001907349,755041.6999998093,9047,WL,B,7.0
6,21.683000087738037,distr,38316.99991226196,Thu Feb 05 2026 16:21:15 GMT-0500 (Eastern Standard Time),756208.5,B,stea,I,a,186,1,1166.8000001907349,755041.6999998093,9047,WL,B,7.0
6,22.049999952316284,distr,37950.000047683716,Thu Feb 05 2026 16:21:15 GMT-0500 (Eastern Standard Time),756575.1000003815,B,steam,I,m,353,1,1533.4000005722046,755041.6999998093,9047,WL,B,7.0
6,22.848999977111816,distr,37151.00002288818,Thu Feb 05 2026 16:21:15 GMT-0500 (Eastern Standard Time),757374.6999998093,B,steamenter,I,enter,788,1,2333.0,755041.6999998093,9047,WL,B,7.0
6,24.766000032424927,distr,35233.99996757507,Thu Feb 05 2026 16:21:15 GMT-0500 (Eastern Standard Time),759291.8999996185,B,a,I,a,1895,1,1916.8999996185303,757375.0,9047,WL,B,8.0
6,25.06599998474121,distr,34934.00001525879,Thu Feb 05 2026 16:21:15 GMT-0500 (Eastern Standard Time),759591.8000001907,B,am,I,m,278,1,2216.800000190735,757375.0,9047,WL,B,8.0
6,25.73300004005432,distr,34266.99995994568,Thu Feb 05 2026 16:21:15 GMT-0500 (Eastern Standard Time),760258.6000003815,B,amr,I,r,650,1,2883.6000003814697,757375.0,9047,WL,B,8.0
6,25.98300004005432,distr,34016.99995994568,Thu Feb 05 2026 16:21:15 GMT-0500 (Eastern Standard Time),760508.3999996185,B,amry,I,y,221,1,3133.3999996185303,757375.0,9047,WL,B,8.0
6,27.23300004005432,distr,32766.99995994568,Thu Feb 05 2026 16:21:15 GMT-0500 (Eastern Standard Time),761758.5,B,amr,I,backspace,1238,1,4383.5,757375.0,9047,WL,B,8.0
6,27.40000009536743,distr,32599.99990463257,Thu Feb 05 2026 16:21:15 GMT-0500 (Eastern Standard Time),761925.1999998093,B,am,I,backspace,148,1,4550.199999809265,757375.0,9047,WL,B,8.0
6,27.950000047683716,distr,32049.999952316284,Thu Feb 05 2026 16:21:15 GMT-0500 (Eastern Standard Time),762475.1999998093,B,a,I,backspace,518,1,5100.199999809265,757375.0,9047,WL,B,8.0
6,28.66599988937378,distr,31334.00011062622,Thu Feb 05 2026 16:21:15 GMT-0500 (Eastern Standard Time),763191.8000001907,B,ar,I,r,696,1,5816.800000190735,757375.0,9047,WL,B,8.0
6,29.433000087738037,distr,30566.999912261963,Thu Feb 05 2026 16:21:15 GMT-0500 (Eastern Standard Time),763958.5,B,arm,I,m,746,1,6583.5,757375.0,9047,WL,B,8.0
6,29.700000047683716,distr,30299.999952316284,Thu Feb 05 2026 16:21:15 GMT-0500 (Eastern Standard Time),764225.1000003815,B,army,I,y,252,1,6850.10000038147,757375.0,9047,WL,B,8.0
6,30.16599988937378,distr,29834.00011062622,Thu Feb 05 2026 16:21:15 GMT-0500 (Eastern Standard Time),764691.3999996185,B,armyenter,I,enter,450,1,7316.39999961853,757375.0,9047,WL,B,8.0
6,31.25,distr,28750.0,Thu Feb 05 2026 16:21:15 GMT-0500 (Eastern Standard Time),765775.1999998093,B,v,I,v,1075,1,1083.5,764691.6999998093,9047,WL,B,9.0
6,31.516000032424927,distr,28483.999967575073,Thu Feb 05 2026 16:21:15 GMT-0500 (Eastern Standard Time),766041.8999996185,B,vi,I,i,244,1,1350.1999998092651,764691.6999998093,9047,WL,B,9.0
6,31.782999992370605,distr,28217.000007629395,Thu Feb 05 2026 16:21:15 GMT-0500 (Eastern Standard Time),766308.3999996185,B,vil,I,l,248,1,1616.6999998092651,764691.6999998093,9047,WL,B,9.0
6,31.91599988937378,distr,28084.00011062622,Thu Feb 05 2026 16:21:15 GMT-0500 (Eastern Standard Time),766442.0,B,vill,I,l,109,1,1750.3000001907349,764691.6999998093,9047,WL,B,9.0
6,32.15000009536743,distr,27849.99990463257,Thu Feb 05 2026 16:21:15 GMT-0500 (Eastern Standard Time),766675.0,B,villa,I,a,207,1,1983.3000001907349,764691.6999998093,9047,WL,B,9.0
6,32.65000009536743,distr,27349.99990463257,Thu Feb 05 2026 16:21:15 GMT-0500 (Eastern Standard Time),767175.1000003815,B,villag,I,g,479,1,2483.4000005722046,764691.6999998093,9047,WL,B,9.0
6,32.81599998474121,distr,27184.00001525879,Thu Feb 05 2026 16:21:15 GMT-0500 (Eastern Standard Time),767341.6000003815,B,village,I,e,154,1,2649.9000005722046,764691.6999998093,9047,WL,B,9.0
6,33.98200011253357,distr,26017.99988746643,Thu Feb 05 2026 16:21:15 GMT-0500 (Eastern Standard Time),768507.8999996185,B,villageenter,I,enter,1148,1,3816.199999809265,764691.6999998093,9047,WL,B,9.0
6,36.950000047683716,distr,23049.999952316284,Thu Feb 05 2026 16:21:15 GMT-0500 (Eastern Standard Time),771475.1000003815,B,c,I,c,2954,1,2966.9000005722046,768508.1999998093,9047,WL,B,10.0
6,37.200000047683716,distr,22799.999952316284,Thu Feb 05 2026 16:21:15 GMT-0500 (Eastern Standard Time),771725.1999998093,B,co,I,o,223,1,3217.0,768508.1999998093,9047,WL,B,10.0
6,37.33299994468689,distr,22667.00005531311,Thu Feb 05 2026 16:21:15 GMT-0500 (Eastern Standard Time),771858.5,B,coi,I,i,119,1,3350.300000190735,768508.1999998093,9047,WL,B,10.0
6,37.700000047683716,distr,22299.999952316284,Thu Feb 05 2026 16:21:15 GMT-0500 (Eastern Standard Time),772225.1000003815,B,coin,I,n,353,1,3716.9000005722046,768508.1999998093,9047,WL,B,10.0
6,38.115999937057495,distr,21884.000062942505,Thu Feb 05 2026 16:21:15 GMT-0500 (Eastern Standard Time),772641.3000001907,B,coinenter,I,enter,402,1,4133.10000038147,768508.1999998093,9047,WL,B,10.0
6,60.01600003242493,distr,-16.000032424926758,Thu Feb 05 2026 16:21:15 GMT-0500 (Eastern Standard Time),794541.8999996185,B,None,I,None,21894,1,21900.199999809265,772641.6999998093,9047,WL,B,11.0
7,6.883999824523926,immed,53116.000175476074,Thu Feb 05 2026 16:21:15 GMT-0500 (Eastern Standard Time),813125.1999998093,A,g,I,g,6865,1,6882.89999961853,806242.3000001907,9047,WL,B,1.0
7,7.133999824523926,immed,52866.000175476074,Thu Feb 05 2026 16:21:15 GMT-0500 (Eastern Standard Time),813375.1000003815,A,gr,I,r,237,1,7132.800000190735,806242.3000001907,9047,WL,B,1.0
7,7.349999904632568,immed,52650.00009536743,Thu Feb 05 2026 16:21:15 GMT-0500 (Eastern Standard Time),813591.8000001907,A,gra,I,a,196,1,7349.5,806242.3000001907,9047,WL,B,1.0
7,7.766999959945679,immed,52233.00004005432,Thu Feb 05 2026 16:21:15 GMT-0500 (Eastern Standard Time),814008.5,A,gras,I,s,386,1,7766.199999809265,806242.3000001907,9047,WL,B,1.0
7,7.934000015258789,immed,52065.99998474121,Thu Feb 05 2026 16:21:15 GMT-0500 (Eastern Standard Time),814175.1000003815,A,grass,I,s,154,1,7932.800000190735,806242.3000001907,9047,WL,B,1.0
7,9.166999816894531,immed,50833.00018310547,Thu Feb 05 2026 16:21:15 GMT-0500 (Eastern Standard Time),815408.0,A,grassenter,I,enter,1219,1,9165.699999809265,806242.3000001907,9047,WL,B,1.0
7,9.916999816894531,immed,50083.00018310547,Thu Feb 05 2026 16:21:15 GMT-0500 (Eastern Standard Time),816158.3999996185,A,a,I,a,742,1,750.0999994277954,815408.3000001907,9047,WL,B,2.0
7,10.116999864578247,immed,49883.00013542175,Thu Feb 05 2026 16:21:15 GMT-0500 (Eastern Standard Time),816358.6000003815,A,ar,I,r,180,1,950.3000001907349,815408.3000001907,9047,WL,B,2.0
7,10.899999856948853,immed,49100.00014305115,Thu Feb 05 2026 16:21:15 GMT-0500 (Eastern Standard Time),817141.8999996185,A,arm,I,m,764,1,1733.5999994277954,815408.3000001907,9047,WL,B,2.0
7,11.250999927520752,immed,48749.00007247925,Thu Feb 05 2026 16:21:15 GMT-0500 (Eastern Standard Time),817492.3000001907,A,armenter,I,enter,332,1,2084.0,815408.3000001907,9047,WL,B,2.0
7,12.217000007629395,immed,47782.999992370605,Thu Feb 05 2026 16:21:15 GMT-0500 (Eastern Standard Time),818458.5,A,s,I,s,945,1,965.8999996185303,817492.6000003815,9047,WL,B,3.0
7,12.416999816894531,immed,47583.00018310547,Thu Feb 05 2026 16:21:15 GMT-0500 (Eastern Standard Time),818658.3999996185,A,st,I,t,181,1,1165.7999992370605,817492.6000003815,9047,WL,B,3.0
7,12.599999904632568,immed,47400.00009536743,Thu Feb 05 2026 16:21:15 GMT-0500 (Eastern Standard Time),818841.8000001907,A,sta,I,a,152,1,1349.1999998092651,817492.6000003815,9047,WL,B,3.0
7,13.133999824523926,immed,46866.000175476074,Thu Feb 05 2026 16:21:15 GMT-0500 (Eastern Standard Time),819375.1000003815,A,star,I,r,513,1,1882.5,817492.6000003815,9047,WL,B,3.0
7,13.983000040054321,immed,46016.99995994568,Thu Feb 05 2026 16:21:15 GMT-0500 (Eastern Standard Time),820224.6999998093,A,starenter,I,enter,836,1,2732.0999994277954,817492.6000003815,9047,WL,B,3.0
7,16.26699995994568,immed,43733.00004005432,Thu Feb 05 2026 16:21:15 GMT-0500 (Eastern Standard Time),822508.3999996185,A,c,I,c,2263,1,2283.3999996185303,820225.0,9047,WL,B,4.0
7,16.649999856948853,immed,43350.00014305115,Thu Feb 05 2026 16:21:15 GMT-0500 (Eastern Standard Time),822891.6999998093,A,ci,I,i,358,1,2666.699999809265,820225.0,9047,WL,B,4.0
7,17.01699995994568,immed,42983.00004005432,Thu Feb 05 2026 16:21:15 GMT-0500 (Eastern Standard Time),823258.5,A,cit,I,t,342,1,3033.5,820225.0,9047,WL,B,4.0
7,17.118000030517578,immed,42881.99996948242,Thu Feb 05 2026 16:21:15 GMT-0500 (Eastern Standard Time),823359.3000001907,A,city,I,y,87,1,3134.300000190735,820225.0,9047,WL,B,4.0
7,17.549999952316284,immed,42450.000047683716,Thu Feb 05 2026 16:21:15 GMT-0500 (Eastern Standard Time),823791.3000001907,A,cityenter,I,enter,416,1,3566.300000190735,820225.0,9047,WL,B,4.0
7,18.01699995994568,immed,41983.00004005432,Thu Feb 05 2026 16:21:15 GMT-0500 (Eastern Standard Time),824258.3999996185,A,w,I,w,454,1,466.79999923706055,823791.6000003815,9047,WL,B,5.0
7,18.16699981689453,immed,41833.00018310547,Thu Feb 05 2026 16:21:15 GMT-0500 (Eastern Standard Time),824408.3999996185,A,wi,I,i,129,1,616.7999992370605,823791.6000003815,9047,WL,B,5.0
7,18.51699995994568,immed,41483.00004005432,Thu Feb 05 2026 16:21:15 GMT-0500 (Eastern Standard Time),824758.6000003815,A,win,I,n,330,1,967.0,823791.6000003815,9047,WL,B,5.0
7,18.799999952316284,immed,41200.000047683716,Thu Feb 05 2026 16:21:15 GMT-0500 (Eastern Standard Time),825041.8000001907,A,wind,I,d,265,1,1250.1999998092651,823791.6000003815,9047,WL,B,5.0
7,18.967000007629395,immed,41032.999992370605,Thu Feb 05 2026 16:21:15 GMT-0500 (Eastern Standard Time),825208.3999996185,A,windo,I,o,144,1,1416.7999992370605,823791.6000003815,9047,WL,B,5.0
7,19.217000007629395,immed,40782.999992370605,Thu Feb 05 2026 16:21:15 GMT-0500 (Eastern Standard Time),825458.5,A,window,I,w,234,1,1666.8999996185303,823791.6000003815,9047,WL,B,5.0
7,19.632999897003174,immed,40367.000102996826,Thu Feb 05 2026 16:21:15 GMT-0500 (Eastern Standard Time),825874.6000003815,A,windowenter,I,enter,400,1,2083.0,823791.6000003815,9047,WL,B,5.0
7,21.43400001525879,immed,38565.99998474121,Thu Feb 05 2026 16:21:15 GMT-0500 (Eastern Standard Time),827675.1000003815,A,w,I,w,1779,1,1800.1000003814697,825875.0,9047,WL,B,6.0
7,21.59999990463257,immed,38400.00009536743,Thu Feb 05 2026 16:21:15 GMT-0500 (Eastern Standard Time),827841.8000001907,A,wo,I,o,148,1,1966.8000001907349,825875.0,9047,WL,B,6.0
7,22.049999952316284,immed,37950.000047683716,Thu Feb 05 2026 16:21:15 GMT-0500 (Eastern Standard Time),828291.6999998093,A,wom,I,m,432,1,2416.699999809265,825875.0,9047,WL,B,6.0
7,22.316999912261963,immed,37683.00008773804,Thu Feb 05 2026 16:21:15 GMT-0500 (Eastern Standard Time),828558.3999996185,A,woma,I,a,255,1,2683.3999996185303,825875.0,9047,WL,B,6.0
7,22.566999912261963,immed,37433.00008773804,Thu Feb 05 2026 16:21:15 GMT-0500 (Eastern Standard Time),828808.6000003815,A,woman,I,n,227,1,2933.6000003814697,825875.0,9047,WL,B,6.0
7,22.98300004005432,immed,37016.99995994568,Thu Feb 05 2026 16:21:15 GMT-0500 (Eastern Standard Time),829224.6000003815,A,womanenter,I,enter,392,1,3349.6000003814697,825875.0,9047,WL,B,6.0
7,23.633999824523926,immed,36366.000175476074,Thu Feb 05 2026 16:21:15 GMT-0500 (Eastern Standard Time),829875.1000003815,A,l,I,l,637,1,650.2000007629395,829224.8999996185,9047,WL,B,7.0
7,23.866999864578247,immed,36133.00013542175,Thu Feb 05 2026 16:21:15 GMT-0500 (Eastern Standard Time),830108.6000003815,A,li,I,i,207,1,883.7000007629395,829224.8999996185,9047,WL,B,7.0
7,24.066999912261963,immed,35933.00008773804,Thu Feb 05 2026 16:21:15 GMT-0500 (Eastern Standard Time),830308.5,A,lik,I,k,173,1,1083.6000003814697,829224.8999996185,9047,WL,B,7.0
7,24.26699995994568,immed,35733.00004005432,Thu Feb 05 2026 16:21:15 GMT-0500 (Eastern Standard Time),830508.6999998093,A,like,I,e,190,1,1283.8000001907349,829224.8999996185,9047,WL,B,7.0
7,24.632999897003174,immed,35367.000102996826,Thu Feb 05 2026 16:21:15 GMT-0500 (Eastern Standard Time),830874.6000003815,A,likeenter,I,enter,333,1,1649.7000007629395,829224.8999996185,9047,WL,B,7.0
7,25.09999990463257,immed,34900.00009536743,Thu Feb 05 2026 16:21:15 GMT-0500 (Eastern Standard Time),831341.5,A,p,I,p,459,1,466.5,830875.0,9047,WL,B,8.0
7,25.383999824523926,immed,34616.000175476074,Thu Feb 05 2026 16:21:15 GMT-0500 (Eastern Standard Time),831625.1000003815,A,pi,I,i,261,1,750.1000003814697,830875.0,9047,WL,B,8.0
7,25.58399987220764,immed,34416.00012779236,Thu Feb 05 2026 16:21:15 GMT-0500 (Eastern Standard Time),831825.1999998093,A,pip,I,p,185,1,950.1999998092651,830875.0,9047,WL,B,8.0
7,25.932999849319458,immed,34067.00015068054,Thu Feb 05 2026 16:21:15 GMT-0500 (Eastern Standard Time),832174.6000003815,A,pipenter,I,enter,337,1,1299.6000003814697,830875.0,9047,WL,B,8.0
7,28.16699981689453,immed,31833.00018310547,Thu Feb 05 2026 16:21:15 GMT-0500 (Eastern Standard Time),834408.3999996185,A,p,I,p,2215,1,2233.3999996185303,832175.0,9047,WL,B,9.0
7,28.783999919891357,immed,31216.000080108643,Thu Feb 05 2026 16:21:15 GMT-0500 (Eastern Standard Time),835025.1999998093,A,pi,I,i,602,1,2850.199999809265,832175.0,9047,WL,B,9.0
7,29.049999952316284,immed,30950.000047683716,Thu Feb 05 2026 16:21:15 GMT-0500 (Eastern Standard Time),835291.8000001907,A,pip,I,p,241,1,3116.800000190735,832175.0,9047,WL,B,9.0
7,29.483999967575073,immed,30516.000032424927,Thu Feb 05 2026 16:21:15 GMT-0500 (Eastern Standard Time),835725.1000003815,A,pipe,I,e,407,1,3550.1000003814697,832175.0,9047,WL,B,9.0
7,29.883999824523926,immed,30116.000175476074,Thu Feb 05 2026 16:21:15 GMT-0500 (Eastern Standard Time),836125.8000001907,A,pipeenter,I,enter,388,1,3950.800000190735,832175.0,9047,WL,B,9.0
7,30.949999809265137,immed,29050.000190734863,Thu Feb 05 2026 16:21:15 GMT-0500 (Eastern Standard Time),837191.6999998093,A,c,I,c,1048,1,1065.5,836126.1999998093,9047,WL,B,10.0
7,31.133999824523926,immed,28866.000175476074,Thu Feb 05 2026 16:21:15 GMT-0500 (Eastern Standard Time),837375.1000003815,A,ca,I,a,171,1,1248.9000005722046,836126.1999998093,9047,WL,B,10.0
7,31.299999952316284,immed,28700.000047683716,Thu Feb 05 2026 16:21:15 GMT-0500 (Eastern Standard Time),837541.8000001907,A,cab,I,b,140,1,1415.6000003814697,836126.1999998093,9047,WL,B,10.0
7,31.5,immed,28500.0,Thu Feb 05 2026 16:21:15 GMT-0500 (Eastern Standard Time),837741.3999996185,A,cabi,I,i,190,1,1615.1999998092651,836126.1999998093,9047,WL,B,10.0
7,31.783999919891357,immed,28216.000080108643,Thu Feb 05 2026 16:21:15 GMT-0500 (Eastern Standard Time),838025.1000003815,A,cabin,I,n,261,1,1898.9000005722046,836126.1999998093,9047,WL,B,10.0
7,32.26600003242493,immed,27733.999967575073,Thu Feb 05 2026 16:21:15 GMT-0500 (Eastern Standard Time),838507.8999996185,A,cabinenter,I,enter,458,1,2381.699999809265,836126.1999998093,9047,WL,B,10.0
7,33.299999952316284,immed,26700.000047683716,Thu Feb 05 2026 16:21:15 GMT-0500 (Eastern Standard Time),839541.6999998093,A,f,I,f,1018,1,1033.5,838508.1999998093,9047,WL,B,11.0
7,33.56699991226196,immed,26433.000087738037,Thu Feb 05 2026 16:21:15 GMT-0500 (Eastern Standard Time),839808.3999996185,A,fi,I,i,253,1,1300.1999998092651,838508.1999998093,9047,WL,B,11.0
7,33.84999990463257,immed,26150.00009536743,Thu Feb 05 2026 16:21:15 GMT-0500 (Eastern Standard Time),840091.8000001907,A,fir,I,r,258,1,1583.6000003814697,838508.1999998093,9047,WL,B,11.0
7,34.032999992370605,immed,25967.000007629395,Thu Feb 05 2026 16:21:15 GMT-0500 (Eastern Standard Time),840274.8999996185,A,fire,I,e,166,1,1766.6999998092651,838508.1999998093,9047,WL,B,11.0
7,34.799999952316284,immed,25200.000047683716,Thu Feb 05 2026 16:21:15 GMT-0500 (Eastern Standard Time),841041.8999996185,A,fires,I,s,752,1,2533.699999809265,838508.1999998093,9047,WL,B,11.0
7,35.06699991226196,immed,24933.000087738037,Thu Feb 05 2026 16:21:15 GMT-0500 (Eastern Standard Time),841308.5,A,firesk,I,k,240,1,2800.300000190735,838508.1999998093,9047,WL,B,11.0
7,35.23399996757507,immed,24766.000032424927,Thu Feb 05 2026 16:21:15 GMT-0500 (Eastern Standard Time),841475.1000003815,A,fireski,I,i,150,1,2966.9000005722046,838508.1999998093,9047,WL,B,11.0
7,35.48399996757507,immed,24516.000032424927,Thu Feb 05 2026 16:21:15 GMT-0500 (Eastern Standard Time),841725.1000003815,A,fireskin,I,n,237,1,3216.9000005722046,838508.1999998093,9047,WL,B,11.0
7,36.28399991989136,immed,23716.000080108643,Thu Feb 05 2026 16:21:15 GMT-0500 (Eastern Standard Time),842525.1000003815,A,fireskinc,I,c,790,1,4016.9000005722046,838508.1999998093,9047,WL,B,11.0
7,36.43400001525879,immed,23565.99998474121,Thu Feb 05 2026 16:21:15 GMT-0500 (Eastern Standard Time),842675.0,A,fireskincl,I,l,133,1,4166.800000190735,838508.1999998093,9047,WL,B,11.0
7,36.633999824523926,immed,23366.000175476074,Thu Feb 05 2026 16:21:15 GMT-0500 (Eastern Standard Time),842875.1999998093,A,fireskinclo,I,o,175,1,4367.0,838508.1999998093,9047,WL,B,11.0
7,36.93400001525879,immed,23065.99998474121,Thu Feb 05 2026 16:21:15 GMT-0500 (Eastern Standard Time),843175.1000003815,A,fireskincloc,I,c,272,1,4666.900000572205,838508.1999998093,9047,WL,B,11.0
7,37.09999990463257,immed,22900.00009536743,Thu Feb 05 2026 16:21:15 GMT-0500 (Eastern Standard Time),843341.5,A,fireskinclock,I,k,155,1,4833.300000190735,838508.1999998093,9047,WL,B,11.0
7,38.967000007629395,immed,21032.999992370605,Thu Feb 05 2026 16:21:15 GMT-0500 (Eastern Standard Time),845208.3999996185,A,fireskincloc,I,backspace,1847,1,6700.199999809265,838508.1999998093,9047,WL,B,11.0
7,39.16699981689453,immed,20833.00018310547,Thu Feb 05 2026 16:21:15 GMT-0500 (Eastern Standard Time),845408.3999996185,A,fireskinclo,I,backspace,186,1,6900.199999809265,838508.1999998093,9047,WL,B,11.0
7,39.33399987220764,immed,20666.00012779236,Thu Feb 05 2026 16:21:15 GMT-0500 (Eastern Standard Time),845575.1000003815,A,fireskincl,I,backspace,146,1,7066.900000572205,838508.1999998093,9047,WL,B,11.0
7,39.48399996757507,immed,20516.000032424927,Thu Feb 05 2026 16:21:15 GMT-0500 (Eastern Standard Time),845725.3000001907,A,fireskinc,I,backspace,140,1,7217.10000038147,838508.1999998093,9047,WL,B,11.0
7,39.633999824523926,immed,20366.000175476074,Thu Feb 05 2026 16:21:15 GMT-0500 (Eastern Standard Time),845875.1000003815,A,fireskin,I,backspace,125,1,7366.900000572205,838508.1999998093,9047,WL,B,11.0
7,39.799999952316284,immed,20200.000047683716,Thu Feb 05 2026 16:21:15 GMT-0500 (Eastern Standard Time),846041.6999998093,A,fireski,I,backspace,135,1,7533.5,838508.1999998093,9047,WL,B,11.0
7,40.08399987220764,immed,19916.00012779236,Thu Feb 05 2026 16:21:15 GMT-0500 (Eastern Standard Time),846325.1999998093,A,firesk,I,backspace,266,1,7817.0,838508.1999998093,9047,WL,B,11.0
7,40.43400001525879,immed,19565.99998474121,Thu Feb 05 2026 16:21:15 GMT-0500 (Eastern Standard Time),846675.0,A,fires,I,backspace,333,1,8166.800000190735,838508.1999998093,9047,WL,B,11.0
7,41.549999952316284,immed,18450.000047683716,Thu Feb 05 2026 16:21:15 GMT-0500 (Eastern Standard Time),847791.6000003815,A,fire,I,backspace,1104,1,9283.400000572205,838508.1999998093,9047,WL,B,11.0
7,42.19999980926514,immed,17800.000190734863,Thu Feb 05 2026 16:21:15 GMT-0500 (Eastern Standard Time),848441.3000001907,A,fireenter,I,enter,627,1,9933.10000038147,838508.1999998093,9047,WL,B,11.0
7,42.93400001525879,immed,17065.99998474121,Thu Feb 05 2026 16:21:15 GMT-0500 (Eastern Standard Time),849175.1000003815,A,s,I,s,717,1,733.5,848441.6000003815,9047,WL,B,12.0
7,43.217000007629395,immed,16782.999992370605,Thu Feb 05 2026 16:21:15 GMT-0500 (Eastern Standard Time),849458.3999996185,A,sk,I,k,266,1,1016.7999992370605,848441.6000003815,9047,WL,B,12.0
7,43.383999824523926,immed,16616.000175476074,Thu Feb 05 2026 16:21:15 GMT-0500 (Eastern Standard Time),849625.1999998093,A,ski,I,i,144,1,1183.5999994277954,848441.6000003815,9047,WL,B,12.0
7,43.91699981689453,immed,16083.000183105469,Thu Feb 05 2026 16:21:15 GMT-0500 (Eastern Standard Time),850158.3999996185,A,skin,I,n,514,1,1716.7999992370605,848441.6000003815,9047,WL,B,12.0
7,44.21599984169006,immed,15784.000158309937,Thu Feb 05 2026 16:21:15 GMT-0500 (Eastern Standard Time),850457.8999996185,A,skinenter,I,enter,276,1,2016.2999992370605,848441.6000003815,9047,WL,B,12.0
7,45.28399991989136,immed,14716.000080108643,Thu Feb 05 2026 16:21:15 GMT-0500 (Eastern Standard Time),851525.1999998093,A,c,I,c,1052,1,1067.0,850458.1999998093,9047,WL,B,13.0
7,45.5,immed,14500.0,Thu Feb 05 2026 16:21:15 GMT-0500 (Eastern Standard Time),851741.5,A,cl,I,l,205,1,1283.3000001907349,850458.1999998093,9047,WL,B,13.0
