block_c,block_dur,condition,countdown,datetime,endtime,list,multichar_response,project,response,response_time,session_number,start_end,starttime,subject_id,task,task_vers,trial
,,,,Fri Mar 27 2026 16:17:20 GMT-0500 (Central Daylight Time),,,,O,space,145,1,,,9999,WL,A,
prac,,0,,Fri Mar 27 2026 16:17:20 GMT-0500 (Central Daylight Time),,NA,b,O,b,1164,1,,,9999,WL,A,1.0
prac,,0,,Fri Mar 27 2026 16:17:20 GMT-0500 (Central Daylight Time),,NA,bo,O,o,217,1,,,9999,WL,A,1.0
prac,,0,,Fri Mar 27 2026 16:17:20 GMT-0500 (Central Daylight Time),,NA,boo,O,o,104,1,,,9999,WL,A,1.0
prac,,0,,Fri Mar 27 2026 16:17:20 GMT-0500 (Central Daylight Time),,NA,boos,O,s,75,1,,,9999,WL,A,1.0
prac,,0,,Fri Mar 27 2026 16:17:20 GMT-0500 (Central Daylight Time),,NA,boost,O,t,160,1,,,9999,WL,A,1.0
prac,,0,,Fri Mar 27 2026 16:17:20 GMT-0500 (Central Daylight Time),,NA,boostenter,O,enter,825,1,,,9999,WL,A,1.0
1,0.8010001182556152,learn,59198.999881744385,Fri Mar 27 2026 16:17:20 GMT-0500 (Central Daylight Time),84515.80000001192,A,b,O,b,784,1,799.9000000059605,83715.90000000596,9999,WL,A,1.0
1,1.0500001907348633,learn,58949.99980926514,Fri Mar 27 2026 16:17:20 GMT-0500 (Central Daylight Time),84765.20000001788,A,bo,O,o,233,1,1049.300000011921,83715.90000000596,9999,WL,A,1.0
1,1.183000087738037,learn,58816.99991226196,Fri Mar 27 2026 16:17:20 GMT-0500 (Central Daylight Time),84898.60000002384,A,boo,O,o,119,1,1182.7000000178814,83715.90000000596,9999,WL,A,1.0
1,1.3500001430511475,learn,58649.99985694885,Fri Mar 27 2026 16:17:20 GMT-0500 (Central Daylight Time),85065.10000002384,A,book,O,k,153,1,1349.2000000178814,83715.90000000596,9999,WL,A,1.0
1,1.6160001754760742,learn,58383.999824523926,Fri Mar 27 2026 16:17:20 GMT-0500 (Central Daylight Time),85331.5,A,bookenter,O,enter,259,1,1615.5999999940395,83715.90000000596,9999,WL,A,1.0
1,2.133000135421753,learn,57866.99986457825,Fri Mar 27 2026 16:17:20 GMT-0500 (Central Daylight Time),85848.0,A,f,O,f,505,1,516.0999999940395,85331.90000000596,9999,WL,A,2.0
1,2.2660000324249268,learn,57733.99996757507,Fri Mar 27 2026 16:17:20 GMT-0500 (Central Daylight Time),85981.20000001788,A,fl,O,l,125,1,649.3000000119209,85331.90000000596,9999,WL,A,2.0
1,2.4170000553131104,learn,57582.99994468689,Fri Mar 27 2026 16:17:20 GMT-0500 (Central Daylight Time),86131.70000001788,A,flo,O,o,143,1,799.8000000119209,85331.90000000596,9999,WL,A,2.0
1,2.5500001907348633,learn,57449.99980926514,Fri Mar 27 2026 16:17:20 GMT-0500 (Central Daylight Time),86265.0,A,flow,O,w,113,1,933.0999999940395,85331.90000000596,9999,WL,A,2.0
1,2.6660001277923584,learn,57333.99987220764,Fri Mar 27 2026 16:17:20 GMT-0500 (Central Daylight Time),86381.5,A,flowe,O,e,100,1,1049.5999999940395,85331.90000000596,9999,WL,A,2.0
1,2.866000175476074,learn,57133.999824523926,Fri Mar 27 2026 16:17:20 GMT-0500 (Central Daylight Time),86581.20000001788,A,flower,O,r,190,1,1249.300000011921,85331.90000000596,9999,WL,A,2.0
1,3.116000175476074,learn,56883.999824523926,Fri Mar 27 2026 16:17:20 GMT-0500 (Central Daylight Time),86831.10000002384,A,flowerenter,O,enter,239,1,1499.2000000178814,85331.90000000596,9999,WL,A,2.0
1,3.6490001678466797,learn,56350.99983215332,Fri Mar 27 2026 16:17:20 GMT-0500 (Central Daylight Time),87364.20000001788,A,t,O,t,525,1,532.5,86831.70000001788,9999,WL,A,3.0
1,3.883000135421753,learn,56116.99986457825,Fri Mar 27 2026 16:17:20 GMT-0500 (Central Daylight Time),87597.80000001192,A,tr,O,r,216,1,766.0999999940395,86831.70000001788,9999,WL,A,3.0
1,4.083000183105469,learn,55916.99981689453,Fri Mar 27 2026 16:17:20 GMT-0500 (Central Daylight Time),87797.90000000596,A,tra,O,a,185,1,966.1999999880791,86831.70000001788,9999,WL,A,3.0
1,4.216000080108643,learn,55783.99991989136,Fri Mar 27 2026 16:17:20 GMT-0500 (Central Daylight Time),87931.20000001788,A,trai,O,i,111,1,1099.5,86831.70000001788,9999,WL,A,3.0
1,4.348999977111816,learn,55651.00002288818,Fri Mar 27 2026 16:17:20 GMT-0500 (Central Daylight Time),88064.5,A,train,O,n,122,1,1232.7999999821186,86831.70000001788,9999,WL,A,3.0
1,4.616000175476074,learn,55383.999824523926,Fri Mar 27 2026 16:17:20 GMT-0500 (Central Daylight Time),88331.10000002384,A,trainenter,O,enter,254,1,1499.4000000059605,86831.70000001788,9999,WL,A,3.0
1,4.916000127792358,learn,55083.99987220764,Fri Mar 27 2026 16:17:20 GMT-0500 (Central Daylight Time),88631.0,A,r,O,r,290,1,299.39999997615814,88331.60000002384,9999,WL,A,4.0
1,5.049000024795532,learn,54950.99997520447,Fri Mar 27 2026 16:17:20 GMT-0500 (Central Daylight Time),88764.0,A,ru,O,u,119,1,432.39999997615814,88331.60000002384,9999,WL,A,4.0
1,5.249000072479248,learn,54750.99992752075,Fri Mar 27 2026 16:17:20 GMT-0500 (Central Daylight Time),88964.10000002384,A,rug,O,g,185,1,632.5,88331.60000002384,9999,WL,A,4.0
1,5.432000160217285,learn,54567.999839782715,Fri Mar 27 2026 16:17:20 GMT-0500 (Central Daylight Time),89147.30000001192,A,rugenter,O,enter,177,1,815.6999999880791,88331.60000002384,9999,WL,A,4.0
1,5.682000160217285,learn,54317.999839782715,Fri Mar 27 2026 16:17:20 GMT-0500 (Central Daylight Time),89397.10000002384,A,s,O,s,234,1,249.7000000178814,89147.40000000596,9999,WL,A,5.0
1,5.832000017166138,learn,54167.99998283386,Fri Mar 27 2026 16:17:20 GMT-0500 (Central Daylight Time),89547.10000002384,A,sa,O,a,129,1,399.7000000178814,89147.40000000596,9999,WL,A,5.0
1,5.999000072479248,learn,54000.99992752075,Fri Mar 27 2026 16:17:20 GMT-0500 (Central Daylight Time),89714.10000002384,A,sal,O,l,146,1,566.7000000178814,89147.40000000596,9999,WL,A,5.0
1,6.082000017166138,learn,53917.99998283386,Fri Mar 27 2026 16:17:20 GMT-0500 (Central Daylight Time),89796.90000000596,A,salt,O,t,75,1,649.5,89147.40000000596,9999,WL,A,5.0
1,6.299000024795532,learn,53700.99997520447,Fri Mar 27 2026 16:17:20 GMT-0500 (Central Daylight Time),90013.80000001192,A,saltenter,O,enter,201,1,866.4000000059605,89147.40000000596,9999,WL,A,5.0
1,6.64900016784668,learn,53350.99983215332,Fri Mar 27 2026 16:17:20 GMT-0500 (Central Daylight Time),90363.70000001788,A,k,O,k,328,1,349.40000000596046,90014.30000001192,9999,WL,A,6.0
1,6.765000104904175,learn,53234.999895095825,Fri Mar 27 2026 16:17:20 GMT-0500 (Central Daylight Time),90480.40000000596,A,ke,O,e,107,1,466.09999999403954,90014.30000001192,9999,WL,A,6.0
1,6.881999969482422,learn,53118.00003051758,Fri Mar 27 2026 16:17:20 GMT-0500 (Central Daylight Time),90596.90000000596,A,key,O,y,109,1,582.5999999940395,90014.30000001192,9999,WL,A,6.0
1,7.215000152587891,learn,52784.99984741211,Fri Mar 27 2026 16:17:20 GMT-0500 (Central Daylight Time),90929.90000000596,A,keyenter,O,enter,313,1,915.5999999940395,90014.30000001192,9999,WL,A,6.0
1,8.114000082015991,learn,51885.99991798401,Fri Mar 27 2026 16:17:20 GMT-0500 (Central Daylight Time),91829.40000000596,A,m,O,m,884,1,899.0999999940395,90930.30000001192,9999,WL,A,7.0
1,8.21399998664856,learn,51786.00001335144,Fri Mar 27 2026 16:17:20 GMT-0500 (Central Daylight Time),91929.70000001788,A,me,O,e,79,1,999.4000000059605,90930.30000001192,9999,WL,A,7.0
1,8.365000009536743,learn,51634.99999046326,Fri Mar 27 2026 16:17:20 GMT-0500 (Central Daylight Time),92079.80000001192,A,mea,O,a,132,1,1149.5,90930.30000001192,9999,WL,A,7.0
1,8.481000185012817,learn,51518.99981498718,Fri Mar 27 2026 16:17:20 GMT-0500 (Central Daylight Time),92196.40000000596,A,mead,O,d,101,1,1266.0999999940395,90930.30000001192,9999,WL,A,7.0
1,8.54800009727478,learn,51451.99990272522,Fri Mar 27 2026 16:17:20 GMT-0500 (Central Daylight Time),92263.20000001788,A,meado,O,o,57,1,1332.9000000059605,90930.30000001192,9999,WL,A,7.0
1,8.648000001907349,learn,51351.99999809265,Fri Mar 27 2026 16:17:20 GMT-0500 (Central Daylight Time),92363.0,A,meadow,O,w,95,1,1432.699999988079,90930.30000001192,9999,WL,A,7.0
1,8.831000089645386,learn,51168.999910354614,Fri Mar 27 2026 16:17:20 GMT-0500 (Central Daylight Time),92546.40000000596,A,meadowenter,O,enter,163,1,1616.0999999940395,90930.30000001192,9999,WL,A,7.0
1,12.263000011444092,learn,47736.99998855591,Fri Mar 27 2026 16:17:20 GMT-0500 (Central Daylight Time),95978.5,A,r,O,r,3412,1,3431.699999988079,92546.80000001192,9999,WL,A,8.0
1,12.330000162124634,learn,47669.999837875366,Fri Mar 27 2026 16:17:20 GMT-0500 (Central Daylight Time),96045.30000001192,A,ru,O,u,58,1,3498.5,92546.80000001192,9999,WL,A,8.0
1,12.44700002670288,learn,47552.99997329712,Fri Mar 27 2026 16:17:20 GMT-0500 (Central Daylight Time),96161.90000000596,A,rug,O,g,104,1,3615.0999999940395,92546.80000001192,9999,WL,A,8.0
1,12.647000074386597,learn,47352.9999256134,Fri Mar 27 2026 16:17:20 GMT-0500 (Central Daylight Time),96361.70000001788,A,rugenter,O,enter,179,1,3814.9000000059605,92546.80000001192,9999,WL,A,8.0
1,16.66200017929077,learn,43337.99982070923,Fri Mar 27 2026 16:17:20 GMT-0500 (Central Daylight Time),100377.20000001788,A,s,O,s,3996,1,4015.0999999940395,96362.10000002384,9999,WL,A,9.0
1,16.77900004386902,learn,43220.99995613098,Fri Mar 27 2026 16:17:20 GMT-0500 (Central Daylight Time),100493.80000001192,A,sa,O,a,101,1,4131.699999988079,96362.10000002384,9999,WL,A,9.0
1,16.91200017929077,learn,43087.99982070923,Fri Mar 27 2026 16:17:20 GMT-0500 (Central Daylight Time),100627.30000001192,A,sal,O,l,120,1,4265.199999988079,96362.10000002384,9999,WL,A,9.0
1,17.01200008392334,learn,42987.99991607666,Fri Mar 27 2026 16:17:20 GMT-0500 (Central Daylight Time),100727.40000000596,A,salt,O,t,82,1,4365.299999982119,96362.10000002384,9999,WL,A,9.0
1,17.312000036239624,learn,42687.999963760376,Fri Mar 27 2026 16:17:20 GMT-0500 (Central Daylight Time),101026.90000000596,A,saltenter,O,enter,293,1,4664.799999982119,96362.10000002384,9999,WL,A,9.0
1,18.41200017929077,learn,41587.99982070923,Fri Mar 27 2026 16:17:20 GMT-0500 (Central Daylight Time),102126.80000001192,A,f,O,f,1083,1,1099.5999999940395,101027.20000001788,9999,WL,A,10.0
1,18.478000164031982,learn,41521.99983596802,Fri Mar 27 2026 16:17:20 GMT-0500 (Central Daylight Time),102193.20000001788,A,fi,O,i,46,1,1166.0,101027.20000001788,9999,WL,A,10.0
1,18.644999980926514,learn,41355.000019073486,Fri Mar 27 2026 16:17:20 GMT-0500 (Central Daylight Time),102359.90000000596,A,fin,O,n,148,1,1332.699999988079,101027.20000001788,9999,WL,A,10.0
1,18.795000076293945,learn,41204.999923706055,Fri Mar 27 2026 16:17:20 GMT-0500 (Central Daylight Time),102510.0,A,fing,O,g,142,1,1482.7999999821186,101027.20000001788,9999,WL,A,10.0
1,18.861000061035156,learn,41138.999938964844,Fri Mar 27 2026 16:17:20 GMT-0500 (Central Daylight Time),102576.60000002384,A,finge,O,e,55,1,1549.4000000059605,101027.20000001788,9999,WL,A,10.0
1,18.99500012397766,learn,41004.99987602234,Fri Mar 27 2026 16:17:20 GMT-0500 (Central Daylight Time),102709.90000000596,A,finger,O,r,118,1,1682.699999988079,101027.20000001788,9999,WL,A,10.0
1,19.16100001335144,learn,40838.99998664856,Fri Mar 27 2026 16:17:20 GMT-0500 (Central Daylight Time),102876.40000000596,A,fingerenter,O,enter,160,1,1849.199999988079,101027.20000001788,9999,WL,A,10.0
1,20.594000101089478,learn,39405.99989891052,Fri Mar 27 2026 16:17:20 GMT-0500 (Central Daylight Time),104309.40000000596,A,c,O,c,1417,1,1432.5999999940395,102876.80000001192,9999,WL,A,11.0
1,20.813000202178955,learn,39186.999797821045,Fri Mar 27 2026 16:17:20 GMT-0500 (Central Daylight Time),104527.70000001788,A,ch,O,h,73,1,1650.9000000059605,102876.80000001192,9999,WL,A,11.0
1,20.960000038146973,learn,39039.99996185303,Fri Mar 27 2026 16:17:20 GMT-0500 (Central Daylight Time),104674.90000000596,A,chi,O,i,143,1,1798.0999999940395,102876.80000001192,9999,WL,A,11.0
1,21.009999990463257,learn,38990.00000953674,Fri Mar 27 2026 16:17:20 GMT-0500 (Central Daylight Time),104725.60000002384,A,chim,O,m,42,1,1848.800000011921,102876.80000001192,9999,WL,A,11.0
1,21.16100001335144,learn,38838.99998664856,Fri Mar 27 2026 16:17:20 GMT-0500 (Central Daylight Time),104875.70000001788,A,chimn,O,n,144,1,1998.9000000059605,102876.80000001192,9999,WL,A,11.0
1,21.294000148773193,learn,38705.99985122681,Fri Mar 27 2026 16:17:20 GMT-0500 (Central Daylight Time),105009.30000001192,A,chimne,O,e,114,1,2132.5,102876.80000001192,9999,WL,A,11.0
1,21.444000005722046,learn,38555.999994277954,Fri Mar 27 2026 16:17:20 GMT-0500 (Central Daylight Time),105158.90000000596,A,chimney,O,y,141,1,2282.0999999940395,102876.80000001192,9999,WL,A,11.0
1,21.777000188827515,learn,38222.999811172485,Fri Mar 27 2026 16:17:20 GMT-0500 (Central Daylight Time),105492.40000000596,A,chimneyenter,O,enter,319,1,2615.5999999940395,102876.80000001192,9999,WL,A,11.0
1,45.9520001411438,learn,14047.999858856201,Fri Mar 27 2026 16:17:20 GMT-0500 (Central Daylight Time),129667.70000001788,A,l,O,l,24170,1,24174.80000001192,105492.90000000596,9999,WL,A,12.0
1,46.11900019645691,learn,13880.99980354309,Fri Mar 27 2026 16:17:20 GMT-0500 (Central Daylight Time),129834.70000001788,A,lo,O,o,161,1,24341.80000001192,105492.90000000596,9999,WL,A,12.0
1,46.236000061035156,learn,13763.999938964844,Fri Mar 27 2026 16:17:20 GMT-0500 (Central Daylight Time),129951.20000001788,A,log,O,g,100,1,24458.30000001192,105492.90000000596,9999,WL,A,12.0
1,46.43600010871887,learn,13563.999891281128,Fri Mar 27 2026 16:17:20 GMT-0500 (Central Daylight Time),130151.40000000596,A,logenter,O,enter,190,1,24658.5,105492.90000000596,9999,WL,A,12.0
1,60.01600003242493,learn,-16.000032424926758,Fri Mar 27 2026 16:17:20 GMT-0500 (Central Daylight Time),143731.40000000596,A,None,O,None,13575,1,13579.59999999404,130151.80000001192,9999,WL,A,13.0
2,0.7330000400543213,learn,59266.99995994568,Fri Mar 27 2026 16:17:20 GMT-0500 (Central Daylight Time),217640.70000001788,A,h,O,h,723,1,732.7000000178814,216908.0,9999,WL,A,1.0
2,0.8329999446868896,learn,59167.00005531311,Fri Mar 27 2026 16:17:20 GMT-0500 (Central Daylight Time),217740.5,A,ha,O,a,91,1,832.5,216908.0,9999,WL,A,1.0
2,0.9839999675750732,learn,59016.00003242493,Fri Mar 27 2026 16:17:20 GMT-0500 (Central Daylight Time),217891.70000001788,A,har,O,r,138,1,983.7000000178814,216908.0,9999,WL,A,1.0
2,1.0829999446868896,learn,58917.00005531311,Fri Mar 27 2026 16:17:20 GMT-0500 (Central Daylight Time),217990.40000000596,A,harp,O,p,81,1,1082.4000000059605,216908.0,9999,WL,A,1.0
2,1.4830000400543213,learn,58516.99995994568,Fri Mar 27 2026 16:17:20 GMT-0500 (Central Daylight Time),218390.20000001788,A,harpenter,O,enter,383,1,1482.2000000178814,216908.0,9999,WL,A,1.0
2,1.748999834060669,learn,58251.00016593933,Fri Mar 27 2026 16:17:20 GMT-0500 (Central Daylight Time),218657.10000002384,A,a,O,a,248,1,266.5,218390.60000002384,9999,WL,A,2.0
2,1.8989999294281006,learn,58101.0000705719,Fri Mar 27 2026 16:17:20 GMT-0500 (Central Daylight Time),218807.0,A,ap,O,p,133,1,416.39999997615814,218390.60000002384,9999,WL,A,2.0
2,2.0319998264312744,learn,57968.000173568726,Fri Mar 27 2026 16:17:20 GMT-0500 (Central Daylight Time),218940.0,A,app,O,p,119,1,549.3999999761581,218390.60000002384,9999,WL,A,2.0
2,2.181999921798706,learn,57818.000078201294,Fri Mar 27 2026 16:17:20 GMT-0500 (Central Daylight Time),219090.0,A,appl,O,l,130,1,699.3999999761581,218390.60000002384,9999,WL,A,2.0
2,2.2990000247955322,learn,57700.99997520447,Fri Mar 27 2026 16:17:20 GMT-0500 (Central Daylight Time),219206.80000001192,A,apple,O,e,100,1,816.1999999880791,218390.60000002384,9999,WL,A,2.0
2,2.431999921798706,learn,57568.000078201294,Fri Mar 27 2026 16:17:20 GMT-0500 (Central Daylight Time),219340.0,A,appleenter,O,enter,126,1,949.3999999761581,218390.60000002384,9999,WL,A,2.0
2,2.998999834060669,learn,57001.00016593933,Fri Mar 27 2026 16:17:20 GMT-0500 (Central Daylight Time),219906.60000002384,A,b,O,b,547,1,566.3000000119209,219340.30000001192,9999,WL,A,3.0
2,3.131999969482422,learn,56868.00003051758,Fri Mar 27 2026 16:17:20 GMT-0500 (Central Daylight Time),220039.70000001788,A,bu,O,u,123,1,699.4000000059605,219340.30000001192,9999,WL,A,3.0
2,3.365999937057495,learn,56634.000062942505,Fri Mar 27 2026 16:17:20 GMT-0500 (Central Daylight Time),220273.10000002384,A,but,O,t,222,1,932.8000000119209,219340.30000001192,9999,WL,A,3.0
2,3.615000009536743,learn,56384.99999046326,Fri Mar 27 2026 16:17:20 GMT-0500 (Central Daylight Time),220523.0,A,butt,O,t,238,1,1182.699999988079,219340.30000001192,9999,WL,A,3.0
2,3.81499981880188,learn,56185.00018119812,Fri Mar 27 2026 16:17:20 GMT-0500 (Central Daylight Time),220722.60000002384,A,butto,O,o,195,1,1382.300000011921,219340.30000001192,9999,WL,A,3.0
2,3.9819998741149902,learn,56018.00012588501,Fri Mar 27 2026 16:17:20 GMT-0500 (Central Daylight Time),220889.40000000596,A,button,O,n,147,1,1549.0999999940395,219340.30000001192,9999,WL,A,3.0
2,4.299000024795532,learn,55700.99997520447,Fri Mar 27 2026 16:17:20 GMT-0500 (Central Daylight Time),221206.20000001788,A,buttonenter,O,enter,309,1,1865.9000000059605,219340.30000001192,9999,WL,A,3.0
2,4.56499981880188,learn,55435.00018119812,Fri Mar 27 2026 16:17:20 GMT-0500 (Central Daylight Time),221472.90000000596,A,r,O,r,247,1,266.40000000596046,221206.5,9999,WL,A,4.0
2,4.747999906539917,learn,55252.00009346008,Fri Mar 27 2026 16:17:20 GMT-0500 (Central Daylight Time),221655.90000000596,A,ra,O,a,172,1,449.40000000596046,221206.5,9999,WL,A,4.0
2,4.898000001907349,learn,55101.99999809265,Fri Mar 27 2026 16:17:20 GMT-0500 (Central Daylight Time),221805.60000002384,A,rat,O,t,143,1,599.1000000238419,221206.5,9999,WL,A,4.0
2,5.014999866485596,learn,54985.000133514404,Fri Mar 27 2026 16:17:20 GMT-0500 (Central Daylight Time),221922.5,A,ratt,O,t,105,1,716.0,221206.5,9999,WL,A,4.0
2,5.297999858856201,learn,54702.0001411438,Fri Mar 27 2026 16:17:20 GMT-0500 (Central Daylight Time),222205.70000001788,A,rattl,O,l,276,1,999.2000000178814,221206.5,9999,WL,A,4.0
2,5.677000045776367,learn,54322.99995422363,Fri Mar 27 2026 16:17:20 GMT-0500 (Central Daylight Time),222584.40000000596,A,rattle,O,e,227,1,1377.9000000059605,221206.5,9999,WL,A,4.0
2,5.684000015258789,learn,54315.99998474121,Fri Mar 27 2026 16:17:20 GMT-0500 (Central Daylight Time),222591.20000001788,A,rattleenter,O,enter,0,1,1384.7000000178814,221206.5,9999,WL,A,4.0
2,6.414000034332275,learn,53585.999965667725,Fri Mar 27 2026 16:17:20 GMT-0500 (Central Daylight Time),223322.10000002384,A,g,O,g,719,1,730.8000000119209,222591.30000001192,9999,WL,A,5.0
2,6.5980000495910645,learn,53401.999950408936,Fri Mar 27 2026 16:17:20 GMT-0500 (Central Daylight Time),223505.20000001788,A,go,O,o,163,1,913.9000000059605,222591.30000001192,9999,WL,A,5.0
2,6.763999938964844,learn,53236.000061035156,Fri Mar 27 2026 16:17:20 GMT-0500 (Central Daylight Time),223671.90000000596,A,gol,O,l,157,1,1080.5999999940395,222591.30000001192,9999,WL,A,5.0
2,6.88100004196167,learn,53118.99995803833,Fri Mar 27 2026 16:17:20 GMT-0500 (Central Daylight Time),223788.5,A,golf,O,f,103,1,1197.199999988079,222591.30000001192,9999,WL,A,5.0
2,7.263999938964844,learn,52736.000061035156,Fri Mar 27 2026 16:17:20 GMT-0500 (Central Daylight Time),224171.90000000596,A,gol,O,backspace,370,1,1580.5999999940395,222591.30000001192,9999,WL,A,5.0
2,7.363999843597412,learn,52636.00015640259,Fri Mar 27 2026 16:17:20 GMT-0500 (Central Daylight Time),224271.70000001788,A,gold,O,d,91,1,1680.4000000059605,222591.30000001192,9999,WL,A,5.0
2,8.030999898910522,learn,51969.00010108948,Fri Mar 27 2026 16:17:20 GMT-0500 (Central Daylight Time),224938.30000001192,A,goldenter,O,enter,655,1,2347.0,222591.30000001192,9999,WL,A,5.0
2,8.346999883651733,learn,51653.00011634827,Fri Mar 27 2026 16:17:20 GMT-0500 (Central Daylight Time),225254.80000001192,A,b,O,b,299,1,316.19999998807907,224938.60000002384,9999,WL,A,6.0
2,8.596999883651733,learn,51403.00011634827,Fri Mar 27 2026 16:17:20 GMT-0500 (Central Daylight Time),225504.70000001788,A,bo,O,o,232,1,566.0999999940395,224938.60000002384,9999,WL,A,6.0
2,8.730000019073486,learn,51269.999980926514,Fri Mar 27 2026 16:17:20 GMT-0500 (Central Daylight Time),225637.90000000596,A,boo,O,o,117,1,699.2999999821186,224938.60000002384,9999,WL,A,6.0
2,8.896999835968018,learn,51103.00016403198,Fri Mar 27 2026 16:17:20 GMT-0500 (Central Daylight Time),225804.80000001192,A,book,O,k,152,1,866.1999999880791,224938.60000002384,9999,WL,A,6.0
2,9.164000034332275,learn,50835.999965667725,Fri Mar 27 2026 16:17:20 GMT-0500 (Central Daylight Time),226071.30000001192,A,bookenter,O,enter,250,1,1132.699999988079,224938.60000002384,9999,WL,A,6.0
2,9.646999835968018,learn,50353.00016403198,Fri Mar 27 2026 16:17:20 GMT-0500 (Central Daylight Time),226554.40000000596,A,f,O,f,478,1,482.7999999821186,226071.60000002384,9999,WL,A,7.0
2,9.79699993133545,learn,50203.00006866455,Fri Mar 27 2026 16:17:20 GMT-0500 (Central Daylight Time),226704.30000001192,A,fl,O,l,131,1,632.6999999880791,226071.60000002384,9999,WL,A,7.0
2,9.94700002670288,learn,50052.99997329712,Fri Mar 27 2026 16:17:20 GMT-0500 (Central Daylight Time),226854.30000001192,A,flo,O,o,133,1,782.6999999880791,226071.60000002384,9999,WL,A,7.0
2,10.129999876022339,learn,49870.00012397766,Fri Mar 27 2026 16:17:20 GMT-0500 (Central Daylight Time),227037.60000002384,A,flow,O,w,167,1,966.0,226071.60000002384,9999,WL,A,7.0
2,10.280999898910522,learn,49719.00010108948,Fri Mar 27 2026 16:17:20 GMT-0500 (Central Daylight Time),227188.60000002384,A,flowe,O,e,144,1,1117.0,226071.60000002384,9999,WL,A,7.0
2,10.44700002670288,learn,49552.99997329712,Fri Mar 27 2026 16:17:20 GMT-0500 (Central Daylight Time),227354.20000001788,A,flower,O,r,154,1,1282.5999999940395,226071.60000002384,9999,WL,A,7.0
2,10.61299991607666,learn,49387.00008392334,Fri Mar 27 2026 16:17:20 GMT-0500 (Central Daylight Time),227520.80000001192,A,flowerenter,O,enter,155,1,1449.199999988079,226071.60000002384,9999,WL,A,7.0
2,11.079999923706055,learn,48920.000076293945,Fri Mar 27 2026 16:17:20 GMT-0500 (Central Daylight Time),227987.20000001788,A,r,O,r,462,1,466.0,227521.20000001788,9999,WL,A,8.0
2,11.36299991607666,learn,48637.00008392334,Fri Mar 27 2026 16:17:20 GMT-0500 (Central Daylight Time),228270.10000002384,A,,O,backspace,274,1,748.9000000059605,227521.20000001788,9999,WL,A,8.0
2,11.546000003814697,learn,48453.9999961853,Fri Mar 27 2026 16:17:20 GMT-0500 (Central Daylight Time),228453.80000001192,A,t,O,t,177,1,932.5999999940395,227521.20000001788,9999,WL,A,8.0
2,11.730000019073486,learn,48269.999980926514,Fri Mar 27 2026 16:17:20 GMT-0500 (Central Daylight Time),228637.10000002384,A,tr,O,r,169,1,1115.9000000059605,227521.20000001788,9999,WL,A,8.0
2,11.895999908447266,learn,48104.000091552734,Fri Mar 27 2026 16:17:20 GMT-0500 (Central Daylight Time),228803.80000001192,A,tra,O,a,160,1,1282.5999999940395,227521.20000001788,9999,WL,A,8.0
2,11.996000051498413,learn,48003.99994850159,Fri Mar 27 2026 16:17:20 GMT-0500 (Central Daylight Time),228903.5,A,trai,O,i,90,1,1382.2999999821186,227521.20000001788,9999,WL,A,8.0
2,12.145999908447266,learn,47854.000091552734,Fri Mar 27 2026 16:17:20 GMT-0500 (Central Daylight Time),229053.5,A,train,O,n,142,1,1532.2999999821186,227521.20000001788,9999,WL,A,8.0
2,12.412999868392944,learn,47587.000131607056,Fri Mar 27 2026 16:17:20 GMT-0500 (Central Daylight Time),229320.20000001788,A,trainenter,O,enter,248,1,1799.0,227521.20000001788,9999,WL,A,8.0
2,12.712999820709229,learn,47287.00017929077,Fri Mar 27 2026 16:17:20 GMT-0500 (Central Daylight Time),229620.10000002384,A,r,O,r,287,1,299.5,229320.60000002384,9999,WL,A,9.0
2,12.845999956130981,learn,47154.00004386902,Fri Mar 27 2026 16:17:20 GMT-0500 (Central Daylight Time),229753.5,A,ru,O,u,122,1,432.89999997615814,229320.60000002384,9999,WL,A,9.0
2,13.111999988555908,learn,46888.00001144409,Fri Mar 27 2026 16:17:20 GMT-0500 (Central Daylight Time),230020.0,A,rug,O,g,260,1,699.3999999761581,229320.60000002384,9999,WL,A,9.0
2,13.296000003814697,learn,46703.9999961853,Fri Mar 27 2026 16:17:20 GMT-0500 (Central Daylight Time),230203.10000002384,A,rugenter,O,enter,179,1,882.5,229320.60000002384,9999,WL,A,9.0
2,13.69599986076355,learn,46304.00013923645,Fri Mar 27 2026 16:17:20 GMT-0500 (Central Daylight Time),230603.10000002384,A,m,O,m,387,1,399.80000001192093,230203.30000001192,9999,WL,A,10.0
2,13.779000043869019,learn,46220.99995613098,Fri Mar 27 2026 16:17:20 GMT-0500 (Central Daylight Time),230686.40000000596,A,me,O,e,75,1,483.09999999403954,230203.30000001192,9999,WL,A,10.0
2,13.961999893188477,learn,46038.00010681152,Fri Mar 27 2026 16:17:20 GMT-0500 (Central Daylight Time),230869.5,A,mea,O,a,167,1,666.1999999880791,230203.30000001192,9999,WL,A,10.0
2,14.04699993133545,learn,45953.00006866455,Fri Mar 27 2026 16:17:20 GMT-0500 (Central Daylight Time),230954.10000002384,A,mead,O,d,64,1,750.8000000119209,230203.30000001192,9999,WL,A,10.0
2,14.128000020980835,learn,45871.999979019165,Fri Mar 27 2026 16:17:20 GMT-0500 (Central Daylight Time),231035.90000000596,A,meado,O,o,67,1,832.5999999940395,230203.30000001192,9999,WL,A,10.0
2,14.211999893188477,learn,45788.00010681152,Fri Mar 27 2026 16:17:20 GMT-0500 (Central Daylight Time),231119.60000002384,A,meadow,O,w,74,1,916.3000000119209,230203.30000001192,9999,WL,A,10.0
2,14.428999900817871,learn,45571.00009918213,Fri Mar 27 2026 16:17:20 GMT-0500 (Central Daylight Time),231336.10000002384,A,meadowenter,O,enter,198,1,1132.800000011921,230203.30000001192,9999,WL,A,10.0
2,14.84500002861023,learn,45154.99997138977,Fri Mar 27 2026 16:17:20 GMT-0500 (Central Daylight Time),231752.80000001192,A,l,O,l,406,1,416.30000001192093,231336.5,9999,WL,A,11.0
2,14.994999885559082,learn,45005.00011444092,Fri Mar 27 2026 16:17:20 GMT-0500 (Central Daylight Time),231902.5,A,lo,O,o,133,1,566.0,231336.5,9999,WL,A,11.0
2,15.128000020980835,learn,44871.999979019165,Fri Mar 27 2026 16:17:20 GMT-0500 (Central Daylight Time),232035.80000001192,A,log,O,g,127,1,699.3000000119209,231336.5,9999,WL,A,11.0
2,15.312000036239624,learn,44687.999963760376,Fri Mar 27 2026 16:17:20 GMT-0500 (Central Daylight Time),232219.30000001192,A,logenter,O,enter,163,1,882.8000000119209,231336.5,9999,WL,A,11.0
2,15.461999893188477,learn,44538.00010681152,Fri Mar 27 2026 16:17:20 GMT-0500 (Central Daylight Time),232369.20000001788,A,c,O,c,138,1,149.5,232219.70000001788,9999,WL,A,12.0
2,15.577999830245972,learn,44422.00016975403,Fri Mar 27 2026 16:17:20 GMT-0500 (Central Daylight Time),232485.90000000596,A,ch,O,h,108,1,266.19999998807907,232219.70000001788,9999,WL,A,12.0
2,15.727999925613403,learn,44272.0000743866,Fri Mar 27 2026 16:17:20 GMT-0500 (Central Daylight Time),232635.80000001192,A,chi,O,i,137,1,416.09999999403954,232219.70000001788,9999,WL,A,12.0
2,15.944999933242798,learn,44055.0000667572,Fri Mar 27 2026 16:17:20 GMT-0500 (Central Daylight Time),232852.40000000596,A,chim,O,m,202,1,632.6999999880791,232219.70000001788,9999,WL,A,12.0
2,16.09500002861023,learn,43904.99997138977,Fri Mar 27 2026 16:17:20 GMT-0500 (Central Daylight Time),233002.30000001192,A,chimn,O,n,145,1,782.5999999940395,232219.70000001788,9999,WL,A,12.0
2,16.26099991798401,learn,43739.00008201599,Fri Mar 27 2026 16:17:20 GMT-0500 (Central Daylight Time),233168.90000000596,A,chimne,O,e,148,1,949.1999999880791,232219.70000001788,9999,WL,A,12.0
2,16.360999822616577,learn,43639.00017738342,Fri Mar 27 2026 16:17:20 GMT-0500 (Central Daylight Time),233268.80000001192,A,chimney,O,y,93,1,1049.0999999940395,232219.70000001788,9999,WL,A,12.0
2,16.710999965667725,learn,43289.000034332275,Fri Mar 27 2026 16:17:20 GMT-0500 (Central Daylight Time),233618.5,A,chimneyenter,O,enter,328,1,1398.7999999821186,232219.70000001788,9999,WL,A,12.0
2,16.977999925613403,learn,43022.0000743866,Fri Mar 27 2026 16:17:20 GMT-0500 (Central Daylight Time),233885.10000002384,A,k,O,k,259,1,266.30000001192093,233618.80000001192,9999,WL,A,13.0
2,17.110999822616577,learn,42889.00017738342,Fri Mar 27 2026 16:17:20 GMT-0500 (Central Daylight Time),234018.80000001192,A,ke,O,e,112,1,400.0,233618.80000001192,9999,WL,A,13.0
2,17.227999925613403,learn,42772.0000743866,Fri Mar 27 2026 16:17:20 GMT-0500 (Central Daylight Time),234135.30000001192,A,key,O,y,100,1,516.5,233618.80000001192,9999,WL,A,13.0
2,17.51099991798401,learn,42489.00008201599,Fri Mar 27 2026 16:17:20 GMT-0500 (Central Daylight Time),234418.40000000596,A,keyenter,O,enter,271,1,799.5999999940395,233618.80000001192,9999,WL,A,13.0
2,17.694000005722046,learn,42305.999994277954,Fri Mar 27 2026 16:17:20 GMT-0500 (Central Daylight Time),234602.0,A,s,O,s,173,1,183.2999999821186,234418.70000001788,9999,WL,A,14.0
2,17.810999870300293,learn,42189.00012969971,Fri Mar 27 2026 16:17:20 GMT-0500 (Central Daylight Time),234718.80000001192,A,sa,O,a,107,1,300.09999999403954,234418.70000001788,9999,WL,A,14.0
2,17.960999965667725,learn,42039.000034332275,Fri Mar 27 2026 16:17:20 GMT-0500 (Central Daylight Time),234868.40000000596,A,sal,O,l,143,1,449.69999998807907,234418.70000001788,9999,WL,A,14.0
2,18.0939998626709,learn,41906.0001373291,Fri Mar 27 2026 16:17:20 GMT-0500 (Central Daylight Time),235001.60000002384,A,salt,O,t,113,1,582.9000000059605,234418.70000001788,9999,WL,A,14.0
2,18.3439998626709,learn,41656.0001373291,Fri Mar 27 2026 16:17:20 GMT-0500 (Central Daylight Time),235251.70000001788,A,saltenter,O,enter,237,1,833.0,234418.70000001788,9999,WL,A,14.0
2,18.860999822616577,learn,41139.00017738342,Fri Mar 27 2026 16:17:20 GMT-0500 (Central Daylight Time),235768.10000002384,A,f,O,f,498,1,516.1000000238419,235252.0,9999,WL,A,15.0
2,18.944000005722046,learn,41055.999994277954,Fri Mar 27 2026 16:17:20 GMT-0500 (Central Daylight Time),235851.70000001788,A,fi,O,i,70,1,599.7000000178814,235252.0,9999,WL,A,15.0
2,19.109999895095825,learn,40890.000104904175,Fri Mar 27 2026 16:17:20 GMT-0500 (Central Daylight Time),236018.10000002384,A,fin,O,n,155,1,766.1000000238419,235252.0,9999,WL,A,15.0
2,19.259999990463257,learn,40740.00000953674,Fri Mar 27 2026 16:17:20 GMT-0500 (Central Daylight Time),236168.10000002384,A,fing,O,g,141,1,916.1000000238419,235252.0,9999,WL,A,15.0
2,19.32699990272522,learn,40673.00009727478,Fri Mar 27 2026 16:17:20 GMT-0500 (Central Daylight Time),236234.80000001192,A,finge,O,e,63,1,982.8000000119209,235252.0,9999,WL,A,15.0
2,19.460000038146973,learn,40539.99996185303,Fri Mar 27 2026 16:17:20 GMT-0500 (Central Daylight Time),236368.0,A,finger,O,r,124,1,1116.0,235252.0,9999,WL,A,15.0
2,19.66100001335144,learn,40338.99998664856,Fri Mar 27 2026 16:17:20 GMT-0500 (Central Daylight Time),236568.80000001192,A,fingerenter,O,enter,189,1,1316.800000011921,235252.0,9999,WL,A,15.0
3,0.7670001983642578,learn,59232.99980163574,Fri Mar 27 2026 16:17:20 GMT-0500 (Central Daylight Time),312410.7000000179,A,h,O,h,746,1,766.3000000119209,311644.40000000596,9999,WL,A,1.0
3,0.8670001029968262,learn,59132.999897003174,Fri Mar 27 2026 16:17:20 GMT-0500 (Central Daylight Time),312510.60000002384,A,ha,O,a,83,1,866.2000000178814,311644.40000000596,9999,WL,A,1.0
3,1.0170001983642578,learn,58982.99980163574,Fri Mar 27 2026 16:17:20 GMT-0500 (Central Daylight Time),312660.90000000596,A,har,O,r,136,1,1016.5,311644.40000000596,9999,WL,A,1.0
3,1.1000001430511475,learn,58899.99985694885,Fri Mar 27 2026 16:17:20 GMT-0500 (Central Daylight Time),312744.0,A,haro,O,o,66,1,1099.5999999940395,311644.40000000596,9999,WL,A,1.0
3,1.8500001430511475,learn,58149.99985694885,Fri Mar 27 2026 16:17:20 GMT-0500 (Central Daylight Time),313493.8000000119,A,har,O,backspace,735,1,1849.4000000059605,311644.40000000596,9999,WL,A,1.0
3,2.0830001831054688,learn,57916.99981689453,Fri Mar 27 2026 16:17:20 GMT-0500 (Central Daylight Time),313727.2000000179,A,harp,O,p,225,1,2082.800000011921,311644.40000000596,9999,WL,A,1.0
3,2.3500001430511475,learn,57649.99985694885,Fri Mar 27 2026 16:17:20 GMT-0500 (Central Daylight Time),313994.10000002384,A,harpenter,O,enter,247,1,2349.7000000178814,311644.40000000596,9999,WL,A,1.0
3,2.5329999923706055,learn,57467.000007629395,Fri Mar 27 2026 16:17:20 GMT-0500 (Central Daylight Time),314176.90000000596,A,s,O,s,164,1,182.5,313994.40000000596,9999,WL,A,2.0
3,2.7170000076293945,learn,57282.999992370605,Fri Mar 27 2026 16:17:20 GMT-0500 (Central Daylight Time),314360.5,A,sa,O,a,165,1,366.09999999403954,313994.40000000596,9999,WL,A,2.0
3,2.81600022315979,learn,57183.99977684021,Fri Mar 27 2026 16:17:20 GMT-0500 (Central Daylight Time),314459.90000000596,A,sal,O,l,94,1,465.5,313994.40000000596,9999,WL,A,2.0
3,2.9660000801086426,learn,57033.99991989136,Fri Mar 27 2026 16:17:20 GMT-0500 (Central Daylight Time),314610.2000000179,A,salt,O,t,130,1,615.8000000119209,313994.40000000596,9999,WL,A,2.0
3,3.5160000324249268,learn,56483.99996757507,Fri Mar 27 2026 16:17:20 GMT-0500 (Central Daylight Time),315160.0,A,saltenter,O,enter,539,1,1165.5999999940395,313994.40000000596,9999,WL,A,2.0
3,3.7660000324249268,learn,56233.99996757507,Fri Mar 27 2026 16:17:20 GMT-0500 (Central Daylight Time),315410.0,A,a,O,a,238,1,249.69999998807907,315160.3000000119,9999,WL,A,3.0
3,3.9160001277923584,learn,56083.99987220764,Fri Mar 27 2026 16:17:20 GMT-0500 (Central Daylight Time),315559.7000000179,A,ap,O,p,140,1,399.40000000596046,315160.3000000119,9999,WL,A,3.0
3,4.06600022315979,learn,55933.99977684021,Fri Mar 27 2026 16:17:20 GMT-0500 (Central Daylight Time),315709.7000000179,A,app,O,p,134,1,549.4000000059605,315160.3000000119,9999,WL,A,3.0
3,4.2170000076293945,learn,55782.999992370605,Fri Mar 27 2026 16:17:20 GMT-0500 (Central Daylight Time),315860.5,A,appl,O,l,145,1,700.1999999880791,315160.3000000119,9999,WL,A,3.0
3,4.332000017166138,learn,55667.99998283386,Fri Mar 27 2026 16:17:20 GMT-0500 (Central Daylight Time),315976.40000000596,A,apple,O,e,105,1,816.0999999940395,315160.3000000119,9999,WL,A,3.0
3,4.482000112533569,learn,55517.99988746643,Fri Mar 27 2026 16:17:20 GMT-0500 (Central Daylight Time),316126.3000000119,A,appleenter,O,enter,133,1,966.0,315160.3000000119,9999,WL,A,3.0
3,5.101000070571899,learn,54898.9999294281,Fri Mar 27 2026 16:17:20 GMT-0500 (Central Daylight Time),316745.2000000179,A,b,O,b,479,1,618.5,316126.7000000179,9999,WL,A,4.0
3,5.249000072479248,learn,54750.99992752075,Fri Mar 27 2026 16:17:20 GMT-0500 (Central Daylight Time),316892.5,A,bu,O,u,28,1,765.7999999821186,316126.7000000179,9999,WL,A,4.0
3,5.332000017166138,learn,54667.99998283386,Fri Mar 27 2026 16:17:20 GMT-0500 (Central Daylight Time),316975.7000000179,A,but,O,t,72,1,849.0,316126.7000000179,9999,WL,A,4.0
3,5.466000080108643,learn,54533.99991989136,Fri Mar 27 2026 16:17:20 GMT-0500 (Central Daylight Time),317109.60000002384,A,butt,O,t,119,1,982.9000000059605,316126.7000000179,9999,WL,A,4.0
3,5.549000024795532,learn,54450.99997520447,Fri Mar 27 2026 16:17:20 GMT-0500 (Central Daylight Time),317192.40000000596,A,butto,O,o,64,1,1065.699999988079,316126.7000000179,9999,WL,A,4.0
3,5.699000120162964,learn,54300.999879837036,Fri Mar 27 2026 16:17:20 GMT-0500 (Central Daylight Time),317342.7000000179,A,button,O,n,142,1,1216.0,316126.7000000179,9999,WL,A,4.0
3,5.949000120162964,learn,54050.999879837036,Fri Mar 27 2026 16:17:20 GMT-0500 (Central Daylight Time),317592.5,A,buttonenter,O,enter,240,1,1465.7999999821186,316126.7000000179,9999,WL,A,4.0
3,6.299000024795532,learn,53700.99997520447,Fri Mar 27 2026 16:17:20 GMT-0500 (Central Daylight Time),317942.60000002384,A,r,O,r,334,1,349.7000000178814,317592.90000000596,9999,WL,A,5.0
3,6.465000152587891,learn,53534.99984741211,Fri Mar 27 2026 16:17:20 GMT-0500 (Central Daylight Time),318109.2000000179,A,ra,O,a,160,1,516.3000000119209,317592.90000000596,9999,WL,A,5.0
3,6.832000017166138,learn,53167.99998283386,Fri Mar 27 2026 16:17:20 GMT-0500 (Central Daylight Time),318475.5,A,rat,O,t,353,1,882.5999999940395,317592.90000000596,9999,WL,A,5.0
3,6.965000152587891,learn,53034.99984741211,Fri Mar 27 2026 16:17:20 GMT-0500 (Central Daylight Time),318608.90000000596,A,ratt,O,t,114,1,1016.0,317592.90000000596,9999,WL,A,5.0
3,7.04800009727478,learn,52951.99990272522,Fri Mar 27 2026 16:17:20 GMT-0500 (Central Daylight Time),318692.3000000119,A,rattl,O,l,70,1,1099.4000000059605,317592.90000000596,9999,WL,A,5.0
3,7.198000192642212,learn,52801.99980735779,Fri Mar 27 2026 16:17:20 GMT-0500 (Central Daylight Time),318842.10000002384,A,rattle,O,e,138,1,1249.2000000178814,317592.90000000596,9999,WL,A,5.0
3,7.332000017166138,learn,52667.99998283386,Fri Mar 27 2026 16:17:20 GMT-0500 (Central Daylight Time),318975.40000000596,A,rattleenter,O,enter,123,1,1382.5,317592.90000000596,9999,WL,A,5.0
3,7.6650002002716064,learn,52334.99979972839,Fri Mar 27 2026 16:17:20 GMT-0500 (Central Daylight Time),319308.8000000119,A,g,O,g,319,1,333.0,318975.8000000119,9999,WL,A,6.0
3,7.815000057220459,learn,52184.99994277954,Fri Mar 27 2026 16:17:20 GMT-0500 (Central Daylight Time),319458.7000000179,A,go,O,o,137,1,482.90000000596046,318975.8000000119,9999,WL,A,6.0
3,7.981000185012817,learn,52018.99981498718,Fri Mar 27 2026 16:17:20 GMT-0500 (Central Daylight Time),319625.3000000119,A,gol,O,l,147,1,649.5,318975.8000000119,9999,WL,A,6.0
3,8.13100004196167,learn,51868.99995803833,Fri Mar 27 2026 16:17:20 GMT-0500 (Central Daylight Time),319775.3000000119,A,gold,O,d,132,1,799.5,318975.8000000119,9999,WL,A,6.0
3,8.565000057220459,learn,51434.99994277954,Fri Mar 27 2026 16:17:20 GMT-0500 (Central Daylight Time),320208.5,A,goldenter,O,enter,423,1,1232.699999988079,318975.8000000119,9999,WL,A,6.0
3,8.981000185012817,learn,51018.99981498718,Fri Mar 27 2026 16:17:20 GMT-0500 (Central Daylight Time),320625.0,A,b,O,b,398,1,416.09999999403954,320208.90000000596,9999,WL,A,7.0
3,9.198000192642212,learn,50801.99980735779,Fri Mar 27 2026 16:17:20 GMT-0500 (Central Daylight Time),320841.5,A,bo,O,o,197,1,632.5999999940395,320208.90000000596,9999,WL,A,7.0
3,9.314000129699707,learn,50685.99987030029,Fri Mar 27 2026 16:17:20 GMT-0500 (Central Daylight Time),320958.2000000179,A,boo,O,o,109,1,749.3000000119209,320208.90000000596,9999,WL,A,7.0
3,9.497000217437744,learn,50502.999782562256,Fri Mar 27 2026 16:17:20 GMT-0500 (Central Daylight Time),321141.3000000119,A,booi,O,i,175,1,932.4000000059605,320208.90000000596,9999,WL,A,7.0
3,9.814000129699707,learn,50185.99987030029,Fri Mar 27 2026 16:17:20 GMT-0500 (Central Daylight Time),321458.10000002384,A,booienter,O,enter,296,1,1249.2000000178814,320208.90000000596,9999,WL,A,7.0
3,10.164000034332275,learn,49835.999965667725,Fri Mar 27 2026 16:17:20 GMT-0500 (Central Daylight Time),321808.10000002384,A,f,O,f,341,1,349.5,321458.60000002384,9999,WL,A,8.0
3,10.281000137329102,learn,49718.9998626709,Fri Mar 27 2026 16:17:20 GMT-0500 (Central Daylight Time),321924.60000002384,A,fl,O,l,102,1,466.0,321458.60000002384,9999,WL,A,8.0
3,10.430999994277954,learn,49569.000005722046,Fri Mar 27 2026 16:17:20 GMT-0500 (Central Daylight Time),322074.40000000596,A,flo,O,o,130,1,615.7999999821186,321458.60000002384,9999,WL,A,8.0
3,10.497000217437744,learn,49502.999782562256,Fri Mar 27 2026 16:17:20 GMT-0500 (Central Daylight Time),322141.3000000119,A,flow,O,w,52,1,682.6999999880791,321458.60000002384,9999,WL,A,8.0
3,10.680999994277954,learn,49319.000005722046,Fri Mar 27 2026 16:17:20 GMT-0500 (Central Daylight Time),322324.5,A,flowe,O,e,169,1,865.8999999761581,321458.60000002384,9999,WL,A,8.0
3,10.830000162124634,learn,49169.999837875366,Fri Mar 27 2026 16:17:20 GMT-0500 (Central Daylight Time),322474.3000000119,A,flower,O,r,138,1,1015.6999999880791,321458.60000002384,9999,WL,A,8.0
3,10.997000217437744,learn,49002.999782562256,Fri Mar 27 2026 16:17:20 GMT-0500 (Central Daylight Time),322640.90000000596,A,flowerenter,O,enter,147,1,1182.2999999821186,321458.60000002384,9999,WL,A,8.0
3,11.430000066757202,learn,48569.9999332428,Fri Mar 27 2026 16:17:20 GMT-0500 (Central Daylight Time),323074.0,A,t,O,t,421,1,432.69999998807907,322641.3000000119,9999,WL,A,9.0
3,11.497000217437744,learn,48502.999782562256,Fri Mar 27 2026 16:17:20 GMT-0500 (Central Daylight Time),323141.0,A,tr,O,r,53,1,499.69999998807907,322641.3000000119,9999,WL,A,9.0
3,11.647000074386597,learn,48352.9999256134,Fri Mar 27 2026 16:17:20 GMT-0500 (Central Daylight Time),323290.60000002384,A,tra,O,a,145,1,649.3000000119209,322641.3000000119,9999,WL,A,9.0
3,11.714000225067139,learn,48285.99977493286,Fri Mar 27 2026 16:17:20 GMT-0500 (Central Daylight Time),323357.5,A,trai,O,i,61,1,716.1999999880791,322641.3000000119,9999,WL,A,9.0
3,11.880000114440918,learn,48119.99988555908,Fri Mar 27 2026 16:17:20 GMT-0500 (Central Daylight Time),323523.90000000596,A,train,O,n,161,1,882.5999999940395,322641.3000000119,9999,WL,A,9.0
3,12.180000066757202,learn,47819.9999332428,Fri Mar 27 2026 16:17:20 GMT-0500 (Central Daylight Time),323824.3000000119,A,trainenter,O,enter,291,1,1183.0,322641.3000000119,9999,WL,A,9.0
3,12.680000066757202,learn,47319.9999332428,Fri Mar 27 2026 16:17:20 GMT-0500 (Central Daylight Time),324323.7000000179,A,r,O,r,478,1,499.2000000178814,323824.5,9999,WL,A,10.0
3,12.78000020980835,learn,47219.99979019165,Fri Mar 27 2026 16:17:20 GMT-0500 (Central Daylight Time),324423.60000002384,A,ru,O,u,83,1,599.1000000238419,323824.5,9999,WL,A,10.0
3,12.930000066757202,learn,47069.9999332428,Fri Mar 27 2026 16:17:20 GMT-0500 (Central Daylight Time),324574.10000002384,A,rug,O,g,135,1,749.6000000238419,323824.5,9999,WL,A,10.0
3,13.09600019454956,learn,46903.99980545044,Fri Mar 27 2026 16:17:20 GMT-0500 (Central Daylight Time),324740.40000000596,A,rugenter,O,enter,151,1,915.9000000059605,323824.5,9999,WL,A,10.0
3,13.34600019454956,learn,46653.99980545044,Fri Mar 27 2026 16:17:20 GMT-0500 (Central Daylight Time),324990.40000000596,A,m,O,m,242,1,249.7999999821186,324740.60000002384,9999,WL,A,11.0
3,13.430000066757202,learn,46569.9999332428,Fri Mar 27 2026 16:17:20 GMT-0500 (Central Daylight Time),325073.7000000179,A,me,O,e,72,1,333.09999999403954,324740.60000002384,9999,WL,A,11.0
3,13.59600019454956,learn,46403.99980545044,Fri Mar 27 2026 16:17:20 GMT-0500 (Central Daylight Time),325240.40000000596,A,mea,O,a,157,1,499.7999999821186,324740.60000002384,9999,WL,A,11.0
3,13.713000059127808,learn,46286.99994087219,Fri Mar 27 2026 16:17:20 GMT-0500 (Central Daylight Time),325357.10000002384,A,mead,O,d,101,1,616.5,324740.60000002384,9999,WL,A,11.0
3,13.796000003814697,learn,46203.9999961853,Fri Mar 27 2026 16:17:20 GMT-0500 (Central Daylight Time),325440.0,A,meado,O,o,73,1,699.3999999761581,324740.60000002384,9999,WL,A,11.0
3,13.913000106811523,learn,46086.99989318848,Fri Mar 27 2026 16:17:20 GMT-0500 (Central Daylight Time),325556.8000000119,A,meadow,O,w,102,1,816.1999999880791,324740.60000002384,9999,WL,A,11.0
3,14.081000089645386,learn,45918.999910354614,Fri Mar 27 2026 16:17:20 GMT-0500 (Central Daylight Time),325724.60000002384,A,meadowenter,O,enter,147,1,984.0,324740.60000002384,9999,WL,A,11.0
3,14.879000186920166,learn,45120.999813079834,Fri Mar 27 2026 16:17:20 GMT-0500 (Central Daylight Time),326522.90000000596,A,k,O,k,793,1,798.0,325724.90000000596,9999,WL,A,12.0
3,14.979000091552734,learn,45020.999908447266,Fri Mar 27 2026 16:17:20 GMT-0500 (Central Daylight Time),326623.0,A,ke,O,e,83,1,898.0999999940395,325724.90000000596,9999,WL,A,12.0
3,15.129000186920166,learn,44870.999813079834,Fri Mar 27 2026 16:17:20 GMT-0500 (Central Daylight Time),326773.0,A,key,O,y,144,1,1048.0999999940395,325724.90000000596,9999,WL,A,12.0
3,15.430000066757202,learn,44569.9999332428,Fri Mar 27 2026 16:17:20 GMT-0500 (Central Daylight Time),327073.40000000596,A,keyenter,O,enter,282,1,1348.5,325724.90000000596,9999,WL,A,12.0
3,15.612000226974487,learn,44387.99977302551,Fri Mar 27 2026 16:17:20 GMT-0500 (Central Daylight Time),327256.3000000119,A,f,O,f,173,1,182.69999998807907,327073.60000002384,9999,WL,A,13.0
3,15.76200008392334,learn,44237.99991607666,Fri Mar 27 2026 16:17:20 GMT-0500 (Central Daylight Time),327406.2000000179,A,fi,O,i,135,1,332.59999999403954,327073.60000002384,9999,WL,A,13.0
3,15.92900013923645,learn,44070.99986076355,Fri Mar 27 2026 16:17:20 GMT-0500 (Central Daylight Time),327572.8000000119,A,fin,O,n,159,1,499.19999998807907,327073.60000002384,9999,WL,A,13.0
3,16.17900013923645,learn,43820.99986076355,Fri Mar 27 2026 16:17:20 GMT-0500 (Central Daylight Time),327823.0,A,fing,O,g,234,1,749.3999999761581,327073.60000002384,9999,WL,A,13.0
3,16.263000011444092,learn,43736.99998855591,Fri Mar 27 2026 16:17:20 GMT-0500 (Central Daylight Time),327907.0,A,finge,O,e,63,1,833.3999999761581,327073.60000002384,9999,WL,A,13.0
3,16.379000186920166,learn,43620.999813079834,Fri Mar 27 2026 16:17:20 GMT-0500 (Central Daylight Time),328022.60000002384,A,finger,O,r,106,1,949.0,327073.60000002384,9999,WL,A,13.0
3,16.545000076293945,learn,43454.999923706055,Fri Mar 27 2026 16:17:20 GMT-0500 (Central Daylight Time),328189.10000002384,A,fingerenter,O,enter,160,1,1115.5,327073.60000002384,9999,WL,A,13.0
3,17.01200008392334,learn,42987.99991607666,Fri Mar 27 2026 16:17:20 GMT-0500 (Central Daylight Time),328655.7000000179,A,l,O,l,458,1,466.30000001192093,328189.40000000596,9999,WL,A,14.0
3,17.17900013923645,learn,42820.99986076355,Fri Mar 27 2026 16:17:20 GMT-0500 (Central Daylight Time),328822.5,A,lo,O,o,159,1,633.0999999940395,328189.40000000596,9999,WL,A,14.0
3,17.34500002861023,learn,42654.99997138977,Fri Mar 27 2026 16:17:20 GMT-0500 (Central Daylight Time),328988.90000000596,A,log,O,g,159,1,799.5,328189.40000000596,9999,WL,A,14.0
3,17.59500002861023,learn,42404.99997138977,Fri Mar 27 2026 16:17:20 GMT-0500 (Central Daylight Time),329239.10000002384,A,logenter,O,enter,242,1,1049.7000000178814,328189.40000000596,9999,WL,A,14.0
3,18.278000116348267,learn,41721.99988365173,Fri Mar 27 2026 16:17:20 GMT-0500 (Central Daylight Time),329922.10000002384,A,c,O,c,671,1,682.8000000119209,329239.3000000119,9999,WL,A,15.0
3,18.361000061035156,learn,41638.999938964844,Fri Mar 27 2026 16:17:20 GMT-0500 (Central Daylight Time),330005.40000000596,A,ch,O,h,75,1,766.0999999940395,329239.3000000119,9999,WL,A,15.0
3,18.511000156402588,learn,41488.99984359741,Fri Mar 27 2026 16:17:20 GMT-0500 (Central Daylight Time),330155.10000002384,A,chi,O,i,137,1,915.8000000119209,329239.3000000119,9999,WL,A,15.0
3,18.728000164031982,learn,41271.99983596802,Fri Mar 27 2026 16:17:20 GMT-0500 (Central Daylight Time),330371.90000000596,A,chim,O,m,203,1,1132.5999999940395,329239.3000000119,9999,WL,A,15.0
3,19.378000020980835,learn,40621.999979019165,Fri Mar 27 2026 16:17:20 GMT-0500 (Central Daylight Time),331021.60000002384,A,chimn,O,n,633,1,1782.300000011921,329239.3000000119,9999,WL,A,15.0
3,19.49400019645691,learn,40505.99980354309,Fri Mar 27 2026 16:17:20 GMT-0500 (Central Daylight Time),331138.2000000179,A,chimne,O,e,96,1,1898.9000000059605,329239.3000000119,9999,WL,A,15.0
3,19.59500002861023,learn,40404.99997138977,Fri Mar 27 2026 16:17:20 GMT-0500 (Central Daylight Time),331238.40000000596,A,chimney,O,y,85,1,1999.0999999940395,329239.3000000119,9999,WL,A,15.0
3,19.861000061035156,learn,40138.999938964844,Fri Mar 27 2026 16:17:20 GMT-0500 (Central Daylight Time),331505.0,A,chimneyenter,O,enter,256,1,2265.699999988079,329239.3000000119,9999,WL,A,15.0
4,0.6499998569488525,learn,59350.00014305115,Fri Mar 27 2026 16:17:20 GMT-0500 (Central Daylight Time),397050.90000000596,A,h,O,h,638,1,649.6999999880791,396401.2000000179,9999,WL,A,1.0
4,0.7669999599456787,learn,59233.00004005432,Fri Mar 27 2026 16:17:20 GMT-0500 (Central Daylight Time),397167.7000000179,A,ha,O,a,107,1,766.5,396401.2000000179,9999,WL,A,1.0
4,1.2669999599456787,learn,58733.00004005432,Fri Mar 27 2026 16:17:20 GMT-0500 (Central Daylight Time),397667.60000002384,A,har,O,r,479,1,1266.4000000059605,396401.2000000179,9999,WL,A,1.0
4,1.4499998092651367,learn,58550.00019073486,Fri Mar 27 2026 16:17:20 GMT-0500 (Central Daylight Time),397850.7000000179,A,harp,O,p,163,1,1449.5,396401.2000000179,9999,WL,A,1.0
4,1.7829999923706055,learn,58217.000007629395,Fri Mar 27 2026 16:17:20 GMT-0500 (Central Daylight Time),398183.90000000596,A,harpenter,O,enter,324,1,1782.699999988079,396401.2000000179,9999,WL,A,1.0
4,2.132999897003174,learn,57867.000102996826,Fri Mar 27 2026 16:17:20 GMT-0500 (Central Daylight Time),398533.8000000119,A,a,O,a,342,1,349.59999999403954,398184.2000000179,9999,WL,A,2.0
4,2.3489999771118164,learn,57651.00002288818,Fri Mar 27 2026 16:17:20 GMT-0500 (Central Daylight Time),398750.3000000119,A,ap,O,p,200,1,566.0999999940395,398184.2000000179,9999,WL,A,2.0
4,2.4819998741149902,learn,57518.00012588501,Fri Mar 27 2026 16:17:20 GMT-0500 (Central Daylight Time),398883.5,A,app,O,p,119,1,699.2999999821186,398184.2000000179,9999,WL,A,2.0
4,2.6489999294281006,learn,57351.0000705719,Fri Mar 27 2026 16:17:20 GMT-0500 (Central Daylight Time),399050.5,A,appl,O,l,155,1,866.2999999821186,398184.2000000179,9999,WL,A,2.0
4,2.815999984741211,learn,57184.00001525879,Fri Mar 27 2026 16:17:20 GMT-0500 (Central Daylight Time),399216.90000000596,A,apple,O,e,147,1,1032.699999988079,398184.2000000179,9999,WL,A,2.0
4,2.9489998817443848,learn,57051.000118255615,Fri Mar 27 2026 16:17:20 GMT-0500 (Central Daylight Time),399350.2000000179,A,appleenter,O,enter,118,1,1166.0,398184.2000000179,9999,WL,A,2.0
4,3.5319998264312744,learn,56468.000173568726,Fri Mar 27 2026 16:17:20 GMT-0500 (Central Daylight Time),399933.10000002384,A,b,O,b,576,1,582.6000000238419,399350.5,9999,WL,A,3.0
4,3.7319998741149902,learn,56268.00012588501,Fri Mar 27 2026 16:17:20 GMT-0500 (Central Daylight Time),400133.3000000119,A,bu,O,u,192,1,782.8000000119209,399350.5,9999,WL,A,3.0
4,3.865000009536743,learn,56134.99999046326,Fri Mar 27 2026 16:17:20 GMT-0500 (Central Daylight Time),400266.40000000596,A,but,O,t,113,1,915.9000000059605,399350.5,9999,WL,A,3.0
4,3.9839999675750732,learn,56016.00003242493,Fri Mar 27 2026 16:17:20 GMT-0500 (Central Daylight Time),400384.60000002384,A,butt,O,t,107,1,1034.1000000238419,399350.5,9999,WL,A,3.0
4,4.065999984741211,learn,55934.00001525879,Fri Mar 27 2026 16:17:20 GMT-0500 (Central Daylight Time),400466.60000002384,A,butto,O,o,70,1,1116.1000000238419,399350.5,9999,WL,A,3.0
4,4.23199987411499,learn,55768.00012588501,Fri Mar 27 2026 16:17:20 GMT-0500 (Central Daylight Time),400633.3000000119,A,button,O,n,155,1,1282.800000011921,399350.5,9999,WL,A,3.0
4,4.548999786376953,learn,55451.00021362305,Fri Mar 27 2026 16:17:20 GMT-0500 (Central Daylight Time),400950.0,A,buttonenter,O,enter,308,1,1599.5,399350.5,9999,WL,A,3.0
4,4.898999929428101,learn,55101.0000705719,Fri Mar 27 2026 16:17:20 GMT-0500 (Central Daylight Time),401299.7000000179,A,r,O,r,336,1,349.30000001192093,400950.40000000596,9999,WL,A,4.0
4,5.06499981880188,learn,54935.00018119812,Fri Mar 27 2026 16:17:20 GMT-0500 (Central Daylight Time),401466.2000000179,A,ra,O,a,162,1,515.8000000119209,400950.40000000596,9999,WL,A,4.0
4,5.431999921798706,learn,54568.000078201294,Fri Mar 27 2026 16:17:20 GMT-0500 (Central Daylight Time),401832.8000000119,A,rat,O,t,357,1,882.4000000059605,400950.40000000596,9999,WL,A,4.0
4,5.598999977111816,learn,54401.00002288818,Fri Mar 27 2026 16:17:20 GMT-0500 (Central Daylight Time),401999.7000000179,A,ratl,O,l,150,1,1049.300000011921,400950.40000000596,9999,WL,A,4.0
4,5.865000009536743,learn,54134.99999046326,Fri Mar 27 2026 16:17:20 GMT-0500 (Central Daylight Time),402265.8000000119,A,ratle,O,e,246,1,1315.4000000059605,400950.40000000596,9999,WL,A,4.0
4,6.247999906539917,learn,53752.00009346008,Fri Mar 27 2026 16:17:20 GMT-0500 (Central Daylight Time),402649.3000000119,A,ratl,O,backspace,364,1,1698.9000000059605,400950.40000000596,9999,WL,A,4.0
4,6.381999969482422,learn,53618.00003051758,Fri Mar 27 2026 16:17:20 GMT-0500 (Central Daylight Time),402782.60000002384,A,rat,O,backspace,116,1,1832.2000000178814,400950.40000000596,9999,WL,A,4.0
4,6.514999866485596,learn,53485.000133514404,Fri Mar 27 2026 16:17:20 GMT-0500 (Central Daylight Time),402915.8000000119,A,ratt,O,t,119,1,1965.4000000059605,400950.40000000596,9999,WL,A,4.0
4,6.697999954223633,learn,53302.00004577637,Fri Mar 27 2026 16:17:20 GMT-0500 (Central Daylight Time),403099.2000000179,A,rattl,O,l,170,1,2148.800000011921,400950.40000000596,9999,WL,A,4.0
4,6.865000009536743,learn,53134.99999046326,Fri Mar 27 2026 16:17:20 GMT-0500 (Central Daylight Time),403265.8000000119,A,rattle,O,e,146,1,2315.4000000059605,400950.40000000596,9999,WL,A,4.0
4,7.0309998989105225,learn,52969.00010108948,Fri Mar 27 2026 16:17:20 GMT-0500 (Central Daylight Time),403432.2000000179,A,rattleenter,O,enter,148,1,2481.800000011921,400950.40000000596,9999,WL,A,4.0
4,7.414999961853027,learn,52585.00003814697,Fri Mar 27 2026 16:17:20 GMT-0500 (Central Daylight Time),403815.7000000179,A,s,O,s,374,1,383.30000001192093,403432.40000000596,9999,WL,A,5.0
4,7.580999851226807,learn,52419.00014877319,Fri Mar 27 2026 16:17:20 GMT-0500 (Central Daylight Time),403982.2000000179,A,sa,O,a,150,1,549.8000000119209,403432.40000000596,9999,WL,A,5.0
4,7.680999994277954,learn,52319.000005722046,Fri Mar 27 2026 16:17:20 GMT-0500 (Central Daylight Time),404082.10000002384,A,sal,O,l,87,1,649.7000000178814,403432.40000000596,9999,WL,A,5.0
4,7.797999858856201,learn,52202.0001411438,Fri Mar 27 2026 16:17:20 GMT-0500 (Central Daylight Time),404198.60000002384,A,salt,O,t,108,1,766.2000000178814,403432.40000000596,9999,WL,A,5.0
4,8.46399998664856,learn,51536.00001335144,Fri Mar 27 2026 16:17:20 GMT-0500 (Central Daylight Time),404865.40000000596,A,saltenter,O,enter,655,1,1433.0,403432.40000000596,9999,WL,A,5.0
4,8.946999788284302,learn,51053.0002117157,Fri Mar 27 2026 16:17:20 GMT-0500 (Central Daylight Time),405348.3000000119,A,f,O,f,476,1,482.5,404865.8000000119,9999,WL,A,6.0
4,9.080999851226807,learn,50919.00014877319,Fri Mar 27 2026 16:17:20 GMT-0500 (Central Daylight Time),405481.60000002384,A,fi,O,i,113,1,615.8000000119209,404865.8000000119,9999,WL,A,6.0
4,9.246999979019165,learn,50753.000020980835,Fri Mar 27 2026 16:17:20 GMT-0500 (Central Daylight Time),405648.3000000119,A,fin,O,n,157,1,782.5,404865.8000000119,9999,WL,A,6.0
4,9.413999795913696,learn,50586.000204086304,Fri Mar 27 2026 16:17:20 GMT-0500 (Central Daylight Time),405815.0,A,fing,O,g,149,1,949.1999999880791,404865.8000000119,9999,WL,A,6.0
4,9.497999906539917,learn,50502.00009346008,Fri Mar 27 2026 16:17:20 GMT-0500 (Central Daylight Time),405899.5,A,finge,O,e,72,1,1033.699999988079,404865.8000000119,9999,WL,A,6.0
4,9.613999843597412,learn,50386.00015640259,Fri Mar 27 2026 16:17:20 GMT-0500 (Central Daylight Time),406015.0,A,finger,O,r,99,1,1149.199999988079,404865.8000000119,9999,WL,A,6.0
4,9.780999898910522,learn,50219.00010108948,Fri Mar 27 2026 16:17:20 GMT-0500 (Central Daylight Time),406181.60000002384,A,fingerenter,O,enter,159,1,1315.800000011921,404865.8000000119,9999,WL,A,6.0
4,11.513000011444092,learn,48486.99998855591,Fri Mar 27 2026 16:17:20 GMT-0500 (Central Daylight Time),407914.2000000179,A,g,O,g,1712,1,1732.2000000178814,406182.0,9999,WL,A,7.0
4,11.595999956130981,learn,48404.00004386902,Fri Mar 27 2026 16:17:20 GMT-0500 (Central Daylight Time),407997.60000002384,A,go,O,o,75,1,1815.6000000238419,406182.0,9999,WL,A,7.0
4,11.763000011444092,learn,48236.99998855591,Fri Mar 27 2026 16:17:20 GMT-0500 (Central Daylight Time),408163.8000000119,A,gol,O,l,161,1,1981.800000011921,406182.0,9999,WL,A,7.0
4,11.94599986076355,learn,48054.00013923645,Fri Mar 27 2026 16:17:20 GMT-0500 (Central Daylight Time),408347.10000002384,A,gold,O,d,177,1,2165.100000023842,406182.0,9999,WL,A,7.0
4,12.11299991607666,learn,47887.00008392334,Fri Mar 27 2026 16:17:20 GMT-0500 (Central Daylight Time),408514.2000000179,A,goldenter,O,enter,147,1,2332.2000000178814,406182.0,9999,WL,A,7.0
4,12.712999820709229,learn,47287.00017929077,Fri Mar 27 2026 16:17:20 GMT-0500 (Central Daylight Time),409114.2000000179,A,k,O,k,580,1,599.7000000178814,408514.5,9999,WL,A,8.0
4,12.812999963760376,learn,47187.000036239624,Fri Mar 27 2026 16:17:20 GMT-0500 (Central Daylight Time),409213.90000000596,A,ke,O,e,84,1,699.4000000059605,408514.5,9999,WL,A,8.0
4,12.962999820709229,learn,47037.00017929077,Fri Mar 27 2026 16:17:20 GMT-0500 (Central Daylight Time),409364.0,A,key,O,y,137,1,849.5,408514.5,9999,WL,A,8.0
4,13.495999813079834,learn,46504.000186920166,Fri Mar 27 2026 16:17:20 GMT-0500 (Central Daylight Time),409897.0,A,keyenter,O,enter,513,1,1382.5,408514.5,9999,WL,A,8.0
4,13.978999853134155,learn,46021.000146865845,Fri Mar 27 2026 16:17:20 GMT-0500 (Central Daylight Time),410380.10000002384,A,l,O,l,477,1,482.80000001192093,409897.3000000119,9999,WL,A,9.0
4,14.145999908447266,learn,45854.000091552734,Fri Mar 27 2026 16:17:20 GMT-0500 (Central Daylight Time),410546.8000000119,A,lo,O,o,154,1,649.5,409897.3000000119,9999,WL,A,9.0
4,14.296000003814697,learn,45703.9999961853,Fri Mar 27 2026 16:17:20 GMT-0500 (Central Daylight Time),410696.8000000119,A,log,O,g,139,1,799.5,409897.3000000119,9999,WL,A,9.0
4,14.478999853134155,learn,45521.000146865845,Fri Mar 27 2026 16:17:20 GMT-0500 (Central Daylight Time),410879.90000000596,A,logenter,O,enter,165,1,982.5999999940395,409897.3000000119,9999,WL,A,9.0
4,14.839999914169312,learn,45160.00008583069,Fri Mar 27 2026 16:17:20 GMT-0500 (Central Daylight Time),411241.5,A,c,O,c,357,1,361.19999998807907,410880.3000000119,9999,WL,A,10.0
4,14.96399998664856,learn,45036.00001335144,Fri Mar 27 2026 16:17:20 GMT-0500 (Central Daylight Time),411365.3000000119,A,ch,O,h,109,1,485.0,410880.3000000119,9999,WL,A,10.0
4,15.728999853134155,learn,44271.000146865845,Fri Mar 27 2026 16:17:20 GMT-0500 (Central Daylight Time),412129.8000000119,A,chi,O,i,745,1,1249.5,410880.3000000119,9999,WL,A,10.0
4,15.944999933242798,learn,44055.0000667572,Fri Mar 27 2026 16:17:20 GMT-0500 (Central Daylight Time),412346.3000000119,A,chim,O,m,196,1,1466.0,410880.3000000119,9999,WL,A,10.0
4,16.09499979019165,learn,43905.00020980835,Fri Mar 27 2026 16:17:20 GMT-0500 (Central Daylight Time),412496.10000002384,A,chimn,O,n,132,1,1615.800000011921,410880.3000000119,9999,WL,A,10.0
4,16.227999925613403,learn,43772.0000743866,Fri Mar 27 2026 16:17:20 GMT-0500 (Central Daylight Time),412629.40000000596,A,chimne,O,e,126,1,1749.0999999940395,410880.3000000119,9999,WL,A,10.0
4,16.32799983024597,learn,43672.00016975403,Fri Mar 27 2026 16:17:20 GMT-0500 (Central Daylight Time),412729.5,A,chimney,O,y,88,1,1849.199999988079,410880.3000000119,9999,WL,A,10.0
4,16.644999980926514,learn,43355.000019073486,Fri Mar 27 2026 16:17:20 GMT-0500 (Central Daylight Time),413045.8000000119,A,chimneyenter,O,enter,309,1,2165.5,410880.3000000119,9999,WL,A,10.0
4,16.944999933242798,learn,43055.0000667572,Fri Mar 27 2026 16:17:20 GMT-0500 (Central Daylight Time),413346.0,A,b,O,b,289,1,299.89999997615814,413046.10000002384,9999,WL,A,11.0
4,17.16100001335144,learn,42838.99998664856,Fri Mar 27 2026 16:17:20 GMT-0500 (Central Daylight Time),413562.5,A,bo,O,o,212,1,516.3999999761581,413046.10000002384,9999,WL,A,11.0
4,17.293999910354614,learn,42706.000089645386,Fri Mar 27 2026 16:17:20 GMT-0500 (Central Daylight Time),413695.40000000596,A,boo,O,o,123,1,649.2999999821186,413046.10000002384,9999,WL,A,11.0
4,17.477999925613403,learn,42522.0000743866,Fri Mar 27 2026 16:17:20 GMT-0500 (Central Daylight Time),413878.7000000179,A,book,O,k,166,1,832.5999999940395,413046.10000002384,9999,WL,A,11.0
4,17.727999925613403,learn,42272.0000743866,Fri Mar 27 2026 16:17:20 GMT-0500 (Central Daylight Time),414128.90000000596,A,bookenter,O,enter,231,1,1082.7999999821186,413046.10000002384,9999,WL,A,11.0
4,18.32799983024597,learn,41672.00016975403,Fri Mar 27 2026 16:17:20 GMT-0500 (Central Daylight Time),414728.90000000596,A,f,O,f,589,1,599.6999999880791,414129.2000000179,9999,WL,A,12.0
4,19.0939998626709,learn,40906.0001373291,Fri Mar 27 2026 16:17:20 GMT-0500 (Central Daylight Time),415495.40000000596,A,fl,O,l,758,1,1366.199999988079,414129.2000000179,9999,WL,A,12.0
4,19.244999885559082,learn,40755.00011444092,Fri Mar 27 2026 16:17:20 GMT-0500 (Central Daylight Time),415646.2000000179,A,flo,O,o,135,1,1517.0,414129.2000000179,9999,WL,A,12.0
4,19.3439998626709,learn,40656.0001373291,Fri Mar 27 2026 16:17:20 GMT-0500 (Central Daylight Time),415745.3000000119,A,flow,O,w,88,1,1616.0999999940395,414129.2000000179,9999,WL,A,12.0
4,19.47699999809265,learn,40523.00000190735,Fri Mar 27 2026 16:17:20 GMT-0500 (Central Daylight Time),415878.40000000596,A,flowe,O,e,117,1,1749.199999988079,414129.2000000179,9999,WL,A,12.0
4,19.643999814987183,learn,40356.00018501282,Fri Mar 27 2026 16:17:20 GMT-0500 (Central Daylight Time),416045.0,A,flower,O,r,159,1,1915.7999999821186,414129.2000000179,9999,WL,A,12.0
4,19.794999837875366,learn,40205.000162124634,Fri Mar 27 2026 16:17:20 GMT-0500 (Central Daylight Time),416196.10000002384,A,flowerenter,O,enter,137,1,2066.9000000059605,414129.2000000179,9999,WL,A,12.0
4,20.209999799728394,learn,39790.00020027161,Fri Mar 27 2026 16:17:20 GMT-0500 (Central Daylight Time),416611.5,A,t,O,t,401,1,415.19999998807907,416196.3000000119,9999,WL,A,13.0
4,20.276999950408936,learn,39723.000049591064,Fri Mar 27 2026 16:17:20 GMT-0500 (Central Daylight Time),416678.3000000119,A,tr,O,r,59,1,482.0,416196.3000000119,9999,WL,A,13.0
4,20.444000005722046,learn,39555.999994277954,Fri Mar 27 2026 16:17:20 GMT-0500 (Central Daylight Time),416845.0,A,tra,O,a,151,1,648.6999999880791,416196.3000000119,9999,WL,A,13.0
4,20.509999990463257,learn,39490.00000953674,Fri Mar 27 2026 16:17:20 GMT-0500 (Central Daylight Time),416911.60000002384,A,trai,O,i,58,1,715.3000000119209,416196.3000000119,9999,WL,A,13.0
4,20.694000005722046,learn,39305.999994277954,Fri Mar 27 2026 16:17:20 GMT-0500 (Central Daylight Time),417094.90000000596,A,train,O,n,175,1,898.5999999940395,416196.3000000119,9999,WL,A,13.0
4,21.042999982833862,learn,38957.00001716614,Fri Mar 27 2026 16:17:20 GMT-0500 (Central Daylight Time),417444.5,A,trainenter,O,enter,343,1,1248.199999988079,416196.3000000119,9999,WL,A,13.0
4,21.47699999809265,learn,38523.00000190735,Fri Mar 27 2026 16:17:20 GMT-0500 (Central Daylight Time),417877.60000002384,A,r,O,r,426,1,432.80000001192093,417444.8000000119,9999,WL,A,14.0
4,21.64299988746643,learn,38357.00011253357,Fri Mar 27 2026 16:17:20 GMT-0500 (Central Daylight Time),418044.5,A,ru,O,u,160,1,599.6999999880791,417444.8000000119,9999,WL,A,14.0
4,21.90999984741211,learn,38090.00015258789,Fri Mar 27 2026 16:17:20 GMT-0500 (Central Daylight Time),418311.40000000596,A,rug,O,g,250,1,866.5999999940395,417444.8000000119,9999,WL,A,14.0
4,22.609999895095825,learn,37390.000104904175,Fri Mar 27 2026 16:17:20 GMT-0500 (Central Daylight Time),419011.0,A,rugenter,O,enter,678,1,1566.199999988079,417444.8000000119,9999,WL,A,14.0
4,23.025999784469604,learn,36974.000215530396,Fri Mar 27 2026 16:17:20 GMT-0500 (Central Daylight Time),419427.5,A,m,O,m,403,1,416.2999999821186,419011.2000000179,9999,WL,A,15.0
4,23.125999927520752,learn,36874.00007247925,Fri Mar 27 2026 16:17:20 GMT-0500 (Central Daylight Time),419527.40000000596,A,me,O,e,83,1,516.1999999880791,419011.2000000179,9999,WL,A,15.0
4,23.30999994277954,learn,36690.00005722046,Fri Mar 27 2026 16:17:20 GMT-0500 (Central Daylight Time),419711.7000000179,A,mea,O,a,167,1,700.5,419011.2000000179,9999,WL,A,15.0
4,23.72599983215332,learn,36274.00016784668,Fri Mar 27 2026 16:17:20 GMT-0500 (Central Daylight Time),420127.2000000179,A,mead,O,d,397,1,1116.0,419011.2000000179,9999,WL,A,15.0
4,23.825999975204468,learn,36174.00002479553,Fri Mar 27 2026 16:17:20 GMT-0500 (Central Daylight Time),420226.90000000596,A,meado,O,o,94,1,1215.699999988079,419011.2000000179,9999,WL,A,15.0
4,23.97599983215332,learn,36024.00016784668,Fri Mar 27 2026 16:17:20 GMT-0500 (Central Daylight Time),420377.0,A,meadow,O,w,132,1,1365.7999999821186,419011.2000000179,9999,WL,A,15.0
4,24.22599983215332,learn,35774.00016784668,Fri Mar 27 2026 16:17:20 GMT-0500 (Central Daylight Time),420626.8000000119,A,meadowenter,O,enter,238,1,1615.5999999940395,419011.2000000179,9999,WL,A,15.0
5,0.5829999446868896,learn,60000.0,Fri Mar 27 2026 16:17:20 GMT-0500 (Central Daylight Time),485673.5,A,h,O,h,564,1,583.2999999821186,485090.2000000179,9999,WL,A,1.0
5,0.7000000476837158,learn,60000.0,Fri Mar 27 2026 16:17:20 GMT-0500 (Central Daylight Time),485789.90000000596,A,ha,O,a,100,1,699.6999999880791,485090.2000000179,9999,WL,A,1.0
5,0.8989999294281006,learn,60000.0,Fri Mar 27 2026 16:17:20 GMT-0500 (Central Daylight Time),485989.8000000119,A,har,O,r,185,1,899.5999999940395,485090.2000000179,9999,WL,A,1.0
5,1.0160000324249268,learn,60000.0,Fri Mar 27 2026 16:17:20 GMT-0500 (Central Daylight Time),486106.40000000596,A,harp,O,p,103,1,1016.1999999880791,485090.2000000179,9999,WL,A,1.0
5,1.4490001201629639,learn,60000.0,Fri Mar 27 2026 16:17:20 GMT-0500 (Central Daylight Time),486539.8000000119,A,harpenter,O,enter,419,1,1449.5999999940395,485090.2000000179,9999,WL,A,1.0
5,1.8320000171661377,learn,60000.0,Fri Mar 27 2026 16:17:20 GMT-0500 (Central Daylight Time),486922.7000000179,A,a,O,a,377,1,382.40000000596046,486540.3000000119,9999,WL,A,2.0
5,2.0829999446868896,learn,60000.0,Fri Mar 27 2026 16:17:20 GMT-0500 (Central Daylight Time),487172.90000000596,A,ap,O,p,235,1,632.5999999940395,486540.3000000119,9999,WL,A,2.0
5,2.2320001125335693,learn,60000.0,Fri Mar 27 2026 16:17:20 GMT-0500 (Central Daylight Time),487322.8000000119,A,app,O,p,129,1,782.5,486540.3000000119,9999,WL,A,2.0
5,2.449000120162964,learn,60000.0,Fri Mar 27 2026 16:17:20 GMT-0500 (Central Daylight Time),487539.5,A,appl,O,l,196,1,999.1999999880791,486540.3000000119,9999,WL,A,2.0
5,2.631999969482422,learn,60000.0,Fri Mar 27 2026 16:17:20 GMT-0500 (Central Daylight Time),487722.8000000119,A,apple,O,e,162,1,1182.5,486540.3000000119,9999,WL,A,2.0
5,2.749000072479248,learn,60000.0,Fri Mar 27 2026 16:17:20 GMT-0500 (Central Daylight Time),487839.3000000119,A,appleenter,O,enter,108,1,1299.0,486540.3000000119,9999,WL,A,2.0
5,3.3320000171661377,learn,60000.0,Fri Mar 27 2026 16:17:20 GMT-0500 (Central Daylight Time),488422.3000000119,A,b,O,b,567,1,582.5999999940395,487839.7000000179,9999,WL,A,3.0
5,3.515000104904175,learn,60000.0,Fri Mar 27 2026 16:17:20 GMT-0500 (Central Daylight Time),488605.8000000119,A,bu,O,u,176,1,766.0999999940395,487839.7000000179,9999,WL,A,3.0
5,3.6480000019073486,learn,60000.0,Fri Mar 27 2026 16:17:20 GMT-0500 (Central Daylight Time),488738.90000000596,A,but,O,t,129,1,899.1999999880791,487839.7000000179,9999,WL,A,3.0
5,3.7820000648498535,learn,60000.0,Fri Mar 27 2026 16:17:20 GMT-0500 (Central Daylight Time),488872.40000000596,A,butt,O,t,116,1,1032.699999988079,487839.7000000179,9999,WL,A,3.0
5,3.865000009536743,learn,60000.0,Fri Mar 27 2026 16:17:20 GMT-0500 (Central Daylight Time),488955.3000000119,A,butto,O,o,78,1,1115.5999999940395,487839.7000000179,9999,WL,A,3.0
5,4.065000057220459,learn,60000.0,Fri Mar 27 2026 16:17:20 GMT-0500 (Central Daylight Time),489155.60000002384,A,button,O,n,186,1,1315.9000000059605,487839.7000000179,9999,WL,A,3.0
5,4.431999921798706,learn,60000.0,Fri Mar 27 2026 16:17:20 GMT-0500 (Central Daylight Time),489522.2000000179,A,buttonenter,O,enter,346,1,1682.5,487839.7000000179,9999,WL,A,3.0
5,4.648000001907349,learn,60000.0,Fri Mar 27 2026 16:17:20 GMT-0500 (Central Daylight Time),489738.60000002384,A,r,O,r,204,1,216.0,489522.60000002384,9999,WL,A,4.0
5,4.832000017166138,learn,60000.0,Fri Mar 27 2026 16:17:20 GMT-0500 (Central Daylight Time),489922.2000000179,A,ra,O,a,172,1,399.59999999403954,489522.60000002384,9999,WL,A,4.0
5,5.049000024795532,learn,60000.0,Fri Mar 27 2026 16:17:20 GMT-0500 (Central Daylight Time),490139.7000000179,A,rat,O,t,203,1,617.0999999940395,489522.60000002384,9999,WL,A,4.0
5,5.164999961853027,learn,60000.0,Fri Mar 27 2026 16:17:20 GMT-0500 (Central Daylight Time),490255.2000000179,A,ratt,O,t,107,1,732.5999999940395,489522.60000002384,9999,WL,A,4.0
5,5.263999938964844,learn,60000.0,Fri Mar 27 2026 16:17:20 GMT-0500 (Central Daylight Time),490354.90000000596,A,rattl,O,l,96,1,832.2999999821186,489522.60000002384,9999,WL,A,4.0
5,5.414999961853027,learn,60000.0,Fri Mar 27 2026 16:17:20 GMT-0500 (Central Daylight Time),490505.10000002384,A,rattle,O,e,131,1,982.5,489522.60000002384,9999,WL,A,4.0
5,5.564000129699707,learn,60000.0,Fri Mar 27 2026 16:17:20 GMT-0500 (Central Daylight Time),490654.8000000119,A,rattleenter,O,enter,133,1,1132.199999988079,489522.60000002384,9999,WL,A,4.0
5,5.930999994277954,learn,60000.0,Fri Mar 27 2026 16:17:20 GMT-0500 (Central Daylight Time),491021.8000000119,A,g,O,g,351,1,366.59999999403954,490655.2000000179,9999,WL,A,5.0
5,6.0309998989105225,learn,60000.0,Fri Mar 27 2026 16:17:20 GMT-0500 (Central Daylight Time),491121.5,A,go,O,o,87,1,466.2999999821186,490655.2000000179,9999,WL,A,5.0
5,6.2149999141693115,learn,60000.0,Fri Mar 27 2026 16:17:20 GMT-0500 (Central Daylight Time),491305.0,A,gol,O,l,173,1,649.7999999821186,490655.2000000179,9999,WL,A,5.0
5,6.314000129699707,learn,60000.0,Fri Mar 27 2026 16:17:20 GMT-0500 (Central Daylight Time),491404.7000000179,A,golf,O,f,94,1,749.5,490655.2000000179,9999,WL,A,5.0
5,6.88100004196167,learn,60000.0,Fri Mar 27 2026 16:17:20 GMT-0500 (Central Daylight Time),491971.10000002384,A,gol,O,backspace,546,1,1315.9000000059605,490655.2000000179,9999,WL,A,5.0
5,7.314000129699707,learn,60000.0,Fri Mar 27 2026 16:17:20 GMT-0500 (Central Daylight Time),492404.40000000596,A,gold,O,d,419,1,1749.199999988079,490655.2000000179,9999,WL,A,5.0
5,7.447000026702881,learn,60000.0,Fri Mar 27 2026 16:17:20 GMT-0500 (Central Daylight Time),492537.8000000119,A,goldenter,O,enter,122,1,1882.5999999940395,490655.2000000179,9999,WL,A,5.0
5,7.897000074386597,learn,60000.0,Fri Mar 27 2026 16:17:20 GMT-0500 (Central Daylight Time),492987.7000000179,A,s,O,s,436,1,449.5,492538.2000000179,9999,WL,A,6.0
5,8.263999938964844,learn,60000.0,Fri Mar 27 2026 16:17:20 GMT-0500 (Central Daylight Time),493354.40000000596,A,sa,O,a,346,1,816.1999999880791,492538.2000000179,9999,WL,A,6.0
5,8.44700002670288,learn,60000.0,Fri Mar 27 2026 16:17:20 GMT-0500 (Central Daylight Time),493537.3000000119,A,sal,O,l,171,1,999.0999999940395,492538.2000000179,9999,WL,A,6.0
5,8.54699993133545,learn,60000.0,Fri Mar 27 2026 16:17:20 GMT-0500 (Central Daylight Time),493637.5,A,salt,O,t,85,1,1099.2999999821186,492538.2000000179,9999,WL,A,6.0
5,9.480000019073486,learn,60000.0,Fri Mar 27 2026 16:17:20 GMT-0500 (Central Daylight Time),494570.8000000119,A,saltenter,O,enter,913,1,2032.5999999940395,492538.2000000179,9999,WL,A,6.0
5,9.77999997138977,learn,60000.0,Fri Mar 27 2026 16:17:20 GMT-0500 (Central Daylight Time),494870.5,A,f,O,f,291,1,299.2999999821186,494571.2000000179,9999,WL,A,7.0
5,9.895999908447266,learn,60000.0,Fri Mar 27 2026 16:17:20 GMT-0500 (Central Daylight Time),494986.8000000119,A,fi,O,i,95,1,415.59999999403954,494571.2000000179,9999,WL,A,7.0
5,10.04699993133545,learn,60000.0,Fri Mar 27 2026 16:17:20 GMT-0500 (Central Daylight Time),495137.3000000119,A,fin,O,n,139,1,566.0999999940395,494571.2000000179,9999,WL,A,7.0
5,10.19700002670288,learn,60000.0,Fri Mar 27 2026 16:17:20 GMT-0500 (Central Daylight Time),495287.0,A,fing,O,g,132,1,715.7999999821186,494571.2000000179,9999,WL,A,7.0
5,10.29699993133545,learn,60000.0,Fri Mar 27 2026 16:17:20 GMT-0500 (Central Daylight Time),495387.2000000179,A,finge,O,e,80,1,816.0,494571.2000000179,9999,WL,A,7.0
5,10.413000106811523,learn,60000.0,Fri Mar 27 2026 16:17:20 GMT-0500 (Central Daylight Time),495503.8000000119,A,finger,O,r,98,1,932.5999999940395,494571.2000000179,9999,WL,A,7.0
5,10.579999923706055,learn,60000.0,Fri Mar 27 2026 16:17:20 GMT-0500 (Central Daylight Time),495669.90000000596,A,fingerenter,O,enter,151,1,1098.699999988079,494571.2000000179,9999,WL,A,7.0
5,11.064000129699707,learn,60000.0,Fri Mar 27 2026 16:17:20 GMT-0500 (Central Daylight Time),496154.5,A,l,O,l,480,1,484.19999998807907,495670.3000000119,9999,WL,A,8.0
5,11.213000059127808,learn,60000.0,Fri Mar 27 2026 16:17:20 GMT-0500 (Central Daylight Time),496303.3000000119,A,lo,O,o,139,1,633.0,495670.3000000119,9999,WL,A,8.0
5,11.378999948501587,learn,60000.0,Fri Mar 27 2026 16:17:20 GMT-0500 (Central Daylight Time),496469.8000000119,A,log,O,g,151,1,799.5,495670.3000000119,9999,WL,A,8.0
5,11.578999996185303,learn,60000.0,Fri Mar 27 2026 16:17:20 GMT-0500 (Central Daylight Time),496669.5,A,logenter,O,enter,184,1,999.1999999880791,495670.3000000119,9999,WL,A,8.0
5,11.763000011444092,learn,60000.0,Fri Mar 27 2026 16:17:20 GMT-0500 (Central Daylight Time),496853.0,A,c,O,c,169,1,183.19999998807907,496669.8000000119,9999,WL,A,9.0
5,11.878999948501587,learn,60000.0,Fri Mar 27 2026 16:17:20 GMT-0500 (Central Daylight Time),496969.8000000119,A,ch,O,h,106,1,300.0,496669.8000000119,9999,WL,A,9.0
5,12.029000043869019,learn,60000.0,Fri Mar 27 2026 16:17:20 GMT-0500 (Central Daylight Time),497119.60000002384,A,chi,O,i,140,1,449.80000001192093,496669.8000000119,9999,WL,A,9.0
5,12.246000051498413,learn,60000.0,Fri Mar 27 2026 16:17:20 GMT-0500 (Central Daylight Time),497336.3000000119,A,chim,O,m,206,1,666.5,496669.8000000119,9999,WL,A,9.0
5,12.395999908447266,learn,60000.0,Fri Mar 27 2026 16:17:20 GMT-0500 (Central Daylight Time),497486.3000000119,A,chimn,O,n,134,1,816.5,496669.8000000119,9999,WL,A,9.0
5,12.562000036239624,learn,60000.0,Fri Mar 27 2026 16:17:20 GMT-0500 (Central Daylight Time),497652.8000000119,A,chimne,O,e,152,1,983.0,496669.8000000119,9999,WL,A,9.0
5,12.678999900817871,learn,60000.0,Fri Mar 27 2026 16:17:20 GMT-0500 (Central Daylight Time),497769.40000000596,A,chimney,O,y,106,1,1099.5999999940395,496669.8000000119,9999,WL,A,9.0
5,13.046000003814697,learn,60000.0,Fri Mar 27 2026 16:17:20 GMT-0500 (Central Daylight Time),498136.10000002384,A,chimneyenter,O,enter,357,1,1466.300000011921,496669.8000000119,9999,WL,A,9.0
5,13.545000076293945,learn,60000.0,Fri Mar 27 2026 16:17:20 GMT-0500 (Central Daylight Time),498635.90000000596,A,b,O,b,494,1,499.40000000596046,498136.5,9999,WL,A,10.0
5,13.961999893188477,learn,60000.0,Fri Mar 27 2026 16:17:20 GMT-0500 (Central Daylight Time),499052.3000000119,A,bo,O,o,411,1,915.8000000119209,498136.5,9999,WL,A,10.0
5,14.128000020980835,learn,60000.0,Fri Mar 27 2026 16:17:20 GMT-0500 (Central Daylight Time),499218.7000000179,A,boo,O,o,161,1,1082.2000000178814,498136.5,9999,WL,A,10.0
5,14.394999980926514,learn,60000.0,Fri Mar 27 2026 16:17:20 GMT-0500 (Central Daylight Time),499485.60000002384,A,book,O,k,251,1,1349.1000000238419,498136.5,9999,WL,A,10.0
5,14.92799997329712,learn,60000.0,Fri Mar 27 2026 16:17:20 GMT-0500 (Central Daylight Time),500018.60000002384,A,bookenter,O,enter,512,1,1882.1000000238419,498136.5,9999,WL,A,10.0
5,17.278000116348267,learn,60000.0,Fri Mar 27 2026 16:17:20 GMT-0500 (Central Daylight Time),502368.0,A,f,O,f,2332,1,2348.899999976158,500019.10000002384,9999,WL,A,11.0
5,17.41100001335144,learn,60000.0,Fri Mar 27 2026 16:17:20 GMT-0500 (Central Daylight Time),502501.40000000596,A,fl,O,l,125,1,2482.2999999821186,500019.10000002384,9999,WL,A,11.0
5,17.543999910354614,learn,60000.0,Fri Mar 27 2026 16:17:20 GMT-0500 (Central Daylight Time),502634.40000000596,A,flo,O,o,128,1,2615.2999999821186,500019.10000002384,9999,WL,A,11.0
5,17.64400005340576,learn,60000.0,Fri Mar 27 2026 16:17:20 GMT-0500 (Central Daylight Time),502734.7000000179,A,flow,O,w,83,1,2715.5999999940395,500019.10000002384,9999,WL,A,11.0
5,17.776999950408936,learn,60000.0,Fri Mar 27 2026 16:17:20 GMT-0500 (Central Daylight Time),502867.90000000596,A,flowe,O,e,120,1,2848.7999999821186,500019.10000002384,9999,WL,A,11.0
5,17.960999965667725,learn,60000.0,Fri Mar 27 2026 16:17:20 GMT-0500 (Central Daylight Time),503051.2000000179,A,flower,O,r,171,1,3032.0999999940395,500019.10000002384,9999,WL,A,11.0
5,18.127000093460083,learn,60000.0,Fri Mar 27 2026 16:17:20 GMT-0500 (Central Daylight Time),503217.8000000119,A,flowerenter,O,enter,155,1,3198.699999988079,500019.10000002384,9999,WL,A,11.0
5,18.561000108718872,learn,60000.0,Fri Mar 27 2026 16:17:20 GMT-0500 (Central Daylight Time),503650.90000000596,A,t,O,t,421,1,432.69999998807907,503218.2000000179,9999,WL,A,12.0
5,18.627000093460083,learn,60000.0,Fri Mar 27 2026 16:17:20 GMT-0500 (Central Daylight Time),503717.40000000596,A,tr,O,r,52,1,499.19999998807907,503218.2000000179,9999,WL,A,12.0
5,18.811000108718872,learn,60000.0,Fri Mar 27 2026 16:17:20 GMT-0500 (Central Daylight Time),503901.10000002384,A,tra,O,a,176,1,682.9000000059605,503218.2000000179,9999,WL,A,12.0
5,18.89400005340576,learn,60000.0,Fri Mar 27 2026 16:17:20 GMT-0500 (Central Daylight Time),503984.2000000179,A,trai,O,i,66,1,766.0,503218.2000000179,9999,WL,A,12.0
5,19.043999910354614,learn,60000.0,Fri Mar 27 2026 16:17:20 GMT-0500 (Central Daylight Time),504134.2000000179,A,train,O,n,141,1,916.0,503218.2000000179,9999,WL,A,12.0
5,19.344000101089478,learn,60000.0,Fri Mar 27 2026 16:17:20 GMT-0500 (Central Daylight Time),504434.7000000179,A,trainenter,O,enter,296,1,1216.5,503218.2000000179,9999,WL,A,12.0
5,19.609999895095825,learn,60000.0,Fri Mar 27 2026 16:17:20 GMT-0500 (Central Daylight Time),504700.60000002384,A,r,O,r,252,1,265.7000000178814,504434.90000000596,9999,WL,A,13.0
5,19.776999950408936,learn,60000.0,Fri Mar 27 2026 16:17:20 GMT-0500 (Central Daylight Time),504867.10000002384,A,ru,O,u,162,1,432.2000000178814,504434.90000000596,9999,WL,A,13.0
5,20.042999982833862,learn,60000.0,Fri Mar 27 2026 16:17:20 GMT-0500 (Central Daylight Time),505133.90000000596,A,rug,O,g,252,1,699.0,504434.90000000596,9999,WL,A,13.0
5,20.289000034332275,learn,60000.0,Fri Mar 27 2026 16:17:20 GMT-0500 (Central Daylight Time),505379.8000000119,A,rugenter,O,enter,241,1,944.9000000059605,504434.90000000596,9999,WL,A,13.0
5,20.743000030517578,learn,60000.0,Fri Mar 27 2026 16:17:20 GMT-0500 (Central Daylight Time),505833.5,A,m,O,m,442,1,453.39999997615814,505380.10000002384,9999,WL,A,14.0
5,20.825999975204468,learn,60000.0,Fri Mar 27 2026 16:17:20 GMT-0500 (Central Daylight Time),505916.90000000596,A,me,O,e,69,1,536.7999999821186,505380.10000002384,9999,WL,A,14.0
5,20.993000030517578,learn,60000.0,Fri Mar 27 2026 16:17:20 GMT-0500 (Central Daylight Time),506083.40000000596,A,mea,O,a,161,1,703.2999999821186,505380.10000002384,9999,WL,A,14.0
5,21.16000008583069,learn,60000.0,Fri Mar 27 2026 16:17:20 GMT-0500 (Central Daylight Time),506250.10000002384,A,mead,O,d,155,1,870.0,505380.10000002384,9999,WL,A,14.0
5,21.443000078201294,learn,60000.0,Fri Mar 27 2026 16:17:20 GMT-0500 (Central Daylight Time),506533.5,A,meadw,O,w,267,1,1153.3999999761581,505380.10000002384,9999,WL,A,14.0
5,21.842999935150146,learn,60000.0,Fri Mar 27 2026 16:17:20 GMT-0500 (Central Daylight Time),506933.40000000596,A,mead,O,backspace,385,1,1553.2999999821186,505380.10000002384,9999,WL,A,14.0
5,22.108999967575073,learn,60000.0,Fri Mar 27 2026 16:17:20 GMT-0500 (Central Daylight Time),507199.7000000179,A,meado,O,o,248,1,1819.5999999940395,505380.10000002384,9999,WL,A,14.0
5,22.193000078201294,learn,60000.0,Fri Mar 27 2026 16:17:20 GMT-0500 (Central Daylight Time),507283.2000000179,A,meadow,O,w,63,1,1903.0999999940395,505380.10000002384,9999,WL,A,14.0
5,23.259000062942505,learn,60000.0,Fri Mar 27 2026 16:17:20 GMT-0500 (Central Daylight Time),508349.40000000596,A,meadowenter,O,enter,1058,1,2969.2999999821186,505380.10000002384,9999,WL,A,14.0
5,24.14199995994568,learn,60000.0,Fri Mar 27 2026 16:17:20 GMT-0500 (Central Daylight Time),509232.2000000179,A,h,O,h,872,1,882.5,508349.7000000179,9999,WL,A,15.0
5,24.27500009536743,learn,60000.0,Fri Mar 27 2026 16:17:20 GMT-0500 (Central Daylight Time),509365.5,A,ha,O,a,116,1,1015.7999999821186,508349.7000000179,9999,WL,A,15.0
5,24.424999952316284,learn,60000.0,Fri Mar 27 2026 16:17:20 GMT-0500 (Central Daylight Time),509515.8000000119,A,har,O,r,135,1,1166.0999999940395,508349.7000000179,9999,WL,A,15.0
5,24.509000062942505,learn,60000.0,Fri Mar 27 2026 16:17:20 GMT-0500 (Central Daylight Time),509599.2000000179,A,harp,O,p,74,1,1249.5,508349.7000000179,9999,WL,A,15.0
5,24.992000102996826,learn,60000.0,Fri Mar 27 2026 16:17:20 GMT-0500 (Central Daylight Time),510082.40000000596,A,harpenter,O,enter,462,1,1732.699999988079,508349.7000000179,9999,WL,A,15.0
6,0.9460000991821289,distr,59053.99990081787,Fri Mar 27 2026 16:17:20 GMT-0500 (Central Daylight Time),576142.2000000179,B,b,O,b,802,1,945.8000000119209,575196.400000006,9999,WL,A,1.0
6,0.9520001411437988,distr,59047.9998588562,Fri Mar 27 2026 16:17:20 GMT-0500 (Central Daylight Time),576148.7000000179,B,bo,O,o,1,1,952.3000000119209,575196.400000006,9999,WL,A,1.0
6,1.0940001010894775,distr,58905.99989891052,Fri Mar 27 2026 16:17:20 GMT-0500 (Central Daylight Time),576290.5,B,bot,O,t,128,1,1094.0999999940395,575196.400000006,9999,WL,A,1.0
6,1.2160000801086426,distr,58783.99991989136,Fri Mar 27 2026 16:17:20 GMT-0500 (Central Daylight Time),576412.400000006,B,bott,O,t,100,1,1216.0,575196.400000006,9999,WL,A,1.0
6,1.3480000495910645,distr,58651.999950408936,Fri Mar 27 2026 16:17:20 GMT-0500 (Central Daylight Time),576544.900000006,B,bottl,O,l,110,1,1348.5,575196.400000006,9999,WL,A,1.0
6,1.4650001525878906,distr,58534.99984741211,Fri Mar 27 2026 16:17:20 GMT-0500 (Central Daylight Time),576661.3000000119,B,bottle,O,e,101,1,1464.9000000059605,575196.400000006,9999,WL,A,1.0
6,1.8310000896453857,distr,58168.999910354614,Fri Mar 27 2026 16:17:20 GMT-0500 (Central Daylight Time),577028.0,B,bottleenter,O,enter,353,1,1831.5999999940395,575196.400000006,9999,WL,A,1.0
6,2.2150001525878906,distr,57784.99984741211,Fri Mar 27 2026 16:17:20 GMT-0500 (Central Daylight Time),577411.3000000119,B,p,O,p,363,1,383.09999999403954,577028.2000000179,9999,WL,A,2.0
6,2.2980000972747803,distr,57701.99990272522,Fri Mar 27 2026 16:17:20 GMT-0500 (Central Daylight Time),577494.6000000238,B,pe,O,e,74,1,466.40000000596046,577028.2000000179,9999,WL,A,2.0
6,2.498000144958496,distr,57501.999855041504,Fri Mar 27 2026 16:17:20 GMT-0500 (Central Daylight Time),577694.3000000119,B,pea,O,a,183,1,666.0999999940395,577028.2000000179,9999,WL,A,2.0
6,2.614000082015991,distr,57385.99991798401,Fri Mar 27 2026 16:17:20 GMT-0500 (Central Daylight Time),577810.900000006,B,peac,O,c,105,1,782.6999999880791,577028.2000000179,9999,WL,A,2.0
6,2.7150001525878906,distr,57284.99984741211,Fri Mar 27 2026 16:17:20 GMT-0500 (Central Daylight Time),577911.1000000238,B,peach,O,h,91,1,882.9000000059605,577028.2000000179,9999,WL,A,2.0
6,3.364000082015991,distr,56635.99991798401,Fri Mar 27 2026 16:17:20 GMT-0500 (Central Daylight Time),578560.8000000119,B,peachenter,O,enter,639,1,1532.5999999940395,577028.2000000179,9999,WL,A,2.0
6,3.8470001220703125,distr,56152.99987792969,Fri Mar 27 2026 16:17:20 GMT-0500 (Central Daylight Time),579044.0,B,c,O,c,477,1,482.7999999821186,578561.2000000179,9999,WL,A,3.0
6,3.9639999866485596,distr,56036.00001335144,Fri Mar 27 2026 16:17:20 GMT-0500 (Central Daylight Time),579160.6000000238,B,ch,O,h,106,1,599.4000000059605,578561.2000000179,9999,WL,A,3.0
6,4.047000169754028,distr,55952.99983024597,Fri Mar 27 2026 16:17:20 GMT-0500 (Central Daylight Time),579243.8000000119,B,cha,O,a,78,1,682.5999999940395,578561.2000000179,9999,WL,A,3.0
6,4.14900016784668,distr,55850.99983215332,Fri Mar 27 2026 16:17:20 GMT-0500 (Central Daylight Time),579345.0,B,chai,O,i,91,1,783.7999999821186,578561.2000000179,9999,WL,A,3.0
6,4.281000137329102,distr,55718.9998626709,Fri Mar 27 2026 16:17:20 GMT-0500 (Central Daylight Time),579477.3000000119,B,chair,O,r,118,1,916.0999999940395,578561.2000000179,9999,WL,A,3.0
6,4.498000144958496,distr,55501.999855041504,Fri Mar 27 2026 16:17:20 GMT-0500 (Central Daylight Time),579694.8000000119,B,chairenter,O,enter,201,1,1133.5999999940395,578561.2000000179,9999,WL,A,3.0
6,5.680000066757202,distr,54319.9999332428,Fri Mar 27 2026 16:17:20 GMT-0500 (Central Daylight Time),580876.7000000179,B,c,O,c,1167,1,1181.5999999940395,579695.1000000238,9999,WL,A,4.0
6,5.7799999713897705,distr,54220.00002861023,Fri Mar 27 2026 16:17:20 GMT-0500 (Central Daylight Time),580976.6000000238,B,co,O,o,89,1,1281.5,579695.1000000238,9999,WL,A,4.0
6,5.930000066757202,distr,54069.9999332428,Fri Mar 27 2026 16:17:20 GMT-0500 (Central Daylight Time),581126.6000000238,B,cou,O,u,143,1,1431.5,579695.1000000238,9999,WL,A,4.0
6,6.0970001220703125,distr,53902.99987792969,Fri Mar 27 2026 16:17:20 GMT-0500 (Central Daylight Time),581293.400000006,B,coun,O,n,160,1,1598.2999999821186,579695.1000000238,9999,WL,A,4.0
6,6.21399998664856,distr,53786.00001335144,Fri Mar 27 2026 16:17:20 GMT-0500 (Central Daylight Time),581410.2000000179,B,count,O,t,105,1,1715.0999999940395,579695.1000000238,9999,WL,A,4.0
6,6.330000162124634,distr,53669.999837875366,Fri Mar 27 2026 16:17:20 GMT-0500 (Central Daylight Time),581526.7000000179,B,county,O,y,100,1,1831.5999999940395,579695.1000000238,9999,WL,A,4.0
6,7.646000146865845,distr,52353.999853134155,Fri Mar 27 2026 16:17:20 GMT-0500 (Central Daylight Time),582842.900000006,B,countyenter,O,enter,1296,1,3147.7999999821186,579695.1000000238,9999,WL,A,4.0
6,8.913000106811523,distr,51086.99989318848,Fri Mar 27 2026 16:17:20 GMT-0500 (Central Daylight Time),584109.1000000238,B,g,O,g,1259,1,1265.9000000059605,582843.2000000179,9999,WL,A,5.0
6,8.996000051498413,distr,51003.99994850159,Fri Mar 27 2026 16:17:20 GMT-0500 (Central Daylight Time),584192.400000006,B,gr,O,r,74,1,1349.199999988079,582843.2000000179,9999,WL,A,5.0
6,9.146000146865845,distr,50853.999853134155,Fri Mar 27 2026 16:17:20 GMT-0500 (Central Daylight Time),584342.5,B,gra,O,a,142,1,1499.2999999821186,582843.2000000179,9999,WL,A,5.0
6,9.229000091552734,distr,50770.999908447266,Fri Mar 27 2026 16:17:20 GMT-0500 (Central Daylight Time),584425.6000000238,B,gran,O,n,63,1,1582.4000000059605,582843.2000000179,9999,WL,A,5.0
6,9.328999996185303,distr,50671.0000038147,Fri Mar 27 2026 16:17:20 GMT-0500 (Central Daylight Time),584525.6000000238,B,grant,O,t,92,1,1682.4000000059605,582843.2000000179,9999,WL,A,5.0
6,9.529000043869019,distr,50470.99995613098,Fri Mar 27 2026 16:17:20 GMT-0500 (Central Daylight Time),584725.7000000179,B,grantenter,O,enter,192,1,1882.5,582843.2000000179,9999,WL,A,5.0
6,12.728000164031982,distr,47271.99983596802,Fri Mar 27 2026 16:17:20 GMT-0500 (Central Daylight Time),587924.8000000119,B,b,O,b,3192,1,3198.800000011921,584726.0,9999,WL,A,6.0
6,12.91100001335144,distr,47088.99998664856,Fri Mar 27 2026 16:17:20 GMT-0500 (Central Daylight Time),588107.900000006,B,bo,O,o,169,1,3381.9000000059605,584726.0,9999,WL,A,6.0
6,13.028000116348267,distr,46971.99988365173,Fri Mar 27 2026 16:17:20 GMT-0500 (Central Daylight Time),588224.6000000238,B,bow,O,w,98,1,3498.600000023842,584726.0,9999,WL,A,6.0
6,13.144999980926514,distr,46855.000019073486,Fri Mar 27 2026 16:17:20 GMT-0500 (Central Daylight Time),588341.2000000179,B,bowl,O,l,101,1,3615.2000000178814,584726.0,9999,WL,A,6.0
6,13.396000146865845,distr,46603.999853134155,Fri Mar 27 2026 16:17:20 GMT-0500 (Central Daylight Time),588592.2000000179,B,bowlenter,O,enter,233,1,3866.2000000178814,584726.0,9999,WL,A,6.0
6,13.67799997329712,distr,46322.00002670288,Fri Mar 27 2026 16:17:20 GMT-0500 (Central Daylight Time),588874.3000000119,B,m,O,m,269,1,281.80000001192093,588592.5,9999,WL,A,7.0
6,13.778000116348267,distr,46221.99988365173,Fri Mar 27 2026 16:17:20 GMT-0500 (Central Daylight Time),588974.1000000238,B,me,O,e,92,1,381.60000002384186,588592.5,9999,WL,A,7.0
6,13.92900013923645,distr,46070.99986076355,Fri Mar 27 2026 16:17:20 GMT-0500 (Central Daylight Time),589125.2000000179,B,mea,O,a,145,1,532.7000000178814,588592.5,9999,WL,A,7.0
6,14.061000108718872,distr,45938.99989128113,Fri Mar 27 2026 16:17:20 GMT-0500 (Central Daylight Time),589257.3000000119,B,mead,O,d,120,1,664.8000000119209,588592.5,9999,WL,A,7.0
6,14.16100001335144,distr,45838.99998664856,Fri Mar 27 2026 16:17:20 GMT-0500 (Central Daylight Time),589357.6000000238,B,meado,O,o,85,1,765.1000000238419,588592.5,9999,WL,A,7.0
6,14.311000108718872,distr,45688.99989128113,Fri Mar 27 2026 16:17:20 GMT-0500 (Central Daylight Time),589507.7000000179,B,meadow,O,w,129,1,915.2000000178814,588592.5,9999,WL,A,7.0
6,14.427000045776367,distr,45572.99995422363,Fri Mar 27 2026 16:17:20 GMT-0500 (Central Daylight Time),589623.8000000119,B,meadowenter,O,enter,107,1,1031.300000011921,588592.5,9999,WL,A,7.0
6,58.230000019073486,distr,1769.9999809265137,Fri Mar 27 2026 16:17:20 GMT-0500 (Central Daylight Time),633427.0,B,enter,O,enter,43791,1,43802.69999998808,589624.3000000119,9999,WL,A,8.0
6,58.41300010681152,distr,1586.9998931884766,Fri Mar 27 2026 16:17:20 GMT-0500 (Central Daylight Time),633610.1000000238,B,enter,O,enter,162,1,182.60000002384186,633427.5,9999,WL,A,9.0
6,58.56400012969971,distr,1435.999870300293,Fri Mar 27 2026 16:17:20 GMT-0500 (Central Daylight Time),633760.3000000119,B,enter,O,enter,140,1,149.80000001192093,633610.5,9999,WL,A,10.0
6,58.76400017738342,distr,1235.9998226165771,Fri Mar 27 2026 16:17:20 GMT-0500 (Central Daylight Time),633960.2000000179,B,enter,O,enter,182,1,199.40000000596046,633760.8000000119,9999,WL,A,11.0
6,58.88000011444092,distr,1119.999885559082,Fri Mar 27 2026 16:17:20 GMT-0500 (Central Daylight Time),634076.900000006,B,enter,O,enter,110,1,116.40000000596046,633960.5,9999,WL,A,12.0
6,59.04700016975403,distr,952.9998302459717,Fri Mar 27 2026 16:17:20 GMT-0500 (Central Daylight Time),634243.3000000119,B,enter,O,enter,162,1,166.09999999403954,634077.2000000179,9999,WL,A,13.0
6,59.19700002670288,distr,802.9999732971191,Fri Mar 27 2026 16:17:20 GMT-0500 (Central Daylight Time),634393.400000006,B,enter,O,enter,139,1,149.90000000596046,634243.5,9999,WL,A,14.0
6,59.36300015449524,distr,636.9998455047607,Fri Mar 27 2026 16:17:20 GMT-0500 (Central Daylight Time),634560.1000000238,B,enter,O,enter,157,1,166.40000000596046,634393.7000000179,9999,WL,A,15.0
7,8.38100004196167,immed,51618.99995803833,Fri Mar 27 2026 16:17:20 GMT-0500 (Central Daylight Time),644323.400000006,A,enter,O,enter,8376,1,8380.09999999404,635943.3000000119,9999,WL,A,1.0
7,8.564000129699707,immed,51435.99987030029,Fri Mar 27 2026 16:17:20 GMT-0500 (Central Daylight Time),644507.0,A,enter,O,enter,170,1,182.7999999821186,644324.2000000179,9999,WL,A,2.0
7,8.730999946594238,immed,51269.00005340576,Fri Mar 27 2026 16:17:20 GMT-0500 (Central Daylight Time),644673.6000000238,A,enter,O,enter,147,1,166.30000001192093,644507.3000000119,9999,WL,A,3.0
7,8.88100004196167,immed,51118.99995803833,Fri Mar 27 2026 16:17:20 GMT-0500 (Central Daylight Time),644823.400000006,A,enter,O,enter,133,1,149.5,644673.900000006,9999,WL,A,4.0
7,9.015000104904175,immed,50984.999895095825,Fri Mar 27 2026 16:17:20 GMT-0500 (Central Daylight Time),644957.8000000119,A,enter,O,enter,127,1,134.09999999403954,644823.7000000179,9999,WL,A,5.0
7,9.180999994277954,immed,50819.000005722046,Fri Mar 27 2026 16:17:20 GMT-0500 (Central Daylight Time),645123.2000000179,A,enter,O,enter,145,1,165.2000000178814,644958.0,9999,WL,A,6.0
7,9.332000017166138,immed,50667.99998283386,Fri Mar 27 2026 16:17:20 GMT-0500 (Central Daylight Time),645274.400000006,A,enter,O,enter,130,1,150.7999999821186,645123.6000000238,9999,WL,A,7.0
7,9.44700002670288,immed,50552.99997329712,Fri Mar 27 2026 16:17:20 GMT-0500 (Central Daylight Time),645390.0,A,enter,O,enter,107,1,115.19999998807907,645274.8000000119,9999,WL,A,8.0
7,9.647000074386597,immed,50352.9999256134,Fri Mar 27 2026 16:17:20 GMT-0500 (Central Daylight Time),645589.900000006,A,enter,O,enter,192,1,199.5,645390.400000006,9999,WL,A,9.0
7,9.94700002670288,immed,50052.99997329712,Fri Mar 27 2026 16:17:20 GMT-0500 (Central Daylight Time),645889.8000000119,A,enter,O,enter,289,1,299.59999999403954,645590.2000000179,9999,WL,A,10.0
7,10.13100004196167,immed,49868.99995803833,Fri Mar 27 2026 16:17:20 GMT-0500 (Central Daylight Time),646073.3000000119,A,enter,O,enter,164,1,183.09999999403954,645890.2000000179,9999,WL,A,11.0
7,10.329999923706055,immed,49670.000076293945,Fri Mar 27 2026 16:17:20 GMT-0500 (Central Daylight Time),646273.0,A,enter,O,enter,189,1,199.39999997615814,646073.6000000238,9999,WL,A,12.0
7,10.579999923706055,immed,49420.000076293945,Fri Mar 27 2026 16:17:20 GMT-0500 (Central Daylight Time),646523.0,A,enter,O,enter,245,1,249.69999998807907,646273.3000000119,9999,WL,A,13.0
7,10.908999919891357,immed,49091.00008010864,Fri Mar 27 2026 16:17:20 GMT-0500 (Central Daylight Time),646851.8000000119,A,enter,O,enter,325,1,328.5,646523.3000000119,9999,WL,A,14.0
7,11.066999912261963,immed,48933.00008773804,Fri Mar 27 2026 16:17:20 GMT-0500 (Central Daylight Time),647010.1000000238,A,enter,O,enter,154,1,158.0,646852.1000000238,9999,WL,A,15.0
