acc_sum,block,block_c,condition,correct,correct_response,datetime,endtime,flanker,jitter,project,response,response_test_buffer_response,response_test_target_response,response_time,response_time_test_buffer_response,response_time_test_target_response,row_sel,session_number,start_end,starttime,subject_id,target,task,task_vers,time_test_buffer,time_test_buffer_response,time_test_constants,time_test_flanker,time_test_jitter,time_test_logger,time_test_target,time_test_target_response,time_test_variables,trial
1,prac,1,inc,1,m,Wed Sep 03 2025 10:13:34 GMT-0500 (Central Daylight Time),107221.5,plum,1100,I,m,,,533,,,16,1,2926.60000000149,104294.89999999851,7216,lead,NF,C,,,,,,,,,,1
2,prac,1,inc,1,z,Wed Sep 03 2025 10:13:34 GMT-0500 (Central Daylight Time),110153.70000000298,cobalt,1100,I,z,,,520,,,4,1,2925.7000000029802,107228.0,7216,raisin,NF,C,,,,,,,,,,2
3,prac,1,inc,1,z,Wed Sep 03 2025 10:13:34 GMT-0500 (Central Daylight Time),113102.80000000447,lead,1100,I,z,,,548,,,8,1,2944.0,110158.80000000447,7216,plum,NF,C,,,,,,,,,,3
4,prac,1,con,1,z,Wed Sep 03 2025 10:13:34 GMT-0500 (Central Daylight Time),115918.70000000298,orange,1000,I,z,,,507,,,3,1,2811.3000000044703,113107.39999999851,7216,orange,NF,C,,,,,,,,,,4
4,prac,1,con,0,z,Wed Sep 03 2025 10:13:34 GMT-0500 (Central Daylight Time),118784.5,kiwi,1000,I,m,,,554,,,7,1,2860.89999999851,115923.60000000149,7216,kiwi,NF,C,,,,,,,,,,5
5,prac,1,con,1,m,Wed Sep 03 2025 10:13:34 GMT-0500 (Central Daylight Time),121533.5,silver,1000,I,m,,,449,,,11,1,2744.10000000149,118789.39999999851,7216,silver,NF,C,,,,,,,,,,6
6,prac,1,inc,1,z,Wed Sep 03 2025 10:13:34 GMT-0500 (Central Daylight Time),124315.89999999851,iron,900,I,z,,,568,,,6,1,2778.1999999955297,121537.70000000298,7216,pear,NF,C,,,,,,,,,,7
7,prac,1,con,1,m,Wed Sep 03 2025 10:13:34 GMT-0500 (Central Daylight Time),127181.70000000298,gold,800,I,m,,,766,,,13,1,2861.8000000044703,124319.89999999851,7216,gold,NF,C,,,,,,,,,,8
8,prac,1,inc,1,m,Wed Sep 03 2025 10:13:34 GMT-0500 (Central Daylight Time),129981.10000000149,cherry,900,I,m,,,584,,,10,1,2795.2999999970198,127185.80000000447,7216,copper,NF,C,,,,,,,,,,9
9,prac,1,con,1,z,Wed Sep 03 2025 10:13:34 GMT-0500 (Central Daylight Time),132663.20000000298,lime,800,I,z,,,580,,,5,1,2671.10000000149,129992.10000000149,7216,lime,NF,C,,,,,,,,,,10
9,prac,1,inc,0,m,Wed Sep 03 2025 10:13:34 GMT-0500 (Central Daylight Time),135429.20000000298,pear,900,I,z,,,551,,,14,1,2761.10000000149,132668.1000000015,7216,iron,NF,C,,,,,,,,,,11
10,prac,1,con,1,m,Wed Sep 03 2025 10:13:34 GMT-0500 (Central Daylight Time),138378.0,zinc,1000,I,m,,,645,,,15,1,2944.1999999955297,135433.80000000447,7216,zinc,NF,C,,,,,,,,,,12
11,prac,1,con,1,m,Wed Sep 03 2025 10:13:34 GMT-0500 (Central Daylight Time),140844.1000000015,bronze,800,I,m,,,360,,,9,1,2461.0,138383.1000000015,7216,bronze,NF,C,,,,,,,,,,13
12,prac,1,inc,1,m,Wed Sep 03 2025 10:13:34 GMT-0500 (Central Daylight Time),143809.80000000447,raisin,1100,I,m,,,554,,,12,1,2961.9000000059605,140847.8999999985,7216,cobalt,NF,C,,,,,,,,,,14
13,prac,1,inc,1,z,Wed Sep 03 2025 10:13:34 GMT-0500 (Central Daylight Time),146592.3999999985,copper,900,I,z,,,572,,,2,1,2778.0,143814.3999999985,7216,cherry,NF,C,,,,,,,,,,15
14,prac,1,con,1,z,Wed Sep 03 2025 10:13:34 GMT-0500 (Central Daylight Time),149174.70000000298,banana,800,I,z,,,474,,,1,1,2578.10000000149,146596.6000000015,7216,banana,NF,C,,,,,,,,,,16
1,test,1,con,1,m,Wed Sep 03 2025 10:13:34 GMT-0500 (Central Daylight Time),165586.20000000298,gold,1100,I,m,m,None,621,421.0,200.0,100,1,2262.5,163323.70000000298,7216,gold,NF,C,162977,162977,161147,162260,161147,163409,162776,162776,163409,1
2,test,1,con,1,z,Wed Sep 03 2025 10:13:34 GMT-0500 (Central Daylight Time),167785.5,cherry,1100,I,z,z,None,564,364.0,200.0,12,1,2194.5,165591.0,7216,cherry,NF,C,165242,165242,163414,164526,163414,165609,165042,165042,165609,2
3,test,1,inc,1,z,Wed Sep 03 2025 10:13:34 GMT-0500 (Central Daylight Time),169934.8999999985,gold,800,I,z,z,None,807,608.0,199.0,61,1,2143.5,167791.3999999985,7216,plum,NF,C,167142,167142,165614,166425,165615,167758,166942,166942,167758,3
4,test,1,con,1,z,Wed Sep 03 2025 10:13:34 GMT-0500 (Central Daylight Time),172034.1000000015,cherry,1000,I,z,z,None,554,354.0,200.0,11,1,2094.7000000029802,169939.3999999985,7216,cherry,NF,C,169492,169492,167762,168774,167763,169857,169291,169291,169857,4
5,test,1,con,1,m,Wed Sep 03 2025 10:13:34 GMT-0500 (Central Daylight Time),173966.80000000447,cobalt,1000,I,m,m,None,395,147.0,248.0,91,1,1927.7000000029802,172039.1000000015,7216,cobalt,NF,C,171638,171638,169862,170874,169863,171790,171390,171390,171790,5
5,test,1,inc,0,z,Wed Sep 03 2025 10:13:34 GMT-0500 (Central Daylight Time),176016.20000000298,lead,1100,I,m,m,None,422,223.0,199.0,64,1,2045.1000000014901,173971.1000000015,7216,plum,NF,C,173607,173607,171794,172906,171797,173839,173407,173407,173839,6
6,test,1,con,1,m,Wed Sep 03 2025 10:13:34 GMT-0500 (Central Daylight Time),178033.1000000015,iron,1100,I,m,m,None,382,182.0,200.0,108,1,2012.7000000029802,176020.3999999985,7216,iron,NF,C,175672,175672,173843,174956,173844,175856,175472,175472,175856,7
7,test,1,con,1,z,Wed Sep 03 2025 10:13:34 GMT-0500 (Central Daylight Time),179864.8999999985,lime,900,I,z,z,None,398,198.0,200.0,34,1,1827.6999999955297,178037.20000000298,7216,lime,NF,C,177488,177488,175860,176772,175860,177688,177288,177288,177688,8
8,test,1,inc,1,m,Wed Sep 03 2025 10:13:34 GMT-0500 (Central Daylight Time),181814.3999999985,cherry,900,I,m,m,None,499,300.0,199.0,78,1,1945.5,179868.8999999985,7216,copper,NF,C,179321,179322,177692,178605,177692,179637,179122,179122,179637,9
9,test,1,inc,1,z,Wed Sep 03 2025 10:13:34 GMT-0500 (Central Daylight Time),184063.80000000447,lead,1100,I,z,z,None,616,416.0,200.0,56,1,2245.60000000149,181818.20000000298,7216,kiwi,NF,C,181470,181470,179641,180754,179642,181887,181270,181270,181887,10
10,test,1,inc,1,m,Wed Sep 03 2025 10:13:34 GMT-0500 (Central Daylight Time),185929.8999999985,cherry,900,I,m,m,None,422,222.0,200.0,94,1,1860.6999999955297,184069.20000000298,7216,cobalt,NF,C,183520,183520,181892,182804,181893,183753,183320,183320,183753,11
11,test,1,inc,1,z,Wed Sep 03 2025 10:13:34 GMT-0500 (Central Daylight Time),187979.20000000298,silver,1000,I,z,z,None,512,312.0,200.0,15,1,2040.1000000014901,185939.1000000015,7216,cherry,NF,C,185486,185486,183762,184769,183763,185802,185286,185286,185802,12
12,test,1,con,1,m,Wed Sep 03 2025 10:13:34 GMT-0500 (Central Daylight Time),189995.1000000015,copper,900,I,m,m,None,579,379.0,200.0,74,1,2012.0,187983.1000000015,7216,copper,NF,C,187435,187435,185806,186719,185806,187818,187235,187235,187818,13
13,test,1,con,1,m,Wed Sep 03 2025 10:13:34 GMT-0500 (Central Daylight Time),191911.3999999985,iron,1000,I,m,m,None,367,168.0,199.0,107,1,1912.5,189998.8999999985,7216,iron,NF,C,189551,189551,187822,188835,187822,189734,189352,189352,189734,14
14,test,1,inc,1,z,Wed Sep 03 2025 10:13:34 GMT-0500 (Central Daylight Time),193710.70000000298,bronze,800,I,z,z,None,459,259.0,200.0,13,1,1795.2000000029802,191915.5,7216,cherry,NF,C,191267,191267,189739,190552,189739,191534,191067,191067,191534,15
15,test,1,con,1,z,Wed Sep 03 2025 10:13:34 GMT-0500 (Central Daylight Time),195710.20000000298,orange,1000,I,z,z,None,451,251.0,200.0,19,1,1995.1000000014901,193715.1000000015,7216,orange,NF,C,193267,193267,191538,192550,191538,193533,193067,193067,193533,16
16,test,1,con,1,z,Wed Sep 03 2025 10:13:34 GMT-0500 (Central Daylight Time),197976.30000000447,kiwi,1100,I,z,z,None,567,365.0,202.0,52,1,2261.7000000029802,195714.6000000015,7216,kiwi,NF,C,195433,195433,193538,194650,193538,195799,195230,195230,195799,17
17,test,1,inc,1,z,Wed Sep 03 2025 10:13:34 GMT-0500 (Central Daylight Time),200092.0,bronze,800,I,z,z,None,778,578.0,200.0,21,1,2109.0,197983.0,7216,orange,NF,C,197332,197332,195806,196616,195806,197915,197132,197132,197915,18
18,test,1,con,1,m,Wed Sep 03 2025 10:13:34 GMT-0500 (Central Daylight Time),202107.8999999985,iron,800,I,m,m,None,678,478.0,200.0,105,1,2011.3999999985099,200096.5,7216,iron,NF,C,199448,199448,197920,198732,197920,199931,199248,199248,199931,19
19,test,1,con,1,z,Wed Sep 03 2025 10:13:34 GMT-0500 (Central Daylight Time),204273.70000000298,pear,900,I,z,z,None,722,522.0,200.0,42,1,2158.39999999851,202115.30000000447,7216,pear,NF,C,201564,201564,199938,200848,199939,202097,201364,201364,202097,20
20,test,1,inc,1,m,Wed Sep 03 2025 10:13:34 GMT-0500 (Central Daylight Time),206373.3999999985,plum,1100,I,m,m,None,460,260.0,200.0,112,1,2093.2999999970198,204280.1000000015,7216,iron,NF,C,203930,203930,202103,203213,202104,204196,203730,203730,204196,21
21,test,1,con,1,m,Wed Sep 03 2025 10:13:34 GMT-0500 (Central Daylight Time),208722.6000000015,lead,1100,I,m,m,None,713,513.0,200.0,124,1,2341.2000000029802,206381.3999999985,7216,lead,NF,C,206029,206029,204204,205313,204205,206546,205829,205829,206546,22
22,test,1,con,1,z,Wed Sep 03 2025 10:13:34 GMT-0500 (Central Daylight Time),210455.6000000015,kiwi,800,I,z,z,None,398,199.0,199.0,49,1,1728.0,208727.6000000015,7216,kiwi,NF,C,208079,208079,206551,207362,206551,208279,207879,207879,208279,23
23,test,1,con,1,z,Wed Sep 03 2025 10:13:34 GMT-0500 (Central Daylight Time),212221.3999999985,pear,800,I,z,z,None,427,227.0,200.0,41,1,1757.5999999940395,210463.80000000447,7216,pear,NF,C,209811,209811,208287,209095,208287,210044,209611,209611,210044,24
24,test,1,con,1,m,Wed Sep 03 2025 10:13:34 GMT-0500 (Central Daylight Time),214154.20000000298,silver,1000,I,m,m,None,395,196.0,199.0,83,1,1928.8999999985099,212225.30000000447,7216,silver,NF,C,211778,211778,210048,211061,210049,211977,211578,211578,211977,25
25,test,1,inc,1,z,Wed Sep 03 2025 10:13:34 GMT-0500 (Central Daylight Time),216286.80000000447,lead,1100,I,z,z,None,492,292.0,200.0,48,1,2128.7000000029802,214158.1000000015,7216,pear,NF,C,213810,213810,211981,213094,211981,214110,213610,213610,214110,26
26,test,1,con,1,m,Wed Sep 03 2025 10:13:34 GMT-0500 (Central Daylight Time),218352.8999999985,bronze,1100,I,m,m,None,431,231.0,200.0,68,1,2062.2999999970198,216290.6000000015,7216,bronze,NF,C,215943,215943,214114,215227,214114,216176,215743,215743,216176,27
27,test,1,inc,1,z,Wed Sep 03 2025 10:13:34 GMT-0500 (Central Daylight Time),220552.1000000015,lead,1100,I,z,z,None,564,365.0,199.0,40,1,2195.60000000149,218356.5,7216,lime,NF,C,218009,218009,216180,217292,216180,218375,217810,217810,218375,28
27,test,1,inc,0,z,Wed Sep 03 2025 10:13:34 GMT-0500 (Central Daylight Time),222468.20000000298,iron,900,I,m,m,None,478,278.0,200.0,62,1,1912.3999999985099,220555.80000000447,7216,plum,NF,C,220008,220008,218379,219292,218379,220291,219808,219808,220291,29
28,test,1,inc,1,m,Wed Sep 03 2025 10:13:34 GMT-0500 (Central Daylight Time),224434.3999999985,lime,800,I,m,m,None,629,429.0,200.0,101,1,1962.5,222471.8999999985,7216,gold,NF,C,221825,221825,220295,221108,220295,222257,221624,221624,222257,30
29,test,1,con,1,m,Wed Sep 03 2025 10:13:34 GMT-0500 (Central Daylight Time),226434.0,bronze,1000,I,m,m,None,456,256.0,200.0,67,1,1995.8999999985099,224438.1000000015,7216,bronze,NF,C,223990,223990,222261,223274,222261,224257,223790,223790,224257,31
30,test,1,inc,1,z,Wed Sep 03 2025 10:13:34 GMT-0500 (Central Daylight Time),228316.30000000447,copper,900,I,z,z,None,436,236.0,200.0,14,1,1876.0,226440.30000000447,7216,cherry,NF,C,225890,225890,224263,225173,224264,226139,225689,225689,226139,32
30,test,1,inc,0,m,Wed Sep 03 2025 10:13:34 GMT-0500 (Central Daylight Time),230115.80000000447,banana,800,I,z,z,None,454,253.0,201.0,69,1,1795.0,228320.80000000447,7216,bronze,NF,C,227673,227673,226144,226956,226144,227939,227472,227472,227939,33
31,test,1,inc,1,m,Wed Sep 03 2025 10:13:34 GMT-0500 (Central Daylight Time),232248.3999999985,kiwi,1000,I,m,m,None,598,398.0,200.0,103,1,2128.89999999851,230119.5,7216,gold,NF,C,229672,229672,227942,228955,227943,230071,229472,229472,230071,34
32,test,1,con,1,m,Wed Sep 03 2025 10:13:34 GMT-0500 (Central Daylight Time),234464.30000000447,cobalt,1100,I,m,m,None,580,381.0,199.0,92,1,2211.4000000059605,232252.8999999985,7216,cobalt,NF,C,231905,231905,230076,231188,230076,232287,231705,231705,232287,35
33,test,1,con,1,m,Wed Sep 03 2025 10:13:34 GMT-0500 (Central Daylight Time),236663.80000000447,silver,1100,I,m,m,None,556,357.0,199.0,84,1,2195.8000000044703,234468.0,7216,silver,NF,C,234121,234121,232291,233404,232291,234487,233921,233921,234487,36
34,test,1,con,1,z,Wed Sep 03 2025 10:13:34 GMT-0500 (Central Daylight Time),238696.3999999985,plum,1000,I,z,z,None,498,298.0,200.0,59,1,2028.8999999985099,236667.5,7216,plum,NF,C,236220,236220,234491,235504,234491,236520,236020,236020,236519,37
35,test,1,con,1,m,Wed Sep 03 2025 10:13:34 GMT-0500 (Central Daylight Time),240729.20000000298,copper,1000,I,m,m,None,490,290.0,200.0,75,1,2029.2000000029802,238700.0,7216,copper,NF,C,238252,238252,236523,237536,236523,238552,238052,238052,238552,38
36,test,1,inc,1,m,Wed Sep 03 2025 10:13:34 GMT-0500 (Central Daylight Time),242695.30000000447,banana,800,I,m,m,None,633,433.0,200.0,93,1,1962.4000000059605,240732.8999999985,7216,cobalt,NF,C,240085,240085,238556,239369,238556,240518,239885,239885,240518,39
37,test,1,inc,1,m,Wed Sep 03 2025 10:13:34 GMT-0500 (Central Daylight Time),244961.3999999985,plum,1100,I,m,m,None,622,393.0,229.0,128,1,2261.6999999955297,242699.70000000298,7216,lead,NF,C,242381,242381,240523,241635,240523,242785,242152,242152,242784,40
38,test,1,inc,1,m,Wed Sep 03 2025 10:13:34 GMT-0500 (Central Daylight Time),247043.70000000298,banana,800,I,m,m,None,745,545.0,200.0,85,1,2073.3000000044703,244970.3999999985,7216,silver,NF,C,244317,244317,242793,243601,242794,244867,244117,244117,244867,41
39,test,1,inc,1,z,Wed Sep 03 2025 10:13:34 GMT-0500 (Central Daylight Time),248959.8999999985,copper,900,I,z,z,None,482,282.0,200.0,22,1,1912.2999999970198,247047.6000000015,7216,orange,NF,C,246500,246500,244871,245783,244871,246783,246300,246300,246783,42
40,test,1,con,1,z,Wed Sep 03 2025 10:13:34 GMT-0500 (Central Daylight Time),250992.6000000015,cherry,800,I,z,z,None,690,490.0,200.0,9,1,2029.0,248963.6000000015,7216,cherry,NF,C,248316,248316,246787,247600,246787,248816,248116,248116,248816,43
41,test,1,inc,1,m,Wed Sep 03 2025 10:13:34 GMT-0500 (Central Daylight Time),253208.70000000298,raisin,1100,I,m,m,None,580,365.0,215.0,88,1,2211.89999999851,250996.80000000447,7216,silver,NF,C,250665,250665,248820,249932,248820,251032,250450,250450,251032,44
42,test,1,inc,1,m,Wed Sep 03 2025 10:13:34 GMT-0500 (Central Daylight Time),255474.5,cherry,900,I,m,m,None,837,638.0,199.0,86,1,2259.5,253215.0,7216,silver,NF,C,252648,252648,251038,251948,251038,253298,252449,252449,253297,45
43,test,1,con,1,m,Wed Sep 03 2025 10:13:34 GMT-0500 (Central Daylight Time),257223.8999999985,gold,800,I,m,m,None,414,215.0,199.0,97,1,1745.5999999940395,255478.30000000447,7216,gold,NF,C,254831,254831,253301,254114,253302,255047,254631,254631,255047,46
44,test,1,con,1,z,Wed Sep 03 2025 10:13:34 GMT-0500 (Central Daylight Time),259073.30000000447,orange,900,I,z,z,None,414,214.0,200.0,18,1,1845.6000000014901,257227.70000000298,7216,orange,NF,C,256680,256680,255051,255963,255051,256896,256480,256480,256896,47
45,test,1,con,1,z,Wed Sep 03 2025 10:13:34 GMT-0500 (Central Daylight Time),261106.0,lime,1000,I,z,z,None,496,297.0,199.0,35,1,2029.1999999955297,259076.80000000447,7216,lime,NF,C,258629,258629,256900,257913,256900,258929,258430,258430,258929,48
46,test,1,inc,1,z,Wed Sep 03 2025 10:13:34 GMT-0500 (Central Daylight Time),263188.6000000015,iron,900,I,z,z,None,644,444.0,200.0,54,1,2079.10000000149,261109.5,7216,kiwi,NF,C,260562,260562,258933,259846,258933,261012,260362,260362,261012,49
47,test,1,con,1,m,Wed Sep 03 2025 10:13:34 GMT-0500 (Central Daylight Time),264938.200000003,zinc,800,I,m,m,None,413,212.0,201.0,113,1,1746.1000000014901,263192.1000000015,7216,zinc,NF,C,262546,262546,261015,261828,261015,262761,262345,262345,262761,50
48,test,1,con,1,m,Wed Sep 03 2025 10:13:34 GMT-0500 (Central Daylight Time),266704.1000000015,silver,800,I,m,m,None,432,232.0,200.0,81,1,1762.1000000014901,264942.0,7216,silver,NF,C,264294,264294,262765,263578,262765,264527,264094,264094,264527,51
49,test,1,inc,1,z,Wed Sep 03 2025 10:13:34 GMT-0500 (Central Daylight Time),268720.700000003,iron,900,I,z,z,None,570,365.0,205.0,46,1,2012.8000000044703,266707.8999999985,7216,pear,NF,C,266177,266177,264531,265444,264531,266544,265972,265972,266544,52
49,test,1,inc,0,z,Wed Sep 03 2025 10:13:34 GMT-0500 (Central Daylight Time),270569.80000000447,gold,800,I,m,m,None,506,306.0,200.0,53,1,1845.1000000014901,268724.700000003,7216,kiwi,NF,C,268076,268076,266548,267360,266548,268393,267876,267876,268393,53
50,test,1,inc,1,m,Wed Sep 03 2025 10:13:34 GMT-0500 (Central Daylight Time),272618.8999999985,lime,800,I,m,m,None,712,512.0,200.0,125,1,2044.7999999970198,270574.1000000015,7216,lead,NF,C,269926,269926,268397,269209,268397,270442,269726,269726,270442,54
51,test,1,con,1,z,Wed Sep 03 2025 10:13:34 GMT-0500 (Central Daylight Time),274751.700000003,pear,1100,I,z,z,None,491,291.0,200.0,44,1,2128.3000000044703,272623.3999999985,7216,pear,NF,C,272275,272275,270446,271559,270447,272575,272075,272075,272575,55
52,test,1,con,1,z,Wed Sep 03 2025 10:13:34 GMT-0500 (Central Daylight Time),277001.0,lime,1100,I,z,z,None,605,406.0,199.0,36,1,2243.2999999970198,274757.700000003,7216,lime,NF,C,274408,274408,272581,273691,272581,274824,274208,274208,274824,56
53,test,1,con,1,m,Wed Sep 03 2025 10:13:34 GMT-0500 (Central Daylight Time),278917.0,copper,800,I,m,m,None,569,369.0,200.0,73,1,1912.1999999955297,277004.80000000447,7216,copper,NF,C,276357,276357,274828,275641,274828,276740,276157,276157,276740,57
54,test,1,inc,1,z,Wed Sep 03 2025 10:13:34 GMT-0500 (Central Daylight Time),280916.3999999985,zinc,1000,I,z,z,None,453,253.0,200.0,47,1,1994.5999999940395,278921.80000000447,7216,pear,NF,C,278473,278473,276745,277757,276745,278739,278273,278273,278739,58
55,test,1,con,1,m,Wed Sep 03 2025 10:13:34 GMT-0500 (Central Daylight Time),282849.30000000447,cobalt,900,I,m,m,None,488,289.0,199.0,90,1,1929.0,280920.30000000447,7216,cobalt,NF,C,280373,280373,278743,279656,278744,280672,280173,280173,280672,59
56,test,1,con,1,z,Wed Sep 03 2025 10:13:34 GMT-0500 (Central Daylight Time),284948.5,pear,1000,I,z,z,None,553,353.0,200.0,43,1,2095.2999999970198,282853.200000003,7216,pear,NF,C,282405,282405,280676,281689,280676,282772,282205,282205,282772,60
57,test,1,con,1,z,Wed Sep 03 2025 10:13:34 GMT-0500 (Central Daylight Time),286847.700000003,plum,900,I,z,z,None,464,265.0,199.0,58,1,1894.3999999985099,284953.30000000447,7216,plum,NF,C,284405,284405,282776,283688,282777,284671,284205,284205,284671,61
57,test,1,inc,0,z,Wed Sep 03 2025 10:13:34 GMT-0500 (Central Daylight Time),288697.200000003,copper,900,I,m,m,None,406,206.0,200.0,6,1,1845.3999999985099,286851.80000000447,7216,banana,NF,C,286304,286304,284675,285588,284675,286520,286104,286104,286520,62
58,test,1,con,1,m,Wed Sep 03 2025 10:13:34 GMT-0500 (Central Daylight Time),290796.6000000015,lead,1000,I,m,m,None,561,360.0,201.0,123,1,2093.89999999851,288702.700000003,7216,lead,NF,C,288254,288254,286526,287537,286526,288620,288053,288053,288620,63
59,test,1,con,1,z,Wed Sep 03 2025 10:13:34 GMT-0500 (Central Daylight Time),292896.0,cherry,900,I,z,z,None,590,389.0,201.0,10,1,2095.1999999955297,290800.80000000447,7216,cherry,NF,C,290320,290321,288624,289609,288624,290719,290119,290119,290719,64
60,test,1,con,1,m,Wed Sep 03 2025 10:13:34 GMT-0500 (Central Daylight Time),294678.700000003,cobalt,800,I,m,m,None,442,242.0,200.0,89,1,1778.1000000014901,292900.6000000015,7216,cobalt,NF,C,292252,292252,290724,291536,290724,292502,292052,292052,292502,65
61,test,1,con,1,z,Wed Sep 03 2025 10:13:34 GMT-0500 (Central Daylight Time),296644.80000000447,raisin,1000,I,z,z,None,418,219.0,199.0,27,1,1962.3000000044703,294682.5,7216,raisin,NF,C,294235,294235,292506,293518,292506,294468,294035,294035,294468,66
62,test,1,inc,1,z,Wed Sep 03 2025 10:13:34 GMT-0500 (Central Daylight Time),298727.5,silver,1000,I,z,z,None,549,349.0,200.0,23,1,2079.2999999970198,296648.200000003,7216,orange,NF,C,296201,296201,294471,295485,294472,296551,296001,296001,296551,67
63,test,1,inc,1,m,Wed Sep 03 2025 10:13:34 GMT-0500 (Central Daylight Time),300760.1000000015,kiwi,1000,I,m,m,None,497,298.0,199.0,111,1,2029.0,298731.1000000015,7216,iron,NF,C,298283,298284,296554,297567,296554,298583,298084,298084,298583,68
64,test,1,inc,1,m,Wed Sep 03 2025 10:13:34 GMT-0500 (Central Daylight Time),302676.200000003,lime,800,I,m,m,None,570,370.0,200.0,109,1,1912.5,300763.700000003,7216,iron,NF,C,300116,300116,298587,299400,298587,300499,299916,299916,300499,69
65,test,1,inc,1,m,Wed Sep 03 2025 10:13:34 GMT-0500 (Central Daylight Time),304925.5,orange,1000,I,m,m,None,702,502.0,200.0,87,1,2245.7999999970198,302679.700000003,7216,silver,NF,C,302232,302232,300503,301516,300503,302749,302032,302032,302749,70
66,test,1,con,1,z,Wed Sep 03 2025 10:13:34 GMT-0500 (Central Daylight Time),306975.200000003,kiwi,1000,I,z,z,None,507,308.0,199.0,51,1,2046.3000000044703,304928.8999999985,7216,kiwi,NF,C,304482,304482,302752,303765,302752,304798,304282,304282,304798,71
67,test,1,inc,1,z,Wed Sep 03 2025 10:13:34 GMT-0500 (Central Daylight Time),309440.700000003,cobalt,1100,I,z,z,None,822,623.0,199.0,16,1,2458.7000000029802,306982.0,7216,cherry,NF,C,306631,306631,304805,305914,304805,307264,306432,306432,307264,72
68,test,1,inc,1,m,Wed Sep 03 2025 10:13:34 GMT-0500 (Central Daylight Time),311407.0,pear,900,I,m,m,None,533,333.0,200.0,102,1,1962.6999999955297,309444.30000000447,7216,gold,NF,C,308897,308897,307267,308181,307268,309230,308697,308697,309230,73
69,test,1,con,1,z,Wed Sep 03 2025 10:13:34 GMT-0500 (Central Daylight Time),313389.3999999985,orange,800,I,z,z,None,635,435.0,200.0,17,1,1978.5999999940395,311410.80000000447,7216,orange,NF,C,310763,310763,309234,310046,309234,311212,310563,310563,311212,74
70,test,1,con,1,z,Wed Sep 03 2025 10:13:34 GMT-0500 (Central Daylight Time),315388.8999999985,raisin,900,I,z,z,None,560,361.0,199.0,26,1,1996.0999999940395,313392.80000000447,7216,raisin,NF,C,312845,312846,311216,312129,311216,313212,312646,312646,313212,75
71,test,1,inc,1,m,Wed Sep 03 2025 10:13:34 GMT-0500 (Central Daylight Time),317521.3999999985,raisin,1100,I,m,m,None,497,297.0,200.0,96,1,2128.5,315392.8999999985,7216,cobalt,NF,C,315045,315045,313216,314329,313216,315344,314845,314845,315344,76
72,test,1,inc,1,m,Wed Sep 03 2025 10:13:34 GMT-0500 (Central Daylight Time),319587.5,banana,800,I,m,m,None,720,521.0,199.0,77,1,2061.89999999851,317525.6000000015,7216,copper,NF,C,316877,316877,315349,316161,315349,317411,316678,316678,317410,77
73,test,1,con,1,m,Wed Sep 03 2025 10:13:34 GMT-0500 (Central Daylight Time),321487.1000000015,gold,900,I,m,m,None,465,266.0,199.0,98,1,1890.5,319596.6000000015,7216,gold,NF,C,319044,319044,317420,318327,317420,319310,318844,318844,319310,78
74,test,1,con,1,z,Wed Sep 03 2025 10:13:34 GMT-0500 (Central Daylight Time),323586.1000000015,raisin,1100,I,z,z,None,463,263.0,200.0,28,1,2091.7000000029802,321494.3999999985,7216,raisin,NF,C,321143,321143,319317,320426,319318,321409,320943,320943,321409,79
75,test,1,inc,1,z,Wed Sep 03 2025 10:13:34 GMT-0500 (Central Daylight Time),325752.1000000015,cobalt,1100,I,z,z,None,524,324.0,200.0,8,1,2161.10000000149,323591.0,7216,banana,NF,C,323242,323242,321414,322526,321414,323575,323042,323042,323575,80
76,test,1,con,1,m,Wed Sep 03 2025 10:13:34 GMT-0500 (Central Daylight Time),327918.200000003,copper,1100,I,m,m,None,525,325.0,200.0,76,1,2162.3000000044703,325755.8999999985,7216,copper,NF,C,325409,325409,323579,324692,323579,325741,325208,325208,325741,81
77,test,1,inc,1,z,Wed Sep 03 2025 10:13:34 GMT-0500 (Central Daylight Time),329967.5,silver,1000,I,z,z,None,507,308.0,199.0,7,1,2044.8999999985099,327922.6000000015,7216,banana,NF,C,327474,327474,325746,326758,325746,327791,327275,327275,327791,82
78,test,1,inc,1,z,Wed Sep 03 2025 10:13:34 GMT-0500 (Central Daylight Time),332066.8999999985,iron,900,I,z,z,None,653,454.0,199.0,38,1,2095.39999999851,329971.5,7216,lime,NF,C,329424,329424,327795,328707,327795,329890,329224,329224,329890,83
79,test,1,inc,1,m,Wed Sep 03 2025 10:13:34 GMT-0500 (Central Daylight Time),334049.6000000015,pear,900,I,m,m,None,539,339.0,200.0,126,1,1975.2999999970198,332074.30000000447,7216,lead,NF,C,331523,331523,329897,330807,329898,331873,331323,331323,331873,84
80,test,1,inc,1,m,Wed Sep 03 2025 10:13:34 GMT-0500 (Central Daylight Time),336265.700000003,plum,1100,I,m,m,None,579,380.0,199.0,120,1,2211.39999999851,334054.30000000447,7216,zinc,NF,C,333706,333706,331877,332989,331878,334089,333506,333506,334089,85
81,test,1,con,1,z,Wed Sep 03 2025 10:13:34 GMT-0500 (Central Daylight Time),338382.0,orange,1100,I,z,z,None,476,277.0,199.0,20,1,2111.89999999851,336270.1000000015,7216,orange,NF,C,335922,335922,334093,335205,334093,336205,335722,335722,336205,86
82,test,1,inc,1,m,Wed Sep 03 2025 10:13:34 GMT-0500 (Central Daylight Time),340331.3999999985,pear,900,I,m,m,None,511,312.0,199.0,118,1,1945.0999999940395,338386.30000000447,7216,zinc,NF,C,337838,337838,336209,337121,336210,338154,337638,337638,338154,87
83,test,1,con,1,z,Wed Sep 03 2025 10:13:34 GMT-0500 (Central Daylight Time),342130.3999999985,banana,900,I,z,z,None,355,155.0,200.0,2,1,1795.2999999970198,340335.1000000015,7216,banana,NF,C,339787,339787,338158,339071,338158,339953,339587,339587,339953,88
84,test,1,inc,1,m,Wed Sep 03 2025 10:13:34 GMT-0500 (Central Daylight Time),344497.1000000015,raisin,1100,I,m,m,None,724,524.0,200.0,80,1,2362.60000000149,342134.5,7216,copper,NF,C,341786,341786,339958,341070,339958,342320,341586,341586,342320,89
85,test,1,con,1,z,Wed Sep 03 2025 10:13:34 GMT-0500 (Central Daylight Time),346679.0,plum,800,I,z,z,None,842,642.0,200.0,57,1,2178.2999999970198,344500.700000003,7216,plum,NF,C,343853,343853,342324,343136,342324,344502,343652,343652,344502,90
86,test,1,inc,1,z,Wed Sep 03 2025 10:13:34 GMT-0500 (Central Daylight Time),348878.30000000447,silver,1000,I,z,z,None,659,459.0,200.0,31,1,2195.5,346682.80000000447,7216,raisin,NF,C,346235,346235,344506,345519,344506,346701,346035,346035,346701,91
87,test,1,inc,1,z,Wed Sep 03 2025 10:13:34 GMT-0500 (Central Daylight Time),350744.30000000447,gold,800,I,z,z,None,531,332.0,199.0,45,1,1861.6000000014901,348882.700000003,7216,pear,NF,C,348234,348234,346706,347518,346706,348567,348034,348035,348567,92
88,test,1,inc,1,m,Wed Sep 03 2025 10:13:34 GMT-0500 (Central Daylight Time),352693.8999999985,cherry,900,I,m,m,None,509,310.0,199.0,70,1,1945.7999999970198,350748.1000000015,7216,bronze,NF,C,350200,350200,348571,349484,348571,350517,350000,350001,350517,93
89,test,1,con,1,m,Wed Sep 03 2025 10:13:34 GMT-0500 (Central Daylight Time),354809.700000003,lead,800,I,m,m,None,780,580.0,200.0,121,1,2111.89999999851,352697.80000000447,7216,lead,NF,C,352050,352050,350521,351333,350521,352633,351850,351850,352633,94
90,test,1,inc,1,m,Wed Sep 03 2025 10:13:34 GMT-0500 (Central Daylight Time),356842.5,lime,800,I,m,m,None,688,488.0,200.0,117,1,2029.1000000014901,354813.3999999985,7216,zinc,NF,C,354166,354166,352636,353449,352637,354666,353966,353966,354665,95
91,test,1,inc,1,z,Wed Sep 03 2025 10:13:34 GMT-0500 (Central Daylight Time),358908.3999999985,cobalt,1100,I,z,z,None,426,227.0,199.0,24,1,2062.2999999970198,356846.1000000015,7216,orange,NF,C,356499,356499,354669,355782,354669,356732,356299,356299,356731,96
91,test,1,inc,0,m,Wed Sep 03 2025 10:13:34 GMT-0500 (Central Daylight Time),361141.200000003,plum,1100,I,z,z,None,586,386.0,200.0,104,1,2229.60000000149,358911.6000000015,7216,gold,NF,C,358564,358564,356735,357848,356735,358964,358364,358364,358964,97
92,test,1,inc,1,z,Wed Sep 03 2025 10:13:34 GMT-0500 (Central Daylight Time),363423.6000000015,zinc,1000,I,z,z,None,675,466.0,209.0,63,1,2277.39999999851,361146.200000003,7216,plum,NF,C,360780,360780,358969,359981,358969,361247,360571,360571,361247,98
93,test,1,inc,1,m,Wed Sep 03 2025 10:13:34 GMT-0500 (Central Daylight Time),365423.1000000015,orange,1000,I,m,m,None,458,258.0,200.0,79,1,1995.3999999985099,363427.700000003,7216,copper,NF,C,362980,362980,361251,362264,361251,363246,362780,362780,363246,99
94,test,1,con,1,z,Wed Sep 03 2025 10:13:34 GMT-0500 (Central Daylight Time),367705.6000000015,plum,1100,I,z,z,None,647,447.0,200.0,60,1,2278.89999999851,365426.700000003,7216,plum,NF,C,365079,365079,363250,364363,363250,365529,364879,364879,365529,100
95,test,1,inc,1,z,Wed Sep 03 2025 10:13:34 GMT-0500 (Central Daylight Time),369855.200000003,zinc,1000,I,z,z,None,599,400.0,199.0,55,1,2145.7000000029802,367709.5,7216,kiwi,NF,C,367262,367262,365533,366545,365533,367678,367062,367062,367678,101
96,test,1,con,1,m,Wed Sep 03 2025 10:13:34 GMT-0500 (Central Daylight Time),371754.3999999985,iron,900,I,m,m,None,463,262.0,201.0,106,1,1894.1999999955297,369860.200000003,7216,iron,NF,C,369312,369312,367683,368595,367684,369578,369111,369111,369577,102
97,test,1,inc,1,m,Wed Sep 03 2025 10:13:34 GMT-0500 (Central Daylight Time),373953.700000003,kiwi,1000,I,m,m,None,655,455.0,200.0,127,1,2195.39999999851,371758.30000000447,7216,lead,NF,C,371311,371311,369581,370594,369582,371777,371110,371110,371777,103
98,test,1,con,1,m,Wed Sep 03 2025 10:13:34 GMT-0500 (Central Daylight Time),375953.0,lead,900,I,m,m,None,564,364.0,200.0,122,1,1993.7999999970198,373959.200000003,7216,lead,NF,C,373410,373410,371782,372693,371782,373776,373210,373210,373776,104
99,test,1,inc,1,m,Wed Sep 03 2025 10:13:34 GMT-0500 (Central Daylight Time),378252.3999999985,raisin,1100,I,m,m,None,661,461.0,200.0,72,1,2295.89999999851,375956.5,7216,bronze,NF,C,375609,375609,373780,374893,373780,376075,375409,375409,376075,105
100,test,1,inc,1,z,Wed Sep 03 2025 10:13:34 GMT-0500 (Central Daylight Time),380385.30000000447,cobalt,1100,I,z,z,None,497,297.0,200.0,32,1,2129.5,378255.80000000447,7216,raisin,NF,C,377909,377909,376079,377192,376079,378208,377708,377708,378208,106
101,test,1,con,1,z,Wed Sep 03 2025 10:13:34 GMT-0500 (Central Daylight Time),382534.30000000447,banana,1000,I,z,z,None,609,409.0,200.0,3,1,2143.9000000059605,380390.3999999985,7216,banana,NF,C,379941,379941,378213,379224,378214,380357,379741,379741,380357,107
102,test,1,con,1,z,Wed Sep 03 2025 10:13:34 GMT-0500 (Central Daylight Time),384517.30000000447,kiwi,900,I,z,z,None,536,336.0,200.0,50,1,1978.8000000044703,382538.5,7216,kiwi,NF,C,381990,381990,380362,381274,380362,382340,381790,381790,382340,108
103,test,1,con,1,z,Wed Sep 03 2025 10:13:34 GMT-0500 (Central Daylight Time),386417.6000000015,banana,800,I,z,z,None,551,273.0,278.0,1,1,1891.8999999985099,384525.700000003,7216,banana,NF,C,383952,383952,382349,383157,382349,384241,383673,383673,384241,109
104,test,1,con,1,m,Wed Sep 03 2025 10:13:34 GMT-0500 (Central Daylight Time),388382.6000000015,silver,900,I,m,m,None,516,317.0,199.0,82,1,1961.2000000029802,386421.3999999985,7216,silver,NF,C,385873,385873,384244,385156,384245,386206,385673,385673,386206,110
105,test,1,inc,1,m,Wed Sep 03 2025 10:13:34 GMT-0500 (Central Daylight Time),390382.30000000447,pear,900,I,m,m,None,551,352.0,199.0,110,1,1995.6000000014901,388386.700000003,7216,iron,NF,C,387839,387839,386210,387122,386210,388205,387639,387639,388205,111
106,test,1,con,1,m,Wed Sep 03 2025 10:13:34 GMT-0500 (Central Daylight Time),392147.80000000447,bronze,800,I,m,m,None,428,228.0,200.0,65,1,1756.7000000029802,390391.1000000015,7216,bronze,NF,C,389738,389738,388214,389022,388214,389971,389538,389538,389971,112
107,test,1,con,1,z,Wed Sep 03 2025 10:13:34 GMT-0500 (Central Daylight Time),394330.700000003,banana,1100,I,z,z,None,546,346.0,200.0,4,1,2179.5,392151.200000003,7216,banana,NF,C,391804,391804,389974,391088,389974,392154,391604,391604,392154,113
108,test,1,inc,1,z,Wed Sep 03 2025 10:13:34 GMT-0500 (Central Daylight Time),396763.30000000447,gold,800,I,z,z,None,1087,887.0,200.0,37,1,2428.60000000149,394334.700000003,7216,lime,NF,C,393687,393687,392158,392970,392158,394586,393487,393487,394586,114
109,test,1,con,1,m,Wed Sep 03 2025 10:13:34 GMT-0500 (Central Daylight Time),398779.30000000447,zinc,900,I,m,m,None,579,379.0,200.0,114,1,2012.0,396767.30000000447,7216,zinc,NF,C,396219,396219,394590,395503,394591,396602,396019,396019,396602,115
110,test,1,inc,1,z,Wed Sep 03 2025 10:13:34 GMT-0500 (Central Daylight Time),400745.30000000447,copper,900,I,z,z,None,531,331.0,200.0,30,1,1962.2000000029802,398783.1000000015,7216,raisin,NF,C,398235,398235,396606,397519,396606,398568,398035,398035,398568,116
111,test,1,inc,1,z,Wed Sep 03 2025 10:13:34 GMT-0500 (Central Daylight Time),402744.5,bronze,800,I,z,z,None,657,457.0,200.0,5,1,1995.7999999970198,400748.700000003,7216,banana,NF,C,400101,400101,398572,399385,398572,400568,399901,399901,400568,117
112,test,1,con,1,m,Wed Sep 03 2025 10:13:34 GMT-0500 (Central Daylight Time),404710.6000000015,zinc,1000,I,m,m,None,416,217.0,199.0,115,1,1962.7000000029802,402747.8999999985,7216,zinc,NF,C,402301,402301,400571,401584,400571,402534,402101,402101,402534,118
113,test,1,inc,1,m,Wed Sep 03 2025 10:13:34 GMT-0500 (Central Daylight Time),406776.6000000015,orange,1000,I,m,m,None,531,331.0,200.0,71,1,2061.0,404715.6000000015,7216,bronze,NF,C,404267,404267,402539,403550,402539,404600,404067,404067,404600,119
114,test,1,inc,1,m,Wed Sep 03 2025 10:13:34 GMT-0500 (Central Daylight Time),408876.0,orange,1000,I,m,m,None,553,353.0,200.0,95,1,2095.6999999955297,406780.30000000447,7216,cobalt,NF,C,406333,406333,404603,405616,404604,406699,406133,406133,406699,120
115,test,1,con,1,z,Wed Sep 03 2025 10:13:34 GMT-0500 (Central Daylight Time),410675.3999999985,raisin,800,I,z,z,None,462,262.0,200.0,25,1,1795.2999999970198,408880.1000000015,7216,raisin,NF,C,408232,408232,406703,407528,406703,408498,408032,408032,408498,121
116,test,1,inc,1,z,Wed Sep 03 2025 10:13:34 GMT-0500 (Central Daylight Time),413091.30000000447,zinc,1000,I,z,z,None,877,678.0,199.0,39,1,2412.0,410679.30000000447,7216,lime,NF,C,410232,410232,408502,409515,408503,410914,410032,410032,410914,122
116,test,1,con,0,m,Wed Sep 03 2025 10:13:34 GMT-0500 (Central Daylight Time),415190.5,gold,1000,I,z,z,None,557,358.0,199.0,99,1,2095.7999999970198,413094.700000003,7216,gold,NF,C,412648,412648,410918,411931,410918,413014,412448,412448,413014,123
117,test,1,con,1,m,Wed Sep 03 2025 10:13:34 GMT-0500 (Central Daylight Time),417373.3999999985,bronze,900,I,m,m,None,734,535.0,199.0,66,1,2179.5999999940395,415193.80000000447,7216,bronze,NF,C,414647,414647,413017,413930,413017,415196,414447,414447,415196,124
118,test,1,inc,1,z,Wed Sep 03 2025 10:13:34 GMT-0500 (Central Daylight Time),419439.30000000447,bronze,800,I,z,z,None,715,516.0,199.0,29,1,2061.0,417378.30000000447,7216,raisin,NF,C,416730,416730,415201,416013,415202,417262,416530,416530,417262,125
119,test,1,con,1,z,Wed Sep 03 2025 10:13:34 GMT-0500 (Central Daylight Time),421438.700000003,lime,800,I,z,z,None,658,458.0,200.0,33,1,1996.0,419442.700000003,7216,lime,NF,C,418796,418796,417266,418079,417266,419262,418595,418595,419262,126
120,test,1,inc,1,m,Wed Sep 03 2025 10:13:34 GMT-0500 (Central Daylight Time),423505.200000003,kiwi,1000,I,m,m,None,531,331.0,200.0,119,1,2063.0,421442.200000003,7216,zinc,NF,C,420995,420995,419265,420279,419265,421328,420795,420795,421328,127
121,test,1,con,1,m,Wed Sep 03 2025 10:13:34 GMT-0500 (Central Daylight Time),425737.30000000447,zinc,1100,I,m,m,None,597,397.0,200.0,116,1,2223.4000000059605,423513.8999999985,7216,zinc,NF,C,423161,423161,421337,422444,421337,423560,422961,422961,423560,128
