Q,Q1,Q2,Q3,Q4,acc_sum,block,block_c,correct,correct_response,datetime,endtime,project,response,response_time,row_sel,session_number,squiggle1,squiggle1x,squiggle1y,squiggle2,squiggle2x,squiggle2y,squiggle3,squiggle3x,squiggle3y,squiggle4,squiggle4x,squiggle4y,start_end,starttime,subject_id,target_congruent,task,task_vers,testsquiggle,testsquigglex,testsquiggley,time_practice_delay,time_practice_fixation,time_practice_stimuli,time_practice_study,time_test_delay,time_test_fixation,time_test_stimuli,time_test_study,trial
1,1,0,0,0,1,prac,1,1,z,Wed Dec 03 2025 16:53:50 GMT-0600 (Central Standard Time),158170.29999998212,O,z,1933,1,1,16.bmp,-120,-120,17.bmp,120,-120,18.bmp,-120,120,19.bmp,120,120,10759.299999982119,147411.0,7250,yes,SM,B,16.bmp,-120,-120,151160,145132,153178,147145,,,,,1
3,0,0,1,0,1,prac,1,0,m,Wed Dec 03 2025 16:53:50 GMT-0600 (Central Standard Time),168267.59999999404,O,z,1277,2,1,20.bmp,-120,-120,21.bmp,120,-120,22.bmp,-120,120,23.bmp,120,120,10093.800000011921,158173.79999998212,7250,no,SM,B,23.bmp,-120,120,161923,155895,163938,157908,,,,,2
4,0,0,0,1,1,prac,1,0,m,Wed Dec 03 2025 16:53:50 GMT-0600 (Central Standard Time),179064.19999998808,O,z,1973,3,1,24.bmp,-120,-120,25.bmp,120,-120,26.bmp,-120,120,27.bmp,120,120,10792.199999988079,168272.0,7250,no,SM,B,24.bmp,120,120,172019,165993,174034,168005,,,,,3
2,0,1,0,0,1,prac,1,0,z,Wed Dec 03 2025 16:53:50 GMT-0600 (Central Standard Time),189626.09999999404,O,m,1735,4,1,28.bmp,-120,-120,29.bmp,120,-120,30.bmp,-120,120,31.bmp,120,120,10555.199999988079,179070.90000000596,7250,yes,SM,B,29.bmp,120,-120,182816,176792,184832,178801,,,,,4
3,0,0,1,0,2,prac,1,1,z,Wed Dec 03 2025 16:53:50 GMT-0600 (Central Standard Time),199989.59999999404,O,z,1534,5,1,32.bmp,-120,-120,33.bmp,120,-120,34.bmp,-120,120,35.bmp,120,120,10357.90000000596,189631.69999998808,7250,yes,SM,B,34.bmp,-120,120,193380,187353,195396,189364,,,,,5
1,1,0,0,0,2,prac,1,0,m,Wed Dec 03 2025 16:53:50 GMT-0600 (Central Standard Time),210502.90000000596,O,z,1696,6,1,36.bmp,-120,-120,37.bmp,120,-120,38.bmp,-120,120,39.bmp,120,120,10507.600000023842,199995.29999998212,7250,no,SM,B,39.bmp,-120,-120,203742,197717,205759,199728,,,,,6
2,0,1,0,0,3,prac,1,1,m,Wed Dec 03 2025 16:53:50 GMT-0600 (Central Standard Time),220715.59999999404,O,m,1383,7,1,40.bmp,-120,-120,41.bmp,120,-120,42.bmp,-120,120,43.bmp,120,120,10206.800000011921,210508.79999998212,7250,no,SM,B,40.bmp,120,-120,214254,208230,216272,210240,,,,,7
4,0,0,0,1,4,prac,1,1,z,Wed Dec 03 2025 16:53:50 GMT-0600 (Central Standard Time),231497.69999998808,O,z,1978,8,1,44.bmp,-120,-120,45.bmp,120,-120,46.bmp,-120,120,47.bmp,120,120,10777.699999988079,220720.0,7250,yes,SM,B,47.bmp,120,120,224469,218442,226484,220458,,,,,8
4,0,0,0,1,0,test,1,0,m,Wed Dec 03 2025 16:53:50 GMT-0600 (Central Standard Time),260753.19999998808,O,None,2015,1,1,48.bmp,-120,-120,49.bmp,120,-120,50.bmp,-120,120,43.bmp,120,120,10062.5,250690.69999998808,7250,yes,SM,B,50.bmp,120,120,224469,218442,226484,220458,254442.0,248412.0,256459.0,250426.0,1
2,0,1,0,0,1,test,1,1,m,Wed Dec 03 2025 16:53:50 GMT-0600 (Central Standard Time),270784.2999999821,O,m,1972,2,1,1.bmp,-120,-120,2.bmp,120,-120,3.bmp,-120,120,4.bmp,120,120,10026.59999999404,260757.69999998808,7250,yes,SM,B,3.bmp,120,-120,224469,218442,226484,220458,264506.0,258479.0,266523.0,260491.0,2
1,1,0,0,0,1,test,1,0,z,Wed Dec 03 2025 16:53:50 GMT-0600 (Central Standard Time),280848.1999999881,O,None,2016,3,1,5.bmp,-120,-120,6.bmp,120,-120,7.bmp,-120,120,8.bmp,120,120,10061.59999999404,270786.59999999404,7250,yes,SM,B,5.bmp,-120,-120,224469,218442,226484,220458,274537.0,268508.0,276553.0,270521.0,3
3,0,0,1,0,2,test,1,1,m,Wed Dec 03 2025 16:53:50 GMT-0600 (Central Standard Time),290261.09999999404,O,m,1358,4,1,9.bmp,-120,-120,10.bmp,120,-120,11.bmp,-120,120,12.bmp,120,120,9408.300000011921,280852.7999999821,7250,yes,SM,B,9.bmp,-120,120,224469,218442,226484,220458,284602.0,278574.0,286616.0,280585.0,4
2,0,1,0,0,2,test,1,0,z,Wed Dec 03 2025 16:53:50 GMT-0600 (Central Standard Time),300308.90000000596,O,None,2001,5,1,13.bmp,-120,-120,14.bmp,120,-120,15.bmp,-120,120,16.bmp,120,120,10045.40000000596,290263.5,7250,yes,SM,B,14.bmp,120,-120,224469,218442,226484,220458,294013.0,287985.0,296029.0,289998.0,5
3,0,0,1,0,2,test,1,0,z,Wed Dec 03 2025 16:53:50 GMT-0600 (Central Standard Time),310370.09999999404,O,None,2014,6,1,17.bmp,-120,-120,18.bmp,120,-120,19.bmp,-120,120,20.bmp,120,120,10056.40000000596,300313.6999999881,7250,yes,SM,B,19.bmp,-120,120,224469,218442,226484,220458,304062.0,298035.0,306077.0,300045.0,6
4,0,0,0,1,3,test,1,1,z,Wed Dec 03 2025 16:53:50 GMT-0600 (Central Standard Time),319737.90000000596,O,z,1323,7,1,21.bmp,-120,-120,22.bmp,120,-120,23.bmp,-120,120,24.bmp,120,120,9364.5,310373.40000000596,7250,yes,SM,B,24.bmp,120,120,224469,218442,226484,220458,314110.0,308095.0,316124.0,310108.0,7
2,0,1,0,0,3,test,1,0,m,Wed Dec 03 2025 16:53:50 GMT-0600 (Central Standard Time),329316.59999999404,O,z,1525,8,1,25.bmp,-120,-120,26.bmp,120,-120,27.bmp,-120,120,28.bmp,120,120,9575.0,319741.59999999404,7250,yes,SM,B,25.bmp,120,-120,224469,218442,226484,220458,323487.0,317463.0,325506.0,319472.0,8
3,0,0,1,0,3,test,1,0,m,Wed Dec 03 2025 16:53:50 GMT-0600 (Central Standard Time),338560.90000000596,O,z,1186,9,1,29.bmp,-120,-120,30.bmp,120,-120,31.bmp,-120,120,32.bmp,120,120,9241.700000017881,329319.1999999881,7250,yes,SM,B,30.bmp,-120,120,224469,218442,226484,220458,333067.0,327040.0,335085.0,329052.0,9
4,0,0,0,1,3,test,1,0,z,Wed Dec 03 2025 16:53:50 GMT-0600 (Central Standard Time),348625.59999999404,O,None,2016,10,1,37.bmp,-120,-120,38.bmp,120,-120,39.bmp,-120,120,40.bmp,120,120,10061.199999988079,338564.40000000596,7250,yes,SM,B,40.bmp,120,120,224469,218442,226484,220458,342316.0,336286.0,344331.0,338300.0,10
3,0,0,1,0,3,test,1,0,z,Wed Dec 03 2025 16:53:50 GMT-0600 (Central Standard Time),358355.7999999821,O,m,1668,11,1,33.bmp,-120,-120,34.bmp,120,-120,35.bmp,-120,120,36.bmp,120,120,9723.0,348632.7999999821,7250,yes,SM,B,35.bmp,-120,120,224469,218442,226484,220458,352378.0,346354.0,354396.0,348364.0,11
2,0,1,0,0,4,test,1,1,m,Wed Dec 03 2025 16:53:50 GMT-0600 (Central Standard Time),367552.59999999404,O,m,1163,12,1,41.bmp,-120,-120,42.bmp,120,-120,43.bmp,-120,120,44.bmp,120,120,9192.40000000596,358360.1999999881,7250,yes,SM,B,41.bmp,120,-120,224469,218442,226484,220458,362107.0,356082.0,364108.0,358095.0,12
3,0,0,1,0,4,test,1,0,m,Wed Dec 03 2025 16:53:50 GMT-0600 (Central Standard Time),377331.90000000596,O,z,1725,13,1,45.bmp,-120,-120,46.bmp,120,-120,47.bmp,-120,120,48.bmp,120,120,9777.300000011921,367554.59999999404,7250,yes,SM,B,46.bmp,-120,120,224469,218442,226484,220458,371305.0,365276.0,373322.0,367291.0,13
1,1,0,0,0,4,test,1,0,z,Wed Dec 03 2025 16:53:50 GMT-0600 (Central Standard Time),386680.40000000596,O,m,1298,14,1,49.bmp,-120,-120,50.bmp,120,-120,4.bmp,-120,120,1.bmp,120,120,9345.90000000596,377334.5,7250,yes,SM,B,49.bmp,-120,-120,224469,218442,226484,220458,381085.0,375056.0,383087.0,377071.0,14
4,0,0,0,1,4,test,1,0,m,Wed Dec 03 2025 16:53:50 GMT-0600 (Central Standard Time),396744.09999999404,O,None,2014,15,1,10.bmp,-120,-120,11.bmp,120,-120,12.bmp,-120,120,13.bmp,120,120,10056.5,386687.59999999404,7250,yes,SM,B,11.bmp,120,120,224469,218442,226484,220458,390435.0,384409.0,392451.0,386418.0,15
1,1,0,0,0,5,test,1,1,m,Wed Dec 03 2025 16:53:50 GMT-0600 (Central Standard Time),406290.09999999404,O,m,1493,16,1,2.bmp,-120,-120,3.bmp,120,-120,4.bmp,-120,120,5.bmp,120,120,9543.40000000596,396746.6999999881,7250,yes,SM,B,5.bmp,-120,-120,224469,218442,226484,220458,400497.0,394468.0,402513.0,396482.0,16
3,0,0,1,0,5,test,1,0,m,Wed Dec 03 2025 16:53:50 GMT-0600 (Central Standard Time),415821.0,O,z,1476,17,1,22.bmp,-120,-120,23.bmp,120,-120,24.bmp,-120,120,25.bmp,120,120,9528.40000000596,406292.59999999404,7250,yes,SM,B,22.bmp,-120,120,224469,218442,226484,220458,410043.0,404014.0,412060.0,406028.0,17
1,1,0,0,0,5,test,1,0,z,Wed Dec 03 2025 16:53:50 GMT-0600 (Central Standard Time),425300.7999999821,O,m,1414,18,1,6.bmp,-120,-120,7.bmp,120,-120,8.bmp,-120,120,9.bmp,120,120,9477.699999988079,415823.09999999404,7250,yes,SM,B,6.bmp,-120,-120,224469,218442,226484,220458,419574.0,413544.0,421592.0,415559.0,18
2,0,1,0,0,5,test,1,0,z,Wed Dec 03 2025 16:53:50 GMT-0600 (Central Standard Time),434531.40000000596,O,m,1169,19,1,26.bmp,-120,-120,27.bmp,120,-120,28.bmp,-120,120,29.bmp,120,120,9227.800000011921,425303.59999999404,7250,yes,SM,B,27.bmp,120,-120,224469,218442,226484,220458,429053.0,423025.0,431070.0,425039.0,19
3,0,0,1,0,6,test,1,1,z,Wed Dec 03 2025 16:53:50 GMT-0600 (Central Standard Time),444178.09999999404,O,z,1595,20,1,30.bmp,-120,-120,31.bmp,120,-120,32.bmp,-120,120,33.bmp,120,120,9638.0,434540.09999999404,7250,yes,SM,B,32.bmp,-120,120,224469,218442,226484,220458,438284.0,432262.0,440300.0,434269.0,20
1,1,0,0,0,7,test,1,1,m,Wed Dec 03 2025 16:53:50 GMT-0600 (Central Standard Time),453375.1999999881,O,m,1149,21,1,14.bmp,-120,-120,15.bmp,120,-120,16.bmp,-120,120,17.bmp,120,120,9193.09999999404,444182.09999999404,7250,yes,SM,B,16.bmp,-120,-120,224469,218442,226484,220458,447930.0,441903.0,449946.0,443916.0,21
4,0,0,0,1,8,test,1,1,z,Wed Dec 03 2025 16:53:50 GMT-0600 (Central Standard Time),463173.90000000596,O,z,1742,22,1,18.bmp,-120,-120,19.bmp,120,-120,20.bmp,-120,120,21.bmp,120,120,9791.40000000596,453382.5,7250,yes,SM,B,21.bmp,120,120,224469,218442,226484,220458,457129.0,451104.0,459145.0,453113.0,22
1,1,0,0,0,9,test,1,1,m,Wed Dec 03 2025 16:53:50 GMT-0600 (Central Standard Time),472186.6999999881,O,m,967,23,1,34.bmp,-120,-120,35.bmp,120,-120,36.bmp,-120,120,37.bmp,120,120,9009.299999982119,463177.40000000596,7250,yes,SM,B,37.bmp,-120,-120,224469,218442,226484,220458,466925.0,460899.0,468926.0,462914.0,23
2,0,1,0,0,10,test,1,1,z,Wed Dec 03 2025 16:53:50 GMT-0600 (Central Standard Time),481583.2999999821,O,z,1340,24,1,42.bmp,-120,-120,43.bmp,120,-120,44.bmp,-120,120,45.bmp,120,120,9392.899999976158,472190.40000000596,7250,yes,SM,B,43.bmp,120,-120,224469,218442,226484,220458,475939.0,469912.0,477955.0,471923.0,24
4,0,0,0,1,11,test,1,1,m,Wed Dec 03 2025 16:53:50 GMT-0600 (Central Standard Time),491281.40000000596,O,m,1654,25,1,46.bmp,-120,-120,47.bmp,120,-120,48.bmp,-120,120,49.bmp,120,120,9689.90000000596,481591.5,7250,yes,SM,B,48.bmp,120,120,224469,218442,226484,220458,485336.0,479313.0,487337.0,481320.0,25
1,1,0,0,0,12,test,1,1,z,Wed Dec 03 2025 16:53:50 GMT-0600 (Central Standard Time),501060.90000000596,O,z,1717,26,1,38.bmp,-120,-120,39.bmp,120,-120,40.bmp,-120,120,41.bmp,120,120,9776.200000017881,491284.6999999881,7250,yes,SM,B,38.bmp,-120,-120,224469,218442,226484,220458,495035.0,489006.0,497050.0,491019.0,26
4,0,0,0,1,12,test,1,0,z,Wed Dec 03 2025 16:53:50 GMT-0600 (Central Standard Time),511108.59999999404,O,None,2016,27,1,50.bmp,-120,-120,11.bmp,120,-120,1.bmp,-120,120,2.bmp,120,120,10038.199999988079,501070.40000000596,7250,yes,SM,B,2.bmp,120,120,224469,218442,226484,220458,504813.0,498792.0,506814.0,500796.0,27
3,0,0,1,0,13,test,1,1,m,Wed Dec 03 2025 16:53:50 GMT-0600 (Central Standard Time),520688.0,O,m,1538,28,1,3.bmp,-120,-120,4.bmp,120,-120,5.bmp,-120,120,6.bmp,120,120,9576.09999999404,511111.90000000596,7250,yes,SM,B,3.bmp,-120,120,224469,218442,226484,220458,514859.0,508833.0,516860.0,510845.0,28
2,0,1,0,0,13,test,1,0,z,Wed Dec 03 2025 16:53:50 GMT-0600 (Central Standard Time),529686.099999994,O,m,967,29,1,7.bmp,-120,-120,8.bmp,120,-120,9.bmp,-120,120,10.bmp,120,120,8995.90000000596,520690.1999999881,7250,yes,SM,B,8.bmp,120,-120,224469,218442,226484,220458,524432.0,518411.0,526439.0,520426.0,29
3,0,0,1,0,14,test,1,1,z,Wed Dec 03 2025 16:53:50 GMT-0600 (Central Standard Time),538747.900000006,O,z,1002,30,1,11.bmp,-120,-120,12.bmp,120,-120,13.bmp,-120,120,14.bmp,120,120,9057.700000017881,529690.1999999881,7250,yes,SM,B,13.bmp,-120,120,224469,218442,226484,220458,533438.0,527411.0,535452.0,529422.0,30
1,1,0,0,0,14,test,1,0,z,Wed Dec 03 2025 16:53:50 GMT-0600 (Central Standard Time),548378.400000006,O,m,1578,31,1,15.bmp,-120,-120,16.bmp,120,-120,17.bmp,-120,120,18.bmp,120,120,9627.100000023842,538751.2999999821,7250,yes,SM,B,15.bmp,-120,-120,224469,218442,226484,220458,542501.0,536473.0,544517.0,538487.0,31
2,0,1,0,0,14,test,1,0,m,Wed Dec 03 2025 16:53:50 GMT-0600 (Central Standard Time),558441.7999999821,O,None,2016,32,1,19.bmp,-120,-120,20.bmp,120,-120,21.bmp,-120,120,22.bmp,120,120,10058.199999988079,548383.599999994,7250,yes,SM,B,19.bmp,120,-120,224469,218442,226484,220458,552131.0,546105.0,554147.0,548120.0,32
4,0,0,0,1,14,test,1,0,z,Wed Dec 03 2025 16:53:50 GMT-0600 (Central Standard Time),568488.6999999881,O,None,2015,33,1,31.bmp,-120,-120,32.bmp,120,-120,33.bmp,-120,120,34.bmp,120,120,10041.299999982119,558447.400000006,7250,yes,SM,B,34.bmp,120,120,224469,218442,226484,220458,562194.0,556169.0,564195.0,558179.0,33
2,0,1,0,0,14,test,1,0,z,Wed Dec 03 2025 16:53:50 GMT-0600 (Central Standard Time),578534.6999999881,O,None,2014,34,1,23.bmp,-120,-120,24.bmp,120,-120,25.bmp,-120,120,26.bmp,120,120,10042.199999988079,568492.5,7250,yes,SM,B,24.bmp,120,-120,224469,218442,226484,220458,572241.0,566214.0,574242.0,568226.0,34
4,0,0,0,1,15,test,1,1,m,Wed Dec 03 2025 16:53:50 GMT-0600 (Central Standard Time),587782.7999999821,O,m,1186,35,1,27.bmp,-120,-120,28.bmp,120,-120,29.bmp,-120,120,30.bmp,120,120,9238.899999976158,578543.900000006,7250,yes,SM,B,29.bmp,120,120,224469,218442,226484,220458,582294.0,576265.0,584303.0,578273.0,35
3,0,0,1,0,15,test,1,0,m,Wed Dec 03 2025 16:53:50 GMT-0600 (Central Standard Time),596863.900000006,O,z,1018,36,1,35.bmp,-120,-120,36.bmp,120,-120,37.bmp,-120,120,38.bmp,120,120,9077.40000000596,587786.5,7250,yes,SM,B,35.bmp,-120,120,224469,218442,226484,220458,591536.0,585508.0,593552.0,587521.0,36
1,1,0,0,0,16,test,1,1,m,Wed Dec 03 2025 16:53:50 GMT-0600 (Central Standard Time),605610.1999999881,O,m,688,37,1,39.bmp,-120,-120,40.bmp,120,-120,41.bmp,-120,120,42.bmp,120,120,8743.40000000596,596866.7999999821,7250,yes,SM,B,40.bmp,-120,-120,224469,218442,226484,220458,600616.0,594588.0,602631.0,596600.0,37
2,0,1,0,0,17,test,1,1,m,Wed Dec 03 2025 16:53:50 GMT-0600 (Central Standard Time),614258.5,O,m,586,38,1,43.bmp,-120,-120,44.bmp,120,-120,45.bmp,-120,120,46.bmp,120,120,8643.700000017881,605614.7999999821,7250,yes,SM,B,45.bmp,120,-120,224469,218442,226484,220458,609365.0,603336.0,611380.0,605348.0,38
4,0,0,0,1,18,test,1,1,z,Wed Dec 03 2025 16:53:50 GMT-0600 (Central Standard Time),623571.900000006,O,z,1259,39,1,47.bmp,-120,-120,48.bmp,120,-120,49.bmp,-120,120,50.bmp,120,120,9310.200000017881,614261.6999999881,7250,yes,SM,B,50.bmp,120,120,224469,218442,226484,220458,618011.0,611983.0,620028.0,613996.0,39
3,0,0,1,0,19,test,1,1,m,Wed Dec 03 2025 16:53:50 GMT-0600 (Central Standard Time),632552.0,O,m,916,40,1,4.bmp,-120,-120,5.bmp,120,-120,6.bmp,-120,120,7.bmp,120,120,8975.40000000596,623576.599999994,7250,yes,SM,B,5.bmp,-120,120,224469,218442,226484,220458,627324.0,621298.0,629341.0,623310.0,40
1,1,0,0,0,19,test,1,0,z,Wed Dec 03 2025 16:53:50 GMT-0600 (Central Standard Time),641815.2999999821,O,m,1205,41,1,8.bmp,-120,-120,9.bmp,120,-120,10.bmp,-120,120,11.bmp,120,120,9259.299999982119,632556.0,7250,yes,SM,B,8.bmp,-120,-120,224469,218442,226484,220458,636306.0,630277.0,638321.0,632291.0,41
4,0,0,0,1,19,test,1,0,z,Wed Dec 03 2025 16:53:50 GMT-0600 (Central Standard Time),651862.5,O,None,2015,42,1,12.bmp,-120,-120,13.bmp,120,-120,14.bmp,-120,120,15.bmp,120,120,10043.5,641819.0,7250,yes,SM,B,15.bmp,120,120,224469,218442,226484,220458,645567.0,639540.0,647569.0,641552.0,42
1,1,0,0,0,19,test,1,0,z,Wed Dec 03 2025 16:53:50 GMT-0600 (Central Standard Time),661159.1999999881,O,m,1231,43,1,16.bmp,-120,-120,17.bmp,120,-120,18.bmp,-120,120,19.bmp,120,120,9292.699999988079,651866.5,7250,yes,SM,B,16.bmp,-120,-120,224469,218442,226484,220458,655617.0,649588.0,657633.0,651601.0,43
4,0,0,0,1,19,test,1,0,m,Wed Dec 03 2025 16:53:50 GMT-0600 (Central Standard Time),670573.6999999881,O,z,1367,44,1,4.bmp,-120,-120,1.bmp,120,-120,2.bmp,-120,120,3.bmp,120,120,9412.299999982119,661161.400000006,7250,yes,SM,B,4.bmp,120,120,224469,218442,226484,220458,664912.0,658883.0,666913.0,660897.0,44
1,1,0,0,0,20,test,1,1,m,Wed Dec 03 2025 16:53:50 GMT-0600 (Central Standard Time),679670.1999999881,O,m,1040,45,1,28.bmp,-120,-120,29.bmp,120,-120,30.bmp,-120,120,31.bmp,120,120,9091.0,670579.1999999881,7250,yes,SM,B,31.bmp,-120,-120,224469,218442,226484,220458,674326.0,668300.0,676343.0,670312.0,45
1,1,0,0,0,20,test,1,0,m,Wed Dec 03 2025 16:53:50 GMT-0600 (Central Standard Time),689717.5,O,z,1983,46,1,20.bmp,-120,-120,21.bmp,120,-120,22.bmp,-120,120,23.bmp,120,120,10042.59999999404,679674.900000006,7250,yes,SM,B,21.bmp,-120,-120,224469,218442,226484,220458,683423.0,677396.0,685441.0,679407.0,46
3,0,0,1,0,21,test,1,1,z,Wed Dec 03 2025 16:53:50 GMT-0600 (Central Standard Time),699197.6999999881,O,z,1427,47,1,24.bmp,-120,-120,25.bmp,120,-120,26.bmp,-120,120,27.bmp,120,120,9476.299999982119,689721.400000006,7250,yes,SM,B,26.bmp,-120,120,224469,218442,226484,220458,693469.0,687443.0,695486.0,689455.0,47
3,0,0,1,0,22,test,1,1,z,Wed Dec 03 2025 16:53:50 GMT-0600 (Central Standard Time),708344.400000006,O,z,1097,48,1,40.bmp,-120,-120,41.bmp,120,-120,42.bmp,-120,120,43.bmp,120,120,9143.700000017881,699200.6999999881,7250,yes,SM,B,42.bmp,-120,120,224469,218442,226484,220458,702953.0,696922.0,704967.0,698935.0,48
2,0,1,0,0,22,test,1,0,z,Wed Dec 03 2025 16:53:50 GMT-0600 (Central Standard Time),717541.6999999881,O,m,1135,49,1,36.bmp,-120,-120,37.bmp,120,-120,38.bmp,-120,120,39.bmp,120,120,9194.299999982119,708347.400000006,7250,yes,SM,B,37.bmp,120,-120,224469,218442,226484,220458,712097.0,706069.0,714113.0,708082.0,49
3,0,0,1,0,23,test,1,1,m,Wed Dec 03 2025 16:53:50 GMT-0600 (Central Standard Time),726823.0,O,m,1225,50,1,32.bmp,-120,-120,33.bmp,120,-120,34.bmp,-120,120,35.bmp,120,120,9277.0,717546.0,7250,yes,SM,B,32.bmp,-120,120,224469,218442,226484,220458,721295.0,715267.0,723310.0,717279.0,50
2,0,1,0,0,24,test,1,1,z,Wed Dec 03 2025 16:53:50 GMT-0600 (Central Standard Time),736486.5,O,z,1607,51,1,44.bmp,-120,-120,45.bmp,120,-120,46.bmp,-120,120,47.bmp,120,120,9660.59999999404,726825.900000006,7250,yes,SM,B,45.bmp,120,-120,224469,218442,226484,220458,730577.0,724547.0,732592.0,726561.0,51
4,0,0,0,1,25,test,1,1,m,Wed Dec 03 2025 16:53:50 GMT-0600 (Central Standard Time),745965.7999999821,O,m,1424,52,1,48.bmp,-120,-120,49.bmp,120,-120,50.bmp,-120,120,31.bmp,120,120,9475.799999982119,736490.0,7250,yes,SM,B,48.bmp,120,120,224469,218442,226484,220458,740239.0,734211.0,742254.0,736224.0,52
3,0,0,1,0,26,test,1,1,z,Wed Dec 03 2025 16:53:50 GMT-0600 (Central Standard Time),755096.1999999881,O,z,1082,53,1,1.bmp,-120,-120,2.bmp,120,-120,3.bmp,-120,120,4.bmp,120,120,9127.299999982119,745968.900000006,7250,yes,SM,B,3.bmp,-120,120,224469,218442,226484,220458,749718.0,743690.0,751735.0,745705.0,53
1,1,0,0,0,27,test,1,1,m,Wed Dec 03 2025 16:53:50 GMT-0600 (Central Standard Time),764260.400000006,O,m,1109,54,1,5.bmp,-120,-120,6.bmp,120,-120,7.bmp,-120,120,8.bmp,120,120,9158.40000000596,755102.0,7250,yes,SM,B,7.bmp,-120,-120,224469,218442,226484,220458,758849.0,752823.0,760865.0,754834.0,54
4,0,0,0,1,27,test,1,0,z,Wed Dec 03 2025 16:53:50 GMT-0600 (Central Standard Time),774307.599999994,O,None,2015,55,1,9.bmp,-120,-120,10.bmp,120,-120,11.bmp,-120,120,12.bmp,120,120,10045.199999988079,764262.400000006,7250,yes,SM,B,12.bmp,120,120,224469,218442,226484,220458,768012.0,761984.0,770014.0,763997.0,55
2,0,1,0,0,28,test,1,1,m,Wed Dec 03 2025 16:53:50 GMT-0600 (Central Standard Time),783820.400000006,O,m,1458,56,1,13.bmp,-120,-120,14.bmp,120,-120,15.bmp,-120,120,16.bmp,120,120,9509.200000017881,774311.1999999881,7250,yes,SM,B,13.bmp,120,-120,224469,218442,226484,220458,778060.0,772032.0,780077.0,774043.0,56
4,0,0,0,1,28,test,1,0,m,Wed Dec 03 2025 16:53:50 GMT-0600 (Central Standard Time),793883.900000006,O,None,2016,57,1,17.bmp,-120,-120,18.bmp,120,-120,19.bmp,-120,120,20.bmp,120,120,10060.40000000596,783823.5,7250,yes,SM,B,18.bmp,120,120,224469,218442,226484,220458,787573.0,781545.0,789589.0,783558.0,57
3,0,0,1,0,29,test,1,1,z,Wed Dec 03 2025 16:53:50 GMT-0600 (Central Standard Time),803113.5,O,z,1179,58,1,21.bmp,-120,-120,22.bmp,120,-120,23.bmp,-120,120,24.bmp,120,120,9224.09999999404,793889.400000006,7250,yes,SM,B,23.bmp,-120,120,224469,218442,226484,220458,797637.0,791611.0,799653.0,793622.0,58
2,0,1,0,0,30,test,1,1,m,Wed Dec 03 2025 16:53:50 GMT-0600 (Central Standard Time),812428.400000006,O,m,1260,59,1,25.bmp,-120,-120,26.bmp,120,-120,27.bmp,-120,120,28.bmp,120,120,9311.300000011921,803117.099999994,7250,yes,SM,B,28.bmp,120,-120,224469,218442,226484,220458,806867.0,800838.0,808883.0,802852.0,59
1,1,0,0,0,31,test,1,1,z,Wed Dec 03 2025 16:53:50 GMT-0600 (Central Standard Time),821759.099999994,O,z,1275,60,1,29.bmp,-120,-120,30.bmp,120,-120,31.bmp,-120,120,32.bmp,120,120,9327.0,812432.099999994,7250,yes,SM,B,29.bmp,-120,-120,224469,218442,226484,220458,816180.0,810153.0,818195.0,812166.0,60
2,0,1,0,0,32,test,1,1,z,Wed Dec 03 2025 16:53:50 GMT-0600 (Central Standard Time),831222.2999999821,O,z,1414,61,1,33.bmp,-120,-120,34.bmp,120,-120,35.bmp,-120,120,36.bmp,120,120,9459.09999999404,821763.1999999881,7250,yes,SM,B,34.bmp,120,-120,224469,218442,226484,220458,825511.0,819485.0,827529.0,821496.0,61
4,0,0,0,1,32,test,1,0,z,Wed Dec 03 2025 16:53:50 GMT-0600 (Central Standard Time),840351.599999994,O,m,1079,62,1,41.bmp,-120,-120,42.bmp,120,-120,43.bmp,-120,120,44.bmp,120,120,9127.09999999404,831224.5,7250,yes,SM,B,44.bmp,120,120,224469,218442,226484,220458,834975.0,828946.0,836992.0,830963.0,62
1,1,0,0,0,32,test,1,0,m,Wed Dec 03 2025 16:53:50 GMT-0600 (Central Standard Time),849465.0,O,z,1052,63,1,45.bmp,-120,-120,46.bmp,120,-120,47.bmp,-120,120,48.bmp,120,120,9111.09999999404,840353.900000006,7250,yes,SM,B,45.bmp,-120,120,224469,218442,226484,220458,844105.0,838075.0,846122.0,840090.0,63
2,0,1,0,0,32,test,1,0,z,Wed Dec 03 2025 16:53:50 GMT-0600 (Central Standard Time),858982.099999994,O,m,1467,64,1,49.bmp,-120,-120,50.bmp,120,-120,12.bmp,-120,120,1.bmp,120,120,9515.09999999404,849467.0,7250,yes,SM,B,50.bmp,120,-120,224469,218442,226484,220458,853219.0,847188.0,855236.0,849204.0,64
4,0,0,0,1,32,test,1,0,m,Wed Dec 03 2025 16:53:50 GMT-0600 (Central Standard Time),868212.5,O,z,1167,65,1,2.bmp,-120,-120,3.bmp,120,-120,4.bmp,-120,120,5.bmp,120,120,9227.59999999404,858984.900000006,7250,yes,SM,B,4.bmp,120,120,224469,218442,226484,220458,862734.0,856706.0,864751.0,858719.0,65
3,0,0,1,0,33,test,1,1,m,Wed Dec 03 2025 16:53:50 GMT-0600 (Central Standard Time),877324.1999999881,O,m,1060,66,1,6.bmp,-120,-120,7.bmp,120,-120,8.bmp,-120,120,9.bmp,120,120,9109.59999999404,868214.599999994,7250,yes,SM,B,9.bmp,-120,120,224469,218442,226484,220458,871963.0,865936.0,873979.0,867951.0,66
2,0,1,0,0,33,test,1,0,m,Wed Dec 03 2025 16:53:50 GMT-0600 (Central Standard Time),886988.099999994,O,z,1609,67,1,37.bmp,-120,-120,38.bmp,120,-120,39.bmp,-120,120,40.bmp,120,120,9660.800000011921,877327.2999999821,7250,yes,SM,B,39.bmp,120,-120,224469,218442,226484,220458,881076.0,875049.0,883093.0,877063.0,67
3,0,0,1,0,33,test,1,0,z,Wed Dec 03 2025 16:53:50 GMT-0600 (Central Standard Time),896716.900000006,O,m,1664,68,1,10.bmp,-120,-120,11.bmp,120,-120,12.bmp,-120,120,13.bmp,120,120,9724.800000011921,886992.099999994,7250,yes,SM,B,12.bmp,-120,120,224469,218442,226484,220458,890741.0,884714.0,892758.0,886725.0,68
1,1,0,0,0,34,test,1,1,m,Wed Dec 03 2025 16:53:50 GMT-0600 (Central Standard Time),906131.099999994,O,m,1352,69,1,14.bmp,-120,-120,15.bmp,120,-120,16.bmp,-120,120,17.bmp,120,120,9411.09999999404,896720.0,7250,yes,SM,B,15.bmp,-120,-120,224469,218442,226484,220458,900473.0,894441.0,902487.0,896455.0,69
2,0,1,0,0,35,test,1,1,m,Wed Dec 03 2025 16:53:50 GMT-0600 (Central Standard Time),915894.6999999881,O,m,1700,70,1,18.bmp,-120,-120,19.bmp,120,-120,20.bmp,-120,120,21.bmp,120,120,9756.90000000596,906137.7999999821,7250,yes,SM,B,20.bmp,120,-120,224469,218442,226484,220458,909885.0,903859.0,911901.0,905869.0,70
4,0,0,0,1,35,test,1,0,z,Wed Dec 03 2025 16:53:50 GMT-0600 (Central Standard Time),925208.0,O,m,1255,71,1,22.bmp,-120,-120,23.bmp,120,-120,24.bmp,-120,120,25.bmp,120,120,9307.40000000596,915900.599999994,7250,yes,SM,B,25.bmp,120,120,224469,218442,226484,220458,919648.0,913623.0,921664.0,915632.0,71
1,1,0,0,0,36,test,1,1,z,Wed Dec 03 2025 16:53:50 GMT-0600 (Central Standard Time),934905.1999999881,O,z,1645,72,1,26.bmp,-120,-120,27.bmp,120,-120,28.bmp,-120,120,29.bmp,120,120,9692.5,925212.6999999881,7250,yes,SM,B,26.bmp,-120,-120,224469,218442,226484,220458,928962.0,922934.0,930978.0,924946.0,72
2,0,1,0,0,36,test,1,0,z,Wed Dec 03 2025 16:53:50 GMT-0600 (Central Standard Time),944969.400000006,O,None,2016,73,1,30.bmp,-120,-120,31.bmp,120,-120,32.bmp,-120,120,33.bmp,120,120,10059.90000000596,934909.5,7250,yes,SM,B,31.bmp,120,-120,224469,218442,226484,220458,938659.0,932631.0,940674.0,934643.0,73
4,0,0,0,1,36,test,1,0,m,Wed Dec 03 2025 16:53:50 GMT-0600 (Central Standard Time),954033.0,O,z,1005,74,1,34.bmp,-120,-120,35.bmp,120,-120,36.bmp,-120,120,37.bmp,120,120,9060.800000011921,944972.1999999881,7250,yes,SM,B,36.bmp,120,120,224469,218442,226484,220458,948726.0,942693.0,950738.0,944711.0,74
2,0,1,0,0,37,test,1,1,m,Wed Dec 03 2025 16:53:50 GMT-0600 (Central Standard Time),963830.900000006,O,m,1740,75,1,38.bmp,-120,-120,39.bmp,120,-120,40.bmp,-120,120,41.bmp,120,120,9793.600000023842,954037.2999999821,7250,yes,SM,B,41.bmp,120,-120,224469,218442,226484,220458,957785.0,951758.0,959801.0,953771.0,75
1,1,0,0,0,37,test,1,0,z,Wed Dec 03 2025 16:53:50 GMT-0600 (Central Standard Time),973176.099999994,O,m,1286,76,1,42.bmp,-120,-120,43.bmp,120,-120,44.bmp,-120,120,45.bmp,120,120,9341.800000011921,963834.2999999821,7250,yes,SM,B,42.bmp,-120,-120,224469,218442,226484,220458,967585.0,961556.0,969600.0,963567.0,76
3,0,0,1,0,38,test,1,1,z,Wed Dec 03 2025 16:53:50 GMT-0600 (Central Standard Time),982075.599999994,O,z,858,77,1,50.bmp,-120,-120,11.bmp,120,-120,1.bmp,-120,120,2.bmp,120,120,8894.199999988079,973181.400000006,7250,yes,SM,B,1.bmp,-120,120,224469,218442,226484,220458,976930.0,970903.0,978933.0,972913.0,77
1,1,0,0,0,39,test,1,1,m,Wed Dec 03 2025 16:53:50 GMT-0600 (Central Standard Time),991504.1999999881,O,m,1372,78,1,46.bmp,-120,-120,47.bmp,120,-120,48.bmp,-120,120,49.bmp,120,120,9425.799999982119,982078.400000006,7250,yes,SM,B,47.bmp,-120,-120,224469,218442,226484,220458,985826.0,979800.0,987842.0,981811.0,78
4,0,0,0,1,39,test,1,0,m,Wed Dec 03 2025 16:53:50 GMT-0600 (Central Standard Time),1000617.5,O,z,1062,79,1,7.bmp,-120,-120,8.bmp,120,-120,9.bmp,-120,120,10.bmp,120,120,9108.800000011921,991508.6999999881,7250,yes,SM,B,7.bmp,120,120,224469,218442,226484,220458,995257.0,989230.0,997272.0,991241.0,79
3,0,0,1,0,40,test,1,1,m,Wed Dec 03 2025 16:53:50 GMT-0600 (Central Standard Time),1010047.2999999821,O,m,1388,80,1,3.bmp,-120,-120,4.bmp,120,-120,5.bmp,-120,120,6.bmp,120,120,9427.399999976158,1000619.900000006,7250,yes,SM,B,6.bmp,-120,120,224469,218442,226484,220458,1004369.0,998341.0,1006370.0,1000354.0,80
