block_c,block_dur,condition,countdown,datetime,endtime,list,multichar_response,project,response,response_time,session_number,start_end,starttime,subject_id,task,task_vers,trial
,,,,Wed Jun 11 2025 11:51:36 GMT-0400 (Eastern Daylight Time),,,,I,space,1394,2,,,9013,WL,C,
prac,,0,,Wed Jun 11 2025 11:51:36 GMT-0400 (Eastern Daylight Time),,NA,b,I,b,2716,2,,,9013,WL,C,1.0
prac,,0,,Wed Jun 11 2025 11:51:36 GMT-0400 (Eastern Daylight Time),,NA,bo,I,o,332,2,,,9013,WL,C,1.0
prac,,0,,Wed Jun 11 2025 11:51:36 GMT-0400 (Eastern Daylight Time),,NA,boo,I,o,167,2,,,9013,WL,C,1.0
prac,,0,,Wed Jun 11 2025 11:51:36 GMT-0400 (Eastern Daylight Time),,NA,boos,I,s,762,2,,,9013,WL,C,1.0
prac,,0,,Wed Jun 11 2025 11:51:36 GMT-0400 (Eastern Daylight Time),,NA,boost,I,t,263,2,,,9013,WL,C,1.0
prac,,0,,Wed Jun 11 2025 11:51:36 GMT-0400 (Eastern Daylight Time),,NA,boostenter,I,enter,650,2,,,9013,WL,C,1.0
1,2.0,learn,58000.0,Wed Jun 11 2025 11:51:36 GMT-0400 (Eastern Daylight Time),121208.59999990463,A,l,I,l,1970,2,1999.0,119209.59999990463,9013,WL,C,1.0
1,2.25,learn,57750.0,Wed Jun 11 2025 11:51:36 GMT-0400 (Eastern Daylight Time),121458.79999995232,A,lt,I,t,230,2,2249.2000000476837,119209.59999990463,9013,WL,C,1.0
1,2.8500001430511475,learn,57149.99985694885,Wed Jun 11 2025 11:51:36 GMT-0400 (Eastern Daylight Time),122058.79999995232,A,l,I,backspace,586,2,2849.2000000476837,119209.59999990463,9013,WL,C,1.0
1,3.117000102996826,learn,56882.999897003174,Wed Jun 11 2025 11:51:36 GMT-0400 (Eastern Daylight Time),122325.0,A,le,I,e,249,2,3115.4000000953674,119209.59999990463,9013,WL,C,1.0
1,3.2170000076293945,learn,56782.999992370605,Wed Jun 11 2025 11:51:36 GMT-0400 (Eastern Daylight Time),122425.5,A,let,I,t,83,2,3215.9000000953674,119209.59999990463,9013,WL,C,1.0
1,3.384000062942505,learn,56615.999937057495,Wed Jun 11 2025 11:51:36 GMT-0400 (Eastern Daylight Time),122592.59999990463,A,lett,I,t,147,2,3383.0,119209.59999990463,9013,WL,C,1.0
1,3.5169999599456787,learn,56483.00004005432,Wed Jun 11 2025 11:51:36 GMT-0400 (Eastern Daylight Time),122725.5,A,lette,I,e,107,2,3515.9000000953674,119209.59999990463,9013,WL,C,1.0
1,3.617000102996826,learn,56382.999897003174,Wed Jun 11 2025 11:51:36 GMT-0400 (Eastern Daylight Time),122825.09999990463,A,letter,I,r,80,2,3615.5,119209.59999990463,9013,WL,C,1.0
1,3.8500001430511475,learn,56149.99985694885,Wed Jun 11 2025 11:51:36 GMT-0400 (Eastern Daylight Time),123058.19999980927,A,letterenter,I,enter,202,2,3848.5999999046326,119209.59999990463,9013,WL,C,1.0
1,5.549999952316284,learn,54450.000047683716,Wed Jun 11 2025 11:51:36 GMT-0400 (Eastern Daylight Time),124758.5,A,c,I,c,1684,2,1699.5,123059.0,9013,WL,C,2.0
1,5.66700005531311,learn,54332.99994468689,Wed Jun 11 2025 11:51:36 GMT-0400 (Eastern Daylight Time),124875.29999995232,A,co,I,o,95,2,1816.2999999523163,123059.0,9013,WL,C,2.0
1,5.884000062942505,learn,54115.999937057495,Wed Jun 11 2025 11:51:36 GMT-0400 (Eastern Daylight Time),125092.0,A,cor,I,r,184,2,2033.0,123059.0,9013,WL,C,2.0
1,5.983999967575073,learn,54016.00003242493,Wed Jun 11 2025 11:51:36 GMT-0400 (Eastern Daylight Time),125192.5,A,corn,I,n,80,2,2133.5,123059.0,9013,WL,C,2.0
1,6.33299994468689,learn,53667.00005531311,Wed Jun 11 2025 11:51:36 GMT-0400 (Eastern Daylight Time),125541.39999985695,A,cornenter,I,enter,323,2,2482.399999856949,123059.0,9013,WL,C,2.0
1,7.567000150680542,learn,52432.99984931946,Wed Jun 11 2025 11:51:36 GMT-0400 (Eastern Daylight Time),126775.29999995232,A,n,I,n,1210,2,1233.4000000953674,125541.89999985695,9013,WL,C,3.0
1,7.867000102996826,learn,52132.999897003174,Wed Jun 11 2025 11:51:36 GMT-0400 (Eastern Daylight Time),127075.19999980927,A,na,I,a,277,2,1533.2999999523163,125541.89999985695,9013,WL,C,3.0
1,7.9670000076293945,learn,52032.999992370605,Wed Jun 11 2025 11:51:36 GMT-0400 (Eastern Daylight Time),127175.29999995232,A,nai,I,i,65,2,1633.4000000953674,125541.89999985695,9013,WL,C,3.0
1,8.016000032424927,learn,51983.99996757507,Wed Jun 11 2025 11:51:36 GMT-0400 (Eastern Daylight Time),127224.69999980927,A,nail,I,l,21,2,1682.7999999523163,125541.89999985695,9013,WL,C,3.0
1,8.318000078201294,learn,51681.999921798706,Wed Jun 11 2025 11:51:36 GMT-0400 (Eastern Daylight Time),127526.39999985695,A,nailenter,I,enter,287,2,1984.5,125541.89999985695,9013,WL,C,3.0
1,9.183000087738037,learn,50816.99991226196,Wed Jun 11 2025 11:51:36 GMT-0400 (Eastern Daylight Time),128391.39999985695,A,s,I,s,849,2,864.5,127526.89999985695,9013,WL,C,4.0
1,9.235000133514404,learn,50764.999866485596,Wed Jun 11 2025 11:51:36 GMT-0400 (Eastern Daylight Time),128443.09999990463,A,sh,I,h,33,2,916.2000000476837,127526.89999985695,9013,WL,C,4.0
1,9.299999952316284,learn,50700.000047683716,Wed Jun 11 2025 11:51:36 GMT-0400 (Eastern Daylight Time),128508.59999990463,A,sho,I,o,53,2,981.7000000476837,127526.89999985695,9013,WL,C,4.0
1,9.534000158309937,learn,50465.99984169006,Wed Jun 11 2025 11:51:36 GMT-0400 (Eastern Daylight Time),128742.19999980927,A,shor,I,r,207,2,1215.2999999523163,127526.89999985695,9013,WL,C,4.0
1,9.567000150680542,learn,50432.99984931946,Wed Jun 11 2025 11:51:36 GMT-0400 (Eastern Daylight Time),128774.89999985695,A,shore,I,e,5,2,1248.0,127526.89999985695,9013,WL,C,4.0
1,9.75,learn,50250.0,Wed Jun 11 2025 11:51:36 GMT-0400 (Eastern Daylight Time),128958.29999995232,A,shoreenter,I,enter,168,2,1431.4000000953674,127526.89999985695,9013,WL,C,4.0
1,10.150000095367432,learn,49849.99990463257,Wed Jun 11 2025 11:51:36 GMT-0400 (Eastern Daylight Time),129358.5,A,b,I,b,377,2,399.7000000476837,128958.79999995232,9013,WL,C,5.0
1,10.233000040054321,learn,49766.99995994568,Wed Jun 11 2025 11:51:36 GMT-0400 (Eastern Daylight Time),129441.79999995232,A,bo,I,o,67,2,483.0,128958.79999995232,9013,WL,C,5.0
1,10.58400011062622,learn,49415.99988937378,Wed Jun 11 2025 11:51:36 GMT-0400 (Eastern Daylight Time),129792.79999995232,A,bod,I,d,334,2,834.0,128958.79999995232,9013,WL,C,5.0
1,10.733999967575073,learn,49266.00003242493,Wed Jun 11 2025 11:51:36 GMT-0400 (Eastern Daylight Time),129942.09999990463,A,body,I,y,125,2,983.2999999523163,128958.79999995232,9013,WL,C,5.0
1,11.532999992370605,learn,48467.000007629395,Wed Jun 11 2025 11:51:36 GMT-0400 (Eastern Daylight Time),130741.59999990463,A,bodyenter,I,enter,782,2,1782.7999999523163,128958.79999995232,9013,WL,C,5.0
1,14.818000078201294,learn,45181.999921798706,Wed Jun 11 2025 11:51:36 GMT-0400 (Eastern Daylight Time),134026.0,A,c,I,c,3276,2,3283.9000000953674,130742.09999990463,9013,WL,C,6.0
1,15.016999959945679,learn,44983.00004005432,Wed Jun 11 2025 11:51:36 GMT-0400 (Eastern Daylight Time),134225.39999985695,A,ca,I,a,180,2,3483.2999999523163,130742.09999990463,9013,WL,C,6.0
1,15.317000150680542,learn,44682.99984931946,Wed Jun 11 2025 11:51:36 GMT-0400 (Eastern Daylight Time),134525.39999985695,A,cat,I,t,265,2,3783.2999999523163,130742.09999990463,9013,WL,C,6.0
1,15.450000047683716,learn,44549.999952316284,Wed Jun 11 2025 11:51:36 GMT-0400 (Eastern Daylight Time),134658.69999980927,A,catt,I,t,119,2,3916.5999999046326,130742.09999990463,9013,WL,C,6.0
1,15.567000150680542,learn,44432.99984931946,Wed Jun 11 2025 11:51:36 GMT-0400 (Eastern Daylight Time),134775.29999995232,A,cattl,I,l,92,2,4033.2000000476837,130742.09999990463,9013,WL,C,6.0
1,15.733999967575073,learn,44266.00003242493,Wed Jun 11 2025 11:51:36 GMT-0400 (Eastern Daylight Time),134942.09999990463,A,cattle,I,e,140,2,4200.0,130742.09999990463,9013,WL,C,6.0
1,15.91700005531311,learn,44082.99994468689,Wed Jun 11 2025 11:51:36 GMT-0400 (Eastern Daylight Time),135124.89999985695,A,cattleenter,I,enter,157,2,4382.799999952316,130742.09999990463,9013,WL,C,6.0
1,16.5,learn,43500.0,Wed Jun 11 2025 11:51:36 GMT-0400 (Eastern Daylight Time),135708.79999995232,A,q,I,q,564,2,583.5,135125.29999995232,9013,WL,C,7.0
1,16.58400011062622,learn,43415.99988937378,Wed Jun 11 2025 11:51:36 GMT-0400 (Eastern Daylight Time),135792.0,A,qu,I,u,50,2,666.7000000476837,135125.29999995232,9013,WL,C,7.0
1,16.83400011062622,learn,43165.99988937378,Wed Jun 11 2025 11:51:36 GMT-0400 (Eastern Daylight Time),136042.09999990463,A,que,I,e,220,2,916.7999999523163,135125.29999995232,9013,WL,C,7.0
1,17.00100016593933,learn,42998.99983406067,Wed Jun 11 2025 11:51:36 GMT-0400 (Eastern Daylight Time),136209.19999980927,A,quee,I,e,156,2,1083.8999998569489,135125.29999995232,9013,WL,C,7.0
1,17.100000143051147,learn,42899.99985694885,Wed Jun 11 2025 11:51:36 GMT-0400 (Eastern Daylight Time),136308.59999990463,A,queen,I,n,85,2,1183.2999999523163,135125.29999995232,9013,WL,C,7.0
1,17.433000087738037,learn,42566.99991226196,Wed Jun 11 2025 11:51:36 GMT-0400 (Eastern Daylight Time),136641.59999990463,A,queenenter,I,enter,312,2,1516.2999999523163,135125.29999995232,9013,WL,C,7.0
1,18.233999967575073,learn,41766.00003242493,Wed Jun 11 2025 11:51:36 GMT-0400 (Eastern Daylight Time),137442.0,A,s,I,s,783,2,800.1000001430511,136641.89999985695,9013,WL,C,8.0
1,18.350000143051147,learn,41649.99985694885,Wed Jun 11 2025 11:51:36 GMT-0400 (Eastern Daylight Time),137558.69999980927,A,su,I,u,91,2,916.7999999523163,136641.89999985695,9013,WL,C,8.0
1,18.551000118255615,learn,41448.999881744385,Wed Jun 11 2025 11:51:36 GMT-0400 (Eastern Daylight Time),137758.89999985695,A,sug,I,g,164,2,1117.0,136641.89999985695,9013,WL,C,8.0
1,18.633000135421753,learn,41366.99986457825,Wed Jun 11 2025 11:51:36 GMT-0400 (Eastern Daylight Time),137841.59999990463,A,suga,I,a,52,2,1199.7000000476837,136641.89999985695,9013,WL,C,8.0
1,18.850000143051147,learn,41149.99985694885,Wed Jun 11 2025 11:51:36 GMT-0400 (Eastern Daylight Time),138058.59999990463,A,sugar,I,r,201,2,1416.7000000476837,136641.89999985695,9013,WL,C,8.0
1,19.133000135421753,learn,40866.99986457825,Wed Jun 11 2025 11:51:36 GMT-0400 (Eastern Daylight Time),138341.39999985695,A,sugarenter,I,enter,258,2,1699.5,136641.89999985695,9013,WL,C,8.0
1,20.25,learn,39750.0,Wed Jun 11 2025 11:51:36 GMT-0400 (Eastern Daylight Time),139458.39999985695,A,t,I,t,1098,2,1116.5999999046326,138341.79999995232,9013,WL,C,9.0
1,20.43400001525879,learn,39565.99998474121,Wed Jun 11 2025 11:51:36 GMT-0400 (Eastern Daylight Time),139642.0,A,to,I,o,160,2,1300.2000000476837,138341.79999995232,9013,WL,C,9.0
1,20.68400001525879,learn,39315.99998474121,Wed Jun 11 2025 11:51:36 GMT-0400 (Eastern Daylight Time),139892.0,A,tow,I,w,228,2,1550.2000000476837,138341.79999995232,9013,WL,C,9.0
1,20.799999952316284,learn,39200.000047683716,Wed Jun 11 2025 11:51:36 GMT-0400 (Eastern Daylight Time),140008.79999995232,A,towe,I,e,104,2,1667.0,138341.79999995232,9013,WL,C,9.0
1,21.034000158309937,learn,38965.99984169006,Wed Jun 11 2025 11:51:36 GMT-0400 (Eastern Daylight Time),140242.09999990463,A,tower,I,r,205,2,1900.2999999523163,138341.79999995232,9013,WL,C,9.0
1,21.367000102996826,learn,38632.999897003174,Wed Jun 11 2025 11:51:36 GMT-0400 (Eastern Daylight Time),140574.89999985695,A,towerenter,I,enter,308,2,2233.0999999046326,138341.79999995232,9013,WL,C,9.0
1,22.067000150680542,learn,37932.99984931946,Wed Jun 11 2025 11:51:36 GMT-0400 (Eastern Daylight Time),141275.39999985695,A,w,I,w,682,2,700.0999999046326,140575.29999995232,9013,WL,C,10.0
1,22.200999975204468,learn,37799.00002479553,Wed Jun 11 2025 11:51:36 GMT-0400 (Eastern Daylight Time),141409.79999995232,A,wh,I,h,121,2,834.5,140575.29999995232,9013,WL,C,10.0
1,22.384000062942505,learn,37615.999937057495,Wed Jun 11 2025 11:51:36 GMT-0400 (Eastern Daylight Time),141592.0,A,whe,I,e,162,2,1016.7000000476837,140575.29999995232,9013,WL,C,10.0
1,22.51699995994568,learn,37483.00004005432,Wed Jun 11 2025 11:51:36 GMT-0400 (Eastern Daylight Time),141725.39999985695,A,whea,I,a,119,2,1150.0999999046326,140575.29999995232,9013,WL,C,10.0
1,22.76699995994568,learn,37233.00004005432,Wed Jun 11 2025 11:51:36 GMT-0400 (Eastern Daylight Time),141975.29999995232,A,wheat,I,t,232,2,1400.0,140575.29999995232,9013,WL,C,10.0
1,23.799999952316284,learn,36200.000047683716,Wed Jun 11 2025 11:51:36 GMT-0400 (Eastern Daylight Time),143008.19999980927,A,wheatenter,I,enter,1014,2,2432.899999856949,140575.29999995232,9013,WL,C,10.0
1,27.467000007629395,learn,32532.999992370605,Wed Jun 11 2025 11:51:36 GMT-0400 (Eastern Daylight Time),146674.89999985695,A,b,I,b,3656,2,3666.0999999046326,143008.79999995232,9013,WL,C,11.0
1,27.6010000705719,learn,32398.9999294281,Wed Jun 11 2025 11:51:36 GMT-0400 (Eastern Daylight Time),146808.79999995232,A,bo,I,o,126,2,3800.0,143008.79999995232,9013,WL,C,11.0
1,27.967000007629395,learn,32032.999992370605,Wed Jun 11 2025 11:51:36 GMT-0400 (Eastern Daylight Time),147175.5,A,boy,I,y,330,2,4166.700000047684,143008.79999995232,9013,WL,C,11.0
1,28.25,learn,31750.0,Wed Jun 11 2025 11:51:36 GMT-0400 (Eastern Daylight Time),147458.29999995232,A,boyenter,I,enter,261,2,4449.5,143008.79999995232,9013,WL,C,11.0
1,29.784000158309937,learn,30215.999841690063,Wed Jun 11 2025 11:51:36 GMT-0400 (Eastern Daylight Time),148992.5,A,c,I,c,1527,2,1533.9000000953674,147458.59999990463,9013,WL,C,12.0
1,29.983999967575073,learn,30016.000032424927,Wed Jun 11 2025 11:51:36 GMT-0400 (Eastern Daylight Time),149192.59999990463,A,ca,I,a,191,2,1734.0,147458.59999990463,9013,WL,C,12.0
1,30.317000150680542,learn,29682.999849319458,Wed Jun 11 2025 11:51:36 GMT-0400 (Eastern Daylight Time),149525.5,A,cam,I,m,308,2,2066.9000000953674,147458.59999990463,9013,WL,C,12.0
1,30.76699995994568,learn,29233.00004005432,Wed Jun 11 2025 11:51:36 GMT-0400 (Eastern Daylight Time),149975.29999995232,A,camp,I,p,434,2,2516.7000000476837,147458.59999990463,9013,WL,C,12.0
1,31.032999992370605,learn,28967.000007629395,Wed Jun 11 2025 11:51:36 GMT-0400 (Eastern Daylight Time),150241.59999990463,A,campenter,I,enter,245,2,2783.0,147458.59999990463,9013,WL,C,12.0
1,31.40000009536743,learn,28599.99990463257,Wed Jun 11 2025 11:51:36 GMT-0400 (Eastern Daylight Time),150608.69999980927,A,d,I,d,360,2,366.69999980926514,150242.0,9013,WL,C,13.0
1,31.549999952316284,learn,28450.000047683716,Wed Jun 11 2025 11:51:36 GMT-0400 (Eastern Daylight Time),150758.19999980927,A,do,I,o,134,2,516.1999998092651,150242.0,9013,WL,C,13.0
1,31.66700005531311,learn,28332.99994468689,Wed Jun 11 2025 11:51:36 GMT-0400 (Eastern Daylight Time),150875.29999995232,A,doc,I,c,97,2,633.2999999523163,150242.0,9013,WL,C,13.0
1,31.91700005531311,learn,28082.99994468689,Wed Jun 11 2025 11:51:36 GMT-0400 (Eastern Daylight Time),151125.29999995232,A,doct,I,t,227,2,883.2999999523163,150242.0,9013,WL,C,13.0
1,31.98300004005432,learn,28016.99995994568,Wed Jun 11 2025 11:51:36 GMT-0400 (Eastern Daylight Time),151191.59999990463,A,docto,I,o,38,2,949.5999999046326,150242.0,9013,WL,C,13.0
1,32.18300008773804,learn,27816.999912261963,Wed Jun 11 2025 11:51:36 GMT-0400 (Eastern Daylight Time),151391.79999995232,A,doctor,I,r,185,2,1149.7999999523163,150242.0,9013,WL,C,13.0
1,32.967000007629395,learn,27032.999992370605,Wed Jun 11 2025 11:51:36 GMT-0400 (Eastern Daylight Time),152174.89999985695,A,doctorenter,I,enter,760,2,1932.8999998569489,150242.0,9013,WL,C,13.0
1,41.06700015068054,learn,18932.999849319458,Wed Jun 11 2025 11:51:36 GMT-0400 (Eastern Daylight Time),160275.39999985695,A,f,I,f,8083,2,8100.099999904633,152175.29999995232,9013,WL,C,14.0
1,41.299999952316284,learn,18700.000047683716,Wed Jun 11 2025 11:51:36 GMT-0400 (Eastern Daylight Time),160508.59999990463,A,fl,I,l,219,2,8333.299999952316,152175.29999995232,9013,WL,C,14.0
1,41.65000009536743,learn,18349.99990463257,Wed Jun 11 2025 11:51:36 GMT-0400 (Eastern Daylight Time),160858.79999995232,A,fla,I,a,337,2,8683.5,152175.29999995232,9013,WL,C,14.0
1,41.801000118255615,learn,18198.999881744385,Wed Jun 11 2025 11:51:36 GMT-0400 (Eastern Daylight Time),161009.09999990463,A,flag,I,g,140,2,8833.799999952316,152175.29999995232,9013,WL,C,14.0
1,42.117000102996826,learn,17882.999897003174,Wed Jun 11 2025 11:51:36 GMT-0400 (Eastern Daylight Time),161324.89999985695,A,flagenter,I,enter,293,2,9149.599999904633,152175.29999995232,9013,WL,C,14.0
1,60.01699995994568,learn,-16.99995994567871,Wed Jun 11 2025 11:51:36 GMT-0400 (Eastern Daylight Time),179225.5,A,None,I,None,17893,2,17900.300000190735,161325.19999980927,9013,WL,C,15.0
2,2.4170000553131104,learn,57582.99994468689,Wed Jun 11 2025 11:51:36 GMT-0400 (Eastern Daylight Time),252425.59999990463,A,s,I,s,2406,2,2416.5,250009.09999990463,9013,WL,C,1.0
2,2.6000001430511475,learn,57399.99985694885,Wed Jun 11 2025 11:51:36 GMT-0400 (Eastern Daylight Time),252608.79999995232,A,sh,I,h,164,2,2599.7000000476837,250009.09999990463,9013,WL,C,1.0
2,2.9170000553131104,learn,57082.99994468689,Wed Jun 11 2025 11:51:36 GMT-0400 (Eastern Daylight Time),252925.5,A,sho,I,o,286,2,2916.4000000953674,250009.09999990463,9013,WL,C,1.0
2,3.1000001430511475,learn,56899.99985694885,Wed Jun 11 2025 11:51:36 GMT-0400 (Eastern Daylight Time),253108.79999995232,A,shor,I,r,170,2,3099.7000000476837,250009.09999990463,9013,WL,C,1.0
2,3.1670000553131104,learn,56832.99994468689,Wed Jun 11 2025 11:51:36 GMT-0400 (Eastern Daylight Time),253175.09999990463,A,shore,I,e,39,2,3166.0,250009.09999990463,9013,WL,C,1.0
2,3.4830000400543213,learn,56516.99995994568,Wed Jun 11 2025 11:51:36 GMT-0400 (Eastern Daylight Time),253491.59999990463,A,shoreenter,I,enter,296,2,3482.5,250009.09999990463,9013,WL,C,1.0
2,3.9170000553131104,learn,56082.99994468689,Wed Jun 11 2025 11:51:36 GMT-0400 (Eastern Daylight Time),253925.5,A,b,I,b,421,2,433.60000014305115,253491.89999985695,9013,WL,C,2.0
2,4.067000150680542,learn,55932.99984931946,Wed Jun 11 2025 11:51:36 GMT-0400 (Eastern Daylight Time),254075.39999985695,A,bo,I,o,128,2,583.5,253491.89999985695,9013,WL,C,2.0
2,4.434000015258789,learn,55565.99998474121,Wed Jun 11 2025 11:51:36 GMT-0400 (Eastern Daylight Time),254442.19999980927,A,bod,I,d,351,2,950.2999999523163,253491.89999985695,9013,WL,C,2.0
2,4.634000062942505,learn,55365.999937057495,Wed Jun 11 2025 11:51:36 GMT-0400 (Eastern Daylight Time),254642.09999990463,A,body,I,y,180,2,1150.2000000476837,253491.89999985695,9013,WL,C,2.0
2,4.9670000076293945,learn,55032.999992370605,Wed Jun 11 2025 11:51:36 GMT-0400 (Eastern Daylight Time),254975.09999990463,A,bodyenter,I,enter,314,2,1483.2000000476837,253491.89999985695,9013,WL,C,2.0
2,5.450000047683716,learn,54549.999952316284,Wed Jun 11 2025 11:51:36 GMT-0400 (Eastern Daylight Time),255458.89999985695,A,l,I,l,467,2,483.5,254975.39999985695,9013,WL,C,3.0
2,5.7170000076293945,learn,54282.999992370605,Wed Jun 11 2025 11:51:36 GMT-0400 (Eastern Daylight Time),255725.39999985695,A,le,I,e,252,2,750.0,254975.39999985695,9013,WL,C,3.0
2,5.9670000076293945,learn,54032.999992370605,Wed Jun 11 2025 11:51:36 GMT-0400 (Eastern Daylight Time),255975.39999985695,A,let,I,t,228,2,1000.0,254975.39999985695,9013,WL,C,3.0
2,6.134000062942505,learn,53865.999937057495,Wed Jun 11 2025 11:51:36 GMT-0400 (Eastern Daylight Time),256142.29999995232,A,lett,I,t,150,2,1166.9000000953674,254975.39999985695,9013,WL,C,3.0
2,6.317000150680542,learn,53682.99984931946,Wed Jun 11 2025 11:51:36 GMT-0400 (Eastern Daylight Time),256325.5,A,lette,I,e,168,2,1350.1000001430511,254975.39999985695,9013,WL,C,3.0
2,6.367000102996826,learn,53632.999897003174,Wed Jun 11 2025 11:51:36 GMT-0400 (Eastern Daylight Time),256375.29999995232,A,letter,I,r,31,2,1399.9000000953674,254975.39999985695,9013,WL,C,3.0
2,6.7170000076293945,learn,53282.999992370605,Wed Jun 11 2025 11:51:36 GMT-0400 (Eastern Daylight Time),256725.09999990463,A,letterenter,I,enter,338,2,1749.7000000476837,254975.39999985695,9013,WL,C,3.0
2,7.66700005531311,learn,52332.99994468689,Wed Jun 11 2025 11:51:36 GMT-0400 (Eastern Daylight Time),257675.39999985695,A,c,I,c,932,2,949.8999998569489,256725.5,9013,WL,C,4.0
2,7.7840001583099365,learn,52215.99984169006,Wed Jun 11 2025 11:51:36 GMT-0400 (Eastern Daylight Time),257792.0,A,co,I,o,82,2,1066.5,256725.5,9013,WL,C,4.0
2,8.017000198364258,learn,51982.99980163574,Wed Jun 11 2025 11:51:36 GMT-0400 (Eastern Daylight Time),258025.39999985695,A,cor,I,r,214,2,1299.8999998569489,256725.5,9013,WL,C,4.0
2,8.150000095367432,learn,51849.99990463257,Wed Jun 11 2025 11:51:36 GMT-0400 (Eastern Daylight Time),258158.79999995232,A,corn,I,n,107,2,1433.2999999523163,256725.5,9013,WL,C,4.0
2,8.450000047683716,learn,51549.999952316284,Wed Jun 11 2025 11:51:36 GMT-0400 (Eastern Daylight Time),258458.29999995232,A,cornenter,I,enter,280,2,1732.7999999523163,256725.5,9013,WL,C,4.0
2,8.867000102996826,learn,51132.999897003174,Wed Jun 11 2025 11:51:36 GMT-0400 (Eastern Daylight Time),258875.39999985695,A,n,I,n,407,2,416.7000000476837,258458.69999980927,9013,WL,C,5.0
2,9.151000022888184,learn,50848.99997711182,Wed Jun 11 2025 11:51:36 GMT-0400 (Eastern Daylight Time),259158.89999985695,A,na,I,a,260,2,700.2000000476837,258458.69999980927,9013,WL,C,5.0
2,9.267000198364258,learn,50732.99980163574,Wed Jun 11 2025 11:51:36 GMT-0400 (Eastern Daylight Time),259275.39999985695,A,nai,I,i,96,2,816.7000000476837,258458.69999980927,9013,WL,C,5.0
2,9.33400011062622,learn,50665.99988937378,Wed Jun 11 2025 11:51:36 GMT-0400 (Eastern Daylight Time),259341.79999995232,A,nail,I,l,48,2,883.1000001430511,258458.69999980927,9013,WL,C,5.0
2,9.75,learn,50250.0,Wed Jun 11 2025 11:51:36 GMT-0400 (Eastern Daylight Time),259758.39999985695,A,nailenter,I,enter,402,2,1299.7000000476837,258458.69999980927,9013,WL,C,5.0
2,10.567000150680542,learn,49432.99984931946,Wed Jun 11 2025 11:51:36 GMT-0400 (Eastern Daylight Time),260575.69999980927,A,c,I,c,803,2,816.8999998569489,259758.79999995232,9013,WL,C,6.0
2,10.767000198364258,learn,49232.99980163574,Wed Jun 11 2025 11:51:36 GMT-0400 (Eastern Daylight Time),260775.59999990463,A,ca,I,a,176,2,1016.7999999523163,259758.79999995232,9013,WL,C,6.0
2,11.08400011062622,learn,48915.99988937378,Wed Jun 11 2025 11:51:36 GMT-0400 (Eastern Daylight Time),261092.19999980927,A,cat,I,t,286,2,1333.3999998569489,259758.79999995232,9013,WL,C,6.0
2,11.217000007629395,learn,48782.999992370605,Wed Jun 11 2025 11:51:36 GMT-0400 (Eastern Daylight Time),261225.39999985695,A,catt,I,t,114,2,1466.5999999046326,259758.79999995232,9013,WL,C,6.0
2,11.301000118255615,learn,48698.999881744385,Wed Jun 11 2025 11:51:36 GMT-0400 (Eastern Daylight Time),261308.89999985695,A,cattl,I,l,69,2,1550.0999999046326,259758.79999995232,9013,WL,C,6.0
2,11.5,learn,48500.0,Wed Jun 11 2025 11:51:36 GMT-0400 (Eastern Daylight Time),261508.29999995232,A,cattle,I,e,175,2,1749.5,259758.79999995232,9013,WL,C,6.0
2,13.400000095367432,learn,46599.99990463257,Wed Jun 11 2025 11:51:36 GMT-0400 (Eastern Daylight Time),263408.5,A,cattleenter,I,enter,1884,2,3649.7000000476837,259758.79999995232,9013,WL,C,6.0
2,13.734000205993652,learn,46265.99979400635,Wed Jun 11 2025 11:51:36 GMT-0400 (Eastern Daylight Time),263742.19999980927,A,w,I,w,312,2,333.2999999523163,263408.89999985695,9013,WL,C,7.0
2,13.884000062942505,learn,46115.999937057495,Wed Jun 11 2025 11:51:36 GMT-0400 (Eastern Daylight Time),263892.19999980927,A,wh,I,h,129,2,483.2999999523163,263408.89999985695,9013,WL,C,7.0
2,13.967000007629395,learn,46032.999992370605,Wed Jun 11 2025 11:51:36 GMT-0400 (Eastern Daylight Time),263975.39999985695,A,whe,I,e,74,2,566.5,263408.89999985695,9013,WL,C,7.0
2,14.067000150680542,learn,45932.99984931946,Wed Jun 11 2025 11:51:36 GMT-0400 (Eastern Daylight Time),264075.39999985695,A,whea,I,a,79,2,666.5,263408.89999985695,9013,WL,C,7.0
2,14.317000150680542,learn,45682.99984931946,Wed Jun 11 2025 11:51:36 GMT-0400 (Eastern Daylight Time),264325.5,A,wheat,I,t,227,2,916.6000001430511,263408.89999985695,9013,WL,C,7.0
2,14.983000040054321,learn,45016.99995994568,Wed Jun 11 2025 11:51:36 GMT-0400 (Eastern Daylight Time),264991.69999980927,A,wheatenter,I,enter,653,2,1582.7999999523163,263408.89999985695,9013,WL,C,7.0
2,15.91700005531311,learn,44082.99994468689,Wed Jun 11 2025 11:51:36 GMT-0400 (Eastern Daylight Time),265925.59999990463,A,b,I,b,922,2,933.5999999046326,264992.0,9013,WL,C,8.0
2,16.017000198364258,learn,43982.99980163574,Wed Jun 11 2025 11:51:36 GMT-0400 (Eastern Daylight Time),266025.5,A,bo,I,o,80,2,1033.5,264992.0,9013,WL,C,8.0
2,16.267000198364258,learn,43732.99980163574,Wed Jun 11 2025 11:51:36 GMT-0400 (Eastern Daylight Time),266275.5,A,boy,I,y,226,2,1283.5,264992.0,9013,WL,C,8.0
2,16.550000190734863,learn,43449.99980926514,Wed Jun 11 2025 11:51:36 GMT-0400 (Eastern Daylight Time),266558.2999999523,A,boyenter,I,enter,257,2,1566.2999999523163,264992.0,9013,WL,C,8.0
2,16.90000009536743,learn,43099.99990463257,Wed Jun 11 2025 11:51:36 GMT-0400 (Eastern Daylight Time),266908.39999985695,A,d,I,d,331,2,349.7000000476837,266558.69999980927,9013,WL,C,9.0
2,17.050000190734863,learn,42949.99980926514,Wed Jun 11 2025 11:51:36 GMT-0400 (Eastern Daylight Time),267058.7999999523,A,do,I,o,141,2,500.10000014305115,266558.69999980927,9013,WL,C,9.0
2,17.18400001525879,learn,42815.99998474121,Wed Jun 11 2025 11:51:36 GMT-0400 (Eastern Daylight Time),267192.09999990463,A,doc,I,c,108,2,633.4000000953674,266558.69999980927,9013,WL,C,9.0
2,17.467000007629395,learn,42532.999992370605,Wed Jun 11 2025 11:51:36 GMT-0400 (Eastern Daylight Time),267475.39999985695,A,doct,I,t,253,2,916.7000000476837,266558.69999980927,9013,WL,C,9.0
2,17.550000190734863,learn,42449.99980926514,Wed Jun 11 2025 11:51:36 GMT-0400 (Eastern Daylight Time),267558.2999999523,A,docto,I,o,67,2,999.6000001430511,266558.69999980927,9013,WL,C,9.0
2,17.717000007629395,learn,42282.999992370605,Wed Jun 11 2025 11:51:36 GMT-0400 (Eastern Daylight Time),267725.59999990463,A,doctor,I,r,156,2,1166.9000000953674,266558.69999980927,9013,WL,C,9.0
2,17.784000158309937,learn,42215.99984169006,Wed Jun 11 2025 11:51:36 GMT-0400 (Eastern Daylight Time),267791.7999999523,A,doctore,I,e,55,2,1233.1000001430511,266558.69999980927,9013,WL,C,9.0
2,18.25100016593933,learn,41748.99983406067,Wed Jun 11 2025 11:51:36 GMT-0400 (Eastern Daylight Time),268258.7999999523,A,doctor,I,backspace,452,2,1700.1000001430511,266558.69999980927,9013,WL,C,9.0
2,18.782999992370605,learn,41217.000007629395,Wed Jun 11 2025 11:51:36 GMT-0400 (Eastern Daylight Time),268791.69999980927,A,doctorenter,I,enter,507,2,2233.0,266558.69999980927,9013,WL,C,9.0
2,19.784000158309937,learn,40215.99984169006,Wed Jun 11 2025 11:51:36 GMT-0400 (Eastern Daylight Time),269792.09999990463,A,f,I,f,978,2,1000.0999999046326,268792.0,9013,WL,C,10.0
2,19.901000022888184,learn,40098.99997711182,Wed Jun 11 2025 11:51:36 GMT-0400 (Eastern Daylight Time),269908.89999985695,A,fl,I,l,92,2,1116.8999998569489,268792.0,9013,WL,C,10.0
2,20.134000062942505,learn,39865.999937057495,Wed Jun 11 2025 11:51:36 GMT-0400 (Eastern Daylight Time),270142.09999990463,A,fla,I,a,208,2,1350.0999999046326,268792.0,9013,WL,C,10.0
2,20.284000158309937,learn,39715.99984169006,Wed Jun 11 2025 11:51:36 GMT-0400 (Eastern Daylight Time),270291.89999985695,A,flag,I,g,129,2,1499.8999998569489,268792.0,9013,WL,C,10.0
2,21.200000047683716,learn,38799.999952316284,Wed Jun 11 2025 11:51:36 GMT-0400 (Eastern Daylight Time),271208.2999999523,A,flagenter,I,enter,906,2,2416.2999999523163,268792.0,9013,WL,C,10.0
2,21.450000047683716,learn,38549.999952316284,Wed Jun 11 2025 11:51:36 GMT-0400 (Eastern Daylight Time),271458.7999999523,A,c,I,c,242,2,250.20000004768372,271208.59999990463,9013,WL,C,11.0
2,21.634000062942505,learn,38365.999937057495,Wed Jun 11 2025 11:51:36 GMT-0400 (Eastern Daylight Time),271642.39999985695,A,ca,I,a,167,2,433.7999999523163,271208.59999990463,9013,WL,C,11.0
2,21.800000190734863,learn,38199.99980926514,Wed Jun 11 2025 11:51:36 GMT-0400 (Eastern Daylight Time),271808.7999999523,A,cam,I,m,146,2,600.2000000476837,271208.59999990463,9013,WL,C,11.0
2,22.034000158309937,learn,37965.99984169006,Wed Jun 11 2025 11:51:36 GMT-0400 (Eastern Daylight Time),272042.19999980927,A,camp,I,p,222,2,833.5999999046326,271208.59999990463,9013,WL,C,11.0
2,22.58300018310547,learn,37416.99981689453,Wed Jun 11 2025 11:51:36 GMT-0400 (Eastern Daylight Time),272591.69999980927,A,campenter,I,enter,524,2,1383.0999999046326,271208.59999990463,9013,WL,C,11.0
2,22.984000205993652,learn,37015.99979400635,Wed Jun 11 2025 11:51:36 GMT-0400 (Eastern Daylight Time),272991.89999985695,A,h,I,h,385,2,399.7999999523163,272592.09999990463,9013,WL,C,12.0
2,23.1010000705719,learn,36898.9999294281,Wed Jun 11 2025 11:51:36 GMT-0400 (Eastern Daylight Time),273108.89999985695,A,ho,I,o,98,2,516.7999999523163,272592.09999990463,9013,WL,C,12.0
2,23.284000158309937,learn,36715.99984169006,Wed Jun 11 2025 11:51:36 GMT-0400 (Eastern Daylight Time),273292.19999980927,A,hom,I,m,153,2,700.0999999046326,272592.09999990463,9013,WL,C,12.0
2,23.567000150680542,learn,36432.99984931946,Wed Jun 11 2025 11:51:36 GMT-0400 (Eastern Daylight Time),273575.39999985695,A,home,I,e,257,2,983.2999999523163,272592.09999990463,9013,WL,C,12.0
2,24.183000087738037,learn,35816.99991226196,Wed Jun 11 2025 11:51:36 GMT-0400 (Eastern Daylight Time),274191.69999980927,A,homeenter,I,enter,591,2,1599.5999999046326,272592.09999990463,9013,WL,C,12.0
2,24.65000009536743,learn,35349.99990463257,Wed Jun 11 2025 11:51:36 GMT-0400 (Eastern Daylight Time),274658.69999980927,A,q,I,q,450,2,466.59999990463257,274192.09999990463,9013,WL,C,13.0
2,24.75,learn,35250.0,Wed Jun 11 2025 11:51:36 GMT-0400 (Eastern Daylight Time),274758.7999999523,A,qu,I,u,70,2,566.7000000476837,274192.09999990463,9013,WL,C,13.0
2,24.984000205993652,learn,35015.99979400635,Wed Jun 11 2025 11:51:36 GMT-0400 (Eastern Daylight Time),274992.2999999523,A,que,I,e,202,2,800.2000000476837,274192.09999990463,9013,WL,C,13.0
2,25.18400001525879,learn,34815.99998474121,Wed Jun 11 2025 11:51:36 GMT-0400 (Eastern Daylight Time),275192.19999980927,A,quee,I,e,173,2,1000.0999999046326,274192.09999990463,9013,WL,C,13.0
2,25.284000158309937,learn,34715.99984169006,Wed Jun 11 2025 11:51:36 GMT-0400 (Eastern Daylight Time),275292.19999980927,A,queen,I,n,79,2,1100.0999999046326,274192.09999990463,9013,WL,C,13.0
2,25.767000198364258,learn,34232.99980163574,Wed Jun 11 2025 11:51:36 GMT-0400 (Eastern Daylight Time),275775.0,A,queenenter,I,enter,466,2,1582.9000000953674,274192.09999990463,9013,WL,C,13.0
2,26.16700005531311,learn,33832.99994468689,Wed Jun 11 2025 11:51:36 GMT-0400 (Eastern Daylight Time),276175.59999990463,A,s,I,s,387,2,400.2000000476837,275775.39999985695,9013,WL,C,14.0
2,26.234000205993652,learn,33765.99979400635,Wed Jun 11 2025 11:51:36 GMT-0400 (Eastern Daylight Time),276242.09999990463,A,su,I,u,55,2,466.7000000476837,275775.39999985695,9013,WL,C,14.0
2,26.5,learn,33500.0,Wed Jun 11 2025 11:51:36 GMT-0400 (Eastern Daylight Time),276508.7999999523,A,suf,I,f,243,2,733.4000000953674,275775.39999985695,9013,WL,C,14.0
2,26.850000143051147,learn,33149.99985694885,Wed Jun 11 2025 11:51:36 GMT-0400 (Eastern Daylight Time),276858.7999999523,A,su,I,backspace,330,2,1083.4000000953674,275775.39999985695,9013,WL,C,14.0
2,27.1010000705719,learn,32898.9999294281,Wed Jun 11 2025 11:51:36 GMT-0400 (Eastern Daylight Time),277109.19999980927,A,sug,I,g,228,2,1333.7999999523163,275775.39999985695,9013,WL,C,14.0
2,27.18400001525879,learn,32815.99998474121,Wed Jun 11 2025 11:51:36 GMT-0400 (Eastern Daylight Time),277191.7999999523,A,suga,I,a,63,2,1416.4000000953674,275775.39999985695,9013,WL,C,14.0
2,27.41700005531311,learn,32582.99994468689,Wed Jun 11 2025 11:51:36 GMT-0400 (Eastern Daylight Time),277425.69999980927,A,sugar,I,r,212,2,1650.2999999523163,275775.39999985695,9013,WL,C,14.0
2,28.017000198364258,learn,31982.999801635742,Wed Jun 11 2025 11:51:36 GMT-0400 (Eastern Daylight Time),278025.0,A,sugarenter,I,enter,581,2,2249.600000143051,275775.39999985695,9013,WL,C,14.0
2,28.41700005531311,learn,31582.99994468689,Wed Jun 11 2025 11:51:36 GMT-0400 (Eastern Daylight Time),278425.39999985695,A,t,I,t,384,2,400.0,278025.39999985695,9013,WL,C,15.0
2,28.617000102996826,learn,31382.999897003174,Wed Jun 11 2025 11:51:36 GMT-0400 (Eastern Daylight Time),278625.39999985695,A,to,I,o,182,2,600.0,278025.39999985695,9013,WL,C,15.0
2,28.817000150680542,learn,31182.999849319458,Wed Jun 11 2025 11:51:36 GMT-0400 (Eastern Daylight Time),278825.09999990463,A,tow,I,w,172,2,799.7000000476837,278025.39999985695,9013,WL,C,15.0
2,28.950000047683716,learn,31049.999952316284,Wed Jun 11 2025 11:51:36 GMT-0400 (Eastern Daylight Time),278958.69999980927,A,towe,I,e,112,2,933.2999999523163,278025.39999985695,9013,WL,C,15.0
2,29.15000009536743,learn,30849.99990463257,Wed Jun 11 2025 11:51:36 GMT-0400 (Eastern Daylight Time),279158.7999999523,A,tower,I,r,175,2,1133.4000000953674,278025.39999985695,9013,WL,C,15.0
2,29.83300018310547,learn,30166.99981689453,Wed Jun 11 2025 11:51:36 GMT-0400 (Eastern Daylight Time),279841.69999980927,A,towerenter,I,enter,671,2,1816.2999999523163,278025.39999985695,9013,WL,C,15.0
3,1.1000001430511475,learn,58899.99985694885,Wed Jun 11 2025 11:51:36 GMT-0400 (Eastern Daylight Time),347775.69999980927,A,t,I,t,1084,2,1099.7999999523163,346675.89999985695,9013,WL,C,1.0
3,1.3340001106262207,learn,58665.99988937378,Wed Jun 11 2025 11:51:36 GMT-0400 (Eastern Daylight Time),348008.89999985695,A,to,I,o,215,2,1333.0,346675.89999985695,9013,WL,C,1.0
3,1.6500000953674316,learn,58349.99990463257,Wed Jun 11 2025 11:51:36 GMT-0400 (Eastern Daylight Time),348325.69999980927,A,tow,I,w,295,2,1649.7999999523163,346675.89999985695,9013,WL,C,1.0
3,1.8680000305175781,learn,58131.99996948242,Wed Jun 11 2025 11:51:36 GMT-0400 (Eastern Daylight Time),348543.19999980927,A,towe,I,e,206,2,1867.2999999523163,346675.89999985695,9013,WL,C,1.0
3,2.0840001106262207,learn,57915.99988937378,Wed Jun 11 2025 11:51:36 GMT-0400 (Eastern Daylight Time),348758.89999985695,A,tower,I,r,203,2,2083.0,346675.89999985695,9013,WL,C,1.0
3,2.633000135421753,learn,57366.99986457825,Wed Jun 11 2025 11:51:36 GMT-0400 (Eastern Daylight Time),349308.39999985695,A,towerenter,I,enter,526,2,2632.5,346675.89999985695,9013,WL,C,1.0
3,3.4000000953674316,learn,56599.99990463257,Wed Jun 11 2025 11:51:36 GMT-0400 (Eastern Daylight Time),350075.39999985695,A,q,I,q,757,2,766.5,349308.89999985695,9013,WL,C,2.0
3,3.5169999599456787,learn,56483.00004005432,Wed Jun 11 2025 11:51:36 GMT-0400 (Eastern Daylight Time),350192.89999985695,A,qu,I,u,108,2,884.0,349308.89999985695,9013,WL,C,2.0
3,3.8500001430511475,learn,56149.99985694885,Wed Jun 11 2025 11:51:36 GMT-0400 (Eastern Daylight Time),350525.59999990463,A,que,I,e,317,2,1216.7000000476837,349308.89999985695,9013,WL,C,2.0
3,4.016999959945679,learn,55983.00004005432,Wed Jun 11 2025 11:51:36 GMT-0400 (Eastern Daylight Time),350692.2999999523,A,quee,I,e,153,2,1383.4000000953674,349308.89999985695,9013,WL,C,2.0
3,4.184000015258789,learn,55815.99998474121,Wed Jun 11 2025 11:51:36 GMT-0400 (Eastern Daylight Time),350858.89999985695,A,queen,I,n,154,2,1550.0,349308.89999985695,9013,WL,C,2.0
3,4.6000001430511475,learn,55399.99985694885,Wed Jun 11 2025 11:51:36 GMT-0400 (Eastern Daylight Time),351275.09999990463,A,queenenter,I,enter,403,2,1966.2000000476837,349308.89999985695,9013,WL,C,2.0
3,5.084000110626221,learn,54915.99988937378,Wed Jun 11 2025 11:51:36 GMT-0400 (Eastern Daylight Time),351758.89999985695,A,w,I,w,470,2,483.5,351275.39999985695,9013,WL,C,3.0
3,5.184000015258789,learn,54815.99998474121,Wed Jun 11 2025 11:51:36 GMT-0400 (Eastern Daylight Time),351859.09999990463,A,wh,I,h,80,2,583.7000000476837,351275.39999985695,9013,WL,C,3.0
3,5.400000095367432,learn,54599.99990463257,Wed Jun 11 2025 11:51:36 GMT-0400 (Eastern Daylight Time),352075.5,A,whe,I,e,196,2,800.1000001430511,351275.39999985695,9013,WL,C,3.0
3,5.567000150680542,learn,54432.99984931946,Wed Jun 11 2025 11:51:36 GMT-0400 (Eastern Daylight Time),352242.19999980927,A,whea,I,a,151,2,966.7999999523163,351275.39999985695,9013,WL,C,3.0
3,5.700000047683716,learn,54299.999952316284,Wed Jun 11 2025 11:51:36 GMT-0400 (Eastern Daylight Time),352375.5,A,wheat,I,t,108,2,1100.1000001430511,351275.39999985695,9013,WL,C,3.0
3,6.383000135421753,learn,53616.99986457825,Wed Jun 11 2025 11:51:36 GMT-0400 (Eastern Daylight Time),353058.5,A,wheatenter,I,enter,655,2,1783.1000001430511,351275.39999985695,9013,WL,C,3.0
3,6.9670000076293945,learn,53032.999992370605,Wed Jun 11 2025 11:51:36 GMT-0400 (Eastern Daylight Time),353642.19999980927,A,s,I,s,575,2,583.2999999523163,353058.89999985695,9013,WL,C,4.0
3,7.084000110626221,learn,52915.99988937378,Wed Jun 11 2025 11:51:36 GMT-0400 (Eastern Daylight Time),353758.89999985695,A,su,I,u,86,2,700.0,353058.89999985695,9013,WL,C,4.0
3,7.317000150680542,learn,52682.99984931946,Wed Jun 11 2025 11:51:36 GMT-0400 (Eastern Daylight Time),353992.2999999523,A,sug,I,g,200,2,933.4000000953674,353058.89999985695,9013,WL,C,4.0
3,7.41700005531311,learn,52582.99994468689,Wed Jun 11 2025 11:51:36 GMT-0400 (Eastern Daylight Time),354092.19999980927,A,suga,I,a,86,2,1033.2999999523163,353058.89999985695,9013,WL,C,4.0
3,7.7170000076293945,learn,52282.999992370605,Wed Jun 11 2025 11:51:36 GMT-0400 (Eastern Daylight Time),354392.2999999523,A,sugar,I,r,275,2,1333.4000000953674,353058.89999985695,9013,WL,C,4.0
3,8.516999959945679,learn,51483.00004005432,Wed Jun 11 2025 11:51:36 GMT-0400 (Eastern Daylight Time),355191.89999985695,A,sugarenter,I,enter,789,2,2133.0,353058.89999985695,9013,WL,C,4.0
3,9.184000015258789,learn,50815.99998474121,Wed Jun 11 2025 11:51:36 GMT-0400 (Eastern Daylight Time),355858.89999985695,A,h,I,h,658,2,666.7999999523163,355192.09999990463,9013,WL,C,5.0
3,9.284000158309937,learn,50715.99984169006,Wed Jun 11 2025 11:51:36 GMT-0400 (Eastern Daylight Time),355959.0,A,ho,I,o,77,2,766.9000000953674,355192.09999990463,9013,WL,C,5.0
3,9.467000007629395,learn,50532.999992370605,Wed Jun 11 2025 11:51:36 GMT-0400 (Eastern Daylight Time),356142.2999999523,A,hom,I,m,160,2,950.2000000476837,355192.09999990463,9013,WL,C,5.0
3,9.799999952316284,learn,50200.000047683716,Wed Jun 11 2025 11:51:36 GMT-0400 (Eastern Daylight Time),356475.59999990463,A,home,I,e,310,2,1283.5,355192.09999990463,9013,WL,C,5.0
3,10.467000007629395,learn,49532.999992370605,Wed Jun 11 2025 11:51:36 GMT-0400 (Eastern Daylight Time),357141.7999999523,A,homeenter,I,enter,643,2,1949.7000000476837,355192.09999990463,9013,WL,C,5.0
3,11.766999959945679,learn,48233.00004005432,Wed Jun 11 2025 11:51:36 GMT-0400 (Eastern Daylight Time),358442.19999980927,A,b,I,b,1284,2,1300.0999999046326,357142.09999990463,9013,WL,C,6.0
3,11.967000007629395,learn,48032.999992370605,Wed Jun 11 2025 11:51:36 GMT-0400 (Eastern Daylight Time),358642.0,A,bo,I,o,185,2,1499.9000000953674,357142.09999990463,9013,WL,C,6.0
3,12.284000158309937,learn,47715.99984169006,Wed Jun 11 2025 11:51:36 GMT-0400 (Eastern Daylight Time),358958.89999985695,A,boy,I,y,300,2,1816.7999999523163,357142.09999990463,9013,WL,C,6.0
3,12.700000047683716,learn,47299.999952316284,Wed Jun 11 2025 11:51:36 GMT-0400 (Eastern Daylight Time),359375.69999980927,A,boyenter,I,enter,396,2,2233.5999999046326,357142.09999990463,9013,WL,C,6.0
3,13.317000150680542,learn,46682.99984931946,Wed Jun 11 2025 11:51:36 GMT-0400 (Eastern Daylight Time),359992.2999999523,A,d,I,d,601,2,616.1000001430511,359376.19999980927,9013,WL,C,7.0
3,13.5,learn,46500.0,Wed Jun 11 2025 11:51:36 GMT-0400 (Eastern Daylight Time),360175.59999990463,A,do,I,o,154,2,799.4000000953674,359376.19999980927,9013,WL,C,7.0
3,13.617000102996826,learn,46382.999897003174,Wed Jun 11 2025 11:51:36 GMT-0400 (Eastern Daylight Time),360292.2999999523,A,doc,I,c,94,2,916.1000001430511,359376.19999980927,9013,WL,C,7.0
3,13.934000015258789,learn,46065.99998474121,Wed Jun 11 2025 11:51:36 GMT-0400 (Eastern Daylight Time),360608.7999999523,A,doct,I,t,288,2,1232.6000001430511,359376.19999980927,9013,WL,C,7.0
3,14.049999952316284,learn,45950.000047683716,Wed Jun 11 2025 11:51:36 GMT-0400 (Eastern Daylight Time),360725.59999990463,A,docto,I,o,94,2,1349.4000000953674,359376.19999980927,9013,WL,C,7.0
3,14.25,learn,45750.0,Wed Jun 11 2025 11:51:36 GMT-0400 (Eastern Daylight Time),360925.59999990463,A,doctor,I,r,176,2,1549.4000000953674,359376.19999980927,9013,WL,C,7.0
3,14.717000007629395,learn,45282.999992370605,Wed Jun 11 2025 11:51:36 GMT-0400 (Eastern Daylight Time),361391.89999985695,A,doctorenter,I,enter,438,2,2015.7000000476837,359376.19999980927,9013,WL,C,7.0
3,15.117000102996826,learn,44882.999897003174,Wed Jun 11 2025 11:51:36 GMT-0400 (Eastern Daylight Time),361792.09999990463,A,c,I,c,377,2,399.90000009536743,361392.19999980927,9013,WL,C,8.0
3,15.284000158309937,learn,44715.99984169006,Wed Jun 11 2025 11:51:36 GMT-0400 (Eastern Daylight Time),361959.0,A,ca,I,a,152,2,566.8000001907349,361392.19999980927,9013,WL,C,8.0
3,15.434000015258789,learn,44565.99998474121,Wed Jun 11 2025 11:51:36 GMT-0400 (Eastern Daylight Time),362109.19999980927,A,cam,I,m,133,2,717.0,361392.19999980927,9013,WL,C,8.0
3,15.850000143051147,learn,44149.99985694885,Wed Jun 11 2025 11:51:36 GMT-0400 (Eastern Daylight Time),362525.5,A,camp,I,p,383,2,1133.3000001907349,361392.19999980927,9013,WL,C,8.0
3,16.31599998474121,learn,43684.00001525879,Wed Jun 11 2025 11:51:36 GMT-0400 (Eastern Daylight Time),362991.7999999523,A,campenter,I,enter,456,2,1599.6000001430511,361392.19999980927,9013,WL,C,8.0
3,16.75,learn,43250.0,Wed Jun 11 2025 11:51:36 GMT-0400 (Eastern Daylight Time),363425.2999999523,A,f,I,f,426,2,433.2000000476837,362992.09999990463,9013,WL,C,9.0
3,16.933000087738037,learn,43066.99991226196,Wed Jun 11 2025 11:51:36 GMT-0400 (Eastern Daylight Time),363608.7999999523,A,fl,I,l,164,2,616.7000000476837,362992.09999990463,9013,WL,C,9.0
3,17.134000062942505,learn,42865.999937057495,Wed Jun 11 2025 11:51:36 GMT-0400 (Eastern Daylight Time),363808.89999985695,A,fla,I,a,165,2,816.7999999523163,362992.09999990463,9013,WL,C,9.0
3,17.367000102996826,learn,42632.999897003174,Wed Jun 11 2025 11:51:36 GMT-0400 (Eastern Daylight Time),364042.2999999523,A,flag,I,g,222,2,1050.2000000476837,362992.09999990463,9013,WL,C,9.0
3,18.183000087738037,learn,41816.99991226196,Wed Jun 11 2025 11:51:36 GMT-0400 (Eastern Daylight Time),364858.5,A,flagenter,I,enter,793,2,1866.4000000953674,362992.09999990463,9013,WL,C,9.0
3,19.784000158309937,learn,40215.99984169006,Wed Jun 11 2025 11:51:36 GMT-0400 (Eastern Daylight Time),366458.89999985695,A,n,I,n,1591,2,1600.0999999046326,364858.7999999523,9013,WL,C,10.0
3,20.134000062942505,learn,39865.999937057495,Wed Jun 11 2025 11:51:36 GMT-0400 (Eastern Daylight Time),366808.89999985695,A,na,I,a,330,2,1950.0999999046326,364858.7999999523,9013,WL,C,10.0
3,20.26699995994568,learn,39733.00004005432,Wed Jun 11 2025 11:51:36 GMT-0400 (Eastern Daylight Time),366941.7999999523,A,nai,I,i,110,2,2083.0,364858.7999999523,9013,WL,C,10.0
3,20.31599998474121,learn,39684.00001525879,Wed Jun 11 2025 11:51:36 GMT-0400 (Eastern Daylight Time),366991.39999985695,A,nail,I,l,35,2,2132.5999999046326,364858.7999999523,9013,WL,C,10.0
3,20.799999952316284,learn,39200.000047683716,Wed Jun 11 2025 11:51:36 GMT-0400 (Eastern Daylight Time),367475.19999980927,A,nailenter,I,enter,473,2,2616.399999856949,364858.7999999523,9013,WL,C,10.0
3,21.41700005531311,learn,38582.99994468689,Wed Jun 11 2025 11:51:36 GMT-0400 (Eastern Daylight Time),368092.19999980927,A,c,I,c,599,2,616.5999999046326,367475.59999990463,9013,WL,C,11.0
3,21.5,learn,38500.0,Wed Jun 11 2025 11:51:36 GMT-0400 (Eastern Daylight Time),368175.69999980927,A,co,I,o,59,2,700.0999999046326,367475.59999990463,9013,WL,C,11.0
3,21.700000047683716,learn,38299.999952316284,Wed Jun 11 2025 11:51:36 GMT-0400 (Eastern Daylight Time),368375.5,A,cor,I,r,167,2,899.9000000953674,367475.59999990463,9013,WL,C,11.0
3,21.867000102996826,learn,38132.999897003174,Wed Jun 11 2025 11:51:36 GMT-0400 (Eastern Daylight Time),368542.39999985695,A,corn,I,n,142,2,1066.7999999523163,367475.59999990463,9013,WL,C,11.0
3,22.299999952316284,learn,37700.000047683716,Wed Jun 11 2025 11:51:36 GMT-0400 (Eastern Daylight Time),368975.0,A,cornenter,I,enter,414,2,1499.4000000953674,367475.59999990463,9013,WL,C,11.0
3,23.034000158309937,learn,36965.99984169006,Wed Jun 11 2025 11:51:36 GMT-0400 (Eastern Daylight Time),369708.89999985695,A,c,I,c,715,2,733.7000000476837,368975.19999980927,9013,WL,C,12.0
3,23.233999967575073,learn,36766.00003242493,Wed Jun 11 2025 11:51:36 GMT-0400 (Eastern Daylight Time),369908.89999985695,A,ca,I,a,176,2,933.7000000476837,368975.19999980927,9013,WL,C,12.0
3,23.534000158309937,learn,36465.99984169006,Wed Jun 11 2025 11:51:36 GMT-0400 (Eastern Daylight Time),370209.0,A,cat,I,t,280,2,1233.8000001907349,368975.19999980927,9013,WL,C,12.0
3,23.66700005531311,learn,36332.99994468689,Wed Jun 11 2025 11:51:36 GMT-0400 (Eastern Daylight Time),370341.89999985695,A,catt,I,t,116,2,1366.7000000476837,368975.19999980927,9013,WL,C,12.0
3,23.784000158309937,learn,36215.99984169006,Wed Jun 11 2025 11:51:36 GMT-0400 (Eastern Daylight Time),370458.89999985695,A,cattl,I,l,106,2,1483.7000000476837,368975.19999980927,9013,WL,C,12.0
3,24.01699995994568,learn,35983.00004005432,Wed Jun 11 2025 11:51:36 GMT-0400 (Eastern Daylight Time),370692.5,A,cattle,I,e,214,2,1717.3000001907349,368975.19999980927,9013,WL,C,12.0
3,24.817000150680542,learn,35182.99984931946,Wed Jun 11 2025 11:51:36 GMT-0400 (Eastern Daylight Time),371491.7999999523,A,cattleenter,I,enter,783,2,2516.600000143051,368975.19999980927,9013,WL,C,12.0
3,25.317000150680542,learn,34682.99984931946,Wed Jun 11 2025 11:51:36 GMT-0400 (Eastern Daylight Time),371992.39999985695,A,l,I,l,494,2,500.2000000476837,371492.19999980927,9013,WL,C,13.0
3,25.450000047683716,learn,34549.999952316284,Wed Jun 11 2025 11:51:36 GMT-0400 (Eastern Daylight Time),372125.59999990463,A,le,I,e,111,2,633.4000000953674,371492.19999980927,9013,WL,C,13.0
3,25.784000158309937,learn,34215.99984169006,Wed Jun 11 2025 11:51:36 GMT-0400 (Eastern Daylight Time),372459.0,A,let,I,t,312,2,966.8000001907349,371492.19999980927,9013,WL,C,13.0
3,26.0,learn,34000.0,Wed Jun 11 2025 11:51:36 GMT-0400 (Eastern Daylight Time),372675.69999980927,A,lett,I,t,194,2,1183.5,371492.19999980927,9013,WL,C,13.0
3,26.25,learn,33750.0,Wed Jun 11 2025 11:51:36 GMT-0400 (Eastern Daylight Time),372925.69999980927,A,lette,I,e,236,2,1433.5,371492.19999980927,9013,WL,C,13.0
3,26.350000143051147,learn,33649.99985694885,Wed Jun 11 2025 11:51:36 GMT-0400 (Eastern Daylight Time),373025.59999990463,A,letter,I,r,82,2,1533.4000000953674,371492.19999980927,9013,WL,C,13.0
3,26.766000032424927,learn,33233.99996757507,Wed Jun 11 2025 11:51:36 GMT-0400 (Eastern Daylight Time),373441.7999999523,A,letterenter,I,enter,395,2,1949.6000001430511,371492.19999980927,9013,WL,C,13.0
3,27.799999952316284,learn,32200.000047683716,Wed Jun 11 2025 11:51:36 GMT-0400 (Eastern Daylight Time),374475.59999990463,A,s,I,s,1016,2,1033.5,373442.09999990463,9013,WL,C,14.0
3,28.0,learn,32000.0,Wed Jun 11 2025 11:51:36 GMT-0400 (Eastern Daylight Time),374675.59999990463,A,sh,I,h,180,2,1233.5,373442.09999990463,9013,WL,C,14.0
3,28.217000007629395,learn,31782.999992370605,Wed Jun 11 2025 11:51:36 GMT-0400 (Eastern Daylight Time),374892.2999999523,A,sho,I,o,202,2,1450.2000000476837,373442.09999990463,9013,WL,C,14.0
3,28.40000009536743,learn,31599.99990463257,Wed Jun 11 2025 11:51:36 GMT-0400 (Eastern Daylight Time),375075.5,A,shor,I,r,154,2,1633.4000000953674,373442.09999990463,9013,WL,C,14.0
3,28.467000007629395,learn,31532.999992370605,Wed Jun 11 2025 11:51:36 GMT-0400 (Eastern Daylight Time),375141.89999985695,A,shore,I,e,33,2,1699.7999999523163,373442.09999990463,9013,WL,C,14.0
3,28.716000080108643,learn,31283.999919891357,Wed Jun 11 2025 11:51:36 GMT-0400 (Eastern Daylight Time),375391.7999999523,A,shoreenter,I,enter,227,2,1949.7000000476837,373442.09999990463,9013,WL,C,14.0
3,29.100000143051147,learn,30899.999856948853,Wed Jun 11 2025 11:51:36 GMT-0400 (Eastern Daylight Time),375775.69999980927,A,b,I,b,362,2,383.59999990463257,375392.09999990463,9013,WL,C,15.0
3,29.200000047683716,learn,30799.999952316284,Wed Jun 11 2025 11:51:36 GMT-0400 (Eastern Daylight Time),375875.59999990463,A,bo,I,o,78,2,483.5,375392.09999990463,9013,WL,C,15.0
3,29.467000007629395,learn,30532.999992370605,Wed Jun 11 2025 11:51:36 GMT-0400 (Eastern Daylight Time),376142.39999985695,A,bod,I,d,234,2,750.2999999523163,375392.09999990463,9013,WL,C,15.0
3,29.617000102996826,learn,30382.999897003174,Wed Jun 11 2025 11:51:36 GMT-0400 (Eastern Daylight Time),376292.2999999523,A,body,I,y,126,2,900.2000000476837,375392.09999990463,9013,WL,C,15.0
3,30.25,learn,29750.0,Wed Jun 11 2025 11:51:36 GMT-0400 (Eastern Daylight Time),376925.19999980927,A,bodyenter,I,enter,610,2,1533.0999999046326,375392.09999990463,9013,WL,C,15.0
4,1.066999912261963,learn,58933.00008773804,Wed Jun 11 2025 11:51:36 GMT-0400 (Eastern Daylight Time),444625.2999999523,A,t,I,t,1047,2,1065.7999999523163,443559.5,9013,WL,C,1.0
4,1.3009998798370361,learn,58699.000120162964,Wed Jun 11 2025 11:51:36 GMT-0400 (Eastern Daylight Time),444859.0,A,to,I,o,215,2,1299.5,443559.5,9013,WL,C,1.0
4,1.5839998722076416,learn,58416.00012779236,Wed Jun 11 2025 11:51:36 GMT-0400 (Eastern Daylight Time),445142.2999999523,A,tow,I,w,258,2,1582.7999999523163,443559.5,9013,WL,C,1.0
4,1.7009999752044678,learn,58299.00002479553,Wed Jun 11 2025 11:51:36 GMT-0400 (Eastern Daylight Time),445258.89999985695,A,towe,I,e,98,2,1699.3999998569489,443559.5,9013,WL,C,1.0
4,1.9179999828338623,learn,58082.00001716614,Wed Jun 11 2025 11:51:36 GMT-0400 (Eastern Daylight Time),445476.0,A,tower,I,r,191,2,1916.5,443559.5,9013,WL,C,1.0
4,2.566999912261963,learn,57433.00008773804,Wed Jun 11 2025 11:51:36 GMT-0400 (Eastern Daylight Time),446125.19999980927,A,towerenter,I,enter,637,2,2565.699999809265,443559.5,9013,WL,C,1.0
4,4.366999864578247,learn,55633.00013542175,Wed Jun 11 2025 11:51:36 GMT-0400 (Eastern Daylight Time),447925.0,A,w,I,w,1780,2,1799.5,446125.5,9013,WL,C,2.0
4,4.616999864578247,learn,55383.00013542175,Wed Jun 11 2025 11:51:36 GMT-0400 (Eastern Daylight Time),448175.59999990463,A,wh,I,h,237,2,2050.0999999046326,446125.5,9013,WL,C,2.0
4,4.866999864578247,learn,55133.00013542175,Wed Jun 11 2025 11:51:36 GMT-0400 (Eastern Daylight Time),448425.69999980927,A,whe,I,e,223,2,2300.199999809265,446125.5,9013,WL,C,2.0
4,5.0,learn,55000.0,Wed Jun 11 2025 11:51:36 GMT-0400 (Eastern Daylight Time),448558.7999999523,A,whea,I,a,100,2,2433.2999999523163,446125.5,9013,WL,C,2.0
4,5.099999904632568,learn,54900.00009536743,Wed Jun 11 2025 11:51:36 GMT-0400 (Eastern Daylight Time),448658.39999985695,A,wheat,I,t,80,2,2532.899999856949,446125.5,9013,WL,C,2.0
4,5.783999919891357,learn,54216.00008010864,Wed Jun 11 2025 11:51:36 GMT-0400 (Eastern Daylight Time),449341.7999999523,A,wheatenter,I,enter,670,2,3216.2999999523163,446125.5,9013,WL,C,2.0
4,6.434000015258789,learn,53565.99998474121,Wed Jun 11 2025 11:51:36 GMT-0400 (Eastern Daylight Time),449992.59999990463,A,q,I,q,635,2,650.4000000953674,449342.19999980927,9013,WL,C,3.0
4,6.533999919891357,learn,53466.00008010864,Wed Jun 11 2025 11:51:36 GMT-0400 (Eastern Daylight Time),450092.39999985695,A,qu,I,u,86,2,750.2000000476837,449342.19999980927,9013,WL,C,3.0
4,6.766999959945679,learn,53233.00004005432,Wed Jun 11 2025 11:51:36 GMT-0400 (Eastern Daylight Time),450325.0,A,que,I,e,218,2,982.8000001907349,449342.19999980927,9013,WL,C,3.0
4,6.932999849319458,learn,53067.00015068054,Wed Jun 11 2025 11:51:36 GMT-0400 (Eastern Daylight Time),450491.69999980927,A,quee,I,e,153,2,1149.5,449342.19999980927,9013,WL,C,3.0
4,7.066999912261963,learn,52933.00008773804,Wed Jun 11 2025 11:51:36 GMT-0400 (Eastern Daylight Time),450625.0,A,queen,I,n,117,2,1282.8000001907349,449342.19999980927,9013,WL,C,3.0
4,7.3999998569488525,learn,52600.00014305115,Wed Jun 11 2025 11:51:36 GMT-0400 (Eastern Daylight Time),450958.19999980927,A,queenenter,I,enter,312,2,1616.0,449342.19999980927,9013,WL,C,3.0
4,8.066999912261963,learn,51933.00008773804,Wed Jun 11 2025 11:51:36 GMT-0400 (Eastern Daylight Time),451625.09999990463,A,s,I,s,651,2,666.5999999046326,450958.5,9013,WL,C,4.0
4,8.166999816894531,learn,51833.00018310547,Wed Jun 11 2025 11:51:36 GMT-0400 (Eastern Daylight Time),451725.09999990463,A,su,I,u,88,2,766.5999999046326,450958.5,9013,WL,C,4.0
4,8.366999864578247,learn,51633.00013542175,Wed Jun 11 2025 11:51:36 GMT-0400 (Eastern Daylight Time),451924.89999985695,A,sug,I,g,188,2,966.3999998569489,450958.5,9013,WL,C,4.0
4,8.467000007629395,learn,51532.999992370605,Wed Jun 11 2025 11:51:36 GMT-0400 (Eastern Daylight Time),452024.89999985695,A,suga,I,a,84,2,1066.3999998569489,450958.5,9013,WL,C,4.0
4,8.682999849319458,learn,51317.00015068054,Wed Jun 11 2025 11:51:36 GMT-0400 (Eastern Daylight Time),452241.69999980927,A,sugar,I,r,200,2,1283.1999998092651,450958.5,9013,WL,C,4.0
4,9.149999856948853,learn,50850.00014305115,Wed Jun 11 2025 11:51:36 GMT-0400 (Eastern Daylight Time),452708.5,A,sugarenter,I,enter,446,2,1750.0,450958.5,9013,WL,C,4.0
4,9.816999912261963,learn,50183.00008773804,Wed Jun 11 2025 11:51:36 GMT-0400 (Eastern Daylight Time),453375.0,A,h,I,h,652,2,666.3000001907349,452708.69999980927,9013,WL,C,5.0
4,9.899999856948853,learn,50100.00014305115,Wed Jun 11 2025 11:51:36 GMT-0400 (Eastern Daylight Time),453458.39999985695,A,ho,I,o,66,2,749.7000000476837,452708.69999980927,9013,WL,C,5.0
4,10.08299994468689,learn,49917.00005531311,Wed Jun 11 2025 11:51:36 GMT-0400 (Eastern Daylight Time),453641.69999980927,A,hom,I,m,166,2,933.0,452708.69999980927,9013,WL,C,5.0
4,10.232999801635742,learn,49767.00019836426,Wed Jun 11 2025 11:51:36 GMT-0400 (Eastern Daylight Time),453791.69999980927,A,home,I,e,127,2,1083.0,452708.69999980927,9013,WL,C,5.0
4,10.717000007629395,learn,49282.999992370605,Wed Jun 11 2025 11:51:36 GMT-0400 (Eastern Daylight Time),454275.0,A,homeenter,I,enter,465,2,1566.3000001907349,452708.69999980927,9013,WL,C,5.0
4,11.182999849319458,learn,48817.00015068054,Wed Jun 11 2025 11:51:36 GMT-0400 (Eastern Daylight Time),454741.69999980927,A,b,I,b,454,2,466.5,454275.19999980927,9013,WL,C,6.0
4,11.299999952316284,learn,48700.000047683716,Wed Jun 11 2025 11:51:36 GMT-0400 (Eastern Daylight Time),454858.2999999523,A,bo,I,o,107,2,583.1000001430511,454275.19999980927,9013,WL,C,6.0
4,11.516999959945679,learn,48483.00004005432,Wed Jun 11 2025 11:51:36 GMT-0400 (Eastern Daylight Time),455075.59999990463,A,boy,I,y,208,2,800.4000000953674,454275.19999980927,9013,WL,C,6.0
4,11.916999816894531,learn,48083.00018310547,Wed Jun 11 2025 11:51:36 GMT-0400 (Eastern Daylight Time),455475.0,A,boyenter,I,enter,384,2,1199.8000001907349,454275.19999980927,9013,WL,C,6.0
4,12.299999952316284,learn,47700.000047683716,Wed Jun 11 2025 11:51:36 GMT-0400 (Eastern Daylight Time),455858.2999999523,A,d,I,d,365,2,383.0,455475.2999999523,9013,WL,C,7.0
4,12.549999952316284,learn,47450.000047683716,Wed Jun 11 2025 11:51:36 GMT-0400 (Eastern Daylight Time),456108.2999999523,A,do,I,o,238,2,633.0,455475.2999999523,9013,WL,C,7.0
4,12.649999856948853,learn,47350.00014305115,Wed Jun 11 2025 11:51:36 GMT-0400 (Eastern Daylight Time),456208.2999999523,A,doc,I,c,92,2,733.0,455475.2999999523,9013,WL,C,7.0
4,12.899999856948853,learn,47100.00014305115,Wed Jun 11 2025 11:51:36 GMT-0400 (Eastern Daylight Time),456458.2999999523,A,doct,I,t,240,2,983.0,455475.2999999523,9013,WL,C,7.0
4,12.982999801635742,learn,47017.00019836426,Wed Jun 11 2025 11:51:36 GMT-0400 (Eastern Daylight Time),456541.69999980927,A,docto,I,o,71,2,1066.3999998569489,455475.2999999523,9013,WL,C,7.0
4,13.233999967575073,learn,46766.00003242493,Wed Jun 11 2025 11:51:36 GMT-0400 (Eastern Daylight Time),456791.7999999523,A,doctor,I,r,227,2,1316.5,455475.2999999523,9013,WL,C,7.0
4,13.75,learn,46250.0,Wed Jun 11 2025 11:51:36 GMT-0400 (Eastern Daylight Time),457308.5,A,doctorenter,I,enter,497,2,1833.2000000476837,455475.2999999523,9013,WL,C,7.0
4,14.200999975204468,learn,45799.00002479553,Wed Jun 11 2025 11:51:36 GMT-0400 (Eastern Daylight Time),457758.89999985695,A,c,I,c,437,2,450.09999990463257,457308.7999999523,9013,WL,C,8.0
4,14.434000015258789,learn,45565.99998474121,Wed Jun 11 2025 11:51:36 GMT-0400 (Eastern Daylight Time),457992.19999980927,A,ca,I,a,208,2,683.3999998569489,457308.7999999523,9013,WL,C,8.0
4,14.583999872207642,learn,45416.00012779236,Wed Jun 11 2025 11:51:36 GMT-0400 (Eastern Daylight Time),458142.39999985695,A,cam,I,m,125,2,833.5999999046326,457308.7999999523,9013,WL,C,8.0
4,14.967000007629395,learn,45032.999992370605,Wed Jun 11 2025 11:51:36 GMT-0400 (Eastern Daylight Time),458525.5,A,camp,I,p,359,2,1216.7000000476837,457308.7999999523,9013,WL,C,8.0
4,15.299999952316284,learn,44700.000047683716,Wed Jun 11 2025 11:51:36 GMT-0400 (Eastern Daylight Time),458858.5,A,campenter,I,enter,313,2,1549.7000000476837,457308.7999999523,9013,WL,C,8.0
4,15.883999824523926,learn,44116.000175476074,Wed Jun 11 2025 11:51:36 GMT-0400 (Eastern Daylight Time),459442.39999985695,A,f,I,f,566,2,583.5999999046326,458858.7999999523,9013,WL,C,9.0
4,16.066999912261963,learn,43933.00008773804,Wed Jun 11 2025 11:51:36 GMT-0400 (Eastern Daylight Time),459625.69999980927,A,fl,I,l,165,2,766.8999998569489,458858.7999999523,9013,WL,C,9.0
4,16.233999967575073,learn,43766.00003242493,Wed Jun 11 2025 11:51:36 GMT-0400 (Eastern Daylight Time),459792.2999999523,A,fla,I,a,141,2,933.5,458858.7999999523,9013,WL,C,9.0
4,16.500999927520752,learn,43499.00007247925,Wed Jun 11 2025 11:51:36 GMT-0400 (Eastern Daylight Time),460059.0,A,flag,I,g,246,2,1200.2000000476837,458858.7999999523,9013,WL,C,9.0
4,16.816999912261963,learn,43183.00008773804,Wed Jun 11 2025 11:51:36 GMT-0400 (Eastern Daylight Time),460375.09999990463,A,flagenter,I,enter,301,2,1516.2999999523163,458858.7999999523,9013,WL,C,9.0
4,17.467000007629395,learn,42532.999992370605,Wed Jun 11 2025 11:51:36 GMT-0400 (Eastern Daylight Time),461025.69999980927,A,l,I,l,635,2,650.2999999523163,460375.39999985695,9013,WL,C,10.0
4,17.60099983215332,learn,42399.00016784668,Wed Jun 11 2025 11:51:36 GMT-0400 (Eastern Daylight Time),461159.0,A,le,I,e,118,2,783.6000001430511,460375.39999985695,9013,WL,C,10.0
4,17.883999824523926,learn,42116.000175476074,Wed Jun 11 2025 11:51:36 GMT-0400 (Eastern Daylight Time),461442.2999999523,A,let,I,t,261,2,1066.9000000953674,460375.39999985695,9013,WL,C,10.0
4,18.033999919891357,learn,41966.00008010864,Wed Jun 11 2025 11:51:36 GMT-0400 (Eastern Daylight Time),461592.2999999523,A,lett,I,t,134,2,1216.9000000953674,460375.39999985695,9013,WL,C,10.0
4,18.200999975204468,learn,41799.00002479553,Wed Jun 11 2025 11:51:36 GMT-0400 (Eastern Daylight Time),461759.19999980927,A,lette,I,e,140,2,1383.7999999523163,460375.39999985695,9013,WL,C,10.0
4,18.25,learn,41750.0,Wed Jun 11 2025 11:51:36 GMT-0400 (Eastern Daylight Time),461808.5,A,letter,I,r,41,2,1433.1000001430511,460375.39999985695,9013,WL,C,10.0
4,18.549999952316284,learn,41450.000047683716,Wed Jun 11 2025 11:51:36 GMT-0400 (Eastern Daylight Time),462108.69999980927,A,letterenter,I,enter,288,2,1733.2999999523163,460375.39999985695,9013,WL,C,10.0
4,19.316999912261963,learn,40683.00008773804,Wed Jun 11 2025 11:51:36 GMT-0400 (Eastern Daylight Time),462875.59999990463,A,c,I,c,749,2,766.5999999046326,462109.0,9013,WL,C,11.0
4,19.41699981689453,learn,40583.00018310547,Wed Jun 11 2025 11:51:36 GMT-0400 (Eastern Daylight Time),462975.19999980927,A,co,I,o,82,2,866.1999998092651,462109.0,9013,WL,C,11.0
4,19.616999864578247,learn,40383.00013542175,Wed Jun 11 2025 11:51:36 GMT-0400 (Eastern Daylight Time),463175.7999999523,A,cor,I,r,179,2,1066.7999999523163,462109.0,9013,WL,C,11.0
4,19.717000007629395,learn,40282.999992370605,Wed Jun 11 2025 11:51:36 GMT-0400 (Eastern Daylight Time),463275.69999980927,A,corn,I,n,70,2,1166.6999998092651,462109.0,9013,WL,C,11.0
4,20.01699995994568,learn,39983.00004005432,Wed Jun 11 2025 11:51:36 GMT-0400 (Eastern Daylight Time),463575.09999990463,A,cornenter,I,enter,273,2,1466.0999999046326,462109.0,9013,WL,C,11.0
4,20.58399987220764,learn,39416.00012779236,Wed Jun 11 2025 11:51:36 GMT-0400 (Eastern Daylight Time),464142.2999999523,A,n,I,n,546,2,566.9000000953674,463575.39999985695,9013,WL,C,12.0
4,20.83399987220764,learn,39166.00012779236,Wed Jun 11 2025 11:51:36 GMT-0400 (Eastern Daylight Time),464392.39999985695,A,na,I,a,234,2,817.0,463575.39999985695,9013,WL,C,12.0
4,20.93400001525879,learn,39065.99998474121,Wed Jun 11 2025 11:51:36 GMT-0400 (Eastern Daylight Time),464492.39999985695,A,nai,I,i,68,2,917.0,463575.39999985695,9013,WL,C,12.0
4,20.983999967575073,learn,39016.00003242493,Wed Jun 11 2025 11:51:36 GMT-0400 (Eastern Daylight Time),464542.2999999523,A,nail,I,l,35,2,966.9000000953674,463575.39999985695,9013,WL,C,12.0
4,21.299999952316284,learn,38700.000047683716,Wed Jun 11 2025 11:51:36 GMT-0400 (Eastern Daylight Time),464858.5,A,nailenter,I,enter,288,2,1283.1000001430511,463575.39999985695,9013,WL,C,12.0
4,21.616999864578247,learn,38383.00013542175,Wed Jun 11 2025 11:51:36 GMT-0400 (Eastern Daylight Time),465175.2999999523,A,c,I,c,302,2,316.40000009536743,464858.89999985695,9013,WL,C,13.0
4,21.800999879837036,learn,38199.000120162964,Wed Jun 11 2025 11:51:36 GMT-0400 (Eastern Daylight Time),465358.7999999523,A,ca,I,a,167,2,499.90000009536743,464858.89999985695,9013,WL,C,13.0
4,22.10099983215332,learn,37899.00016784668,Wed Jun 11 2025 11:51:36 GMT-0400 (Eastern Daylight Time),465659.0,A,cat,I,t,287,2,800.1000001430511,464858.89999985695,9013,WL,C,13.0
4,22.250999927520752,learn,37749.00007247925,Wed Jun 11 2025 11:51:36 GMT-0400 (Eastern Daylight Time),465809.19999980927,A,catt,I,t,138,2,950.2999999523163,464858.89999985695,9013,WL,C,13.0
4,22.35099983215332,learn,37649.00016784668,Wed Jun 11 2025 11:51:36 GMT-0400 (Eastern Daylight Time),465909.0,A,cattl,I,l,69,2,1050.1000001430511,464858.89999985695,9013,WL,C,13.0
4,22.51699995994568,learn,37483.00004005432,Wed Jun 11 2025 11:51:36 GMT-0400 (Eastern Daylight Time),466075.89999985695,A,cattle,I,e,136,2,1217.0,464858.89999985695,9013,WL,C,13.0
4,23.199999809265137,learn,36800.00019073486,Wed Jun 11 2025 11:51:36 GMT-0400 (Eastern Daylight Time),466758.59999990463,A,cattleenter,I,enter,657,2,1899.7000000476837,464858.89999985695,9013,WL,C,13.0
4,24.383999824523926,learn,35616.000175476074,Wed Jun 11 2025 11:51:36 GMT-0400 (Eastern Daylight Time),467942.2999999523,A,b,I,b,1163,2,1183.4000000953674,466758.89999985695,9013,WL,C,14.0
4,24.483999967575073,learn,35516.00003242493,Wed Jun 11 2025 11:51:36 GMT-0400 (Eastern Daylight Time),468042.2999999523,A,bo,I,o,88,2,1283.4000000953674,466758.89999985695,9013,WL,C,14.0
4,24.783999919891357,learn,35216.00008010864,Wed Jun 11 2025 11:51:36 GMT-0400 (Eastern Daylight Time),468342.19999980927,A,bod,I,d,282,2,1583.2999999523163,466758.89999985695,9013,WL,C,14.0
4,24.901000022888184,learn,35098.99997711182,Wed Jun 11 2025 11:51:36 GMT-0400 (Eastern Daylight Time),468459.09999990463,A,body,I,y,93,2,1700.2000000476837,466758.89999985695,9013,WL,C,14.0
4,25.299999952316284,learn,34700.000047683716,Wed Jun 11 2025 11:51:36 GMT-0400 (Eastern Daylight Time),468858.39999985695,A,bodyenter,I,enter,369,2,2099.5,466758.89999985695,9013,WL,C,14.0
4,26.01699995994568,learn,33983.00004005432,Wed Jun 11 2025 11:51:36 GMT-0400 (Eastern Daylight Time),469575.69999980927,A,s,I,s,704,2,716.8999998569489,468858.7999999523,9013,WL,C,15.0
4,26.18400001525879,learn,33815.99998474121,Wed Jun 11 2025 11:51:36 GMT-0400 (Eastern Daylight Time),469742.5,A,sh,I,h,133,2,883.7000000476837,468858.7999999523,9013,WL,C,15.0
4,26.233999967575073,learn,33766.00003242493,Wed Jun 11 2025 11:51:36 GMT-0400 (Eastern Daylight Time),469791.7999999523,A,sho,I,o,28,2,933.0,468858.7999999523,9013,WL,C,15.0
4,26.467000007629395,learn,33532.999992370605,Wed Jun 11 2025 11:51:36 GMT-0400 (Eastern Daylight Time),470025.59999990463,A,shor,I,r,218,2,1166.7999999523163,468858.7999999523,9013,WL,C,15.0
4,26.5,learn,33500.0,Wed Jun 11 2025 11:51:36 GMT-0400 (Eastern Daylight Time),470058.59999990463,A,shore,I,e,12,2,1199.7999999523163,468858.7999999523,9013,WL,C,15.0
4,26.816999912261963,learn,33183.00008773804,Wed Jun 11 2025 11:51:36 GMT-0400 (Eastern Daylight Time),470375.09999990463,A,shoreenter,I,enter,292,2,1516.2999999523163,468858.7999999523,9013,WL,C,15.0
5,0.9500000476837158,learn,60000.0,Wed Jun 11 2025 11:51:36 GMT-0400 (Eastern Daylight Time),536859.5,A,t,I,t,938,2,949.9000000953674,535909.5999999046,9013,WL,C,1.0
5,1.2000000476837158,learn,60000.0,Wed Jun 11 2025 11:51:36 GMT-0400 (Eastern Daylight Time),537109.0999999046,A,to,I,o,227,2,1199.5,535909.5999999046,9013,WL,C,1.0
5,1.4500000476837158,learn,60000.0,Wed Jun 11 2025 11:51:36 GMT-0400 (Eastern Daylight Time),537359.0,A,tow,I,w,217,2,1449.4000000953674,535909.5999999046,9013,WL,C,1.0
5,1.567000150680542,learn,60000.0,Wed Jun 11 2025 11:51:36 GMT-0400 (Eastern Daylight Time),537475.899999857,A,towe,I,e,88,2,1566.2999999523163,535909.5999999046,9013,WL,C,1.0
5,1.7660000324249268,learn,60000.0,Wed Jun 11 2025 11:51:36 GMT-0400 (Eastern Daylight Time),537675.6999998093,A,tower,I,r,168,2,1766.0999999046326,535909.5999999046,9013,WL,C,1.0
5,2.249000072479248,learn,60000.0,Wed Jun 11 2025 11:51:36 GMT-0400 (Eastern Daylight Time),538158.5999999046,A,towerenter,I,enter,455,2,2249.0,535909.5999999046,9013,WL,C,1.0
5,2.683000087738037,learn,60000.0,Wed Jun 11 2025 11:51:36 GMT-0400 (Eastern Daylight Time),538592.0999999046,A,w,I,w,418,2,433.2000000476837,538158.899999857,9013,WL,C,2.0
5,2.8330001831054688,learn,60000.0,Wed Jun 11 2025 11:51:36 GMT-0400 (Eastern Daylight Time),538742.5,A,wh,I,h,129,2,583.6000001430511,538158.899999857,9013,WL,C,2.0
5,2.9830000400543213,learn,60000.0,Wed Jun 11 2025 11:51:36 GMT-0400 (Eastern Daylight Time),538892.5999999046,A,whe,I,e,117,2,733.7000000476837,538158.899999857,9013,WL,C,2.0
5,3.116000175476074,learn,60000.0,Wed Jun 11 2025 11:51:36 GMT-0400 (Eastern Daylight Time),539025.5999999046,A,whea,I,a,103,2,866.7000000476837,538158.899999857,9013,WL,C,2.0
5,3.3000001907348633,learn,60000.0,Wed Jun 11 2025 11:51:36 GMT-0400 (Eastern Daylight Time),539209.5999999046,A,wheat,I,t,165,2,1050.7000000476837,538158.899999857,9013,WL,C,2.0
5,3.6500000953674316,learn,60000.0,Wed Jun 11 2025 11:51:36 GMT-0400 (Eastern Daylight Time),539559.1999998093,A,wheatenter,I,enter,333,2,1400.2999999523163,538158.899999857,9013,WL,C,2.0
5,5.150000095367432,learn,60000.0,Wed Jun 11 2025 11:51:36 GMT-0400 (Eastern Daylight Time),541059.0999999046,A,q,I,q,1482,2,1499.5,539559.5999999046,9013,WL,C,3.0
5,5.366000175476074,learn,60000.0,Wed Jun 11 2025 11:51:36 GMT-0400 (Eastern Daylight Time),541275.6999998093,A,qu,I,u,203,2,1716.0999999046326,539559.5999999046,9013,WL,C,3.0
5,5.583000183105469,learn,60000.0,Wed Jun 11 2025 11:51:36 GMT-0400 (Eastern Daylight Time),541492.399999857,A,que,I,e,192,2,1932.7999999523163,539559.5999999046,9013,WL,C,3.0
5,5.75,learn,60000.0,Wed Jun 11 2025 11:51:36 GMT-0400 (Eastern Daylight Time),541659.0999999046,A,quee,I,e,147,2,2099.5,539559.5999999046,9013,WL,C,3.0
5,5.866000175476074,learn,60000.0,Wed Jun 11 2025 11:51:36 GMT-0400 (Eastern Daylight Time),541775.7999999523,A,queen,I,n,82,2,2216.2000000476837,539559.5999999046,9013,WL,C,3.0
5,6.39900016784668,learn,60000.0,Wed Jun 11 2025 11:51:36 GMT-0400 (Eastern Daylight Time),542308.6999998093,A,queenenter,I,enter,509,2,2749.0999999046326,539559.5999999046,9013,WL,C,3.0
5,6.883000135421753,learn,60000.0,Wed Jun 11 2025 11:51:36 GMT-0400 (Eastern Daylight Time),542792.399999857,A,s,I,s,460,2,483.2999999523163,542309.0999999046,9013,WL,C,4.0
5,6.983000040054321,learn,60000.0,Wed Jun 11 2025 11:51:36 GMT-0400 (Eastern Daylight Time),542892.5,A,su,I,u,84,2,583.4000000953674,542309.0999999046,9013,WL,C,4.0
5,7.2829999923706055,learn,60000.0,Wed Jun 11 2025 11:51:36 GMT-0400 (Eastern Daylight Time),543192.5,A,sug,I,g,275,2,883.4000000953674,542309.0999999046,9013,WL,C,4.0
5,7.416000127792358,learn,60000.0,Wed Jun 11 2025 11:51:36 GMT-0400 (Eastern Daylight Time),543325.7999999523,A,suga,I,a,110,2,1016.7000000476837,542309.0999999046,9013,WL,C,4.0
5,7.650000095367432,learn,60000.0,Wed Jun 11 2025 11:51:36 GMT-0400 (Eastern Daylight Time),543559.0,A,sugar,I,r,208,2,1249.9000000953674,542309.0999999046,9013,WL,C,4.0
5,9.134000062942505,learn,60000.0,Wed Jun 11 2025 11:51:36 GMT-0400 (Eastern Daylight Time),545043.6999998093,A,sugarenter,I,enter,1470,2,2734.5999999046326,542309.0999999046,9013,WL,C,4.0
5,9.532999992370605,learn,60000.0,Wed Jun 11 2025 11:51:36 GMT-0400 (Eastern Daylight Time),545442.7999999523,A,h,I,h,381,2,398.5,545044.2999999523,9013,WL,C,5.0
5,9.633000135421753,learn,60000.0,Wed Jun 11 2025 11:51:36 GMT-0400 (Eastern Daylight Time),545542.399999857,A,ho,I,o,75,2,498.09999990463257,545044.2999999523,9013,WL,C,5.0
5,9.782999992370605,learn,60000.0,Wed Jun 11 2025 11:51:36 GMT-0400 (Eastern Daylight Time),545692.5999999046,A,hom,I,m,137,2,648.2999999523163,545044.2999999523,9013,WL,C,5.0
5,9.91700005531311,learn,60000.0,Wed Jun 11 2025 11:51:36 GMT-0400 (Eastern Daylight Time),545825.899999857,A,home,I,e,105,2,781.5999999046326,545044.2999999523,9013,WL,C,5.0
5,10.383000135421753,learn,60000.0,Wed Jun 11 2025 11:51:36 GMT-0400 (Eastern Daylight Time),546292.0,A,homeenter,I,enter,445,2,1247.7000000476837,545044.2999999523,9013,WL,C,5.0
5,11.64900016784668,learn,60000.0,Wed Jun 11 2025 11:51:36 GMT-0400 (Eastern Daylight Time),547558.5999999046,A,b,I,b,1253,2,1266.2999999523163,546292.2999999523,9013,WL,C,6.0
5,11.850000143051147,learn,60000.0,Wed Jun 11 2025 11:51:36 GMT-0400 (Eastern Daylight Time),547759.1999998093,A,bo,I,o,175,2,1466.8999998569489,546292.2999999523,9013,WL,C,6.0
5,12.083000183105469,learn,60000.0,Wed Jun 11 2025 11:51:36 GMT-0400 (Eastern Daylight Time),547992.2999999523,A,boy,I,y,205,2,1700.0,546292.2999999523,9013,WL,C,6.0
5,12.532999992370605,learn,60000.0,Wed Jun 11 2025 11:51:36 GMT-0400 (Eastern Daylight Time),548442.0,A,boyenter,I,enter,436,2,2149.7000000476837,546292.2999999523,9013,WL,C,6.0
5,13.200000047683716,learn,60000.0,Wed Jun 11 2025 11:51:36 GMT-0400 (Eastern Daylight Time),549109.0999999046,A,d,I,d,648,2,666.7000000476837,548442.399999857,9013,WL,C,7.0
5,13.350000143051147,learn,60000.0,Wed Jun 11 2025 11:51:36 GMT-0400 (Eastern Daylight Time),549259.0999999046,A,do,I,o,137,2,816.7000000476837,548442.399999857,9013,WL,C,7.0
5,13.433000087738037,learn,60000.0,Wed Jun 11 2025 11:51:36 GMT-0400 (Eastern Daylight Time),549342.0999999046,A,doc,I,c,65,2,899.7000000476837,548442.399999857,9013,WL,C,7.0
5,13.683000087738037,learn,60000.0,Wed Jun 11 2025 11:51:36 GMT-0400 (Eastern Daylight Time),549592.399999857,A,doct,I,t,223,2,1150.0,548442.399999857,9013,WL,C,7.0
5,13.800000190734863,learn,60000.0,Wed Jun 11 2025 11:51:36 GMT-0400 (Eastern Daylight Time),549709.0999999046,A,docto,I,o,92,2,1266.7000000476837,548442.399999857,9013,WL,C,7.0
5,13.950000047683716,learn,60000.0,Wed Jun 11 2025 11:51:36 GMT-0400 (Eastern Daylight Time),549859.0,A,doctor,I,r,129,2,1416.6000001430511,548442.399999857,9013,WL,C,7.0
5,14.565999984741211,learn,60000.0,Wed Jun 11 2025 11:51:36 GMT-0400 (Eastern Daylight Time),550475.1999998093,A,doctorenter,I,enter,592,2,2032.7999999523163,548442.399999857,9013,WL,C,7.0
5,15.966000080108643,learn,60000.0,Wed Jun 11 2025 11:51:36 GMT-0400 (Eastern Daylight Time),551875.7999999523,A,c,I,c,1390,2,1400.2000000476837,550475.5999999046,9013,WL,C,8.0
5,16.133000135421753,learn,60000.0,Wed Jun 11 2025 11:51:36 GMT-0400 (Eastern Daylight Time),552042.1999998093,A,ca,I,a,153,2,1566.5999999046326,550475.5999999046,9013,WL,C,8.0
5,16.600000143051147,learn,60000.0,Wed Jun 11 2025 11:51:36 GMT-0400 (Eastern Daylight Time),552509.1999998093,A,cam,I,m,445,2,2033.5999999046326,550475.5999999046,9013,WL,C,8.0
5,16.81599998474121,learn,60000.0,Wed Jun 11 2025 11:51:36 GMT-0400 (Eastern Daylight Time),552725.7999999523,A,camp,I,p,202,2,2250.2000000476837,550475.5999999046,9013,WL,C,8.0
5,17.183000087738037,learn,60000.0,Wed Jun 11 2025 11:51:36 GMT-0400 (Eastern Daylight Time),553092.0,A,campenter,I,enter,352,2,2616.4000000953674,550475.5999999046,9013,WL,C,8.0
5,18.049000024795532,learn,60000.0,Wed Jun 11 2025 11:51:36 GMT-0400 (Eastern Daylight Time),553958.5999999046,A,f,I,f,845,2,866.2999999523163,553092.2999999523,9013,WL,C,9.0
5,18.200000047683716,learn,60000.0,Wed Jun 11 2025 11:51:36 GMT-0400 (Eastern Daylight Time),554109.0999999046,A,fl,I,l,130,2,1016.7999999523163,553092.2999999523,9013,WL,C,9.0
5,18.33300018310547,learn,60000.0,Wed Jun 11 2025 11:51:36 GMT-0400 (Eastern Daylight Time),554242.5,A,fla,I,a,113,2,1150.2000000476837,553092.2999999523,9013,WL,C,9.0
5,18.567000150680542,learn,60000.0,Wed Jun 11 2025 11:51:36 GMT-0400 (Eastern Daylight Time),554475.899999857,A,flag,I,g,202,2,1383.5999999046326,553092.2999999523,9013,WL,C,9.0
5,19.183000087738037,learn,60000.0,Wed Jun 11 2025 11:51:36 GMT-0400 (Eastern Daylight Time),555092.0999999046,A,flagenter,I,enter,602,2,1999.7999999523163,553092.2999999523,9013,WL,C,9.0
5,20.65000009536743,learn,60000.0,Wed Jun 11 2025 11:51:36 GMT-0400 (Eastern Daylight Time),556559.2999999523,A,l,I,l,1445,2,1467.0,555092.2999999523,9013,WL,C,10.0
5,20.81599998474121,learn,60000.0,Wed Jun 11 2025 11:51:36 GMT-0400 (Eastern Daylight Time),556725.7999999523,A,le,I,e,143,2,1633.5,555092.2999999523,9013,WL,C,10.0
5,21.08400011062622,learn,60000.0,Wed Jun 11 2025 11:51:36 GMT-0400 (Eastern Daylight Time),556993.0999999046,A,let,I,t,255,2,1900.7999999523163,555092.2999999523,9013,WL,C,10.0
5,21.23300004005432,learn,60000.0,Wed Jun 11 2025 11:51:36 GMT-0400 (Eastern Daylight Time),557142.399999857,A,lett,I,t,133,2,2050.0999999046326,555092.2999999523,9013,WL,C,10.0
5,21.483999967575073,learn,60000.0,Wed Jun 11 2025 11:51:36 GMT-0400 (Eastern Daylight Time),557393.0,A,lette,I,e,232,2,2300.7000000476837,555092.2999999523,9013,WL,C,10.0
5,21.66700005531311,learn,60000.0,Wed Jun 11 2025 11:51:36 GMT-0400 (Eastern Daylight Time),557575.899999857,A,letter,I,r,159,2,2483.5999999046326,555092.2999999523,9013,WL,C,10.0
5,22.31599998474121,learn,60000.0,Wed Jun 11 2025 11:51:36 GMT-0400 (Eastern Daylight Time),558225.399999857,A,letterenter,I,enter,630,2,3133.0999999046326,555092.2999999523,9013,WL,C,10.0
5,23.23300004005432,learn,60000.0,Wed Jun 11 2025 11:51:36 GMT-0400 (Eastern Daylight Time),559142.5999999046,A,n,I,n,896,2,916.9000000953674,558225.6999998093,9013,WL,C,11.0
5,23.433000087738037,learn,60000.0,Wed Jun 11 2025 11:51:36 GMT-0400 (Eastern Daylight Time),559342.399999857,A,na,I,a,179,2,1116.7000000476837,558225.6999998093,9013,WL,C,11.0
5,23.633000135421753,learn,60000.0,Wed Jun 11 2025 11:51:36 GMT-0400 (Eastern Daylight Time),559542.399999857,A,nai,I,i,177,2,1316.7000000476837,558225.6999998093,9013,WL,C,11.0
5,23.66600012779236,learn,60000.0,Wed Jun 11 2025 11:51:36 GMT-0400 (Eastern Daylight Time),559575.399999857,A,nail,I,l,8,2,1349.7000000476837,558225.6999998093,9013,WL,C,11.0
5,24.249000072479248,learn,60000.0,Wed Jun 11 2025 11:51:36 GMT-0400 (Eastern Daylight Time),560158.5999999046,A,nailenter,I,enter,560,2,1932.9000000953674,558225.6999998093,9013,WL,C,11.0
5,24.83300018310547,learn,60000.0,Wed Jun 11 2025 11:51:36 GMT-0400 (Eastern Daylight Time),560742.5,A,c,I,c,571,2,583.4000000953674,560159.0999999046,9013,WL,C,12.0
5,24.966000080108643,learn,60000.0,Wed Jun 11 2025 11:51:36 GMT-0400 (Eastern Daylight Time),560875.5999999046,A,co,I,o,117,2,716.5,560159.0999999046,9013,WL,C,12.0
5,25.16600012779236,learn,60000.0,Wed Jun 11 2025 11:51:36 GMT-0400 (Eastern Daylight Time),561075.6999998093,A,cor,I,r,186,2,916.5999999046326,560159.0999999046,9013,WL,C,12.0
5,25.383000135421753,learn,60000.0,Wed Jun 11 2025 11:51:36 GMT-0400 (Eastern Daylight Time),561292.5999999046,A,corn,I,n,189,2,1133.5,560159.0999999046,9013,WL,C,12.0
5,25.716000080108643,learn,60000.0,Wed Jun 11 2025 11:51:36 GMT-0400 (Eastern Daylight Time),561625.1999998093,A,cornenter,I,enter,313,2,1466.0999999046326,560159.0999999046,9013,WL,C,12.0
5,26.216000080108643,learn,60000.0,Wed Jun 11 2025 11:51:36 GMT-0400 (Eastern Daylight Time),562125.7999999523,A,c,I,c,488,2,500.2000000476837,561625.5999999046,9013,WL,C,13.0
5,26.41700005531311,learn,60000.0,Wed Jun 11 2025 11:51:36 GMT-0400 (Eastern Daylight Time),562325.899999857,A,ca,I,a,167,2,700.2999999523163,561625.5999999046,9013,WL,C,13.0
5,26.700000047683716,learn,60000.0,Wed Jun 11 2025 11:51:36 GMT-0400 (Eastern Daylight Time),562609.0999999046,A,cat,I,t,266,2,983.5,561625.5999999046,9013,WL,C,13.0
5,26.83300018310547,learn,60000.0,Wed Jun 11 2025 11:51:36 GMT-0400 (Eastern Daylight Time),562742.6999998093,A,catt,I,t,110,2,1117.0999999046326,561625.5999999046,9013,WL,C,13.0
5,26.933000087738037,learn,60000.0,Wed Jun 11 2025 11:51:36 GMT-0400 (Eastern Daylight Time),562842.0999999046,A,cattl,I,l,78,2,1216.5,561625.5999999046,9013,WL,C,13.0
5,27.100000143051147,learn,60000.0,Wed Jun 11 2025 11:51:36 GMT-0400 (Eastern Daylight Time),563009.1999998093,A,cattle,I,e,158,2,1383.5999999046326,561625.5999999046,9013,WL,C,13.0
5,27.782999992370605,learn,60000.0,Wed Jun 11 2025 11:51:36 GMT-0400 (Eastern Daylight Time),563692.0999999046,A,cattleenter,I,enter,649,2,2066.5,561625.5999999046,9013,WL,C,13.0
5,29.100000143051147,learn,60000.0,Wed Jun 11 2025 11:51:36 GMT-0400 (Eastern Daylight Time),565008.899999857,A,s,I,s,1301,2,1316.5,563692.399999857,9013,WL,C,14.0
5,29.383000135421753,learn,60000.0,Wed Jun 11 2025 11:51:36 GMT-0400 (Eastern Daylight Time),565292.5,A,sh,I,h,261,2,1600.1000001430511,563692.399999857,9013,WL,C,14.0
5,29.48300004005432,learn,60000.0,Wed Jun 11 2025 11:51:36 GMT-0400 (Eastern Daylight Time),565392.399999857,A,sho,I,o,75,2,1700.0,563692.399999857,9013,WL,C,14.0
5,29.66700005531311,learn,60000.0,Wed Jun 11 2025 11:51:36 GMT-0400 (Eastern Daylight Time),565575.899999857,A,shor,I,r,158,2,1883.5,563692.399999857,9013,WL,C,14.0
5,29.73300004005432,learn,60000.0,Wed Jun 11 2025 11:51:36 GMT-0400 (Eastern Daylight Time),565642.5999999046,A,shore,I,e,46,2,1950.2000000476837,563692.399999857,9013,WL,C,14.0
5,30.183000087738037,learn,60000.0,Wed Jun 11 2025 11:51:36 GMT-0400 (Eastern Daylight Time),566092.0999999046,A,shoreenter,I,enter,428,2,2399.7000000476837,563692.399999857,9013,WL,C,14.0
5,31.08300018310547,learn,60000.0,Wed Jun 11 2025 11:51:36 GMT-0400 (Eastern Daylight Time),566992.399999857,A,b,I,b,886,2,900.0,566092.399999857,9013,WL,C,15.0
5,31.383000135421753,learn,60000.0,Wed Jun 11 2025 11:51:36 GMT-0400 (Eastern Daylight Time),567292.5,A,bo,I,o,275,2,1200.1000001430511,566092.399999857,9013,WL,C,15.0
5,31.600000143051147,learn,60000.0,Wed Jun 11 2025 11:51:36 GMT-0400 (Eastern Daylight Time),567509.0999999046,A,bod,I,d,202,2,1416.7000000476837,566092.399999857,9013,WL,C,15.0
5,31.766000032424927,learn,60000.0,Wed Jun 11 2025 11:51:36 GMT-0400 (Eastern Daylight Time),567675.6999998093,A,body,I,y,152,2,1583.2999999523163,566092.399999857,9013,WL,C,15.0
5,32.13300013542175,learn,60000.0,Wed Jun 11 2025 11:51:36 GMT-0400 (Eastern Daylight Time),568041.899999857,A,bodyenter,I,enter,353,2,1949.5,566092.399999857,9013,WL,C,15.0
6,1.2170000076293945,distr,58782.999992370605,Wed Jun 11 2025 11:51:36 GMT-0400 (Eastern Daylight Time),635392.5999999046,B,d,I,d,1200,2,1216.4000000953674,634176.1999998093,9013,WL,C,1.0
6,1.317000150680542,distr,58682.99984931946,Wed Jun 11 2025 11:51:36 GMT-0400 (Eastern Daylight Time),635492.6999998093,B,do,I,o,75,2,1316.5,634176.1999998093,9013,WL,C,1.0
6,1.4830000400543213,distr,58516.99995994568,Wed Jun 11 2025 11:51:36 GMT-0400 (Eastern Daylight Time),635658.7999999523,B,dol,I,l,138,2,1482.6000001430511,634176.1999998093,9013,WL,C,1.0
6,1.6170001029968262,distr,58382.999897003174,Wed Jun 11 2025 11:51:36 GMT-0400 (Eastern Daylight Time),635792.399999857,B,doll,I,l,118,2,1616.2000000476837,634176.1999998093,9013,WL,C,1.0
6,1.7170000076293945,distr,58282.999992370605,Wed Jun 11 2025 11:51:36 GMT-0400 (Eastern Daylight Time),635892.5999999046,B,dolla,I,a,70,2,1716.4000000953674,634176.1999998093,9013,WL,C,1.0
6,1.9170000553131104,distr,58082.99994468689,Wed Jun 11 2025 11:51:36 GMT-0400 (Eastern Daylight Time),636092.5999999046,B,dollar,I,r,178,2,1916.4000000953674,634176.1999998093,9013,WL,C,1.0
6,2.367000102996826,distr,57632.999897003174,Wed Jun 11 2025 11:51:36 GMT-0400 (Eastern Daylight Time),636542.0,B,dollarenter,I,enter,434,2,2365.800000190735,634176.1999998093,9013,WL,C,1.0
6,3.317000150680542,distr,56682.99984931946,Wed Jun 11 2025 11:51:36 GMT-0400 (Eastern Daylight Time),637492.5999999046,B,v,I,v,931,2,950.2000000476837,636542.399999857,9013,WL,C,2.0
6,3.617000102996826,distr,56382.999897003174,Wed Jun 11 2025 11:51:36 GMT-0400 (Eastern Daylight Time),637792.2999999523,B,va,I,a,280,2,1249.9000000953674,636542.399999857,9013,WL,C,2.0
6,4.233999967575073,distr,55766.00003242493,Wed Jun 11 2025 11:51:36 GMT-0400 (Eastern Daylight Time),638409.1999998093,B,v,I,backspace,592,2,1866.7999999523163,636542.399999857,9013,WL,C,2.0
6,4.3500001430511475,distr,55649.99985694885,Wed Jun 11 2025 11:51:36 GMT-0400 (Eastern Daylight Time),638525.6999998093,B,,I,backspace,91,2,1983.2999999523163,636542.399999857,9013,WL,C,2.0
6,4.584000110626221,distr,55415.99988937378,Wed Jun 11 2025 11:51:36 GMT-0400 (Eastern Daylight Time),638759.2999999523,B,s,I,s,218,2,2216.9000000953674,636542.399999857,9013,WL,C,2.0
6,5.41700005531311,distr,54582.99994468689,Wed Jun 11 2025 11:51:36 GMT-0400 (Eastern Daylight Time),639592.5999999046,B,sk,I,k,808,2,3050.2000000476837,636542.399999857,9013,WL,C,2.0
6,5.584000110626221,distr,54415.99988937378,Wed Jun 11 2025 11:51:36 GMT-0400 (Eastern Daylight Time),639759.0999999046,B,sky,I,y,150,2,3216.7000000476837,636542.399999857,9013,WL,C,2.0
6,5.75,distr,54250.0,Wed Jun 11 2025 11:51:36 GMT-0400 (Eastern Daylight Time),639925.399999857,B,skyenter,I,enter,151,2,3383.0,636542.399999857,9013,WL,C,2.0
6,6.516999959945679,distr,53483.00004005432,Wed Jun 11 2025 11:51:36 GMT-0400 (Eastern Daylight Time),640692.0999999046,B,v,I,v,748,2,766.2999999523163,639925.7999999523,9013,WL,C,3.0
6,6.700000047683716,distr,53299.999952316284,Wed Jun 11 2025 11:51:36 GMT-0400 (Eastern Daylight Time),640875.7999999523,B,va,I,a,165,2,950.0,639925.7999999523,9013,WL,C,3.0
6,7.067000150680542,distr,52932.99984931946,Wed Jun 11 2025 11:51:36 GMT-0400 (Eastern Daylight Time),641242.5999999046,B,val,I,l,352,2,1316.7999999523163,639925.7999999523,9013,WL,C,3.0
6,7.2179999351501465,distr,52782.00006484985,Wed Jun 11 2025 11:51:36 GMT-0400 (Eastern Daylight Time),641393.399999857,B,vall,I,l,132,2,1467.5999999046326,639925.7999999523,9013,WL,C,3.0
6,7.401000022888184,distr,52598.99997711182,Wed Jun 11 2025 11:51:36 GMT-0400 (Eastern Daylight Time),641575.899999857,B,valle,I,e,148,2,1650.0999999046326,639925.7999999523,9013,WL,C,3.0
6,7.5,distr,52500.0,Wed Jun 11 2025 11:51:36 GMT-0400 (Eastern Daylight Time),641675.6999998093,B,valley,I,y,70,2,1749.8999998569489,639925.7999999523,9013,WL,C,3.0
6,8.08299994468689,distr,51917.00005531311,Wed Jun 11 2025 11:51:36 GMT-0400 (Eastern Daylight Time),642258.7999999523,B,valleyenter,I,enter,563,2,2333.0,639925.7999999523,9013,WL,C,3.0
6,8.66700005531311,distr,51332.99994468689,Wed Jun 11 2025 11:51:36 GMT-0400 (Eastern Daylight Time),642842.5,B,b,I,b,575,2,583.5,642259.0,9013,WL,C,4.0
6,8.8510000705719,distr,51148.9999294281,Wed Jun 11 2025 11:51:36 GMT-0400 (Eastern Daylight Time),643025.899999857,B,bu,I,u,163,2,766.8999998569489,642259.0,9013,WL,C,4.0
6,9.034000158309937,distr,50965.99984169006,Wed Jun 11 2025 11:51:36 GMT-0400 (Eastern Daylight Time),643209.399999857,B,but,I,t,171,2,950.3999998569489,642259.0,9013,WL,C,4.0
6,9.200000047683716,distr,50799.999952316284,Wed Jun 11 2025 11:51:36 GMT-0400 (Eastern Daylight Time),643375.6999998093,B,butt,I,t,150,2,1116.6999998092651,642259.0,9013,WL,C,4.0
6,9.401000022888184,distr,50598.99997711182,Wed Jun 11 2025 11:51:36 GMT-0400 (Eastern Daylight Time),643576.0,B,butte,I,e,184,2,1317.0,642259.0,9013,WL,C,4.0
6,9.467000007629395,distr,50532.999992370605,Wed Jun 11 2025 11:51:36 GMT-0400 (Eastern Daylight Time),643642.1999998093,B,butter,I,r,56,2,1383.1999998092651,642259.0,9013,WL,C,4.0
6,10.633000135421753,distr,49366.99986457825,Wed Jun 11 2025 11:51:36 GMT-0400 (Eastern Daylight Time),644808.5999999046,B,butterenter,I,enter,1155,2,2549.5999999046326,642259.0,9013,WL,C,4.0
6,13.401000022888184,distr,46598.99997711182,Wed Jun 11 2025 11:51:36 GMT-0400 (Eastern Daylight Time),647576.0,B,d,I,d,2745,2,2767.2000000476837,644808.7999999523,9013,WL,C,5.0
6,13.567000150680542,distr,46432.99984931946,Wed Jun 11 2025 11:51:36 GMT-0400 (Eastern Daylight Time),647742.6999998093,B,di,I,i,148,2,2933.899999856949,644808.7999999523,9013,WL,C,5.0
6,13.66700005531311,distr,46332.99994468689,Wed Jun 11 2025 11:51:36 GMT-0400 (Eastern Daylight Time),647842.6999998093,B,dia,I,a,81,2,3033.899999856949,644808.7999999523,9013,WL,C,5.0
6,13.850000143051147,distr,46149.99985694885,Wed Jun 11 2025 11:51:36 GMT-0400 (Eastern Daylight Time),648025.7999999523,B,diam,I,m,163,2,3217.0,644808.7999999523,9013,WL,C,5.0
6,13.967000007629395,distr,46032.999992370605,Wed Jun 11 2025 11:51:36 GMT-0400 (Eastern Daylight Time),648142.5999999046,B,diamo,I,o,100,2,3333.7999999523163,644808.7999999523,9013,WL,C,5.0
6,14.08400011062622,distr,45915.99988937378,Wed Jun 11 2025 11:51:36 GMT-0400 (Eastern Daylight Time),648259.1999998093,B,diamon,I,n,95,2,3450.399999856949,644808.7999999523,9013,WL,C,5.0
6,14.33400011062622,distr,45665.99988937378,Wed Jun 11 2025 11:51:36 GMT-0400 (Eastern Daylight Time),648509.1999998093,B,diamond,I,d,227,2,3700.399999856949,644808.7999999523,9013,WL,C,5.0
6,14.985000133514404,distr,45014.999866485596,Wed Jun 11 2025 11:51:36 GMT-0400 (Eastern Daylight Time),649159.7999999523,B,diamondenter,I,enter,625,2,4351.0,644808.7999999523,9013,WL,C,5.0
6,17.51699995994568,distr,42483.00004005432,Wed Jun 11 2025 11:51:36 GMT-0400 (Eastern Daylight Time),651692.6999998093,B,w,I,w,2522,2,2532.5999999046326,649160.0999999046,9013,WL,C,6.0
6,17.618000030517578,distr,42381.99996948242,Wed Jun 11 2025 11:51:36 GMT-0400 (Eastern Daylight Time),651793.2999999523,B,wi,I,i,90,2,2633.2000000476837,649160.0999999046,9013,WL,C,6.0
6,17.784000158309937,distr,42215.99984169006,Wed Jun 11 2025 11:51:36 GMT-0400 (Eastern Daylight Time),651959.399999857,B,win,I,n,131,2,2799.2999999523163,649160.0999999046,9013,WL,C,6.0
6,17.867000102996826,distr,42132.999897003174,Wed Jun 11 2025 11:51:36 GMT-0400 (Eastern Daylight Time),652042.5999999046,B,wint,I,t,54,2,2882.5,649160.0999999046,9013,WL,C,6.0
6,18.034000158309937,distr,41965.99984169006,Wed Jun 11 2025 11:51:36 GMT-0400 (Eastern Daylight Time),652209.1999998093,B,winte,I,e,148,2,3049.0999999046326,649160.0999999046,9013,WL,C,6.0
6,18.117000102996826,distr,41882.999897003174,Wed Jun 11 2025 11:51:36 GMT-0400 (Eastern Daylight Time),652292.5,B,winter,I,r,53,2,3132.4000000953674,649160.0999999046,9013,WL,C,6.0
6,18.98300004005432,distr,41016.99995994568,Wed Jun 11 2025 11:51:36 GMT-0400 (Eastern Daylight Time),653158.7999999523,B,winterenter,I,enter,833,2,3998.7000000476837,649160.0999999046,9013,WL,C,6.0
6,19.68400001525879,distr,40315.99998474121,Wed Jun 11 2025 11:51:36 GMT-0400 (Eastern Daylight Time),653859.1999998093,B,m,I,m,683,2,700.1999998092651,653159.0,9013,WL,C,7.0
6,19.76699995994568,distr,40233.00004005432,Wed Jun 11 2025 11:51:36 GMT-0400 (Eastern Daylight Time),653942.399999857,B,mo,I,o,65,2,783.3999998569489,653159.0,9013,WL,C,7.0
6,20.0,distr,40000.0,Wed Jun 11 2025 11:51:36 GMT-0400 (Eastern Daylight Time),654175.6999998093,B,mot,I,t,209,2,1016.6999998092651,653159.0,9013,WL,C,7.0
6,20.151000022888184,distr,39848.99997711182,Wed Jun 11 2025 11:51:36 GMT-0400 (Eastern Daylight Time),654325.899999857,B,moth,I,h,127,2,1166.8999998569489,653159.0,9013,WL,C,7.0
6,20.250999927520752,distr,39749.00007247925,Wed Jun 11 2025 11:51:36 GMT-0400 (Eastern Daylight Time),654426.0,B,mothe,I,e,81,2,1267.0,653159.0,9013,WL,C,7.0
6,20.299999952316284,distr,39700.000047683716,Wed Jun 11 2025 11:51:36 GMT-0400 (Eastern Daylight Time),654475.399999857,B,mother,I,r,27,2,1316.3999998569489,653159.0,9013,WL,C,7.0
6,20.51699995994568,distr,39483.00004005432,Wed Jun 11 2025 11:51:36 GMT-0400 (Eastern Daylight Time),654692.1999998093,B,motherenter,I,enter,203,2,1533.1999998092651,653159.0,9013,WL,C,7.0
6,20.83400011062622,distr,39165.99988937378,Wed Jun 11 2025 11:51:36 GMT-0400 (Eastern Daylight Time),655009.2999999523,B,c,I,c,303,2,316.7999999523163,654692.5,9013,WL,C,8.0
6,20.93400001525879,distr,39065.99998474121,Wed Jun 11 2025 11:51:36 GMT-0400 (Eastern Daylight Time),655109.399999857,B,ch,I,h,67,2,416.89999985694885,654692.5,9013,WL,C,8.0
6,21.049999952316284,distr,38950.000047683716,Wed Jun 11 2025 11:51:36 GMT-0400 (Eastern Daylight Time),655225.7999999523,B,chr,I,r,96,2,533.2999999523163,654692.5,9013,WL,C,8.0
6,21.16700005531311,distr,38832.99994468689,Wed Jun 11 2025 11:51:36 GMT-0400 (Eastern Daylight Time),655342.5999999046,B,chri,I,i,93,2,650.0999999046326,654692.5,9013,WL,C,8.0
6,21.284000158309937,distr,38715.99984169006,Wed Jun 11 2025 11:51:36 GMT-0400 (Eastern Daylight Time),655459.2999999523,B,chris,I,s,105,2,766.7999999523163,654692.5,9013,WL,C,8.0
6,21.43400001525879,distr,38565.99998474121,Wed Jun 11 2025 11:51:36 GMT-0400 (Eastern Daylight Time),655609.399999857,B,christ,I,t,125,2,916.8999998569489,654692.5,9013,WL,C,8.0
6,21.618000030517578,distr,38381.99996948242,Wed Jun 11 2025 11:51:36 GMT-0400 (Eastern Daylight Time),655793.1999998093,B,christm,I,m,165,2,1100.6999998092651,654692.5,9013,WL,C,8.0
6,21.784000158309937,distr,38215.99984169006,Wed Jun 11 2025 11:51:36 GMT-0400 (Eastern Daylight Time),655959.1999998093,B,christma,I,a,143,2,1266.6999998092651,654692.5,9013,WL,C,8.0
6,21.83299994468689,distr,38167.00005531311,Wed Jun 11 2025 11:51:36 GMT-0400 (Eastern Daylight Time),656008.5999999046,B,christmas,I,s,31,2,1316.0999999046326,654692.5,9013,WL,C,8.0
6,22.450000047683716,distr,37549.999952316284,Wed Jun 11 2025 11:51:36 GMT-0400 (Eastern Daylight Time),656625.5,B,christmasenter,I,enter,600,2,1933.0,654692.5,9013,WL,C,8.0
6,24.43400001525879,distr,35565.99998474121,Wed Jun 11 2025 11:51:36 GMT-0400 (Eastern Daylight Time),658609.2999999523,B,m,I,m,1967,2,1983.5,656625.7999999523,9013,WL,C,9.0
6,24.634000062942505,distr,35365.999937057495,Wed Jun 11 2025 11:51:36 GMT-0400 (Eastern Daylight Time),658809.1999998093,B,me,I,e,180,2,2183.399999856949,656625.7999999523,9013,WL,C,9.0
6,24.66700005531311,distr,35332.99994468689,Wed Jun 11 2025 11:51:36 GMT-0400 (Eastern Daylight Time),658842.1999998093,B,mea,I,a,20,2,2216.399999856949,656625.7999999523,9013,WL,C,9.0
6,24.901000022888184,distr,35098.99997711182,Wed Jun 11 2025 11:51:36 GMT-0400 (Eastern Daylight Time),659076.0,B,meat,I,t,214,2,2450.2000000476837,656625.7999999523,9013,WL,C,9.0
6,25.317000150680542,distr,34682.99984931946,Wed Jun 11 2025 11:51:36 GMT-0400 (Eastern Daylight Time),659492.0999999046,B,meatenter,I,enter,394,2,2866.2999999523163,656625.7999999523,9013,WL,C,9.0
6,26.551000118255615,distr,33448.999881744385,Wed Jun 11 2025 11:51:36 GMT-0400 (Eastern Daylight Time),660726.0,B,f,I,f,1222,2,1233.6000001430511,659492.399999857,9013,WL,C,10.0
6,26.651000022888184,distr,33348.99997711182,Wed Jun 11 2025 11:51:36 GMT-0400 (Eastern Daylight Time),660825.899999857,B,fo,I,o,82,2,1333.5,659492.399999857,9013,WL,C,10.0
6,26.83400011062622,distr,33165.99988937378,Wed Jun 11 2025 11:51:36 GMT-0400 (Eastern Daylight Time),661009.1999998093,B,for,I,r,155,2,1516.7999999523163,659492.399999857,9013,WL,C,10.0
6,27.034000158309937,distr,32965.99984169006,Wed Jun 11 2025 11:51:36 GMT-0400 (Eastern Daylight Time),661209.1999998093,B,fore,I,e,166,2,1716.7999999523163,659492.399999857,9013,WL,C,10.0
6,27.05299997329712,distr,32947.00002670288,Wed Jun 11 2025 11:51:36 GMT-0400 (Eastern Daylight Time),661228.7999999523,B,fores,I,s,1,2,1736.4000000953674,659492.399999857,9013,WL,C,10.0
6,27.317000150680542,distr,32682.999849319458,Wed Jun 11 2025 11:51:36 GMT-0400 (Eastern Daylight Time),661492.5999999046,B,forest,I,t,247,2,2000.2000000476837,659492.399999857,9013,WL,C,10.0
6,28.799999952316284,distr,31200.000047683716,Wed Jun 11 2025 11:51:36 GMT-0400 (Eastern Daylight Time),662975.6999998093,B,forestenter,I,enter,1473,2,3483.2999999523163,659492.399999857,9013,WL,C,10.0
6,32.25099992752075,distr,27749.000072479248,Wed Jun 11 2025 11:51:36 GMT-0400 (Eastern Daylight Time),666425.899999857,B,p,I,p,3443,2,3449.899999856949,662976.0,9013,WL,C,11.0
6,32.41700005531311,distr,27582.99994468689,Wed Jun 11 2025 11:51:36 GMT-0400 (Eastern Daylight Time),666592.5,B,pl,I,l,140,2,3616.5,662976.0,9013,WL,C,11.0
6,32.51699995994568,distr,27483.00004005432,Wed Jun 11 2025 11:51:36 GMT-0400 (Eastern Daylight Time),666692.6999998093,B,pla,I,a,78,2,3716.699999809265,662976.0,9013,WL,C,11.0
6,32.65000009536743,distr,27349.99990463257,Wed Jun 11 2025 11:51:36 GMT-0400 (Eastern Daylight Time),666825.7999999523,B,plan,I,n,114,2,3849.7999999523163,662976.0,9013,WL,C,11.0
6,32.799999952316284,distr,27200.000047683716,Wed Jun 11 2025 11:51:36 GMT-0400 (Eastern Daylight Time),666975.1999998093,B,plant,I,t,121,2,3999.199999809265,662976.0,9013,WL,C,11.0
6,32.98399996757507,distr,27016.000032424927,Wed Jun 11 2025 11:51:36 GMT-0400 (Eastern Daylight Time),667158.7999999523,B,plantenter,I,enter,168,2,4182.799999952316,662976.0,9013,WL,C,11.0
6,33.651000022888184,distr,26348.999977111816,Wed Jun 11 2025 11:51:36 GMT-0400 (Eastern Daylight Time),667825.899999857,B,t,I,t,651,2,666.7000000476837,667159.1999998093,9013,WL,C,12.0
6,33.78400015830994,distr,26215.999841690063,Wed Jun 11 2025 11:51:36 GMT-0400 (Eastern Daylight Time),667959.1999998093,B,to,I,o,109,2,800.0,667159.1999998093,9013,WL,C,12.0
6,33.90000009536743,distr,26099.99990463257,Wed Jun 11 2025 11:51:36 GMT-0400 (Eastern Daylight Time),668075.5,B,too,I,o,103,2,916.3000001907349,667159.1999998093,9013,WL,C,12.0
6,34.08400011062622,distr,25915.99988937378,Wed Jun 11 2025 11:51:36 GMT-0400 (Eastern Daylight Time),668259.2999999523,B,tool,I,l,168,2,1100.1000001430511,667159.1999998093,9013,WL,C,12.0
6,34.38300013542175,distr,25616.999864578247,Wed Jun 11 2025 11:51:36 GMT-0400 (Eastern Daylight Time),668558.7999999523,B,toolenter,I,enter,274,2,1399.6000001430511,667159.1999998093,9013,WL,C,12.0
6,35.134000062942505,distr,24865.999937057495,Wed Jun 11 2025 11:51:36 GMT-0400 (Eastern Daylight Time),669309.1999998093,B,b,I,b,731,2,750.0999999046326,668559.0999999046,9013,WL,C,13.0
6,35.18400001525879,distr,24815.99998474121,Wed Jun 11 2025 11:51:36 GMT-0400 (Eastern Daylight Time),669358.899999857,B,bu,I,u,26,2,799.7999999523163,668559.0999999046,9013,WL,C,13.0
6,35.384000062942505,distr,24615.999937057495,Wed Jun 11 2025 11:51:36 GMT-0400 (Eastern Daylight Time),669559.1999998093,B,but,I,t,176,2,1000.0999999046326,668559.0999999046,9013,WL,C,13.0
6,35.51699995994568,distr,24483.00004005432,Wed Jun 11 2025 11:51:36 GMT-0400 (Eastern Daylight Time),669692.5999999046,B,butt,I,t,119,2,1133.5,668559.0999999046,9013,WL,C,13.0
6,35.68400001525879,distr,24315.99998474121,Wed Jun 11 2025 11:51:36 GMT-0400 (Eastern Daylight Time),669859.1999998093,B,butte,I,e,146,2,1300.0999999046326,668559.0999999046,9013,WL,C,13.0
6,35.73399996757507,distr,24266.000032424927,Wed Jun 11 2025 11:51:36 GMT-0400 (Eastern Daylight Time),669909.2999999523,B,butter,I,r,36,2,1350.2000000476837,668559.0999999046,9013,WL,C,13.0
6,36.200000047683716,distr,23799.999952316284,Wed Jun 11 2025 11:51:36 GMT-0400 (Eastern Daylight Time),670375.6999998093,B,butterenter,I,enter,446,2,1816.5999999046326,668559.0999999046,9013,WL,C,13.0
6,45.28400015830994,distr,14715.999841690063,Wed Jun 11 2025 11:51:36 GMT-0400 (Eastern Daylight Time),679458.899999857,B,w,I,w,9074,2,9082.899999856949,670376.0,9013,WL,C,14.0
6,45.40000009536743,distr,14599.999904632568,Wed Jun 11 2025 11:51:36 GMT-0400 (Eastern Daylight Time),679575.399999857,B,wo,I,o,94,2,9199.399999856949,670376.0,9013,WL,C,14.0
6,45.50099992752075,distr,14499.000072479248,Wed Jun 11 2025 11:51:36 GMT-0400 (Eastern Daylight Time),679675.899999857,B,woo,I,o,90,2,9299.899999856949,670376.0,9013,WL,C,14.0
6,45.6010000705719,distr,14398.9999294281,Wed Jun 11 2025 11:51:36 GMT-0400 (Eastern Daylight Time),679776.0,B,wood,I,d,66,2,9400.0,670376.0,9013,WL,C,14.0
6,45.76699995994568,distr,14233.000040054321,Wed Jun 11 2025 11:51:36 GMT-0400 (Eastern Daylight Time),679942.5999999046,B,woods,I,s,152,2,9566.599999904633,670376.0,9013,WL,C,14.0
6,45.91700005531311,distr,14082.99994468689,Wed Jun 11 2025 11:51:36 GMT-0400 (Eastern Daylight Time),680092.0999999046,B,woodsenter,I,enter,127,2,9716.099999904633,670376.0,9013,WL,C,14.0
6,54.200000047683716,distr,5799.999952316284,Wed Jun 11 2025 11:51:36 GMT-0400 (Eastern Daylight Time),688375.7999999523,B,h,I,h,8261,2,8283.299999952316,680092.5,9013,WL,C,15.0
6,54.25,distr,5750.0,Wed Jun 11 2025 11:51:36 GMT-0400 (Eastern Daylight Time),688425.7999999523,B,ho,I,o,22,2,8333.299999952316,680092.5,9013,WL,C,15.0
6,54.3510000705719,distr,5648.999929428101,Wed Jun 11 2025 11:51:36 GMT-0400 (Eastern Daylight Time),688525.899999857,B,hot,I,t,82,2,8433.399999856949,680092.5,9013,WL,C,15.0
6,54.53400015830994,distr,5465.9998416900635,Wed Jun 11 2025 11:51:36 GMT-0400 (Eastern Daylight Time),688709.0,B,hote,I,e,162,2,8616.5,680092.5,9013,WL,C,15.0
6,54.6010000705719,distr,5398.999929428101,Wed Jun 11 2025 11:51:36 GMT-0400 (Eastern Daylight Time),688775.7999999523,B,hotel,I,l,39,2,8683.299999952316,680092.5,9013,WL,C,15.0
6,54.81700015068054,distr,5182.999849319458,Wed Jun 11 2025 11:51:36 GMT-0400 (Eastern Daylight Time),688992.1999998093,B,hotelenter,I,enter,207,2,8899.699999809265,680092.5,9013,WL,C,15.0
7,3.116000175476074,immed,56883.999824523926,Wed Jun 11 2025 11:51:36 GMT-0400 (Eastern Daylight Time),694992.6999998093,A,t,I,t,3099,2,3116.199999809265,691876.5,9013,WL,C,1.0
7,3.199000120162964,immed,56800.999879837036,Wed Jun 11 2025 11:51:36 GMT-0400 (Eastern Daylight Time),695075.899999857,A,to,I,o,66,2,3199.399999856949,691876.5,9013,WL,C,1.0
7,3.366000175476074,immed,56633.999824523926,Wed Jun 11 2025 11:51:36 GMT-0400 (Eastern Daylight Time),695242.5999999046,A,tow,I,w,140,2,3366.0999999046326,691876.5,9013,WL,C,1.0
7,3.433000087738037,immed,56566.99991226196,Wed Jun 11 2025 11:51:36 GMT-0400 (Eastern Daylight Time),695308.899999857,A,towe,I,e,40,2,3432.399999856949,691876.5,9013,WL,C,1.0
7,3.616000175476074,immed,56383.999824523926,Wed Jun 11 2025 11:51:36 GMT-0400 (Eastern Daylight Time),695492.6999998093,A,tower,I,r,170,2,3616.199999809265,691876.5,9013,WL,C,1.0
7,3.9830000400543213,immed,56016.99995994568,Wed Jun 11 2025 11:51:36 GMT-0400 (Eastern Daylight Time),695858.899999857,A,towerenter,I,enter,347,2,3982.399999856949,691876.5,9013,WL,C,1.0
7,5.166000127792358,immed,54833.99987220764,Wed Jun 11 2025 11:51:36 GMT-0400 (Eastern Daylight Time),697042.1999998093,A,w,I,w,1175,2,1182.8999998569489,695859.2999999523,9013,WL,C,2.0
7,5.266000032424927,immed,54733.99996757507,Wed Jun 11 2025 11:51:36 GMT-0400 (Eastern Daylight Time),697142.399999857,A,wh,I,h,80,2,1283.0999999046326,695859.2999999523,9013,WL,C,2.0
7,6.1000001430511475,immed,53899.99985694885,Wed Jun 11 2025 11:51:36 GMT-0400 (Eastern Daylight Time),697975.899999857,A,whe,I,e,812,2,2116.5999999046326,695859.2999999523,9013,WL,C,2.0
7,6.199000120162964,immed,53800.999879837036,Wed Jun 11 2025 11:51:36 GMT-0400 (Eastern Daylight Time),698075.7999999523,A,whea,I,a,84,2,2216.5,695859.2999999523,9013,WL,C,2.0
7,6.400000095367432,immed,53599.99990463257,Wed Jun 11 2025 11:51:36 GMT-0400 (Eastern Daylight Time),698276.0999999046,A,wheat,I,t,179,2,2416.7999999523163,695859.2999999523,9013,WL,C,2.0
7,6.933000087738037,immed,53066.99991226196,Wed Jun 11 2025 11:51:36 GMT-0400 (Eastern Daylight Time),698808.899999857,A,wheatenter,I,enter,504,2,2949.5999999046326,695859.2999999523,9013,WL,C,2.0
7,8.683000087738037,immed,51316.99991226196,Wed Jun 11 2025 11:51:36 GMT-0400 (Eastern Daylight Time),700559.399999857,A,q,I,q,1737,2,1750.2000000476837,698809.1999998093,9013,WL,C,3.0
7,8.782999992370605,immed,51217.000007629395,Wed Jun 11 2025 11:51:36 GMT-0400 (Eastern Daylight Time),700659.1999998093,A,qu,I,u,88,2,1850.0,698809.1999998093,9013,WL,C,3.0
