Q,Q1,Q2,Q3,Q4,acc_sum,block,block_c,correct,correct_response,datetime,endtime,project,response,response_time,row_sel,session_number,squiggle1,squiggle1x,squiggle1y,squiggle2,squiggle2x,squiggle2y,squiggle3,squiggle3x,squiggle3y,squiggle4,squiggle4x,squiggle4y,start_end,starttime,subject_id,target_congruent,task,task_vers,testsquiggle,testsquigglex,testsquiggley,time_practice_delay,time_practice_fixation,time_practice_stimuli,time_practice_study,time_test_delay,time_test_fixation,time_test_stimuli,time_test_study,trial
1,1,0,0,0,1,prac,1,1,z,Fri Jan 16 2026 10:33:42 GMT-0600 (Central Standard Time),143411.90000009537,O,z,1204,1,1,116.bmp,-120,-120,117.bmp,120,-120,118.bmp,-120,120,119.bmp,120,120,10026.799999952316,133385.10000014305,7745,yes,SM,A,116.bmp,-120,-120,136570,130542,138587,132556,,,,,1
3,0,0,1,0,2,prac,1,1,m,Fri Jan 16 2026 10:33:42 GMT-0600 (Central Standard Time),153694.0,O,m,1452,2,1,120.bmp,-120,-120,121.bmp,120,-120,122.bmp,-120,120,123.bmp,120,120,10274.5,143419.5,7745,no,SM,A,123.bmp,-120,120,146603,140577,148617,142586,,,,,2
4,0,0,0,1,3,prac,1,1,m,Fri Jan 16 2026 10:33:42 GMT-0600 (Central Standard Time),163721.10000014305,O,m,1214,3,1,124.bmp,-120,-120,125.bmp,120,-120,126.bmp,-120,120,127.bmp,120,120,10021.900000095367,153699.20000004768,7745,no,SM,A,124.bmp,120,120,156880,150856,158896,152865,,,,,3
2,0,1,0,0,3,prac,1,0,z,Fri Jan 16 2026 10:33:42 GMT-0600 (Central Standard Time),174551.5,O,None,2015,4,1,128.bmp,-120,-120,129.bmp,120,-120,130.bmp,-120,120,131.bmp,120,120,10825.199999809265,163726.30000019073,7745,yes,SM,A,129.bmp,120,-120,166911,160884,168927,162896,,,,,4
3,0,0,1,0,4,prac,1,1,z,Fri Jan 16 2026 10:33:42 GMT-0600 (Central Standard Time),184398.30000019073,O,z,1026,5,1,132.bmp,-120,-120,133.bmp,120,-120,134.bmp,-120,120,135.bmp,120,120,9841.200000047684,174557.10000014305,7745,yes,SM,A,134.bmp,-120,120,177740,171714,179756,173725,,,,,5
1,1,0,0,0,5,prac,1,1,m,Fri Jan 16 2026 10:33:42 GMT-0600 (Central Standard Time),194612.0,O,m,1412,6,1,136.bmp,-120,-120,137.bmp,120,-120,138.bmp,-120,120,139.bmp,120,120,10211.099999904633,184400.90000009537,7745,no,SM,A,139.bmp,-120,-120,187573,181558,189586,183572,,,,,6
2,0,1,0,0,6,prac,1,1,m,Fri Jan 16 2026 10:33:42 GMT-0600 (Central Standard Time),204559.90000009537,O,m,1142,7,1,140.bmp,-120,-120,141.bmp,120,-120,142.bmp,-120,120,143.bmp,120,120,9944.700000047684,194615.20000004768,7745,no,SM,A,140.bmp,120,-120,197800,191772,199801,193785,,,,,7
4,0,0,0,1,7,prac,1,1,z,Fri Jan 16 2026 10:33:42 GMT-0600 (Central Standard Time),214788.60000014305,O,z,1403,8,1,144.bmp,-120,-120,145.bmp,120,-120,146.bmp,-120,120,147.bmp,120,120,10223.600000143051,204565.0,7745,yes,SM,A,147.bmp,120,120,207748,201722,209763,203732,,,,,8
4,0,0,0,1,1,test,1,1,m,Fri Jan 16 2026 10:33:42 GMT-0600 (Central Standard Time),239346.80000019073,O,m,946,1,1,148.bmp,-120,-120,149.bmp,120,-120,150.bmp,-120,120,143.bmp,120,120,8993.600000143051,230353.20000004768,7745,no,SM,A,150.bmp,120,120,207748,201722,209763,203732,233539.0,227510.0,235557.0,229523.0,1
2,0,1,0,0,2,test,1,1,m,Fri Jan 16 2026 10:33:42 GMT-0600 (Central Standard Time),248511.10000014305,O,m,1110,2,1,101.bmp,-120,-120,102.bmp,120,-120,103.bmp,-120,120,104.bmp,120,120,9161.900000095367,239349.20000004768,7745,no,SM,A,103.bmp,120,-120,207748,201722,209763,203732,242536.0,236506.0,244553.0,238522.0,2
1,1,0,0,0,3,test,1,1,z,Fri Jan 16 2026 10:33:42 GMT-0600 (Central Standard Time),257808.30000019073,O,z,1243,3,1,105.bmp,-120,-120,106.bmp,120,-120,107.bmp,-120,120,108.bmp,120,120,9293.300000190735,248515.0,7745,yes,SM,A,105.bmp,-120,-120,207748,201722,209763,203732,251700.0,245672.0,253717.0,247684.0,3
3,0,0,1,0,3,test,1,0,m,Fri Jan 16 2026 10:33:42 GMT-0600 (Central Standard Time),267523.60000014305,O,z,1666,4,1,109.bmp,-120,-120,110.bmp,120,-120,111.bmp,-120,120,112.bmp,120,120,9712.299999952316,257811.30000019073,7745,no,SM,A,109.bmp,-120,120,207748,201722,209763,203732,260998.0,254968.0,263013.0,256983.0,4
2,0,1,0,0,3,test,1,0,z,Fri Jan 16 2026 10:33:42 GMT-0600 (Central Standard Time),276219.30000019073,O,m,649,5,1,113.bmp,-120,-120,114.bmp,120,-120,115.bmp,-120,120,116.bmp,120,120,8690.900000095367,267528.40000009537,7745,yes,SM,A,114.bmp,120,-120,207748,201722,209763,203732,270711.0,264686.0,272727.0,266698.0,5
3,0,0,1,0,4,test,1,1,z,Fri Jan 16 2026 10:33:42 GMT-0600 (Central Standard Time),285599.90000009537,O,z,1343,6,1,117.bmp,-120,-120,118.bmp,120,-120,119.bmp,-120,120,120.bmp,120,120,9375.700000047684,276224.2000000477,7745,yes,SM,A,119.bmp,-120,120,207748,201722,209763,203732,279407.0,273382.0,281408.0,275396.0,6
4,0,0,0,1,4,test,1,0,z,Fri Jan 16 2026 10:33:42 GMT-0600 (Central Standard Time),294432.80000019073,O,m,777,7,1,121.bmp,-120,-120,122.bmp,120,-120,123.bmp,-120,120,124.bmp,120,120,8828.100000143051,285604.7000000477,7745,yes,SM,A,124.bmp,120,120,207748,201722,209763,203732,288788.0,282762.0,290805.0,284774.0,7
2,0,1,0,0,5,test,1,1,m,Fri Jan 16 2026 10:33:42 GMT-0600 (Central Standard Time),303910.7000000477,O,m,1429,8,1,125.bmp,-120,-120,126.bmp,120,-120,127.bmp,-120,120,128.bmp,120,120,9473.5,294437.2000000477,7745,no,SM,A,125.bmp,120,-120,207748,201722,209763,203732,297620.0,291595.0,299635.0,293604.0,8
3,0,0,1,0,6,test,1,1,m,Fri Jan 16 2026 10:33:42 GMT-0600 (Central Standard Time),313058.10000014305,O,m,1100,9,1,129.bmp,-120,-120,130.bmp,120,-120,131.bmp,-120,120,132.bmp,120,120,9144.200000047684,303913.90000009537,7745,no,SM,A,130.bmp,-120,120,207748,201722,209763,203732,307099.0,301071.0,309115.0,303085.0,9
4,0,0,0,1,6,test,1,0,z,Fri Jan 16 2026 10:33:42 GMT-0600 (Central Standard Time),323102.7000000477,O,None,2012,10,1,137.bmp,-120,-120,138.bmp,120,-120,139.bmp,-120,120,140.bmp,120,120,10041.599999904633,313061.10000014305,7745,yes,SM,A,140.bmp,120,120,207748,201722,209763,203732,316247.0,310218.0,318248.0,312231.0,10
3,0,0,1,0,7,test,1,1,z,Fri Jan 16 2026 10:33:42 GMT-0600 (Central Standard Time),332651.10000014305,O,z,1488,11,1,133.bmp,-120,-120,134.bmp,120,-120,135.bmp,-120,120,136.bmp,120,120,9546.200000047684,323104.90000009537,7745,yes,SM,A,135.bmp,-120,120,207748,201722,209763,203732,326294.0,320262.0,328310.0,322278.0,11
2,0,1,0,0,8,test,1,1,m,Fri Jan 16 2026 10:33:42 GMT-0600 (Central Standard Time),341816.0,O,m,1108,12,1,141.bmp,-120,-120,142.bmp,120,-120,143.bmp,-120,120,144.bmp,120,120,9162.899999856949,332653.10000014305,7745,no,SM,A,141.bmp,120,-120,207748,201722,209763,203732,335842.0,329810.0,337858.0,331825.0,12
3,0,0,1,0,9,test,1,1,m,Fri Jan 16 2026 10:33:42 GMT-0600 (Central Standard Time),350828.60000014305,O,m,963,13,1,145.bmp,-120,-120,146.bmp,120,-120,147.bmp,-120,120,148.bmp,120,120,9009.600000143051,341819.0,7745,no,SM,A,146.bmp,-120,120,207748,201722,209763,203732,345005.0,338976.0,347020.0,340989.0,13
1,1,0,0,0,10,test,1,1,z,Fri Jan 16 2026 10:33:42 GMT-0600 (Central Standard Time),360258.80000019073,O,z,1381,14,1,149.bmp,-120,-120,150.bmp,120,-120,104.bmp,-120,120,101.bmp,120,120,9426.800000190735,350832.0,7745,yes,SM,A,149.bmp,-120,-120,207748,201722,209763,203732,354017.0,347989.0,356019.0,350002.0,14
4,0,0,0,1,10,test,1,0,m,Fri Jan 16 2026 10:33:42 GMT-0600 (Central Standard Time),369773.60000014305,O,z,1453,15,1,110.bmp,-120,-120,111.bmp,120,-120,112.bmp,-120,120,113.bmp,120,120,9510.600000143051,360263.0,7745,no,SM,A,111.bmp,120,120,207748,201722,209763,203732,363449.0,357420.0,365465.0,359432.0,15
1,1,0,0,0,11,test,1,1,m,Fri Jan 16 2026 10:33:42 GMT-0600 (Central Standard Time),378754.2000000477,O,m,933,16,1,102.bmp,-120,-120,103.bmp,120,-120,104.bmp,-120,120,105.bmp,120,120,8976.299999952316,369777.90000009537,7745,no,SM,A,105.bmp,-120,-120,207748,201722,209763,203732,372962.0,366935.0,374978.0,368949.0,16
3,0,0,1,0,11,test,1,0,m,Fri Jan 16 2026 10:33:42 GMT-0600 (Central Standard Time),387950.2000000477,O,z,1136,17,1,122.bmp,-120,-120,123.bmp,120,-120,124.bmp,-120,120,125.bmp,120,120,9192.599999904633,378757.60000014305,7745,no,SM,A,122.bmp,-120,120,207748,201722,209763,203732,381942.0,375915.0,383958.0,377927.0,17
1,1,0,0,0,12,test,1,1,z,Fri Jan 16 2026 10:33:42 GMT-0600 (Central Standard Time),397030.80000019073,O,z,1019,18,1,106.bmp,-120,-120,107.bmp,120,-120,108.bmp,-120,120,109.bmp,120,120,9078.0,387952.80000019073,7745,yes,SM,A,106.bmp,-120,-120,207748,201722,209763,203732,391139.0,385110.0,393156.0,387124.0,18
2,0,1,0,0,13,test,1,1,z,Fri Jan 16 2026 10:33:42 GMT-0600 (Central Standard Time),406261.0,O,z,1168,19,1,126.bmp,-120,-120,127.bmp,120,-120,128.bmp,-120,120,129.bmp,120,120,9228.199999809265,397032.80000019073,7745,yes,SM,A,127.bmp,120,-120,207748,201722,209763,203732,400220.0,394190.0,402238.0,396204.0,19
3,0,0,1,0,14,test,1,1,z,Fri Jan 16 2026 10:33:42 GMT-0600 (Central Standard Time),415307.40000009537,O,z,996,20,1,130.bmp,-120,-120,131.bmp,120,-120,132.bmp,-120,120,133.bmp,120,120,9043.599999904633,406263.80000019073,7745,yes,SM,A,132.bmp,-120,120,207748,201722,209763,203732,409452.0,403421.0,411466.0,405434.0,20
1,1,0,0,0,14,test,1,0,m,Fri Jan 16 2026 10:33:42 GMT-0600 (Central Standard Time),424605.40000009537,O,z,1253,21,1,114.bmp,-120,-120,115.bmp,120,-120,116.bmp,-120,120,117.bmp,120,120,9295.400000095367,415310.0,7745,no,SM,A,116.bmp,-120,-120,207748,201722,209763,203732,418480.0,412467.0,420497.0,414470.0,21
4,0,0,0,1,15,test,1,1,z,Fri Jan 16 2026 10:33:42 GMT-0600 (Central Standard Time),434002.40000009537,O,z,1356,22,1,118.bmp,-120,-120,119.bmp,120,-120,120.bmp,-120,120,121.bmp,120,120,9395.0,424607.40000009537,7745,yes,SM,A,121.bmp,120,120,207748,201722,209763,203732,427793.0,421765.0,429794.0,423779.0,22
1,1,0,0,0,16,test,1,1,m,Fri Jan 16 2026 10:33:42 GMT-0600 (Central Standard Time),443416.5,O,m,1348,23,1,134.bmp,-120,-120,135.bmp,120,-120,136.bmp,-120,120,137.bmp,120,120,9409.599999904633,434006.90000009537,7745,no,SM,A,137.bmp,-120,-120,207748,201722,209763,203732,437193.0,431164.0,439209.0,433176.0,23
2,0,1,0,0,17,test,1,1,z,Fri Jan 16 2026 10:33:42 GMT-0600 (Central Standard Time),452579.90000009537,O,z,1130,24,1,142.bmp,-120,-120,143.bmp,120,-120,144.bmp,-120,120,145.bmp,120,120,9160.799999952316,443419.10000014305,7745,yes,SM,A,143.bmp,120,-120,207748,201722,209763,203732,446604.0,440576.0,448605.0,442589.0,24
4,0,0,0,1,18,test,1,1,m,Fri Jan 16 2026 10:33:42 GMT-0600 (Central Standard Time),461927.10000014305,O,m,1286,25,1,146.bmp,-120,-120,147.bmp,120,-120,148.bmp,-120,120,149.bmp,120,120,9345.400000095367,452581.7000000477,7745,no,SM,A,148.bmp,120,120,207748,201722,209763,203732,455768.0,449739.0,457785.0,451753.0,25
1,1,0,0,0,19,test,1,1,z,Fri Jan 16 2026 10:33:42 GMT-0600 (Central Standard Time),470908.2000000477,O,z,918,26,1,138.bmp,-120,-120,139.bmp,120,-120,140.bmp,-120,120,141.bmp,120,120,8977.299999952316,461930.90000009537,7745,yes,SM,A,138.bmp,-120,-120,207748,201722,209763,203732,465116.0,459088.0,467130.0,461101.0,26
4,0,0,0,1,20,test,1,1,z,Fri Jan 16 2026 10:33:42 GMT-0600 (Central Standard Time),480070.60000014305,O,z,1100,27,1,150.bmp,-120,-120,111.bmp,120,-120,101.bmp,-120,120,102.bmp,120,120,9154.100000143051,470916.5,7745,yes,SM,A,102.bmp,120,120,207748,201722,209763,203732,474096.0,468074.0,476114.0,470081.0,27
3,0,0,1,0,20,test,1,0,m,Fri Jan 16 2026 10:33:42 GMT-0600 (Central Standard Time),489967.5,O,z,1841,28,1,103.bmp,-120,-120,104.bmp,120,-120,105.bmp,-120,120,106.bmp,120,120,9894.699999809265,480072.80000019073,7745,no,SM,A,103.bmp,-120,120,207748,201722,209763,203732,483261.0,477230.0,485278.0,479246.0,28
2,0,1,0,0,21,test,1,1,z,Fri Jan 16 2026 10:33:42 GMT-0600 (Central Standard Time),499130.7000000477,O,z,1104,29,1,107.bmp,-120,-120,108.bmp,120,-120,109.bmp,-120,120,110.bmp,120,120,9158.599999904633,489972.10000014305,7745,yes,SM,A,108.bmp,120,-120,207748,201722,209763,203732,493158.0,487129.0,495173.0,489141.0,29
3,0,0,1,0,22,test,1,1,z,Fri Jan 16 2026 10:33:42 GMT-0600 (Central Standard Time),508512.5,O,z,1318,30,1,111.bmp,-120,-120,112.bmp,120,-120,113.bmp,-120,120,114.bmp,120,120,9379.599999904633,499132.90000009537,7745,yes,SM,A,113.bmp,-120,120,207748,201722,209763,203732,502324.0,496290.0,504337.0,498305.0,30
1,1,0,0,0,23,test,1,1,z,Fri Jan 16 2026 10:33:42 GMT-0600 (Central Standard Time),517909.0,O,z,1337,31,1,115.bmp,-120,-120,116.bmp,120,-120,117.bmp,-120,120,118.bmp,120,120,9387.299999952316,508521.7000000477,7745,yes,SM,A,115.bmp,-120,-120,207748,201722,209763,203732,511701.0,505679.0,513717.0,507686.0,31
2,0,1,0,0,24,test,1,1,m,Fri Jan 16 2026 10:33:42 GMT-0600 (Central Standard Time),527139.5,O,m,1181,32,1,119.bmp,-120,-120,120.bmp,120,-120,121.bmp,-120,120,122.bmp,120,120,9226.099999904633,517913.40000009537,7745,no,SM,A,119.bmp,120,-120,207748,201722,209763,203732,521098.0,515071.0,523114.0,517082.0,32
4,0,0,0,1,25,test,1,1,z,Fri Jan 16 2026 10:33:42 GMT-0600 (Central Standard Time),537004.600000143,O,z,1820,33,1,131.bmp,-120,-120,132.bmp,120,-120,133.bmp,-120,120,134.bmp,120,120,9861.600000143051,527143.0,7745,yes,SM,A,134.bmp,120,120,207748,201722,209763,203732,530313.0,524301.0,532327.0,526311.0,33
2,0,1,0,0,26,test,1,1,z,Fri Jan 16 2026 10:33:42 GMT-0600 (Central Standard Time),546384.9000000954,O,z,1318,34,1,123.bmp,-120,-120,124.bmp,120,-120,125.bmp,-120,120,126.bmp,120,120,9373.400000095367,537011.5,7745,yes,SM,A,124.bmp,120,-120,207748,201722,209763,203732,540191.0,534169.0,542208.0,536176.0,34
4,0,0,0,1,27,test,1,1,m,Fri Jan 16 2026 10:33:42 GMT-0600 (Central Standard Time),555829.7000000477,O,m,1388,35,1,127.bmp,-120,-120,128.bmp,120,-120,129.bmp,-120,120,130.bmp,120,120,9440.299999952316,546389.4000000954,7745,no,SM,A,129.bmp,120,120,207748,201722,209763,203732,549571.0,543547.0,551587.0,545558.0,35
3,0,0,1,0,27,test,1,0,m,Fri Jan 16 2026 10:33:42 GMT-0600 (Central Standard Time),565060.9000000954,O,z,1172,36,1,135.bmp,-120,-120,136.bmp,120,-120,137.bmp,-120,120,138.bmp,120,120,9228.400000095367,555832.5,7745,no,SM,A,135.bmp,-120,120,207748,201722,209763,203732,559019.0,552990.0,561034.0,555004.0,36
1,1,0,0,0,28,test,1,1,m,Fri Jan 16 2026 10:33:42 GMT-0600 (Central Standard Time),574174.100000143,O,m,1052,37,1,139.bmp,-120,-120,140.bmp,120,-120,141.bmp,-120,120,142.bmp,120,120,9110.799999952316,565063.3000001907,7745,no,SM,A,140.bmp,-120,-120,207748,201722,209763,203732,568250.0,562220.0,570266.0,564236.0,37
2,0,1,0,0,28,test,1,0,m,Fri Jan 16 2026 10:33:42 GMT-0600 (Central Standard Time),584070.7000000477,O,z,1857,38,1,143.bmp,-120,-120,144.bmp,120,-120,145.bmp,-120,120,146.bmp,120,120,9894.399999856949,574176.3000001907,7745,no,SM,A,145.bmp,120,-120,207748,201722,209763,203732,577363.0,571334.0,579365.0,573349.0,38
4,0,0,0,1,29,test,1,1,z,Fri Jan 16 2026 10:33:42 GMT-0600 (Central Standard Time),593684.100000143,O,z,1550,39,1,147.bmp,-120,-120,148.bmp,120,-120,149.bmp,-120,120,150.bmp,120,120,9610.600000143051,584073.5,7745,yes,SM,A,150.bmp,120,120,207748,201722,209763,203732,587262.0,581231.0,589276.0,583248.0,39
3,0,0,1,0,30,test,1,1,m,Fri Jan 16 2026 10:33:42 GMT-0600 (Central Standard Time),602797.8000001907,O,m,1050,40,1,104.bmp,-120,-120,105.bmp,120,-120,106.bmp,-120,120,107.bmp,120,120,9110.600000143051,593687.2000000477,7745,no,SM,A,105.bmp,-120,120,207748,201722,209763,203732,596873.0,590844.0,598892.0,592859.0,40
1,1,0,0,0,31,test,1,1,z,Fri Jan 16 2026 10:33:42 GMT-0600 (Central Standard Time),611749.4000000954,O,z,900,41,1,108.bmp,-120,-120,109.bmp,120,-120,110.bmp,-120,120,111.bmp,120,120,8948.099999904633,602801.3000001907,7745,yes,SM,A,108.bmp,-120,-120,207748,201722,209763,203732,605987.0,599959.0,608006.0,601973.0,41
4,0,0,0,1,32,test,1,1,z,Fri Jan 16 2026 10:33:42 GMT-0600 (Central Standard Time),621060.4000000954,O,z,1257,42,1,112.bmp,-120,-120,113.bmp,120,-120,114.bmp,-120,120,115.bmp,120,120,9308.700000047684,611751.7000000477,7745,yes,SM,A,115.bmp,120,120,207748,201722,209763,203732,614934.0,608909.0,616950.0,610920.0,42
1,1,0,0,0,33,test,1,1,z,Fri Jan 16 2026 10:33:42 GMT-0600 (Central Standard Time),630423.9000000954,O,z,1324,43,1,116.bmp,-120,-120,117.bmp,120,-120,118.bmp,-120,120,119.bmp,120,120,9360.900000095367,621063.0,7745,yes,SM,A,116.bmp,-120,-120,207748,201722,209763,203732,624248.0,618220.0,626250.0,620234.0,43
4,0,0,0,1,34,test,1,1,m,Fri Jan 16 2026 10:33:42 GMT-0600 (Central Standard Time),639669.8000001907,O,m,1186,44,1,104.bmp,-120,-120,101.bmp,120,-120,102.bmp,-120,120,103.bmp,120,120,9243.600000143051,630426.2000000477,7745,no,SM,A,104.bmp,120,120,207748,201722,209763,203732,633611.0,627583.0,635628.0,629597.0,44
1,1,0,0,0,35,test,1,1,m,Fri Jan 16 2026 10:33:42 GMT-0600 (Central Standard Time),648899.8000001907,O,m,1172,45,1,128.bmp,-120,-120,129.bmp,120,-120,130.bmp,-120,120,131.bmp,120,120,9225.800000190735,639674.0,7745,no,SM,A,131.bmp,-120,-120,207748,201722,209763,203732,642861.0,636831.0,644874.0,638844.0,45
1,1,0,0,0,36,test,1,1,m,Fri Jan 16 2026 10:33:42 GMT-0600 (Central Standard Time),658047.9000000954,O,m,1085,46,1,120.bmp,-120,-120,121.bmp,120,-120,122.bmp,-120,120,123.bmp,120,120,9144.799999952316,648903.100000143,7745,no,SM,A,121.bmp,-120,-120,207748,201722,209763,203732,652089.0,646060.0,654105.0,648074.0,46
3,0,0,1,0,37,test,1,1,z,Fri Jan 16 2026 10:33:42 GMT-0600 (Central Standard Time),667661.0,O,z,1577,47,1,124.bmp,-120,-120,125.bmp,120,-120,126.bmp,-120,120,127.bmp,120,120,9610.0,658051.0,7745,yes,SM,A,126.bmp,-120,120,207748,201722,209763,203732,661236.0,655208.0,663237.0,657222.0,47
3,0,0,1,0,38,test,1,1,z,Fri Jan 16 2026 10:33:42 GMT-0600 (Central Standard Time),677276.8000001907,O,z,1557,48,1,140.bmp,-120,-120,141.bmp,120,-120,142.bmp,-120,120,143.bmp,120,120,9613.400000095367,667663.4000000954,7745,yes,SM,A,142.bmp,-120,120,207748,201722,209763,203732,670851.0,664821.0,672865.0,666835.0,48
2,0,1,0,0,39,test,1,1,z,Fri Jan 16 2026 10:33:42 GMT-0600 (Central Standard Time),686522.600000143,O,z,1199,49,1,136.bmp,-120,-120,137.bmp,120,-120,138.bmp,-120,120,139.bmp,120,120,9243.5,677279.100000143,7745,yes,SM,A,137.bmp,120,-120,207748,201722,209763,203732,680464.0,674436.0,682479.0,676448.0,49
3,0,0,1,0,39,test,1,0,m,Fri Jan 16 2026 10:33:42 GMT-0600 (Central Standard Time),695802.8000001907,O,z,1233,50,1,132.bmp,-120,-120,133.bmp,120,-120,134.bmp,-120,120,135.bmp,120,120,9278.200000047684,686524.600000143,7745,no,SM,A,132.bmp,-120,120,207748,201722,209763,203732,689695.0,683682.0,691710.0,685694.0,50
2,0,1,0,0,40,test,1,1,z,Fri Jan 16 2026 10:33:42 GMT-0600 (Central Standard Time),705283.7000000477,O,z,1424,51,1,144.bmp,-120,-120,145.bmp,120,-120,146.bmp,-120,120,147.bmp,120,120,9476.700000047684,695807.0,7745,yes,SM,A,145.bmp,120,-120,207748,201722,209763,203732,698990.0,692964.0,701006.0,694976.0,51
4,0,0,0,1,41,test,1,1,m,Fri Jan 16 2026 10:33:42 GMT-0600 (Central Standard Time),714914.0,O,m,1590,52,1,148.bmp,-120,-120,149.bmp,120,-120,150.bmp,-120,120,131.bmp,120,120,9628.099999904633,705285.9000000954,7745,no,SM,A,148.bmp,120,120,207748,201722,209763,203732,708471.0,702443.0,710472.0,704458.0,52
3,0,0,1,0,42,test,1,1,z,Fri Jan 16 2026 10:33:42 GMT-0600 (Central Standard Time),724077.100000143,O,z,1105,53,1,101.bmp,-120,-120,102.bmp,120,-120,103.bmp,-120,120,104.bmp,120,120,9161.0,714916.100000143,7745,yes,SM,A,103.bmp,-120,120,207748,201722,209763,203732,718101.0,712073.0,720118.0,714087.0,53
1,1,0,0,0,42,test,1,0,m,Fri Jan 16 2026 10:33:42 GMT-0600 (Central Standard Time),733107.3000001907,O,z,997,54,1,105.bmp,-120,-120,106.bmp,120,-120,107.bmp,-120,120,108.bmp,120,120,9027.800000190735,724079.5,7745,no,SM,A,107.bmp,-120,-120,207748,201722,209763,203732,727265.0,721237.0,729267.0,723250.0,54
4,0,0,0,1,43,test,1,1,z,Fri Jan 16 2026 10:33:42 GMT-0600 (Central Standard Time),742338.100000143,O,z,1173,55,1,109.bmp,-120,-120,110.bmp,120,-120,111.bmp,-120,120,112.bmp,120,120,9223.700000047684,733114.4000000954,7745,yes,SM,A,112.bmp,120,120,207748,201722,209763,203732,736296.0,730272.0,738313.0,732282.0,55
2,0,1,0,0,43,test,1,0,m,Fri Jan 16 2026 10:33:42 GMT-0600 (Central Standard Time),751752.7000000477,O,z,1363,56,1,113.bmp,-120,-120,114.bmp,120,-120,115.bmp,-120,120,116.bmp,120,120,9411.0,742341.7000000477,7745,no,SM,A,113.bmp,120,-120,207748,201722,209763,203732,745527.0,739499.0,747531.0,741511.0,56
4,0,0,0,1,44,test,1,1,m,Fri Jan 16 2026 10:33:42 GMT-0600 (Central Standard Time),761197.9000000954,O,m,1394,57,1,117.bmp,-120,-120,118.bmp,120,-120,119.bmp,-120,120,120.bmp,120,120,9442.099999904633,751755.8000001907,7745,no,SM,A,118.bmp,120,120,207748,201722,209763,203732,754940.0,748913.0,756956.0,750924.0,57
3,0,0,1,0,45,test,1,1,z,Fri Jan 16 2026 10:33:42 GMT-0600 (Central Standard Time),770762.7000000477,O,z,1508,58,1,121.bmp,-120,-120,122.bmp,120,-120,123.bmp,-120,120,124.bmp,120,120,9562.099999904633,761200.600000143,7745,yes,SM,A,123.bmp,-120,120,207748,201722,209763,203732,764387.0,758358.0,766404.0,760372.0,58
2,0,1,0,0,45,test,1,0,m,Fri Jan 16 2026 10:33:42 GMT-0600 (Central Standard Time),780158.8000001907,O,z,1343,59,1,125.bmp,-120,-120,126.bmp,120,-120,127.bmp,-120,120,128.bmp,120,120,9394.400000095367,770764.4000000954,7745,no,SM,A,128.bmp,120,-120,207748,201722,209763,203732,773950.0,767922.0,775967.0,769935.0,59
1,1,0,0,0,46,test,1,1,z,Fri Jan 16 2026 10:33:42 GMT-0600 (Central Standard Time),789139.2000000477,O,z,923,60,1,129.bmp,-120,-120,130.bmp,120,-120,131.bmp,-120,120,132.bmp,120,120,8977.899999856949,780161.3000001907,7745,yes,SM,A,129.bmp,-120,-120,207748,201722,209763,203732,783350.0,777319.0,785364.0,779332.0,60
2,0,1,0,0,47,test,1,1,z,Fri Jan 16 2026 10:33:42 GMT-0600 (Central Standard Time),798803.100000143,O,z,1607,61,1,133.bmp,-120,-120,134.bmp,120,-120,135.bmp,-120,120,136.bmp,120,120,9661.900000095367,789141.2000000477,7745,yes,SM,A,134.bmp,120,-120,207748,201722,209763,203732,792328.0,786298.0,794344.0,788315.0,61
4,0,0,0,1,48,test,1,1,z,Fri Jan 16 2026 10:33:42 GMT-0600 (Central Standard Time),807985.5,O,z,1126,62,1,141.bmp,-120,-120,142.bmp,120,-120,143.bmp,-120,120,144.bmp,120,120,9180.299999952316,798805.2000000477,7745,yes,SM,A,144.bmp,120,120,207748,201722,209763,203732,801992.0,795962.0,804009.0,797977.0,62
1,1,0,0,0,48,test,1,0,m,Fri Jan 16 2026 10:33:42 GMT-0600 (Central Standard Time),816897.7000000477,O,z,866,63,1,145.bmp,-120,-120,146.bmp,120,-120,147.bmp,-120,120,148.bmp,120,120,8908.700000047684,807989.0,7745,no,SM,A,145.bmp,-120,120,207748,201722,209763,203732,811172.0,805146.0,813188.0,807157.0,63
2,0,1,0,0,49,test,1,1,z,Fri Jan 16 2026 10:33:42 GMT-0600 (Central Standard Time),826011.2000000477,O,z,1066,64,1,149.bmp,-120,-120,150.bmp,120,-120,112.bmp,-120,120,101.bmp,120,120,9110.099999904633,816901.100000143,7745,yes,SM,A,150.bmp,120,-120,207748,201722,209763,203732,820086.0,814058.0,822102.0,816071.0,64
4,0,0,0,1,50,test,1,1,m,Fri Jan 16 2026 10:33:42 GMT-0600 (Central Standard Time),835157.9000000954,O,m,1085,65,1,102.bmp,-120,-120,103.bmp,120,-120,104.bmp,-120,120,105.bmp,120,120,9144.299999952316,826013.600000143,7745,no,SM,A,104.bmp,120,120,207748,201722,209763,203732,829201.0,823171.0,831217.0,825184.0,65
3,0,0,1,0,51,test,1,1,m,Fri Jan 16 2026 10:33:42 GMT-0600 (Central Standard Time),844354.600000143,O,m,1156,66,1,106.bmp,-120,-120,107.bmp,120,-120,108.bmp,-120,120,109.bmp,120,120,9194.299999952316,835160.3000001907,7745,no,SM,A,109.bmp,-120,120,207748,201722,209763,203732,838332.0,832318.0,840346.0,834330.0,66
2,0,1,0,0,52,test,1,1,m,Fri Jan 16 2026 10:33:42 GMT-0600 (Central Standard Time),853702.600000143,O,m,1294,67,1,137.bmp,-120,-120,138.bmp,120,-120,139.bmp,-120,120,140.bmp,120,120,9343.700000047684,844358.9000000954,7745,no,SM,A,139.bmp,120,-120,207748,201722,209763,203732,847543.0,841516.0,849560.0,843531.0,67
3,0,0,1,0,53,test,1,1,z,Fri Jan 16 2026 10:33:42 GMT-0600 (Central Standard Time),862466.0,O,z,707,68,1,110.bmp,-120,-120,111.bmp,120,-120,112.bmp,-120,120,113.bmp,120,120,8759.899999856949,853706.100000143,7745,yes,SM,A,112.bmp,-120,120,207748,201722,209763,203732,856890.0,850863.0,858907.0,852875.0,68
1,1,0,0,0,54,test,1,1,m,Fri Jan 16 2026 10:33:42 GMT-0600 (Central Standard Time),871812.5,O,m,1286,69,1,114.bmp,-120,-120,115.bmp,120,-120,116.bmp,-120,120,117.bmp,120,120,9344.199999809265,862468.3000001907,7745,no,SM,A,115.bmp,-120,-120,207748,201722,209763,203732,865657.0,859626.0,867672.0,861641.0,69
2,0,1,0,0,54,test,1,0,m,Fri Jan 16 2026 10:33:42 GMT-0600 (Central Standard Time),880564.5,O,z,693,70,1,118.bmp,-120,-120,119.bmp,120,-120,120.bmp,-120,120,121.bmp,120,120,8747.5,871817.0,7745,no,SM,A,120.bmp,120,-120,207748,201722,209763,203732,875003.0,868974.0,877017.0,870988.0,70
4,0,0,0,1,55,test,1,1,z,Fri Jan 16 2026 10:33:42 GMT-0600 (Central Standard Time),889957.4000000954,O,z,1351,71,1,122.bmp,-120,-120,123.bmp,120,-120,124.bmp,-120,120,125.bmp,120,120,9389.099999904633,880568.3000001907,7745,yes,SM,A,125.bmp,120,120,207748,201722,209763,203732,883749.0,877726.0,885752.0,879734.0,71
1,1,0,0,0,56,test,1,1,z,Fri Jan 16 2026 10:33:42 GMT-0600 (Central Standard Time),899853.8000001907,O,z,1834,72,1,126.bmp,-120,-120,127.bmp,120,-120,128.bmp,-120,120,129.bmp,120,120,9893.0,889960.8000001907,7745,yes,SM,A,126.bmp,-120,-120,207748,201722,209763,203732,893145.0,887118.0,895164.0,889131.0,72
2,0,1,0,0,57,test,1,1,z,Fri Jan 16 2026 10:33:42 GMT-0600 (Central Standard Time),908534.100000143,O,z,628,73,1,130.bmp,-120,-120,131.bmp,120,-120,132.bmp,-120,120,133.bmp,120,120,8675.600000143051,899858.5,7745,yes,SM,A,131.bmp,120,-120,207748,201722,209763,203732,903042.0,897016.0,905058.0,899028.0,73
4,0,0,0,1,58,test,1,1,m,Fri Jan 16 2026 10:33:42 GMT-0600 (Central Standard Time),917682.2000000477,O,m,1091,74,1,134.bmp,-120,-120,135.bmp,120,-120,136.bmp,-120,120,137.bmp,120,120,9145.899999856949,908536.3000001907,7745,no,SM,A,136.bmp,120,120,207748,201722,209763,203732,911723.0,905693.0,913739.0,907707.0,74
2,0,1,0,0,58,test,1,0,m,Fri Jan 16 2026 10:33:42 GMT-0600 (Central Standard Time),927328.600000143,O,z,1583,75,1,138.bmp,-120,-120,139.bmp,120,-120,140.bmp,-120,120,141.bmp,120,120,9644.200000047684,917684.4000000954,7745,no,SM,A,141.bmp,120,-120,207748,201722,209763,203732,920871.0,914842.0,922887.0,916855.0,75
1,1,0,0,0,59,test,1,1,z,Fri Jan 16 2026 10:33:42 GMT-0600 (Central Standard Time),936324.9000000954,O,z,935,76,1,142.bmp,-120,-120,143.bmp,120,-120,144.bmp,-120,120,145.bmp,120,120,8992.900000095367,927332.0,7745,yes,SM,A,142.bmp,-120,-120,207748,201722,209763,203732,930518.0,924489.0,932535.0,926503.0,76
3,0,0,1,0,60,test,1,1,z,Fri Jan 16 2026 10:33:42 GMT-0600 (Central Standard Time),945573.3000001907,O,z,1197,77,1,150.bmp,-120,-120,111.bmp,120,-120,101.bmp,-120,120,102.bmp,120,120,9245.900000095367,936327.4000000954,7745,yes,SM,A,101.bmp,-120,120,207748,201722,209763,203732,939515.0,933485.0,941530.0,935501.0,77
1,1,0,0,0,61,test,1,1,m,Fri Jan 16 2026 10:33:42 GMT-0600 (Central Standard Time),954635.7000000477,O,m,1015,78,1,146.bmp,-120,-120,147.bmp,120,-120,148.bmp,-120,120,149.bmp,120,120,9059.700000047684,945576.0,7745,no,SM,A,147.bmp,-120,-120,207748,201722,209763,203732,948761.0,942733.0,950778.0,944746.0,78
4,0,0,0,1,62,test,1,1,m,Fri Jan 16 2026 10:33:42 GMT-0600 (Central Standard Time),963834.8000001907,O,m,1141,79,1,107.bmp,-120,-120,108.bmp,120,-120,109.bmp,-120,120,110.bmp,120,120,9195.100000143051,954639.7000000477,7745,no,SM,A,107.bmp,120,120,207748,201722,209763,203732,957825.0,951797.0,959841.0,953810.0,79
3,0,0,1,0,63,test,1,1,m,Fri Jan 16 2026 10:33:42 GMT-0600 (Central Standard Time),973329.8000001907,O,m,1440,80,1,103.bmp,-120,-120,104.bmp,120,-120,105.bmp,-120,120,106.bmp,120,120,9492.900000095367,963836.9000000954,7745,no,SM,A,106.bmp,-120,120,207748,201722,209763,203732,967022.0,960994.0,969038.0,963007.0,80
