acc_sum,block,block_c,condition,correct,correct_response,datetime,endtime,flanker,jitter,project,response,response_test_buffer_response,response_test_target_response,response_time,response_time_test_buffer_response,response_time_test_target_response,row_sel,session_number,start_end,starttime,subject_id,target,task,task_vers,time_test_buffer,time_test_buffer_response,time_test_constants,time_test_flanker,time_test_jitter,time_test_logger,time_test_target,time_test_target_response,time_test_variables,trial
1,prac,1,con,1,z,Tue Dec 09 2025 10:01:33 GMT-0600 (Central Standard Time),88753.59999996424,brutal,800,O,z,,,699,,,13,,2812.099999964237,85941.5,7721,brutal,AF,A,,,,,,,,,,1
2,prac,1,con,1,m,Tue Dec 09 2025 10:01:33 GMT-0600 (Central Standard Time),91286.59999996424,step,800,O,m,,,428,,,1,,2529.2999999523163,88757.30000001192,7721,step,AF,A,,,,,,,,,,2
3,prac,1,con,1,m,Tue Dec 09 2025 10:01:33 GMT-0600 (Central Standard Time),93969.09999996424,remote,1000,O,m,,,375,,,7,,2679.199999988079,91289.89999997616,7721,remote,AF,A,,,,,,,,,,3
4,prac,1,inc,1,m,Tue Dec 09 2025 10:01:33 GMT-0600 (Central Standard Time),96736.39999997616,kind,900,O,m,,,577,,,2,,2763.599999964237,93972.80000001192,7721,rock,AF,A,,,,,,,,,,4
4,prac,1,inc,0,z,Tue Dec 09 2025 10:01:33 GMT-0600 (Central Standard Time),99552.30000001192,window,1100,O,m,,,428,,,16,,2808.7000000476837,96743.59999996424,7721,temper,AF,A,,,,,,,,,,5
5,prac,1,con,1,z,Tue Dec 09 2025 10:01:33 GMT-0600 (Central Standard Time),102083.59999996424,elated,800,O,z,,,431,,,9,,2524.7999999523163,99558.80000001192,7721,elated,AF,A,,,,,,,,,,6
5,prac,1,inc,0,z,Tue Dec 09 2025 10:01:33 GMT-0600 (Central Standard Time),104849.19999998808,film,900,O,m,,,558,,,14,,2759.800000011921,102089.39999997616,7721,hate,AF,A,,,,,,,,,,7
6,prac,1,inc,1,m,Tue Dec 09 2025 10:01:33 GMT-0600 (Central Standard Time),108097.80000001192,brutal,1100,O,m,,,850,,,8,,3240.0,104857.80000001192,7721,window,AF,A,,,,,,,,,,8
7,prac,1,inc,1,m,Tue Dec 09 2025 10:01:33 GMT-0600 (Central Standard Time),110915.19999998808,elated,900,O,m,,,598,,,6,,2811.399999976158,108103.80000001192,7721,napkin,AF,A,,,,,,,,,,9
8,prac,1,con,1,z,Tue Dec 09 2025 10:01:33 GMT-0600 (Central Standard Time),113597.0,rage,1000,O,z,,,373,,,15,,2676.600000023842,110920.39999997616,7721,rage,AF,A,,,,,,,,,,10
9,prac,1,con,1,z,Tue Dec 09 2025 10:01:33 GMT-0600 (Central Standard Time),116309.89999997616,love,1000,O,z,,,399,,,11,,2703.399999976158,113606.5,7721,love,AF,A,,,,,,,,,,11
10,prac,1,con,1,m,Tue Dec 09 2025 10:01:33 GMT-0600 (Central Standard Time),118826.39999997616,jacket,800,O,m,,,407,,,5,,2512.899999976158,116313.5,7721,jacket,AF,A,,,,,,,,,,12
11,prac,1,inc,1,z,Tue Dec 09 2025 10:01:33 GMT-0600 (Central Standard Time),122060.5,napkin,1100,O,z,,,833,,,12,,3226.400000035763,118834.09999996424,7721,friend,AF,A,,,,,,,,,,13
12,prac,1,con,1,m,Tue Dec 09 2025 10:01:33 GMT-0600 (Central Standard Time),124926.80000001192,bell,1000,O,m,,,562,,,3,,2862.0,122064.80000001192,7721,bell,AF,A,,,,,,,,,,14
13,prac,1,inc,1,m,Tue Dec 09 2025 10:01:33 GMT-0600 (Central Standard Time),127892.80000001192,hate,1100,O,m,,,566,,,4,,2962.400000035763,124930.39999997616,7721,film,AF,A,,,,,,,,,,15
14,prac,1,inc,1,z,Tue Dec 09 2025 10:01:33 GMT-0600 (Central Standard Time),130727.0,rock,900,O,z,,,636,,,10,,2827.800000011921,127899.19999998808,7721,kind,AF,A,,,,,,,,,,16
1,test,1,inc,1,m,Tue Dec 09 2025 10:01:33 GMT-0600 (Central Standard Time),143553.80000001192,hate,1100,O,m,m,None,786,586.0,200.0,72,,2428.400000035763,141125.39999997616,7721,step,AF,A,139061,139061,137232,138346,137233,139661,138861,138861,139661,1
2,test,1,con,1,z,Tue Dec 09 2025 10:01:33 GMT-0600 (Central Standard Time),145877.69999998808,hate,1000,O,z,z,None,771,572.0,199.0,43,,2319.100000023842,143558.59999996424,7721,hate,AF,A,141394,141394,139666,140677,139666,141985,141194,141194,141985,2
3,test,1,inc,1,z,Tue Dec 09 2025 10:01:33 GMT-0600 (Central Standard Time),147786.0,jacket,800,O,z,z,None,576,376.0,200.0,5,,1905.199999988079,145880.80000001192,7721,elated,AF,A,143511,143511,141988,142794,141988,143893,143311,143311,143893,3
4,test,1,con,1,m,Tue Dec 09 2025 10:01:33 GMT-0600 (Central Standard Time),150019.09999996424,window,1000,O,m,m,None,693,492.0,201.0,123,,2228.7999999523163,147790.30000001192,7721,window,AF,A,145628,145628,143897,144909,143898,146126,145426,145426,146126,4
4,test,1,inc,0,z,Tue Dec 09 2025 10:01:33 GMT-0600 (Central Standard Time),152001.09999996424,napkin,900,O,m,m,None,535,335.0,200.0,62,,1978.5999999642372,150022.5,7721,temper,AF,A,147759,147759,146130,147043,146130,148108,147559,147559,148108,5
5,test,1,con,1,z,Tue Dec 09 2025 10:01:33 GMT-0600 (Central Standard Time),153816.39999997616,hate,900,O,z,z,None,369,168.0,201.0,42,,1812.3999999761581,152004.0,7721,hate,AF,A,149742,149742,148111,149025,148111,149923,149541,149541,149923,6
6,test,1,con,1,z,Tue Dec 09 2025 10:01:33 GMT-0600 (Central Standard Time),155650.0,friend,900,O,z,z,None,405,193.0,212.0,26,,1829.300000011921,153820.69999998808,7721,friend,AF,A,151558,151558,149928,150841,149928,151757,151345,151345,151757,7
7,test,1,inc,1,m,Tue Dec 09 2025 10:01:33 GMT-0600 (Central Standard Time),157765.80000001192,friend,1100,O,m,m,None,472,273.0,199.0,112,,2110.5,155655.30000001192,7721,napkin,AF,A,153590,153590,151762,152874,151763,153873,153390,153390,153873,8
8,test,1,con,1,z,Tue Dec 09 2025 10:01:33 GMT-0600 (Central Standard Time),159865.0,rage,1100,O,z,z,None,453,253.0,200.0,52,,2095.5,157769.5,7721,rage,AF,A,155706,155706,153877,154989,153877,155972,155506,155506,155972,9
9,test,1,inc,1,z,Tue Dec 09 2025 10:01:33 GMT-0600 (Central Standard Time),162097.30000001192,remote,1000,O,z,z,None,694,492.0,202.0,31,,2228.0,159869.30000001192,7721,friend,AF,A,157707,157707,155976,156990,155977,158204,157505,157505,158204,10
10,test,1,inc,1,m,Tue Dec 09 2025 10:01:33 GMT-0600 (Central Standard Time),164396.69999998808,friend,1100,O,m,m,None,673,474.0,199.0,104,,2295.800000011921,162100.89999997616,7721,jacket,AF,A,160021,160021,158208,159321,158208,160504,159822,159822,160504,11
11,test,1,inc,1,m,Tue Dec 09 2025 10:01:33 GMT-0600 (Central Standard Time),166246.0,elated,800,O,m,m,None,504,305.0,199.0,101,,1844.1000000238419,164401.89999997616,7721,jacket,AF,A,162038,162038,160509,161320,160509,162353,161839,161839,162353,12
12,test,1,con,1,m,Tue Dec 09 2025 10:01:33 GMT-0600 (Central Standard Time),168579.30000001192,remote,1100,O,m,m,None,684,485.0,199.0,116,,2329.400000035763,166249.89999997616,7721,remote,AF,A,164186,164186,162357,163471,162357,164686,163987,163987,164686,13
13,test,1,inc,1,m,Tue Dec 09 2025 10:01:33 GMT-0600 (Central Standard Time),170711.5,rage,800,O,m,m,None,795,579.0,216.0,69,,2128.5,168583.0,7721,step,AF,A,166236,166236,164690,165502,164690,166819,166020,166020,166818,14
14,test,1,con,1,z,Tue Dec 09 2025 10:01:33 GMT-0600 (Central Standard Time),172711.59999996424,rage,800,O,z,z,None,654,455.0,199.0,49,,1996.699999988079,170714.89999997616,7721,rage,AF,A,168352,168352,166822,167636,166822,168819,168153,168153,168819,15
15,test,1,con,1,m,Tue Dec 09 2025 10:01:33 GMT-0600 (Central Standard Time),174760.80000001192,film,1000,O,m,m,None,503,302.0,201.0,91,,2045.7000000476837,172715.09999996424,7721,film,AF,A,170553,170553,168822,169836,168822,170868,170352,170352,170868,16
16,test,1,inc,1,z,Tue Dec 09 2025 10:01:33 GMT-0600 (Central Standard Time),176645.09999996424,jacket,800,O,z,z,None,551,350.0,201.0,61,,1878.5999999642372,174766.5,7721,temper,AF,A,172402,172402,170874,171685,170875,172752,172201,172201,172752,17
17,test,1,con,1,z,Tue Dec 09 2025 10:01:33 GMT-0600 (Central Standard Time),178860.0,elated,1100,O,z,z,None,574,359.0,215.0,4,,2211.0,176649.0,7721,elated,AF,A,174600,174600,172756,173867,172756,174967,174384,174384,174967,18
18,test,1,con,1,m,Tue Dec 09 2025 10:01:33 GMT-0600 (Central Standard Time),180975.69999998808,window,1100,O,m,m,None,478,279.0,199.0,124,,2109.600000023842,178866.09999996424,7721,window,AF,A,176800,176800,174973,176083,174973,177083,176599,176600,177083,19
19,test,1,con,1,z,Tue Dec 09 2025 10:01:33 GMT-0600 (Central Standard Time),182724.39999997616,elated,800,O,z,z,None,407,207.0,200.0,1,,1744.800000011921,180979.59999996424,7721,elated,AF,A,178616,178616,177087,177899,177087,178832,178415,178415,178831,20
20,test,1,con,1,m,Tue Dec 09 2025 10:01:33 GMT-0600 (Central Standard Time),184657.19999998808,remote,1000,O,m,m,None,410,195.0,215.0,115,,1927.300000011921,182729.89999997616,7721,remote,AF,A,180564,180564,178837,179848,178837,180764,180349,180349,180764,21
21,test,1,inc,1,z,Tue Dec 09 2025 10:01:33 GMT-0600 (Central Standard Time),187023.09999996424,film,1100,O,z,z,None,722,522.0,200.0,48,,2357.199999988079,184665.89999997616,7721,hate,AF,A,182597,182597,180773,181881,180773,183130,182397,182397,183130,22
22,test,1,inc,1,z,Tue Dec 09 2025 10:01:33 GMT-0600 (Central Standard Time),189271.59999996424,bell,1000,O,z,z,None,712,512.0,200.0,15,,2238.899999976158,187032.69999998808,7721,kind,AF,A,184863,184863,183140,184148,183140,185379,184663,184663,185379,23
23,test,1,con,1,m,Tue Dec 09 2025 10:01:33 GMT-0600 (Central Standard Time),191389.09999996424,remote,900,O,m,m,None,674,472.0,202.0,114,,2112.5,189276.59999996424,7721,remote,AF,A,187014,187015,185384,186296,185384,187496,186812,186812,187496,24
24,test,1,inc,1,m,Tue Dec 09 2025 10:01:33 GMT-0600 (Central Standard Time),193555.5,temper,1000,O,m,m,None,616,399.0,217.0,127,,2162.300000011921,191393.19999998808,7721,window,AF,A,189248,189248,187500,188513,187501,189663,189030,189030,189663,25
25,test,1,inc,1,m,Tue Dec 09 2025 10:01:33 GMT-0600 (Central Standard Time),195537.39999997616,elated,800,O,m,m,None,635,436.0,199.0,125,,1975.699999988079,193561.69999998808,7721,window,AF,A,191195,191195,189669,190479,189669,191644,190995,190995,191644,26
26,test,1,inc,1,m,Tue Dec 09 2025 10:01:33 GMT-0600 (Central Standard Time),197786.19999998808,hate,1100,O,m,m,None,602,402.0,200.0,80,,2241.199999988079,195545.0,7721,rock,AF,A,193477,193477,191652,192760,191652,193893,193277,193277,193893,27
27,test,1,con,1,m,Tue Dec 09 2025 10:01:33 GMT-0600 (Central Standard Time),199837.59999996424,bell,900,O,m,m,None,617,418.0,199.0,82,,2044.5,197793.09999996424,7721,bell,AF,A,195526,195526,193900,194811,193900,195945,195327,195327,195945,28
28,test,1,inc,1,z,Tue Dec 09 2025 10:01:33 GMT-0600 (Central Standard Time),201985.09999996424,bell,1000,O,z,z,None,627,428.0,199.0,55,,2142.0,199843.09999996424,7721,rage,AF,A,197659,197659,195950,196959,195950,198092,197460,197460,198092,29
29,test,1,con,1,m,Tue Dec 09 2025 10:01:33 GMT-0600 (Central Standard Time),204152.19999998808,film,1100,O,m,m,None,531,329.0,202.0,92,,2160.100000023842,201992.09999996424,7721,film,AF,A,199926,199926,198099,199208,198099,200259,199724,199724,200259,30
30,test,1,inc,1,z,Tue Dec 09 2025 10:01:33 GMT-0600 (Central Standard Time),206751.19999998808,window,1100,O,z,z,None,956,756.0,200.0,32,,2593.199999988079,204158.0,7721,friend,AF,A,202091,202091,200265,201376,200265,202858,201891,201891,202858,31
30,test,1,con,0,z,Tue Dec 09 2025 10:01:33 GMT-0600 (Central Standard Time),208898.80000001192,temper,1000,O,m,m,None,607,407.0,200.0,59,,2140.0,206758.80000001192,7721,temper,AF,A,204591,204591,202866,203874,202866,205006,204391,204391,205006,32
31,test,1,con,1,m,Tue Dec 09 2025 10:01:33 GMT-0600 (Central Standard Time),210665.30000001192,jacket,800,O,m,m,None,426,227.0,199.0,97,,1763.6000000238419,208901.69999998808,7721,jacket,AF,A,206540,206540,205009,205823,205009,206772,206340,206340,206772,33
32,test,1,inc,1,m,Tue Dec 09 2025 10:01:33 GMT-0600 (Central Standard Time),212932.59999996424,hate,1100,O,m,m,None,648,433.0,215.0,88,,2263.199999988079,210669.39999997616,7721,bell,AF,A,208606,208606,206776,207889,206777,209040,208391,208391,209040,34
33,test,1,inc,1,z,Tue Dec 09 2025 10:01:33 GMT-0600 (Central Standard Time),214899.39999997616,rock,900,O,z,z,None,526,326.0,200.0,22,,1957.0999999642372,212942.30000001192,7721,love,AF,A,210673,210673,209049,209958,209050,211006,210472,210472,211006,35
34,test,1,con,1,z,Tue Dec 09 2025 10:01:33 GMT-0600 (Central Standard Time),216865.0,elated,1000,O,z,z,None,420,221.0,199.0,3,,1958.800000011921,214906.19999998808,7721,elated,AF,A,212737,212737,211013,212022,211014,212972,212538,212538,212972,36
35,test,1,inc,1,m,Tue Dec 09 2025 10:01:33 GMT-0600 (Central Standard Time),218896.69999998808,kind,900,O,m,m,None,595,395.0,200.0,86,,2028.8999999761581,216867.80000001192,7721,bell,AF,A,214604,214604,212975,213889,212975,215004,214403,214403,215004,37
35,test,1,inc,0,z,Tue Dec 09 2025 10:01:33 GMT-0600 (Central Standard Time),221179.30000001192,window,1100,O,m,m,None,633,418.0,215.0,40,,2278.0,218901.30000001192,7721,brutal,AF,A,216853,216853,215008,216122,215009,217286,216638,216638,217286,38
36,test,1,inc,1,m,Tue Dec 09 2025 10:01:33 GMT-0600 (Central Standard Time),223278.0,rage,800,O,m,m,None,779,580.0,199.0,77,,2094.400000035763,221183.59999996424,7721,rock,AF,A,218803,218803,217291,218103,217291,219385,218604,218604,219385,39
37,test,1,inc,1,z,Tue Dec 09 2025 10:01:33 GMT-0600 (Central Standard Time),225444.0,film,1100,O,z,z,None,523,324.0,199.0,56,,2160.100000023842,223283.89999997616,7721,rage,AF,A,221219,221219,219391,220502,219391,221551,221020,221020,221551,40
38,test,1,inc,1,m,Tue Dec 09 2025 10:01:33 GMT-0600 (Central Standard Time),227410.80000001192,elated,800,O,m,m,None,617,417.0,200.0,109,,1962.1000000238419,225448.69999998808,7721,napkin,AF,A,223085,223085,221556,222369,221556,223518,222884,222884,223518,41
39,test,1,inc,1,z,Tue Dec 09 2025 10:01:33 GMT-0600 (Central Standard Time),229610.30000001192,remote,1000,O,z,z,None,653,452.0,201.0,63,,2194.800000011921,227415.5,7721,temper,AF,A,225251,225251,223523,224536,223523,225717,225050,225050,225717,42
40,test,1,inc,1,m,Tue Dec 09 2025 10:01:33 GMT-0600 (Central Standard Time),231592.09999996424,rage,800,O,m,m,None,652,436.0,216.0,85,,1976.7999999523163,229615.30000001192,7721,bell,AF,A,227251,227251,225722,226533,225722,227699,227034,227034,227699,43
41,test,1,inc,1,m,Tue Dec 09 2025 10:01:33 GMT-0600 (Central Standard Time),233693.09999996424,brutal,900,O,m,m,None,667,467.0,200.0,110,,2095.0,231598.09999996424,7721,napkin,AF,A,229333,229333,227705,228617,227705,229800,229133,229133,229800,44
42,test,1,con,1,z,Tue Dec 09 2025 10:01:33 GMT-0600 (Central Standard Time),235574.30000001192,kind,800,O,z,z,None,548,349.0,199.0,9,,1874.5,233699.80000001192,7721,kind,AF,A,231332,231332,229807,230616,229807,231681,231132,231132,231681,45
43,test,1,con,1,m,Tue Dec 09 2025 10:01:33 GMT-0600 (Central Standard Time),237656.89999997616,film,900,O,m,m,None,635,436.0,199.0,90,,2076.099999964237,235580.80000001192,7721,film,AF,A,233315,233315,231688,232599,231688,233764,233115,233115,233764,46
44,test,1,inc,1,m,Tue Dec 09 2025 10:01:33 GMT-0600 (Central Standard Time),239707.0,brutal,900,O,m,m,None,602,401.0,201.0,126,,2045.6000000238419,237661.39999997616,7721,window,AF,A,235398,235398,233768,234681,233769,235814,235197,235197,235814,47
45,test,1,con,1,m,Tue Dec 09 2025 10:01:33 GMT-0600 (Central Standard Time),241822.09999996424,window,900,O,m,m,None,682,482.0,200.0,122,,2111.099999964237,239711.0,7721,window,AF,A,237447,237447,235818,236731,235818,237929,237247,237247,237929,48
46,test,1,inc,1,m,Tue Dec 09 2025 10:01:33 GMT-0600 (Central Standard Time),243905.39999997616,love,1000,O,m,m,None,559,344.0,215.0,79,,2079.0,241826.39999997616,7721,rock,AF,A,239663,239663,237933,238946,237934,240012,239448,239448,240012,49
47,test,1,inc,1,z,Tue Dec 09 2025 10:01:33 GMT-0600 (Central Standard Time),245870.89999997616,napkin,900,O,z,z,None,519,305.0,214.0,6,,1960.5,243910.39999997616,7721,elated,AF,A,241661,241661,240017,240931,240018,241978,241447,241447,241978,50
48,test,1,con,1,m,Tue Dec 09 2025 10:01:33 GMT-0600 (Central Standard Time),247902.89999997616,rock,800,O,m,m,None,702,503.0,199.0,73,,2027.8999999761581,245875.0,7721,rock,AF,A,243495,243496,241982,242794,241982,244010,243296,243296,244010,51
49,test,1,inc,1,m,Tue Dec 09 2025 10:01:33 GMT-0600 (Central Standard Time),250021.0,temper,1000,O,m,m,None,584,384.0,200.0,119,,2115.5,247905.5,7721,remote,AF,A,245744,245744,244013,245028,244013,246128,245544,245544,246128,52
50,test,1,con,1,z,Tue Dec 09 2025 10:01:33 GMT-0600 (Central Standard Time),252270.09999996424,rage,1000,O,z,z,None,716,516.0,200.0,51,,2243.7999999523163,250026.30000001192,7721,rage,AF,A,247861,247861,246133,247145,246134,248377,247661,247661,248377,53
51,test,1,inc,1,z,Tue Dec 09 2025 10:01:33 GMT-0600 (Central Standard Time),254237.0,napkin,900,O,z,z,None,549,350.0,199.0,38,,1962.6000000238419,252274.39999997616,7721,brutal,AF,A,249994,249994,248381,249292,248382,250344,249794,249794,250344,54
52,test,1,inc,1,z,Tue Dec 09 2025 10:01:33 GMT-0600 (Central Standard Time),256336.0,bell,1000,O,z,z,None,554,353.0,201.0,23,,2095.100000023842,254240.89999997616,7721,love,AF,A,252078,252078,250348,251360,250348,252443,251876,251876,252443,55
53,test,1,con,1,z,Tue Dec 09 2025 10:01:33 GMT-0600 (Central Standard Time),258185.19999998808,elated,900,O,z,z,None,411,211.0,200.0,2,,1844.6000000238419,256340.59999996424,7721,elated,AF,A,254076,254076,252448,253359,252448,254292,253875,253875,254292,56
54,test,1,con,1,m,Tue Dec 09 2025 10:01:33 GMT-0600 (Central Standard Time),260282.89999997616,napkin,900,O,m,m,None,650,451.0,199.0,106,,2094.699999988079,258188.19999998808,7721,napkin,AF,A,255924,255924,254295,255208,254295,256390,255725,255725,256390,57
55,test,1,inc,1,z,Tue Dec 09 2025 10:01:33 GMT-0600 (Central Standard Time),262584.1999999881,window,1100,O,z,z,None,648,447.0,201.0,8,,2298.0,260286.19999998808,7721,elated,AF,A,258225,258226,256393,257507,256393,258691,258024,258024,258691,58
56,test,1,con,1,m,Tue Dec 09 2025 10:01:33 GMT-0600 (Central Standard Time),264631.6999999881,bell,800,O,m,m,None,699,489.0,210.0,81,,2042.6000000238419,262589.09999996424,7721,bell,AF,A,260238,260238,258696,259506,258696,260739,260027,260027,260739,59
57,test,1,inc,1,z,Tue Dec 09 2025 10:01:33 GMT-0600 (Central Standard Time),266764.89999997616,remote,1000,O,z,z,None,600,399.0,201.0,7,,2128.899999976158,264636.0,7721,elated,AF,A,262473,262473,260743,261756,260743,262872,262272,262272,262872,60
58,test,1,inc,1,m,Tue Dec 09 2025 10:01:33 GMT-0600 (Central Standard Time),268780.6999999881,brutal,900,O,m,m,None,582,383.0,199.0,102,,2012.1000000238419,266768.59999996424,7721,jacket,AF,A,264505,264505,262876,263788,262876,264888,264306,264306,264888,61
59,test,1,con,1,m,Tue Dec 09 2025 10:01:33 GMT-0600 (Central Standard Time),270645.8000000119,step,800,O,m,m,None,522,322.0,200.0,65,,1860.4000000357628,268785.39999997616,7721,step,AF,A,266421,266421,264892,265705,264893,266753,266220,266220,266753,62
60,test,1,inc,1,z,Tue Dec 09 2025 10:01:33 GMT-0600 (Central Standard Time),272730.5,window,1100,O,z,z,None,436,236.0,200.0,64,,2081.100000023842,270649.39999997616,7721,temper,AF,A,268587,268587,266756,267872,266757,268838,268387,268387,268837,63
61,test,1,inc,1,m,Tue Dec 09 2025 10:01:33 GMT-0600 (Central Standard Time),274729.09999996424,elated,800,O,m,m,None,677,478.0,199.0,117,,1995.0,272734.09999996424,7721,remote,AF,A,270353,270353,268841,269653,268841,270836,270154,270154,270836,64
62,test,1,inc,1,z,Tue Dec 09 2025 10:01:33 GMT-0600 (Central Standard Time),276545.39999997616,step,800,O,z,z,None,492,278.0,214.0,53,,1812.0,274733.39999997616,7721,rage,AF,A,272369,272369,270840,271652,270841,272652,272154,272154,272652,65
63,test,1,inc,1,m,Tue Dec 09 2025 10:01:33 GMT-0600 (Central Standard Time),278444.59999996424,rage,800,O,m,m,None,558,343.0,215.0,93,,1895.199999988079,276549.39999997616,7721,film,AF,A,274202,274202,272656,273470,272657,274552,273986,273986,274552,66
64,test,1,con,1,z,Tue Dec 09 2025 10:01:33 GMT-0600 (Central Standard Time),280593.5,kind,1000,O,z,z,None,610,411.0,199.0,11,,2143.800000011921,278449.6999999881,7721,kind,AF,A,276284,276284,274557,275569,274557,276701,276085,276085,276701,67
64,test,1,con,0,z,Tue Dec 09 2025 10:01:33 GMT-0600 (Central Standard Time),282659.39999997616,brutal,900,O,m,m,None,625,425.0,200.0,34,,2061.099999964237,280598.3000000119,7721,brutal,AF,A,278335,278335,276705,277618,276706,278766,278135,278135,278766,68
64,test,1,con,0,z,Tue Dec 09 2025 10:01:33 GMT-0600 (Central Standard Time),285042.39999997616,friend,1100,O,m,m,None,742,542.0,200.0,28,,2379.5,282662.89999997616,7721,friend,AF,A,280601,280601,278770,279883,278770,281149,280400,280400,281149,69
65,test,1,inc,1,z,Tue Dec 09 2025 10:01:33 GMT-0600 (Central Standard Time),287141.39999997616,rock,900,O,z,z,None,664,464.0,200.0,14,,2095.199999988079,285046.1999999881,7721,kind,AF,A,282784,282784,281153,282066,281154,283248,282583,282583,283248,70
66,test,1,inc,1,z,Tue Dec 09 2025 10:01:33 GMT-0600 (Central Standard Time),289373.8000000119,film,1100,O,z,z,None,599,399.0,200.0,24,,2226.7000000476837,287147.09999996424,7721,love,AF,A,285082,285082,283254,284365,283255,285481,284881,284881,285481,71
67,test,1,inc,1,m,Tue Dec 09 2025 10:01:33 GMT-0600 (Central Standard Time),291440.8000000119,love,1000,O,m,m,None,544,345.0,199.0,87,,2061.300000011921,289379.5,7721,bell,AF,A,287198,287198,285487,286496,285487,287548,286997,286998,287548,72
68,test,1,con,1,m,Tue Dec 09 2025 10:01:33 GMT-0600 (Central Standard Time),293389.1999999881,step,900,O,m,m,None,505,306.0,199.0,66,,1943.5,291445.6999999881,7721,step,AF,A,289180,289181,287553,288464,287553,289496,288981,288981,289496,73
69,test,1,con,1,m,Tue Dec 09 2025 10:01:33 GMT-0600 (Central Standard Time),295706.39999997616,step,1100,O,m,m,None,677,477.0,200.0,68,,2312.5,293393.89999997616,7721,step,AF,A,291330,291330,289501,290614,289501,291813,291130,291130,291813,74
70,test,1,inc,1,m,Tue Dec 09 2025 10:01:33 GMT-0600 (Central Standard Time),297771.39999997616,brutal,900,O,m,m,None,623,410.0,213.0,118,,2060.699999988079,295710.6999999881,7721,remote,AF,A,293461,293461,291818,292729,291818,293878,293247,293247,293878,75
71,test,1,inc,1,z,Tue Dec 09 2025 10:01:33 GMT-0600 (Central Standard Time),299804.09999996424,rock,900,O,z,z,None,591,391.0,200.0,54,,2027.5999999642372,297776.5,7721,rage,AF,A,295511,295512,293884,294797,293884,295911,295311,295311,295911,76
72,test,1,con,1,z,Tue Dec 09 2025 10:01:33 GMT-0600 (Central Standard Time),301654.3000000119,love,900,O,z,z,None,421,206.0,215.0,18,,1846.300000011921,299808.0,7721,love,AF,A,297545,297545,295915,296827,295915,297761,297329,297329,297761,77
73,test,1,con,1,z,Tue Dec 09 2025 10:01:33 GMT-0600 (Central Standard Time),303719.3000000119,temper,900,O,z,z,None,620,420.0,200.0,58,,2059.300000011921,301660.0,7721,temper,AF,A,299395,299395,297767,298677,297767,299826,299194,299194,299826,78
74,test,1,con,1,m,Tue Dec 09 2025 10:01:33 GMT-0600 (Central Standard Time),305804.09999996424,jacket,1100,O,m,m,None,442,228.0,214.0,100,,2078.5,303725.59999996424,7721,jacket,AF,A,301676,301676,299833,300944,299833,301911,301461,301461,301911,79
75,test,1,con,1,m,Tue Dec 09 2025 10:01:33 GMT-0600 (Central Standard Time),307937.1999999881,bell,1000,O,m,m,None,588,372.0,216.0,83,,2129.0,305808.1999999881,7721,bell,AF,A,303659,303659,301915,302926,301916,304044,303442,303443,304044,80
76,test,1,con,1,z,Tue Dec 09 2025 10:01:33 GMT-0600 (Central Standard Time),309684.0,brutal,800,O,z,z,None,423,222.0,201.0,33,,1741.699999988079,307942.3000000119,7721,brutal,AF,A,305560,305561,304049,304858,304050,305791,305359,305359,305791,81
77,test,1,con,1,m,Tue Dec 09 2025 10:01:33 GMT-0600 (Central Standard Time),311517.1999999881,jacket,900,O,m,m,None,405,192.0,213.0,98,,1827.699999988079,309689.5,7721,jacket,AF,A,307425,307425,305796,306709,305797,307624,307212,307212,307624,82
78,test,1,inc,1,z,Tue Dec 09 2025 10:01:33 GMT-0600 (Central Standard Time),313382.3000000119,jacket,800,O,z,z,None,539,338.0,201.0,37,,1861.2000000476837,311521.09999996424,7721,brutal,AF,A,309142,309142,307628,308440,307628,309489,308941,308941,309489,83
79,test,1,inc,1,m,Tue Dec 09 2025 10:01:33 GMT-0600 (Central Standard Time),315482.39999997616,love,1000,O,m,m,None,559,360.0,199.0,95,,2097.300000011921,313385.09999996424,7721,film,AF,A,311224,311224,309492,310506,309492,311589,311024,311024,311589,84
80,test,1,inc,1,m,Tue Dec 09 2025 10:01:33 GMT-0600 (Central Standard Time),317582.8000000119,love,1000,O,m,m,None,566,367.0,199.0,71,,2096.400000035763,315486.39999997616,7721,step,AF,A,313323,313323,311593,312608,311594,313690,313123,313123,313690,85
81,test,1,inc,1,m,Tue Dec 09 2025 10:01:33 GMT-0600 (Central Standard Time),319614.09999996424,kind,900,O,m,m,None,591,390.0,201.0,78,,2026.8999999761581,317587.1999999881,7721,rock,AF,A,315323,315323,313694,314608,313694,315721,315122,315122,315721,86
82,test,1,con,1,m,Tue Dec 09 2025 10:01:33 GMT-0600 (Central Standard Time),321680.59999996424,step,1000,O,m,m,None,520,318.0,202.0,67,,2061.5,319619.09999996424,7721,step,AF,A,317457,317457,315726,316738,315726,317788,317255,317255,317788,87
83,test,1,inc,1,z,Tue Dec 09 2025 10:01:33 GMT-0600 (Central Standard Time),323946.8000000119,remote,1000,O,z,z,None,718,519.0,199.0,39,,2260.7000000476837,321686.09999996424,7721,brutal,AF,A,319520,319520,317793,318807,317794,320054,319321,319321,320054,88
84,test,1,inc,1,m,Tue Dec 09 2025 10:01:33 GMT-0600 (Central Standard Time),326181.59999996424,hate,1100,O,m,m,None,599,400.0,199.0,96,,2229.899999976158,323951.6999999881,7721,film,AF,A,321887,321887,320059,321172,320059,322289,321686,321687,322289,89
85,test,1,inc,1,z,Tue Dec 09 2025 10:01:33 GMT-0600 (Central Standard Time),328111.59999996424,rock,900,O,z,z,None,497,297.0,200.0,46,,1923.199999988079,326188.39999997616,7721,hate,AF,A,323919,323919,322295,323203,322296,324219,323719,323719,324219,90
86,test,1,inc,1,m,Tue Dec 09 2025 10:01:33 GMT-0600 (Central Standard Time),330077.8000000119,kind,900,O,m,m,None,522,320.0,202.0,70,,1960.7000000476837,328117.09999996424,7721,step,AF,A,325855,325855,324224,325137,324224,326185,325653,325653,326185,91
87,test,1,inc,1,z,Tue Dec 09 2025 10:01:33 GMT-0600 (Central Standard Time),331993.8000000119,napkin,900,O,z,z,None,480,280.0,200.0,30,,1912.1000000238419,330081.6999999881,7721,friend,AF,A,327818,327818,326189,327102,326189,328101,327618,327618,328101,92
88,test,1,con,1,m,Tue Dec 09 2025 10:01:33 GMT-0600 (Central Standard Time),334159.59999996424,remote,800,O,m,m,None,829,628.0,201.0,113,,2162.2999999523163,331997.3000000119,7721,remote,AF,A,329635,329635,328104,328919,328104,330267,329434,329434,330267,93
89,test,1,con,1,m,Tue Dec 09 2025 10:01:33 GMT-0600 (Central Standard Time),336209.0,rock,1000,O,m,m,None,526,311.0,215.0,75,,2045.5,334163.5,7721,rock,AF,A,332000,332000,330271,331283,330271,332316,331785,331785,332316,94
90,test,1,inc,1,z,Tue Dec 09 2025 10:01:33 GMT-0600 (Central Standard Time),338341.8000000119,film,1100,O,z,z,None,498,283.0,215.0,16,,2129.400000035763,336212.39999997616,7721,kind,AF,A,334166,334166,332319,333433,332320,334449,333950,333950,334449,95
91,test,1,con,1,z,Tue Dec 09 2025 10:01:33 GMT-0600 (Central Standard Time),340424.09999996424,love,1000,O,z,z,None,543,329.0,214.0,19,,2077.0,338347.09999996424,7721,love,AF,A,336198,336198,334454,335467,334454,336531,335984,335984,336531,96
92,test,1,inc,1,m,Tue Dec 09 2025 10:01:33 GMT-0600 (Central Standard Time),342690.8000000119,friend,1100,O,m,m,None,641,441.0,200.0,120,,2260.5,340430.3000000119,7721,remote,AF,A,338349,338350,336537,337647,336538,338798,338149,338149,338798,97
93,test,1,con,1,m,Tue Dec 09 2025 10:01:33 GMT-0600 (Central Standard Time),345105.1999999881,rock,1100,O,m,m,None,768,568.0,200.0,76,,2408.899999976158,342696.3000000119,7721,rock,AF,A,340631,340631,338803,339914,338804,341212,340431,340431,341212,98
94,test,1,con,1,z,Tue Dec 09 2025 10:01:33 GMT-0600 (Central Standard Time),347122.39999997616,love,1100,O,z,z,None,367,152.0,215.0,20,,2014.300000011921,345108.09999996424,7721,love,AF,A,343063,343063,341215,342331,341215,343229,342848,342848,343229,99
94,test,1,con,0,z,Tue Dec 09 2025 10:01:33 GMT-0600 (Central Standard Time),349239.89999997616,friend,1000,O,m,m,None,589,388.0,201.0,27,,2115.099999964237,347124.8000000119,7721,friend,AF,A,344947,344947,343232,344245,343232,345347,344746,344746,345347,100
95,test,1,con,1,m,Tue Dec 09 2025 10:01:33 GMT-0600 (Central Standard Time),351270.6999999881,napkin,1100,O,m,m,None,413,214.0,199.0,108,,2027.6000000238419,349243.09999996424,7721,napkin,AF,A,347161,347161,345350,346461,345350,347378,346962,346962,347378,101
96,test,1,con,1,m,Tue Dec 09 2025 10:01:33 GMT-0600 (Central Standard Time),353186.8000000119,rock,900,O,m,m,None,475,276.0,199.0,74,,1909.9000000357628,351276.89999997616,7721,rock,AF,A,349010,349010,347384,348295,347384,349294,348811,348811,349294,102
97,test,1,con,1,z,Tue Dec 09 2025 10:01:33 GMT-0600 (Central Standard Time),355286.1999999881,temper,1100,O,z,z,None,464,264.0,200.0,60,,2095.699999988079,353190.5,7721,temper,AF,A,351127,351127,349298,350414,349298,351393,350927,350927,351393,103
98,test,1,con,1,m,Tue Dec 09 2025 10:01:33 GMT-0600 (Central Standard Time),357252.1999999881,napkin,1000,O,m,m,None,440,239.0,201.0,107,,1960.199999988079,355292.0,7721,napkin,AF,A,353112,353112,351399,352409,351399,353359,352911,352911,353359,104
99,test,1,inc,1,z,Tue Dec 09 2025 10:01:33 GMT-0600 (Central Standard Time),359153.89999997616,step,800,O,z,z,None,554,353.0,201.0,13,,1899.0,357254.89999997616,7721,kind,AF,A,354893,354893,353362,354178,353362,355261,354692,354692,355261,105
100,test,1,con,1,z,Tue Dec 09 2025 10:01:33 GMT-0600 (Central Standard Time),361284.8000000119,kind,1100,O,z,z,None,491,291.0,200.0,12,,2126.5,359158.3000000119,7721,kind,AF,A,357092,357092,355265,356378,355266,357392,356892,356892,357392,106
101,test,1,con,1,m,Tue Dec 09 2025 10:01:33 GMT-0600 (Central Standard Time),363266.3000000119,jacket,1000,O,m,m,None,441,242.0,199.0,99,,1977.5,361288.8000000119,7721,jacket,AF,A,359125,359125,357396,358409,357396,359373,358926,358926,359373,107
102,test,1,con,1,z,Tue Dec 09 2025 10:01:33 GMT-0600 (Central Standard Time),365151.6999999881,kind,900,O,z,z,None,448,249.0,199.0,10,,1881.1000000238419,363270.59999996424,7721,kind,AF,A,361008,361008,359378,360290,359378,361259,360808,360808,361259,108
103,test,1,inc,1,z,Tue Dec 09 2025 10:01:33 GMT-0600 (Central Standard Time),367031.89999997616,step,800,O,z,z,None,545,346.0,199.0,21,,1875.300000011921,365156.59999996424,7721,love,AF,A,362789,362789,361264,362074,361264,363139,362590,362590,363139,109
104,test,1,inc,1,m,Tue Dec 09 2025 10:01:33 GMT-0600 (Central Standard Time),369015.8000000119,kind,900,O,m,m,None,549,348.0,201.0,94,,1979.300000011921,367036.5,7721,film,AF,A,364773,364773,363144,364057,363144,365123,364572,364572,365123,110
105,test,1,inc,1,z,Tue Dec 09 2025 10:01:33 GMT-0600 (Central Standard Time),371047.89999997616,step,800,O,z,z,None,694,495.0,199.0,45,,2027.199999988079,369020.6999999881,7721,hate,AF,A,366655,366655,365128,365939,365128,367155,366456,366456,367155,111
106,test,1,inc,1,m,Tue Dec 09 2025 10:01:33 GMT-0600 (Central Standard Time),373297.6999999881,temper,1000,O,m,m,None,702,503.0,199.0,111,,2243.899999976158,371053.8000000119,7721,napkin,AF,A,368888,368888,367161,368172,367161,369405,368689,368689,369405,112
106,test,1,con,0,z,Tue Dec 09 2025 10:01:33 GMT-0600 (Central Standard Time),375514.59999996424,brutal,1100,O,m,m,None,570,369.0,201.0,36,,2213.699999988079,373300.89999997616,7721,brutal,AF,A,371238,371238,369408,370523,369408,371622,371037,371037,371622,113
107,test,1,inc,1,z,Tue Dec 09 2025 10:01:33 GMT-0600 (Central Standard Time),377379.8000000119,jacket,800,O,z,z,None,518,319.0,199.0,29,,1862.5,375517.3000000119,7721,friend,AF,A,373153,373153,371624,372437,371625,373487,372954,372954,373487,114
108,test,1,con,1,z,Tue Dec 09 2025 10:01:33 GMT-0600 (Central Standard Time),379311.0,brutal,1000,O,z,z,None,385,185.0,200.0,35,,1926.5,377384.5,7721,brutal,AF,A,375221,375221,373492,374506,373492,375418,375021,375021,375418,115
108,test,1,con,0,m,Tue Dec 09 2025 10:01:33 GMT-0600 (Central Standard Time),381145.5,film,800,O,z,z,None,486,283.0,203.0,89,,1829.5,379316.0,7721,film,AF,A,376955,376955,375423,376238,375423,377253,376751,376751,377253,116
109,test,1,inc,1,m,Tue Dec 09 2025 10:01:33 GMT-0600 (Central Standard Time),383443.89999997616,friend,1100,O,m,m,None,680,466.0,214.0,128,,2294.199999988079,381149.6999999881,7721,window,AF,A,379085,379085,377257,378370,377257,379551,378871,378871,379551,117
110,test,1,con,1,z,Tue Dec 09 2025 10:01:33 GMT-0600 (Central Standard Time),385626.59999996424,hate,1100,O,z,z,None,544,343.0,201.0,44,,2179.2999999523163,383447.3000000119,7721,hate,AF,A,381384,381384,379554,380669,379554,381734,381183,381183,381734,118
111,test,1,con,1,z,Tue Dec 09 2025 10:01:33 GMT-0600 (Central Standard Time),387375.6999999881,temper,800,O,z,z,None,411,212.0,199.0,57,,1745.3999999761581,385630.3000000119,7721,temper,AF,A,383266,383266,381737,382551,381738,383483,383067,383067,383483,119
112,test,1,con,1,z,Tue Dec 09 2025 10:01:33 GMT-0600 (Central Standard Time),389141.89999997616,hate,800,O,z,z,None,422,222.0,200.0,41,,1762.5,387379.39999997616,7721,hate,AF,A,385017,385017,383486,384300,383487,385249,384817,384817,385249,120
113,test,1,con,1,z,Tue Dec 09 2025 10:01:33 GMT-0600 (Central Standard Time),390875.0,love,800,O,z,z,None,393,193.0,200.0,17,,1730.699999988079,389144.3000000119,7721,love,AF,A,386783,386783,385251,386066,385252,386982,386583,386583,386982,121
114,test,1,con,1,z,Tue Dec 09 2025 10:01:33 GMT-0600 (Central Standard Time),392692.3000000119,friend,800,O,z,z,None,465,265.0,200.0,25,,1812.5,390879.8000000119,7721,friend,AF,A,388517,388517,386987,387800,386987,388799,388316,388316,388799,122
115,test,1,inc,1,z,Tue Dec 09 2025 10:01:33 GMT-0600 (Central Standard Time),394926.8000000119,bell,1000,O,z,z,None,690,491.0,199.0,47,,2230.2000000476837,392696.59999996424,7721,hate,AF,A,390532,390532,388804,389815,388804,391034,390332,390332,391034,123
116,test,1,inc,1,m,Tue Dec 09 2025 10:01:33 GMT-0600 (Central Standard Time),396957.39999997616,temper,1000,O,m,m,None,499,299.0,200.0,103,,2025.199999988079,394932.1999999881,7721,jacket,AF,A,392765,392765,391039,392047,391039,393065,392565,392565,393064,124
117,test,1,con,1,z,Tue Dec 09 2025 10:01:33 GMT-0600 (Central Standard Time),398955.39999997616,rage,900,O,z,z,None,564,365.0,199.0,50,,1991.800000011921,396963.59999996424,7721,rage,AF,A,394697,394697,393071,393980,393071,395062,394497,394497,395062,125
118,test,1,con,1,m,Tue Dec 09 2025 10:01:33 GMT-0600 (Central Standard Time),401338.89999997616,bell,1100,O,m,m,None,733,534.0,199.0,84,,2381.0,398957.89999997616,7721,bell,AF,A,396897,396897,395065,396180,395065,397446,396697,396697,397446,126
119,test,1,con,1,m,Tue Dec 09 2025 10:01:33 GMT-0600 (Central Standard Time),403404.5,napkin,800,O,m,m,None,731,532.0,199.0,105,,2061.699999988079,401342.8000000119,7721,napkin,AF,A,398979,398979,397450,398263,397450,399512,398779,398779,399512,127
120,test,1,con,1,m,Tue Dec 09 2025 10:01:33 GMT-0600 (Central Standard Time),405188.59999996424,window,800,O,m,m,None,434,234.0,200.0,121,,1780.0,403408.59999996424,7721,window,AF,A,401045,401045,399516,400329,399516,401296,400844,400844,401296,128
