acc_sum,block,block_c,change,condition,correct,correct_response,datetime,endtime,face,project,response,response_time,row_sel,session_number,start_end,starttime,subject_id,task,task_vers,trial
0,prac,1,,1-Back,,,Mon May 19 2025 08:57:27 GMT-0500 (Central Daylight Time),,012_o_f_d_a.png,I,space,5445,1,1,,,8042,VNB,C,0
1,prac,1,0.0,1-Back,1,m,Mon May 19 2025 08:57:27 GMT-0500 (Central Daylight Time),115618.20000004768,022_y_f_n_a.png,I,m,999,2,1,1905.6000000238419,113712.60000002384,8042,VNB,C,1
2,prac,1,0.0,1-Back,1,m,Mon May 19 2025 08:57:27 GMT-0500 (Central Daylight Time),117584.20000004768,014_m_m_h_a.png,I,m,1078,3,1,1960.2000000476837,115624.0,8042,VNB,C,2
3,prac,1,0.0,1-Back,1,m,Mon May 19 2025 08:57:27 GMT-0500 (Central Daylight Time),119329.80000007153,025_y_m_d_a.png,I,m,848,4,1,1737.7000000476837,117592.10000002384,8042,VNB,C,3
4,prac,1,0.0,1-Back,1,m,Mon May 19 2025 08:57:27 GMT-0500 (Central Daylight Time),121249.39999997616,012_o_f_n_a.png,I,m,1004,5,1,1911.3999999761581,119338.0,8042,VNB,C,4
4,prac,1,1.0,1-Back,0,z,Mon May 19 2025 08:57:27 GMT-0500 (Central Daylight Time),123282.20000004768,025_y_m_n_a.png,I,m,1142,6,1,2025.3999999761581,121256.80000007153,8042,VNB,C,5
5,prac,1,0.0,1-Back,1,m,Mon May 19 2025 08:57:27 GMT-0500 (Central Daylight Time),125281.70000004768,015_o_m_h_a.png,I,m,1077,7,1,1992.6000000238419,123289.10000002384,8042,VNB,C,6
6,prac,1,0.0,1-Back,1,m,Mon May 19 2025 08:57:27 GMT-0500 (Central Daylight Time),127014.20000004768,019_m_f_d_a.png,I,m,822,8,1,1725.1000000238419,125289.10000002384,8042,VNB,C,7
6,prac,1,1.0,1-Back,0,z,Mon May 19 2025 08:57:27 GMT-0500 (Central Daylight Time),128730.39999997616,022_y_f_d_a.png,I,m,802,9,1,1708.2999999523163,127022.10000002384,8042,VNB,C,8
7,prac,1,0.0,1-Back,1,m,Mon May 19 2025 08:57:27 GMT-0500 (Central Daylight Time),131229.5,014_m_m_n_a.png,I,m,1613,10,1,2492.5,128737.0,8042,VNB,C,9
7,prac,1,0.0,1-Back,0,m,Mon May 19 2025 08:57:27 GMT-0500 (Central Daylight Time),132979.10000002384,012_o_f_h_a.png,I,z,837,11,1,1742.2999999523163,131236.80000007153,8042,VNB,C,10
8,prac,1,0.0,1-Back,1,m,Mon May 19 2025 08:57:27 GMT-0500 (Central Daylight Time),134928.70000004768,025_y_m_d_a.png,I,m,1062,12,1,1942.5,132986.20000004768,8042,VNB,C,11
0,test,1,0.0,1-Back,,,Mon May 19 2025 08:57:27 GMT-0500 (Central Daylight Time),134928.70000004768,022_y_f_d_a.png,I,space,7243,1,1,1942.5,132986.20000004768,8042,VNB,C,0
1,test,1,0.0,1-Back,1,m,Mon May 19 2025 08:57:27 GMT-0500 (Central Daylight Time),154239.20000004768,019_m_f_n_a.png,I,m,895,2,1,1910.8000000715256,152328.39999997616,8042,VNB,C,1
2,test,1,0.0,1-Back,1,m,Mon May 19 2025 08:57:27 GMT-0500 (Central Daylight Time),156771.39999997616,015_o_m_h_a.png,I,m,1514,3,1,2528.5999999046326,154242.80000007153,8042,VNB,C,2
3,test,1,1.0,1-Back,1,z,Mon May 19 2025 08:57:27 GMT-0500 (Central Daylight Time),158487.70000004768,014_m_m_h_a.png,I,z,694,4,1,1711.8000000715256,156775.89999997616,8042,VNB,C,3
4,test,1,0.0,1-Back,1,m,Mon May 19 2025 08:57:27 GMT-0500 (Central Daylight Time),160403.80000007153,012_o_f_n_a.png,I,m,900,5,1,1911.8000000715256,158492.0,8042,VNB,C,4
5,test,1,0.0,1-Back,1,m,Mon May 19 2025 08:57:27 GMT-0500 (Central Daylight Time),162204.30000007153,025_y_m_d_a.png,I,m,781,6,1,1796.4000000953674,160407.89999997616,8042,VNB,C,5
6,test,1,1.0,1-Back,1,z,Mon May 19 2025 08:57:27 GMT-0500 (Central Daylight Time),164052.70000004768,019_m_f_d_a.png,I,z,823,7,1,1843.3999999761581,162209.30000007153,8042,VNB,C,6
7,test,1,0.0,1-Back,1,m,Mon May 19 2025 08:57:27 GMT-0500 (Central Daylight Time),165768.70000004768,022_y_f_h_a.png,I,m,686,8,1,1711.8999999761581,164056.80000007153,8042,VNB,C,7
8,test,1,0.0,1-Back,1,m,Mon May 19 2025 08:57:27 GMT-0500 (Central Daylight Time),168018.0,015_o_m_n_a.png,I,m,1226,9,1,2245.2999999523163,165772.70000004768,8042,VNB,C,8
8,test,1,0.0,1-Back,0,m,Mon May 19 2025 08:57:27 GMT-0500 (Central Daylight Time),169834.20000004768,025_y_m_h_a.png,I,z,792,10,1,1812.7000000476837,168021.5,8042,VNB,C,9
9,test,1,0.0,1-Back,1,m,Mon May 19 2025 08:57:27 GMT-0500 (Central Daylight Time),171767.10000002384,015_o_m_d_a.png,I,m,912,11,1,1929.0,169838.10000002384,8042,VNB,C,10
10,test,1,1.0,1-Back,1,z,Mon May 19 2025 08:57:27 GMT-0500 (Central Daylight Time),173849.60000002384,012_o_f_d_a.png,I,z,1059,12,1,2077.899999976158,171771.70000004768,8042,VNB,C,11
11,test,1,0.0,1-Back,1,m,Mon May 19 2025 08:57:27 GMT-0500 (Central Daylight Time),175749.0,014_m_m_n_a.png,I,m,881,13,1,1895.8999999761581,173853.10000002384,8042,VNB,C,12
11,test,1,1.0,1-Back,0,z,Mon May 19 2025 08:57:27 GMT-0500 (Central Daylight Time),177581.60000002384,022_y_f_n_a.png,I,m,804,14,1,1828.0,175753.60000002384,8042,VNB,C,13
12,test,1,0.0,1-Back,1,m,Mon May 19 2025 08:57:27 GMT-0500 (Central Daylight Time),179714.39999997616,019_m_f_h_a.png,I,m,1100,15,1,2128.2999999523163,177586.10000002384,8042,VNB,C,14
13,test,1,0.0,1-Back,1,m,Mon May 19 2025 08:57:27 GMT-0500 (Central Daylight Time),181613.80000007153,014_m_m_d_a.png,I,m,872,16,1,1894.8000000715256,179719.0,8042,VNB,C,15
13,test,1,0.0,1-Back,0,m,Mon May 19 2025 08:57:27 GMT-0500 (Central Daylight Time),183430.0,025_y_m_n_a.png,I,z,788,17,1,1812.7999999523163,181617.20000004768,8042,VNB,C,16
13,test,1,0.0,1-Back,0,m,Mon May 19 2025 08:57:27 GMT-0500 (Central Daylight Time),185396.0,012_o_f_h_a.png,I,z,947,18,1,1960.2999999523163,183435.70000004768,8042,VNB,C,17
0,test,2,0.0,1-Back,,,Mon May 19 2025 08:57:27 GMT-0500 (Central Daylight Time),185396.0,025_y_m_n_a.png,I,space,5029,1,1,1960.2999999523163,183435.70000004768,8042,VNB,C,0
1,test,2,0.0,1-Back,1,m,Mon May 19 2025 08:57:27 GMT-0500 (Central Daylight Time),194243.20000004768,022_y_f_h_a.png,I,m,774,2,1,1793.8000000715256,192449.39999997616,8042,VNB,C,1
1,test,2,1.0,1-Back,0,m,Mon May 19 2025 08:57:27 GMT-0500 (Central Daylight Time),196525.80000007153,015_o_m_n_a.png,I,z,1255,3,1,2278.4000000953674,194247.39999997616,8042,VNB,C,2
2,test,2,0.0,1-Back,1,m,Mon May 19 2025 08:57:27 GMT-0500 (Central Daylight Time),198542.39999997616,019_m_f_d_a.png,I,m,995,4,1,2012.6999999284744,196529.70000004768,8042,VNB,C,3
3,test,2,0.0,1-Back,1,z,Mon May 19 2025 08:57:27 GMT-0500 (Central Daylight Time),200690.89999997616,014_m_m_d_a.png,I,z,1132,5,1,2143.7999999523163,198547.10000002384,8042,VNB,C,4
4,test,2,0.0,1-Back,1,m,Mon May 19 2025 08:57:27 GMT-0500 (Central Daylight Time),202590.70000004768,025_y_m_h_a.png,I,m,870,6,1,1896.6000000238419,200694.10000002384,8042,VNB,C,5
5,test,2,1.0,1-Back,1,z,Mon May 19 2025 08:57:27 GMT-0500 (Central Daylight Time),204523.30000007153,012_o_f_h_a.png,I,z,908,7,1,1927.8000000715256,202595.5,8042,VNB,C,6
6,test,2,0.0,1-Back,1,m,Mon May 19 2025 08:57:27 GMT-0500 (Central Daylight Time),206372.60000002384,019_m_f_n_a.png,I,m,831,8,1,1844.7999999523163,204527.80000007153,8042,VNB,C,7
7,test,2,0.0,1-Back,1,m,Mon May 19 2025 08:57:27 GMT-0500 (Central Daylight Time),208355.30000007153,022_y_f_d_a.png,I,m,965,9,1,1978.6000000238419,206376.70000004768,8042,VNB,C,8
8,test,2,0.0,1-Back,1,m,Mon May 19 2025 08:57:27 GMT-0500 (Central Daylight Time),210488.0,014_m_m_n_a.png,I,m,1102,10,1,2128.2999999523163,208359.70000004768,8042,VNB,C,9
9,test,2,1.0,1-Back,1,m,Mon May 19 2025 08:57:27 GMT-0500 (Central Daylight Time),212820.60000002384,019_m_f_h_a.png,I,m,1305,11,1,2328.2999999523163,210492.30000007153,8042,VNB,C,10
10,test,2,0.0,1-Back,1,z,Mon May 19 2025 08:57:27 GMT-0500 (Central Daylight Time),214669.70000004768,015_o_m_h_a.png,I,z,821,12,1,1843.8000000715256,212825.89999997616,8042,VNB,C,11
11,test,2,0.0,1-Back,1,m,Mon May 19 2025 08:57:27 GMT-0500 (Central Daylight Time),216636.0,025_y_m_d_a.png,I,m,948,13,1,1962.1999999284744,214673.80000007153,8042,VNB,C,12
11,test,2,0.0,1-Back,0,m,Mon May 19 2025 08:57:27 GMT-0500 (Central Daylight Time),219051.89999997616,012_o_f_n_a.png,I,z,1398,14,1,2412.399999976158,216639.5,8042,VNB,C,13
12,test,2,0.0,1-Back,1,z,Mon May 19 2025 08:57:27 GMT-0500 (Central Daylight Time),221268.0,022_y_f_n_a.png,I,z,1197,15,1,2212.600000023842,219055.39999997616,8042,VNB,C,14
13,test,2,1.0,1-Back,1,m,Mon May 19 2025 08:57:27 GMT-0500 (Central Daylight Time),223234.0,014_m_m_h_a.png,I,m,933,16,1,1961.2999999523163,221272.70000004768,8042,VNB,C,15
13,test,2,0.0,1-Back,0,m,Mon May 19 2025 08:57:27 GMT-0500 (Central Daylight Time),224967.0,012_o_f_d_a.png,I,z,712,17,1,1729.1000000238419,223237.89999997616,8042,VNB,C,16
13,test,2,1.0,1-Back,0,z,Mon May 19 2025 08:57:27 GMT-0500 (Central Daylight Time),227083.0,015_o_m_d_a.png,I,m,1099,18,1,2111.1999999284744,224971.80000007153,8042,VNB,C,17
0,test,3,1.0,1-Back,,,Mon May 19 2025 08:57:27 GMT-0500 (Central Daylight Time),227083.0,012_o_f_h_a.png,I,space,1526,1,1,2111.1999999284744,224971.80000007153,8042,VNB,C,0
0,test,3,0.0,1-Back,0,m,Mon May 19 2025 08:57:27 GMT-0500 (Central Daylight Time),232597.70000004768,019_m_f_d_a.png,I,z,830,2,1,1845.8999999761581,230751.80000007153,8042,VNB,C,1
1,test,3,1.0,1-Back,1,m,Mon May 19 2025 08:57:27 GMT-0500 (Central Daylight Time),234613.89999997616,014_m_m_n_a.png,I,m,996,3,1,2011.3999999761581,232602.5,8042,VNB,C,2
2,test,3,0.0,1-Back,1,z,Mon May 19 2025 08:57:27 GMT-0500 (Central Daylight Time),236730.89999997616,012_o_f_n_a.png,I,z,1092,4,1,2112.399999976158,234618.5,8042,VNB,C,3
3,test,3,1.0,1-Back,1,m,Mon May 19 2025 08:57:27 GMT-0500 (Central Daylight Time),238562.89999997616,015_o_m_d_a.png,I,m,809,5,1,1826.6999999284744,236736.20000004768,8042,VNB,C,4
4,test,3,0.0,1-Back,1,m,Mon May 19 2025 08:57:27 GMT-0500 (Central Daylight Time),240528.70000004768,022_y_f_h_a.png,I,m,944,6,1,1961.8999999761581,238566.80000007153,8042,VNB,C,5
5,test,3,0.0,1-Back,1,z,Mon May 19 2025 08:57:27 GMT-0500 (Central Daylight Time),242427.89999997616,025_y_m_h_a.png,I,z,882,7,1,1894.7999999523163,240533.10000002384,8042,VNB,C,6
6,test,3,0.0,1-Back,1,m,Mon May 19 2025 08:57:27 GMT-0500 (Central Daylight Time),244527.39999997616,019_m_f_n_a.png,I,m,1078,8,1,2094.899999976158,242432.5,8042,VNB,C,7
7,test,3,0.0,1-Back,1,m,Mon May 19 2025 08:57:27 GMT-0500 (Central Daylight Time),246343.70000004768,022_y_f_d_a.png,I,m,794,9,1,1812.3000000715256,244531.39999997616,8042,VNB,C,8
8,test,3,1.0,1-Back,1,m,Mon May 19 2025 08:57:27 GMT-0500 (Central Daylight Time),248242.89999997616,015_o_m_n_a.png,I,m,874,10,1,1894.5999999046326,246348.30000007153,8042,VNB,C,9
9,test,3,0.0,1-Back,1,m,Mon May 19 2025 08:57:27 GMT-0500 (Central Daylight Time),250258.80000007153,014_m_m_h_a.png,I,m,983,11,1,2011.3000000715256,248247.5,8042,VNB,C,10
10,test,3,0.0,1-Back,1,z,Mon May 19 2025 08:57:27 GMT-0500 (Central Daylight Time),252041.80000007153,019_m_f_h_a.png,I,z,758,12,1,1778.3000000715256,250263.5,8042,VNB,C,11
11,test,3,1.0,1-Back,1,m,Mon May 19 2025 08:57:27 GMT-0500 (Central Daylight Time),254157.80000007153,012_o_f_d_a.png,I,m,1095,13,1,2111.4000000953674,252046.39999997616,8042,VNB,C,12
12,test,3,0.0,1-Back,1,z,Mon May 19 2025 08:57:27 GMT-0500 (Central Daylight Time),256090.70000004768,014_m_m_d_a.png,I,z,915,14,1,1928.6000000238419,254162.10000002384,8042,VNB,C,13
13,test,3,0.0,1-Back,1,m,Mon May 19 2025 08:57:27 GMT-0500 (Central Daylight Time),258006.70000004768,025_y_m_n_a.png,I,m,896,15,1,1912.0,256094.70000004768,8042,VNB,C,14
13,test,3,1.0,1-Back,0,m,Mon May 19 2025 08:57:27 GMT-0500 (Central Daylight Time),259772.89999997616,015_o_m_h_a.png,I,z,747,16,1,1762.0999999046326,258010.80000007153,8042,VNB,C,15
14,test,3,0.0,1-Back,1,m,Mon May 19 2025 08:57:27 GMT-0500 (Central Daylight Time),261888.60000002384,025_y_m_d_a.png,I,m,1041,17,1,2112.2000000476837,259776.39999997616,8042,VNB,C,16
15,test,3,1.0,1-Back,1,m,Mon May 19 2025 08:57:27 GMT-0500 (Central Daylight Time),264071.3000000715,022_y_f_n_a.png,I,m,1154,18,1,2178.3000000715256,261893.0,8042,VNB,C,17
0,test,4,1.0,1-Back,,,Mon May 19 2025 08:57:27 GMT-0500 (Central Daylight Time),264071.3000000715,014_m_m_d_a.png,I,space,2866,1,1,2178.3000000715256,261893.0,8042,VNB,C,0
0,test,4,0.0,1-Back,0,z,Mon May 19 2025 08:57:27 GMT-0500 (Central Daylight Time),271052.39999997616,015_o_m_d_a.png,I,m,1055,2,1,2078.6999999284744,268973.7000000477,8042,VNB,C,1
1,test,4,0.0,1-Back,1,m,Mon May 19 2025 08:57:27 GMT-0500 (Central Daylight Time),273135.0,025_y_m_h_a.png,I,m,1061,3,1,2078.100000023842,271056.89999997616,8042,VNB,C,2
2,test,4,0.0,1-Back,1,m,Mon May 19 2025 08:57:27 GMT-0500 (Central Daylight Time),274951.2000000477,019_m_f_n_a.png,I,m,795,4,1,1812.7000000476837,273138.5,8042,VNB,C,3
3,test,4,1.0,1-Back,1,m,Mon May 19 2025 08:57:27 GMT-0500 (Central Daylight Time),277267.3000000715,012_o_f_h_a.png,I,m,1291,5,1,2311.8000000715256,274955.5,8042,VNB,C,4
4,test,4,0.0,1-Back,1,m,Mon May 19 2025 08:57:27 GMT-0500 (Central Daylight Time),279083.2000000477,014_m_m_n_a.png,I,m,799,6,1,1811.6000000238419,277271.60000002384,8042,VNB,C,5
5,test,4,0.0,1-Back,1,m,Mon May 19 2025 08:57:27 GMT-0500 (Central Daylight Time),281115.89999997616,025_y_m_d_a.png,I,m,1007,7,1,2028.0999999046326,279087.8000000715,8042,VNB,C,6
6,test,4,1.0,1-Back,1,z,Mon May 19 2025 08:57:27 GMT-0500 (Central Daylight Time),283115.3000000715,022_y_f_d_a.png,I,z,974,8,1,1995.9000000953674,281119.39999997616,8042,VNB,C,7
7,test,4,0.0,1-Back,1,m,Mon May 19 2025 08:57:27 GMT-0500 (Central Daylight Time),285314.8000000715,019_m_f_h_a.png,I,m,1067,9,1,2195.600000023842,283119.2000000477,8042,VNB,C,8
8,test,4,0.0,1-Back,1,z,Mon May 19 2025 08:57:27 GMT-0500 (Central Daylight Time),287214.10000002384,015_o_m_h_a.png,I,z,880,10,1,1895.2000000476837,285318.89999997616,8042,VNB,C,9
9,test,4,1.0,1-Back,1,m,Mon May 19 2025 08:57:27 GMT-0500 (Central Daylight Time),289196.8000000715,012_o_f_n_a.png,I,m,963,11,1,1977.3000000715256,287219.5,8042,VNB,C,10
10,test,4,0.0,1-Back,1,m,Mon May 19 2025 08:57:27 GMT-0500 (Central Daylight Time),290996.2000000477,019_m_f_d_a.png,I,m,773,12,1,1794.8999999761581,289201.3000000715,8042,VNB,C,11
11,test,4,0.0,1-Back,1,m,Mon May 19 2025 08:57:27 GMT-0500 (Central Daylight Time),292895.7000000477,022_y_f_n_a.png,I,m,877,13,1,1895.2000000476837,291000.5,8042,VNB,C,12
12,test,4,0.0,1-Back,1,m,Mon May 19 2025 08:57:27 GMT-0500 (Central Daylight Time),294695.10000002384,012_o_f_d_a.png,I,m,769,14,1,1795.1000000238419,292900.0,8042,VNB,C,13
13,test,4,0.0,1-Back,1,m,Mon May 19 2025 08:57:27 GMT-0500 (Central Daylight Time),296727.7000000477,022_y_f_h_a.png,I,m,1003,15,1,2028.6000000238419,294699.10000002384,8042,VNB,C,14
14,test,4,1.0,1-Back,1,z,Mon May 19 2025 08:57:27 GMT-0500 (Central Daylight Time),298243.89999997616,014_m_m_h_a.png,I,z,491,16,1,1512.6999999284744,296731.2000000477,8042,VNB,C,15
15,test,4,0.0,1-Back,1,m,Mon May 19 2025 08:57:27 GMT-0500 (Central Daylight Time),299943.2000000477,015_o_m_n_a.png,I,m,679,17,1,1695.3000000715256,298247.89999997616,8042,VNB,C,16
16,test,4,1.0,1-Back,1,z,Mon May 19 2025 08:57:27 GMT-0500 (Central Daylight Time),301809.3000000715,025_y_m_n_a.png,I,z,834,18,1,1861.6000000238419,299947.7000000477,8042,VNB,C,17
0,test,5,1.0,1-Back,,,Mon May 19 2025 08:57:27 GMT-0500 (Central Daylight Time),301809.3000000715,015_o_m_n_a.png,I,space,1089,1,1,1861.6000000238419,299947.7000000477,8042,VNB,C,0
1,test,5,1.0,1-Back,1,m,Mon May 19 2025 08:57:27 GMT-0500 (Central Daylight Time),306624.60000002384,012_o_f_h_a.png,I,m,677,2,1,1695.1000000238419,304929.5,8042,VNB,C,1
2,test,5,0.0,1-Back,1,m,Mon May 19 2025 08:57:27 GMT-0500 (Central Daylight Time),308890.60000002384,025_y_m_d_a.png,I,m,1233,3,1,2262.5,306628.10000002384,8042,VNB,C,2
3,test,5,0.0,1-Back,1,z,Mon May 19 2025 08:57:27 GMT-0500 (Central Daylight Time),310706.60000002384,015_o_m_d_a.png,I,z,792,4,1,1811.5,308895.10000002384,8042,VNB,C,3
4,test,5,0.0,1-Back,1,m,Mon May 19 2025 08:57:27 GMT-0500 (Central Daylight Time),312839.3000000715,019_m_f_h_a.png,I,m,1104,5,1,2127.9000000953674,310711.39999997616,8042,VNB,C,4
5,test,5,0.0,1-Back,1,m,Mon May 19 2025 08:57:27 GMT-0500 (Central Daylight Time),314872.10000002384,022_y_f_n_a.png,I,m,1002,6,1,2028.0,312844.10000002384,8042,VNB,C,5
6,test,5,1.0,1-Back,1,z,Mon May 19 2025 08:57:27 GMT-0500 (Central Daylight Time),317071.39999997616,012_o_f_n_a.png,I,z,1177,7,1,2196.0,314875.39999997616,8042,VNB,C,6
7,test,5,0.0,1-Back,1,m,Mon May 19 2025 08:57:27 GMT-0500 (Central Daylight Time),319020.7000000477,019_m_f_d_a.png,I,m,930,8,1,1946.2000000476837,317074.5,8042,VNB,C,7
8,test,5,0.0,1-Back,1,m,Mon May 19 2025 08:57:27 GMT-0500 (Central Daylight Time),321053.5,025_y_m_h_a.png,I,m,1004,9,1,2028.6999999284744,319024.8000000715,8042,VNB,C,8
9,test,5,0.0,1-Back,1,m,Mon May 19 2025 08:57:27 GMT-0500 (Central Daylight Time),323269.5,022_y_f_d_a.png,I,m,1188,10,1,2211.5,321058.0,8042,VNB,C,9
10,test,5,0.0,1-Back,1,m,Mon May 19 2025 08:57:27 GMT-0500 (Central Daylight Time),325202.2000000477,014_m_m_n_a.png,I,m,909,11,1,1928.3000000715256,323273.89999997616,8042,VNB,C,10
11,test,5,1.0,1-Back,1,z,Mon May 19 2025 08:57:27 GMT-0500 (Central Daylight Time),327284.8000000715,019_m_f_n_a.png,I,z,1063,12,1,2078.100000023842,325206.7000000477,8042,VNB,C,11
12,test,5,0.0,1-Back,1,m,Mon May 19 2025 08:57:27 GMT-0500 (Central Daylight Time),329417.5,015_o_m_h_a.png,I,m,1101,13,1,2129.2999999523163,327288.2000000477,8042,VNB,C,12
13,test,5,0.0,1-Back,1,z,Mon May 19 2025 08:57:27 GMT-0500 (Central Daylight Time),331530.60000002384,014_m_m_h_a.png,I,z,1088,14,1,2109.7000000476837,329420.89999997616,8042,VNB,C,13
14,test,5,1.0,1-Back,1,m,Mon May 19 2025 08:57:27 GMT-0500 (Central Daylight Time),333666.3000000715,012_o_f_d_a.png,I,m,1100,15,1,2131.3000000715256,331535.0,8042,VNB,C,14
15,test,5,0.0,1-Back,1,m,Mon May 19 2025 08:57:27 GMT-0500 (Central Daylight Time),335515.7000000477,025_y_m_n_a.png,I,m,824,16,1,1845.3999999761581,333670.3000000715,8042,VNB,C,15
16,test,5,0.0,1-Back,1,m,Mon May 19 2025 08:57:27 GMT-0500 (Central Daylight Time),337481.8000000715,022_y_f_h_a.png,I,m,943,17,1,1962.0,335519.8000000715,8042,VNB,C,16
17,test,5,0.0,1-Back,1,m,Mon May 19 2025 08:57:27 GMT-0500 (Central Daylight Time),339447.60000002384,014_m_m_d_a.png,I,m,937,18,1,1960.7999999523163,337486.8000000715,8042,VNB,C,17
0,prac,1,0.0,2-Back,,,Mon May 19 2025 08:57:27 GMT-0500 (Central Daylight Time),339447.60000002384,019_m_f_n_a.png,I,space,5382,1,1,1960.7999999523163,337486.8000000715,8042,VNB,C,0
0,prac,1,0.0,2-Back,,,Mon May 19 2025 08:57:27 GMT-0500 (Central Daylight Time),339447.60000002384,012_o_f_h_a.png,I,space,5382,2,1,1960.7999999523163,337486.8000000715,8042,VNB,C,0
1,prac,1,0.0,2-Back,1,m,Mon May 19 2025 08:57:27 GMT-0500 (Central Daylight Time),435600.7000000477,015_o_m_d_a.png,I,m,1202,3,1,2108.600000023842,433492.10000002384,8042,VNB,C,1
2,prac,1,1.0,2-Back,1,z,Mon May 19 2025 08:57:27 GMT-0500 (Central Daylight Time),437567.2000000477,014_m_m_h_a.png,I,z,1078,4,1,1960.7000000476837,435606.5,8042,VNB,C,2
3,prac,1,0.0,2-Back,1,m,Mon May 19 2025 08:57:27 GMT-0500 (Central Daylight Time),439516.3000000715,022_y_f_n_a.png,I,m,1034,5,1,1943.6000000238419,437572.7000000477,8042,VNB,C,3
4,prac,1,1.0,2-Back,1,z,Mon May 19 2025 08:57:27 GMT-0500 (Central Daylight Time),441315.7000000477,015_o_m_h_a.png,I,z,1016,6,1,1793.6000000238419,439522.10000002384,8042,VNB,C,4
4,prac,1,1.0,2-Back,0,z,Mon May 19 2025 08:57:27 GMT-0500 (Central Daylight Time),443198.60000002384,025_y_m_n_a.png,I,m,990,7,1,1875.3999999761581,441323.2000000477,8042,VNB,C,5
5,prac,1,0.0,2-Back,1,m,Mon May 19 2025 08:57:27 GMT-0500 (Central Daylight Time),445264.8000000715,019_m_f_d_a.png,I,m,1143,8,1,2059.5,443205.3000000715,8042,VNB,C,6
5,prac,1,0.0,2-Back,0,m,Mon May 19 2025 08:57:27 GMT-0500 (Central Daylight Time),448180.2000000477,012_o_f_d_a.png,I,None,2016,9,1,2909.3000000715256,445270.89999997616,8042,VNB,C,7
6,prac,1,0.0,2-Back,1,m,Mon May 19 2025 08:57:27 GMT-0500 (Central Daylight Time),449913.10000002384,014_m_m_h_a.png,I,m,973,10,1,1726.7999999523163,448186.3000000715,8042,VNB,C,8
7,prac,1,1.0,2-Back,1,z,Mon May 19 2025 08:57:27 GMT-0500 (Central Daylight Time),451779.2000000477,022_y_f_d_a.png,I,z,961,11,1,1859.1000000238419,449920.10000002384,8042,VNB,C,9
8,prac,1,0.0,2-Back,1,m,Mon May 19 2025 08:57:27 GMT-0500 (Central Daylight Time),453645.2000000477,015_o_m_n_a.png,I,m,946,12,1,1859.5,451785.7000000477,8042,VNB,C,10
0,test,1,0.0,2-Back,,,Mon May 19 2025 08:57:27 GMT-0500 (Central Daylight Time),453645.2000000477,025_y_m_h_a.png,I,space,7294,1,1,1859.5,451785.7000000477,8042,VNB,C,0
0,test,1,0.0,2-Back,,,Mon May 19 2025 08:57:27 GMT-0500 (Central Daylight Time),453645.2000000477,012_o_f_n_a.png,I,space,7294,2,1,1859.5,451785.7000000477,8042,VNB,C,0
1,test,1,0.0,2-Back,1,z,Mon May 19 2025 08:57:27 GMT-0500 (Central Daylight Time),476055.2000000477,015_o_m_h_a.png,I,z,588,3,1,1611.6000000238419,474443.60000002384,8042,VNB,C,1
2,test,1,0.0,2-Back,1,m,Mon May 19 2025 08:57:27 GMT-0500 (Central Daylight Time),477821.39999997616,019_m_f_d_a.png,I,m,746,4,1,1761.6999999284744,476059.7000000477,8042,VNB,C,2
3,test,1,1.0,2-Back,1,m,Mon May 19 2025 08:57:27 GMT-0500 (Central Daylight Time),479737.0,025_y_m_n_a.png,I,m,885,5,1,1912.5,477824.5,8042,VNB,C,3
4,test,1,0.0,2-Back,1,z,Mon May 19 2025 08:57:27 GMT-0500 (Central Daylight Time),481953.0,022_y_f_d_a.png,I,z,1185,6,1,2211.600000023842,479741.39999997616,8042,VNB,C,4
5,test,1,0.0,2-Back,1,m,Mon May 19 2025 08:57:27 GMT-0500 (Central Daylight Time),484002.5,014_m_m_h_a.png,I,m,1025,7,1,2045.6999999284744,481956.8000000715,8042,VNB,C,5
5,test,1,1.0,2-Back,0,m,Mon May 19 2025 08:57:27 GMT-0500 (Central Daylight Time),486301.7000000477,022_y_f_n_a.png,I,z,1280,8,1,2295.3000000715256,484006.39999997616,8042,VNB,C,6
5,test,1,0.0,2-Back,0,z,Mon May 19 2025 08:57:27 GMT-0500 (Central Daylight Time),488617.7000000477,012_o_f_h_a.png,I,m,1285,9,1,2312.600000023842,486305.10000002384,8042,VNB,C,7
6,test,1,0.0,2-Back,1,m,Mon May 19 2025 08:57:27 GMT-0500 (Central Daylight Time),491350.2000000477,015_o_m_d_a.png,I,m,1713,10,1,2727.7000000476837,488622.5,8042,VNB,C,8
6,test,1,1.0,2-Back,0,m,Mon May 19 2025 08:57:27 GMT-0500 (Central Daylight Time),493732.89999997616,014_m_m_d_a.png,I,z,1356,11,1,2378.6999999284744,491354.2000000477,8042,VNB,C,9
7,test,1,0.0,2-Back,1,m,Mon May 19 2025 08:57:27 GMT-0500 (Central Daylight Time),496278.10000002384,019_m_f_n_a.png,I,m,1528,12,1,2542.0,493736.10000002384,8042,VNB,C,10
8,test,1,0.0,2-Back,1,m,Mon May 19 2025 08:57:27 GMT-0500 (Central Daylight Time),499164.3000000715,022_y_f_h_a.png,I,m,1856,13,1,2882.3000000715256,496282.0,8042,VNB,C,11
9,test,1,0.0,2-Back,1,z,Mon May 19 2025 08:57:27 GMT-0500 (Central Daylight Time),501663.39999997616,014_m_m_n_a.png,I,z,1469,14,1,2495.0,499168.39999997616,8042,VNB,C,12
10,test,1,0.0,2-Back,1,m,Mon May 19 2025 08:57:27 GMT-0500 (Central Daylight Time),503963.0,025_y_m_d_a.png,I,m,1266,15,1,2296.1999999284744,501666.8000000715,8042,VNB,C,13
11,test,1,1.0,2-Back,1,m,Mon May 19 2025 08:57:27 GMT-0500 (Central Daylight Time),506162.0,019_m_f_h_a.png,I,m,1166,16,1,2195.2999999523163,503966.7000000477,8042,VNB,C,14
12,test,1,0.0,2-Back,1,z,Mon May 19 2025 08:57:27 GMT-0500 (Central Daylight Time),508394.89999997616,012_o_f_d_a.png,I,z,1216,17,1,2229.399999976158,506165.5,8042,VNB,C,15
13,test,1,0.0,2-Back,1,m,Mon May 19 2025 08:57:27 GMT-0500 (Central Daylight Time),510561.0,015_o_m_n_a.png,I,m,1143,18,1,2162.100000023842,508398.89999997616,8042,VNB,C,16
0,test,2,0.0,2-Back,,,Mon May 19 2025 08:57:27 GMT-0500 (Central Daylight Time),510561.0,014_m_m_h_a.png,I,space,1769,1,1,2162.100000023842,508398.89999997616,8042,VNB,C,0
0,test,2,0.0,2-Back,,,Mon May 19 2025 08:57:27 GMT-0500 (Central Daylight Time),510561.0,022_y_f_n_a.png,I,space,1769,2,1,2162.100000023842,508398.89999997616,8042,VNB,C,0
1,test,2,1.0,2-Back,1,z,Mon May 19 2025 08:57:27 GMT-0500 (Central Daylight Time),520019.2000000477,012_o_f_h_a.png,I,z,1393,3,1,2406.7000000476837,517612.5,8042,VNB,C,1
2,test,2,0.0,2-Back,1,m,Mon May 19 2025 08:57:27 GMT-0500 (Central Daylight Time),522473.8000000715,015_o_m_d_a.png,I,m,1426,4,1,2449.600000023842,520024.2000000477,8042,VNB,C,2
2,test,2,0.0,2-Back,0,m,Mon May 19 2025 08:57:27 GMT-0500 (Central Daylight Time),525189.5,019_m_f_d_a.png,I,z,1697,5,1,2712.2999999523163,522477.2000000477,8042,VNB,C,3
3,test,2,0.0,2-Back,1,m,Mon May 19 2025 08:57:27 GMT-0500 (Central Daylight Time),528105.3000000715,025_y_m_h_a.png,I,m,1893,6,1,2912.600000023842,525192.7000000477,8042,VNB,C,4
3,test,2,0.0,2-Back,0,m,Mon May 19 2025 08:57:27 GMT-0500 (Central Daylight Time),530254.8999999762,012_o_f_n_a.png,I,z,1121,7,1,2145.5,528109.3999999762,8042,VNB,C,5
3,test,2,1.0,2-Back,0,z,Mon May 19 2025 08:57:27 GMT-0500 (Central Daylight Time),532487.6000000238,015_o_m_h_a.png,I,m,1204,8,1,2228.7999999523163,530258.8000000715,8042,VNB,C,6
4,test,2,0.0,2-Back,1,m,Mon May 19 2025 08:57:27 GMT-0500 (Central Daylight Time),534820.1000000238,022_y_f_d_a.png,I,m,1307,9,1,2329.100000023842,532491.0,8042,VNB,C,7
4,test,2,0.0,2-Back,0,m,Mon May 19 2025 08:57:27 GMT-0500 (Central Daylight Time),537219.3000000715,025_y_m_d_a.png,I,z,1374,10,1,2395.3000000715256,534824.0,8042,VNB,C,8
4,test,2,0.0,2-Back,0,m,Mon May 19 2025 08:57:27 GMT-0500 (Central Daylight Time),539668.2000000477,014_m_m_n_a.png,I,z,1423,11,1,2445.0,537223.2000000477,8042,VNB,C,9
5,test,2,0.0,2-Back,1,m,Mon May 19 2025 08:57:27 GMT-0500 (Central Daylight Time),541934.3999999762,019_m_f_h_a.png,I,m,1246,12,1,2262.899999976158,539671.5,8042,VNB,C,10
6,test,2,1.0,2-Back,1,z,Mon May 19 2025 08:57:27 GMT-0500 (Central Daylight Time),544033.7000000477,015_o_m_n_a.png,I,z,1076,13,1,2096.2000000476837,541937.5,8042,VNB,C,11
7,test,2,0.0,2-Back,1,m,Mon May 19 2025 08:57:27 GMT-0500 (Central Daylight Time),546099.6000000238,012_o_f_d_a.png,I,m,1040,14,1,2061.5,544038.1000000238,8042,VNB,C,12
7,test,2,0.0,2-Back,0,m,Mon May 19 2025 08:57:27 GMT-0500 (Central Daylight Time),548232.3000000715,022_y_f_h_a.png,I,z,1103,15,1,2129.0,546103.3000000715,8042,VNB,C,13
8,test,2,0.0,2-Back,1,z,Mon May 19 2025 08:57:27 GMT-0500 (Central Daylight Time),550715.0,014_m_m_d_a.png,I,z,1450,16,1,2478.600000023842,548236.3999999762,8042,VNB,C,14
9,test,2,0.0,2-Back,1,m,Mon May 19 2025 08:57:27 GMT-0500 (Central Daylight Time),552647.7000000477,025_y_m_n_a.png,I,m,911,17,1,1929.0,550718.7000000477,8042,VNB,C,15
9,test,2,1.0,2-Back,0,m,Mon May 19 2025 08:57:27 GMT-0500 (Central Daylight Time),554513.7000000477,019_m_f_n_a.png,I,z,835,18,1,1861.3999999761581,552652.3000000715,8042,VNB,C,16
0,test,3,1.0,2-Back,,,Mon May 19 2025 08:57:27 GMT-0500 (Central Daylight Time),554513.7000000477,015_o_m_n_a.png,I,space,3737,1,1,1861.3999999761581,552652.3000000715,8042,VNB,C,0
0,test,3,1.0,2-Back,,,Mon May 19 2025 08:57:27 GMT-0500 (Central Daylight Time),554513.7000000477,012_o_f_d_a.png,I,space,3737,2,1,1861.3999999761581,552652.3000000715,8042,VNB,C,0
1,test,3,0.0,2-Back,1,m,Mon May 19 2025 08:57:27 GMT-0500 (Central Daylight Time),565676.7000000477,022_y_f_h_a.png,I,m,1346,3,1,2361.5,563315.2000000477,8042,VNB,C,1
2,test,3,0.0,2-Back,1,z,Mon May 19 2025 08:57:27 GMT-0500 (Central Daylight Time),568059.5,019_m_f_d_a.png,I,z,1357,4,1,2378.899999976158,565680.6000000238,8042,VNB,C,2
2,test,3,1.0,2-Back,0,m,Mon May 19 2025 08:57:27 GMT-0500 (Central Daylight Time),570675.2000000477,025_y_m_n_a.png,I,z,1590,5,1,2612.399999976158,568062.8000000715,8042,VNB,C,3
2,test,3,0.0,2-Back,0,m,Mon May 19 2025 08:57:27 GMT-0500 (Central Daylight Time),573174.5,015_o_m_h_a.png,I,z,1479,6,1,2495.0,570679.5,8042,VNB,C,4
2,test,3,0.0,2-Back,0,z,Mon May 19 2025 08:57:27 GMT-0500 (Central Daylight Time),575257.2000000477,022_y_f_n_a.png,I,m,1051,7,1,2078.399999976158,573178.8000000715,8042,VNB,C,5
2,test,3,1.0,2-Back,0,m,Mon May 19 2025 08:57:27 GMT-0500 (Central Daylight Time),577606.3999999762,014_m_m_d_a.png,I,z,1321,8,1,2345.399999976158,575261.0,8042,VNB,C,6
2,test,3,0.0,2-Back,0,m,Mon May 19 2025 08:57:27 GMT-0500 (Central Daylight Time),580222.2000000477,025_y_m_d_a.png,I,z,1596,9,1,2612.0,577610.2000000477,8042,VNB,C,7
3,test,3,0.0,2-Back,1,m,Mon May 19 2025 08:57:27 GMT-0500 (Central Daylight Time),582771.1000000238,012_o_f_h_a.png,I,m,1532,10,1,2544.7000000476837,580226.3999999762,8042,VNB,C,8
4,test,3,1.0,2-Back,1,m,Mon May 19 2025 08:57:27 GMT-0500 (Central Daylight Time),585387.3000000715,019_m_f_n_a.png,I,m,1583,11,1,2612.5,582774.8000000715,8042,VNB,C,9
5,test,3,1.0,2-Back,1,z,Mon May 19 2025 08:57:27 GMT-0500 (Central Daylight Time),587586.7000000477,014_m_m_h_a.png,I,z,1167,12,1,2195.0,585391.7000000477,8042,VNB,C,10
5,test,3,0.0,2-Back,0,m,Mon May 19 2025 08:57:27 GMT-0500 (Central Daylight Time),590630.6000000238,022_y_f_d_a.png,I,None,2026,13,1,3039.7000000476837,587590.8999999762,8042,VNB,C,11
5,test,3,0.0,2-Back,0,m,Mon May 19 2025 08:57:27 GMT-0500 (Central Daylight Time),592801.5,012_o_f_n_a.png,I,z,1133,14,1,2166.2999999523163,590635.2000000477,8042,VNB,C,12
5,test,3,0.0,2-Back,0,z,Mon May 19 2025 08:57:27 GMT-0500 (Central Daylight Time),595050.8000000715,015_o_m_d_a.png,I,m,1232,15,1,2245.3000000715256,592805.5,8042,VNB,C,13
5,test,3,1.0,2-Back,0,m,Mon May 19 2025 08:57:27 GMT-0500 (Central Daylight Time),597666.8000000715,019_m_f_h_a.png,I,z,1599,16,1,2612.100000023842,595054.7000000477,8042,VNB,C,14
5,test,3,0.0,2-Back,0,m,Mon May 19 2025 08:57:27 GMT-0500 (Central Daylight Time),600032.7000000477,014_m_m_n_a.png,I,z,1344,17,1,2362.0,597670.7000000477,8042,VNB,C,15
5,test,3,0.0,2-Back,0,z,Mon May 19 2025 08:57:27 GMT-0500 (Central Daylight Time),602415.3999999762,025_y_m_h_a.png,I,m,1353,18,1,2378.399999976158,600037.0,8042,VNB,C,16
0,test,4,0.0,2-Back,,,Mon May 19 2025 08:57:27 GMT-0500 (Central Daylight Time),602415.3999999762,019_m_f_n_a.png,I,space,3074,1,1,2378.399999976158,600037.0,8042,VNB,C,0
0,test,4,0.0,2-Back,,,Mon May 19 2025 08:57:27 GMT-0500 (Central Daylight Time),602415.3999999762,015_o_m_n_a.png,I,space,3074,2,1,2378.399999976158,600037.0,8042,VNB,C,0
1,test,4,1.0,2-Back,1,m,Mon May 19 2025 08:57:27 GMT-0500 (Central Daylight Time),612928.7000000477,025_y_m_h_a.png,I,m,1119,3,1,2144.899999976158,610783.8000000715,8042,VNB,C,1
2,test,4,1.0,2-Back,1,m,Mon May 19 2025 08:57:27 GMT-0500 (Central Daylight Time),614894.7000000477,012_o_f_d_a.png,I,m,937,4,1,1962.3000000715256,612932.3999999762,8042,VNB,C,2
2,test,4,0.0,2-Back,0,z,Mon May 19 2025 08:57:27 GMT-0500 (Central Daylight Time),617094.1000000238,015_o_m_h_a.png,I,m,1179,5,1,2195.399999976158,614898.7000000477,8042,VNB,C,3
2,test,4,0.0,2-Back,0,m,Mon May 19 2025 08:57:27 GMT-0500 (Central Daylight Time),619326.7000000477,014_m_m_n_a.png,I,z,1212,6,1,2228.899999976158,617097.8000000715,8042,VNB,C,4
3,test,4,0.0,2-Back,1,m,Mon May 19 2025 08:57:27 GMT-0500 (Central Daylight Time),621592.6000000238,019_m_f_d_a.png,I,m,1243,7,1,2262.0,619330.6000000238,8042,VNB,C,5
4,test,4,0.0,2-Back,1,z,Mon May 19 2025 08:57:27 GMT-0500 (Central Daylight Time),623791.8000000715,022_y_f_n_a.png,I,z,1178,8,1,2195.2000000476837,621596.6000000238,8042,VNB,C,6
5,test,4,1.0,2-Back,1,m,Mon May 19 2025 08:57:27 GMT-0500 (Central Daylight Time),625874.8000000715,012_o_f_h_a.png,I,m,1065,9,1,2079.8000000715256,623795.0,8042,VNB,C,7
5,test,4,0.0,2-Back,0,m,Mon May 19 2025 08:57:27 GMT-0500 (Central Daylight Time),627824.0,014_m_m_h_a.png,I,z,927,10,1,1944.7999999523163,625879.2000000477,8042,VNB,C,8
6,test,4,0.0,2-Back,1,m,Mon May 19 2025 08:57:27 GMT-0500 (Central Daylight Time),629890.1000000238,022_y_f_d_a.png,I,m,1033,11,1,2062.899999976158,627827.2000000477,8042,VNB,C,9
6,test,4,0.0,2-Back,0,m,Mon May 19 2025 08:57:27 GMT-0500 (Central Daylight Time),632072.7000000477,025_y_m_n_a.png,I,z,1152,12,1,2179.0,629893.7000000477,8042,VNB,C,10
7,test,4,0.0,2-Back,1,z,Mon May 19 2025 08:57:27 GMT-0500 (Central Daylight Time),634205.1000000238,015_o_m_d_a.png,I,z,1106,13,1,2127.7000000476837,632077.3999999762,8042,VNB,C,11
7,test,4,1.0,2-Back,0,m,Mon May 19 2025 08:57:27 GMT-0500 (Central Daylight Time),636637.7000000477,019_m_f_h_a.png,I,z,1404,14,1,2428.5,634209.2000000477,8042,VNB,C,12
7,test,4,1.0,2-Back,0,m,Mon May 19 2025 08:57:27 GMT-0500 (Central Daylight Time),638587.2000000477,022_y_f_h_a.png,I,z,818,15,1,1946.1000000238419,636641.1000000238,8042,VNB,C,13
8,test,4,0.0,2-Back,1,m,Mon May 19 2025 08:57:27 GMT-0500 (Central Daylight Time),640686.7000000477,012_o_f_n_a.png,I,m,1078,16,1,2095.2000000476837,638591.5,8042,VNB,C,14
9,test,4,0.0,2-Back,1,m,Mon May 19 2025 08:57:27 GMT-0500 (Central Daylight Time),642869.3999999762,025_y_m_d_a.png,I,m,1156,17,1,2179.0,640690.3999999762,8042,VNB,C,15
9,test,4,1.0,2-Back,0,m,Mon May 19 2025 08:57:27 GMT-0500 (Central Daylight Time),645901.8999999762,014_m_m_d_a.png,I,None,2016,18,1,3028.399999976158,642873.5,8042,VNB,C,16
0,test,5,1.0,2-Back,,,Mon May 19 2025 08:57:27 GMT-0500 (Central Daylight Time),645901.8999999762,022_y_f_d_a.png,I,space,3355,1,1,3028.399999976158,642873.5,8042,VNB,C,0
0,test,5,1.0,2-Back,,,Mon May 19 2025 08:57:27 GMT-0500 (Central Daylight Time),645901.8999999762,012_o_f_h_a.png,I,space,3355,2,1,3028.399999976158,642873.5,8042,VNB,C,0
0,test,5,1.0,2-Back,0,z,Mon May 19 2025 08:57:27 GMT-0500 (Central Daylight Time),656531.2000000477,015_o_m_d_a.png,I,m,940,3,1,1961.1000000238419,654570.1000000238,8042,VNB,C,1
0,test,5,1.0,2-Back,0,m,Mon May 19 2025 08:57:27 GMT-0500 (Central Daylight Time),658997.6000000238,019_m_f_n_a.png,I,z,1439,4,1,2462.0,656535.6000000238,8042,VNB,C,2
0,test,5,0.0,2-Back,0,m,Mon May 19 2025 08:57:27 GMT-0500 (Central Daylight Time),661531.0,014_m_m_h_a.png,I,z,1510,5,1,2529.600000023842,659001.3999999762,8042,VNB,C,3
1,test,5,0.0,2-Back,1,z,Mon May 19 2025 08:57:27 GMT-0500 (Central Daylight Time),663462.6000000238,022_y_f_n_a.png,I,z,911,6,1,1925.1000000238419,661537.5,8042,VNB,C,4
2,test,5,0.0,2-Back,1,m,Mon May 19 2025 08:57:27 GMT-0500 (Central Daylight Time),665745.6000000238,012_o_f_d_a.png,I,m,1250,7,1,2278.7999999523163,663466.8000000715,8042,VNB,C,5
2,test,5,0.0,2-Back,0,m,Mon May 19 2025 08:57:27 GMT-0500 (Central Daylight Time),668211.3000000715,015_o_m_h_a.png,I,z,1439,8,1,2461.9000000953674,665749.3999999762,8042,VNB,C,6
2,test,5,1.0,2-Back,0,z,Mon May 19 2025 08:57:27 GMT-0500 (Central Daylight Time),670577.1000000238,019_m_f_d_a.png,I,m,1335,9,1,2362.2999999523163,668214.8000000715,8042,VNB,C,7
2,test,5,0.0,2-Back,0,m,Mon May 19 2025 08:57:27 GMT-0500 (Central Daylight Time),673243.0,025_y_m_n_a.png,I,z,1641,10,1,2662.0,670581.0,8042,VNB,C,8
3,test,5,0.0,2-Back,1,m,Mon May 19 2025 08:57:27 GMT-0500 (Central Daylight Time),675509.0,014_m_m_n_a.png,I,m,1247,11,1,2262.399999976158,673246.6000000238,8042,VNB,C,9
4,test,5,0.0,2-Back,1,m,Mon May 19 2025 08:57:27 GMT-0500 (Central Daylight Time),677658.5,022_y_f_h_a.png,I,m,1124,12,1,2146.0,675512.5,8042,VNB,C,10
5,test,5,0.0,2-Back,1,m,Mon May 19 2025 08:57:27 GMT-0500 (Central Daylight Time),680290.8999999762,025_y_m_d_a.png,I,m,1608,13,1,2629.1999999284744,677661.7000000477,8042,VNB,C,11
6,test,5,1.0,2-Back,1,z,Mon May 19 2025 08:57:27 GMT-0500 (Central Daylight Time),682740.1000000238,019_m_f_h_a.png,I,z,1431,14,1,2446.0,680294.1000000238,8042,VNB,C,12
7,test,5,0.0,2-Back,1,m,Mon May 19 2025 08:57:27 GMT-0500 (Central Daylight Time),685067.0,015_o_m_n_a.png,I,m,1310,15,1,2323.600000023842,682743.3999999762,8042,VNB,C,13
7,test,5,0.0,2-Back,0,m,Mon May 19 2025 08:57:27 GMT-0500 (Central Daylight Time),687355.2000000477,014_m_m_d_a.png,I,z,1257,16,1,2284.2000000476837,685071.0,8042,VNB,C,14
8,test,5,0.0,2-Back,1,z,Mon May 19 2025 08:57:27 GMT-0500 (Central Daylight Time),689404.8000000715,012_o_f_n_a.png,I,z,1031,17,1,2045.2000000476837,687359.6000000238,8042,VNB,C,15
8,test,5,1.0,2-Back,0,m,Mon May 19 2025 08:57:27 GMT-0500 (Central Daylight Time),691653.8999999762,025_y_m_h_a.png,I,z,1229,18,1,2245.5,689408.3999999762,8042,VNB,C,16
