acc_sum,block,block_c,condition,correct,correct_response,datetime,endtime,flanker,jitter,project,response,response_test_buffer_response,response_test_target_response,response_time,response_time_test_buffer_response,response_time_test_target_response,row_sel,session_number,start_end,starttime,subject_id,target,task,task_vers,time_test_buffer,time_test_buffer_response,time_test_constants,time_test_flanker,time_test_jitter,time_test_logger,time_test_target,time_test_target_response,time_test_variables,trial
1,prac,1,con,1,m,Fri May 30 2025 14:06:45 GMT-0500 (Central Daylight Time),257137.69999998808,gold,800,I,m,,,714,,,13,2,2811.699999988079,254326.0,8035,gold,NF,B,,,,,,,,,,1
2,prac,1,inc,1,z,Fri May 30 2025 14:06:45 GMT-0500 (Central Daylight Time),259886.69999998808,iron,900,I,z,,,542,,,6,2,2743.5999999940395,257143.09999999404,8035,pear,NF,B,,,,,,,,,,2
3,prac,1,inc,1,m,Fri May 30 2025 14:06:45 GMT-0500 (Central Daylight Time),262602.59999999404,pear,900,I,m,,,513,,,14,2,2711.2999999821186,259891.30000001192,8035,iron,NF,B,,,,,,,,,,3
4,prac,1,con,1,z,Fri May 30 2025 14:06:45 GMT-0500 (Central Daylight Time),265568.3000000119,kiwi,1000,I,z,,,664,,,7,2,2961.4000000059605,262606.90000000596,8035,kiwi,NF,B,,,,,,,,,,4
5,prac,1,con,1,z,Fri May 30 2025 14:06:45 GMT-0500 (Central Daylight Time),268767.40000000596,lime,800,I,z,,,961,,,5,2,3194.5999999940395,265572.8000000119,8035,lime,NF,B,,,,,,,,,,5
6,prac,1,con,1,m,Fri May 30 2025 14:06:45 GMT-0500 (Central Daylight Time),271649.90000000596,silver,1000,I,m,,,581,,,11,2,2878.0,268771.90000000596,8035,silver,NF,B,,,,,,,,,,6
7,prac,1,con,1,z,Fri May 30 2025 14:06:45 GMT-0500 (Central Daylight Time),274482.09999999404,orange,1000,I,z,,,529,,,3,2,2827.9000000059605,271654.1999999881,8035,orange,NF,B,,,,,,,,,,7
8,prac,1,inc,1,z,Fri May 30 2025 14:06:45 GMT-0500 (Central Daylight Time),277464.6999999881,lead,1100,I,z,,,574,,,8,2,2978.2999999821186,274486.40000000596,8035,plum,NF,B,,,,,,,,,,8
8,prac,1,inc,0,z,Fri May 30 2025 14:06:45 GMT-0500 (Central Daylight Time),280430.1999999881,copper,900,I,m,,,759,,,2,2,2961.399999976158,277468.8000000119,8035,cherry,NF,B,,,,,,,,,,9
9,prac,1,con,1,z,Fri May 30 2025 14:06:45 GMT-0500 (Central Daylight Time),283162.8000000119,banana,800,I,z,,,630,,,1,2,2728.2000000178814,280434.59999999404,8035,banana,NF,B,,,,,,,,,,10
10,prac,1,con,1,m,Fri May 30 2025 14:06:45 GMT-0500 (Central Daylight Time),286161.90000000596,zinc,1000,I,m,,,689,,,15,2,2994.300000011921,283167.59999999404,8035,zinc,NF,B,,,,,,,,,,11
11,prac,1,inc,1,m,Fri May 30 2025 14:06:45 GMT-0500 (Central Daylight Time),289244.09999999404,raisin,1100,I,m,,,678,,,12,2,3077.699999988079,286166.40000000596,8035,cobalt,NF,B,,,,,,,,,,12
12,prac,1,inc,1,z,Fri May 30 2025 14:06:45 GMT-0500 (Central Daylight Time),292327.8000000119,cobalt,1100,I,z,,,678,,,4,2,3079.7000000178814,289248.09999999404,8035,raisin,NF,B,,,,,,,,,,13
13,prac,1,inc,1,m,Fri May 30 2025 14:06:45 GMT-0500 (Central Daylight Time),295558.6999999881,plum,1100,I,m,,,825,,,16,2,3226.5999999940395,292332.09999999404,8035,lead,NF,B,,,,,,,,,,14
14,prac,1,inc,1,m,Fri May 30 2025 14:06:45 GMT-0500 (Central Daylight Time),298391.5,cherry,900,I,m,,,617,,,10,2,2828.800000011921,295562.6999999881,8035,copper,NF,B,,,,,,,,,,15
15,prac,1,con,1,m,Fri May 30 2025 14:06:45 GMT-0500 (Central Daylight Time),301257.3000000119,bronze,800,I,m,,,755,,,9,2,2861.9000000059605,298395.40000000596,8035,bronze,NF,B,,,,,,,,,,16
1,test,1,con,1,m,Fri May 30 2025 14:06:45 GMT-0500 (Central Daylight Time),314719.5,iron,900,I,m,m,None,785,585.0,200.0,106,2,2229.199999988079,312490.3000000119,8035,iron,NF,B,309333,309333,307703,308617,307704,309933,309133,309133,309932,1
2,test,1,inc,1,z,Fri May 30 2025 14:06:45 GMT-0500 (Central Daylight Time),316535.6999999881,gold,800,I,z,z,None,468,269.0,199.0,53,2,1811.699999988079,314724.0,8035,kiwi,NF,B,311466,311466,309937,310749,309937,311749,311266,311266,311749,2
3,test,1,inc,1,z,Fri May 30 2025 14:06:45 GMT-0500 (Central Daylight Time),318684.8000000119,silver,1000,I,z,z,None,604,405.0,199.0,7,2,2144.600000023842,316540.1999999881,8035,banana,NF,B,313482,313482,311753,312765,311754,313898,313282,313282,313898,3
4,test,1,con,1,m,Fri May 30 2025 14:06:45 GMT-0500 (Central Daylight Time),320884.1999999881,bronze,800,I,m,m,None,855,655.0,200.0,65,2,2195.199999988079,318689.0,8035,bronze,NF,B,315431,315431,313902,314715,313902,316097,315231,315231,316097,4
5,test,1,inc,1,m,Fri May 30 2025 14:06:45 GMT-0500 (Central Daylight Time),322867.0,orange,1000,I,m,m,None,447,248.0,199.0,95,2,1978.4000000059605,320888.59999999404,8035,cobalt,NF,B,317831,317831,316102,317114,316102,318080,317631,317631,318080,5
6,test,1,con,1,z,Fri May 30 2025 14:06:45 GMT-0500 (Central Daylight Time),325016.1999999881,lime,1000,I,z,z,None,609,409.0,200.0,35,2,2145.399999976158,322870.8000000119,8035,lime,NF,B,319813,319813,318084,319097,318084,320229,319613,319613,320229,6
7,test,1,inc,1,m,Fri May 30 2025 14:06:45 GMT-0500 (Central Daylight Time),327232.1999999881,raisin,1100,I,m,m,None,577,377.0,200.0,72,2,2211.699999988079,325020.5,8035,bronze,NF,B,322062,322062,320234,321346,320234,322445,321862,321862,322445,7
8,test,1,inc,1,z,Fri May 30 2025 14:06:45 GMT-0500 (Central Daylight Time),329364.90000000596,iron,900,I,z,z,None,688,488.0,200.0,38,2,2128.5,327236.40000000596,8035,lime,NF,B,324078,324078,322449,323362,322450,324578,323878,323878,324578,8
9,test,1,con,1,m,Fri May 30 2025 14:06:45 GMT-0500 (Central Daylight Time),331647.5,gold,1100,I,m,m,None,635,435.0,200.0,100,2,2278.5,329369.0,8035,gold,NF,B,326411,326411,324582,325694,324582,326861,326211,326211,326861,9
10,test,1,inc,1,z,Fri May 30 2025 14:06:45 GMT-0500 (Central Daylight Time),333680.3000000119,copper,900,I,z,z,None,583,384.0,199.0,30,2,2028.9000000059605,331651.40000000596,8035,raisin,NF,B,328494,328494,326864,327777,326865,328893,328294,328294,328893,10
11,test,1,con,1,z,Fri May 30 2025 14:06:45 GMT-0500 (Central Daylight Time),335779.40000000596,pear,1000,I,z,z,None,555,356.0,199.0,43,2,2094.5999999940395,333684.8000000119,8035,pear,NF,B,330626,330626,328898,329910,328898,330993,330427,330427,330992,11
12,test,1,inc,1,z,Fri May 30 2025 14:06:45 GMT-0500 (Central Daylight Time),338045.6999999881,zinc,1000,I,z,z,None,719,520.0,199.0,55,2,2261.7999999821186,335783.90000000596,8035,kiwi,NF,B,332726,332726,330997,332009,330997,333259,332526,332526,333259,12
13,test,1,inc,1,z,Fri May 30 2025 14:06:45 GMT-0500 (Central Daylight Time),339961.8000000119,gold,800,I,z,z,None,573,374.0,199.0,45,2,1912.2000000178814,338049.59999999404,8035,pear,NF,B,334791,334792,333263,334075,333263,335175,334592,334592,335175,13
14,test,1,inc,1,m,Fri May 30 2025 14:06:45 GMT-0500 (Central Daylight Time),342027.59999999404,cherry,900,I,m,m,None,622,423.0,199.0,94,2,2061.5999999940395,339966.0,8035,cobalt,NF,B,336808,336808,335179,336091,335179,337241,336608,336608,337241,14
15,test,1,con,1,z,Fri May 30 2025 14:06:45 GMT-0500 (Central Daylight Time),344026.8000000119,orange,800,I,z,z,None,656,457.0,199.0,17,2,1995.0,342031.8000000119,8035,orange,NF,B,338774,338774,337245,338058,337245,339240,338574,338574,339240,15
16,test,1,inc,1,z,Fri May 30 2025 14:06:45 GMT-0500 (Central Daylight Time),345993.09999999404,copper,900,I,z,z,None,525,325.0,200.0,14,2,1962.2999999821186,344030.8000000119,8035,cherry,NF,B,340873,340873,339244,340157,339244,341206,340673,340673,341206,16
17,test,1,inc,1,m,Fri May 30 2025 14:06:45 GMT-0500 (Central Daylight Time),347875.6999999881,lime,800,I,m,m,None,539,339.0,200.0,125,2,1878.5999999940395,345997.09999999404,8035,lead,NF,B,342739,342739,341210,342023,341210,343089,342539,342539,343089,17
18,test,1,inc,1,m,Fri May 30 2025 14:06:45 GMT-0500 (Central Daylight Time),349875.09999999404,cherry,900,I,m,m,None,565,365.0,200.0,70,2,1995.4000000059605,347879.6999999881,8035,bronze,NF,B,344722,344722,343093,344006,343093,345088,344522,344522,345088,18
19,test,1,con,1,m,Fri May 30 2025 14:06:45 GMT-0500 (Central Daylight Time),352124.40000000596,lead,1000,I,m,m,None,704,505.0,199.0,123,2,2245.2000000178814,349879.1999999881,8035,lead,NF,B,346821,346821,345092,346105,345093,347337,346622,346622,347337,19
20,test,1,con,1,m,Fri May 30 2025 14:06:45 GMT-0500 (Central Daylight Time),354406.90000000596,cobalt,1100,I,m,m,None,634,435.0,199.0,92,2,2278.5,352128.40000000596,8035,cobalt,NF,B,349170,349171,347341,348454,347342,349620,348971,348971,349620,20
21,test,1,inc,1,m,Fri May 30 2025 14:06:45 GMT-0500 (Central Daylight Time),356623.1999999881,raisin,1100,I,m,m,None,577,377.0,200.0,80,2,2212.2999999821186,354410.90000000596,8035,copper,NF,B,351453,351453,349624,350737,349624,351836,351253,351253,351836,21
22,test,1,con,1,m,Fri May 30 2025 14:06:45 GMT-0500 (Central Daylight Time),358522.6999999881,cobalt,800,I,m,m,None,556,357.0,199.0,89,2,1893.8999999761581,356628.8000000119,8035,cobalt,NF,B,353369,353369,351842,352653,351842,353736,353169,353170,353736,22
23,test,1,con,1,z,Fri May 30 2025 14:06:45 GMT-0500 (Central Daylight Time),360288.5,banana,800,I,z,z,None,417,218.0,199.0,1,2,1761.4000000059605,358527.09999999404,8035,banana,NF,B,355268,355268,353740,354552,353741,355502,355069,355069,355501,23
24,test,1,inc,1,m,Fri May 30 2025 14:06:45 GMT-0500 (Central Daylight Time),362231.6999999881,banana,800,I,m,m,None,609,410.0,199.0,93,2,1939.0999999940395,360292.59999999404,8035,cobalt,NF,B,357035,357035,355506,356318,355506,357445,356835,356835,357445,24
25,test,1,inc,1,z,Fri May 30 2025 14:06:45 GMT-0500 (Central Daylight Time),364203.6999999881,iron,900,I,z,z,None,538,339.0,199.0,54,2,1967.7999999821186,362235.90000000596,8035,kiwi,NF,B,359067,359067,357449,358351,357449,359417,358868,358868,359417,25
26,test,1,inc,1,m,Fri May 30 2025 14:06:45 GMT-0500 (Central Daylight Time),366170.09999999404,pear,900,I,m,m,None,548,333.0,215.0,126,2,1962.5,364207.59999999404,8035,lead,NF,B,361050,361050,359421,360333,359421,361383,360835,360835,361383,26
27,test,1,con,1,m,Fri May 30 2025 14:06:45 GMT-0500 (Central Daylight Time),368052.8000000119,silver,900,I,m,m,None,446,247.0,199.0,82,2,1878.9000000059605,366173.90000000596,8035,silver,NF,B,363016,363016,361387,362300,361387,363266,362817,362817,363266,27
28,test,1,inc,1,m,Fri May 30 2025 14:06:45 GMT-0500 (Central Daylight Time),370235.40000000596,plum,1100,I,m,m,None,546,347.0,199.0,112,2,2178.4000000059605,368057.0,8035,iron,NF,B,365099,365099,363270,364382,363270,365448,364899,364899,365448,28
29,test,1,con,1,z,Fri May 30 2025 14:06:45 GMT-0500 (Central Daylight Time),372268.09999999404,cherry,900,I,z,z,None,587,388.0,199.0,10,2,2028.7999999821186,370239.3000000119,8035,cherry,NF,B,367082,367082,365452,366365,365453,367481,366882,366882,367481,29
30,test,1,inc,1,z,Fri May 30 2025 14:06:45 GMT-0500 (Central Daylight Time),374184.1999999881,bronze,800,I,z,z,None,576,376.0,200.0,29,2,1912.199999988079,372272.0,8035,raisin,NF,B,369014,369014,367485,368298,367485,369397,368814,368814,369397,30
31,test,1,con,1,z,Fri May 30 2025 14:06:45 GMT-0500 (Central Daylight Time),376500.09999999404,kiwi,1100,I,z,z,None,679,480.0,199.0,52,2,2312.0,374188.09999999404,8035,kiwi,NF,B,371230,371230,369401,370514,369402,371713,371031,371031,371713,31
32,test,1,con,1,m,Fri May 30 2025 14:06:45 GMT-0500 (Central Daylight Time),378665.8000000119,zinc,900,I,m,m,None,732,532.0,200.0,114,2,2161.9000000059605,376503.90000000596,8035,zinc,NF,B,373346,373346,371717,372630,371717,373879,373146,373146,373879,32
33,test,1,inc,1,z,Fri May 30 2025 14:06:45 GMT-0500 (Central Daylight Time),380948.5,lead,1100,I,z,z,None,647,447.0,200.0,48,2,2279.0,378669.5,8035,pear,NF,B,375712,375712,373883,374996,373883,376162,375512,375512,376162,33
34,test,1,inc,1,z,Fri May 30 2025 14:06:45 GMT-0500 (Central Daylight Time),383481.3000000119,zinc,1000,I,z,z,None,982,783.0,199.0,63,2,2529.100000023842,380952.1999999881,8035,plum,NF,B,377895,377895,376165,377179,376166,378694,377695,377695,378694,34
35,test,1,inc,1,m,Fri May 30 2025 14:06:45 GMT-0500 (Central Daylight Time),385842.59999999404,plum,1100,I,m,m,None,726,527.0,199.0,104,2,2357.4000000059605,383485.1999999881,8035,gold,NF,B,380527,380528,378698,379811,378699,381056,380328,380328,381056,35
36,test,1,inc,1,z,Fri May 30 2025 14:06:45 GMT-0500 (Central Daylight Time),387863.3000000119,bronze,800,I,z,z,None,668,469.0,199.0,13,2,2016.5,385846.8000000119,8035,cherry,NF,B,382593,382593,381060,381877,381060,383076,382394,382394,383076,36
37,test,1,con,1,m,Fri May 30 2025 14:06:45 GMT-0500 (Central Daylight Time),390129.1999999881,lead,1100,I,m,m,None,624,425.0,199.0,124,2,2261.5999999940395,387867.59999999404,8035,lead,NF,B,384909,384909,383081,384193,383081,385342,384709,384710,385342,37
37,test,1,inc,0,z,Fri May 30 2025 14:06:45 GMT-0500 (Central Daylight Time),392411.8000000119,iron,900,I,m,m,None,840,640.0,200.0,46,2,2278.800000011921,390133.0,8035,pear,NF,B,386975,386975,385346,386259,385346,387625,386775,386775,387625,38
38,test,1,inc,1,m,Fri May 30 2025 14:06:45 GMT-0500 (Central Daylight Time),394611.09999999404,orange,1000,I,m,m,None,657,457.0,200.0,79,2,2195.699999988079,392415.40000000596,8035,copper,NF,B,389358,389358,387628,388641,387629,389824,389158,389158,389824,39
39,test,1,inc,1,z,Fri May 30 2025 14:06:45 GMT-0500 (Central Daylight Time),396843.59999999404,cobalt,1100,I,z,z,None,597,397.0,200.0,32,2,2228.4000000059605,394615.1999999881,8035,raisin,NF,B,391657,391657,389828,390941,389829,392057,391457,391457,392057,40
40,test,1,inc,1,z,Fri May 30 2025 14:06:45 GMT-0500 (Central Daylight Time),398976.1999999881,copper,900,I,z,z,None,692,492.0,200.0,6,2,2128.7999999821186,396847.40000000596,8035,banana,NF,B,393690,393690,392060,392973,392061,394189,393490,393490,394189,41
41,test,1,inc,1,m,Fri May 30 2025 14:06:45 GMT-0500 (Central Daylight Time),401242.09999999404,orange,1000,I,m,m,None,731,531.0,200.0,71,2,2262.0999999940395,398980.0,8035,bronze,NF,B,395922,395923,394193,395206,394193,396455,395722,395722,396455,42
42,test,1,con,1,z,Fri May 30 2025 14:06:45 GMT-0500 (Central Daylight Time),403291.90000000596,pear,900,I,z,z,None,606,406.0,200.0,42,2,2046.300000011921,401245.59999999404,8035,pear,NF,B,398089,398089,396459,397372,396459,398505,397888,397888,398505,43
43,test,1,con,1,z,Fri May 30 2025 14:06:45 GMT-0500 (Central Daylight Time),405341.09999999404,lime,1100,I,z,z,None,404,205.0,199.0,36,2,2045.4000000059605,403295.6999999881,8035,lime,NF,B,400338,400338,398509,399622,398509,400554,400138,400138,400554,44
44,test,1,inc,1,m,Fri May 30 2025 14:06:45 GMT-0500 (Central Daylight Time),407373.8000000119,cherry,900,I,m,m,None,596,396.0,200.0,86,2,2029.0,405344.8000000119,8035,silver,NF,B,402187,402187,400558,401471,400558,402587,401987,401987,402587,45
45,test,1,inc,1,m,Fri May 30 2025 14:06:45 GMT-0500 (Central Daylight Time),409456.1999999881,pear,900,I,m,m,None,634,434.0,200.0,110,2,2078.7999999821186,407377.40000000596,8035,iron,NF,B,404220,404220,402590,403504,402591,404669,404020,404020,404669,46
46,test,1,con,1,m,Fri May 30 2025 14:06:45 GMT-0500 (Central Daylight Time),411672.1999999881,lead,900,I,m,m,None,766,567.0,199.0,122,2,2211.5,409460.6999999881,8035,lead,NF,B,406302,406303,404674,405586,404674,406885,406103,406103,406885,47
47,test,1,con,1,z,Fri May 30 2025 14:06:45 GMT-0500 (Central Daylight Time),413938.0,kiwi,1000,I,z,z,None,730,531.0,199.0,51,2,2261.800000011921,411676.1999999881,8035,kiwi,NF,B,408619,408619,406889,407902,406890,409151,408419,408419,409151,48
48,test,1,inc,1,z,Fri May 30 2025 14:06:45 GMT-0500 (Central Daylight Time),416254.40000000596,lead,1100,I,z,z,None,668,469.0,199.0,64,2,2312.5999999940395,413941.8000000119,8035,plum,NF,B,410985,410985,409155,410268,409155,411467,410785,410785,411467,49
49,test,1,inc,1,z,Fri May 30 2025 14:06:45 GMT-0500 (Central Daylight Time),418470.3000000119,cobalt,1100,I,z,z,None,578,378.0,200.0,16,2,2212.300000011921,416258.0,8035,cherry,NF,B,413300,413300,411471,412584,411471,413683,413100,413100,413683,50
50,test,1,con,1,m,Fri May 30 2025 14:06:45 GMT-0500 (Central Daylight Time),420619.59999999404,cobalt,900,I,m,m,None,712,512.0,200.0,90,2,2145.4000000059605,418474.1999999881,8035,cobalt,NF,B,415318,415318,413687,414600,413688,415833,415117,415117,415833,51
51,test,1,inc,1,m,Fri May 30 2025 14:06:45 GMT-0500 (Central Daylight Time),422785.6999999881,raisin,1100,I,m,m,None,531,332.0,199.0,96,2,2162.0,420623.6999999881,8035,cobalt,NF,B,417666,417666,415837,416949,415837,417999,417466,417466,417999,52
52,test,1,inc,1,m,Fri May 30 2025 14:06:45 GMT-0500 (Central Daylight Time),424951.3000000119,pear,900,I,m,m,None,727,527.0,200.0,102,2,2162.100000023842,422789.1999999881,8035,gold,NF,B,419631,419631,418002,418915,418003,420164,419431,419431,420164,53
52,test,1,con,0,z,Fri May 30 2025 14:06:45 GMT-0500 (Central Daylight Time),427367.40000000596,raisin,1000,I,m,m,None,876,676.0,200.0,27,2,2412.4000000059605,424955.0,8035,raisin,NF,B,421898,421898,420168,421181,420168,422580,421698,421698,422580,54
52,test,1,inc,0,z,Fri May 30 2025 14:06:45 GMT-0500 (Central Daylight Time),429600.09999999404,cobalt,1100,I,m,m,None,584,385.0,199.0,8,2,2228.7999999821186,427371.3000000119,8035,banana,NF,B,424413,424413,422584,423697,422585,424813,424214,424214,424813,55
53,test,1,con,1,m,Fri May 30 2025 14:06:45 GMT-0500 (Central Daylight Time),431916.3000000119,bronze,900,I,m,m,None,872,672.0,200.0,66,2,2312.300000011921,429604.0,8035,bronze,NF,B,426446,426446,424817,425730,424817,427129,426246,426246,427129,56
54,test,1,inc,1,m,Fri May 30 2025 14:06:45 GMT-0500 (Central Daylight Time),434282.0,plum,1100,I,m,m,None,724,524.0,200.0,120,2,2361.5,431920.5,8035,zinc,NF,B,428962,428962,427134,428246,427134,429495,428762,428762,429495,57
55,test,1,inc,1,z,Fri May 30 2025 14:06:45 GMT-0500 (Central Daylight Time),436381.40000000596,copper,900,I,z,z,None,662,462.0,200.0,22,2,2095.800000011921,434285.59999999404,8035,orange,NF,B,431128,431128,429499,430412,429499,431594,430928,430928,431594,58
56,test,1,con,1,z,Fri May 30 2025 14:06:45 GMT-0500 (Central Daylight Time),438197.1999999881,plum,800,I,z,z,None,477,278.0,199.0,57,2,1812.0,436385.1999999881,8035,plum,NF,B,433128,433128,431598,432411,431599,433410,432928,432928,433410,59
57,test,1,inc,1,m,Fri May 30 2025 14:06:45 GMT-0500 (Central Daylight Time),440129.90000000596,lime,800,I,m,m,None,599,400.0,199.0,101,2,1928.9000000059605,438201.0,8035,gold,NF,B,434943,434943,433414,434227,433414,435343,434744,434744,435343,60
58,test,1,con,1,m,Fri May 30 2025 14:06:45 GMT-0500 (Central Daylight Time),442112.8000000119,gold,800,I,m,m,None,642,442.0,200.0,97,2,1979.1000000238419,440133.6999999881,8035,gold,NF,B,436876,436876,435347,436160,435347,437326,436676,436676,437326,61
59,test,1,inc,1,m,Fri May 30 2025 14:06:45 GMT-0500 (Central Daylight Time),444212.09999999404,kiwi,1000,I,m,m,None,555,355.0,200.0,119,2,2095.199999988079,442116.90000000596,8035,zinc,NF,B,439059,439059,437330,438343,437330,439425,438859,438859,439425,62
60,test,1,inc,1,m,Fri May 30 2025 14:06:45 GMT-0500 (Central Daylight Time),446144.90000000596,banana,800,I,m,m,None,593,393.0,200.0,77,2,1928.9000000059605,444216.0,8035,copper,NF,B,440958,440958,439429,440242,439429,441358,440758,440758,441358,63
61,test,1,con,1,m,Fri May 30 2025 14:06:45 GMT-0500 (Central Daylight Time),448127.1999999881,zinc,1000,I,m,m,None,443,243.0,200.0,115,2,1978.699999988079,446148.5,8035,zinc,NF,B,443091,443091,441362,442374,441362,443340,442891,442891,443340,64
62,test,1,con,1,m,Fri May 30 2025 14:06:45 GMT-0500 (Central Daylight Time),450126.90000000596,lead,800,I,m,m,None,659,460.0,199.0,121,2,1994.2000000178814,448132.6999999881,8035,lead,NF,B,444874,444874,443346,444157,443346,445340,444674,444674,445340,65
63,test,1,con,1,z,Fri May 30 2025 14:06:45 GMT-0500 (Central Daylight Time),452359.59999999404,raisin,1100,I,z,z,None,585,385.0,200.0,28,2,2228.9000000059605,450130.6999999881,8035,raisin,NF,B,447173,447173,445344,446456,445344,447573,446973,446973,447573,66
64,test,1,inc,1,m,Fri May 30 2025 14:06:45 GMT-0500 (Central Daylight Time),454392.3000000119,pear,900,I,m,m,None,592,392.0,200.0,118,2,2028.800000011921,452363.5,8035,zinc,NF,B,449206,449206,447577,448490,447577,449605,449006,449006,449605,67
65,test,1,inc,1,m,Fri May 30 2025 14:06:45 GMT-0500 (Central Daylight Time),456675.09999999404,banana,800,I,m,m,None,946,747.0,199.0,85,2,2279.0999999940395,454396.0,8035,silver,NF,B,451139,451139,449609,450422,449609,451888,450939,450939,451888,68
66,test,1,con,1,z,Fri May 30 2025 14:06:45 GMT-0500 (Central Daylight Time),458857.59999999404,kiwi,900,I,z,z,None,749,549.0,200.0,50,2,2178.7999999821186,456678.8000000119,8035,kiwi,NF,B,453521,453521,451892,452804,451892,454071,453321,453321,454071,69
67,test,1,con,1,m,Fri May 30 2025 14:06:45 GMT-0500 (Central Daylight Time),460856.90000000596,zinc,800,I,m,m,None,649,450.0,199.0,113,2,1995.9000000059605,458861.0,8035,zinc,NF,B,455604,455604,454074,454887,454074,456070,455404,455404,456070,70
68,test,1,inc,1,m,Fri May 30 2025 14:06:45 GMT-0500 (Central Daylight Time),463039.5,kiwi,1000,I,m,m,None,643,443.0,200.0,103,2,2178.800000011921,460860.6999999881,8035,gold,NF,B,457803,457803,456074,457087,456074,458253,457603,457603,458253,71
69,test,1,con,1,z,Fri May 30 2025 14:06:45 GMT-0500 (Central Daylight Time),465288.59999999404,orange,1100,I,z,z,None,599,400.0,199.0,20,2,2245.0999999940395,463043.5,8035,orange,NF,B,460086,460086,458257,459369,458257,460502,459886,459886,460502,72
70,test,1,con,1,z,Fri May 30 2025 14:06:45 GMT-0500 (Central Daylight Time),467038.1999999881,pear,800,I,z,z,None,411,211.0,200.0,41,2,1745.8999999761581,465292.3000000119,8035,pear,NF,B,462035,462035,460505,461319,460506,462251,461835,461835,462251,73
71,test,1,con,1,z,Fri May 30 2025 14:06:45 GMT-0500 (Central Daylight Time),468954.09999999404,raisin,800,I,z,z,None,580,381.0,199.0,25,2,1912.2999999821186,467041.8000000119,8035,raisin,NF,B,463784,463785,462255,463068,462255,464167,463585,463585,464167,74
72,test,1,con,1,z,Fri May 30 2025 14:06:45 GMT-0500 (Central Daylight Time),470853.8000000119,plum,900,I,z,z,None,452,253.0,199.0,58,2,1896.1000000238419,468957.6999999881,8035,plum,NF,B,465801,465801,464171,465084,464171,466067,465601,465601,466067,75
73,test,1,inc,1,z,Fri May 30 2025 14:06:45 GMT-0500 (Central Daylight Time),472886.40000000596,zinc,1000,I,z,z,None,486,286.0,200.0,47,2,2028.9000000059605,470857.5,8035,pear,NF,B,467800,467800,466070,467084,466071,468100,467600,467600,468099,76
74,test,1,con,1,z,Fri May 30 2025 14:06:45 GMT-0500 (Central Daylight Time),474802.5,lime,900,I,z,z,None,473,274.0,199.0,34,2,1912.300000011921,472890.1999999881,8035,lime,NF,B,469732,469732,468103,469016,468104,470016,469533,469533,470016,77
75,test,1,inc,1,z,Fri May 30 2025 14:06:45 GMT-0500 (Central Daylight Time),476935.1999999881,silver,1000,I,z,z,None,584,385.0,199.0,15,2,2128.7999999821186,474806.40000000596,8035,cherry,NF,B,471749,471749,470019,471032,470020,472148,471548,471549,472148,78
76,test,1,con,1,m,Fri May 30 2025 14:06:45 GMT-0500 (Central Daylight Time),479184.59999999404,zinc,1100,I,m,m,None,600,401.0,199.0,116,2,2245.5999999940395,476939.0,8035,zinc,NF,B,473981,473981,472152,473265,472152,474398,473781,473782,474398,79
77,test,1,con,1,z,Fri May 30 2025 14:06:45 GMT-0500 (Central Daylight Time),481317.1999999881,orange,900,I,z,z,None,686,487.0,199.0,18,2,2129.0,479188.1999999881,8035,orange,NF,B,476031,476031,474401,475314,474402,476530,475831,475831,476530,80
78,test,1,inc,1,z,Fri May 30 2025 14:06:45 GMT-0500 (Central Daylight Time),483433.40000000596,iron,900,I,z,z,None,668,468.0,200.0,62,2,2112.7000000178814,481320.6999999881,8035,plum,NF,B,478163,478163,476534,477447,476534,478646,477963,477963,478646,81
79,test,1,con,1,z,Fri May 30 2025 14:06:45 GMT-0500 (Central Daylight Time),485282.40000000596,lime,800,I,z,z,None,515,315.0,200.0,33,2,1845.0,483437.40000000596,8035,lime,NF,B,480179,480179,478650,479462,478651,480496,479979,479979,480495,82
80,test,1,con,1,m,Fri May 30 2025 14:06:45 GMT-0500 (Central Daylight Time),487315.5,iron,1000,I,m,m,None,496,297.0,199.0,107,2,2029.4000000059605,485286.09999999404,8035,iron,NF,B,482229,482229,480499,481512,480499,482529,482029,482029,482528,83
81,test,1,con,1,z,Fri May 30 2025 14:06:45 GMT-0500 (Central Daylight Time),489314.59999999404,banana,900,I,z,z,None,556,357.0,199.0,2,2,1995.4000000059605,487319.1999999881,8035,banana,NF,B,484161,484161,482532,483445,482533,484528,483961,483962,484528,84
82,test,1,inc,1,z,Fri May 30 2025 14:06:45 GMT-0500 (Central Daylight Time),491114.1999999881,bronze,800,I,z,z,None,457,257.0,200.0,5,2,1795.699999988079,489318.5,8035,banana,NF,B,486061,486061,484532,485344,484532,486327,485861,485861,486327,85
83,test,1,con,1,z,Fri May 30 2025 14:06:45 GMT-0500 (Central Daylight Time),493163.59999999404,cherry,1100,I,z,z,None,415,215.0,200.0,12,2,2045.4000000059605,491118.1999999881,8035,cherry,NF,B,488160,488160,486331,487444,486332,488377,487960,487960,488377,86
84,test,1,inc,1,z,Fri May 30 2025 14:06:45 GMT-0500 (Central Daylight Time),495329.3000000119,lead,1100,I,z,z,None,517,318.0,199.0,56,2,2162.100000023842,493167.1999999881,8035,kiwi,NF,B,490209,490209,488380,489493,488381,490542,490010,490010,490542,87
84,test,1,con,0,m,Fri May 30 2025 14:06:45 GMT-0500 (Central Daylight Time),497361.90000000596,silver,1000,I,z,z,None,499,299.0,200.0,83,2,2028.7000000178814,495333.1999999881,8035,silver,NF,B,492275,492275,490546,491559,490547,492575,492075,492075,492575,88
85,test,1,con,1,z,Fri May 30 2025 14:06:45 GMT-0500 (Central Daylight Time),499561.59999999404,plum,1100,I,z,z,None,549,350.0,199.0,60,2,2195.9000000059605,497365.6999999881,8035,plum,NF,B,494408,494408,492579,493692,492579,494775,494209,494209,494775,89
86,test,1,con,1,m,Fri May 30 2025 14:06:45 GMT-0500 (Central Daylight Time),501644.3000000119,silver,1100,I,m,m,None,445,246.0,199.0,84,2,2079.100000023842,499565.1999999881,8035,silver,NF,B,496608,496608,494778,495891,494779,496857,496408,496408,496857,90
87,test,1,con,1,m,Fri May 30 2025 14:06:45 GMT-0500 (Central Daylight Time),503424.6999999881,silver,800,I,m,m,None,447,247.0,200.0,81,2,1776.7999999821186,501647.90000000596,8035,silver,NF,B,498390,498390,496861,497674,496861,498638,498190,498190,498638,91
88,test,1,con,1,m,Fri May 30 2025 14:06:45 GMT-0500 (Central Daylight Time),505409.5,iron,1100,I,m,m,None,334,134.0,200.0,108,2,1981.199999988079,503428.3000000119,8035,iron,NF,B,500473,500473,498641,499757,498642,500623,500273,500273,500623,92
89,test,1,inc,1,m,Fri May 30 2025 14:06:45 GMT-0500 (Central Daylight Time),507725.8000000119,kiwi,1000,I,m,m,None,770,570.0,200.0,111,2,2312.4000000059605,505413.40000000596,8035,iron,NF,B,502356,502356,500626,501639,500627,502939,502156,502156,502939,93
90,test,1,inc,1,m,Fri May 30 2025 14:06:45 GMT-0500 (Central Daylight Time),510041.40000000596,lime,800,I,m,m,None,974,774.0,200.0,109,2,2312.0,507729.40000000596,8035,iron,NF,B,504472,504472,502942,503755,502943,505255,504272,504272,505254,94
91,test,1,con,1,m,Fri May 30 2025 14:06:45 GMT-0500 (Central Daylight Time),512074.3000000119,iron,800,I,m,m,None,690,490.0,200.0,105,2,2029.4000000059605,510044.90000000596,8035,iron,NF,B,506788,506788,505258,506071,505258,507287,506587,506587,507287,95
92,test,1,con,1,m,Fri May 30 2025 14:06:45 GMT-0500 (Central Daylight Time),514173.5,copper,1100,I,m,m,None,453,254.0,199.0,76,2,2095.300000011921,512078.1999999881,8035,copper,NF,B,509120,509120,507291,508404,507291,509387,508921,508921,509387,96
93,test,1,con,1,z,Fri May 30 2025 14:06:45 GMT-0500 (Central Daylight Time),516205.6999999881,banana,1000,I,z,z,None,485,286.0,199.0,3,2,2028.5999999940395,514177.09999999404,8035,banana,NF,B,511120,511120,509390,510403,509390,511419,510920,510920,511419,97
94,test,1,con,1,z,Fri May 30 2025 14:06:45 GMT-0500 (Central Daylight Time),518072.3000000119,raisin,900,I,z,z,None,426,226.0,200.0,26,2,1863.1000000238419,516209.1999999881,8035,raisin,NF,B,513052,513052,511422,512336,511423,513285,512852,512852,513285,98
95,test,1,con,1,z,Fri May 30 2025 14:06:45 GMT-0500 (Central Daylight Time),519921.8000000119,cherry,800,I,z,z,None,499,300.0,199.0,9,2,1845.800000011921,518076.0,8035,cherry,NF,B,514819,514819,513289,514102,513289,515135,514619,514619,515135,99
96,test,1,con,1,m,Fri May 30 2025 14:06:45 GMT-0500 (Central Daylight Time),521937.6999999881,cobalt,1000,I,m,m,None,474,274.0,200.0,91,2,2012.0999999940395,519925.59999999404,8035,cobalt,NF,B,516868,516868,515139,516152,515139,517151,516668,516668,517151,100
97,test,1,inc,1,z,Fri May 30 2025 14:06:45 GMT-0500 (Central Daylight Time),524287.1999999881,cobalt,1100,I,z,z,None,710,510.0,200.0,24,2,2345.699999988079,521941.5,8035,orange,NF,B,518984,518984,517155,518267,517155,519500,518784,518784,519500,101
98,test,1,con,1,z,Fri May 30 2025 14:06:45 GMT-0500 (Central Daylight Time),526769.6999999881,cherry,1000,I,z,z,None,949,750.0,199.0,11,2,2478.699999988079,524291.0,8035,cherry,NF,B,521233,521233,519504,520517,519504,521983,521033,521034,521983,102
99,test,1,con,1,m,Fri May 30 2025 14:06:45 GMT-0500 (Central Daylight Time),528735.5,copper,900,I,m,m,None,517,318.0,199.0,74,2,1962.0,526773.5,8035,copper,NF,B,523616,523616,521987,522899,521987,523949,523416,523416,523948,103
100,test,1,inc,1,z,Fri May 30 2025 14:06:45 GMT-0500 (Central Daylight Time),530918.400000006,bronze,800,I,z,z,None,843,644.0,199.0,21,2,2179.300000011921,528739.099999994,8035,orange,NF,B,525482,525482,523952,524765,523952,526131,525282,525282,526131,104
101,test,1,inc,1,z,Fri May 30 2025 14:06:45 GMT-0500 (Central Daylight Time),533050.900000006,silver,1000,I,z,z,None,598,398.0,200.0,23,2,2128.7000000178814,530922.1999999881,8035,orange,NF,B,527865,527865,526135,527148,526136,528264,527664,527664,528264,105
102,test,1,inc,1,z,Fri May 30 2025 14:06:45 GMT-0500 (Central Daylight Time),535067.0,gold,800,I,z,z,None,681,481.0,200.0,37,2,2012.5,533054.5,8035,lime,NF,B,529797,529797,528268,529080,528268,530280,529597,529597,530280,106
103,test,1,inc,1,z,Fri May 30 2025 14:06:45 GMT-0500 (Central Daylight Time),537299.5,zinc,1000,I,z,z,None,697,497.0,200.0,39,2,2228.5999999940395,535070.900000006,8035,lime,NF,B,532013,532013,530284,531297,530284,532513,531813,531813,532513,107
104,test,1,inc,1,z,Fri May 30 2025 14:06:45 GMT-0500 (Central Daylight Time),539515.400000006,silver,1000,I,z,z,None,679,480.0,199.0,31,2,2211.9000000059605,537303.5,8035,raisin,NF,B,534246,534246,532517,533529,532517,534728,534046,534046,534728,108
105,test,1,inc,1,z,Fri May 30 2025 14:06:45 GMT-0500 (Central Daylight Time),541664.900000006,gold,800,I,z,z,None,799,600.0,199.0,61,2,2145.5,539519.400000006,8035,plum,NF,B,536262,536262,534732,535545,534733,536878,536062,536062,536878,109
106,test,1,inc,1,m,Fri May 30 2025 14:06:45 GMT-0500 (Central Daylight Time),544014.1999999881,plum,1100,I,m,m,None,711,511.0,200.0,128,2,2345.5,541668.6999999881,8035,lead,NF,B,538711,538711,536882,537995,536882,539227,538511,538511,539227,110
107,test,1,con,1,z,Fri May 30 2025 14:06:45 GMT-0500 (Central Daylight Time),546396.8000000119,pear,1100,I,z,z,None,746,546.0,200.0,44,2,2378.7000000178814,544018.099999994,8035,pear,NF,B,541060,541060,539231,540343,539231,541610,540860,540860,541610,111
108,test,1,inc,1,m,Fri May 30 2025 14:06:45 GMT-0500 (Central Daylight Time),549012.5,cherry,900,I,m,m,None,1172,972.0,200.0,78,2,2612.0999999940395,546400.400000006,8035,copper,NF,B,543243,543243,541613,542527,541614,544226,543043,543043,544226,112
109,test,1,inc,1,m,Fri May 30 2025 14:06:45 GMT-0500 (Central Daylight Time),550845.0,lime,800,I,m,m,None,487,193.0,294.0,117,2,1828.699999988079,549016.3000000119,8035,zinc,NF,B,545853,545853,544229,545042,544230,546058,545559,545559,546058,113
110,test,1,con,1,z,Fri May 30 2025 14:06:45 GMT-0500 (Central Daylight Time),553227.900000006,banana,1100,I,z,z,None,745,546.0,199.0,4,2,2379.4000000059605,550848.5,8035,banana,NF,B,547892,547892,546062,547175,546062,548441,547692,547692,548441,114
111,test,1,con,1,m,Fri May 30 2025 14:06:45 GMT-0500 (Central Daylight Time),555893.8000000119,gold,1000,I,m,m,None,1128,929.0,199.0,99,2,2662.2000000178814,553231.599999994,8035,gold,NF,B,550174,550174,548445,549458,548445,551107,549974,549974,551107,115
112,test,1,inc,1,z,Fri May 30 2025 14:06:45 GMT-0500 (Central Daylight Time),558326.1999999881,lead,1100,I,z,z,None,794,594.0,200.0,40,2,2428.7999999821186,555897.400000006,8035,lime,NF,B,552940,552940,551110,552223,551111,553539,552740,552740,553539,116
113,test,1,con,1,z,Fri May 30 2025 14:06:45 GMT-0500 (Central Daylight Time),560791.8000000119,plum,1000,I,z,z,None,925,726.0,199.0,59,2,2461.9000000059605,558329.900000006,8035,plum,NF,B,555272,555272,553543,554556,553543,556005,555073,555073,556005,117
114,test,1,con,1,z,Fri May 30 2025 14:06:45 GMT-0500 (Central Daylight Time),563024.8000000119,orange,1000,I,z,z,None,692,492.0,200.0,19,2,2229.0,560795.8000000119,8035,orange,NF,B,557738,557738,556009,557021,556009,558238,557538,557538,558238,118
114,test,1,con,0,m,Fri May 30 2025 14:06:45 GMT-0500 (Central Daylight Time),565607.5,copper,800,I,z,z,None,1234,1035.0,199.0,73,2,2579.199999988079,563028.3000000119,8035,copper,NF,B,559771,559771,558241,559055,558242,560821,559572,559572,560821,119
115,test,1,con,1,z,Fri May 30 2025 14:06:45 GMT-0500 (Central Daylight Time),567706.599999994,kiwi,800,I,z,z,None,764,565.0,199.0,49,2,2095.2999999821186,565611.3000000119,8035,kiwi,NF,B,562353,562353,560824,561637,560825,562920,562154,562154,562920,120
116,test,1,inc,1,m,Fri May 30 2025 14:06:45 GMT-0500 (Central Daylight Time),569989.400000006,orange,1000,I,m,m,None,736,537.0,199.0,87,2,2279.2000000178814,567710.1999999881,8035,silver,NF,B,564653,564653,562923,563936,562924,565202,564453,564453,565202,121
117,test,1,inc,1,m,Fri May 30 2025 14:06:45 GMT-0500 (Central Daylight Time),572455.1999999881,raisin,1100,I,m,m,None,826,627.0,199.0,88,2,2462.2999999821186,569992.900000006,8035,silver,NF,B,567035,567035,565206,566319,565206,567668,566836,566836,567668,122
118,test,1,con,1,m,Fri May 30 2025 14:06:45 GMT-0500 (Central Daylight Time),575004.3000000119,bronze,1000,I,m,m,None,932,729.0,203.0,67,2,2545.300000011921,572459.0,8035,bronze,NF,B,569485,569485,567672,568685,567672,570217,569282,569282,570217,123
119,test,1,con,1,m,Fri May 30 2025 14:06:45 GMT-0500 (Central Daylight Time),577420.400000006,bronze,1100,I,m,m,None,770,571.0,199.0,68,2,2412.4000000059605,575008.0,8035,bronze,NF,B,572051,572051,570221,571334,570221,572633,571851,571851,572633,124
120,test,1,inc,1,m,Fri May 30 2025 14:06:45 GMT-0500 (Central Daylight Time),579469.6999999881,banana,800,I,m,m,None,702,503.0,199.0,69,2,2045.5,577424.1999999881,8035,bronze,NF,B,574167,574167,572637,573450,572637,574683,573967,573967,574683,125
121,test,1,con,1,m,Fri May 30 2025 14:06:45 GMT-0500 (Central Daylight Time),581719.099999994,copper,1000,I,m,m,None,702,501.0,201.0,75,2,2245.7999999821186,579473.3000000119,8035,copper,NF,B,576417,576417,574686,575702,574687,576932,576216,576216,576932,126
122,test,1,inc,1,m,Fri May 30 2025 14:06:45 GMT-0500 (Central Daylight Time),584018.400000006,kiwi,1000,I,m,m,None,757,557.0,200.0,127,2,2295.7000000178814,581722.6999999881,8035,lead,NF,B,578665,578665,576936,577949,576936,579232,578465,578465,579231,127
123,test,1,con,1,m,Fri May 30 2025 14:06:45 GMT-0500 (Central Daylight Time),586284.3000000119,gold,900,I,m,m,None,821,622.0,199.0,98,2,2262.0,584022.3000000119,8035,gold,NF,B,580864,580864,579235,580148,579236,581497,580665,580665,581497,128
