block_c,block_dur,condition,countdown,datetime,endtime,list,multichar_response,project,response,response_time,session_number,start_end,starttime,subject_id,task,task_vers,trial
,,,,Wed Sep 03 2025 16:19:16 GMT-0500 (Central Daylight Time),,,,O,space,452,1,,,7212,WL,B,
prac,,0,,Wed Sep 03 2025 16:19:16 GMT-0500 (Central Daylight Time),,NA,b,O,b,261,1,,,7212,WL,B,1.0
prac,,0,,Wed Sep 03 2025 16:19:16 GMT-0500 (Central Daylight Time),,NA,bo,O,o,761,1,,,7212,WL,B,1.0
prac,,0,,Wed Sep 03 2025 16:19:16 GMT-0500 (Central Daylight Time),,NA,boo,O,o,104,1,,,7212,WL,B,1.0
prac,,0,,Wed Sep 03 2025 16:19:16 GMT-0500 (Central Daylight Time),,NA,boos,O,s,174,1,,,7212,WL,B,1.0
prac,,0,,Wed Sep 03 2025 16:19:16 GMT-0500 (Central Daylight Time),,NA,boost,O,t,190,1,,,7212,WL,B,1.0
prac,,0,,Wed Sep 03 2025 16:19:16 GMT-0500 (Central Daylight Time),,NA,boostenter,O,enter,1579,1,,,7212,WL,B,1.0
1,1.0169999599456787,learn,58983.00004005432,Wed Sep 03 2025 16:19:16 GMT-0500 (Central Daylight Time),182544.69999980927,A,s,O,s,1001,1,1015.6999998092651,181529.0,7212,WL,B,1.0
1,1.1670000553131104,learn,58832.99994468689,Wed Sep 03 2025 16:19:16 GMT-0500 (Central Daylight Time),182695.09999990463,A,st,O,t,140,1,1166.0999999046326,181529.0,7212,WL,B,1.0
1,1.4019999504089355,learn,58598.000049591064,Wed Sep 03 2025 16:19:16 GMT-0500 (Central Daylight Time),182929.39999961853,A,str,O,r,211,1,1400.3999996185303,181529.0,7212,WL,B,1.0
1,1.5,learn,58500.0,Wed Sep 03 2025 16:19:16 GMT-0500 (Central Daylight Time),183027.59999990463,A,stre,O,e,90,1,1498.5999999046326,181529.0,7212,WL,B,1.0
1,1.6510000228881836,learn,58348.99997711182,Wed Sep 03 2025 16:19:16 GMT-0500 (Central Daylight Time),183178.39999961853,A,stree,O,e,136,1,1649.3999996185303,181529.0,7212,WL,B,1.0
1,1.9509999752044678,learn,58049.00002479553,Wed Sep 03 2025 16:19:16 GMT-0500 (Central Daylight Time),183478.09999990463,A,street,O,t,283,1,1949.0999999046326,181529.0,7212,WL,B,1.0
1,6.948999881744385,learn,53051.000118255615,Wed Sep 03 2025 16:19:16 GMT-0500 (Central Daylight Time),188476.7999997139,A,streetenter,O,enter,4982,1,6947.799999713898,181529.0,7212,WL,B,1.0
1,8.73199987411499,learn,51268.00012588501,Wed Sep 03 2025 16:19:16 GMT-0500 (Central Daylight Time),190259.89999961853,A,a,O,a,1766,1,1782.5999999046326,188477.2999997139,7212,WL,B,2.0
1,8.881999969482422,learn,51118.00003051758,Wed Sep 03 2025 16:19:16 GMT-0500 (Central Daylight Time),190409.59999990463,A,ar,O,r,127,1,1932.3000001907349,188477.2999997139,7212,WL,B,2.0
1,9.065000057220459,learn,50934.99994277954,Wed Sep 03 2025 16:19:16 GMT-0500 (Central Daylight Time),190592.7999997139,A,arm,O,m,161,1,2115.5,188477.2999997139,7212,WL,B,2.0
1,9.381999969482422,learn,50618.00003051758,Wed Sep 03 2025 16:19:16 GMT-0500 (Central Daylight Time),190909.19999980927,A,armenter,O,enter,298,1,2431.9000000953674,188477.2999997139,7212,WL,B,2.0
1,10.081000089645386,learn,49918.999910354614,Wed Sep 03 2025 16:19:16 GMT-0500 (Central Daylight Time),191608.7999997139,A,g,O,g,680,1,699.2999997138977,190909.5,7212,WL,B,3.0
1,10.264999866485596,learn,49735.000133514404,Wed Sep 03 2025 16:19:16 GMT-0500 (Central Daylight Time),191792.2999997139,A,gr,O,r,171,1,882.7999997138977,190909.5,7212,WL,B,3.0
1,10.848000049591064,learn,49151.999950408936,Wed Sep 03 2025 16:19:16 GMT-0500 (Central Daylight Time),192375.39999961853,A,gra,O,a,562,1,1465.8999996185303,190909.5,7212,WL,B,3.0
1,11.19700002670288,learn,48802.99997329712,Wed Sep 03 2025 16:19:16 GMT-0500 (Central Daylight Time),192724.7999997139,A,gras,O,s,342,1,1815.2999997138977,190909.5,7212,WL,B,3.0
1,11.348000049591064,learn,48651.999950408936,Wed Sep 03 2025 16:19:16 GMT-0500 (Central Daylight Time),192876.09999990463,A,grass,O,s,126,1,1966.5999999046326,190909.5,7212,WL,B,3.0
1,11.914000034332275,learn,48085.999965667725,Wed Sep 03 2025 16:19:16 GMT-0500 (Central Daylight Time),193441.19999980927,A,grassenter,O,enter,552,1,2531.699999809265,190909.5,7212,WL,B,3.0
1,13.246999979019165,learn,46753.000020980835,Wed Sep 03 2025 16:19:16 GMT-0500 (Central Daylight Time),194774.2999997139,A,w,O,w,1327,1,1332.7999997138977,193441.5,7212,WL,B,4.0
1,13.379999876022339,learn,46620.00012397766,Wed Sep 03 2025 16:19:16 GMT-0500 (Central Daylight Time),194907.89999961853,A,wi,O,i,117,1,1466.3999996185303,193441.5,7212,WL,B,4.0
1,13.496999979019165,learn,46503.000020980835,Wed Sep 03 2025 16:19:16 GMT-0500 (Central Daylight Time),195024.5,A,wif,O,f,106,1,1583.0,193441.5,7212,WL,B,4.0
1,13.645999908447266,learn,46354.000091552734,Wed Sep 03 2025 16:19:16 GMT-0500 (Central Daylight Time),195173.5,A,wife,O,e,132,1,1732.0,193441.5,7212,WL,B,4.0
1,13.911999940872192,learn,46088.00005912781,Wed Sep 03 2025 16:19:16 GMT-0500 (Central Daylight Time),195440.0,A,wifeenter,O,enter,257,1,1998.5,193441.5,7212,WL,B,4.0
1,14.430000066757202,learn,45569.9999332428,Wed Sep 03 2025 16:19:16 GMT-0500 (Central Daylight Time),195957.59999990463,A,p,O,p,511,1,517.2000002861023,195440.39999961853,7212,WL,B,5.0
1,14.629999876022339,learn,45370.00012397766,Wed Sep 03 2025 16:19:16 GMT-0500 (Central Daylight Time),196157.69999980927,A,pu,O,u,193,1,717.3000001907349,195440.39999961853,7212,WL,B,5.0
1,14.77999997138977,learn,45220.00002861023,Wed Sep 03 2025 16:19:16 GMT-0500 (Central Daylight Time),196308.0,A,pup,O,p,144,1,867.6000003814697,195440.39999961853,7212,WL,B,5.0
1,15.029000043869019,learn,44970.99995613098,Wed Sep 03 2025 16:19:16 GMT-0500 (Central Daylight Time),196556.39999961853,A,pupi,O,i,241,1,1116.0,195440.39999961853,7212,WL,B,5.0
1,15.263000011444092,learn,44736.99998855591,Wed Sep 03 2025 16:19:16 GMT-0500 (Central Daylight Time),196790.39999961853,A,pupil,O,l,216,1,1350.0,195440.39999961853,7212,WL,B,5.0
1,15.994999885559082,learn,44005.00011444092,Wed Sep 03 2025 16:19:16 GMT-0500 (Central Daylight Time),197523.0,A,pupilenter,O,enter,728,1,2082.6000003814697,195440.39999961853,7212,WL,B,5.0
1,18.84500002861023,learn,41154.99997138977,Wed Sep 03 2025 16:19:16 GMT-0500 (Central Daylight Time),200372.39999961853,A,f,O,f,2843,1,2849.0999999046326,197523.2999997139,7212,WL,B,6.0
1,18.97699999809265,learn,41023.00000190735,Wed Sep 03 2025 16:19:16 GMT-0500 (Central Daylight Time),200504.69999980927,A,fi,O,i,119,1,2981.4000000953674,197523.2999997139,7212,WL,B,6.0
1,19.0939998626709,learn,40906.0001373291,Wed Sep 03 2025 16:19:16 GMT-0500 (Central Daylight Time),200622.09999990463,A,fir,O,r,99,1,3098.800000190735,197523.2999997139,7212,WL,B,6.0
1,19.213000059127808,learn,40786.99994087219,Wed Sep 03 2025 16:19:16 GMT-0500 (Central Daylight Time),200740.2999997139,A,fire,O,e,102,1,3217.0,197523.2999997139,7212,WL,B,6.0
1,19.52900004386902,learn,40470.99995613098,Wed Sep 03 2025 16:19:16 GMT-0500 (Central Daylight Time),201056.19999980927,A,fireenter,O,enter,305,1,3532.9000000953674,197523.2999997139,7212,WL,B,6.0
1,19.878000020980835,learn,40121.999979019165,Wed Sep 03 2025 16:19:16 GMT-0500 (Central Daylight Time),201405.69999980927,A,s,O,s,332,1,349.19999980926514,201056.5,7212,WL,B,7.0
1,20.009999990463257,learn,39990.00000953674,Wed Sep 03 2025 16:19:16 GMT-0500 (Central Daylight Time),201537.7999997139,A,sk,O,k,116,1,481.2999997138977,201056.5,7212,WL,B,7.0
1,20.144999980926514,learn,39855.000019073486,Wed Sep 03 2025 16:19:16 GMT-0500 (Central Daylight Time),201672.2999997139,A,ski,O,i,122,1,615.7999997138977,201056.5,7212,WL,B,7.0
1,20.312000036239624,learn,39687.999963760376,Wed Sep 03 2025 16:19:16 GMT-0500 (Central Daylight Time),201839.09999990463,A,skin,O,n,156,1,782.5999999046326,201056.5,7212,WL,B,7.0
1,21.042999982833862,learn,38957.00001716614,Wed Sep 03 2025 16:19:16 GMT-0500 (Central Daylight Time),202570.59999990463,A,skinenter,O,enter,717,1,1514.0999999046326,201056.5,7212,WL,B,7.0
1,23.47699999809265,learn,36523.00000190735,Wed Sep 03 2025 16:19:16 GMT-0500 (Central Daylight Time),205004.5,A,p,O,p,2428,1,2433.5,202571.0,7212,WL,B,8.0
1,23.677000045776367,learn,36322.99995422363,Wed Sep 03 2025 16:19:16 GMT-0500 (Central Daylight Time),205204.7999997139,A,pi,O,i,185,1,2633.7999997138977,202571.0,7212,WL,B,8.0
1,23.925999879837036,learn,36074.000120162964,Wed Sep 03 2025 16:19:16 GMT-0500 (Central Daylight Time),205454.09999990463,A,pip,O,p,231,1,2883.0999999046326,202571.0,7212,WL,B,8.0
1,24.295000076293945,learn,35704.999923706055,Wed Sep 03 2025 16:19:16 GMT-0500 (Central Daylight Time),205822.09999990463,A,pipe,O,e,361,1,3251.0999999046326,202571.0,7212,WL,B,8.0
1,26.194000005722046,learn,33805.999994277954,Wed Sep 03 2025 16:19:16 GMT-0500 (Central Daylight Time),207721.89999961853,A,pipeenter,O,enter,1876,1,5150.89999961853,202571.0,7212,WL,B,8.0
1,35.105000019073486,learn,24894.999980926514,Wed Sep 03 2025 16:19:16 GMT-0500 (Central Daylight Time),216633.0,A,c,O,c,8899,1,8910.800000190735,207722.19999980927,7212,WL,B,9.0
1,35.24000000953674,learn,24759.999990463257,Wed Sep 03 2025 16:19:16 GMT-0500 (Central Daylight Time),216767.2999997139,A,ci,O,i,113,1,9045.099999904633,207722.19999980927,7212,WL,B,9.0
1,35.4229998588562,learn,24577.0001411438,Wed Sep 03 2025 16:19:16 GMT-0500 (Central Daylight Time),216950.69999980927,A,cit,O,t,164,1,9228.5,207722.19999980927,7212,WL,B,9.0
1,35.555999994277954,learn,24444.000005722046,Wed Sep 03 2025 16:19:16 GMT-0500 (Central Daylight Time),217083.89999961853,A,city,O,y,119,1,9361.699999809265,207722.19999980927,7212,WL,B,9.0
1,36.138999938964844,learn,23861.000061035156,Wed Sep 03 2025 16:19:16 GMT-0500 (Central Daylight Time),217666.2999997139,A,cityenter,O,enter,567,1,9944.099999904633,207722.19999980927,7212,WL,B,9.0
1,37.5220000743866,learn,22477.999925613403,Wed Sep 03 2025 16:19:16 GMT-0500 (Central Daylight Time),219049.39999961853,A,f,O,f,1371,1,1382.7999997138977,217666.59999990463,7212,WL,B,10.0
1,37.63800001144409,learn,22361.99998855591,Wed Sep 03 2025 16:19:16 GMT-0500 (Central Daylight Time),219166.0,A,fi,O,i,95,1,1499.4000000953674,217666.59999990463,7212,WL,B,10.0
1,37.73900008201599,learn,22260.99991798401,Wed Sep 03 2025 16:19:16 GMT-0500 (Central Daylight Time),219266.09999990463,A,fir,O,r,77,1,1599.5,217666.59999990463,7212,WL,B,10.0
1,37.83899998664856,learn,22161.00001335144,Wed Sep 03 2025 16:19:16 GMT-0500 (Central Daylight Time),219366.19999980927,A,fire,O,e,81,1,1699.5999999046326,217666.59999990463,7212,WL,B,10.0
1,38.121999979019165,learn,21878.000020980835,Wed Sep 03 2025 16:19:16 GMT-0500 (Central Daylight Time),219649.39999961853,A,fireenter,O,enter,268,1,1982.7999997138977,217666.59999990463,7212,WL,B,10.0
1,59.812999963760376,learn,187.00003623962402,Wed Sep 03 2025 16:19:16 GMT-0500 (Central Daylight Time),241340.89999961853,A,enter,O,enter,21682,1,21691.299999713898,219649.59999990463,7212,WL,B,11.0
1,60.013999938964844,learn,-13.99993896484375,Wed Sep 03 2025 16:19:16 GMT-0500 (Central Daylight Time),241542.0,A,None,O,None,195,1,200.7000002861023,241341.2999997139,7212,WL,B,12.0
2,0.564000129699707,learn,59435.99987030029,Wed Sep 03 2025 16:19:16 GMT-0500 (Central Daylight Time),312936.59999990463,A,c,O,c,551,1,564.4000000953674,312372.19999980927,7212,WL,B,1.0
2,0.6130001544952393,learn,59386.99984550476,Wed Sep 03 2025 16:19:16 GMT-0500 (Central Daylight Time),312985.09999990463,A,cl,O,l,40,1,612.9000000953674,312372.19999980927,7212,WL,B,1.0
2,0.7820000648498535,learn,59217.99993515015,Wed Sep 03 2025 16:19:16 GMT-0500 (Central Daylight Time),313154.19999980927,A,clo,O,o,164,1,782.0,312372.19999980927,7212,WL,B,1.0
2,0.9309999942779541,learn,59069.000005722046,Wed Sep 03 2025 16:19:16 GMT-0500 (Central Daylight Time),313303.39999961853,A,cloc,O,c,130,1,931.1999998092651,312372.19999980927,7212,WL,B,1.0
2,1.0499999523162842,learn,58950.000047683716,Wed Sep 03 2025 16:19:16 GMT-0500 (Central Daylight Time),313421.89999961853,A,clock,O,k,101,1,1049.6999998092651,312372.19999980927,7212,WL,B,1.0
2,1.4820001125335693,learn,58517.99988746643,Wed Sep 03 2025 16:19:16 GMT-0500 (Central Daylight Time),313853.7999997139,A,clockenter,O,enter,424,1,1481.5999999046326,312372.19999980927,7212,WL,B,1.0
2,2.4820001125335693,learn,57517.99988746643,Wed Sep 03 2025 16:19:16 GMT-0500 (Central Daylight Time),314854.59999990463,A,f,O,f,996,1,1000.5,313854.09999990463,7212,WL,B,2.0
2,2.6470000743865967,learn,57352.9999256134,Wed Sep 03 2025 16:19:16 GMT-0500 (Central Daylight Time),315019.59999990463,A,fi,O,i,150,1,1165.5,313854.09999990463,7212,WL,B,2.0
2,2.746999979019165,learn,57253.000020980835,Wed Sep 03 2025 16:19:16 GMT-0500 (Central Daylight Time),315119.69999980927,A,fir,O,r,78,1,1265.5999999046326,313854.09999990463,7212,WL,B,2.0
2,2.8630001544952393,learn,57136.99984550476,Wed Sep 03 2025 16:19:16 GMT-0500 (Central Daylight Time),315235.2999997139,A,fire,O,e,107,1,1381.1999998092651,313854.09999990463,7212,WL,B,2.0
2,3.2309999465942383,learn,56769.00005340576,Wed Sep 03 2025 16:19:16 GMT-0500 (Central Daylight Time),315603.39999961853,A,fireenter,O,enter,355,1,1749.2999997138977,313854.09999990463,7212,WL,B,2.0
2,3.880000114440918,learn,56119.99988555908,Wed Sep 03 2025 16:19:16 GMT-0500 (Central Daylight Time),316252.59999990463,A,l,O,l,642,1,648.9000000953674,315603.69999980927,7212,WL,B,3.0
2,3.944999933242798,learn,56055.0000667572,Wed Sep 03 2025 16:19:16 GMT-0500 (Central Daylight Time),316317.2999997139,A,la,O,a,49,1,713.5999999046326,315603.69999980927,7212,WL,B,3.0
2,4.0959999561309814,learn,55904.00004386902,Wed Sep 03 2025 16:19:16 GMT-0500 (Central Daylight Time),316468.5,A,lak,O,k,131,1,864.8000001907349,315603.69999980927,7212,WL,B,3.0
2,4.230000019073486,learn,55769.999980926514,Wed Sep 03 2025 16:19:16 GMT-0500 (Central Daylight Time),316602.59999990463,A,lake,O,e,122,1,998.9000000953674,315603.69999980927,7212,WL,B,3.0
2,4.71399998664856,learn,55286.00001335144,Wed Sep 03 2025 16:19:16 GMT-0500 (Central Daylight Time),317085.7999997139,A,lakeenter,O,enter,465,1,1482.0999999046326,315603.69999980927,7212,WL,B,3.0
2,5.329999923706055,learn,54670.000076293945,Wed Sep 03 2025 16:19:16 GMT-0500 (Central Daylight Time),317702.09999990463,A,s,O,s,599,1,616.0,317086.09999990463,7212,WL,B,4.0
2,5.397000074386597,learn,54602.9999256134,Wed Sep 03 2025 16:19:16 GMT-0500 (Central Daylight Time),317769.0,A,sk,O,k,53,1,682.9000000953674,317086.09999990463,7212,WL,B,4.0
2,5.546000003814697,learn,54453.9999961853,Wed Sep 03 2025 16:19:16 GMT-0500 (Central Daylight Time),317918.59999990463,A,ski,O,i,137,1,832.5,317086.09999990463,7212,WL,B,4.0
2,5.697000026702881,learn,54302.99997329712,Wed Sep 03 2025 16:19:16 GMT-0500 (Central Daylight Time),318068.89999961853,A,skin,O,n,131,1,982.7999997138977,317086.09999990463,7212,WL,B,4.0
2,6.144999980926514,learn,53855.000019073486,Wed Sep 03 2025 16:19:16 GMT-0500 (Central Daylight Time),318517.19999980927,A,skinenter,O,enter,440,1,1431.0999999046326,317086.09999990463,7212,WL,B,4.0
2,6.5299999713897705,learn,53470.00002861023,Wed Sep 03 2025 16:19:16 GMT-0500 (Central Daylight Time),318902.09999990463,A,c,O,c,367,1,384.7000002861023,318517.39999961853,7212,WL,B,5.0
2,6.680000066757202,learn,53319.9999332428,Wed Sep 03 2025 16:19:16 GMT-0500 (Central Daylight Time),319051.89999961853,A,ca,O,a,130,1,534.5,318517.39999961853,7212,WL,B,5.0
2,6.796000003814697,learn,53203.9999961853,Wed Sep 03 2025 16:19:16 GMT-0500 (Central Daylight Time),319168.0,A,cab,O,b,105,1,650.6000003814697,318517.39999961853,7212,WL,B,5.0
2,6.897000074386597,learn,53102.9999256134,Wed Sep 03 2025 16:19:16 GMT-0500 (Central Daylight Time),319269.0,A,cabi,O,i,82,1,751.6000003814697,318517.39999961853,7212,WL,B,5.0
2,6.979000091552734,learn,53020.999908447266,Wed Sep 03 2025 16:19:16 GMT-0500 (Central Daylight Time),319350.7999997139,A,cabin,O,n,61,1,833.4000000953674,318517.39999961853,7212,WL,B,5.0
2,7.2790000438690186,learn,52720.99995613098,Wed Sep 03 2025 16:19:16 GMT-0500 (Central Daylight Time),319651.2999997139,A,cabinenter,O,enter,284,1,1133.9000000953674,318517.39999961853,7212,WL,B,5.0
2,7.611999988555908,learn,52388.00001144409,Wed Sep 03 2025 16:19:16 GMT-0500 (Central Daylight Time),319984.0,A,l,O,l,323,1,332.5,319651.5,7212,WL,B,6.0
2,7.696000099182129,learn,52303.99990081787,Wed Sep 03 2025 16:19:16 GMT-0500 (Central Daylight Time),320068.39999961853,A,la,O,a,79,1,416.8999996185303,319651.5,7212,WL,B,6.0
2,7.861999988555908,learn,52138.00001144409,Wed Sep 03 2025 16:19:16 GMT-0500 (Central Daylight Time),320234.2999997139,A,lak,O,k,151,1,582.7999997138977,319651.5,7212,WL,B,6.0
2,7.995000123977661,learn,52004.99987602234,Wed Sep 03 2025 16:19:16 GMT-0500 (Central Daylight Time),320367.39999961853,A,lake,O,e,113,1,715.8999996185303,319651.5,7212,WL,B,6.0
2,8.344000101089478,learn,51655.99989891052,Wed Sep 03 2025 16:19:16 GMT-0500 (Central Daylight Time),320716.59999990463,A,lakeenter,O,enter,335,1,1065.0999999046326,319651.5,7212,WL,B,6.0
2,9.477999925613403,learn,50522.0000743866,Wed Sep 03 2025 16:19:16 GMT-0500 (Central Daylight Time),321850.2999997139,A,s,O,s,1120,1,1133.4000000953674,320716.89999961853,7212,WL,B,7.0
2,9.594000101089478,learn,50405.99989891052,Wed Sep 03 2025 16:19:16 GMT-0500 (Central Daylight Time),321966.59999990463,A,st,O,t,106,1,1249.7000002861023,320716.89999961853,7212,WL,B,7.0
2,9.812000036239624,learn,50187.999963760376,Wed Sep 03 2025 16:19:16 GMT-0500 (Central Daylight Time),322184.09999990463,A,str,O,r,199,1,1467.2000002861023,320716.89999961853,7212,WL,B,7.0
2,9.878000020980835,learn,50121.999979019165,Wed Sep 03 2025 16:19:16 GMT-0500 (Central Daylight Time),322250.69999980927,A,stre,O,e,59,1,1533.8000001907349,320716.89999961853,7212,WL,B,7.0
2,10.061000108718872,learn,49938.99989128113,Wed Sep 03 2025 16:19:16 GMT-0500 (Central Daylight Time),322433.59999990463,A,stree,O,e,171,1,1716.7000002861023,320716.89999961853,7212,WL,B,7.0
2,10.311000108718872,learn,49688.99989128113,Wed Sep 03 2025 16:19:16 GMT-0500 (Central Daylight Time),322683.19999980927,A,street,O,t,232,1,1966.3000001907349,320716.89999961853,7212,WL,B,7.0
2,10.611000061035156,learn,49388.999938964844,Wed Sep 03 2025 16:19:16 GMT-0500 (Central Daylight Time),322983.0,A,streetenter,O,enter,291,1,2266.1000003814697,320716.89999961853,7212,WL,B,7.0
2,12.561000108718872,learn,47438.99989128113,Wed Sep 03 2025 16:19:16 GMT-0500 (Central Daylight Time),324933.2999997139,A,g,O,g,1942,1,1950.0,322983.2999997139,7212,WL,B,8.0
2,12.743000030517578,learn,47256.99996948242,Wed Sep 03 2025 16:19:16 GMT-0500 (Central Daylight Time),325115.7999997139,A,gr,O,r,168,1,2132.5,322983.2999997139,7212,WL,B,8.0
2,12.878000020980835,learn,47121.999979019165,Wed Sep 03 2025 16:19:16 GMT-0500 (Central Daylight Time),325249.89999961853,A,gra,O,a,113,1,2266.5999999046326,322983.2999997139,7212,WL,B,8.0
2,13.011000156402588,learn,46988.99984359741,Wed Sep 03 2025 16:19:16 GMT-0500 (Central Daylight Time),325382.7999997139,A,gras,O,s,114,1,2399.5,322983.2999997139,7212,WL,B,8.0
2,13.210000038146973,learn,46789.99996185303,Wed Sep 03 2025 16:19:16 GMT-0500 (Central Daylight Time),325582.39999961853,A,grass,O,s,189,1,2599.0999999046326,322983.2999997139,7212,WL,B,8.0
2,13.444000005722046,learn,46555.999994277954,Wed Sep 03 2025 16:19:16 GMT-0500 (Central Daylight Time),325816.39999961853,A,grassenter,O,enter,223,1,2833.0999999046326,322983.2999997139,7212,WL,B,8.0
2,13.842999935150146,learn,46157.00006484985,Wed Sep 03 2025 16:19:16 GMT-0500 (Central Daylight Time),326215.69999980927,A,a,O,a,380,1,398.90000009536743,325816.7999997139,7212,WL,B,9.0
2,13.992000102996826,learn,46007.999897003174,Wed Sep 03 2025 16:19:16 GMT-0500 (Central Daylight Time),326364.5,A,ar,O,r,131,1,547.7000002861023,325816.7999997139,7212,WL,B,9.0
2,14.141000032424927,learn,45858.99996757507,Wed Sep 03 2025 16:19:16 GMT-0500 (Central Daylight Time),326513.5,A,arm,O,m,135,1,696.7000002861023,325816.7999997139,7212,WL,B,9.0
2,14.825000047683716,learn,45174.999952316284,Wed Sep 03 2025 16:19:16 GMT-0500 (Central Daylight Time),327197.39999961853,A,armenter,O,enter,670,1,1380.5999999046326,325816.7999997139,7212,WL,B,9.0
2,17.125,learn,42875.0,Wed Sep 03 2025 16:19:16 GMT-0500 (Central Daylight Time),329497.69999980927,A,c,O,c,2288,1,2300.0,327197.69999980927,7212,WL,B,10.0
2,17.174999952316284,learn,42825.000047683716,Wed Sep 03 2025 16:19:16 GMT-0500 (Central Daylight Time),329546.89999961853,A,cl,O,l,34,1,2349.199999809265,327197.69999980927,7212,WL,B,10.0
2,17.325999975204468,learn,42674.00002479553,Wed Sep 03 2025 16:19:16 GMT-0500 (Central Daylight Time),329698.5,A,clo,O,o,139,1,2500.800000190735,327197.69999980927,7212,WL,B,10.0
2,17.45900011062622,learn,42540.99988937378,Wed Sep 03 2025 16:19:16 GMT-0500 (Central Daylight Time),329831.69999980927,A,cloc,O,c,122,1,2634.0,327197.69999980927,7212,WL,B,10.0
2,17.608999967575073,learn,42391.00003242493,Wed Sep 03 2025 16:19:16 GMT-0500 (Central Daylight Time),329981.0,A,clock,O,k,133,1,2783.300000190735,327197.69999980927,7212,WL,B,10.0
2,17.97699999809265,learn,42023.00000190735,Wed Sep 03 2025 16:19:16 GMT-0500 (Central Daylight Time),330348.69999980927,A,clockenter,O,enter,347,1,3151.0,327197.69999980927,7212,WL,B,10.0
2,20.492000102996826,learn,39507.999897003174,Wed Sep 03 2025 16:19:16 GMT-0500 (Central Daylight Time),332864.59999990463,A,c,O,c,2505,1,2515.5999999046326,330349.0,7212,WL,B,11.0
2,20.591000080108643,learn,39408.99991989136,Wed Sep 03 2025 16:19:16 GMT-0500 (Central Daylight Time),332963.69999980927,A,ci,O,i,83,1,2614.699999809265,330349.0,7212,WL,B,11.0
2,20.742000102996826,learn,39257.999897003174,Wed Sep 03 2025 16:19:16 GMT-0500 (Central Daylight Time),333114.69999980927,A,cit,O,t,131,1,2765.699999809265,330349.0,7212,WL,B,11.0
2,20.85800004005432,learn,39141.99995994568,Wed Sep 03 2025 16:19:16 GMT-0500 (Central Daylight Time),333230.59999990463,A,city,O,y,98,1,2881.5999999046326,330349.0,7212,WL,B,11.0
2,21.556999921798706,learn,38443.000078201294,Wed Sep 03 2025 16:19:16 GMT-0500 (Central Daylight Time),333929.39999961853,A,cityenter,O,enter,677,1,3580.3999996185303,330349.0,7212,WL,B,11.0
2,22.572999954223633,learn,37427.00004577637,Wed Sep 03 2025 16:19:16 GMT-0500 (Central Daylight Time),334945.59999990463,A,d,O,d,1004,1,1015.9000000953674,333929.69999980927,7212,WL,B,12.0
2,22.723000049591064,learn,37276.999950408936,Wed Sep 03 2025 16:19:16 GMT-0500 (Central Daylight Time),335095.19999980927,A,do,O,o,127,1,1165.5,333929.69999980927,7212,WL,B,12.0
2,22.824000120162964,learn,37175.999879837036,Wed Sep 03 2025 16:19:16 GMT-0500 (Central Daylight Time),335196.0,A,doo,O,o,94,1,1266.3000001907349,333929.69999980927,7212,WL,B,12.0
2,23.02300000190735,learn,36976.99999809265,Wed Sep 03 2025 16:19:16 GMT-0500 (Central Daylight Time),335395.19999980927,A,door,O,r,184,1,1465.5,333929.69999980927,7212,WL,B,12.0
2,23.822999954223633,learn,36177.00004577637,Wed Sep 03 2025 16:19:16 GMT-0500 (Central Daylight Time),336194.89999961853,A,doorenter,O,enter,790,1,2265.199999809265,333929.69999980927,7212,WL,B,12.0
2,24.35700011253357,learn,35642.99988746643,Wed Sep 03 2025 16:19:16 GMT-0500 (Central Daylight Time),336728.7999997139,A,p,O,p,513,1,533.1999998092651,336195.59999990463,7212,WL,B,13.0
2,24.48900008201599,learn,35510.99991798401,Wed Sep 03 2025 16:19:16 GMT-0500 (Central Daylight Time),336861.2999997139,A,pu,O,u,122,1,665.6999998092651,336195.59999990463,7212,WL,B,13.0
2,24.638999938964844,learn,35361.000061035156,Wed Sep 03 2025 16:19:16 GMT-0500 (Central Daylight Time),337011.5,A,pup,O,p,135,1,815.9000000953674,336195.59999990463,7212,WL,B,13.0
2,24.789000034332275,learn,35210.999965667725,Wed Sep 03 2025 16:19:16 GMT-0500 (Central Daylight Time),337161.5,A,pupi,O,i,128,1,965.9000000953674,336195.59999990463,7212,WL,B,13.0
2,25.006999969482422,learn,34993.00003051758,Wed Sep 03 2025 16:19:16 GMT-0500 (Central Daylight Time),337379.5,A,pupil,O,l,193,1,1183.9000000953674,336195.59999990463,7212,WL,B,13.0
2,25.52300000190735,learn,34476.99999809265,Wed Sep 03 2025 16:19:16 GMT-0500 (Central Daylight Time),337894.69999980927,A,pupilenter,O,enter,502,1,1699.0999999046326,336195.59999990463,7212,WL,B,13.0
2,35.736000061035156,learn,24263.999938964844,Wed Sep 03 2025 16:19:16 GMT-0500 (Central Daylight Time),348108.09999990463,A,s,O,s,10192,1,10213.099999904633,337895.0,7212,WL,B,14.0
2,35.90300011634827,learn,24096.999883651733,Wed Sep 03 2025 16:19:16 GMT-0500 (Central Daylight Time),348275.59999990463,A,st,O,t,150,1,10380.599999904633,337895.0,7212,WL,B,14.0
2,36.085999965667725,learn,23914.000034332275,Wed Sep 03 2025 16:19:16 GMT-0500 (Central Daylight Time),348457.89999961853,A,sta,O,a,171,1,10562.89999961853,337895.0,7212,WL,B,14.0
2,36.2020001411438,learn,23797.9998588562,Wed Sep 03 2025 16:19:16 GMT-0500 (Central Daylight Time),348574.2999997139,A,star,O,r,98,1,10679.299999713898,337895.0,7212,WL,B,14.0
2,36.61899995803833,learn,23381.00004196167,Wed Sep 03 2025 16:19:16 GMT-0500 (Central Daylight Time),348991.09999990463,A,starenter,O,enter,403,1,11096.099999904633,337895.0,7212,WL,B,14.0
2,39.43400001525879,learn,20565.99998474121,Wed Sep 03 2025 16:19:16 GMT-0500 (Central Daylight Time),351807.09999990463,A,enter,O,enter,2806,1,2815.800000190735,348991.2999997139,7212,WL,B,15.0
3,0.7670001983642578,learn,59232.99980163574,Wed Sep 03 2025 16:19:16 GMT-0500 (Central Daylight Time),422118.59999990463,A,c,O,c,748,1,766.4000000953674,421352.19999980927,7212,WL,B,1.0
3,0.8330001831054688,learn,59166.99981689453,Wed Sep 03 2025 16:19:16 GMT-0500 (Central Daylight Time),422184.5,A,cl,O,l,43,1,832.3000001907349,421352.19999980927,7212,WL,B,1.0
3,0.9830000400543213,learn,59016.99995994568,Wed Sep 03 2025 16:19:16 GMT-0500 (Central Daylight Time),422334.7999997139,A,clo,O,o,134,1,982.5999999046326,421352.19999980927,7212,WL,B,1.0
3,1.1340000629425049,learn,58865.999937057495,Wed Sep 03 2025 16:19:16 GMT-0500 (Central Daylight Time),422486.09999990463,A,cloc,O,c,134,1,1133.9000000953674,421352.19999980927,7212,WL,B,1.0
3,1.2330000400543213,learn,58766.99995994568,Wed Sep 03 2025 16:19:16 GMT-0500 (Central Daylight Time),422585.19999980927,A,clock,O,k,77,1,1233.0,421352.19999980927,7212,WL,B,1.0
3,1.499000072479248,learn,58500.99992752075,Wed Sep 03 2025 16:19:16 GMT-0500 (Central Daylight Time),422851.2999997139,A,clockenter,O,enter,249,1,1499.0999999046326,421352.19999980927,7212,WL,B,1.0
3,2.7170000076293945,learn,57282.999992370605,Wed Sep 03 2025 16:19:16 GMT-0500 (Central Daylight Time),424068.59999990463,A,f,O,f,1202,1,1217.0,422851.59999990463,7212,WL,B,2.0
3,2.7990000247955322,learn,57200.99997520447,Wed Sep 03 2025 16:19:16 GMT-0500 (Central Daylight Time),424150.89999961853,A,fi,O,i,72,1,1299.2999997138977,422851.59999990463,7212,WL,B,2.0
3,3.017000198364258,learn,56982.99980163574,Wed Sep 03 2025 16:19:16 GMT-0500 (Central Daylight Time),424369.19999980927,A,fir,O,r,195,1,1517.5999999046326,422851.59999990463,7212,WL,B,2.0
3,3.4840002059936523,learn,56515.99979400635,Wed Sep 03 2025 16:19:16 GMT-0500 (Central Daylight Time),424835.7999997139,A,fire,O,e,451,1,1984.1999998092651,422851.59999990463,7212,WL,B,2.0
3,3.700000047683716,learn,56299.999952316284,Wed Sep 03 2025 16:19:16 GMT-0500 (Central Daylight Time),425051.69999980927,A,fireenter,O,enter,195,1,2200.0999999046326,422851.59999990463,7212,WL,B,2.0
3,4.148000001907349,learn,55851.99999809265,Wed Sep 03 2025 16:19:16 GMT-0500 (Central Daylight Time),425500.2999997139,A,s,O,s,443,1,448.2999997138977,425052.0,7212,WL,B,3.0
3,4.233000040054321,learn,55766.99995994568,Wed Sep 03 2025 16:19:16 GMT-0500 (Central Daylight Time),425584.5,A,sk,O,k,62,1,532.5,425052.0,7212,WL,B,3.0
3,4.39900016784668,learn,55600.99983215332,Wed Sep 03 2025 16:19:16 GMT-0500 (Central Daylight Time),425751.0,A,ski,O,i,146,1,699.0,425052.0,7212,WL,B,3.0
3,4.565000057220459,learn,55434.99994277954,Wed Sep 03 2025 16:19:16 GMT-0500 (Central Daylight Time),425917.39999961853,A,skin,O,n,157,1,865.3999996185303,425052.0,7212,WL,B,3.0
3,5.365000009536743,learn,54634.99999046326,Wed Sep 03 2025 16:19:16 GMT-0500 (Central Daylight Time),426717.19999980927,A,skinenter,O,enter,794,1,1665.1999998092651,425052.0,7212,WL,B,3.0
3,5.831000089645386,learn,54168.999910354614,Wed Sep 03 2025 16:19:16 GMT-0500 (Central Daylight Time),427182.5,A,p,O,p,455,1,464.90000009536743,426717.59999990463,7212,WL,B,4.0
3,5.965000152587891,learn,54034.99984741211,Wed Sep 03 2025 16:19:16 GMT-0500 (Central Daylight Time),427317.0,A,pi,O,i,130,1,599.4000000953674,426717.59999990463,7212,WL,B,4.0
3,6.132000207901001,learn,53867.999792099,Wed Sep 03 2025 16:19:16 GMT-0500 (Central Daylight Time),427483.89999961853,A,pip,O,p,150,1,766.2999997138977,426717.59999990463,7212,WL,B,4.0
3,6.565000057220459,learn,53434.99994277954,Wed Sep 03 2025 16:19:16 GMT-0500 (Central Daylight Time),427916.5,A,pipe,O,e,417,1,1198.9000000953674,426717.59999990463,7212,WL,B,4.0
3,7.047000169754028,learn,52952.99983024597,Wed Sep 03 2025 16:19:16 GMT-0500 (Central Daylight Time),428398.59999990463,A,pipeenter,O,enter,463,1,1681.0,426717.59999990463,7212,WL,B,4.0
3,8.247000217437744,learn,51752.999782562256,Wed Sep 03 2025 16:19:16 GMT-0500 (Central Daylight Time),429598.89999961853,A,s,O,s,1183,1,1200.0,428398.89999961853,7212,WL,B,5.0
3,8.397000074386597,learn,51602.9999256134,Wed Sep 03 2025 16:19:16 GMT-0500 (Central Daylight Time),429748.5,A,st,O,t,143,1,1349.6000003814697,428398.89999961853,7212,WL,B,5.0
3,8.580000162124634,learn,51419.999837875366,Wed Sep 03 2025 16:19:16 GMT-0500 (Central Daylight Time),429931.7999997139,A,str,O,r,175,1,1532.9000000953674,428398.89999961853,7212,WL,B,5.0
3,8.647000074386597,learn,51352.9999256134,Wed Sep 03 2025 16:19:16 GMT-0500 (Central Daylight Time),429998.39999961853,A,stre,O,e,58,1,1599.5,428398.89999961853,7212,WL,B,5.0
3,8.797000169754028,learn,51202.99983024597,Wed Sep 03 2025 16:19:16 GMT-0500 (Central Daylight Time),430149.0,A,stree,O,e,135,1,1750.1000003814697,428398.89999961853,7212,WL,B,5.0
3,9.01200008392334,learn,50987.99991607666,Wed Sep 03 2025 16:19:16 GMT-0500 (Central Daylight Time),430364.19999980927,A,street,O,t,205,1,1965.3000001907349,428398.89999961853,7212,WL,B,5.0
3,9.53000020980835,learn,50469.99979019165,Wed Sep 03 2025 16:19:16 GMT-0500 (Central Daylight Time),430882.0,A,streetenter,O,enter,497,1,2483.1000003814697,428398.89999961853,7212,WL,B,5.0
3,10.79800009727478,learn,49201.99990272522,Wed Sep 03 2025 16:19:16 GMT-0500 (Central Daylight Time),432149.7999997139,A,g,O,g,1247,1,1267.4000000953674,430882.39999961853,7212,WL,B,6.0
3,10.94700002670288,learn,49052.99997329712,Wed Sep 03 2025 16:19:16 GMT-0500 (Central Daylight Time),432298.7999997139,A,gr,O,r,136,1,1416.4000000953674,430882.39999961853,7212,WL,B,6.0
3,11.11300015449524,learn,48886.99984550476,Wed Sep 03 2025 16:19:16 GMT-0500 (Central Daylight Time),432465.0,A,gra,O,a,145,1,1582.6000003814697,430882.39999961853,7212,WL,B,6.0
3,11.247000217437744,learn,48752.999782562256,Wed Sep 03 2025 16:19:16 GMT-0500 (Central Daylight Time),432598.69999980927,A,gras,O,s,113,1,1716.3000001907349,430882.39999961853,7212,WL,B,6.0
3,11.38100004196167,learn,48618.99995803833,Wed Sep 03 2025 16:19:16 GMT-0500 (Central Daylight Time),432732.39999961853,A,grass,O,s,117,1,1850.0,430882.39999961853,7212,WL,B,6.0
3,11.69700002670288,learn,48302.99997329712,Wed Sep 03 2025 16:19:16 GMT-0500 (Central Daylight Time),433048.5,A,grassenter,O,enter,293,1,2166.1000003814697,430882.39999961853,7212,WL,B,6.0
3,12.246000051498413,learn,47753.99994850159,Wed Sep 03 2025 16:19:16 GMT-0500 (Central Daylight Time),433597.59999990463,A,a,O,a,532,1,548.7000002861023,433048.89999961853,7212,WL,B,7.0
3,12.347000122070312,learn,47652.99987792969,Wed Sep 03 2025 16:19:16 GMT-0500 (Central Daylight Time),433698.39999961853,A,ar,O,r,85,1,649.5,433048.89999961853,7212,WL,B,7.0
3,12.513000011444092,learn,47486.99998855591,Wed Sep 03 2025 16:19:16 GMT-0500 (Central Daylight Time),433865.0,A,arm,O,m,145,1,816.1000003814697,433048.89999961853,7212,WL,B,7.0
3,13.080000162124634,learn,46919.999837875366,Wed Sep 03 2025 16:19:16 GMT-0500 (Central Daylight Time),434431.59999990463,A,armenter,O,enter,555,1,1382.7000002861023,433048.89999961853,7212,WL,B,7.0
3,14.229000091552734,learn,45770.999908447266,Wed Sep 03 2025 16:19:16 GMT-0500 (Central Daylight Time),435580.39999961853,A,p,O,p,1129,1,1148.5,434431.89999961853,7212,WL,B,8.0
3,14.32800006866455,learn,45671.99993133545,Wed Sep 03 2025 16:19:16 GMT-0500 (Central Daylight Time),435680.0,A,pi,O,i,88,1,1248.1000003814697,434431.89999961853,7212,WL,B,8.0
3,14.462000131607056,learn,45537.999868392944,Wed Sep 03 2025 16:19:16 GMT-0500 (Central Daylight Time),435813.59999990463,A,pip,O,p,123,1,1381.7000002861023,434431.89999961853,7212,WL,B,8.0
3,14.612000226974487,learn,45387.99977302551,Wed Sep 03 2025 16:19:16 GMT-0500 (Central Daylight Time),435963.59999990463,A,pipe,O,e,133,1,1531.7000002861023,434431.89999961853,7212,WL,B,8.0
3,15.178000211715698,learn,44821.9997882843,Wed Sep 03 2025 16:19:16 GMT-0500 (Central Daylight Time),436530.09999990463,A,pipeenter,O,enter,553,1,2098.2000002861023,434431.89999961853,7212,WL,B,8.0
3,16.413000106811523,learn,43586.99989318848,Wed Sep 03 2025 16:19:16 GMT-0500 (Central Daylight Time),437764.59999990463,A,w,O,w,1220,1,1234.3000001907349,436530.2999997139,7212,WL,B,9.0
3,16.511000156402588,learn,43488.99984359741,Wed Sep 03 2025 16:19:16 GMT-0500 (Central Daylight Time),437863.19999980927,A,wi,O,i,80,1,1332.9000000953674,436530.2999997139,7212,WL,B,9.0
3,16.645000219345093,learn,43354.99978065491,Wed Sep 03 2025 16:19:16 GMT-0500 (Central Daylight Time),437996.5,A,win,O,n,117,1,1466.2000002861023,436530.2999997139,7212,WL,B,9.0
3,16.710000038146973,learn,43289.99996185303,Wed Sep 03 2025 16:19:16 GMT-0500 (Central Daylight Time),438062.19999980927,A,wind,O,d,55,1,1531.9000000953674,436530.2999997139,7212,WL,B,9.0
3,16.860000133514404,learn,43139.999866485596,Wed Sep 03 2025 16:19:16 GMT-0500 (Central Daylight Time),438211.89999961853,A,windo,O,o,141,1,1681.5999999046326,436530.2999997139,7212,WL,B,9.0
3,17.094000101089478,learn,42905.99989891052,Wed Sep 03 2025 16:19:16 GMT-0500 (Central Daylight Time),438446.2999997139,A,window,O,w,219,1,1916.0,436530.2999997139,7212,WL,B,9.0
3,17.594000101089478,learn,42405.99989891052,Wed Sep 03 2025 16:19:16 GMT-0500 (Central Daylight Time),438946.19999980927,A,windowenter,O,enter,476,1,2415.9000000953674,436530.2999997139,7212,WL,B,9.0
3,19.627000093460083,learn,40372.99990653992,Wed Sep 03 2025 16:19:16 GMT-0500 (Central Daylight Time),440979.0,A,w,O,w,2021,1,2032.5,438946.5,7212,WL,B,10.0
3,19.743000030517578,learn,40256.99996948242,Wed Sep 03 2025 16:19:16 GMT-0500 (Central Daylight Time),441094.69999980927,A,wi,O,i,105,1,2148.199999809265,438946.5,7212,WL,B,10.0
3,19.860000133514404,learn,40139.999866485596,Wed Sep 03 2025 16:19:16 GMT-0500 (Central Daylight Time),441212.0,A,wif,O,f,102,1,2265.5,438946.5,7212,WL,B,10.0
3,20.461000204086304,learn,39538.999795913696,Wed Sep 03 2025 16:19:16 GMT-0500 (Central Daylight Time),441812.59999990463,A,wife,O,e,578,1,2866.0999999046326,438946.5,7212,WL,B,10.0
3,21.37600016593933,learn,38623.99983406067,Wed Sep 03 2025 16:19:16 GMT-0500 (Central Daylight Time),442727.5,A,wifeenter,O,enter,904,1,3781.0,438946.5,7212,WL,B,10.0
3,22.508000135421753,learn,37491.99986457825,Wed Sep 03 2025 16:19:16 GMT-0500 (Central Daylight Time),443860.2999997139,A,s,O,s,1117,1,1132.5,442727.7999997139,7212,WL,B,11.0
3,22.642000198364258,learn,37357.99980163574,Wed Sep 03 2025 16:19:16 GMT-0500 (Central Daylight Time),443994.0,A,st,O,t,129,1,1266.2000002861023,442727.7999997139,7212,WL,B,11.0
3,22.82800006866455,learn,37171.99993133545,Wed Sep 03 2025 16:19:16 GMT-0500 (Central Daylight Time),444179.2999997139,A,sta,O,a,166,1,1451.5,442727.7999997139,7212,WL,B,11.0
3,22.927000045776367,learn,37072.99995422363,Wed Sep 03 2025 16:19:16 GMT-0500 (Central Daylight Time),444278.69999980927,A,star,O,r,87,1,1550.9000000953674,442727.7999997139,7212,WL,B,11.0
3,23.526000022888184,learn,36473.99997711182,Wed Sep 03 2025 16:19:16 GMT-0500 (Central Daylight Time),444877.59999990463,A,starenter,O,enter,583,1,2149.800000190735,442727.7999997139,7212,WL,B,11.0
3,27.091000080108643,learn,32908.99991989136,Wed Sep 03 2025 16:19:16 GMT-0500 (Central Daylight Time),448443.19999980927,A,c,O,c,3553,1,3565.4000000953674,444877.7999997139,7212,WL,B,12.0
3,27.19000005722046,learn,32809.99994277954,Wed Sep 03 2025 16:19:16 GMT-0500 (Central Daylight Time),448541.59999990463,A,ci,O,i,88,1,3663.800000190735,444877.7999997139,7212,WL,B,12.0
3,27.35800004005432,learn,32641.99995994568,Wed Sep 03 2025 16:19:16 GMT-0500 (Central Daylight Time),448709.5,A,cit,O,t,154,1,3831.7000002861023,444877.7999997139,7212,WL,B,12.0
3,27.4760000705719,learn,32523.9999294281,Wed Sep 03 2025 16:19:16 GMT-0500 (Central Daylight Time),448827.89999961853,A,city,O,y,103,1,3950.0999999046326,444877.7999997139,7212,WL,B,12.0
3,28.057000160217285,learn,31942.999839782715,Wed Sep 03 2025 16:19:16 GMT-0500 (Central Daylight Time),449408.7999997139,A,cityenter,O,enter,568,1,4531.0,444877.7999997139,7212,WL,B,12.0
3,46.01800012588501,learn,13981.99987411499,Wed Sep 03 2025 16:19:16 GMT-0500 (Central Daylight Time),467369.5,A,enter,O,enter,17941,1,17960.400000095367,449409.09999990463,7212,WL,B,13.0
3,46.152000188827515,learn,13847.999811172485,Wed Sep 03 2025 16:19:16 GMT-0500 (Central Daylight Time),467503.39999961853,A,enter,O,enter,123,1,133.59999990463257,467369.7999997139,7212,WL,B,14.0
3,48.58300018310547,learn,11416.999816894531,Wed Sep 03 2025 16:19:16 GMT-0500 (Central Daylight Time),469935.89999961853,A,enter,O,enter,2413,1,2432.2999997138977,467503.59999990463,7212,WL,B,15.0
4,0.5319998264312744,learn,59468.000173568726,Wed Sep 03 2025 16:19:16 GMT-0500 (Central Daylight Time),536415.5,A,d,O,d,512,1,531.8000001907349,535883.6999998093,7212,WL,B,1.0
4,0.75,learn,59250.0,Wed Sep 03 2025 16:19:16 GMT-0500 (Central Daylight Time),536632.8999996185,A,do,O,o,196,1,749.1999998092651,535883.6999998093,7212,WL,B,1.0
4,0.8659999370574951,learn,59134.000062942505,Wed Sep 03 2025 16:19:16 GMT-0500 (Central Daylight Time),536749.5,A,doo,O,o,98,1,865.8000001907349,535883.6999998093,7212,WL,B,1.0
4,1.0489997863769531,learn,58951.00021362305,Wed Sep 03 2025 16:19:16 GMT-0500 (Central Daylight Time),536932.0,A,door,O,r,166,1,1048.3000001907349,535883.6999998093,7212,WL,B,1.0
4,1.2329998016357422,learn,58767.00019836426,Wed Sep 03 2025 16:19:16 GMT-0500 (Central Daylight Time),537115.8999996185,A,doorenter,O,enter,178,1,1232.1999998092651,535883.6999998093,7212,WL,B,1.0
4,2.7649998664855957,learn,57235.000133514404,Wed Sep 03 2025 16:19:16 GMT-0500 (Central Daylight Time),538648.2999997139,A,f,O,f,1522,1,1532.0999999046326,537116.1999998093,7212,WL,B,2.0
4,2.8459999561309814,learn,57154.00004386902,Wed Sep 03 2025 16:19:16 GMT-0500 (Central Daylight Time),538729.2999997139,A,fi,O,i,75,1,1613.0999999046326,537116.1999998093,7212,WL,B,2.0
4,2.947999954223633,learn,57052.00004577637,Wed Sep 03 2025 16:19:16 GMT-0500 (Central Daylight Time),538830.8999996185,A,fir,O,r,94,1,1714.6999998092651,537116.1999998093,7212,WL,B,2.0
4,3.048999786376953,learn,56951.00021362305,Wed Sep 03 2025 16:19:16 GMT-0500 (Central Daylight Time),538932.3999996185,A,fire,O,e,95,1,1816.1999998092651,537116.1999998093,7212,WL,B,2.0
4,3.197999954223633,learn,56802.00004577637,Wed Sep 03 2025 16:19:16 GMT-0500 (Central Daylight Time),539081.1999998093,A,fireenter,O,enter,142,1,1965.0,537116.1999998093,7212,WL,B,2.0
4,3.615999937057495,learn,56384.000062942505,Wed Sep 03 2025 16:19:16 GMT-0500 (Central Daylight Time),539499.3999996185,A,s,O,s,415,1,418.09999990463257,539081.2999997139,7212,WL,B,3.0
4,3.7159998416900635,learn,56284.00015830994,Wed Sep 03 2025 16:19:16 GMT-0500 (Central Daylight Time),539599.3999996185,A,sk,O,k,80,1,518.0999999046326,539081.2999997139,7212,WL,B,3.0
4,3.865999937057495,learn,56134.000062942505,Wed Sep 03 2025 16:19:16 GMT-0500 (Central Daylight Time),539749.2999997139,A,ski,O,i,144,1,668.0,539081.2999997139,7212,WL,B,3.0
4,4.013999938964844,learn,55986.000061035156,Wed Sep 03 2025 16:19:16 GMT-0500 (Central Daylight Time),539897.0999999046,A,skin,O,n,136,1,815.8000001907349,539081.2999997139,7212,WL,B,3.0
4,4.263000011444092,learn,55736.99998855591,Wed Sep 03 2025 16:19:16 GMT-0500 (Central Daylight Time),540145.8999996185,A,skinenter,O,enter,225,1,1064.5999999046326,539081.2999997139,7212,WL,B,3.0
4,4.546999931335449,learn,55453.00006866455,Wed Sep 03 2025 16:19:16 GMT-0500 (Central Daylight Time),540430.8999996185,A,c,O,c,268,1,284.69999980926514,540146.1999998093,7212,WL,B,4.0
4,4.61299991607666,learn,55387.00008392334,Wed Sep 03 2025 16:19:16 GMT-0500 (Central Daylight Time),540495.8999996185,A,cl,O,l,43,1,349.69999980926514,540146.1999998093,7212,WL,B,4.0
4,4.763999938964844,learn,55236.000061035156,Wed Sep 03 2025 16:19:16 GMT-0500 (Central Daylight Time),540647.2999997139,A,clo,O,o,142,1,501.09999990463257,540146.1999998093,7212,WL,B,4.0
4,4.879999876022339,learn,55120.00012397766,Wed Sep 03 2025 16:19:16 GMT-0500 (Central Daylight Time),540763.7999997139,A,cloc,O,c,101,1,617.5999999046326,540146.1999998093,7212,WL,B,4.0
4,4.996999979019165,learn,55003.000020980835,Wed Sep 03 2025 16:19:16 GMT-0500 (Central Daylight Time),540880.5999999046,A,clock,O,k,104,1,734.4000000953674,540146.1999998093,7212,WL,B,4.0
4,5.296999931335449,learn,54703.00006866455,Wed Sep 03 2025 16:19:16 GMT-0500 (Central Daylight Time),541180.3999996185,A,clockenter,O,enter,284,1,1034.1999998092651,540146.1999998093,7212,WL,B,4.0
4,6.997999906539917,learn,53002.00009346008,Wed Sep 03 2025 16:19:16 GMT-0500 (Central Daylight Time),542881.0999999046,A,p,O,p,1690,1,1700.4000000953674,541180.6999998093,7212,WL,B,5.0
4,7.11299991607666,learn,52887.00008392334,Wed Sep 03 2025 16:19:16 GMT-0500 (Central Daylight Time),542996.6999998093,A,pi,O,i,102,1,1816.0,541180.6999998093,7212,WL,B,5.0
4,7.247999906539917,learn,52752.00009346008,Wed Sep 03 2025 16:19:16 GMT-0500 (Central Daylight Time),543131.1999998093,A,pip,O,p,113,1,1950.5,541180.6999998093,7212,WL,B,5.0
4,7.363999843597412,learn,52636.00015640259,Wed Sep 03 2025 16:19:16 GMT-0500 (Central Daylight Time),543247.1999998093,A,pipe,O,e,106,1,2066.5,541180.6999998093,7212,WL,B,5.0
4,7.630999803543091,learn,52369.00019645691,Wed Sep 03 2025 16:19:16 GMT-0500 (Central Daylight Time),543514.5999999046,A,pipeenter,O,enter,263,1,2333.9000000953674,541180.6999998093,7212,WL,B,5.0
4,8.013000011444092,learn,51986.99998855591,Wed Sep 03 2025 16:19:16 GMT-0500 (Central Daylight Time),543896.0999999046,A,p,O,p,371,1,381.2000002861023,543514.8999996185,7212,WL,B,6.0
4,8.19599986076355,learn,51804.00013923645,Wed Sep 03 2025 16:19:16 GMT-0500 (Central Daylight Time),544079.0999999046,A,pu,O,u,165,1,564.2000002861023,543514.8999996185,7212,WL,B,6.0
4,8.480000019073486,learn,51519.999980926514,Wed Sep 03 2025 16:19:16 GMT-0500 (Central Daylight Time),544363.0999999046,A,pup,O,p,278,1,848.2000002861023,543514.8999996185,7212,WL,B,6.0
4,8.728999853134155,learn,51271.000146865845,Wed Sep 03 2025 16:19:16 GMT-0500 (Central Daylight Time),544612.5,A,pupi,O,i,234,1,1097.6000003814697,543514.8999996185,7212,WL,B,6.0
4,8.929999828338623,learn,51070.00017166138,Wed Sep 03 2025 16:19:16 GMT-0500 (Central Daylight Time),544813.0,A,pupil,O,l,185,1,1298.1000003814697,543514.8999996185,7212,WL,B,6.0
4,9.178999900817871,learn,50821.00009918213,Wed Sep 03 2025 16:19:16 GMT-0500 (Central Daylight Time),545062.3999996185,A,pupilenter,O,enter,232,1,1547.5,543514.8999996185,7212,WL,B,6.0
4,9.562999963760376,learn,50437.000036239624,Wed Sep 03 2025 16:19:16 GMT-0500 (Central Daylight Time),545445.8999996185,A,g,O,g,367,1,383.19999980926514,545062.6999998093,7212,WL,B,7.0
4,9.744999885559082,learn,50255.00011444092,Wed Sep 03 2025 16:19:16 GMT-0500 (Central Daylight Time),545628.7999997139,A,gr,O,r,162,1,566.0999999046326,545062.6999998093,7212,WL,B,7.0
4,10.11299991607666,learn,49887.00008392334,Wed Sep 03 2025 16:19:16 GMT-0500 (Central Daylight Time),545996.0999999046,A,gra,O,a,346,1,933.4000000953674,545062.6999998093,7212,WL,B,7.0
4,10.461999893188477,learn,49538.00010681152,Wed Sep 03 2025 16:19:16 GMT-0500 (Central Daylight Time),546345.5999999046,A,gras,O,s,337,1,1282.9000000953674,545062.6999998093,7212,WL,B,7.0
4,10.59499979019165,learn,49405.00020980835,Wed Sep 03 2025 16:19:16 GMT-0500 (Central Daylight Time),546478.5,A,grass,O,s,123,1,1415.8000001907349,545062.6999998093,7212,WL,B,7.0
4,10.894999980926514,learn,49105.000019073486,Wed Sep 03 2025 16:19:16 GMT-0500 (Central Daylight Time),546778.5999999046,A,grassenter,O,enter,280,1,1715.9000000953674,545062.6999998093,7212,WL,B,7.0
4,11.294999837875366,learn,48705.000162124634,Wed Sep 03 2025 16:19:16 GMT-0500 (Central Daylight Time),547178.3999996185,A,s,O,s,379,1,399.5,546778.8999996185,7212,WL,B,8.0
4,11.429999828338623,learn,48570.00017166138,Wed Sep 03 2025 16:19:16 GMT-0500 (Central Daylight Time),547313.0,A,st,O,t,114,1,534.1000003814697,546778.8999996185,7212,WL,B,8.0
4,11.59499979019165,learn,48405.00020980835,Wed Sep 03 2025 16:19:16 GMT-0500 (Central Daylight Time),547478.1999998093,A,str,O,r,156,1,699.3000001907349,546778.8999996185,7212,WL,B,8.0
4,11.712999820709229,learn,48287.00017929077,Wed Sep 03 2025 16:19:16 GMT-0500 (Central Daylight Time),547596.3999996185,A,stre,O,e,103,1,817.5,546778.8999996185,7212,WL,B,8.0
4,11.861999988555908,learn,48138.00001144409,Wed Sep 03 2025 16:19:16 GMT-0500 (Central Daylight Time),547744.8999996185,A,stree,O,e,129,1,966.0,546778.8999996185,7212,WL,B,8.0
4,12.16100001335144,learn,47838.99998664856,Wed Sep 03 2025 16:19:16 GMT-0500 (Central Daylight Time),548044.5999999046,A,street,O,t,285,1,1265.7000002861023,546778.8999996185,7212,WL,B,8.0
4,12.593999862670898,learn,47406.0001373291,Wed Sep 03 2025 16:19:16 GMT-0500 (Central Daylight Time),548477.7999997139,A,streetenter,O,enter,423,1,1698.9000000953674,546778.8999996185,7212,WL,B,8.0
4,12.928999900817871,learn,47071.00009918213,Wed Sep 03 2025 16:19:16 GMT-0500 (Central Daylight Time),548812.0999999046,A,a,O,a,320,1,334.0,548478.0999999046,7212,WL,B,9.0
4,13.044999837875366,learn,46955.000162124634,Wed Sep 03 2025 16:19:16 GMT-0500 (Central Daylight Time),548928.7999997139,A,ar,O,r,95,1,450.69999980926514,548478.0999999046,7212,WL,B,9.0
4,13.17799997329712,learn,46822.00002670288,Wed Sep 03 2025 16:19:16 GMT-0500 (Central Daylight Time),549061.0,A,arm,O,m,115,1,582.9000000953674,548478.0999999046,7212,WL,B,9.0
4,13.49399995803833,learn,46506.00004196167,Wed Sep 03 2025 16:19:16 GMT-0500 (Central Daylight Time),549376.7999997139,A,armenter,O,enter,303,1,898.6999998092651,548478.0999999046,7212,WL,B,9.0
4,13.962999820709229,learn,46037.00017929077,Wed Sep 03 2025 16:19:16 GMT-0500 (Central Daylight Time),549846.2999997139,A,w,O,w,464,1,469.19999980926514,549377.0999999046,7212,WL,B,10.0
4,14.110999822616577,learn,45889.00017738342,Wed Sep 03 2025 16:19:16 GMT-0500 (Central Daylight Time),549994.0,A,wi,O,i,135,1,616.9000000953674,549377.0999999046,7212,WL,B,10.0
4,14.210999965667725,learn,45789.000034332275,Wed Sep 03 2025 16:19:16 GMT-0500 (Central Daylight Time),550094.8999996185,A,wif,O,f,82,1,717.7999997138977,549377.0999999046,7212,WL,B,10.0
4,14.34499979019165,learn,45655.00020980835,Wed Sep 03 2025 16:19:16 GMT-0500 (Central Daylight Time),550228.3999996185,A,wife,O,e,111,1,851.2999997138977,549377.0999999046,7212,WL,B,10.0
4,14.495999813079834,learn,45504.000186920166,Wed Sep 03 2025 16:19:16 GMT-0500 (Central Daylight Time),550379.1999998093,A,wifeenter,O,enter,135,1,1002.0999999046326,549377.0999999046,7212,WL,B,10.0
4,15.026999950408936,learn,44973.000049591064,Wed Sep 03 2025 16:19:16 GMT-0500 (Central Daylight Time),550910.1999998093,A,w,O,w,514,1,530.6999998092651,550379.5,7212,WL,B,11.0
4,15.110999822616577,learn,44889.00017738342,Wed Sep 03 2025 16:19:16 GMT-0500 (Central Daylight Time),550994.3999996185,A,wi,O,i,70,1,614.8999996185303,550379.5,7212,WL,B,11.0
4,15.244999885559082,learn,44755.00011444092,Wed Sep 03 2025 16:19:16 GMT-0500 (Central Daylight Time),551128.5,A,win,O,n,123,1,749.0,550379.5,7212,WL,B,11.0
4,15.343999862670898,learn,44656.0001373291,Wed Sep 03 2025 16:19:16 GMT-0500 (Central Daylight Time),551227.6999998093,A,wind,O,d,86,1,848.1999998092651,550379.5,7212,WL,B,11.0
4,15.441999912261963,learn,44558.00008773804,Wed Sep 03 2025 16:19:16 GMT-0500 (Central Daylight Time),551325.0,A,windo,O,o,87,1,945.5,550379.5,7212,WL,B,11.0
4,15.592999935150146,learn,44407.00006484985,Wed Sep 03 2025 16:19:16 GMT-0500 (Central Daylight Time),551476.5,A,window,O,w,137,1,1097.0,550379.5,7212,WL,B,11.0
4,16.859999895095825,learn,43140.000104904175,Wed Sep 03 2025 16:19:16 GMT-0500 (Central Daylight Time),552743.0999999046,A,windowenter,O,enter,1254,1,2363.5999999046326,550379.5,7212,WL,B,11.0
4,17.793999910354614,learn,42206.000089645386,Wed Sep 03 2025 16:19:16 GMT-0500 (Central Daylight Time),553677.5999999046,A,c,O,c,919,1,934.3000001907349,552743.2999997139,7212,WL,B,12.0
4,17.894999980926514,learn,42105.000019073486,Wed Sep 03 2025 16:19:16 GMT-0500 (Central Daylight Time),553778.3999996185,A,ca,O,a,95,1,1035.0999999046326,552743.2999997139,7212,WL,B,12.0
4,18.025999784469604,learn,41974.000215530396,Wed Sep 03 2025 16:19:16 GMT-0500 (Central Daylight Time),553909.7999997139,A,cab,O,b,114,1,1166.5,552743.2999997139,7212,WL,B,12.0
4,18.125999927520752,learn,41874.00007247925,Wed Sep 03 2025 16:19:16 GMT-0500 (Central Daylight Time),554009.6999998093,A,cabi,O,i,79,1,1266.4000000953674,552743.2999997139,7212,WL,B,12.0
4,18.242999792099,learn,41757.000207901,Wed Sep 03 2025 16:19:16 GMT-0500 (Central Daylight Time),554126.1999998093,A,cabin,O,n,97,1,1382.9000000953674,552743.2999997139,7212,WL,B,12.0
4,18.508999824523926,learn,41491.000175476074,Wed Sep 03 2025 16:19:16 GMT-0500 (Central Daylight Time),554392.0999999046,A,cabinenter,O,enter,245,1,1648.8000001907349,552743.2999997139,7212,WL,B,12.0
4,19.05999994277954,learn,40940.00005722046,Wed Sep 03 2025 16:19:16 GMT-0500 (Central Daylight Time),554943.0999999046,A,l,O,l,543,1,550.9000000953674,554392.1999998093,7212,WL,B,13.0
4,19.143999814987183,learn,40856.00018501282,Wed Sep 03 2025 16:19:16 GMT-0500 (Central Daylight Time),555027.0999999046,A,la,O,a,80,1,634.9000000953674,554392.1999998093,7212,WL,B,13.0
4,19.275999784469604,learn,40724.000215530396,Wed Sep 03 2025 16:19:16 GMT-0500 (Central Daylight Time),555159.0999999046,A,lak,O,k,120,1,766.9000000953674,554392.1999998093,7212,WL,B,13.0
4,19.442999839782715,learn,40557.000160217285,Wed Sep 03 2025 16:19:16 GMT-0500 (Central Daylight Time),555326.0999999046,A,lake,O,e,149,1,933.9000000953674,554392.1999998093,7212,WL,B,13.0
4,19.824999809265137,learn,40175.00019073486,Wed Sep 03 2025 16:19:16 GMT-0500 (Central Daylight Time),555708.5999999046,A,lakeenter,O,enter,367,1,1316.4000000953674,554392.1999998093,7212,WL,B,13.0
4,29.389999866485596,learn,30610.000133514404,Wed Sep 03 2025 16:19:16 GMT-0500 (Central Daylight Time),565273.3999996185,A,c,O,c,9545,1,9564.599999904633,555708.7999997139,7212,WL,B,14.0
4,29.471999883651733,learn,30528.000116348267,Wed Sep 03 2025 16:19:16 GMT-0500 (Central Daylight Time),565355.2999997139,A,ci,O,i,74,1,9646.5,555708.7999997139,7212,WL,B,14.0
4,29.621999979019165,learn,30378.000020980835,Wed Sep 03 2025 16:19:16 GMT-0500 (Central Daylight Time),565505.5,A,cit,O,t,139,1,9796.700000286102,555708.7999997139,7212,WL,B,14.0
4,29.72499990463257,learn,30275.00009536743,Wed Sep 03 2025 16:19:16 GMT-0500 (Central Daylight Time),565608.3999996185,A,city,O,y,90,1,9899.599999904633,555708.7999997139,7212,WL,B,14.0
4,30.0239999294281,learn,29976.0000705719,Wed Sep 03 2025 16:19:16 GMT-0500 (Central Daylight Time),565907.0999999046,A,cityenter,O,enter,286,1,10198.300000190735,555708.7999997139,7212,WL,B,14.0
4,31.42199993133545,learn,28578.00006866455,Wed Sep 03 2025 16:19:16 GMT-0500 (Central Daylight Time),567305.3999996185,A,enter,O,enter,1379,1,1398.0999999046326,565907.2999997139,7212,WL,B,15.0
5,0.46700000762939453,learn,60000.0,Wed Sep 03 2025 16:19:16 GMT-0500 (Central Daylight Time),635598.6999998093,A,s,O,s,450,1,466.90000009536743,635131.7999997139,7212,WL,B,1.0
5,0.5669999122619629,learn,60000.0,Wed Sep 03 2025 16:19:16 GMT-0500 (Central Daylight Time),635699.0999999046,A,st,O,t,95,1,567.3000001907349,635131.7999997139,7212,WL,B,1.0
5,0.7660000324249268,learn,60000.0,Wed Sep 03 2025 16:19:16 GMT-0500 (Central Daylight Time),635898.2999997139,A,str,O,r,187,1,766.5,635131.7999997139,7212,WL,B,1.0
5,0.8329999446868896,learn,60000.0,Wed Sep 03 2025 16:19:16 GMT-0500 (Central Daylight Time),635964.7999997139,A,stre,O,e,52,1,833.0,635131.7999997139,7212,WL,B,1.0
5,0.9660000801086426,learn,60000.0,Wed Sep 03 2025 16:19:16 GMT-0500 (Central Daylight Time),636098.3999996185,A,stree,O,e,121,1,966.5999999046326,635131.7999997139,7212,WL,B,1.0
5,1.1170001029968262,learn,60000.0,Wed Sep 03 2025 16:19:16 GMT-0500 (Central Daylight Time),636248.7999997139,A,street,O,t,131,1,1117.0,635131.7999997139,7212,WL,B,1.0
5,1.316999912261963,learn,60000.0,Wed Sep 03 2025 16:19:16 GMT-0500 (Central Daylight Time),636448.8999996185,A,streetenter,O,enter,190,1,1317.0999999046326,635131.7999997139,7212,WL,B,1.0
5,2.684000015258789,learn,60000.0,Wed Sep 03 2025 16:19:16 GMT-0500 (Central Daylight Time),637816.2999997139,A,g,O,g,1356,1,1367.0999999046326,636449.1999998093,7212,WL,B,2.0
5,2.8489999771118164,learn,60000.0,Wed Sep 03 2025 16:19:16 GMT-0500 (Central Daylight Time),637980.6999998093,A,gr,O,r,147,1,1531.5,636449.1999998093,7212,WL,B,2.0
5,3.002000093460083,learn,60000.0,Wed Sep 03 2025 16:19:16 GMT-0500 (Central Daylight Time),638133.6999998093,A,gra,O,a,150,1,1684.5,636449.1999998093,7212,WL,B,2.0
5,3.1010000705718994,learn,60000.0,Wed Sep 03 2025 16:19:16 GMT-0500 (Central Daylight Time),638232.8999996185,A,gras,O,s,87,1,1783.6999998092651,636449.1999998093,7212,WL,B,2.0
5,3.316999912261963,learn,60000.0,Wed Sep 03 2025 16:19:16 GMT-0500 (Central Daylight Time),638449.5,A,grass,O,s,203,1,2000.3000001907349,636449.1999998093,7212,WL,B,2.0
5,3.5350000858306885,learn,60000.0,Wed Sep 03 2025 16:19:16 GMT-0500 (Central Daylight Time),638667.1999998093,A,grassenter,O,enter,204,1,2218.0,636449.1999998093,7212,WL,B,2.0
5,4.33299994468689,learn,60000.0,Wed Sep 03 2025 16:19:16 GMT-0500 (Central Daylight Time),639465.0999999046,A,a,O,a,778,1,797.7000002861023,638667.3999996185,7212,WL,B,3.0
5,4.41700005531311,learn,60000.0,Wed Sep 03 2025 16:19:16 GMT-0500 (Central Daylight Time),639548.7999997139,A,ar,O,r,75,1,881.4000000953674,638667.3999996185,7212,WL,B,3.0
5,4.550999879837036,learn,60000.0,Wed Sep 03 2025 16:19:16 GMT-0500 (Central Daylight Time),639683.5,A,arm,O,m,118,1,1016.1000003814697,638667.3999996185,7212,WL,B,3.0
5,5.101000070571899,learn,60000.0,Wed Sep 03 2025 16:19:16 GMT-0500 (Central Daylight Time),640232.7999997139,A,armenter,O,enter,537,1,1565.4000000953674,638667.3999996185,7212,WL,B,3.0
5,6.315999984741211,learn,60000.0,Wed Sep 03 2025 16:19:16 GMT-0500 (Central Daylight Time),641448.3999996185,A,w,O,w,1196,1,1215.3999996185303,640233.0,7212,WL,B,4.0
5,6.431999921798706,learn,60000.0,Wed Sep 03 2025 16:19:16 GMT-0500 (Central Daylight Time),641564.3999996185,A,wi,O,i,107,1,1331.3999996185303,640233.0,7212,WL,B,4.0
5,6.599999904632568,learn,60000.0,Wed Sep 03 2025 16:19:16 GMT-0500 (Central Daylight Time),641731.8999996185,A,wif,O,f,144,1,1498.8999996185303,640233.0,7212,WL,B,4.0
5,7.066999912261963,learn,60000.0,Wed Sep 03 2025 16:19:16 GMT-0500 (Central Daylight Time),642198.8999996185,A,wife,O,e,448,1,1965.8999996185303,640233.0,7212,WL,B,4.0
5,8.118000030517578,learn,60000.0,Wed Sep 03 2025 16:19:16 GMT-0500 (Central Daylight Time),643249.7999997139,A,wifeenter,O,enter,1028,1,3016.7999997138977,640233.0,7212,WL,B,4.0
5,8.615000009536743,learn,60000.0,Wed Sep 03 2025 16:19:16 GMT-0500 (Central Daylight Time),643747.5,A,d,O,d,483,1,497.40000009536743,643250.0999999046,7212,WL,B,5.0
5,8.782999992370605,learn,60000.0,Wed Sep 03 2025 16:19:16 GMT-0500 (Central Daylight Time),643915.5,A,do,O,o,146,1,665.4000000953674,643250.0999999046,7212,WL,B,5.0
5,8.88100004196167,learn,60000.0,Wed Sep 03 2025 16:19:16 GMT-0500 (Central Daylight Time),644012.8999996185,A,doo,O,o,87,1,762.7999997138977,643250.0999999046,7212,WL,B,5.0
5,9.065999984741211,learn,60000.0,Wed Sep 03 2025 16:19:16 GMT-0500 (Central Daylight Time),644198.2999997139,A,door,O,r,177,1,948.1999998092651,643250.0999999046,7212,WL,B,5.0
5,9.46399998664856,learn,60000.0,Wed Sep 03 2025 16:19:16 GMT-0500 (Central Daylight Time),644596.5,A,doorenter,O,enter,384,1,1346.4000000953674,643250.0999999046,7212,WL,B,5.0
5,10.96399998664856,learn,60000.0,Wed Sep 03 2025 16:19:16 GMT-0500 (Central Daylight Time),646096.3999996185,A,s,O,s,1488,1,1499.5999999046326,644596.7999997139,7212,WL,B,6.0
5,11.081000089645386,learn,60000.0,Wed Sep 03 2025 16:19:16 GMT-0500 (Central Daylight Time),646213.0,A,st,O,t,109,1,1616.2000002861023,644596.7999997139,7212,WL,B,6.0
5,11.214999914169312,learn,60000.0,Wed Sep 03 2025 16:19:16 GMT-0500 (Central Daylight Time),646347.1999998093,A,sta,O,a,129,1,1750.4000000953674,644596.7999997139,7212,WL,B,6.0
5,11.313999891281128,learn,60000.0,Wed Sep 03 2025 16:19:16 GMT-0500 (Central Daylight Time),646445.7999997139,A,star,O,r,82,1,1849.0,644596.7999997139,7212,WL,B,6.0
5,11.980999946594238,learn,60000.0,Wed Sep 03 2025 16:19:16 GMT-0500 (Central Daylight Time),647112.6999998093,A,starenter,O,enter,649,1,2515.9000000953674,644596.7999997139,7212,WL,B,6.0
5,12.914000034332275,learn,60000.0,Wed Sep 03 2025 16:19:16 GMT-0500 (Central Daylight Time),648046.0999999046,A,p,O,p,915,1,933.0999999046326,647113.0,7212,WL,B,7.0
5,13.032000064849854,learn,60000.0,Wed Sep 03 2025 16:19:16 GMT-0500 (Central Daylight Time),648163.8999996185,A,pu,O,u,113,1,1050.8999996185303,647113.0,7212,WL,B,7.0
5,13.230999946594238,learn,60000.0,Wed Sep 03 2025 16:19:16 GMT-0500 (Central Daylight Time),648363.5999999046,A,pui,O,i,181,1,1250.5999999046326,647113.0,7212,WL,B,7.0
5,14.331000089645386,learn,60000.0,Wed Sep 03 2025 16:19:16 GMT-0500 (Central Daylight Time),649462.6999998093,A,pu,O,backspace,1081,1,2349.699999809265,647113.0,7212,WL,B,7.0
5,14.713000059127808,learn,60000.0,Wed Sep 03 2025 16:19:16 GMT-0500 (Central Daylight Time),649845.1999998093,A,pup,O,p,376,1,2732.199999809265,647113.0,7212,WL,B,7.0
5,15.52999997138977,learn,60000.0,Wed Sep 03 2025 16:19:16 GMT-0500 (Central Daylight Time),650663.0999999046,A,pupi,O,i,806,1,3550.0999999046326,647113.0,7212,WL,B,7.0
5,15.746000051498413,learn,60000.0,Wed Sep 03 2025 16:19:16 GMT-0500 (Central Daylight Time),650879.0,A,pupil,O,l,198,1,3766.0,647113.0,7212,WL,B,7.0
5,16.128999948501587,learn,60000.0,Wed Sep 03 2025 16:19:16 GMT-0500 (Central Daylight Time),651261.5999999046,A,pupilenter,O,enter,365,1,4148.599999904633,647113.0,7212,WL,B,7.0
5,17.961999893188477,learn,60000.0,Wed Sep 03 2025 16:19:16 GMT-0500 (Central Daylight Time),653094.8999996185,A,w,O,w,1814,1,1833.0,651261.8999996185,7212,WL,B,8.0
5,18.061000108718872,learn,60000.0,Wed Sep 03 2025 16:19:16 GMT-0500 (Central Daylight Time),653194.3999996185,A,wi,O,i,85,1,1932.5,651261.8999996185,7212,WL,B,8.0
5,18.194999933242798,learn,60000.0,Wed Sep 03 2025 16:19:16 GMT-0500 (Central Daylight Time),653328.0,A,win,O,n,114,1,2066.1000003814697,651261.8999996185,7212,WL,B,8.0
5,18.26200008392334,learn,60000.0,Wed Sep 03 2025 16:19:16 GMT-0500 (Central Daylight Time),653394.3999996185,A,wind,O,d,60,1,2132.5,651261.8999996185,7212,WL,B,8.0
5,18.394999980926514,learn,60000.0,Wed Sep 03 2025 16:19:16 GMT-0500 (Central Daylight Time),653527.6999998093,A,windo,O,o,121,1,2265.800000190735,651261.8999996185,7212,WL,B,8.0
5,18.61299991607666,learn,60000.0,Wed Sep 03 2025 16:19:16 GMT-0500 (Central Daylight Time),653746.0999999046,A,window,O,w,197,1,2484.2000002861023,651261.8999996185,7212,WL,B,8.0
5,18.895999908447266,learn,60000.0,Wed Sep 03 2025 16:19:16 GMT-0500 (Central Daylight Time),654028.5999999046,A,windowenter,O,enter,266,1,2766.7000002861023,651261.8999996185,7212,WL,B,8.0
5,19.344000101089478,learn,60000.0,Wed Sep 03 2025 16:19:16 GMT-0500 (Central Daylight Time),654477.0999999046,A,s,O,s,432,1,448.2000002861023,654028.8999996185,7212,WL,B,9.0
5,19.461999893188477,learn,60000.0,Wed Sep 03 2025 16:19:16 GMT-0500 (Central Daylight Time),654594.5999999046,A,st,O,t,103,1,565.7000002861023,654028.8999996185,7212,WL,B,9.0
5,19.509999990463257,learn,60000.0,Wed Sep 03 2025 16:19:16 GMT-0500 (Central Daylight Time),654642.6999998093,A,sti,O,i,32,1,613.8000001907349,654028.8999996185,7212,WL,B,9.0
5,19.67799997329712,learn,60000.0,Wed Sep 03 2025 16:19:16 GMT-0500 (Central Daylight Time),654810.6999998093,A,stiy,O,y,156,1,781.8000001907349,654028.8999996185,7212,WL,B,9.0
5,20.045000076293945,learn,60000.0,Wed Sep 03 2025 16:19:16 GMT-0500 (Central Daylight Time),655177.7999997139,A,stiyenter,O,enter,348,1,1148.9000000953674,654028.8999996185,7212,WL,B,9.0
5,21.14400005340576,learn,60000.0,Wed Sep 03 2025 16:19:16 GMT-0500 (Central Daylight Time),656277.3999996185,A,c,O,c,1085,1,1099.3999996185303,655178.0,7212,WL,B,10.0
5,21.19600009918213,learn,60000.0,Wed Sep 03 2025 16:19:16 GMT-0500 (Central Daylight Time),656328.6999998093,A,ci,O,i,37,1,1150.6999998092651,655178.0,7212,WL,B,10.0
5,21.377000093460083,learn,60000.0,Wed Sep 03 2025 16:19:16 GMT-0500 (Central Daylight Time),656509.3999996185,A,cit,O,t,175,1,1331.3999996185303,655178.0,7212,WL,B,10.0
5,21.49399995803833,learn,60000.0,Wed Sep 03 2025 16:19:16 GMT-0500 (Central Daylight Time),656626.8999996185,A,city,O,y,102,1,1448.8999996185303,655178.0,7212,WL,B,10.0
5,21.944999933242798,learn,60000.0,Wed Sep 03 2025 16:19:16 GMT-0500 (Central Daylight Time),657077.5999999046,A,cityenter,O,enter,427,1,1899.5999999046326,655178.0,7212,WL,B,10.0
5,28.29200005531311,learn,60000.0,Wed Sep 03 2025 16:19:16 GMT-0500 (Central Daylight Time),663424.7999997139,A,c,O,c,6336,1,6346.900000095367,657077.8999996185,7212,WL,B,11.0
5,28.441999912261963,learn,60000.0,Wed Sep 03 2025 16:19:16 GMT-0500 (Central Daylight Time),663575.1999998093,A,ca,O,a,141,1,6497.300000190735,657077.8999996185,7212,WL,B,11.0
5,28.592000007629395,learn,60000.0,Wed Sep 03 2025 16:19:16 GMT-0500 (Central Daylight Time),663724.6999998093,A,cab,O,b,132,1,6646.800000190735,657077.8999996185,7212,WL,B,11.0
5,28.69099998474121,learn,60000.0,Wed Sep 03 2025 16:19:16 GMT-0500 (Central Daylight Time),663824.3999996185,A,cabi,O,i,87,1,6746.5,657077.8999996185,7212,WL,B,11.0
5,28.80900001525879,learn,60000.0,Wed Sep 03 2025 16:19:16 GMT-0500 (Central Daylight Time),663941.3999996185,A,cabin,O,n,108,1,6863.5,657077.8999996185,7212,WL,B,11.0
5,29.08999991416931,learn,60000.0,Wed Sep 03 2025 16:19:16 GMT-0500 (Central Daylight Time),664223.0999999046,A,cabinenter,O,enter,269,1,7145.200000286102,657077.8999996185,7212,WL,B,11.0
5,29.424999952316284,learn,60000.0,Wed Sep 03 2025 16:19:16 GMT-0500 (Central Daylight Time),664558.2999997139,A,l,O,l,314,1,334.90000009536743,664223.3999996185,7212,WL,B,12.0
5,29.507999897003174,learn,60000.0,Wed Sep 03 2025 16:19:16 GMT-0500 (Central Daylight Time),664641.1999998093,A,la,O,a,70,1,417.80000019073486,664223.3999996185,7212,WL,B,12.0
5,29.64199995994568,learn,60000.0,Wed Sep 03 2025 16:19:16 GMT-0500 (Central Daylight Time),664774.5999999046,A,lak,O,k,115,1,551.2000002861023,664223.3999996185,7212,WL,B,12.0
5,29.808000087738037,learn,60000.0,Wed Sep 03 2025 16:19:16 GMT-0500 (Central Daylight Time),664941.0999999046,A,lake,O,e,158,1,717.7000002861023,664223.3999996185,7212,WL,B,12.0
5,30.007999897003174,learn,60000.0,Wed Sep 03 2025 16:19:16 GMT-0500 (Central Daylight Time),665140.8999996185,A,lakeenter,O,enter,192,1,917.5,664223.3999996185,7212,WL,B,12.0
5,30.256999969482422,learn,60000.0,Wed Sep 03 2025 16:19:16 GMT-0500 (Central Daylight Time),665389.5999999046,A,s,O,s,240,1,248.40000009536743,665141.1999998093,7212,WL,B,13.0
5,30.374000072479248,learn,60000.0,Wed Sep 03 2025 16:19:16 GMT-0500 (Central Daylight Time),665507.0,A,sk,O,k,99,1,365.80000019073486,665141.1999998093,7212,WL,B,13.0
5,30.507999897003174,learn,60000.0,Wed Sep 03 2025 16:19:16 GMT-0500 (Central Daylight Time),665641.0,A,ski,O,i,121,1,499.80000019073486,665141.1999998093,7212,WL,B,13.0
5,30.624000072479248,learn,60000.0,Wed Sep 03 2025 16:19:16 GMT-0500 (Central Daylight Time),665757.3999996185,A,skin,O,n,108,1,616.1999998092651,665141.1999998093,7212,WL,B,13.0
5,31.04200005531311,learn,60000.0,Wed Sep 03 2025 16:19:16 GMT-0500 (Central Daylight Time),666174.5999999046,A,skinenter,O,enter,407,1,1033.4000000953674,665141.1999998093,7212,WL,B,13.0
5,31.95900011062622,learn,60000.0,Wed Sep 03 2025 16:19:16 GMT-0500 (Central Daylight Time),667091.5,A,f,O,f,896,1,916.7000002861023,666174.7999997139,7212,WL,B,14.0
5,32.03999996185303,learn,60000.0,Wed Sep 03 2025 16:19:16 GMT-0500 (Central Daylight Time),667173.2999997139,A,fi,O,i,73,1,998.5,666174.7999997139,7212,WL,B,14.0
5,32.138999938964844,learn,60000.0,Wed Sep 03 2025 16:19:16 GMT-0500 (Central Daylight Time),667272.0999999046,A,fir,O,r,77,1,1097.3000001907349,666174.7999997139,7212,WL,B,14.0
5,32.2260000705719,learn,60000.0,Wed Sep 03 2025 16:19:16 GMT-0500 (Central Daylight Time),667358.5,A,fire,O,e,79,1,1183.7000002861023,666174.7999997139,7212,WL,B,14.0
5,32.42300009727478,learn,60000.0,Wed Sep 03 2025 16:19:16 GMT-0500 (Central Daylight Time),667556.0999999046,A,fireenter,O,enter,175,1,1381.3000001907349,666174.7999997139,7212,WL,B,14.0
5,33.289000034332275,learn,60000.0,Wed Sep 03 2025 16:19:16 GMT-0500 (Central Daylight Time),668422.1999998093,A,c,O,c,849,1,865.8000001907349,667556.3999996185,7212,WL,B,15.0
5,33.33899998664856,learn,60000.0,Wed Sep 03 2025 16:19:16 GMT-0500 (Central Daylight Time),668471.7999997139,A,cl,O,l,40,1,915.4000000953674,667556.3999996185,7212,WL,B,15.0
5,33.50699996948242,learn,60000.0,Wed Sep 03 2025 16:19:16 GMT-0500 (Central Daylight Time),668639.8999996185,A,clo,O,o,157,1,1083.5,667556.3999996185,7212,WL,B,15.0
5,33.640000104904175,learn,60000.0,Wed Sep 03 2025 16:19:16 GMT-0500 (Central Daylight Time),668772.3999996185,A,cloc,O,c,116,1,1216.0,667556.3999996185,7212,WL,B,15.0
5,33.75699996948242,learn,60000.0,Wed Sep 03 2025 16:19:16 GMT-0500 (Central Daylight Time),668890.0,A,clock,O,k,106,1,1333.6000003814697,667556.3999996185,7212,WL,B,15.0
5,34.65700006484985,learn,60000.0,Wed Sep 03 2025 16:19:16 GMT-0500 (Central Daylight Time),669789.5999999046,A,clockenter,O,enter,891,1,2233.2000002861023,667556.3999996185,7212,WL,B,15.0
6,0.7669999599456787,distr,59233.00004005432,Wed Sep 03 2025 16:19:16 GMT-0500 (Central Daylight Time),755495.5,B,s,O,s,748,1,766.6000003814697,754728.8999996185,7212,WL,B,1.0
6,0.8989999294281006,distr,59101.0000705719,Wed Sep 03 2025 16:19:16 GMT-0500 (Central Daylight Time),755627.7999997139,B,st,O,t,123,1,898.9000000953674,754728.8999996185,7212,WL,B,1.0
6,1.0339999198913574,distr,58966.00008010864,Wed Sep 03 2025 16:19:16 GMT-0500 (Central Daylight Time),755762.2999997139,B,sto,O,o,119,1,1033.4000000953674,754728.8999996185,7212,WL,B,1.0
6,1.1329998970031738,distr,58867.000102996826,Wed Sep 03 2025 16:19:16 GMT-0500 (Central Daylight Time),755862.1999998093,B,stor,O,r,85,1,1133.3000001907349,754728.8999996185,7212,WL,B,1.0
6,1.2839999198913574,distr,58716.00008010864,Wed Sep 03 2025 16:19:16 GMT-0500 (Central Daylight Time),756012.5,B,storm,O,m,144,1,1283.6000003814697,754728.8999996185,7212,WL,B,1.0
6,1.6340000629425049,distr,58365.999937057495,Wed Sep 03 2025 16:19:16 GMT-0500 (Central Daylight Time),756362.3999996185,B,stormenter,O,enter,328,1,1633.5,754728.8999996185,7212,WL,B,1.0
6,1.9179999828338623,distr,58082.00001716614,Wed Sep 03 2025 16:19:16 GMT-0500 (Central Daylight Time),756646.2999997139,B,v,O,v,281,1,283.7999997138977,756362.5,7212,WL,B,2.0
6,2.049999952316284,distr,57950.000047683716,Wed Sep 03 2025 16:19:16 GMT-0500 (Central Daylight Time),756778.6999998093,B,vi,O,i,109,1,416.19999980926514,756362.5,7212,WL,B,2.0
6,2.2330000400543213,distr,57766.99995994568,Wed Sep 03 2025 16:19:16 GMT-0500 (Central Daylight Time),756962.0999999046,B,vil,O,l,173,1,599.5999999046326,756362.5,7212,WL,B,2.0
6,2.3489999771118164,distr,57651.00002288818,Wed Sep 03 2025 16:19:16 GMT-0500 (Central Daylight Time),757078.0999999046,B,vill,O,l,106,1,715.5999999046326,756362.5,7212,WL,B,2.0
6,2.434000015258789,distr,57565.99998474121,Wed Sep 03 2025 16:19:16 GMT-0500 (Central Daylight Time),757162.8999996185,B,villa,O,a,78,1,800.3999996185303,756362.5,7212,WL,B,2.0
6,2.547999858856201,distr,57452.0001411438,Wed Sep 03 2025 16:19:16 GMT-0500 (Central Daylight Time),757277.0999999046,B,villag,O,g,105,1,914.5999999046326,756362.5,7212,WL,B,2.0
6,2.682999849319458,distr,57317.00015068054,Wed Sep 03 2025 16:19:16 GMT-0500 (Central Daylight Time),757411.5,B,village,O,e,121,1,1049.0,756362.5,7212,WL,B,2.0
6,2.931999921798706,distr,57068.000078201294,Wed Sep 03 2025 16:19:16 GMT-0500 (Central Daylight Time),757660.5,B,villageenter,O,enter,243,1,1298.0,756362.5,7212,WL,B,2.0
6,3.1499998569488525,distr,56850.00014305115,Wed Sep 03 2025 16:19:16 GMT-0500 (Central Daylight Time),757878.5999999046,B,c,O,c,208,1,217.90000009536743,757660.6999998093,7212,WL,B,3.0
6,3.385999917984009,distr,56614.00008201599,Wed Sep 03 2025 16:19:16 GMT-0500 (Central Daylight Time),758114.3999996185,B,ce,O,e,212,1,453.69999980926514,757660.6999998093,7212,WL,B,3.0
6,3.5149998664855957,distr,56485.000133514404,Wed Sep 03 2025 16:19:16 GMT-0500 (Central Daylight Time),758243.7999997139,B,cel,O,l,122,1,583.0999999046326,757660.6999998093,7212,WL,B,3.0
6,3.6499998569488525,distr,56350.00014305115,Wed Sep 03 2025 16:19:16 GMT-0500 (Central Daylight Time),758378.5,B,cell,O,l,111,1,717.8000001907349,757660.6999998093,7212,WL,B,3.0
6,3.8999998569488525,distr,56100.00014305115,Wed Sep 03 2025 16:19:16 GMT-0500 (Central Daylight Time),758629.0,B,cellenter,O,enter,230,1,968.3000001907349,757660.6999998093,7212,WL,B,3.0
6,4.401000022888184,distr,55598.99997711182,Wed Sep 03 2025 16:19:16 GMT-0500 (Central Daylight Time),759129.1999998093,B,b,O,b,479,1,499.90000009536743,758629.2999997139,7212,WL,B,4.0
6,4.466000080108643,distr,55533.99991989136,Wed Sep 03 2025 16:19:16 GMT-0500 (Central Daylight Time),759194.5,B,ba,O,a,59,1,565.2000002861023,758629.2999997139,7212,WL,B,4.0
6,4.580999851226807,distr,55419.00014877319,Wed Sep 03 2025 16:19:16 GMT-0500 (Central Daylight Time),759309.8999996185,B,bab,O,b,97,1,680.5999999046326,758629.2999997139,7212,WL,B,4.0
6,4.747999906539917,distr,55252.00009346008,Wed Sep 03 2025 16:19:16 GMT-0500 (Central Daylight Time),759477.0,B,baby,O,y,153,1,847.7000002861023,758629.2999997139,7212,WL,B,4.0
6,5.13100004196167,distr,54868.99995803833,Wed Sep 03 2025 16:19:16 GMT-0500 (Central Daylight Time),759860.0,B,babyenter,O,enter,377,1,1230.7000002861023,758629.2999997139,7212,WL,B,4.0
6,5.5309998989105225,distr,54469.00010108948,Wed Sep 03 2025 16:19:16 GMT-0500 (Central Daylight Time),760259.6999998093,B,p,O,p,384,1,399.5,759860.1999998093,7212,WL,B,5.0
6,5.648999929428101,distr,54351.0000705719,Wed Sep 03 2025 16:19:16 GMT-0500 (Central Daylight Time),760377.6999998093,B,pa,O,a,94,1,517.5,759860.1999998093,7212,WL,B,5.0
6,5.797999858856201,distr,54202.0001411438,Wed Sep 03 2025 16:19:16 GMT-0500 (Central Daylight Time),760526.8999996185,B,pal,O,l,136,1,666.6999998092651,759860.1999998093,7212,WL,B,5.0
6,5.865999937057495,distr,54134.000062942505,Wed Sep 03 2025 16:19:16 GMT-0500 (Central Daylight Time),760594.7999997139,B,pala,O,a,59,1,734.5999999046326,759860.1999998093,7212,WL,B,5.0
6,6.049000024795532,distr,53950.99997520447,Wed Sep 03 2025 16:19:16 GMT-0500 (Central Daylight Time),760777.5999999046,B,palac,O,c,169,1,917.4000000953674,759860.1999998093,7212,WL,B,5.0
6,6.315000057220459,distr,53684.99994277954,Wed Sep 03 2025 16:19:16 GMT-0500 (Central Daylight Time),761043.6999998093,B,palace,O,e,248,1,1183.5,759860.1999998093,7212,WL,B,5.0
6,6.563999891281128,distr,53436.00010871887,Wed Sep 03 2025 16:19:16 GMT-0500 (Central Daylight Time),761292.7999997139,B,palaceenter,O,enter,230,1,1432.5999999046326,759860.1999998093,7212,WL,B,5.0
6,7.099999904632568,distr,52900.00009536743,Wed Sep 03 2025 16:19:16 GMT-0500 (Central Daylight Time),761828.1999998093,B,b,O,b,530,1,535.0999999046326,761293.0999999046,7212,WL,B,6.0
6,7.21399998664856,distr,52786.00001335144,Wed Sep 03 2025 16:19:16 GMT-0500 (Central Daylight Time),761943.0999999046,B,bu,O,u,103,1,650.0,761293.0999999046,7212,WL,B,6.0
6,7.299000024795532,distr,52700.99997520447,Wed Sep 03 2025 16:19:16 GMT-0500 (Central Daylight Time),762027.5999999046,B,bui,O,i,78,1,734.5,761293.0999999046,7212,WL,B,6.0
6,7.48199987411499,distr,52518.00012588501,Wed Sep 03 2025 16:19:16 GMT-0500 (Central Daylight Time),762210.3999996185,B,buil,O,l,171,1,917.2999997138977,761293.0999999046,7212,WL,B,6.0
6,7.61899995803833,distr,52381.00004196167,Wed Sep 03 2025 16:19:16 GMT-0500 (Central Daylight Time),762347.3999996185,B,build,O,d,129,1,1054.2999997138977,761293.0999999046,7212,WL,B,6.0
6,7.697999954223633,distr,52302.00004577637,Wed Sep 03 2025 16:19:16 GMT-0500 (Central Daylight Time),762426.6999998093,B,buildi,O,i,66,1,1133.5999999046326,761293.0999999046,7212,WL,B,6.0
6,7.8480000495910645,distr,52151.999950408936,Wed Sep 03 2025 16:19:16 GMT-0500 (Central Daylight Time),762577.0,B,buildij,O,j,128,1,1283.9000000953674,761293.0999999046,7212,WL,B,6.0
6,7.9649999141693115,distr,52035.00008583069,Wed Sep 03 2025 16:19:16 GMT-0500 (Central Daylight Time),762693.2999997139,B,buildijg,O,g,97,1,1400.1999998092651,761293.0999999046,7212,WL,B,6.0
6,8.398000001907349,distr,51601.99999809265,Wed Sep 03 2025 16:19:16 GMT-0500 (Central Daylight Time),763126.2999997139,B,buildij,O,backspace,414,1,1833.1999998092651,761293.0999999046,7212,WL,B,6.0
6,8.532000064849854,distr,51467.99993515015,Wed Sep 03 2025 16:19:16 GMT-0500 (Central Daylight Time),763260.5999999046,B,buildi,O,backspace,127,1,1967.5,761293.0999999046,7212,WL,B,6.0
6,9.047999858856201,distr,50952.0001411438,Wed Sep 03 2025 16:19:16 GMT-0500 (Central Daylight Time),763777.0,B,buildin,O,n,495,1,2483.9000000953674,761293.0999999046,7212,WL,B,6.0
6,9.19700002670288,distr,50802.99997329712,Wed Sep 03 2025 16:19:16 GMT-0500 (Central Daylight Time),763926.0,B,building,O,g,131,1,2632.9000000953674,761293.0999999046,7212,WL,B,6.0
6,9.398000001907349,distr,50601.99999809265,Wed Sep 03 2025 16:19:16 GMT-0500 (Central Daylight Time),764126.2999997139,B,buildingenter,O,enter,189,1,2833.199999809265,761293.0999999046,7212,WL,B,6.0
6,10.997999906539917,distr,49002.00009346008,Wed Sep 03 2025 16:19:16 GMT-0500 (Central Daylight Time),765726.2999997139,B,l,O,l,1578,1,1599.7999997138977,764126.5,7212,WL,B,7.0
6,11.078999996185303,distr,48921.0000038147,Wed Sep 03 2025 16:19:16 GMT-0500 (Central Daylight Time),765807.7999997139,B,li,O,i,70,1,1681.2999997138977,764126.5,7212,WL,B,7.0
6,11.230000019073486,distr,48769.999980926514,Wed Sep 03 2025 16:19:16 GMT-0500 (Central Daylight Time),765958.7999997139,B,lip,O,p,140,1,1832.2999997138977,764126.5,7212,WL,B,7.0
6,11.713000059127808,distr,48286.99994087219,Wed Sep 03 2025 16:19:16 GMT-0500 (Central Daylight Time),766441.2999997139,B,lipenter,O,enter,476,1,2314.7999997138977,764126.5,7212,WL,B,7.0
6,12.02999997138977,distr,47970.00002861023,Wed Sep 03 2025 16:19:16 GMT-0500 (Central Daylight Time),766758.6999998093,B,b,O,b,314,1,317.19999980926514,766441.5,7212,WL,B,8.0
6,12.19599986076355,distr,47804.00013923645,Wed Sep 03 2025 16:19:16 GMT-0500 (Central Daylight Time),766924.8999996185,B,ba,O,a,159,1,483.3999996185303,766441.5,7212,WL,B,8.0
6,12.297999858856201,distr,47702.0001411438,Wed Sep 03 2025 16:19:16 GMT-0500 (Central Daylight Time),767027.0999999046,B,bar,O,r,75,1,585.5999999046326,766441.5,7212,WL,B,8.0
6,12.878000020980835,distr,47121.999979019165,Wed Sep 03 2025 16:19:16 GMT-0500 (Central Daylight Time),767606.6999998093,B,barenter,O,enter,561,1,1165.1999998092651,766441.5,7212,WL,B,8.0
6,18.310999870300293,distr,41689.00012969971,Wed Sep 03 2025 16:19:16 GMT-0500 (Central Daylight Time),773039.8999996185,B,r,O,r,5424,1,5432.89999961853,767607.0,7212,WL,B,9.0
6,18.425999879837036,distr,41574.000120162964,Wed Sep 03 2025 16:19:16 GMT-0500 (Central Daylight Time),773154.8999996185,B,ro,O,o,107,1,5547.89999961853,767607.0,7212,WL,B,9.0
6,18.5939998626709,distr,41406.0001373291,Wed Sep 03 2025 16:19:16 GMT-0500 (Central Daylight Time),773323.8999996185,B,roc,O,c,155,1,5716.89999961853,767607.0,7212,WL,B,9.0
6,18.710999965667725,distr,41289.000034332275,Wed Sep 03 2025 16:19:16 GMT-0500 (Central Daylight Time),773440.1999998093,B,rock,O,k,97,1,5833.199999809265,767607.0,7212,WL,B,9.0
6,18.977999925613403,distr,41022.0000743866,Wed Sep 03 2025 16:19:16 GMT-0500 (Central Daylight Time),773707.0,B,rockenter,O,enter,261,1,6100.0,767607.0,7212,WL,B,9.0
6,28.490000009536743,distr,31509.999990463257,Wed Sep 03 2025 16:19:16 GMT-0500 (Central Daylight Time),783219.3999996185,B,o,O,o,9507,1,9512.099999904633,773707.2999997139,7212,WL,B,10.0
6,28.757999897003174,distr,31242.000102996826,Wed Sep 03 2025 16:19:16 GMT-0500 (Central Daylight Time),783487.0999999046,B,oc,O,c,245,1,9779.800000190735,773707.2999997139,7212,WL,B,10.0
6,28.94000005722046,distr,31059.99994277954,Wed Sep 03 2025 16:19:16 GMT-0500 (Central Daylight Time),783669.2999997139,B,oce,O,e,171,1,9962.0,773707.2999997139,7212,WL,B,10.0
6,29.056999921798706,distr,30943.000078201294,Wed Sep 03 2025 16:19:16 GMT-0500 (Central Daylight Time),783786.1999998093,B,ocea,O,a,109,1,10078.900000095367,773707.2999997139,7212,WL,B,10.0
6,29.20799994468689,distr,30792.00005531311,Wed Sep 03 2025 16:19:16 GMT-0500 (Central Daylight Time),783936.8999996185,B,ocean,O,n,141,1,10229.599999904633,773707.2999997139,7212,WL,B,10.0
6,29.60599994659424,distr,30394.00005340576,Wed Sep 03 2025 16:19:16 GMT-0500 (Central Daylight Time),784335.7999997139,B,oceanenter,O,enter,379,1,10628.5,773707.2999997139,7212,WL,B,10.0
6,39.10199999809265,distr,20898.00000190735,Wed Sep 03 2025 16:19:16 GMT-0500 (Central Daylight Time),793831.6999998093,B,enter,O,enter,9476,1,9495.699999809265,784336.0,7212,WL,B,11.0
6,39.335999965667725,distr,20664.000034332275,Wed Sep 03 2025 16:19:16 GMT-0500 (Central Daylight Time),794064.8999996185,B,enter,O,enter,222,1,233.0,793831.8999996185,7212,WL,B,12.0
6,39.61999988555908,distr,20380.000114440918,Wed Sep 03 2025 16:19:16 GMT-0500 (Central Daylight Time),794349.5,B,enter,O,enter,263,1,284.2000002861023,794065.2999997139,7212,WL,B,13.0
6,39.98699998855591,distr,20013.00001144409,Wed Sep 03 2025 16:19:16 GMT-0500 (Central Daylight Time),794716.5,B,enter,O,enter,353,1,366.80000019073486,794349.6999998093,7212,WL,B,14.0
6,40.47000002861023,distr,19529.99997138977,Wed Sep 03 2025 16:19:16 GMT-0500 (Central Daylight Time),795199.6999998093,B,enter,O,enter,474,1,482.90000009536743,794716.7999997139,7212,WL,B,15.0
7,0.5320000648498535,immed,59467.99993515015,Wed Sep 03 2025 16:19:16 GMT-0500 (Central Daylight Time),815242.7999997139,A,s,O,s,519,1,532.2999997138977,814710.5,7212,WL,B,1.0
7,0.7660000324249268,immed,59233.99996757507,Wed Sep 03 2025 16:19:16 GMT-0500 (Central Daylight Time),815476.1999998093,A,st,O,t,218,1,765.6999998092651,814710.5,7212,WL,B,1.0
7,0.9820001125335693,immed,59017.99988746643,Wed Sep 03 2025 16:19:16 GMT-0500 (Central Daylight Time),815692.5,A,str,O,r,202,1,982.0,814710.5,7212,WL,B,1.0
7,1.0329999923706055,immed,58967.000007629395,Wed Sep 03 2025 16:19:16 GMT-0500 (Central Daylight Time),815742.7999997139,A,stre,O,e,38,1,1032.2999997138977,814710.5,7212,WL,B,1.0
7,1.1670000553131104,immed,58832.99994468689,Wed Sep 03 2025 16:19:16 GMT-0500 (Central Daylight Time),815877.0999999046,A,stree,O,e,112,1,1166.5999999046326,814710.5,7212,WL,B,1.0
7,1.3650000095367432,immed,58634.99999046326,Wed Sep 03 2025 16:19:16 GMT-0500 (Central Daylight Time),816075.1999998093,A,street,O,t,182,1,1364.6999998092651,814710.5,7212,WL,B,1.0
7,1.5150001049041748,immed,58484.999895095825,Wed Sep 03 2025 16:19:16 GMT-0500 (Central Daylight Time),816225.5999999046,A,streetenter,O,enter,134,1,1515.0999999046326,814710.5,7212,WL,B,1.0
7,2.181999921798706,immed,57818.000078201294,Wed Sep 03 2025 16:19:16 GMT-0500 (Central Daylight Time),816892.0999999046,A,g,O,g,653,1,666.2000002861023,816225.8999996185,7212,WL,B,2.0
7,2.38100004196167,immed,57618.99995803833,Wed Sep 03 2025 16:19:16 GMT-0500 (Central Daylight Time),817091.7999997139,A,gr,O,r,182,1,865.9000000953674,816225.8999996185,7212,WL,B,2.0
7,2.5339999198913574,immed,57466.00008010864,Wed Sep 03 2025 16:19:16 GMT-0500 (Central Daylight Time),817244.0999999046,A,gra,O,a,133,1,1018.2000002861023,816225.8999996185,7212,WL,B,2.0
7,2.6470000743865967,immed,57352.9999256134,Wed Sep 03 2025 16:19:16 GMT-0500 (Central Daylight Time),817357.2999997139,A,gras,O,s,95,1,1131.4000000953674,816225.8999996185,7212,WL,B,2.0
7,2.8480000495910645,immed,57151.999950408936,Wed Sep 03 2025 16:19:16 GMT-0500 (Central Daylight Time),817558.1999998093,A,grass,O,s,191,1,1332.3000001907349,816225.8999996185,7212,WL,B,2.0
7,3.114000082015991,immed,56885.99991798401,Wed Sep 03 2025 16:19:16 GMT-0500 (Central Daylight Time),817823.8999996185,A,grassenter,O,enter,252,1,1598.0,816225.8999996185,7212,WL,B,2.0
7,4.098999977111816,immed,55901.00002288818,Wed Sep 03 2025 16:19:16 GMT-0500 (Central Daylight Time),818809.0,A,a,O,a,974,1,984.8000001907349,817824.1999998093,7212,WL,B,3.0
7,4.197000026702881,immed,55802.99997329712,Wed Sep 03 2025 16:19:16 GMT-0500 (Central Daylight Time),818907.3999996185,A,ar,O,r,85,1,1083.1999998092651,817824.1999998093,7212,WL,B,3.0
7,4.38100004196167,immed,55618.99995803833,Wed Sep 03 2025 16:19:16 GMT-0500 (Central Daylight Time),819091.0999999046,A,arm,O,m,165,1,1266.9000000953674,817824.1999998093,7212,WL,B,3.0
7,5.864000082015991,immed,54135.99991798401,Wed Sep 03 2025 16:19:16 GMT-0500 (Central Daylight Time),820574.5,A,armenter,O,enter,1476,1,2750.300000190735,817824.1999998093,7212,WL,B,3.0
7,6.480999946594238,immed,53519.00005340576,Wed Sep 03 2025 16:19:16 GMT-0500 (Central Daylight Time),821191.8999996185,A,w,O,w,599,1,617.1999998092651,820574.6999998093,7212,WL,B,4.0
7,6.614000082015991,immed,53385.99991798401,Wed Sep 03 2025 16:19:16 GMT-0500 (Central Daylight Time),821324.0,A,wi,O,i,108,1,749.3000001907349,820574.6999998093,7212,WL,B,4.0
7,6.7149999141693115,immed,53285.00008583069,Wed Sep 03 2025 16:19:16 GMT-0500 (Central Daylight Time),821425.3999996185,A,wif,O,f,77,1,850.6999998092651,820574.6999998093,7212,WL,B,4.0
7,6.829999923706055,immed,53170.000076293945,Wed Sep 03 2025 16:19:16 GMT-0500 (Central Daylight Time),821540.3999996185,A,wife,O,e,99,1,965.6999998092651,820574.6999998093,7212,WL,B,4.0
7,7.131999969482422,immed,52868.00003051758,Wed Sep 03 2025 16:19:16 GMT-0500 (Central Daylight Time),821842.6999998093,A,wifeenter,O,enter,294,1,1268.0,820574.6999998093,7212,WL,B,4.0
7,7.63100004196167,immed,52368.99995803833,Wed Sep 03 2025 16:19:16 GMT-0500 (Central Daylight Time),822341.0,A,s,O,s,483,1,498.0,821843.0,7212,WL,B,5.0
7,7.730000019073486,immed,52269.999980926514,Wed Sep 03 2025 16:19:16 GMT-0500 (Central Daylight Time),822440.5,A,st,O,t,86,1,597.5,821843.0,7212,WL,B,5.0
7,7.864000082015991,immed,52135.99991798401,Wed Sep 03 2025 16:19:16 GMT-0500 (Central Daylight Time),822574.0999999046,A,sta,O,a,116,1,731.0999999046326,821843.0,7212,WL,B,5.0
7,7.966000080108643,immed,52033.99991989136,Wed Sep 03 2025 16:19:16 GMT-0500 (Central Daylight Time),822675.8999996185,A,star,O,r,79,1,832.8999996185303,821843.0,7212,WL,B,5.0
7,8.796000003814697,immed,51203.9999961853,Wed Sep 03 2025 16:19:16 GMT-0500 (Central Daylight Time),823506.0999999046,A,starenter,O,enter,810,1,1663.0999999046326,821843.0,7212,WL,B,5.0
7,9.579999923706055,immed,50420.000076293945,Wed Sep 03 2025 16:19:16 GMT-0500 (Central Daylight Time),824290.7999997139,A,c,O,c,766,1,784.5,823506.2999997139,7212,WL,B,6.0
7,9.67900013923645,immed,50320.99986076355,Wed Sep 03 2025 16:19:16 GMT-0500 (Central Daylight Time),824389.3999996185,A,ca,O,a,82,1,883.0999999046326,823506.2999997139,7212,WL,B,6.0
7,9.815000057220459,immed,50184.99994277954,Wed Sep 03 2025 16:19:16 GMT-0500 (Central Daylight Time),824525.6999998093,A,cab,O,b,129,1,1019.4000000953674,823506.2999997139,7212,WL,B,6.0
7,9.894999980926514,immed,50105.000019073486,Wed Sep 03 2025 16:19:16 GMT-0500 (Central Daylight Time),824605.8999996185,A,cabi,O,i,69,1,1099.5999999046326,823506.2999997139,7212,WL,B,6.0
7,10.031000137329102,immed,49968.9998626709,Wed Sep 03 2025 16:19:16 GMT-0500 (Central Daylight Time),824741.0999999046,A,cabin,O,n,127,1,1234.8000001907349,823506.2999997139,7212,WL,B,6.0
7,10.361999988555908,immed,49638.00001144409,Wed Sep 03 2025 16:19:16 GMT-0500 (Central Daylight Time),825072.6999998093,A,cabinenter,O,enter,311,1,1566.4000000953674,823506.2999997139,7212,WL,B,6.0
7,11.249000072479248,immed,48750.99992752075,Wed Sep 03 2025 16:19:16 GMT-0500 (Central Daylight Time),825959.3999996185,A,l,O,l,866,1,886.5,825072.8999996185,7212,WL,B,7.0
7,11.311000108718872,immed,48688.99989128113,Wed Sep 03 2025 16:19:16 GMT-0500 (Central Daylight Time),826021.5999999046,A,la,O,a,45,1,948.7000002861023,825072.8999996185,7212,WL,B,7.0
7,11.42900013923645,immed,48570.99986076355,Wed Sep 03 2025 16:19:16 GMT-0500 (Central Daylight Time),826139.2999997139,A,lak,O,k,104,1,1066.4000000953674,825072.8999996185,7212,WL,B,7.0
7,11.562000036239624,immed,48437.999963760376,Wed Sep 03 2025 16:19:16 GMT-0500 (Central Daylight Time),826272.5999999046,A,lake,O,e,119,1,1199.7000002861023,825072.8999996185,7212,WL,B,7.0
7,11.812999963760376,immed,48187.000036239624,Wed Sep 03 2025 16:19:16 GMT-0500 (Central Daylight Time),826523.3999996185,A,lakeenter,O,enter,229,1,1450.5,825072.8999996185,7212,WL,B,7.0
7,13.480999946594238,immed,46519.00005340576,Wed Sep 03 2025 16:19:16 GMT-0500 (Central Daylight Time),828191.0999999046,A,p,O,p,1659,1,1667.5,826523.5999999046,7212,WL,B,8.0
7,13.611999988555908,immed,46388.00001144409,Wed Sep 03 2025 16:19:16 GMT-0500 (Central Daylight Time),828322.5,A,pu,O,u,114,1,1798.9000000953674,826523.5999999046,7212,WL,B,8.0
7,14.17900013923645,immed,45820.99986076355,Wed Sep 03 2025 16:19:16 GMT-0500 (Central Daylight Time),828889.2999997139,A,pup,O,p,556,1,2365.699999809265,826523.5999999046,7212,WL,B,8.0
7,14.495000123977661,immed,45504.99987602234,Wed Sep 03 2025 16:19:16 GMT-0500 (Central Daylight Time),829205.3999996185,A,pupi,O,i,295,1,2681.7999997138977,826523.5999999046,7212,WL,B,8.0
7,14.697999954223633,immed,45302.00004577637,Wed Sep 03 2025 16:19:16 GMT-0500 (Central Daylight Time),829408.1999998093,A,pupil,O,l,181,1,2884.5999999046326,826523.5999999046,7212,WL,B,8.0
7,15.144999980926514,immed,44855.000019073486,Wed Sep 03 2025 16:19:16 GMT-0500 (Central Daylight Time),829855.0,A,pupilenter,O,enter,438,1,3331.4000000953674,826523.5999999046,7212,WL,B,8.0
7,17.092999935150146,immed,42907.00006484985,Wed Sep 03 2025 16:19:16 GMT-0500 (Central Daylight Time),831803.8999996185,A,c,O,c,1934,1,1948.5999999046326,829855.2999997139,7212,WL,B,9.0
7,17.20900011062622,immed,42790.99988937378,Wed Sep 03 2025 16:19:16 GMT-0500 (Central Daylight Time),831920.0,A,ca,O,a,104,1,2064.7000002861023,829855.2999997139,7212,WL,B,9.0
7,17.377000093460083,immed,42622.99990653992,Wed Sep 03 2025 16:19:16 GMT-0500 (Central Daylight Time),832087.6999998093,A,cab,O,b,148,1,2232.4000000953674,829855.2999997139,7212,WL,B,9.0
7,17.460000038146973,immed,42539.99996185303,Wed Sep 03 2025 16:19:16 GMT-0500 (Central Daylight Time),832170.8999996185,A,cabi,O,i,60,1,2315.5999999046326,829855.2999997139,7212,WL,B,9.0
7,17.57699990272522,immed,42423.00009727478,Wed Sep 03 2025 16:19:16 GMT-0500 (Central Daylight Time),832287.7999997139,A,cabin,O,n,103,1,2432.5,829855.2999997139,7212,WL,B,9.0
7,18.009000062942505,immed,41990.999937057495,Wed Sep 03 2025 16:19:16 GMT-0500 (Central Daylight Time),832720.3999996185,A,cabinenter,O,enter,410,1,2865.0999999046326,829855.2999997139,7212,WL,B,9.0
7,18.42799997329712,immed,41572.00002670288,Wed Sep 03 2025 16:19:16 GMT-0500 (Central Daylight Time),833138.6999998093,A,l,O,l,399,1,418.0,832720.6999998093,7212,WL,B,10.0
7,18.492000102996826,immed,41507.999897003174,Wed Sep 03 2025 16:19:16 GMT-0500 (Central Daylight Time),833203.0,A,la,O,a,55,1,482.30000019073486,832720.6999998093,7212,WL,B,10.0
7,18.691999912261963,immed,41308.00008773804,Wed Sep 03 2025 16:19:16 GMT-0500 (Central Daylight Time),833403.2999997139,A,lak,O,k,179,1,682.5999999046326,832720.6999998093,7212,WL,B,10.0
7,18.860000133514404,immed,41139.999866485596,Wed Sep 03 2025 16:19:16 GMT-0500 (Central Daylight Time),833571.0999999046,A,lake,O,e,145,1,850.4000000953674,832720.6999998093,7212,WL,B,10.0
7,19.325999975204468,immed,40674.00002479553,Wed Sep 03 2025 16:19:16 GMT-0500 (Central Daylight Time),834037.0,A,lakeenter,O,enter,456,1,1316.3000001907349,832720.6999998093,7212,WL,B,10.0
7,22.858999967575073,immed,37141.00003242493,Wed Sep 03 2025 16:19:16 GMT-0500 (Central Daylight Time),837569.8999996185,A,c,O,c,3513,1,3532.5999999046326,834037.2999997139,7212,WL,B,11.0
7,22.890000104904175,immed,37109.999895095825,Wed Sep 03 2025 16:19:16 GMT-0500 (Central Daylight Time),837600.7999997139,A,cl,O,l,17,1,3563.5,834037.2999997139,7212,WL,B,11.0
7,23.058000087738037,immed,36941.99991226196,Wed Sep 03 2025 16:19:16 GMT-0500 (Central Daylight Time),837769.2999997139,A,clo,O,o,158,1,3732.0,834037.2999997139,7212,WL,B,11.0
7,23.174000024795532,immed,36825.99997520447,Wed Sep 03 2025 16:19:16 GMT-0500 (Central Daylight Time),837884.8999996185,A,cloc,O,c,98,1,3847.5999999046326,834037.2999997139,7212,WL,B,11.0
7,23.324000120162964,immed,36675.999879837036,Wed Sep 03 2025 16:19:16 GMT-0500 (Central Daylight Time),838035.5999999046,A,clock,O,k,133,1,3998.300000190735,834037.2999997139,7212,WL,B,11.0
7,24.555999994277954,immed,35444.000005722046,Wed Sep 03 2025 16:19:16 GMT-0500 (Central Daylight Time),839267.3999996185,A,clockenter,O,enter,1224,1,5230.099999904633,834037.2999997139,7212,WL,B,11.0
7,30.305999994277954,immed,29694.000005722046,Wed Sep 03 2025 16:19:16 GMT-0500 (Central Daylight Time),845017.5,A,f,O,f,5730,1,5749.800000190735,839267.6999998093,7212,WL,B,12.0
7,30.4060001373291,immed,29593.9998626709,Wed Sep 03 2025 16:19:16 GMT-0500 (Central Daylight Time),845117.0,A,fi,O,i,92,1,5849.300000190735,839267.6999998093,7212,WL,B,12.0
7,30.505000114440918,immed,29494.999885559082,Wed Sep 03 2025 16:19:16 GMT-0500 (Central Daylight Time),845216.5999999046,A,fir,O,r,87,1,5948.900000095367,839267.6999998093,7212,WL,B,12.0
7,30.588000059127808,immed,29411.999940872192,Wed Sep 03 2025 16:19:16 GMT-0500 (Central Daylight Time),845299.5,A,fire,O,e,75,1,6031.800000190735,839267.6999998093,7212,WL,B,12.0
7,31.13700008392334,immed,28862.99991607666,Wed Sep 03 2025 16:19:16 GMT-0500 (Central Daylight Time),845848.3999996185,A,fireenter,O,enter,526,1,6580.699999809265,839267.6999998093,7212,WL,B,12.0
7,31.473000049591064,immed,28526.999950408936,Wed Sep 03 2025 16:19:16 GMT-0500 (Central Daylight Time),846184.5,A,s,O,s,317,1,335.90000009536743,845848.5999999046,7212,WL,B,13.0
7,31.57200002670288,immed,28427.99997329712,Wed Sep 03 2025 16:19:16 GMT-0500 (Central Daylight Time),846283.0,A,sk,O,k,78,1,434.40000009536743,845848.5999999046,7212,WL,B,13.0
7,31.704999923706055,immed,28295.000076293945,Wed Sep 03 2025 16:19:16 GMT-0500 (Central Daylight Time),846416.2999997139,A,ski,O,i,121,1,567.6999998092651,845848.5999999046,7212,WL,B,13.0
7,31.871999979019165,immed,28128.000020980835,Wed Sep 03 2025 16:19:16 GMT-0500 (Central Daylight Time),846583.0999999046,A,skin,O,n,147,1,734.5,845848.5999999046,7212,WL,B,13.0
7,32.37299990653992,immed,27627.000093460083,Wed Sep 03 2025 16:19:16 GMT-0500 (Central Daylight Time),847084.5999999046,A,skinenter,O,enter,485,1,1236.0,845848.5999999046,7212,WL,B,13.0
7,43.96900010108948,immed,16030.999898910522,Wed Sep 03 2025 16:19:16 GMT-0500 (Central Daylight Time),858679.6999998093,A,w,O,w,11587,1,11594.900000095367,847084.7999997139,7212,WL,B,14.0
7,44.16799998283386,immed,15832.000017166138,Wed Sep 03 2025 16:19:16 GMT-0500 (Central Daylight Time),858878.8999996185,A,wi,O,i,189,1,11794.099999904633,847084.7999997139,7212,WL,B,14.0
7,44.30200004577637,immed,15697.999954223633,Wed Sep 03 2025 16:19:16 GMT-0500 (Central Daylight Time),859012.6999998093,A,wif,O,f,127,1,11927.900000095367,847084.7999997139,7212,WL,B,14.0
7,44.40000009536743,immed,15599.999904632568,Wed Sep 03 2025 16:19:16 GMT-0500 (Central Daylight Time),859110.5999999046,A,wife,O,e,88,1,12025.800000190735,847084.7999997139,7212,WL,B,14.0
7,45.13300013542175,immed,14866.999864578247,Wed Sep 03 2025 16:19:16 GMT-0500 (Central Daylight Time),859844.2999997139,A,wifeenter,O,enter,727,1,12759.5,847084.7999997139,7212,WL,B,14.0
7,46.09999990463257,immed,13900.000095367432,Wed Sep 03 2025 16:19:16 GMT-0500 (Central Daylight Time),860811.2999997139,A,enter,O,enter,953,1,966.6999998092651,859844.5999999046,7212,WL,B,15.0
