acc_sum,block,block_c,block_cond,con_img,correct,correct_response,datetime,endtime,face,jitter,line,project,response,response_time,row_sel,session_number,start_end,starttime,subject_id,task,task_vers,trial
0,prac,1,A,haborder.png,0,m,Fri Aug 02 2024 13:19:09 GMT-0500 (Central Daylight Time),75604.29999995232,CFD-BM-017-052-HC.jpg,1700,solid,O,None,1502,1,1,4006.5999999046326,71597.70000004768,7005,ATS,A,1
1,prac,1,A,haborder.png,1,z,Fri Aug 02 2024 13:19:09 GMT-0500 (Central Daylight Time),78560.5,CFD-BF-039-039-A.jpg,1200,solid,O,z,963,6,1,6962.799999952316,71597.70000004768,7005,ATS,A,2
2,prac,1,A,haborder.png,1,m,Fri Aug 02 2024 13:19:09 GMT-0500 (Central Daylight Time),81683.70000004768,CFD-WM-004-005-HC.jpg,1400,solid,O,m,919,7,1,10086.0,71597.70000004768,7005,ATS,A,3
3,prac,1,A,haborder.png,1,z,Fri Aug 02 2024 13:19:09 GMT-0500 (Central Daylight Time),84421.60000014305,CFD-BF-023-013-A.jpg,1000,solid,O,z,950,4,1,12823.900000095367,71597.70000004768,7005,ATS,A,4
4,prac,1,A,haborder.png,1,m,Fri Aug 02 2024 13:19:09 GMT-0500 (Central Daylight Time),87544.20000004768,CFD-WF-017-016-HC.jpg,1500,solid,O,m,830,11,1,15946.5,71597.70000004768,7005,ATS,A,5
5,prac,1,A,haborder.png,1,z,Fri Aug 02 2024 13:19:09 GMT-0500 (Central Daylight Time),90116.0,CFD-WF-019-015-A.jpg,1000,solid,O,z,793,12,1,18518.299999952316,71597.70000004768,7005,ATS,A,6
6,prac,1,A,haborder.png,1,z,Fri Aug 02 2024 13:19:09 GMT-0500 (Central Daylight Time),93723.0,CFD-WM-013-015-A.jpg,1900,solid,O,z,919,8,1,22125.299999952316,71597.70000004768,7005,ATS,A,7
7,prac,1,A,haborder.png,1,m,Fri Aug 02 2024 13:19:09 GMT-0500 (Central Daylight Time),97200.0,CFD-WM-006-013-HC.jpg,1700,solid,O,m,992,9,1,25602.299999952316,71597.70000004768,7005,ATS,A,8
8,prac,1,A,haborder.png,1,z,Fri Aug 02 2024 13:19:09 GMT-0500 (Central Daylight Time),100586.10000014305,CFD-BM-005-010-A.jpg,1600,solid,O,z,1002,2,1,28988.400000095367,71597.70000004768,7005,ATS,A,9
9,prac,1,A,haborder.png,1,m,Fri Aug 02 2024 13:19:09 GMT-0500 (Central Daylight Time),103641.90000009537,CFD-BM-029-026-HC.jpg,1500,solid,O,m,778,3,1,32044.200000047684,71597.70000004768,7005,ATS,A,10
10,prac,1,A,haborder.png,1,m,Fri Aug 02 2024 13:19:09 GMT-0500 (Central Daylight Time),107382.70000004768,CFD-BF-028-020-HC.jpg,2000,solid,O,m,940,5,1,35785.0,71597.70000004768,7005,ATS,A,11
11,prac,1,A,haborder.png,1,z,Fri Aug 02 2024 13:19:09 GMT-0500 (Central Daylight Time),110823.10000014305,CFD-WF-003-014-A.jpg,1600,solid,O,z,1056,10,1,39225.40000009537,71597.70000004768,7005,ATS,A,12
1,prac,1,B,mfborder.png,1,m,Fri Aug 02 2024 13:19:09 GMT-0500 (Central Daylight Time),159618.0,CFD-BM-029-026-HC.jpg,1700,dash,O,m,804,1,1,3307.0,156311.0,7005,ATS,A,1
2,prac,1,B,mfborder.png,1,z,Fri Aug 02 2024 13:19:09 GMT-0500 (Central Daylight Time),162139.29999995232,CFD-WF-017-016-HC.jpg,1000,dash,O,z,750,12,1,5828.299999952316,156311.0,7005,ATS,A,2
3,prac,1,B,mfborder.png,1,m,Fri Aug 02 2024 13:19:09 GMT-0500 (Central Daylight Time),164711.40000009537,CFD-WM-019-013-A.jpg,1200,dash,O,m,596,6,1,8400.400000095367,156311.0,7005,ATS,A,3
4,prac,1,B,mfborder.png,1,m,Fri Aug 02 2024 13:19:09 GMT-0500 (Central Daylight Time),168251.10000014305,CFD-BM-005-010-A.jpg,2000,dash,O,m,751,5,1,11940.100000143051,156311.0,7005,ATS,A,4
5,prac,1,B,mfborder.png,1,z,Fri Aug 02 2024 13:19:09 GMT-0500 (Central Daylight Time),171357.20000004768,CFD-BF-010-005-HC.jpg,1500,dash,O,z,832,3,1,15046.200000047684,156311.0,7005,ATS,A,5
6,prac,1,B,mfborder.png,1,z,Fri Aug 02 2024 13:19:09 GMT-0500 (Central Daylight Time),173962.20000004768,CFD-BF-023-013-A.jpg,1000,dash,O,z,810,4,1,17651.200000047684,156311.0,7005,ATS,A,6
7,prac,1,B,mfborder.png,1,z,Fri Aug 02 2024 13:19:09 GMT-0500 (Central Daylight Time),177519.5,CFD-WF-002-008-HC.jpg,1900,dash,O,z,864,8,1,21208.5,156311.0,7005,ATS,A,7
8,prac,1,B,mfborder.png,1,m,Fri Aug 02 2024 13:19:09 GMT-0500 (Central Daylight Time),180641.79999995232,CFD-WM-013-015-A.jpg,1700,dash,O,m,636,9,1,24330.799999952316,156311.0,7005,ATS,A,8
9,prac,1,B,mfborder.png,1,z,Fri Aug 02 2024 13:19:09 GMT-0500 (Central Daylight Time),183564.79999995232,CFD-WF-003-014-A.jpg,1500,dash,O,z,641,11,1,27253.799999952316,156311.0,7005,ATS,A,9
10,prac,1,B,mfborder.png,1,z,Fri Aug 02 2024 13:19:09 GMT-0500 (Central Daylight Time),186537.0,CFD-BF-028-020-HC.jpg,1400,dash,O,z,787,7,1,30226.0,156311.0,7005,ATS,A,10
11,prac,1,B,mfborder.png,1,m,Fri Aug 02 2024 13:19:09 GMT-0500 (Central Daylight Time),189609.29999995232,CFD-WM-006-013-HC.jpg,1600,dash,O,m,670,10,1,33298.299999952316,156311.0,7005,ATS,A,11
12,prac,1,B,mfborder.png,1,m,Fri Aug 02 2024 13:19:09 GMT-0500 (Central Daylight Time),192632.10000014305,CFD-BM-010-019-A.jpg,1600,dash,O,m,637,2,1,36321.10000014305,156311.0,7005,ATS,A,12
0,test,1,A,haborder.png,0,z,Fri Aug 02 2024 13:19:09 GMT-0500 (Central Daylight Time),220671.40000009537,CFD-BF-023-013-A.jpg,1000,solid,O,None,1502,4,1,2523.5,218147.90000009537,7005,ATS,A,1
1,test,1,A,haborder.png,1,m,Fri Aug 02 2024 13:19:09 GMT-0500 (Central Daylight Time),223308.60000014305,CFD-BM-017-052-HC.jpg,1700,solid,O,m,901,1,1,5160.700000047684,218147.90000009537,7005,ATS,A,2
2,test,1,A,haborder.png,1,z,Fri Aug 02 2024 13:19:09 GMT-0500 (Central Daylight Time),225195.70000004768,CFD-BF-039-039-A.jpg,1200,solid,O,z,660,6,1,7047.799999952316,218147.90000009537,7005,ATS,A,3
3,test,1,A,haborder.png,1,z,Fri Aug 02 2024 13:19:09 GMT-0500 (Central Daylight Time),227383.10000014305,CFD-WF-003-014-A.jpg,1600,solid,O,z,564,10,1,9235.200000047684,218147.90000009537,7005,ATS,A,4
4,test,1,A,haborder.png,1,z,Fri Aug 02 2024 13:19:09 GMT-0500 (Central Daylight Time),229887.20000004768,CFD-WF-003-014-A.jpg,1600,solid,O,z,879,10,1,11739.299999952316,218147.90000009537,7005,ATS,A,5
5,test,1,A,haborder.png,1,m,Fri Aug 02 2024 13:19:09 GMT-0500 (Central Daylight Time),232275.29999995232,CFD-WM-004-005-HC.jpg,1400,solid,O,m,959,7,1,14127.399999856949,218147.90000009537,7005,ATS,A,6
6,test,1,A,haborder.png,1,z,Fri Aug 02 2024 13:19:09 GMT-0500 (Central Daylight Time),235582.0,CFD-WM-013-015-A.jpg,1900,solid,O,z,1384,8,1,17434.099999904633,218147.90000009537,7005,ATS,A,7
7,test,1,A,haborder.png,1,m,Fri Aug 02 2024 13:19:09 GMT-0500 (Central Daylight Time),238404.20000004768,CFD-BF-028-020-HC.jpg,2000,solid,O,m,792,5,1,20256.299999952316,218147.90000009537,7005,ATS,A,8
8,test,1,A,haborder.png,1,m,Fri Aug 02 2024 13:19:09 GMT-0500 (Central Daylight Time),241360.40000009537,CFD-WM-006-013-HC.jpg,1700,solid,O,m,1231,9,1,23212.5,218147.90000009537,7005,ATS,A,9
9,test,1,A,haborder.png,1,m,Fri Aug 02 2024 13:19:09 GMT-0500 (Central Daylight Time),244033.90000009537,CFD-BM-017-052-HC.jpg,1700,solid,O,m,947,1,1,25886.0,218147.90000009537,7005,ATS,A,10
10,test,1,A,haborder.png,1,m,Fri Aug 02 2024 13:19:09 GMT-0500 (Central Daylight Time),246236.29999995232,CFD-BM-029-026-HC.jpg,1500,solid,O,m,683,3,1,28088.39999985695,218147.90000009537,7005,ATS,A,11
11,test,1,A,haborder.png,1,z,Fri Aug 02 2024 13:19:09 GMT-0500 (Central Daylight Time),248106.5,CFD-BF-039-039-A.jpg,1200,solid,O,z,634,6,1,29958.599999904633,218147.90000009537,7005,ATS,A,12
12,test,1,A,haborder.png,1,m,Fri Aug 02 2024 13:19:09 GMT-0500 (Central Daylight Time),250211.0,CFD-BM-029-026-HC.jpg,1500,solid,O,m,569,3,1,32063.099999904633,218147.90000009537,7005,ATS,A,13
13,test,1,A,haborder.png,1,m,Fri Aug 02 2024 13:19:09 GMT-0500 (Central Daylight Time),252415.0,CFD-WF-017-016-HC.jpg,1500,solid,O,m,674,11,1,34267.09999990463,218147.90000009537,7005,ATS,A,14
14,test,1,A,haborder.png,1,z,Fri Aug 02 2024 13:19:09 GMT-0500 (Central Daylight Time),254786.60000014305,CFD-BM-005-010-A.jpg,1600,solid,O,z,742,2,1,36638.700000047684,218147.90000009537,7005,ATS,A,15
15,test,1,A,haborder.png,1,z,Fri Aug 02 2024 13:19:09 GMT-0500 (Central Daylight Time),256405.70000004768,CFD-WF-019-015-A.jpg,1000,solid,O,z,589,12,1,38257.799999952316,218147.90000009537,7005,ATS,A,16
16,test,1,A,haborder.png,1,m,Fri Aug 02 2024 13:19:09 GMT-0500 (Central Daylight Time),259261.5,CFD-BF-028-020-HC.jpg,2000,solid,O,m,824,5,1,41113.59999990463,218147.90000009537,7005,ATS,A,17
17,test,1,A,haborder.png,1,z,Fri Aug 02 2024 13:19:09 GMT-0500 (Central Daylight Time),261967.5,CFD-WM-013-015-A.jpg,1900,solid,O,z,779,8,1,43819.59999990463,218147.90000009537,7005,ATS,A,18
17,test,1,A,haborder.png,0,z,Fri Aug 02 2024 13:19:09 GMT-0500 (Central Daylight Time),265090.10000014305,CFD-BM-005-010-A.jpg,1600,solid,O,None,1501,2,1,46942.200000047684,218147.90000009537,7005,ATS,A,19
18,test,1,A,haborder.png,1,m,Fri Aug 02 2024 13:19:09 GMT-0500 (Central Daylight Time),267277.0,CFD-WM-004-005-HC.jpg,1400,solid,O,m,766,7,1,49129.09999990463,218147.90000009537,7005,ATS,A,20
19,test,1,A,haborder.png,1,m,Fri Aug 02 2024 13:19:09 GMT-0500 (Central Daylight Time),269648.2999999523,CFD-WM-006-013-HC.jpg,1700,solid,O,m,646,9,1,51500.39999985695,218147.90000009537,7005,ATS,A,21
20,test,1,A,haborder.png,1,z,Fri Aug 02 2024 13:19:09 GMT-0500 (Central Daylight Time),271786.5,CFD-BF-023-013-A.jpg,1000,solid,O,z,1112,4,1,53638.59999990463,218147.90000009537,7005,ATS,A,22
21,test,1,A,haborder.png,1,z,Fri Aug 02 2024 13:19:09 GMT-0500 (Central Daylight Time),273423.2999999523,CFD-WF-019-015-A.jpg,1000,solid,O,z,614,12,1,55275.39999985695,218147.90000009537,7005,ATS,A,23
22,test,1,A,haborder.png,1,m,Fri Aug 02 2024 13:19:09 GMT-0500 (Central Daylight Time),275660.5,CFD-WF-017-016-HC.jpg,1500,solid,O,m,700,11,1,57512.59999990463,218147.90000009537,7005,ATS,A,24
1,test,1,B,mfborder.png,1,m,Fri Aug 02 2024 13:19:09 GMT-0500 (Central Daylight Time),294380.2999999523,CFD-BM-029-026-HC.jpg,1700,dash,O,m,1143,1,1,2872.199999809265,291508.10000014305,7005,ATS,A,1
2,test,1,B,mfborder.png,1,z,Fri Aug 02 2024 13:19:09 GMT-0500 (Central Daylight Time),296868.5,CFD-WF-003-014-A.jpg,1500,dash,O,z,952,11,1,5360.399999856949,291508.10000014305,7005,ATS,A,2
3,test,1,B,mfborder.png,1,z,Fri Aug 02 2024 13:19:09 GMT-0500 (Central Daylight Time),299439.7999999523,CFD-BF-010-005-HC.jpg,1500,dash,O,z,1039,3,1,7931.699999809265,291508.10000014305,7005,ATS,A,3
4,test,1,B,mfborder.png,1,m,Fri Aug 02 2024 13:19:09 GMT-0500 (Central Daylight Time),301995.2999999523,CFD-WM-006-013-HC.jpg,1600,dash,O,m,919,10,1,10487.199999809265,291508.10000014305,7005,ATS,A,4
5,test,1,B,mfborder.png,1,z,Fri Aug 02 2024 13:19:09 GMT-0500 (Central Daylight Time),304833.7999999523,CFD-BF-028-020-HC.jpg,1400,dash,O,z,1404,7,1,13325.699999809265,291508.10000014305,7005,ATS,A,5
6,test,1,B,mfborder.png,1,z,Fri Aug 02 2024 13:19:09 GMT-0500 (Central Daylight Time),306620.5,CFD-WF-017-016-HC.jpg,1000,dash,O,z,758,12,1,15112.399999856949,291508.10000014305,7005,ATS,A,6
7,test,1,B,mfborder.png,1,z,Fri Aug 02 2024 13:19:09 GMT-0500 (Central Daylight Time),308173.7999999523,CFD-WF-017-016-HC.jpg,1000,dash,O,z,525,12,1,16665.699999809265,291508.10000014305,7005,ATS,A,7
8,test,1,B,mfborder.png,1,m,Fri Aug 02 2024 13:19:09 GMT-0500 (Central Daylight Time),310061.0,CFD-WM-019-013-A.jpg,1200,dash,O,m,666,6,1,18552.89999985695,291508.10000014305,7005,ATS,A,8
9,test,1,B,mfborder.png,1,m,Fri Aug 02 2024 13:19:09 GMT-0500 (Central Daylight Time),312382.7000000477,CFD-WM-013-015-A.jpg,1700,dash,O,m,598,9,1,20874.599999904633,291508.10000014305,7005,ATS,A,9
10,test,1,B,mfborder.png,1,m,Fri Aug 02 2024 13:19:09 GMT-0500 (Central Daylight Time),314668.90000009537,CFD-BM-029-026-HC.jpg,1700,dash,O,m,557,1,1,23160.799999952316,291508.10000014305,7005,ATS,A,10
11,test,1,B,mfborder.png,1,m,Fri Aug 02 2024 13:19:09 GMT-0500 (Central Daylight Time),316756.60000014305,CFD-WM-019-013-A.jpg,1200,dash,O,m,866,6,1,25248.5,291508.10000014305,7005,ATS,A,11
12,test,1,B,mfborder.png,1,z,Fri Aug 02 2024 13:19:09 GMT-0500 (Central Daylight Time),318644.10000014305,CFD-BF-023-013-A.jpg,1000,dash,O,z,851,4,1,27136.0,291508.10000014305,7005,ATS,A,12
13,test,1,B,mfborder.png,1,z,Fri Aug 02 2024 13:19:09 GMT-0500 (Central Daylight Time),320547.5,CFD-BF-023-013-A.jpg,1000,dash,O,z,883,4,1,29039.39999985695,291508.10000014305,7005,ATS,A,13
14,test,1,B,mfborder.png,1,m,Fri Aug 02 2024 13:19:09 GMT-0500 (Central Daylight Time),323369.7999999523,CFD-BM-005-010-A.jpg,2000,dash,O,m,795,5,1,31861.699999809265,291508.10000014305,7005,ATS,A,14
15,test,1,B,mfborder.png,1,z,Fri Aug 02 2024 13:19:09 GMT-0500 (Central Daylight Time),325974.7999999523,CFD-WF-002-008-HC.jpg,1900,dash,O,z,682,8,1,34466.699999809265,291508.10000014305,7005,ATS,A,15
16,test,1,B,mfborder.png,1,z,Fri Aug 02 2024 13:19:09 GMT-0500 (Central Daylight Time),328362.90000009537,CFD-BF-028-020-HC.jpg,1400,dash,O,z,960,7,1,36854.799999952316,291508.10000014305,7005,ATS,A,16
17,test,1,B,mfborder.png,1,m,Fri Aug 02 2024 13:19:09 GMT-0500 (Central Daylight Time),331134.5,CFD-BM-005-010-A.jpg,2000,dash,O,m,747,5,1,39626.39999985695,291508.10000014305,7005,ATS,A,17
18,test,1,B,mfborder.png,1,z,Fri Aug 02 2024 13:19:09 GMT-0500 (Central Daylight Time),333340.10000014305,CFD-BF-010-005-HC.jpg,1500,dash,O,z,676,3,1,41832.0,291508.10000014305,7005,ATS,A,18
19,test,1,B,mfborder.png,1,m,Fri Aug 02 2024 13:19:09 GMT-0500 (Central Daylight Time),335643.2000000477,CFD-WM-006-013-HC.jpg,1600,dash,O,m,666,10,1,44135.09999990463,291508.10000014305,7005,ATS,A,19
20,test,1,B,mfborder.png,1,z,Fri Aug 02 2024 13:19:09 GMT-0500 (Central Daylight Time),337747.5,CFD-WF-003-014-A.jpg,1500,dash,O,z,575,11,1,46239.39999985695,291508.10000014305,7005,ATS,A,20
21,test,1,B,mfborder.png,1,m,Fri Aug 02 2024 13:19:09 GMT-0500 (Central Daylight Time),340335.60000014305,CFD-BM-010-019-A.jpg,1600,dash,O,m,955,2,1,48827.5,291508.10000014305,7005,ATS,A,21
22,test,1,B,mfborder.png,1,z,Fri Aug 02 2024 13:19:09 GMT-0500 (Central Daylight Time),343108.2999999523,CFD-WF-002-008-HC.jpg,1900,dash,O,z,834,8,1,51600.199999809265,291508.10000014305,7005,ATS,A,22
23,test,1,B,mfborder.png,1,m,Fri Aug 02 2024 13:19:09 GMT-0500 (Central Daylight Time),345413.0,CFD-BM-010-019-A.jpg,1600,dash,O,m,684,2,1,53904.89999985695,291508.10000014305,7005,ATS,A,23
24,test,1,B,mfborder.png,1,m,Fri Aug 02 2024 13:19:09 GMT-0500 (Central Daylight Time),348084.90000009537,CFD-WM-013-015-A.jpg,1700,dash,O,m,951,9,1,56576.799999952316,291508.10000014305,7005,ATS,A,24
0,prac,1,C,mfborder.png,0,m,Fri Aug 02 2024 13:19:09 GMT-0500 (Central Daylight Time),402741.10000014305,CFD-BM-017-052-HC.jpg,2000,solid,O,None,1503,4,1,4275.200000047684,398465.90000009537,7005,ATS,A,1
1,prac,1,C,mfborder.png,1,z,Fri Aug 02 2024 13:19:09 GMT-0500 (Central Daylight Time),405730.2999999523,CFD-BF-028-020-HC.jpg,1000,dash,O,z,1212,3,1,7264.399999856949,398465.90000009537,7005,ATS,A,2
2,prac,1,C,haborder.png,1,m,Fri Aug 02 2024 13:19:09 GMT-0500 (Central Daylight Time),408786.10000014305,CFD-WM-004-005-HC.jpg,1400,solid,O,m,877,12,1,10320.200000047684,398465.90000009537,7005,ATS,A,3
3,prac,1,C,mfborder.png,1,z,Fri Aug 02 2024 13:19:09 GMT-0500 (Central Daylight Time),412526.7000000477,CFD-WF-017-016-HC.jpg,1600,dash,O,z,1357,1,1,14060.799999952316,398465.90000009537,7005,ATS,A,4
3,prac,1,C,mfborder.png,0,z,Fri Aug 02 2024 13:19:09 GMT-0500 (Central Daylight Time),416300.60000014305,CFD-WF-019-015-A.jpg,1500,solid,O,None,1502,2,1,17834.700000047684,398465.90000009537,7005,ATS,A,5
4,prac,1,C,haborder.png,1,z,Fri Aug 02 2024 13:19:09 GMT-0500 (Central Daylight Time),419974.2999999523,CFD-WF-003-014-A.jpg,1600,dash,O,z,1297,9,1,21508.39999985695,398465.90000009537,7005,ATS,A,6
5,prac,1,C,haborder.png,1,z,Fri Aug 02 2024 13:19:09 GMT-0500 (Central Daylight Time),423297.90000009537,CFD-BF-039-039-A.jpg,1700,solid,O,z,845,8,1,24832.0,398465.90000009537,7005,ATS,A,7
6,prac,1,C,mfborder.png,1,m,Fri Aug 02 2024 13:19:09 GMT-0500 (Central Daylight Time),426337.2999999523,CFD-BM-005-010-A.jpg,1200,dash,O,m,1046,5,1,27871.39999985695,398465.90000009537,7005,ATS,A,8
7,prac,1,C,haborder.png,1,m,Fri Aug 02 2024 13:19:09 GMT-0500 (Central Daylight Time),430060.7999999523,CFD-BM-029-026-HC.jpg,1500,solid,O,m,1442,10,1,31594.89999985695,398465.90000009537,7005,ATS,A,9
8,prac,1,C,mfborder.png,1,m,Fri Aug 02 2024 13:19:09 GMT-0500 (Central Daylight Time),433317.40000009537,CFD-WM-013-015-A.jpg,1700,solid,O,m,782,6,1,34851.5,398465.90000009537,7005,ATS,A,10
9,prac,1,C,haborder.png,1,m,Fri Aug 02 2024 13:19:09 GMT-0500 (Central Daylight Time),436339.5,CFD-WM-004-005-HC.jpg,1000,dash,O,m,1243,11,1,37873.59999990463,398465.90000009537,7005,ATS,A,11
10,prac,1,C,haborder.png,1,z,Fri Aug 02 2024 13:19:09 GMT-0500 (Central Daylight Time),439996.7999999523,CFD-BF-023-013-A.jpg,1900,dash,O,z,960,7,1,41530.89999985695,398465.90000009537,7005,ATS,A,12
0,test,1,C,haborder.png,0,z,Fri Aug 02 2024 13:19:09 GMT-0500 (Central Daylight Time),470305.90000009537,CFD-BM-010-019-A.jpg,1700,solid,O,m,777,9,1,2504.7000000476837,467801.2000000477,7005,ATS,A,1
1,test,1,C,haborder.png,1,m,Fri Aug 02 2024 13:19:09 GMT-0500 (Central Daylight Time),472009.7999999523,CFD-WF-017-016-HC.jpg,1000,solid,O,m,678,12,1,4208.599999904633,467801.2000000477,7005,ATS,A,2
2,test,1,C,haborder.png,1,m,Fri Aug 02 2024 13:19:09 GMT-0500 (Central Daylight Time),473645.40000009537,CFD-WF-017-016-HC.jpg,1000,solid,O,m,616,12,1,5844.200000047684,467801.2000000477,7005,ATS,A,3
3,test,1,C,mfborder.png,1,z,Fri Aug 02 2024 13:19:09 GMT-0500 (Central Daylight Time),476551.0,CFD-WF-003-014-A.jpg,1500,dash,O,z,1374,3,1,8749.799999952316,467801.2000000477,7005,ATS,A,4
4,test,1,C,haborder.png,1,m,Fri Aug 02 2024 13:19:09 GMT-0500 (Central Daylight Time),478988.7999999523,CFD-WF-002-008-HC.jpg,1500,solid,O,m,907,11,1,11187.599999904633,467801.2000000477,7005,ATS,A,5
5,test,1,C,haborder.png,1,z,Fri Aug 02 2024 13:19:09 GMT-0500 (Central Daylight Time),481310.7999999523,CFD-WM-013-015-A.jpg,1400,solid,O,z,891,7,1,13509.599999904633,467801.2000000477,7005,ATS,A,6
6,test,1,C,haborder.png,1,z,Fri Aug 02 2024 13:19:09 GMT-0500 (Central Daylight Time),484483.2999999523,CFD-BM-005-010-A.jpg,1900,solid,O,z,1236,8,1,16682.099999904633,467801.2000000477,7005,ATS,A,7
6,test,1,C,mfborder.png,0,z,Fri Aug 02 2024 13:19:09 GMT-0500 (Central Daylight Time),487524.2999999523,CFD-WF-003-014-A.jpg,1500,dash,O,None,1515,3,1,19723.099999904633,467801.2000000477,7005,ATS,A,8
7,test,1,C,mfborder.png,1,m,Fri Aug 02 2024 13:19:09 GMT-0500 (Central Daylight Time),489777.2999999523,CFD-WM-006-013-HC.jpg,1000,dash,O,m,1222,4,1,21976.099999904633,467801.2000000477,7005,ATS,A,9
8,test,1,C,haborder.png,1,z,Fri Aug 02 2024 13:19:09 GMT-0500 (Central Daylight Time),492682.5,CFD-WM-013-015-A.jpg,1400,solid,O,z,1479,7,1,24881.299999952316,467801.2000000477,7005,ATS,A,10
8,test,1,C,mfborder.png,0,z,Fri Aug 02 2024 13:19:09 GMT-0500 (Central Daylight Time),495906.10000014305,CFD-BF-010-005-HC.jpg,1700,dash,O,None,1502,1,1,28104.900000095367,467801.2000000477,7005,ATS,A,11
9,test,1,C,mfborder.png,1,z,Fri Aug 02 2024 13:19:09 GMT-0500 (Central Daylight Time),498343.5,CFD-BF-010-005-HC.jpg,1700,dash,O,z,705,1,1,30542.299999952316,467801.2000000477,7005,ATS,A,12
10,test,1,C,mfborder.png,1,m,Fri Aug 02 2024 13:19:09 GMT-0500 (Central Daylight Time),500732.10000014305,CFD-BM-029-026-HC.jpg,1200,dash,O,m,1161,6,1,32930.90000009537,467801.2000000477,7005,ATS,A,13
11,test,1,C,mfborder.png,1,m,Fri Aug 02 2024 13:19:09 GMT-0500 (Central Daylight Time),502534.90000009537,CFD-WM-006-013-HC.jpg,1000,dash,O,m,773,4,1,34733.700000047684,467801.2000000477,7005,ATS,A,14
12,test,1,C,mfborder.png,1,m,Fri Aug 02 2024 13:19:09 GMT-0500 (Central Daylight Time),505324.2999999523,CFD-WM-019-013-A.jpg,2000,dash,O,m,768,5,1,37523.09999990463,467801.2000000477,7005,ATS,A,15
13,test,1,C,haborder.png,1,z,Fri Aug 02 2024 13:19:09 GMT-0500 (Central Daylight Time),508079.0,CFD-BM-005-010-A.jpg,1900,solid,O,z,823,8,1,40277.799999952316,467801.2000000477,7005,ATS,A,16
13,test,1,C,mfborder.png,0,z,Fri Aug 02 2024 13:19:09 GMT-0500 (Central Daylight Time),511203.90000009537,CFD-BF-023-013-A.jpg,1600,dash,O,None,1503,2,1,43402.700000047684,467801.2000000477,7005,ATS,A,17
13,test,1,C,haborder.png,0,m,Fri Aug 02 2024 13:19:09 GMT-0500 (Central Daylight Time),514325.2000000477,CFD-BF-028-020-HC.jpg,1600,solid,O,None,1502,10,1,46524.0,467801.2000000477,7005,ATS,A,18
14,test,1,C,mfborder.png,1,m,Fri Aug 02 2024 13:19:09 GMT-0500 (Central Daylight Time),516996.60000014305,CFD-BM-029-026-HC.jpg,1200,dash,O,m,1451,6,1,49195.40000009537,467801.2000000477,7005,ATS,A,19
14,test,1,C,haborder.png,0,m,Fri Aug 02 2024 13:19:09 GMT-0500 (Central Daylight Time),520119.90000009537,CFD-BF-028-020-HC.jpg,1600,solid,O,None,1502,10,1,52318.700000047684,467801.2000000477,7005,ATS,A,20
14,test,1,C,mfborder.png,0,m,Fri Aug 02 2024 13:19:09 GMT-0500 (Central Daylight Time),523643.2000000477,CFD-WM-019-013-A.jpg,2000,dash,O,None,1502,5,1,55842.0,467801.2000000477,7005,ATS,A,21
15,test,1,C,mfborder.png,1,z,Fri Aug 02 2024 13:19:09 GMT-0500 (Central Daylight Time),526732.2000000477,CFD-BF-023-013-A.jpg,1600,dash,O,z,1452,2,1,58931.0,467801.2000000477,7005,ATS,A,22
16,test,1,C,haborder.png,1,m,Fri Aug 02 2024 13:19:09 GMT-0500 (Central Daylight Time),529570.7999999523,CFD-WF-002-008-HC.jpg,1500,solid,O,m,1311,11,1,61769.59999990463,467801.2000000477,7005,ATS,A,23
16,test,1,C,haborder.png,0,z,Fri Aug 02 2024 13:19:09 GMT-0500 (Central Daylight Time),532727.5,CFD-BM-010-019-A.jpg,1700,solid,O,m,1432,9,1,64926.299999952316,467801.2000000477,7005,ATS,A,24
1,test,2,C,mfborder.png,1,z,Fri Aug 02 2024 13:19:09 GMT-0500 (Central Daylight Time),538689.9000000954,CFD-WF-019-015-A.jpg,1600,dash,O,z,1130,2,1,2756.600000143051,535933.2999999523,7005,ATS,A,1
2,test,2,C,mfborder.png,1,m,Fri Aug 02 2024 13:19:09 GMT-0500 (Central Daylight Time),540743.4000000954,CFD-BM-017-052-HC.jpg,1000,dash,O,m,1024,4,1,4810.100000143051,535933.2999999523,7005,ATS,A,2
3,test,2,C,mfborder.png,1,z,Fri Aug 02 2024 13:19:09 GMT-0500 (Central Daylight Time),543448.2999999523,CFD-WF-017-016-HC.jpg,1700,dash,O,z,980,1,1,7515.0,535933.2999999523,7005,ATS,A,3
4,test,2,C,mfborder.png,1,m,Fri Aug 02 2024 13:19:09 GMT-0500 (Central Daylight Time),546303.2999999523,CFD-BM-005-010-A.jpg,2000,dash,O,m,831,5,1,10370.0,535933.2999999523,7005,ATS,A,4
5,test,2,C,mfborder.png,1,z,Fri Aug 02 2024 13:19:09 GMT-0500 (Central Daylight Time),548675.2000000477,CFD-BF-028-020-HC.jpg,1500,dash,O,z,844,3,1,12741.900000095367,535933.2999999523,7005,ATS,A,5
6,test,2,C,haborder.png,1,m,Fri Aug 02 2024 13:19:09 GMT-0500 (Central Daylight Time),551197.0,CFD-WM-004-005-HC.jpg,1500,solid,O,m,993,11,1,15263.700000047684,535933.2999999523,7005,ATS,A,6
7,test,2,C,mfborder.png,1,m,Fri Aug 02 2024 13:19:09 GMT-0500 (Central Daylight Time),554335.5,CFD-BM-005-010-A.jpg,2000,dash,O,m,1114,5,1,18402.200000047684,535933.2999999523,7005,ATS,A,7
8,test,2,C,mfborder.png,1,m,Fri Aug 02 2024 13:19:09 GMT-0500 (Central Daylight Time),556373.100000143,CFD-BM-017-052-HC.jpg,1000,dash,O,m,1017,4,1,20439.800000190735,535933.2999999523,7005,ATS,A,8
9,test,2,C,mfborder.png,1,z,Fri Aug 02 2024 13:19:09 GMT-0500 (Central Daylight Time),559044.7000000477,CFD-BF-028-020-HC.jpg,1500,dash,O,z,1142,3,1,23111.400000095367,535933.2999999523,7005,ATS,A,9
10,test,2,C,haborder.png,1,z,Fri Aug 02 2024 13:19:09 GMT-0500 (Central Daylight Time),561633.5,CFD-BF-023-013-A.jpg,1400,solid,O,z,1162,7,1,25700.200000047684,535933.2999999523,7005,ATS,A,10
11,test,2,C,haborder.png,1,m,Fri Aug 02 2024 13:19:09 GMT-0500 (Central Daylight Time),563604.5,CFD-WM-004-005-HC.jpg,1000,solid,O,m,951,12,1,27671.200000047684,535933.2999999523,7005,ATS,A,11
12,test,2,C,mfborder.png,1,m,Fri Aug 02 2024 13:19:09 GMT-0500 (Central Daylight Time),566058.7999999523,CFD-WM-013-015-A.jpg,1200,dash,O,m,1220,6,1,30125.5,535933.2999999523,7005,ATS,A,12
13,test,2,C,haborder.png,1,z,Fri Aug 02 2024 13:19:09 GMT-0500 (Central Daylight Time),569466.4000000954,CFD-BF-039-039-A.jpg,1900,solid,O,z,1481,8,1,33533.10000014305,535933.2999999523,7005,ATS,A,13
14,test,2,C,haborder.png,1,m,Fri Aug 02 2024 13:19:09 GMT-0500 (Central Daylight Time),572053.100000143,CFD-BM-029-026-HC.jpg,1600,solid,O,m,966,10,1,36119.800000190735,535933.2999999523,7005,ATS,A,14
14,test,2,C,haborder.png,0,z,Fri Aug 02 2024 13:19:09 GMT-0500 (Central Daylight Time),575278.2000000477,CFD-WF-003-014-A.jpg,1700,solid,O,None,1501,9,1,39344.90000009537,535933.2999999523,7005,ATS,A,15
15,test,2,C,mfborder.png,1,z,Fri Aug 02 2024 13:19:09 GMT-0500 (Central Daylight Time),578199.2000000477,CFD-WF-017-016-HC.jpg,1700,dash,O,z,1198,1,1,42265.90000009537,535933.2999999523,7005,ATS,A,16
16,test,2,C,haborder.png,1,m,Fri Aug 02 2024 13:19:09 GMT-0500 (Central Daylight Time),581155.0,CFD-BM-029-026-HC.jpg,1600,solid,O,m,1321,10,1,45221.700000047684,535933.2999999523,7005,ATS,A,17
17,test,2,C,haborder.png,1,z,Fri Aug 02 2024 13:19:09 GMT-0500 (Central Daylight Time),584193.600000143,CFD-BF-039-039-A.jpg,1900,solid,O,z,1105,8,1,48260.300000190735,535933.2999999523,7005,ATS,A,18
18,test,2,C,haborder.png,1,z,Fri Aug 02 2024 13:19:09 GMT-0500 (Central Daylight Time),587032.5,CFD-WF-003-014-A.jpg,1700,solid,O,z,1113,9,1,51099.200000047684,535933.2999999523,7005,ATS,A,19
19,test,2,C,haborder.png,1,m,Fri Aug 02 2024 13:19:09 GMT-0500 (Central Daylight Time),589103.600000143,CFD-WM-004-005-HC.jpg,1000,solid,O,m,1046,12,1,53170.300000190735,535933.2999999523,7005,ATS,A,20
20,test,2,C,mfborder.png,1,z,Fri Aug 02 2024 13:19:09 GMT-0500 (Central Daylight Time),591942.600000143,CFD-WF-019-015-A.jpg,1600,dash,O,z,1208,2,1,56009.300000190735,535933.2999999523,7005,ATS,A,21
20,test,2,C,mfborder.png,0,m,Fri Aug 02 2024 13:19:09 GMT-0500 (Central Daylight Time),594666.2000000477,CFD-WM-013-015-A.jpg,1200,dash,O,None,1501,6,1,58732.90000009537,535933.2999999523,7005,ATS,A,22
21,test,2,C,haborder.png,1,m,Fri Aug 02 2024 13:19:09 GMT-0500 (Central Daylight Time),597386.7999999523,CFD-WM-004-005-HC.jpg,1500,solid,O,m,1187,11,1,61453.5,535933.2999999523,7005,ATS,A,23
21,test,2,C,haborder.png,0,z,Fri Aug 02 2024 13:19:09 GMT-0500 (Central Daylight Time),600309.0,CFD-BF-023-013-A.jpg,1400,solid,O,None,1502,7,1,64375.700000047684,535933.2999999523,7005,ATS,A,24
1,test,3,C,mfborder.png,1,m,Fri Aug 02 2024 13:19:09 GMT-0500 (Central Daylight Time),604032.7000000477,CFD-WM-006-013-HC.jpg,1000,dash,O,m,1146,4,1,2170.7000000476837,601862.0,7005,ATS,A,1
2,test,3,C,haborder.png,1,m,Fri Aug 02 2024 13:19:09 GMT-0500 (Central Daylight Time),607139.0,CFD-BF-028-020-HC.jpg,1600,solid,O,m,1478,10,1,5277.0,601862.0,7005,ATS,A,2
3,test,3,C,mfborder.png,1,z,Fri Aug 02 2024 13:19:09 GMT-0500 (Central Daylight Time),609793.9000000954,CFD-WF-003-014-A.jpg,1500,dash,O,z,1129,3,1,7931.900000095367,601862.0,7005,ATS,A,3
4,test,3,C,mfborder.png,1,m,Fri Aug 02 2024 13:19:09 GMT-0500 (Central Daylight Time),611964.9000000954,CFD-WM-006-013-HC.jpg,1000,dash,O,m,1150,4,1,10102.900000095367,601862.0,7005,ATS,A,4
4,test,3,C,haborder.png,0,z,Fri Aug 02 2024 13:19:09 GMT-0500 (Central Daylight Time),614652.9000000954,CFD-BM-010-019-A.jpg,1700,solid,O,m,958,9,1,12790.900000095367,601862.0,7005,ATS,A,5
5,test,3,C,haborder.png,1,m,Fri Aug 02 2024 13:19:09 GMT-0500 (Central Daylight Time),617509.0,CFD-WF-002-008-HC.jpg,1500,solid,O,m,1326,11,1,15647.0,601862.0,7005,ATS,A,6
6,test,3,C,haborder.png,1,z,Fri Aug 02 2024 13:19:09 GMT-0500 (Central Daylight Time),620648.4000000954,CFD-BM-005-010-A.jpg,1900,solid,O,z,1199,8,1,18786.400000095367,601862.0,7005,ATS,A,7
7,test,3,C,mfborder.png,1,m,Fri Aug 02 2024 13:19:09 GMT-0500 (Central Daylight Time),623504.0,CFD-WM-019-013-A.jpg,2000,dash,O,m,830,5,1,21642.0,601862.0,7005,ATS,A,8
8,test,3,C,mfborder.png,1,m,Fri Aug 02 2024 13:19:09 GMT-0500 (Central Daylight Time),625524.600000143,CFD-BM-029-026-HC.jpg,1200,dash,O,m,800,6,1,23662.60000014305,601862.0,7005,ATS,A,9
8,test,3,C,haborder.png,0,z,Fri Aug 02 2024 13:19:09 GMT-0500 (Central Daylight Time),628262.7000000477,CFD-BM-010-019-A.jpg,1700,solid,O,m,1016,9,1,26400.700000047684,601862.0,7005,ATS,A,10
9,test,3,C,mfborder.png,1,m,Fri Aug 02 2024 13:19:09 GMT-0500 (Central Daylight Time),630801.5,CFD-BM-029-026-HC.jpg,1200,dash,O,m,1304,6,1,28939.5,601862.0,7005,ATS,A,11
9,test,3,C,haborder.png,0,m,Fri Aug 02 2024 13:19:09 GMT-0500 (Central Daylight Time),633324.9000000954,CFD-WF-017-016-HC.jpg,1000,solid,O,None,1503,12,1,31462.900000095367,601862.0,7005,ATS,A,12
10,test,3,C,haborder.png,1,z,Fri Aug 02 2024 13:19:09 GMT-0500 (Central Daylight Time),635811.2999999523,CFD-WM-013-015-A.jpg,1400,solid,O,z,1053,7,1,33949.299999952316,601862.0,7005,ATS,A,13
11,test,3,C,mfborder.png,1,z,Fri Aug 02 2024 13:19:09 GMT-0500 (Central Daylight Time),638666.9000000954,CFD-BF-023-013-A.jpg,1600,dash,O,z,1227,2,1,36804.90000009537,601862.0,7005,ATS,A,14
12,test,3,C,haborder.png,1,z,Fri Aug 02 2024 13:19:09 GMT-0500 (Central Daylight Time),641389.4000000954,CFD-WM-013-015-A.jpg,1400,solid,O,z,1293,7,1,39527.40000009537,601862.0,7005,ATS,A,15
13,test,3,C,mfborder.png,1,m,Fri Aug 02 2024 13:19:09 GMT-0500 (Central Daylight Time),644545.9000000954,CFD-WM-019-013-A.jpg,2000,dash,O,m,1122,5,1,42683.90000009537,601862.0,7005,ATS,A,16
14,test,3,C,mfborder.png,1,z,Fri Aug 02 2024 13:19:09 GMT-0500 (Central Daylight Time),647584.600000143,CFD-BF-010-005-HC.jpg,1700,dash,O,z,1314,1,1,45722.60000014305,601862.0,7005,ATS,A,17
15,test,3,C,haborder.png,1,z,Fri Aug 02 2024 13:19:09 GMT-0500 (Central Daylight Time),650789.5,CFD-BM-005-010-A.jpg,1900,solid,O,z,1281,8,1,48927.5,601862.0,7005,ATS,A,18
15,test,3,C,haborder.png,0,m,Fri Aug 02 2024 13:19:09 GMT-0500 (Central Daylight Time),653313.5,CFD-WF-017-016-HC.jpg,1000,solid,O,None,1502,12,1,51451.5,601862.0,7005,ATS,A,19
16,test,3,C,haborder.png,1,m,Fri Aug 02 2024 13:19:09 GMT-0500 (Central Daylight Time),655983.2999999523,CFD-BF-028-020-HC.jpg,1600,solid,O,m,1046,10,1,54121.299999952316,601862.0,7005,ATS,A,20
17,test,3,C,haborder.png,1,m,Fri Aug 02 2024 13:19:09 GMT-0500 (Central Daylight Time),658071.4000000954,CFD-WF-002-008-HC.jpg,1500,solid,O,m,557,11,1,56209.40000009537,601862.0,7005,ATS,A,21
18,test,3,C,mfborder.png,1,z,Fri Aug 02 2024 13:19:09 GMT-0500 (Central Daylight Time),661160.100000143,CFD-BF-010-005-HC.jpg,1700,dash,O,z,1356,1,1,59298.10000014305,601862.0,7005,ATS,A,22
19,test,3,C,mfborder.png,1,z,Fri Aug 02 2024 13:19:09 GMT-0500 (Central Daylight Time),663833.100000143,CFD-BF-023-013-A.jpg,1600,dash,O,z,1038,2,1,61971.10000014305,601862.0,7005,ATS,A,23
19,test,3,C,mfborder.png,0,z,Fri Aug 02 2024 13:19:09 GMT-0500 (Central Daylight Time),666857.100000143,CFD-WF-003-014-A.jpg,1500,dash,O,None,1501,3,1,64995.10000014305,601862.0,7005,ATS,A,24
1,test,4,C,haborder.png,1,m,Fri Aug 02 2024 13:19:09 GMT-0500 (Central Daylight Time),670378.100000143,CFD-WM-004-005-HC.jpg,1500,solid,O,m,744,11,1,2270.5,668107.600000143,7005,ATS,A,1
2,test,4,C,haborder.png,1,m,Fri Aug 02 2024 13:19:09 GMT-0500 (Central Daylight Time),673218.100000143,CFD-BM-029-026-HC.jpg,1600,solid,O,m,1213,10,1,5110.5,668107.600000143,7005,ATS,A,2
3,test,4,C,mfborder.png,1,z,Fri Aug 02 2024 13:19:09 GMT-0500 (Central Daylight Time),675605.4000000954,CFD-WF-019-015-A.jpg,1600,dash,O,z,757,2,1,7497.799999952316,668107.600000143,7005,ATS,A,3
4,test,4,C,mfborder.png,1,z,Fri Aug 02 2024 13:19:09 GMT-0500 (Central Daylight Time),678160.2000000477,CFD-WF-017-016-HC.jpg,1700,dash,O,z,830,1,1,10052.599999904633,668107.600000143,7005,ATS,A,4
4,test,4,C,haborder.png,0,z,Fri Aug 02 2024 13:19:09 GMT-0500 (Central Daylight Time),681084.5,CFD-BF-023-013-A.jpg,1400,solid,O,None,1503,7,1,12976.899999856949,668107.600000143,7005,ATS,A,5
5,test,4,C,haborder.png,1,m,Fri Aug 02 2024 13:19:09 GMT-0500 (Central Daylight Time),683420.600000143,CFD-WM-004-005-HC.jpg,1500,solid,O,m,816,11,1,15313.0,668107.600000143,7005,ATS,A,6
6,test,4,C,haborder.png,1,m,Fri Aug 02 2024 13:19:09 GMT-0500 (Central Daylight Time),685290.600000143,CFD-WM-004-005-HC.jpg,1000,solid,O,m,836,12,1,17183.0,668107.600000143,7005,ATS,A,7
7,test,4,C,haborder.png,1,z,Fri Aug 02 2024 13:19:09 GMT-0500 (Central Daylight Time),688446.7000000477,CFD-WF-003-014-A.jpg,1700,solid,O,z,1432,9,1,20339.099999904633,668107.600000143,7005,ATS,A,8
8,test,4,C,haborder.png,1,z,Fri Aug 02 2024 13:19:09 GMT-0500 (Central Daylight Time),691252.5,CFD-BF-039-039-A.jpg,1900,solid,O,z,884,8,1,23144.89999985695,668107.600000143,7005,ATS,A,9
9,test,4,C,mfborder.png,1,m,Fri Aug 02 2024 13:19:09 GMT-0500 (Central Daylight Time),693774.4000000954,CFD-WM-013-015-A.jpg,1200,dash,O,m,1292,6,1,25666.799999952316,668107.600000143,7005,ATS,A,10
10,test,4,C,haborder.png,1,m,Fri Aug 02 2024 13:19:09 GMT-0500 (Central Daylight Time),695661.5,CFD-WM-004-005-HC.jpg,1000,solid,O,m,860,12,1,27553.89999985695,668107.600000143,7005,ATS,A,11
11,test,4,C,haborder.png,1,m,Fri Aug 02 2024 13:19:09 GMT-0500 (Central Daylight Time),698182.2999999523,CFD-BM-029-026-HC.jpg,1600,solid,O,m,899,10,1,30074.699999809265,668107.600000143,7005,ATS,A,12
12,test,4,C,mfborder.png,1,z,Fri Aug 02 2024 13:19:09 GMT-0500 (Central Daylight Time),700787.4000000954,CFD-BF-028-020-HC.jpg,1500,dash,O,z,1068,3,1,32679.799999952316,668107.600000143,7005,ATS,A,13
13,test,4,C,haborder.png,1,z,Fri Aug 02 2024 13:19:09 GMT-0500 (Central Daylight Time),703627.0,CFD-BF-039-039-A.jpg,1900,solid,O,z,910,8,1,35519.39999985695,668107.600000143,7005,ATS,A,14
14,test,4,C,mfborder.png,1,z,Fri Aug 02 2024 13:19:09 GMT-0500 (Central Daylight Time),706348.4000000954,CFD-WF-019-015-A.jpg,1600,dash,O,z,1085,2,1,38240.799999952316,668107.600000143,7005,ATS,A,15
15,test,4,C,haborder.png,1,z,Fri Aug 02 2024 13:19:09 GMT-0500 (Central Daylight Time),709388.2000000477,CFD-WF-003-014-A.jpg,1700,solid,O,z,1302,9,1,41280.59999990463,668107.600000143,7005,ATS,A,16
16,test,4,C,haborder.png,1,z,Fri Aug 02 2024 13:19:09 GMT-0500 (Central Daylight Time),711859.100000143,CFD-BF-023-013-A.jpg,1400,solid,O,z,1036,7,1,43751.5,668107.600000143,7005,ATS,A,17
17,test,4,C,mfborder.png,1,z,Fri Aug 02 2024 13:19:09 GMT-0500 (Central Daylight Time),714948.100000143,CFD-WF-017-016-HC.jpg,1700,dash,O,z,1360,1,1,46840.5,668107.600000143,7005,ATS,A,18
17,test,4,C,mfborder.png,0,m,Fri Aug 02 2024 13:19:09 GMT-0500 (Central Daylight Time),718171.5,CFD-BM-005-010-A.jpg,2000,dash,O,z,1194,5,1,50063.89999985695,668107.600000143,7005,ATS,A,19
17,test,4,C,mfborder.png,0,m,Fri Aug 02 2024 13:19:09 GMT-0500 (Central Daylight Time),720695.0,CFD-BM-017-052-HC.jpg,1000,dash,O,None,1502,4,1,52587.39999985695,668107.600000143,7005,ATS,A,20
18,test,4,C,mfborder.png,1,m,Fri Aug 02 2024 13:19:09 GMT-0500 (Central Daylight Time),722362.7999999523,CFD-BM-017-052-HC.jpg,1000,dash,O,m,635,4,1,54255.199999809265,668107.600000143,7005,ATS,A,21
19,test,4,C,mfborder.png,1,m,Fri Aug 02 2024 13:19:09 GMT-0500 (Central Daylight Time),724984.600000143,CFD-WM-013-015-A.jpg,1200,dash,O,m,1398,6,1,56877.0,668107.600000143,7005,ATS,A,22
20,test,4,C,mfborder.png,1,m,Fri Aug 02 2024 13:19:09 GMT-0500 (Central Daylight Time),727656.5,CFD-BM-005-010-A.jpg,2000,dash,O,m,646,5,1,59548.89999985695,668107.600000143,7005,ATS,A,23
21,test,4,C,mfborder.png,1,z,Fri Aug 02 2024 13:19:09 GMT-0500 (Central Daylight Time),729994.2999999523,CFD-BF-028-020-HC.jpg,1500,dash,O,z,811,3,1,61886.699999809265,668107.600000143,7005,ATS,A,24
