acc_sum,block,block_c,change,condition,correct,correct_response,datetime,endtime,face,project,response,response_time,row_sel,session_number,start_end,starttime,subject_id,task,task_vers,trial
0,prac,1,,1-Back,,,Wed Apr 01 2026 15:47:27 GMT-0400 (Eastern Daylight Time),,124_o_f_d_a.png,I,space,7434,1,1,,,9076,VNB,A,0
0,prac,1,0.0,1-Back,0.0,m,Wed Apr 01 2026 15:47:27 GMT-0400 (Eastern Daylight Time),114110.09999990463,071_y_f_n_a.png,I,z,775,2,1,1586.7000000476837,112523.39999985695,9076,VNB,A,1
1,prac,1,0.0,1-Back,1.0,m,Wed Apr 01 2026 15:47:27 GMT-0400 (Eastern Daylight Time),116643.5,165_m_m_h_a.png,I,m,1704,3,1,2521.100000143051,114122.39999985695,9076,VNB,A,2
2,prac,1,0.0,1-Back,1.0,m,Wed Apr 01 2026 15:47:27 GMT-0400 (Eastern Daylight Time),118843.5,109_y_m_d_a.png,I,m,1357,4,1,2190.100000143051,116653.39999985695,9076,VNB,A,3
3,prac,1,0.0,1-Back,1.0,m,Wed Apr 01 2026 15:47:27 GMT-0400 (Eastern Daylight Time),120893.5,124_o_f_n_a.png,I,m,1182,5,1,2039.7000000476837,118853.79999995232,9076,VNB,A,4
4,prac,1,1.0,1-Back,1.0,z,Wed Apr 01 2026 15:47:27 GMT-0400 (Eastern Daylight Time),123010.0,109_y_m_n_a.png,I,z,1279,6,1,2102.9000000953674,120907.09999990463,9076,VNB,A,5
5,prac,1,0.0,1-Back,1.0,m,Wed Apr 01 2026 15:47:27 GMT-0400 (Eastern Daylight Time),124793.29999995232,039_o_m_h_a.png,I,m,953,7,1,1773.2999999523163,123020.0,9076,VNB,A,6
5,prac,1,0.0,1-Back,0.0,m,Wed Apr 01 2026 15:47:27 GMT-0400 (Eastern Daylight Time),126509.79999995232,139_m_f_d_a.png,I,z,895,8,1,1707.4000000953674,124802.39999985695,9076,VNB,A,7
5,prac,1,1.0,1-Back,0.0,z,Wed Apr 01 2026 15:47:27 GMT-0400 (Eastern Daylight Time),128659.89999985695,071_y_f_d_a.png,I,m,1324,9,1,2141.0,126518.89999985695,9076,VNB,A,8
5,prac,1,0.0,1-Back,0.0,m,Wed Apr 01 2026 15:47:27 GMT-0400 (Eastern Daylight Time),130926.70000004768,165_m_m_n_a.png,I,z,1442,10,1,2256.300000190735,128670.39999985695,9076,VNB,A,9
6,prac,1,0.0,1-Back,1.0,m,Wed Apr 01 2026 15:47:27 GMT-0400 (Eastern Daylight Time),133110.09999990463,124_o_f_h_a.png,I,m,1325,11,1,2171.2999999523163,130938.79999995232,9076,VNB,A,10
6,prac,1,0.0,1-Back,0.0,m,Wed Apr 01 2026 15:47:27 GMT-0400 (Eastern Daylight Time),135293.20000004768,109_y_m_d_a.png,I,z,1389,12,1,2173.0,133120.20000004768,9076,VNB,A,11
0,prac,2,0.0,1-Back,,,Wed Apr 01 2026 15:47:27 GMT-0400 (Eastern Daylight Time),135293.20000004768,124_o_f_d_a.png,I,a,6416,1,1,2173.0,133120.20000004768,9076,VNB,A,0
1,prac,2,0.0,1-Back,1.0,m,Wed Apr 01 2026 15:47:27 GMT-0400 (Eastern Daylight Time),147143.29999995232,071_y_f_n_a.png,I,m,1552,2,1,2373.5999999046326,144769.70000004768,9076,VNB,A,1
2,prac,2,0.0,1-Back,1.0,m,Wed Apr 01 2026 15:47:27 GMT-0400 (Eastern Daylight Time),149710.0,165_m_m_h_a.png,I,m,1745,3,1,2556.100000143051,147153.89999985695,9076,VNB,A,2
3,prac,2,0.0,1-Back,1.0,m,Wed Apr 01 2026 15:47:27 GMT-0400 (Eastern Daylight Time),151593.39999985695,109_y_m_d_a.png,I,m,1094,4,1,1873.5999999046326,149719.79999995232,9076,VNB,A,3
4,prac,2,0.0,1-Back,1.0,m,Wed Apr 01 2026 15:47:27 GMT-0400 (Eastern Daylight Time),153543.29999995232,124_o_f_n_a.png,I,m,1075,5,1,1939.0,151604.29999995232,9076,VNB,A,4
5,prac,2,1.0,1-Back,1.0,z,Wed Apr 01 2026 15:47:27 GMT-0400 (Eastern Daylight Time),155460.09999990463,109_y_m_n_a.png,I,z,1080,6,1,1906.7000000476837,153553.39999985695,9076,VNB,A,5
6,prac,2,0.0,1-Back,1.0,m,Wed Apr 01 2026 15:47:27 GMT-0400 (Eastern Daylight Time),157259.79999995232,039_o_m_h_a.png,I,m,963,7,1,1788.7999999523163,155471.0,9076,VNB,A,6
7,prac,2,0.0,1-Back,1.0,m,Wed Apr 01 2026 15:47:27 GMT-0400 (Eastern Daylight Time),159360.0,139_m_f_d_a.png,I,m,1278,8,1,2091.2999999523163,157268.70000004768,9076,VNB,A,7
8,prac,2,1.0,1-Back,1.0,z,Wed Apr 01 2026 15:47:27 GMT-0400 (Eastern Daylight Time),161310.0,071_y_f_d_a.png,I,z,1132,9,1,1941.2000000476837,159368.79999995232,9076,VNB,A,8
9,prac,2,0.0,1-Back,1.0,m,Wed Apr 01 2026 15:47:27 GMT-0400 (Eastern Daylight Time),163093.39999985695,165_m_m_n_a.png,I,m,953,10,1,1774.3999998569489,161319.0,9076,VNB,A,9
10,prac,2,0.0,1-Back,1.0,m,Wed Apr 01 2026 15:47:27 GMT-0400 (Eastern Daylight Time),165442.89999985695,124_o_f_h_a.png,I,m,1499,11,1,2339.2999999523163,163103.59999990463,9076,VNB,A,10
11,prac,2,0.0,1-Back,1.0,m,Wed Apr 01 2026 15:47:27 GMT-0400 (Eastern Daylight Time),167276.70000004768,109_y_m_d_a.png,I,m,1045,12,1,1827.6000001430511,165449.09999990463,9076,VNB,A,11
0,test,1,0.0,1-Back,,,Wed Apr 01 2026 15:47:27 GMT-0400 (Eastern Daylight Time),167276.70000004768,071_y_f_d_a.png,I,space,10134,1,1,1827.6000001430511,165449.09999990463,9076,VNB,A,0
1,test,1,0.0,1-Back,1.0,m,Wed Apr 01 2026 15:47:27 GMT-0400 (Eastern Daylight Time),195326.5,139_m_f_n_a.png,I,m,1383,2,1,2409.7000000476837,192916.79999995232,9076,VNB,A,1
2,test,1,0.0,1-Back,1.0,m,Wed Apr 01 2026 15:47:27 GMT-0400 (Eastern Daylight Time),197159.70000004768,039_o_m_h_a.png,I,m,806,3,1,1826.6000001430511,195333.09999990463,9076,VNB,A,2
3,test,1,1.0,1-Back,1.0,z,Wed Apr 01 2026 15:47:27 GMT-0400 (Eastern Daylight Time),198942.79999995232,165_m_m_h_a.png,I,z,765,4,1,1776.0999999046326,197166.70000004768,9076,VNB,A,3
4,test,1,0.0,1-Back,1.0,m,Wed Apr 01 2026 15:47:27 GMT-0400 (Eastern Daylight Time),200759.79999995232,124_o_f_n_a.png,I,m,790,5,1,1809.5999999046326,198950.20000004768,9076,VNB,A,4
4,test,1,0.0,1-Back,0.0,m,Wed Apr 01 2026 15:47:27 GMT-0400 (Eastern Daylight Time),202976.39999985695,109_y_m_d_a.png,I,z,1197,6,1,2209.0999999046326,200767.29999995232,9076,VNB,A,5
5,test,1,1.0,1-Back,1.0,z,Wed Apr 01 2026 15:47:27 GMT-0400 (Eastern Daylight Time),205476.39999985695,139_m_f_d_a.png,I,z,1477,7,1,2491.199999809265,202985.20000004768,9076,VNB,A,6
6,test,1,0.0,1-Back,1.0,m,Wed Apr 01 2026 15:47:27 GMT-0400 (Eastern Daylight Time),207342.70000004768,071_y_f_h_a.png,I,m,848,8,1,1858.8000001907349,205483.89999985695,9076,VNB,A,7
7,test,1,0.0,1-Back,1.0,m,Wed Apr 01 2026 15:47:27 GMT-0400 (Eastern Daylight Time),209559.79999995232,039_o_m_n_a.png,I,m,1190,9,1,2209.2999999523163,207350.5,9076,VNB,A,8
8,test,1,0.0,1-Back,1.0,m,Wed Apr 01 2026 15:47:27 GMT-0400 (Eastern Daylight Time),211426.39999985695,109_y_m_h_a.png,I,m,845,10,1,1859.5999999046326,209566.79999995232,9076,VNB,A,9
9,test,1,0.0,1-Back,1.0,m,Wed Apr 01 2026 15:47:27 GMT-0400 (Eastern Daylight Time),213293.0,039_o_m_d_a.png,I,m,834,11,1,1859.7000000476837,211433.29999995232,9076,VNB,A,10
10,test,1,1.0,1-Back,1.0,z,Wed Apr 01 2026 15:47:27 GMT-0400 (Eastern Daylight Time),215109.70000004768,124_o_f_d_a.png,I,z,792,12,1,1808.0,213301.70000004768,9076,VNB,A,11
11,test,1,0.0,1-Back,1.0,m,Wed Apr 01 2026 15:47:27 GMT-0400 (Eastern Daylight Time),216909.70000004768,165_m_m_n_a.png,I,m,767,13,1,1792.7000000476837,215117.0,9076,VNB,A,12
12,test,1,1.0,1-Back,1.0,z,Wed Apr 01 2026 15:47:27 GMT-0400 (Eastern Daylight Time),218976.39999985695,071_y_f_n_a.png,I,z,1047,14,1,2059.5999999046326,216916.79999995232,9076,VNB,A,13
13,test,1,0.0,1-Back,1.0,m,Wed Apr 01 2026 15:47:27 GMT-0400 (Eastern Daylight Time),221026.39999985695,139_m_f_h_a.png,I,m,1029,15,1,2040.6999998092651,218985.70000004768,9076,VNB,A,14
14,test,1,0.0,1-Back,1.0,m,Wed Apr 01 2026 15:47:27 GMT-0400 (Eastern Daylight Time),223159.70000004768,165_m_m_d_a.png,I,m,1106,16,1,2126.600000143051,221033.09999990463,9076,VNB,A,15
15,test,1,0.0,1-Back,1.0,m,Wed Apr 01 2026 15:47:27 GMT-0400 (Eastern Daylight Time),224943.09999990463,109_y_m_n_a.png,I,m,765,17,1,1777.5,223165.59999990463,9076,VNB,A,16
16,test,1,0.0,1-Back,1.0,m,Wed Apr 01 2026 15:47:27 GMT-0400 (Eastern Daylight Time),226843.0,124_o_f_h_a.png,I,m,870,18,1,1892.6000001430511,224950.39999985695,9076,VNB,A,17
0,test,2,0.0,1-Back,,,Wed Apr 01 2026 15:47:27 GMT-0400 (Eastern Daylight Time),226843.0,109_y_m_n_a.png,I,space,1313,1,1,1892.6000001430511,224950.39999985695,9076,VNB,A,0
1,test,2,0.0,1-Back,1.0,m,Wed Apr 01 2026 15:47:27 GMT-0400 (Eastern Daylight Time),232259.70000004768,071_y_f_h_a.png,I,m,1060,2,1,2076.300000190735,230183.39999985695,9076,VNB,A,1
2,test,2,1.0,1-Back,1.0,m,Wed Apr 01 2026 15:47:27 GMT-0400 (Eastern Daylight Time),234009.70000004768,039_o_m_n_a.png,I,m,721,3,1,1743.4000000953674,232266.29999995232,9076,VNB,A,2
3,test,2,0.0,1-Back,1.0,m,Wed Apr 01 2026 15:47:27 GMT-0400 (Eastern Daylight Time),235876.39999985695,139_m_f_d_a.png,I,m,843,4,1,1859.7999999523163,234016.59999990463,9076,VNB,A,3
4,test,2,0.0,1-Back,1.0,z,Wed Apr 01 2026 15:47:27 GMT-0400 (Eastern Daylight Time),237809.59999990463,165_m_m_d_a.png,I,z,912,5,1,1925.8999998569489,235883.70000004768,9076,VNB,A,4
5,test,2,0.0,1-Back,1.0,m,Wed Apr 01 2026 15:47:27 GMT-0400 (Eastern Daylight Time),239659.70000004768,109_y_m_h_a.png,I,m,819,6,1,1840.8000001907349,237818.89999985695,9076,VNB,A,5
6,test,2,1.0,1-Back,1.0,z,Wed Apr 01 2026 15:47:27 GMT-0400 (Eastern Daylight Time),241559.59999990463,124_o_f_h_a.png,I,z,873,7,1,1892.0999999046326,239667.5,9076,VNB,A,6
7,test,2,0.0,1-Back,1.0,m,Wed Apr 01 2026 15:47:27 GMT-0400 (Eastern Daylight Time),243409.59999990463,139_m_f_n_a.png,I,m,829,8,1,1842.0999999046326,241567.5,9076,VNB,A,7
8,test,2,0.0,1-Back,1.0,m,Wed Apr 01 2026 15:47:27 GMT-0400 (Eastern Daylight Time),245359.5,071_y_f_d_a.png,I,m,931,9,1,1942.4000000953674,243417.09999990463,9076,VNB,A,8
9,test,2,0.0,1-Back,1.0,m,Wed Apr 01 2026 15:47:27 GMT-0400 (Eastern Daylight Time),247626.29999995232,165_m_m_n_a.png,I,m,1237,10,1,2259.9000000953674,245366.39999985695,9076,VNB,A,9
10,test,2,1.0,1-Back,1.0,m,Wed Apr 01 2026 15:47:27 GMT-0400 (Eastern Daylight Time),249326.39999985695,139_m_f_h_a.png,I,m,683,11,1,1693.0,247633.39999985695,9076,VNB,A,10
11,test,2,0.0,1-Back,1.0,z,Wed Apr 01 2026 15:47:27 GMT-0400 (Eastern Daylight Time),251059.5,039_o_m_h_a.png,I,z,710,12,1,1726.6000001430511,249332.89999985695,9076,VNB,A,11
12,test,2,0.0,1-Back,1.0,m,Wed Apr 01 2026 15:47:27 GMT-0400 (Eastern Daylight Time),252909.70000004768,109_y_m_d_a.png,I,m,817,13,1,1842.8000001907349,251066.89999985695,9076,VNB,A,12
13,test,2,0.0,1-Back,1.0,m,Wed Apr 01 2026 15:47:27 GMT-0400 (Eastern Daylight Time),254843.0,124_o_f_n_a.png,I,m,903,14,1,1923.0,252920.0,9076,VNB,A,13
14,test,2,0.0,1-Back,1.0,z,Wed Apr 01 2026 15:47:27 GMT-0400 (Eastern Daylight Time),256576.09999990463,071_y_f_n_a.png,I,z,714,15,1,1726.2999999523163,254849.79999995232,9076,VNB,A,14
15,test,2,1.0,1-Back,1.0,m,Wed Apr 01 2026 15:47:27 GMT-0400 (Eastern Daylight Time),258576.0,165_m_m_h_a.png,I,m,981,16,1,1992.7000000476837,256583.29999995232,9076,VNB,A,15
16,test,2,0.0,1-Back,1.0,m,Wed Apr 01 2026 15:47:27 GMT-0400 (Eastern Daylight Time),260676.29999995232,124_o_f_d_a.png,I,m,1077,17,1,2093.5,258582.79999995232,9076,VNB,A,16
17,test,2,1.0,1-Back,1.0,z,Wed Apr 01 2026 15:47:27 GMT-0400 (Eastern Daylight Time),262509.59999990463,039_o_m_d_a.png,I,z,800,18,1,1826.2999999523163,260683.29999995232,9076,VNB,A,17
0,test,3,1.0,1-Back,,,Wed Apr 01 2026 15:47:27 GMT-0400 (Eastern Daylight Time),262509.59999990463,124_o_f_h_a.png,I,space,1455,1,1,1826.2999999523163,260683.29999995232,9076,VNB,A,0
1,test,3,0.0,1-Back,1.0,m,Wed Apr 01 2026 15:47:27 GMT-0400 (Eastern Daylight Time),268226.39999985695,139_m_f_d_a.png,I,m,1145,2,1,2159.5999999046326,266066.7999999523,9076,VNB,A,1
2,test,3,1.0,1-Back,1.0,m,Wed Apr 01 2026 15:47:27 GMT-0400 (Eastern Daylight Time),269909.59999990463,165_m_m_n_a.png,I,m,658,3,1,1676.0,268233.59999990463,9076,VNB,A,2
3,test,3,0.0,1-Back,1.0,z,Wed Apr 01 2026 15:47:27 GMT-0400 (Eastern Daylight Time),271693.0,124_o_f_n_a.png,I,z,751,4,1,1775.2000000476837,269917.7999999523,9076,VNB,A,3
4,test,3,1.0,1-Back,1.0,m,Wed Apr 01 2026 15:47:27 GMT-0400 (Eastern Daylight Time),273543.0,039_o_m_d_a.png,I,m,824,5,1,1842.2999999523163,271700.7000000477,9076,VNB,A,4
5,test,3,0.0,1-Back,1.0,m,Wed Apr 01 2026 15:47:27 GMT-0400 (Eastern Daylight Time),275592.89999985695,071_y_f_h_a.png,I,m,1022,6,1,2042.5999999046326,273550.2999999523,9076,VNB,A,5
6,test,3,0.0,1-Back,1.0,z,Wed Apr 01 2026 15:47:27 GMT-0400 (Eastern Daylight Time),277459.59999990463,109_y_m_h_a.png,I,z,844,7,1,1859.8999998569489,275599.7000000477,9076,VNB,A,6
7,test,3,0.0,1-Back,1.0,m,Wed Apr 01 2026 15:47:27 GMT-0400 (Eastern Daylight Time),279192.89999985695,139_m_f_n_a.png,I,m,705,8,1,1724.0999999046326,277468.7999999523,9076,VNB,A,7
8,test,3,0.0,1-Back,1.0,m,Wed Apr 01 2026 15:47:27 GMT-0400 (Eastern Daylight Time),281326.2000000477,071_y_f_d_a.png,I,m,1100,9,1,2126.4000000953674,279199.7999999523,9076,VNB,A,8
9,test,3,1.0,1-Back,1.0,m,Wed Apr 01 2026 15:47:27 GMT-0400 (Eastern Daylight Time),283043.0,039_o_m_n_a.png,I,m,695,10,1,1709.2999999523163,281333.7000000477,9076,VNB,A,9
10,test,3,0.0,1-Back,1.0,m,Wed Apr 01 2026 15:47:27 GMT-0400 (Eastern Daylight Time),285076.2999999523,165_m_m_h_a.png,I,m,1010,11,1,2026.5,283049.7999999523,9076,VNB,A,10
11,test,3,0.0,1-Back,1.0,z,Wed Apr 01 2026 15:47:27 GMT-0400 (Eastern Daylight Time),286642.7000000477,139_m_f_h_a.png,I,z,543,12,1,1559.3000001907349,285083.39999985695,9076,VNB,A,11
12,test,3,1.0,1-Back,1.0,m,Wed Apr 01 2026 15:47:27 GMT-0400 (Eastern Daylight Time),288343.0,124_o_f_d_a.png,I,m,674,13,1,1692.7999999523163,286650.2000000477,9076,VNB,A,12
13,test,3,0.0,1-Back,1.0,z,Wed Apr 01 2026 15:47:27 GMT-0400 (Eastern Daylight Time),290576.09999990463,165_m_m_d_a.png,I,z,1214,14,1,2226.0,288350.09999990463,9076,VNB,A,13
14,test,3,0.0,1-Back,1.0,m,Wed Apr 01 2026 15:47:27 GMT-0400 (Eastern Daylight Time),292559.5,109_y_m_n_a.png,I,m,964,15,1,1976.6000001430511,290582.89999985695,9076,VNB,A,14
14,test,3,1.0,1-Back,0.0,m,Wed Apr 01 2026 15:47:27 GMT-0400 (Eastern Daylight Time),294659.7000000477,039_o_m_h_a.png,I,z,1077,16,1,2093.100000143051,292566.59999990463,9076,VNB,A,15
15,test,3,0.0,1-Back,1.0,m,Wed Apr 01 2026 15:47:27 GMT-0400 (Eastern Daylight Time),296942.7000000477,109_y_m_d_a.png,I,m,1265,17,1,2276.0,294666.7000000477,9076,VNB,A,16
16,test,3,1.0,1-Back,1.0,m,Wed Apr 01 2026 15:47:27 GMT-0400 (Eastern Daylight Time),298643.0,071_y_f_n_a.png,I,m,678,18,1,1692.6000001430511,296950.39999985695,9076,VNB,A,17
0,test,4,1.0,1-Back,,,Wed Apr 01 2026 15:47:27 GMT-0400 (Eastern Daylight Time),298643.0,165_m_m_d_a.png,I,space,1162,1,1,1692.6000001430511,296950.39999985695,9076,VNB,A,0
1,test,4,0.0,1-Back,1.0,z,Wed Apr 01 2026 15:47:27 GMT-0400 (Eastern Daylight Time),303909.5,039_o_m_d_a.png,I,z,1059,2,1,2075.9000000953674,301833.59999990463,9076,VNB,A,1
2,test,4,0.0,1-Back,1.0,m,Wed Apr 01 2026 15:47:27 GMT-0400 (Eastern Daylight Time),305626.2999999523,109_y_m_h_a.png,I,m,688,3,1,1709.4000000953674,303916.89999985695,9076,VNB,A,2
3,test,4,0.0,1-Back,1.0,m,Wed Apr 01 2026 15:47:27 GMT-0400 (Eastern Daylight Time),307559.59999990463,139_m_f_n_a.png,I,m,907,4,1,1926.5999999046326,305633.0,9076,VNB,A,3
4,test,4,1.0,1-Back,1.0,m,Wed Apr 01 2026 15:47:27 GMT-0400 (Eastern Daylight Time),309359.39999985695,124_o_f_h_a.png,I,m,781,5,1,1792.7999999523163,307566.59999990463,9076,VNB,A,4
5,test,4,0.0,1-Back,1.0,m,Wed Apr 01 2026 15:47:27 GMT-0400 (Eastern Daylight Time),311126.2000000477,165_m_m_n_a.png,I,m,737,6,1,1760.1000001430511,309366.09999990463,9076,VNB,A,5
6,test,4,0.0,1-Back,1.0,m,Wed Apr 01 2026 15:47:27 GMT-0400 (Eastern Daylight Time),313326.2999999523,109_y_m_d_a.png,I,m,1167,7,1,2190.5999999046326,311135.7000000477,9076,VNB,A,6
7,test,4,1.0,1-Back,1.0,z,Wed Apr 01 2026 15:47:27 GMT-0400 (Eastern Daylight Time),315142.89999985695,071_y_f_d_a.png,I,z,790,8,1,1809.0,313333.89999985695,9076,VNB,A,7
8,test,4,0.0,1-Back,1.0,m,Wed Apr 01 2026 15:47:27 GMT-0400 (Eastern Daylight Time),317326.09999990463,139_m_f_h_a.png,I,m,1166,9,1,2176.2000000476837,315149.89999985695,9076,VNB,A,8
9,test,4,0.0,1-Back,1.0,z,Wed Apr 01 2026 15:47:27 GMT-0400 (Eastern Daylight Time),319543.0,039_o_m_h_a.png,I,z,1190,10,1,2210.600000143051,317332.39999985695,9076,VNB,A,9
10,test,4,1.0,1-Back,1.0,m,Wed Apr 01 2026 15:47:27 GMT-0400 (Eastern Daylight Time),321326.2999999523,124_o_f_n_a.png,I,m,750,11,1,1775.9000000953674,319550.39999985695,9076,VNB,A,10
11,test,4,0.0,1-Back,1.0,m,Wed Apr 01 2026 15:47:27 GMT-0400 (Eastern Daylight Time),323309.59999990463,139_m_f_d_a.png,I,m,950,12,1,1976.2999999523163,321333.2999999523,9076,VNB,A,11
12,test,4,0.0,1-Back,1.0,m,Wed Apr 01 2026 15:47:27 GMT-0400 (Eastern Daylight Time),325109.39999985695,071_y_f_n_a.png,I,m,775,13,1,1791.6999998092651,323317.7000000477,9076,VNB,A,12
13,test,4,0.0,1-Back,1.0,m,Wed Apr 01 2026 15:47:27 GMT-0400 (Eastern Daylight Time),327026.2000000477,124_o_f_d_a.png,I,m,896,14,1,1908.9000000953674,325117.2999999523,9076,VNB,A,13
14,test,4,0.0,1-Back,1.0,m,Wed Apr 01 2026 15:47:27 GMT-0400 (Eastern Daylight Time),328826.2000000477,071_y_f_h_a.png,I,m,771,15,1,1791.5,327034.7000000477,9076,VNB,A,14
15,test,4,1.0,1-Back,1.0,z,Wed Apr 01 2026 15:47:27 GMT-0400 (Eastern Daylight Time),330692.89999985695,165_m_m_h_a.png,I,z,843,16,1,1859.6999998092651,328833.2000000477,9076,VNB,A,15
16,test,4,0.0,1-Back,1.0,m,Wed Apr 01 2026 15:47:27 GMT-0400 (Eastern Daylight Time),332609.5,039_o_m_n_a.png,I,m,896,17,1,1909.5,330700.0,9076,VNB,A,16
17,test,4,1.0,1-Back,1.0,z,Wed Apr 01 2026 15:47:27 GMT-0400 (Eastern Daylight Time),334743.0,109_y_m_n_a.png,I,z,1107,18,1,2126.600000143051,332616.39999985695,9076,VNB,A,17
0,test,5,1.0,1-Back,,,Wed Apr 01 2026 15:47:27 GMT-0400 (Eastern Daylight Time),334743.0,039_o_m_n_a.png,I,space,1382,1,1,2126.600000143051,332616.39999985695,9076,VNB,A,0
1,test,5,1.0,1-Back,1.0,m,Wed Apr 01 2026 15:47:27 GMT-0400 (Eastern Daylight Time),340809.5,124_o_f_h_a.png,I,m,1638,2,1,2659.7000000476837,338149.7999999523,9076,VNB,A,1
2,test,5,0.0,1-Back,1.0,m,Wed Apr 01 2026 15:47:27 GMT-0400 (Eastern Daylight Time),342926.2000000477,109_y_m_d_a.png,I,m,1100,3,1,2107.2000000476837,340819.0,9076,VNB,A,2
3,test,5,0.0,1-Back,1.0,z,Wed Apr 01 2026 15:47:27 GMT-0400 (Eastern Daylight Time),344676.2000000477,039_o_m_d_a.png,I,z,727,4,1,1743.2000000476837,342933.0,9076,VNB,A,3
4,test,5,0.0,1-Back,1.0,m,Wed Apr 01 2026 15:47:27 GMT-0400 (Eastern Daylight Time),346575.89999985695,139_m_f_h_a.png,I,m,881,5,1,1892.8999998569489,344683.0,9076,VNB,A,4
4,test,5,0.0,1-Back,0.0,m,Wed Apr 01 2026 15:47:27 GMT-0400 (Eastern Daylight Time),348309.5,071_y_f_n_a.png,I,z,709,6,1,1722.9000000953674,346586.59999990463,9076,VNB,A,5
5,test,5,1.0,1-Back,1.0,z,Wed Apr 01 2026 15:47:27 GMT-0400 (Eastern Daylight Time),350309.39999985695,124_o_f_n_a.png,I,z,975,7,1,1992.5999999046326,348316.7999999523,9076,VNB,A,6
6,test,5,0.0,1-Back,1.0,m,Wed Apr 01 2026 15:47:27 GMT-0400 (Eastern Daylight Time),352409.5,139_m_f_d_a.png,I,m,1072,8,1,2092.7000000476837,350316.7999999523,9076,VNB,A,7
7,test,5,0.0,1-Back,1.0,m,Wed Apr 01 2026 15:47:27 GMT-0400 (Eastern Daylight Time),354376.2000000477,109_y_m_h_a.png,I,m,939,9,1,1959.7000000476837,352416.5,9076,VNB,A,8
8,test,5,0.0,1-Back,1.0,m,Wed Apr 01 2026 15:47:27 GMT-0400 (Eastern Daylight Time),356342.7999999523,071_y_f_d_a.png,I,m,941,10,1,1959.5999999046326,354383.2000000477,9076,VNB,A,9
9,test,5,0.0,1-Back,1.0,m,Wed Apr 01 2026 15:47:27 GMT-0400 (Eastern Daylight Time),358159.2999999523,165_m_m_n_a.png,I,m,798,11,1,1809.2999999523163,356350.0,9076,VNB,A,10
10,test,5,1.0,1-Back,1.0,z,Wed Apr 01 2026 15:47:27 GMT-0400 (Eastern Daylight Time),360009.5,139_m_f_n_a.png,I,z,821,12,1,1843.7000000476837,358165.7999999523,9076,VNB,A,11
11,test,5,0.0,1-Back,1.0,m,Wed Apr 01 2026 15:47:27 GMT-0400 (Eastern Daylight Time),362009.5,039_o_m_h_a.png,I,m,972,13,1,1993.0,360016.5,9076,VNB,A,12
12,test,5,0.0,1-Back,1.0,z,Wed Apr 01 2026 15:47:27 GMT-0400 (Eastern Daylight Time),363959.59999990463,165_m_m_h_a.png,I,z,924,14,1,1940.2999999523163,362019.2999999523,9076,VNB,A,13
13,test,5,1.0,1-Back,1.0,m,Wed Apr 01 2026 15:47:27 GMT-0400 (Eastern Daylight Time),366109.59999990463,124_o_f_d_a.png,I,m,1117,15,1,2143.2000000476837,363966.39999985695,9076,VNB,A,14
14,test,5,0.0,1-Back,1.0,m,Wed Apr 01 2026 15:47:27 GMT-0400 (Eastern Daylight Time),367776.0,109_y_m_n_a.png,I,m,648,16,1,1657.7999999523163,366118.2000000477,9076,VNB,A,15
15,test,5,0.0,1-Back,1.0,m,Wed Apr 01 2026 15:47:27 GMT-0400 (Eastern Daylight Time),369542.7999999523,071_y_f_h_a.png,I,m,740,17,1,1760.2000000476837,367782.59999990463,9076,VNB,A,16
16,test,5,0.0,1-Back,1.0,m,Wed Apr 01 2026 15:47:27 GMT-0400 (Eastern Daylight Time),371459.39999985695,165_m_m_d_a.png,I,m,894,18,1,1909.7999999523163,369549.59999990463,9076,VNB,A,17
0,prac,1,0.0,2-Back,,,Wed Apr 01 2026 15:47:27 GMT-0400 (Eastern Daylight Time),371459.39999985695,139_m_f_n_a.png,I,space,8588,1,1,1909.7999999523163,369549.59999990463,9076,VNB,A,0
0,prac,1,0.0,2-Back,,,Wed Apr 01 2026 15:47:27 GMT-0400 (Eastern Daylight Time),371459.39999985695,124_o_f_h_a.png,I,space,8588,2,1,1909.7999999523163,369549.59999990463,9076,VNB,A,0
1,prac,1,0.0,2-Back,1.0,m,Wed Apr 01 2026 15:47:27 GMT-0400 (Eastern Daylight Time),477359.7000000477,039_o_m_d_a.png,I,m,1792,3,1,2607.4000000953674,474752.2999999523,9076,VNB,A,1
2,prac,1,1.0,2-Back,1.0,z,Wed Apr 01 2026 15:47:27 GMT-0400 (Eastern Daylight Time),479676.2000000477,165_m_m_h_a.png,I,z,1478,4,1,2306.600000143051,477369.59999990463,9076,VNB,A,2
3,prac,1,0.0,2-Back,1.0,m,Wed Apr 01 2026 15:47:27 GMT-0400 (Eastern Daylight Time),482192.7999999523,071_y_f_n_a.png,I,m,1691,5,1,2506.4000000953674,479686.39999985695,9076,VNB,A,3
4,prac,1,1.0,2-Back,1.0,z,Wed Apr 01 2026 15:47:27 GMT-0400 (Eastern Daylight Time),484176.09999990463,039_o_m_h_a.png,I,z,1160,6,1,1972.2000000476837,482203.89999985695,9076,VNB,A,4
5,prac,1,1.0,2-Back,1.0,z,Wed Apr 01 2026 15:47:27 GMT-0400 (Eastern Daylight Time),486276.0,109_y_m_n_a.png,I,z,1264,7,1,2091.0,484185.0,9076,VNB,A,5
5,prac,1,0.0,2-Back,0.0,m,Wed Apr 01 2026 15:47:27 GMT-0400 (Eastern Daylight Time),488642.7000000477,139_m_f_d_a.png,I,z,1525,8,1,2357.5,486285.2000000477,9076,VNB,A,6
6,prac,1,0.0,2-Back,1.0,m,Wed Apr 01 2026 15:47:27 GMT-0400 (Eastern Daylight Time),491326.2000000477,124_o_f_d_a.png,I,m,1816,9,1,2674.9000000953674,488651.2999999523,9076,VNB,A,7
7,prac,1,0.0,2-Back,1.0,m,Wed Apr 01 2026 15:47:27 GMT-0400 (Eastern Daylight Time),493526.09999990463,165_m_m_h_a.png,I,m,1413,10,1,2190.5999999046326,491335.5,9076,VNB,A,8
8,prac,1,1.0,2-Back,1.0,z,Wed Apr 01 2026 15:47:27 GMT-0400 (Eastern Daylight Time),495726.09999990463,071_y_f_d_a.png,I,z,1379,11,1,2189.7999999523163,493536.2999999523,9076,VNB,A,9
9,prac,1,0.0,2-Back,1.0,m,Wed Apr 01 2026 15:47:27 GMT-0400 (Eastern Daylight Time),498126.09999990463,039_o_m_n_a.png,I,m,1577,12,1,2390.399999856949,495735.7000000477,9076,VNB,A,10
0,test,1,0.0,2-Back,,,Wed Apr 01 2026 15:47:27 GMT-0400 (Eastern Daylight Time),498126.09999990463,109_y_m_h_a.png,I,space,8643,1,1,2390.399999856949,495735.7000000477,9076,VNB,A,0
0,test,1,0.0,2-Back,,,Wed Apr 01 2026 15:47:27 GMT-0400 (Eastern Daylight Time),498126.09999990463,124_o_f_n_a.png,I,space,8643,2,1,2390.399999856949,495735.7000000477,9076,VNB,A,0
1,test,1,0.0,2-Back,1.0,z,Wed Apr 01 2026 15:47:27 GMT-0400 (Eastern Daylight Time),524142.5,039_o_m_h_a.png,I,z,1232,3,1,2241.4000000953674,521901.09999990463,9076,VNB,A,1
2,test,1,0.0,2-Back,1.0,m,Wed Apr 01 2026 15:47:27 GMT-0400 (Eastern Daylight Time),526409.399999857,139_m_f_d_a.png,I,m,1237,4,1,2260.899999856949,524148.5,9076,VNB,A,2
3,test,1,1.0,2-Back,1.0,m,Wed Apr 01 2026 15:47:27 GMT-0400 (Eastern Daylight Time),528525.7999999523,109_y_m_n_a.png,I,m,1083,5,1,2109.2999999523163,526416.5,9076,VNB,A,3
4,test,1,0.0,2-Back,1.0,z,Wed Apr 01 2026 15:47:27 GMT-0400 (Eastern Daylight Time),530526.0,071_y_f_d_a.png,I,z,982,6,1,1993.2000000476837,528532.7999999523,9076,VNB,A,4
5,test,1,0.0,2-Back,1.0,m,Wed Apr 01 2026 15:47:27 GMT-0400 (Eastern Daylight Time),532809.2999999523,165_m_m_h_a.png,I,m,1255,7,1,2275.2000000476837,530534.0999999046,9076,VNB,A,5
5,test,1,1.0,2-Back,0.0,m,Wed Apr 01 2026 15:47:27 GMT-0400 (Eastern Daylight Time),535159.2000000477,071_y_f_n_a.png,I,z,1323,8,1,2342.9000000953674,532816.2999999523,9076,VNB,A,6
6,test,1,0.0,2-Back,1.0,z,Wed Apr 01 2026 15:47:27 GMT-0400 (Eastern Daylight Time),537175.7000000477,124_o_f_h_a.png,I,z,989,9,1,2006.0,535169.7000000477,9076,VNB,A,7
7,test,1,0.0,2-Back,1.0,m,Wed Apr 01 2026 15:47:27 GMT-0400 (Eastern Daylight Time),539392.5,039_o_m_d_a.png,I,m,1197,10,1,2208.600000143051,537183.899999857,9076,VNB,A,8
8,test,1,1.0,2-Back,1.0,m,Wed Apr 01 2026 15:47:27 GMT-0400 (Eastern Daylight Time),541459.0999999046,165_m_m_d_a.png,I,m,1044,11,1,2059.399999856949,539399.7000000477,9076,VNB,A,9
9,test,1,0.0,2-Back,1.0,m,Wed Apr 01 2026 15:47:27 GMT-0400 (Eastern Daylight Time),543709.0999999046,139_m_f_n_a.png,I,m,1217,12,1,2242.7999999523163,541466.2999999523,9076,VNB,A,10
10,test,1,0.0,2-Back,1.0,m,Wed Apr 01 2026 15:47:27 GMT-0400 (Eastern Daylight Time),546242.5,071_y_f_h_a.png,I,m,1511,13,1,2526.2999999523163,543716.2000000477,9076,VNB,A,11
11,test,1,0.0,2-Back,1.0,z,Wed Apr 01 2026 15:47:27 GMT-0400 (Eastern Daylight Time),548725.899999857,165_m_m_n_a.png,I,z,1458,14,1,2476.5,546249.399999857,9076,VNB,A,12
12,test,1,0.0,2-Back,1.0,m,Wed Apr 01 2026 15:47:27 GMT-0400 (Eastern Daylight Time),550709.2999999523,109_y_m_d_a.png,I,m,959,15,1,1976.5999999046326,548732.7000000477,9076,VNB,A,13
13,test,1,1.0,2-Back,1.0,m,Wed Apr 01 2026 15:47:27 GMT-0400 (Eastern Daylight Time),552926.0,139_m_f_h_a.png,I,m,1184,16,1,2209.7000000476837,550716.2999999523,9076,VNB,A,14
13,test,1,0.0,2-Back,0.0,z,Wed Apr 01 2026 15:47:27 GMT-0400 (Eastern Daylight Time),555192.5999999046,124_o_f_d_a.png,I,m,1238,17,1,2259.7999999523163,552932.7999999523,9076,VNB,A,15
14,test,1,0.0,2-Back,1.0,m,Wed Apr 01 2026 15:47:27 GMT-0400 (Eastern Daylight Time),557459.2999999523,039_o_m_n_a.png,I,m,1243,18,1,2258.2999999523163,555201.0,9076,VNB,A,16
0,test,2,0.0,2-Back,,,Wed Apr 01 2026 15:47:27 GMT-0400 (Eastern Daylight Time),557459.2999999523,165_m_m_h_a.png,I,space,1272,1,1,2258.2999999523163,555201.0,9076,VNB,A,0
0,test,2,0.0,2-Back,,,Wed Apr 01 2026 15:47:27 GMT-0400 (Eastern Daylight Time),557459.2999999523,071_y_f_n_a.png,I,space,1272,2,1,2258.2999999523163,555201.0,9076,VNB,A,0
1,test,2,1.0,2-Back,1.0,z,Wed Apr 01 2026 15:47:27 GMT-0400 (Eastern Daylight Time),565892.5999999046,124_o_f_h_a.png,I,z,1009,3,1,2026.0,563866.5999999046,9076,VNB,A,1
2,test,2,0.0,2-Back,1.0,m,Wed Apr 01 2026 15:47:27 GMT-0400 (Eastern Daylight Time),568125.899999857,039_o_m_d_a.png,I,m,1201,4,1,2225.5999999046326,565900.2999999523,9076,VNB,A,2
3,test,2,0.0,2-Back,1.0,m,Wed Apr 01 2026 15:47:27 GMT-0400 (Eastern Daylight Time),569992.5,139_m_f_d_a.png,I,m,838,5,1,1856.7999999523163,568135.7000000477,9076,VNB,A,3
4,test,2,0.0,2-Back,1.0,m,Wed Apr 01 2026 15:47:27 GMT-0400 (Eastern Daylight Time),572042.5,109_y_m_h_a.png,I,m,1020,6,1,2043.4000000953674,569999.0999999046,9076,VNB,A,4
5,test,2,0.0,2-Back,1.0,m,Wed Apr 01 2026 15:47:27 GMT-0400 (Eastern Daylight Time),573975.899999857,124_o_f_n_a.png,I,m,906,7,1,1922.5999999046326,572053.2999999523,9076,VNB,A,5
6,test,2,1.0,2-Back,1.0,z,Wed Apr 01 2026 15:47:27 GMT-0400 (Eastern Daylight Time),575975.899999857,039_o_m_h_a.png,I,z,973,8,1,1992.3999998569489,573983.5,9076,VNB,A,6
7,test,2,0.0,2-Back,1.0,m,Wed Apr 01 2026 15:47:27 GMT-0400 (Eastern Daylight Time),578126.0999999046,071_y_f_d_a.png,I,m,1132,9,1,2140.899999856949,575985.2000000477,9076,VNB,A,7
8,test,2,0.0,2-Back,1.0,m,Wed Apr 01 2026 15:47:27 GMT-0400 (Eastern Daylight Time),580025.7000000477,109_y_m_d_a.png,I,m,869,10,1,1892.4000000953674,578133.2999999523,9076,VNB,A,8
9,test,2,0.0,2-Back,1.0,m,Wed Apr 01 2026 15:47:27 GMT-0400 (Eastern Daylight Time),582275.7999999523,165_m_m_n_a.png,I,m,1226,11,1,2240.2000000476837,580035.5999999046,9076,VNB,A,9
10,test,2,0.0,2-Back,1.0,m,Wed Apr 01 2026 15:47:27 GMT-0400 (Eastern Daylight Time),584342.5,139_m_f_h_a.png,I,m,1041,12,1,2059.100000143051,582283.399999857,9076,VNB,A,10
11,test,2,1.0,2-Back,1.0,z,Wed Apr 01 2026 15:47:27 GMT-0400 (Eastern Daylight Time),586425.7999999523,039_o_m_n_a.png,I,z,1053,13,1,2076.4000000953674,584349.399999857,9076,VNB,A,11
12,test,2,0.0,2-Back,1.0,m,Wed Apr 01 2026 15:47:27 GMT-0400 (Eastern Daylight Time),588425.899999857,124_o_f_d_a.png,I,m,970,14,1,1993.5,586432.399999857,9076,VNB,A,12
13,test,2,0.0,2-Back,1.0,m,Wed Apr 01 2026 15:47:27 GMT-0400 (Eastern Daylight Time),590549.2999999523,071_y_f_h_a.png,I,m,1106,15,1,2113.0999999046326,588436.2000000477,9076,VNB,A,13
14,test,2,0.0,2-Back,1.0,z,Wed Apr 01 2026 15:47:27 GMT-0400 (Eastern Daylight Time),592892.5,165_m_m_d_a.png,I,z,1317,16,1,2339.0,590553.5,9076,VNB,A,14
14,test,2,0.0,2-Back,0.0,m,Wed Apr 01 2026 15:47:27 GMT-0400 (Eastern Daylight Time),595575.7999999523,109_y_m_n_a.png,I,z,1657,17,1,2676.5999999046326,592899.2000000477,9076,VNB,A,15
15,test,2,1.0,2-Back,1.0,m,Wed Apr 01 2026 15:47:27 GMT-0400 (Eastern Daylight Time),597809.0,139_m_f_n_a.png,I,m,1212,18,1,2225.9000000953674,595583.0999999046,9076,VNB,A,16
0,test,3,1.0,2-Back,,,Wed Apr 01 2026 15:47:27 GMT-0400 (Eastern Daylight Time),597809.0,039_o_m_n_a.png,I,space,1211,1,1,2225.9000000953674,595583.0999999046,9076,VNB,A,0
0,test,3,1.0,2-Back,,,Wed Apr 01 2026 15:47:27 GMT-0400 (Eastern Daylight Time),597809.0,124_o_f_d_a.png,I,space,1211,2,1,2225.9000000953674,595583.0999999046,9076,VNB,A,0
1,test,3,0.0,2-Back,1.0,m,Wed Apr 01 2026 15:47:27 GMT-0400 (Eastern Daylight Time),606042.5,071_y_f_h_a.png,I,m,937,3,1,1959.9000000953674,604082.5999999046,9076,VNB,A,1
2,test,3,0.0,2-Back,1.0,z,Wed Apr 01 2026 15:47:27 GMT-0400 (Eastern Daylight Time),607909.0999999046,139_m_f_d_a.png,I,z,842,4,1,1858.5999999046326,606050.5,9076,VNB,A,2
3,test,3,1.0,2-Back,1.0,m,Wed Apr 01 2026 15:47:27 GMT-0400 (Eastern Daylight Time),609775.5999999046,109_y_m_n_a.png,I,m,847,5,1,1859.0,607916.5999999046,9076,VNB,A,3
4,test,3,0.0,2-Back,1.0,m,Wed Apr 01 2026 15:47:27 GMT-0400 (Eastern Daylight Time),612025.7999999523,039_o_m_h_a.png,I,m,1220,6,1,2242.5,609783.2999999523,9076,VNB,A,4
5,test,3,0.0,2-Back,1.0,z,Wed Apr 01 2026 15:47:27 GMT-0400 (Eastern Daylight Time),614075.7000000477,071_y_f_n_a.png,I,z,1018,7,1,2041.9000000953674,612033.7999999523,9076,VNB,A,5
6,test,3,1.0,2-Back,1.0,m,Wed Apr 01 2026 15:47:27 GMT-0400 (Eastern Daylight Time),616158.7999999523,165_m_m_d_a.png,I,m,1065,8,1,2076.4000000953674,614082.399999857,9076,VNB,A,6
7,test,3,0.0,2-Back,1.0,m,Wed Apr 01 2026 15:47:27 GMT-0400 (Eastern Daylight Time),618059.0999999046,109_y_m_d_a.png,I,m,869,9,1,1894.3999998569489,616164.7000000477,9076,VNB,A,7
8,test,3,0.0,2-Back,1.0,m,Wed Apr 01 2026 15:47:27 GMT-0400 (Eastern Daylight Time),620142.0999999046,124_o_f_h_a.png,I,m,1065,10,1,2075.2000000476837,618066.899999857,9076,VNB,A,8
9,test,3,1.0,2-Back,1.0,m,Wed Apr 01 2026 15:47:27 GMT-0400 (Eastern Daylight Time),622175.5999999046,139_m_f_n_a.png,I,m,1013,11,1,2027.0999999046326,620148.5,9076,VNB,A,9
10,test,3,1.0,2-Back,1.0,z,Wed Apr 01 2026 15:47:27 GMT-0400 (Eastern Daylight Time),624442.399999857,165_m_m_h_a.png,I,z,1235,12,1,2259.699999809265,622182.7000000477,9076,VNB,A,10
11,test,3,0.0,2-Back,1.0,m,Wed Apr 01 2026 15:47:27 GMT-0400 (Eastern Daylight Time),626475.7999999523,071_y_f_d_a.png,I,m,1003,13,1,2026.5,624449.2999999523,9076,VNB,A,11
12,test,3,0.0,2-Back,1.0,m,Wed Apr 01 2026 15:47:27 GMT-0400 (Eastern Daylight Time),628359.0999999046,124_o_f_n_a.png,I,m,856,14,1,1876.5999999046326,626482.5,9076,VNB,A,12
13,test,3,0.0,2-Back,1.0,z,Wed Apr 01 2026 15:47:27 GMT-0400 (Eastern Daylight Time),630409.0999999046,039_o_m_d_a.png,I,z,1021,15,1,2042.2000000476837,628366.899999857,9076,VNB,A,13
14,test,3,1.0,2-Back,1.0,m,Wed Apr 01 2026 15:47:27 GMT-0400 (Eastern Daylight Time),632459.0999999046,139_m_f_h_a.png,I,m,1019,16,1,2042.7999999523163,630416.2999999523,9076,VNB,A,14
15,test,3,0.0,2-Back,1.0,m,Wed Apr 01 2026 15:47:27 GMT-0400 (Eastern Daylight Time),634409.0999999046,165_m_m_n_a.png,I,m,921,17,1,1943.0,632466.0999999046,9076,VNB,A,15
16,test,3,0.0,2-Back,1.0,z,Wed Apr 01 2026 15:47:27 GMT-0400 (Eastern Daylight Time),636442.5,109_y_m_h_a.png,I,z,1003,18,1,2026.6000001430511,634415.899999857,9076,VNB,A,16
0,test,4,0.0,2-Back,,,Wed Apr 01 2026 15:47:27 GMT-0400 (Eastern Daylight Time),636442.5,139_m_f_n_a.png,I,space,1330,1,1,2026.6000001430511,634415.899999857,9076,VNB,A,0
0,test,4,0.0,2-Back,,,Wed Apr 01 2026 15:47:27 GMT-0400 (Eastern Daylight Time),636442.5,039_o_m_n_a.png,I,space,1330,2,1,2026.6000001430511,634415.899999857,9076,VNB,A,0
1,test,4,1.0,2-Back,1.0,m,Wed Apr 01 2026 15:47:27 GMT-0400 (Eastern Daylight Time),645142.399999857,109_y_m_h_a.png,I,m,1257,3,1,2276.399999856949,642866.0,9076,VNB,A,1
2,test,4,1.0,2-Back,1.0,m,Wed Apr 01 2026 15:47:27 GMT-0400 (Eastern Daylight Time),646992.399999857,124_o_f_d_a.png,I,m,830,4,1,1842.7999999523163,645149.5999999046,9076,VNB,A,2
3,test,4,0.0,2-Back,1.0,z,Wed Apr 01 2026 15:47:27 GMT-0400 (Eastern Daylight Time),648809.0,039_o_m_h_a.png,I,z,789,5,1,1806.1000001430511,647002.899999857,9076,VNB,A,3
4,test,4,0.0,2-Back,1.0,m,Wed Apr 01 2026 15:47:27 GMT-0400 (Eastern Daylight Time),650842.399999857,165_m_m_n_a.png,I,m,1004,6,1,2026.0,648816.399999857,9076,VNB,A,4
5,test,4,0.0,2-Back,1.0,m,Wed Apr 01 2026 15:47:27 GMT-0400 (Eastern Daylight Time),652775.7999999523,139_m_f_d_a.png,I,m,906,7,1,1926.2000000476837,650849.5999999046,9076,VNB,A,5
6,test,4,0.0,2-Back,1.0,z,Wed Apr 01 2026 15:47:27 GMT-0400 (Eastern Daylight Time),654592.2999999523,071_y_f_n_a.png,I,z,797,8,1,1808.7999999523163,652783.5,9076,VNB,A,6
7,test,4,1.0,2-Back,1.0,m,Wed Apr 01 2026 15:47:27 GMT-0400 (Eastern Daylight Time),657075.7000000477,124_o_f_h_a.png,I,m,1459,9,1,2476.600000143051,654599.0999999046,9076,VNB,A,7
8,test,4,0.0,2-Back,1.0,m,Wed Apr 01 2026 15:47:27 GMT-0400 (Eastern Daylight Time),658892.5,165_m_m_h_a.png,I,m,784,10,1,1810.2999999523163,657082.2000000477,9076,VNB,A,8
9,test,4,0.0,2-Back,1.0,m,Wed Apr 01 2026 15:47:27 GMT-0400 (Eastern Daylight Time),661109.0999999046,071_y_f_d_a.png,I,m,1191,11,1,2209.2999999523163,658899.7999999523,9076,VNB,A,9
10,test,4,0.0,2-Back,1.0,m,Wed Apr 01 2026 15:47:27 GMT-0400 (Eastern Daylight Time),662925.7000000477,109_y_m_n_a.png,I,m,783,12,1,1809.3000001907349,661116.399999857,9076,VNB,A,10
11,test,4,0.0,2-Back,1.0,z,Wed Apr 01 2026 15:47:27 GMT-0400 (Eastern Daylight Time),664705.2999999523,039_o_m_d_a.png,I,z,763,13,1,1772.9000000953674,662932.399999857,9076,VNB,A,11
12,test,4,1.0,2-Back,1.0,m,Wed Apr 01 2026 15:47:27 GMT-0400 (Eastern Daylight Time),666875.5999999046,139_m_f_h_a.png,I,m,1135,14,1,2166.2999999523163,664709.2999999523,9076,VNB,A,12
13,test,4,1.0,2-Back,1.0,m,Wed Apr 01 2026 15:47:27 GMT-0400 (Eastern Daylight Time),668692.2999999523,071_y_f_h_a.png,I,m,793,15,1,1808.5999999046326,666883.7000000477,9076,VNB,A,13
14,test,4,0.0,2-Back,1.0,m,Wed Apr 01 2026 15:47:27 GMT-0400 (Eastern Daylight Time),670592.2000000477,124_o_f_n_a.png,I,m,880,16,1,1893.2000000476837,668699.0,9076,VNB,A,14
15,test,4,0.0,2-Back,1.0,m,Wed Apr 01 2026 15:47:27 GMT-0400 (Eastern Daylight Time),672642.399999857,109_y_m_d_a.png,I,m,1028,17,1,2042.2999999523163,670600.0999999046,9076,VNB,A,15
16,test,4,1.0,2-Back,1.0,m,Wed Apr 01 2026 15:47:27 GMT-0400 (Eastern Daylight Time),674525.7000000477,165_m_m_d_a.png,I,m,850,18,1,1875.1000001430511,672650.5999999046,9076,VNB,A,16
0,test,5,1.0,2-Back,,,Wed Apr 01 2026 15:47:27 GMT-0400 (Eastern Daylight Time),674525.7000000477,071_y_f_d_a.png,I,space,1198,1,1,1875.1000001430511,672650.5999999046,9076,VNB,A,0
0,test,5,1.0,2-Back,,,Wed Apr 01 2026 15:47:27 GMT-0400 (Eastern Daylight Time),674525.7000000477,124_o_f_h_a.png,I,space,1198,2,1,1875.1000001430511,672650.5999999046,9076,VNB,A,0
1,test,5,1.0,2-Back,1.0,z,Wed Apr 01 2026 15:47:27 GMT-0400 (Eastern Daylight Time),682625.5999999046,039_o_m_d_a.png,I,z,762,3,1,1775.7000000476837,680849.899999857,9076,VNB,A,1
2,test,5,1.0,2-Back,1.0,m,Wed Apr 01 2026 15:47:27 GMT-0400 (Eastern Daylight Time),684742.2999999523,139_m_f_n_a.png,I,m,1091,4,1,2109.7999999523163,682632.5,9076,VNB,A,2
3,test,5,0.0,2-Back,1.0,m,Wed Apr 01 2026 15:47:27 GMT-0400 (Eastern Daylight Time),686442.2999999523,165_m_m_h_a.png,I,m,670,5,1,1692.9000000953674,684749.399999857,9076,VNB,A,3
4,test,5,0.0,2-Back,1.0,z,Wed Apr 01 2026 15:47:27 GMT-0400 (Eastern Daylight Time),688175.5,071_y_f_n_a.png,I,z,713,6,1,1726.2999999523163,686449.2000000477,9076,VNB,A,4
5,test,5,0.0,2-Back,1.0,m,Wed Apr 01 2026 15:47:27 GMT-0400 (Eastern Daylight Time),690492.2999999523,124_o_f_d_a.png,I,m,1284,7,1,2308.7999999523163,688183.5,9076,VNB,A,5
6,test,5,0.0,2-Back,1.0,m,Wed Apr 01 2026 15:47:27 GMT-0400 (Eastern Daylight Time),692875.7000000477,039_o_m_h_a.png,I,m,1352,8,1,2372.9000000953674,690502.7999999523,9076,VNB,A,6
7,test,5,1.0,2-Back,1.0,z,Wed Apr 01 2026 15:47:27 GMT-0400 (Eastern Daylight Time),695025.7000000477,139_m_f_d_a.png,I,z,1128,9,1,2142.100000143051,692883.5999999046,9076,VNB,A,7
8,test,5,0.0,2-Back,1.0,m,Wed Apr 01 2026 15:47:27 GMT-0400 (Eastern Daylight Time),696908.899999857,109_y_m_n_a.png,I,m,850,10,1,1876.6999998092651,695032.2000000477,9076,VNB,A,8
9,test,5,0.0,2-Back,1.0,m,Wed Apr 01 2026 15:47:27 GMT-0400 (Eastern Daylight Time),698875.7000000477,165_m_m_n_a.png,I,m,935,11,1,1960.1000001430511,696915.5999999046,9076,VNB,A,9
10,test,5,0.0,2-Back,1.0,m,Wed Apr 01 2026 15:47:27 GMT-0400 (Eastern Daylight Time),701125.7000000477,071_y_f_h_a.png,I,m,1224,12,1,2242.100000143051,698883.5999999046,9076,VNB,A,10
11,test,5,0.0,2-Back,1.0,m,Wed Apr 01 2026 15:47:27 GMT-0400 (Eastern Daylight Time),703058.899999857,109_y_m_d_a.png,I,m,911,13,1,1926.5,701132.399999857,9076,VNB,A,11
12,test,5,1.0,2-Back,1.0,z,Wed Apr 01 2026 15:47:27 GMT-0400 (Eastern Daylight Time),705025.5999999046,139_m_f_h_a.png,I,z,945,14,1,1960.0,703065.5999999046,9076,VNB,A,12
13,test,5,0.0,2-Back,1.0,m,Wed Apr 01 2026 15:47:27 GMT-0400 (Eastern Daylight Time),707292.2999999523,039_o_m_n_a.png,I,m,1234,15,1,2260.0,705032.2999999523,9076,VNB,A,13
13,test,5,0.0,2-Back,0.0,m,Wed Apr 01 2026 15:47:27 GMT-0400 (Eastern Daylight Time),709575.7000000477,165_m_m_d_a.png,I,z,1256,16,1,2272.600000143051,707303.0999999046,9076,VNB,A,14
14,test,5,0.0,2-Back,1.0,z,Wed Apr 01 2026 15:47:27 GMT-0400 (Eastern Daylight Time),711542.399999857,124_o_f_n_a.png,I,z,940,17,1,1959.7999999523163,709582.5999999046,9076,VNB,A,15
15,test,5,1.0,2-Back,1.0,m,Wed Apr 01 2026 15:47:27 GMT-0400 (Eastern Daylight Time),713525.5999999046,109_y_m_h_a.png,I,m,959,18,1,1976.5999999046326,711549.0,9076,VNB,A,16
