acc_sum,block,block_c,change,condition,correct,correct_response,datetime,endtime,face,project,response,response_time,row_sel,session_number,start_end,starttime,subject_id,task,task_vers,trial
0,prac,1,,1-Back,,,Mon Dec 15 2025 15:44:51 GMT-0600 (Central Standard Time),,124_o_f_d_a.png,O,space,4513,1,1,,,7722,VNB,A,0
1,prac,1,0.0,1-Back,1.0,m,Mon Dec 15 2025 15:44:51 GMT-0600 (Central Standard Time),148659.10000002384,071_y_f_n_a.png,O,m,1701,2,1,2487.899999976158,146171.20000004768,7722,VNB,A,1
1,prac,1,0.0,1-Back,0.0,m,Mon Dec 15 2025 15:44:51 GMT-0600 (Central Standard Time),150755.89999997616,165_m_m_h_a.png,O,z,1294,3,1,2085.6999999284744,148670.20000004768,7722,VNB,A,2
2,prac,1,0.0,1-Back,1.0,m,Mon Dec 15 2025 15:44:51 GMT-0600 (Central Standard Time),153056.0,109_y_m_d_a.png,O,m,1484,4,1,2291.2000000476837,150764.79999995232,7722,VNB,A,3
3,prac,1,0.0,1-Back,1.0,m,Mon Dec 15 2025 15:44:51 GMT-0600 (Central Standard Time),155107.70000004768,124_o_f_n_a.png,O,m,1219,5,1,2043.8000000715256,153063.89999997616,7722,VNB,A,4
4,prac,1,1.0,1-Back,1.0,z,Mon Dec 15 2025 15:44:51 GMT-0600 (Central Standard Time),157054.89999997616,109_y_m_n_a.png,O,z,1129,6,1,1936.1000000238419,155118.79999995232,7722,VNB,A,5
4,prac,1,0.0,1-Back,0.0,m,Mon Dec 15 2025 15:44:51 GMT-0600 (Central Standard Time),158654.29999995232,039_o_m_h_a.png,O,z,789,7,1,1590.1999999284744,157064.10000002384,7722,VNB,A,6
5,prac,1,0.0,1-Back,1.0,m,Mon Dec 15 2025 15:44:51 GMT-0600 (Central Standard Time),160804.29999995232,139_m_f_d_a.png,O,m,1346,8,1,2137.5999999046326,158666.70000004768,7722,VNB,A,7
6,prac,1,1.0,1-Back,1.0,z,Mon Dec 15 2025 15:44:51 GMT-0600 (Central Standard Time),162720.70000004768,071_y_f_d_a.png,O,z,1107,9,1,1904.4000000953674,160816.29999995232,7722,VNB,A,8
7,prac,1,0.0,1-Back,1.0,m,Mon Dec 15 2025 15:44:51 GMT-0600 (Central Standard Time),165055.20000004768,165_m_m_n_a.png,O,m,1533,10,1,2323.4000000953674,162731.79999995232,7722,VNB,A,9
8,prac,1,0.0,1-Back,1.0,m,Mon Dec 15 2025 15:44:51 GMT-0600 (Central Standard Time),167034.70000004768,124_o_f_h_a.png,O,m,1163,11,1,1972.4000000953674,165062.29999995232,7722,VNB,A,10
8,prac,1,0.0,1-Back,0.0,m,Mon Dec 15 2025 15:44:51 GMT-0600 (Central Standard Time),169034.79999995232,109_y_m_d_a.png,O,z,1223,12,1,1989.5999999046326,167045.20000004768,7722,VNB,A,11
0,prac,2,0.0,1-Back,,,Mon Dec 15 2025 15:44:51 GMT-0600 (Central Standard Time),169034.79999995232,124_o_f_d_a.png,O,a,1828,1,1,1989.5999999046326,167045.20000004768,7722,VNB,A,0
1,prac,2,0.0,1-Back,1.0,m,Mon Dec 15 2025 15:44:51 GMT-0600 (Central Standard Time),175782.89999997616,071_y_f_n_a.png,O,m,1086,2,1,1872.2999999523163,173910.60000002384,7722,VNB,A,1
1,prac,2,0.0,1-Back,0.0,m,Mon Dec 15 2025 15:44:51 GMT-0600 (Central Standard Time),177631.29999995232,165_m_m_h_a.png,O,z,1042,3,1,1837.1999999284744,175794.10000002384,7722,VNB,A,2
1,prac,2,0.0,1-Back,0.0,m,Mon Dec 15 2025 15:44:51 GMT-0600 (Central Standard Time),180399.0,109_y_m_d_a.png,O,None,2006,4,1,2757.2999999523163,177641.70000004768,7722,VNB,A,3
1,prac,2,0.0,1-Back,0.0,m,Mon Dec 15 2025 15:44:51 GMT-0600 (Central Standard Time),183214.79999995232,124_o_f_n_a.png,O,None,2007,5,1,2804.6999999284744,180410.10000002384,7722,VNB,A,4
1,prac,2,1.0,1-Back,0.0,z,Mon Dec 15 2025 15:44:51 GMT-0600 (Central Standard Time),185179.39999997616,109_y_m_n_a.png,O,m,1152,6,1,1955.6000000238419,183223.79999995232,7722,VNB,A,5
1,prac,2,0.0,1-Back,0.0,m,Mon Dec 15 2025 15:44:51 GMT-0600 (Central Standard Time),185963.0,039_o_m_h_a.png,O,z,1,7,1,772.2000000476837,185190.79999995232,7722,VNB,A,6
2,prac,2,0.0,1-Back,1.0,m,Mon Dec 15 2025 15:44:51 GMT-0600 (Central Standard Time),187812.70000004768,139_m_f_d_a.png,O,m,1050,8,1,1838.3000000715256,185974.39999997616,7722,VNB,A,7
3,prac,2,1.0,1-Back,1.0,z,Mon Dec 15 2025 15:44:51 GMT-0600 (Central Standard Time),189916.70000004768,071_y_f_d_a.png,O,z,1302,9,1,2092.100000023842,187824.60000002384,7722,VNB,A,8
4,prac,2,0.0,1-Back,1.0,m,Mon Dec 15 2025 15:44:51 GMT-0600 (Central Standard Time),191611.60000002384,165_m_m_n_a.png,O,m,882,10,1,1686.3999999761581,189925.20000004768,7722,VNB,A,9
4,prac,2,0.0,1-Back,0.0,m,Mon Dec 15 2025 15:44:51 GMT-0600 (Central Standard Time),194193.70000004768,124_o_f_h_a.png,O,z,1776,11,1,2570.3000000715256,191623.39999997616,7722,VNB,A,10
5,prac,2,0.0,1-Back,1.0,m,Mon Dec 15 2025 15:44:51 GMT-0600 (Central Standard Time),196459.10000002384,109_y_m_d_a.png,O,m,1485,12,1,2252.899999976158,194206.20000004768,7722,VNB,A,11
0,test,1,0.0,1-Back,,,Mon Dec 15 2025 15:44:51 GMT-0600 (Central Standard Time),196459.10000002384,071_y_f_d_a.png,O,space,6253,1,1,2252.899999976158,194206.20000004768,7722,VNB,A,0
1,test,1,0.0,1-Back,1.0,m,Mon Dec 15 2025 15:44:51 GMT-0600 (Central Standard Time),213337.10000002384,139_m_f_n_a.png,O,m,1493,2,1,2503.399999976158,210833.70000004768,7722,VNB,A,1
2,test,1,0.0,1-Back,1.0,m,Mon Dec 15 2025 15:44:51 GMT-0600 (Central Standard Time),215402.0,039_o_m_h_a.png,O,m,1017,3,1,2047.2000000476837,213354.79999995232,7722,VNB,A,2
3,test,1,1.0,1-Back,1.0,z,Mon Dec 15 2025 15:44:51 GMT-0600 (Central Standard Time),218169.29999995232,165_m_m_h_a.png,O,z,1743,4,1,2757.2999999523163,215412.0,7722,VNB,A,3
3,test,1,0.0,1-Back,0.0,m,Mon Dec 15 2025 15:44:51 GMT-0600 (Central Standard Time),220001.89999997616,124_o_f_n_a.png,O,z,800,5,1,1823.7999999523163,218178.10000002384,7722,VNB,A,4
4,test,1,0.0,1-Back,1.0,m,Mon Dec 15 2025 15:44:51 GMT-0600 (Central Standard Time),222618.10000002384,109_y_m_d_a.png,O,m,1585,6,1,2605.3000000715256,220012.79999995232,7722,VNB,A,5
5,test,1,1.0,1-Back,1.0,z,Mon Dec 15 2025 15:44:51 GMT-0600 (Central Standard Time),225033.10000002384,139_m_f_d_a.png,O,z,1384,7,1,2403.8000000715256,222629.29999995232,7722,VNB,A,6
6,test,1,0.0,1-Back,1.0,m,Mon Dec 15 2025 15:44:51 GMT-0600 (Central Standard Time),227298.29999995232,071_y_f_h_a.png,O,m,1242,8,1,2255.1999999284744,225043.10000002384,7722,VNB,A,7
7,test,1,0.0,1-Back,1.0,m,Mon Dec 15 2025 15:44:51 GMT-0600 (Central Standard Time),229682.10000002384,039_o_m_n_a.png,O,m,1350,9,1,2373.399999976158,227308.70000004768,7722,VNB,A,8
8,test,1,0.0,1-Back,1.0,m,Mon Dec 15 2025 15:44:51 GMT-0600 (Central Standard Time),232134.20000004768,109_y_m_h_a.png,O,m,1436,10,1,2442.4000000953674,229691.79999995232,7722,VNB,A,9
9,test,1,0.0,1-Back,1.0,m,Mon Dec 15 2025 15:44:51 GMT-0600 (Central Standard Time),234613.70000004768,039_o_m_d_a.png,O,m,1464,11,1,2470.4000000953674,232143.29999995232,7722,VNB,A,10
10,test,1,1.0,1-Back,1.0,z,Mon Dec 15 2025 15:44:51 GMT-0600 (Central Standard Time),236596.79999995232,124_o_f_d_a.png,O,z,963,12,1,1975.6999999284744,234621.10000002384,7722,VNB,A,11
11,test,1,0.0,1-Back,1.0,m,Mon Dec 15 2025 15:44:51 GMT-0600 (Central Standard Time),238661.20000004768,165_m_m_n_a.png,O,m,1037,13,1,2055.9000000953674,236605.29999995232,7722,VNB,A,12
11,test,1,1.0,1-Back,0.0,z,Mon Dec 15 2025 15:44:51 GMT-0600 (Central Standard Time),240711.10000002384,071_y_f_n_a.png,O,m,1029,14,1,2040.1000000238419,238671.0,7722,VNB,A,13
12,test,1,0.0,1-Back,1.0,m,Mon Dec 15 2025 15:44:51 GMT-0600 (Central Standard Time),242995.29999995232,139_m_f_h_a.png,O,m,1253,15,1,2273.5999999046326,240721.70000004768,7722,VNB,A,14
12,test,1,0.0,1-Back,0.0,m,Mon Dec 15 2025 15:44:51 GMT-0600 (Central Standard Time),245578.0,165_m_m_d_a.png,O,z,1554,16,1,2572.399999976158,243005.60000002384,7722,VNB,A,15
13,test,1,0.0,1-Back,1.0,m,Mon Dec 15 2025 15:44:51 GMT-0600 (Central Standard Time),247693.0,109_y_m_n_a.png,O,m,1090,17,1,2099.899999976158,245593.10000002384,7722,VNB,A,16
14,test,1,0.0,1-Back,1.0,m,Mon Dec 15 2025 15:44:51 GMT-0600 (Central Standard Time),250308.79999995232,124_o_f_h_a.png,O,m,1591,18,1,2605.1999999284744,247703.60000002384,7722,VNB,A,17
0,test,2,0.0,1-Back,,,Mon Dec 15 2025 15:44:51 GMT-0600 (Central Standard Time),250308.79999995232,109_y_m_n_a.png,O,space,1125,1,1,2605.1999999284744,247703.60000002384,7722,VNB,A,0
1,test,2,0.0,1-Back,1.0,m,Mon Dec 15 2025 15:44:51 GMT-0600 (Central Standard Time),255940.70000004768,071_y_f_h_a.png,O,m,1450,2,1,2472.100000023842,253468.60000002384,7722,VNB,A,1
2,test,2,1.0,1-Back,1.0,m,Mon Dec 15 2025 15:44:51 GMT-0600 (Central Standard Time),258189.70000004768,039_o_m_n_a.png,O,m,1222,3,1,2238.3000000715256,255951.39999997616,7722,VNB,A,2
2,test,2,0.0,1-Back,0.0,m,Mon Dec 15 2025 15:44:51 GMT-0600 (Central Standard Time),260104.89999997616,139_m_f_d_a.png,O,z,893,4,1,1904.5,258200.39999997616,7722,VNB,A,3
3,test,2,0.0,1-Back,1.0,z,Mon Dec 15 2025 15:44:51 GMT-0600 (Central Standard Time),262255.60000002384,165_m_m_d_a.png,O,z,1117,5,1,2140.3000000715256,260115.29999995232,7722,VNB,A,4
4,test,2,0.0,1-Back,1.0,m,Mon Dec 15 2025 15:44:51 GMT-0600 (Central Standard Time),264104.2999999523,109_y_m_h_a.png,O,m,820,6,1,1838.7999999523163,262265.5,7722,VNB,A,5
4,test,2,1.0,1-Back,0.0,z,Mon Dec 15 2025 15:44:51 GMT-0600 (Central Standard Time),265952.10000002384,124_o_f_h_a.png,O,m,827,7,1,1838.5,264113.60000002384,7722,VNB,A,6
4,test,2,0.0,1-Back,0.0,m,Mon Dec 15 2025 15:44:51 GMT-0600 (Central Standard Time),268985.7999999523,139_m_f_n_a.png,O,None,2015,8,1,3022.5999999046326,265963.2000000477,7722,VNB,A,7
5,test,2,0.0,1-Back,1.0,m,Mon Dec 15 2025 15:44:51 GMT-0600 (Central Standard Time),271100.0,071_y_f_d_a.png,O,m,1097,9,1,2102.7999999523163,268997.2000000477,7722,VNB,A,8
6,test,2,0.0,1-Back,1.0,m,Mon Dec 15 2025 15:44:51 GMT-0600 (Central Standard Time),273616.89999997616,165_m_m_n_a.png,O,m,1485,10,1,2509.0,271107.89999997616,7722,VNB,A,9
7,test,2,1.0,1-Back,1.0,m,Mon Dec 15 2025 15:44:51 GMT-0600 (Central Standard Time),276066.7999999523,139_m_f_h_a.png,O,m,1416,11,1,2439.1999999284744,273627.60000002384,7722,VNB,A,10
8,test,2,0.0,1-Back,1.0,z,Mon Dec 15 2025 15:44:51 GMT-0600 (Central Standard Time),278132.39999997616,039_o_m_h_a.png,O,z,1039,12,1,2054.6999999284744,276077.7000000477,7722,VNB,A,11
9,test,2,0.0,1-Back,1.0,m,Mon Dec 15 2025 15:44:51 GMT-0600 (Central Standard Time),279931.2000000477,109_y_m_d_a.png,O,m,783,13,1,1790.7000000476837,278140.5,7722,VNB,A,12
10,test,2,0.0,1-Back,1.0,m,Mon Dec 15 2025 15:44:51 GMT-0600 (Central Standard Time),282348.60000002384,124_o_f_n_a.png,O,m,1398,14,1,2411.399999976158,279937.2000000477,7722,VNB,A,13
11,test,2,0.0,1-Back,1.0,z,Mon Dec 15 2025 15:44:51 GMT-0600 (Central Standard Time),284448.60000002384,071_y_f_n_a.png,O,z,1070,15,1,2091.600000023842,282357.0,7722,VNB,A,14
12,test,2,1.0,1-Back,1.0,m,Mon Dec 15 2025 15:44:51 GMT-0600 (Central Standard Time),286612.7000000477,165_m_m_h_a.png,O,m,1146,16,1,2153.4000000953674,284459.2999999523,7722,VNB,A,15
12,test,2,0.0,1-Back,0.0,m,Mon Dec 15 2025 15:44:51 GMT-0600 (Central Standard Time),288814.5,124_o_f_d_a.png,O,z,1173,17,1,2193.0,286621.5,7722,VNB,A,16
13,test,2,1.0,1-Back,1.0,z,Mon Dec 15 2025 15:44:51 GMT-0600 (Central Standard Time),290961.5,039_o_m_d_a.png,O,z,1125,18,1,2137.5,288824.0,7722,VNB,A,17
0,test,3,1.0,1-Back,,,Mon Dec 15 2025 15:44:51 GMT-0600 (Central Standard Time),290961.5,124_o_f_h_a.png,O,space,970,1,1,2137.5,288824.0,7722,VNB,A,0
1,test,3,0.0,1-Back,1.0,m,Mon Dec 15 2025 15:44:51 GMT-0600 (Central Standard Time),295811.10000002384,139_m_f_d_a.png,O,m,800,2,1,1804.5,294006.60000002384,7722,VNB,A,1
2,test,3,1.0,1-Back,1.0,m,Mon Dec 15 2025 15:44:51 GMT-0600 (Central Standard Time),298311.5,165_m_m_n_a.png,O,m,1483,3,1,2491.100000023842,295820.39999997616,7722,VNB,A,2
3,test,3,0.0,1-Back,1.0,z,Mon Dec 15 2025 15:44:51 GMT-0600 (Central Standard Time),300375.60000002384,124_o_f_n_a.png,O,z,1036,4,1,2054.5,298321.10000002384,7722,VNB,A,3
4,test,3,1.0,1-Back,1.0,m,Mon Dec 15 2025 15:44:51 GMT-0600 (Central Standard Time),302791.7999999523,039_o_m_d_a.png,O,m,1386,5,1,2406.399999976158,300385.39999997616,7722,VNB,A,4
5,test,3,0.0,1-Back,1.0,m,Mon Dec 15 2025 15:44:51 GMT-0600 (Central Standard Time),304959.2999999523,071_y_f_h_a.png,O,m,1150,6,1,2156.1999999284744,302803.10000002384,7722,VNB,A,5
6,test,3,0.0,1-Back,1.0,z,Mon Dec 15 2025 15:44:51 GMT-0600 (Central Standard Time),307325.0,109_y_m_h_a.png,O,z,1333,7,1,2354.5,304970.5,7722,VNB,A,6
7,test,3,0.0,1-Back,1.0,m,Mon Dec 15 2025 15:44:51 GMT-0600 (Central Standard Time),309139.39999997616,139_m_f_n_a.png,O,m,789,8,1,1803.6999999284744,307335.7000000477,7722,VNB,A,7
8,test,3,0.0,1-Back,1.0,m,Mon Dec 15 2025 15:44:51 GMT-0600 (Central Standard Time),311506.10000002384,071_y_f_d_a.png,O,m,1344,9,1,2356.7000000476837,309149.39999997616,7722,VNB,A,8
9,test,3,1.0,1-Back,1.0,m,Mon Dec 15 2025 15:44:51 GMT-0600 (Central Standard Time),314388.2999999523,039_o_m_n_a.png,O,m,1858,10,1,2872.6999999284744,311515.60000002384,7722,VNB,A,9
10,test,3,0.0,1-Back,1.0,m,Mon Dec 15 2025 15:44:51 GMT-0600 (Central Standard Time),317106.7000000477,165_m_m_h_a.png,O,m,1686,11,1,2708.5,314398.2000000477,7722,VNB,A,10
11,test,3,0.0,1-Back,1.0,z,Mon Dec 15 2025 15:44:51 GMT-0600 (Central Standard Time),319735.60000002384,139_m_f_h_a.png,O,z,1605,12,1,2620.3000000715256,317115.2999999523,7722,VNB,A,11
12,test,3,1.0,1-Back,1.0,m,Mon Dec 15 2025 15:44:51 GMT-0600 (Central Standard Time),321570.7999999523,124_o_f_d_a.png,O,m,802,13,1,1826.2999999523163,319744.5,7722,VNB,A,12
13,test,3,0.0,1-Back,1.0,z,Mon Dec 15 2025 15:44:51 GMT-0600 (Central Standard Time),324052.2000000477,165_m_m_d_a.png,O,z,1457,14,1,2470.4000000953674,321581.7999999523,7722,VNB,A,13
14,test,3,0.0,1-Back,1.0,m,Mon Dec 15 2025 15:44:51 GMT-0600 (Central Standard Time),326033.60000002384,109_y_m_n_a.png,O,m,950,15,1,1969.8999999761581,324063.7000000477,7722,VNB,A,14
15,test,3,1.0,1-Back,1.0,m,Mon Dec 15 2025 15:44:51 GMT-0600 (Central Standard Time),328166.2000000477,039_o_m_h_a.png,O,m,1112,16,1,2123.100000023842,326043.10000002384,7722,VNB,A,15
16,test,3,0.0,1-Back,1.0,m,Mon Dec 15 2025 15:44:51 GMT-0600 (Central Standard Time),330617.10000002384,109_y_m_d_a.png,O,m,1428,17,1,2442.5,328174.60000002384,7722,VNB,A,16
17,test,3,1.0,1-Back,1.0,m,Mon Dec 15 2025 15:44:51 GMT-0600 (Central Standard Time),332882.2999999523,071_y_f_n_a.png,O,m,1243,18,1,2257.0999999046326,330625.2000000477,7722,VNB,A,17
0,test,4,1.0,1-Back,,,Mon Dec 15 2025 15:44:51 GMT-0600 (Central Standard Time),332882.2999999523,165_m_m_d_a.png,O,space,873,1,1,2257.0999999046326,330625.2000000477,7722,VNB,A,0
1,test,4,0.0,1-Back,1.0,z,Mon Dec 15 2025 15:44:51 GMT-0600 (Central Standard Time),338396.7000000477,039_o_m_d_a.png,O,z,1597,2,1,2606.100000023842,335790.60000002384,7722,VNB,A,1
2,test,4,0.0,1-Back,1.0,m,Mon Dec 15 2025 15:44:51 GMT-0600 (Central Standard Time),340461.89999997616,109_y_m_h_a.png,O,m,1046,3,1,2058.5,338403.39999997616,7722,VNB,A,2
3,test,4,0.0,1-Back,1.0,m,Mon Dec 15 2025 15:44:51 GMT-0600 (Central Standard Time),342478.60000002384,139_m_f_n_a.png,O,m,988,4,1,2006.2000000476837,340472.39999997616,7722,VNB,A,3
4,test,4,1.0,1-Back,1.0,m,Mon Dec 15 2025 15:44:51 GMT-0600 (Central Standard Time),344746.2000000477,124_o_f_h_a.png,O,m,1234,5,1,2256.100000023842,342490.10000002384,7722,VNB,A,4
5,test,4,0.0,1-Back,1.0,m,Mon Dec 15 2025 15:44:51 GMT-0600 (Central Standard Time),346544.2999999523,165_m_m_n_a.png,O,m,769,6,1,1786.7999999523163,344757.5,7722,VNB,A,5
6,test,4,0.0,1-Back,1.0,m,Mon Dec 15 2025 15:44:51 GMT-0600 (Central Standard Time),348610.10000002384,109_y_m_d_a.png,O,m,1041,7,1,2054.7000000476837,346555.39999997616,7722,VNB,A,6
7,test,4,1.0,1-Back,1.0,z,Mon Dec 15 2025 15:44:51 GMT-0600 (Central Standard Time),350543.2000000477,071_y_f_d_a.png,O,z,904,8,1,1924.7000000476837,348618.5,7722,VNB,A,7
8,test,4,0.0,1-Back,1.0,m,Mon Dec 15 2025 15:44:51 GMT-0600 (Central Standard Time),352429.5,139_m_f_h_a.png,O,m,851,9,1,1876.6000000238419,350552.89999997616,7722,VNB,A,8
9,test,4,0.0,1-Back,1.0,z,Mon Dec 15 2025 15:44:51 GMT-0600 (Central Standard Time),354526.39999997616,039_o_m_h_a.png,O,z,1055,10,1,2083.600000023842,352442.7999999523,7722,VNB,A,9
10,test,4,1.0,1-Back,1.0,m,Mon Dec 15 2025 15:44:51 GMT-0600 (Central Standard Time),356574.7999999523,124_o_f_n_a.png,O,m,1029,11,1,2035.5999999046326,354539.2000000477,7722,VNB,A,10
11,test,4,0.0,1-Back,1.0,m,Mon Dec 15 2025 15:44:51 GMT-0600 (Central Standard Time),358626.7000000477,139_m_f_d_a.png,O,m,1029,12,1,2041.1000000238419,356585.60000002384,7722,VNB,A,11
11,test,4,0.0,1-Back,0.0,m,Mon Dec 15 2025 15:44:51 GMT-0600 (Central Standard Time),360874.2000000477,071_y_f_n_a.png,O,z,1210,13,1,2234.5,358639.7000000477,7722,VNB,A,12
12,test,4,0.0,1-Back,1.0,m,Mon Dec 15 2025 15:44:51 GMT-0600 (Central Standard Time),362689.2999999523,124_o_f_d_a.png,O,m,794,14,1,1803.0999999046326,360886.2000000477,7722,VNB,A,13
13,test,4,0.0,1-Back,1.0,m,Mon Dec 15 2025 15:44:51 GMT-0600 (Central Standard Time),365271.5,071_y_f_h_a.png,O,m,1552,15,1,2569.7999999523163,362701.7000000477,7722,VNB,A,14
14,test,4,1.0,1-Back,1.0,z,Mon Dec 15 2025 15:44:51 GMT-0600 (Central Standard Time),367304.7999999523,165_m_m_h_a.png,O,z,1011,16,1,2023.6999999284744,365281.10000002384,7722,VNB,A,15
15,test,4,0.0,1-Back,1.0,m,Mon Dec 15 2025 15:44:51 GMT-0600 (Central Standard Time),369320.0,039_o_m_n_a.png,O,m,987,17,1,2003.2999999523163,367316.7000000477,7722,VNB,A,16
16,test,4,1.0,1-Back,1.0,z,Mon Dec 15 2025 15:44:51 GMT-0600 (Central Standard Time),371269.7999999523,109_y_m_n_a.png,O,z,930,18,1,1937.5,369332.2999999523,7722,VNB,A,17
0,test,5,1.0,1-Back,,,Mon Dec 15 2025 15:44:51 GMT-0600 (Central Standard Time),371269.7999999523,039_o_m_n_a.png,O,space,948,1,1,1937.5,369332.2999999523,7722,VNB,A,0
0,test,5,1.0,1-Back,0.0,m,Mon Dec 15 2025 15:44:51 GMT-0600 (Central Standard Time),376522.39999997616,124_o_f_h_a.png,O,z,1246,2,1,2259.600000023842,374262.7999999523,7722,VNB,A,1
1,test,5,0.0,1-Back,1.0,m,Mon Dec 15 2025 15:44:51 GMT-0600 (Central Standard Time),378951.2000000477,109_y_m_d_a.png,O,m,1406,3,1,2418.5,376532.7000000477,7722,VNB,A,2
2,test,5,0.0,1-Back,1.0,z,Mon Dec 15 2025 15:44:51 GMT-0600 (Central Standard Time),380900.89999997616,039_o_m_d_a.png,O,z,934,4,1,1939.3999999761581,378961.5,7722,VNB,A,3
3,test,5,0.0,1-Back,1.0,m,Mon Dec 15 2025 15:44:51 GMT-0600 (Central Standard Time),382849.60000002384,139_m_f_h_a.png,O,m,919,5,1,1941.2000000476837,380908.39999997616,7722,VNB,A,4
4,test,5,0.0,1-Back,1.0,m,Mon Dec 15 2025 15:44:51 GMT-0600 (Central Standard Time),384782.39999997616,071_y_f_n_a.png,O,m,912,6,1,1920.5,382861.89999997616,7722,VNB,A,5
5,test,5,1.0,1-Back,1.0,z,Mon Dec 15 2025 15:44:51 GMT-0600 (Central Standard Time),386732.5,124_o_f_n_a.png,O,z,933,7,1,1940.1000000238419,384792.39999997616,7722,VNB,A,6
6,test,5,0.0,1-Back,1.0,m,Mon Dec 15 2025 15:44:51 GMT-0600 (Central Standard Time),388680.89999997616,139_m_f_d_a.png,O,m,917,8,1,1937.7999999523163,386743.10000002384,7722,VNB,A,7
7,test,5,0.0,1-Back,1.0,m,Mon Dec 15 2025 15:44:51 GMT-0600 (Central Standard Time),391197.89999997616,109_y_m_h_a.png,O,m,1489,9,1,2506.2999999523163,388691.60000002384,7722,VNB,A,8
8,test,5,0.0,1-Back,1.0,m,Mon Dec 15 2025 15:44:51 GMT-0600 (Central Standard Time),393312.7999999523,071_y_f_d_a.png,O,m,1086,10,1,2103.0999999046326,391209.7000000477,7722,VNB,A,9
9,test,5,0.0,1-Back,1.0,m,Mon Dec 15 2025 15:44:51 GMT-0600 (Central Standard Time),395594.89999997616,165_m_m_n_a.png,O,m,1257,11,1,2272.0,393322.89999997616,7722,VNB,A,10
10,test,5,1.0,1-Back,1.0,z,Mon Dec 15 2025 15:44:51 GMT-0600 (Central Standard Time),398096.0,139_m_f_n_a.png,O,z,1472,12,1,2491.2999999523163,395604.7000000477,7722,VNB,A,11
11,test,5,0.0,1-Back,1.0,m,Mon Dec 15 2025 15:44:51 GMT-0600 (Central Standard Time),400078.89999997616,039_o_m_h_a.png,O,m,958,13,1,1973.2999999523163,398105.60000002384,7722,VNB,A,12
11,test,5,0.0,1-Back,0.0,z,Mon Dec 15 2025 15:44:51 GMT-0600 (Central Standard Time),402877.2000000477,165_m_m_h_a.png,O,m,1775,14,1,2787.7000000476837,400089.5,7722,VNB,A,13
12,test,5,1.0,1-Back,1.0,m,Mon Dec 15 2025 15:44:51 GMT-0600 (Central Standard Time),405642.2999999523,124_o_f_d_a.png,O,m,1733,15,1,2755.1999999284744,402887.10000002384,7722,VNB,A,14
13,test,5,0.0,1-Back,1.0,m,Mon Dec 15 2025 15:44:51 GMT-0600 (Central Standard Time),407875.2999999523,109_y_m_n_a.png,O,m,1216,16,1,2223.399999976158,405651.89999997616,7722,VNB,A,15
14,test,5,0.0,1-Back,1.0,m,Mon Dec 15 2025 15:44:51 GMT-0600 (Central Standard Time),409791.89999997616,071_y_f_h_a.png,O,m,896,17,1,1906.5,407885.39999997616,7722,VNB,A,16
15,test,5,0.0,1-Back,1.0,m,Mon Dec 15 2025 15:44:51 GMT-0600 (Central Standard Time),412007.5,165_m_m_d_a.png,O,m,1197,18,1,2205.0,409802.5,7722,VNB,A,17
0,prac,1,0.0,2-Back,,,Mon Dec 15 2025 15:44:51 GMT-0600 (Central Standard Time),412007.5,139_m_f_n_a.png,O,space,4330,1,1,2205.0,409802.5,7722,VNB,A,0
0,prac,1,0.0,2-Back,,,Mon Dec 15 2025 15:44:51 GMT-0600 (Central Standard Time),412007.5,124_o_f_h_a.png,O,space,4330,2,1,2205.0,409802.5,7722,VNB,A,0
1,prac,1,0.0,2-Back,1.0,m,Mon Dec 15 2025 15:44:51 GMT-0600 (Central Standard Time),540915.7999999523,039_o_m_d_a.png,O,m,1517,3,1,2302.6999999284744,538613.1000000238,7722,VNB,A,1
1,prac,1,1.0,2-Back,0.0,z,Mon Dec 15 2025 15:44:51 GMT-0600 (Central Standard Time),543182.6000000238,165_m_m_h_a.png,O,m,1478,4,1,2255.8000000715256,540926.7999999523,7722,VNB,A,2
2,prac,1,0.0,2-Back,1.0,m,Mon Dec 15 2025 15:44:51 GMT-0600 (Central Standard Time),545384.7999999523,071_y_f_n_a.png,O,m,1395,5,1,2183.5999999046326,543201.2000000477,7722,VNB,A,3
3,prac,1,1.0,2-Back,1.0,z,Mon Dec 15 2025 15:44:51 GMT-0600 (Central Standard Time),548114.6000000238,039_o_m_h_a.png,O,z,1941,6,1,2722.600000023842,545392.0,7722,VNB,A,4
4,prac,1,1.0,2-Back,1.0,z,Mon Dec 15 2025 15:44:51 GMT-0600 (Central Standard Time),550546.7000000477,109_y_m_n_a.png,O,z,1619,7,1,2421.0,548125.7000000477,7722,VNB,A,5
4,prac,1,0.0,2-Back,0.0,m,Mon Dec 15 2025 15:44:51 GMT-0600 (Central Standard Time),553345.2000000477,139_m_f_d_a.png,O,None,2001,8,1,2787.5,550557.7000000477,7722,VNB,A,6
5,prac,1,0.0,2-Back,1.0,m,Mon Dec 15 2025 15:44:51 GMT-0600 (Central Standard Time),554178.3999999762,124_o_f_d_a.png,O,m,14,9,1,820.8999999761581,553357.5,7722,VNB,A,7
5,prac,1,0.0,2-Back,0.0,m,Mon Dec 15 2025 15:44:51 GMT-0600 (Central Standard Time),556962.3999999762,165_m_m_h_a.png,O,None,2009,10,1,2776.5,554185.8999999762,7722,VNB,A,8
5,prac,1,1.0,2-Back,0.0,z,Mon Dec 15 2025 15:44:51 GMT-0600 (Central Standard Time),559777.6000000238,071_y_f_d_a.png,O,None,2013,11,1,2802.600000023842,556975.0,7722,VNB,A,9
5,prac,1,0.0,2-Back,0.0,m,Mon Dec 15 2025 15:44:51 GMT-0600 (Central Standard Time),562160.7000000477,039_o_m_n_a.png,O,z,1564,12,1,2370.2000000476837,559790.5,7722,VNB,A,10
0,prac,2,0.0,2-Back,,,Mon Dec 15 2025 15:44:51 GMT-0600 (Central Standard Time),562160.7000000477,139_m_f_n_a.png,O,a,2454,1,1,2370.2000000476837,559790.5,7722,VNB,A,0
0,prac,2,0.0,2-Back,,,Mon Dec 15 2025 15:44:51 GMT-0600 (Central Standard Time),562160.7000000477,124_o_f_h_a.png,O,a,2454,2,1,2370.2000000476837,559790.5,7722,VNB,A,0
1,prac,2,0.0,2-Back,1.0,m,Mon Dec 15 2025 15:44:51 GMT-0600 (Central Standard Time),571857.3999999762,039_o_m_d_a.png,O,m,1328,3,1,2123.600000023842,569733.7999999523,7722,VNB,A,1
1,prac,2,1.0,2-Back,0.0,z,Mon Dec 15 2025 15:44:51 GMT-0600 (Central Standard Time),574154.7999999523,165_m_m_h_a.png,O,m,1517,4,1,2284.899999976158,571869.8999999762,7722,VNB,A,2
1,prac,2,0.0,2-Back,0.0,m,Mon Dec 15 2025 15:44:51 GMT-0600 (Central Standard Time),576005.5,071_y_f_n_a.png,O,z,1050,5,1,1840.2000000476837,574165.2999999523,7722,VNB,A,3
2,prac,2,1.0,2-Back,1.0,z,Mon Dec 15 2025 15:44:51 GMT-0600 (Central Standard Time),578287.6000000238,039_o_m_h_a.png,O,z,1475,6,1,2268.8000000715256,576018.7999999523,7722,VNB,A,4
2,prac,2,1.0,2-Back,0.0,z,Mon Dec 15 2025 15:44:51 GMT-0600 (Central Standard Time),580970.3999999762,109_y_m_n_a.png,O,m,1867,7,1,2672.5,578297.8999999762,7722,VNB,A,5
3,prac,2,0.0,2-Back,1.0,m,Mon Dec 15 2025 15:44:51 GMT-0600 (Central Standard Time),583252.7000000477,139_m_f_d_a.png,O,m,1469,8,1,2270.0,580982.7000000477,7722,VNB,A,6
3,prac,2,0.0,2-Back,0.0,m,Mon Dec 15 2025 15:44:51 GMT-0600 (Central Standard Time),585551.5,124_o_f_d_a.png,O,z,1468,9,1,2287.100000023842,583264.3999999762,7722,VNB,A,7
3,prac,2,0.0,2-Back,0.0,m,Mon Dec 15 2025 15:44:51 GMT-0600 (Central Standard Time),587668.8999999762,165_m_m_h_a.png,O,z,1338,10,1,2105.100000023842,585563.7999999523,7722,VNB,A,8
3,prac,2,1.0,2-Back,0.0,z,Mon Dec 15 2025 15:44:51 GMT-0600 (Central Standard Time),589833.7999999523,071_y_f_d_a.png,O,m,1350,11,1,2153.2999999523163,587680.5,7722,VNB,A,9
4,prac,2,0.0,2-Back,1.0,m,Mon Dec 15 2025 15:44:51 GMT-0600 (Central Standard Time),592066.7999999523,039_o_m_n_a.png,O,m,1425,12,1,2222.0999999046326,589844.7000000477,7722,VNB,A,10
0,test,1,0.0,2-Back,,,Mon Dec 15 2025 15:44:51 GMT-0600 (Central Standard Time),592066.7999999523,109_y_m_h_a.png,O,space,2942,1,1,2222.0999999046326,589844.7000000477,7722,VNB,A,0
0,test,1,0.0,2-Back,,,Mon Dec 15 2025 15:44:51 GMT-0600 (Central Standard Time),592066.7999999523,124_o_f_n_a.png,O,space,2942,2,1,2222.0999999046326,589844.7000000477,7722,VNB,A,0
1,test,1,0.0,2-Back,1.0,z,Mon Dec 15 2025 15:44:51 GMT-0600 (Central Standard Time),607277.7999999523,039_o_m_h_a.png,O,z,1351,3,1,2372.1999999284744,604905.6000000238,7722,VNB,A,1
2,test,1,0.0,2-Back,1.0,m,Mon Dec 15 2025 15:44:51 GMT-0600 (Central Standard Time),609376.8999999762,139_m_f_d_a.png,O,m,1077,4,1,2088.100000023842,607288.7999999523,7722,VNB,A,2
2,test,1,1.0,2-Back,0.0,m,Mon Dec 15 2025 15:44:51 GMT-0600 (Central Standard Time),612342.8999999762,109_y_m_n_a.png,O,z,1937,5,1,2955.1999999284744,609387.7000000477,7722,VNB,A,3
3,test,1,0.0,2-Back,1.0,z,Mon Dec 15 2025 15:44:51 GMT-0600 (Central Standard Time),615078.5,071_y_f_d_a.png,O,z,1699,6,1,2723.7999999523163,612354.7000000477,7722,VNB,A,4
4,test,1,0.0,2-Back,1.0,m,Mon Dec 15 2025 15:44:51 GMT-0600 (Central Standard Time),617674.3999999762,165_m_m_h_a.png,O,m,1566,7,1,2585.399999976158,615089.0,7722,VNB,A,5
5,test,1,1.0,2-Back,1.0,m,Mon Dec 15 2025 15:44:51 GMT-0600 (Central Standard Time),620524.1000000238,071_y_f_n_a.png,O,m,1823,8,1,2843.3000000715256,617680.7999999523,7722,VNB,A,6
5,test,1,0.0,2-Back,0.0,z,Mon Dec 15 2025 15:44:51 GMT-0600 (Central Standard Time),623555.7999999523,124_o_f_h_a.png,O,None,2015,9,1,3021.0,620534.7999999523,7722,VNB,A,7
6,test,1,0.0,2-Back,1.0,m,Mon Dec 15 2025 15:44:51 GMT-0600 (Central Standard Time),626005.2000000477,039_o_m_d_a.png,O,m,1422,10,1,2438.3000000715256,623566.8999999762,7722,VNB,A,8
6,test,1,1.0,2-Back,0.0,m,Mon Dec 15 2025 15:44:51 GMT-0600 (Central Standard Time),628088.2999999523,165_m_m_d_a.png,O,z,1053,11,1,2072.399999976158,626015.8999999762,7722,VNB,A,9
7,test,1,0.0,2-Back,1.0,m,Mon Dec 15 2025 15:44:51 GMT-0600 (Central Standard Time),630554.2999999523,139_m_f_n_a.png,O,m,1434,12,1,2455.399999976158,628098.8999999762,7722,VNB,A,10
8,test,1,0.0,2-Back,1.0,m,Mon Dec 15 2025 15:44:51 GMT-0600 (Central Standard Time),633221.7999999523,071_y_f_h_a.png,O,m,1649,13,1,2656.2999999523163,630565.5,7722,VNB,A,11
9,test,1,0.0,2-Back,1.0,z,Mon Dec 15 2025 15:44:51 GMT-0600 (Central Standard Time),635903.2000000477,165_m_m_n_a.png,O,z,1664,14,1,2668.9000000953674,633234.2999999523,7722,VNB,A,12
9,test,1,0.0,2-Back,0.0,m,Mon Dec 15 2025 15:44:51 GMT-0600 (Central Standard Time),638922.3999999762,109_y_m_d_a.png,O,None,2003,15,1,3007.0,635915.3999999762,7722,VNB,A,13
10,test,1,1.0,2-Back,1.0,m,Mon Dec 15 2025 15:44:51 GMT-0600 (Central Standard Time),641117.3999999762,139_m_f_h_a.png,O,m,1173,16,1,2188.2999999523163,638929.1000000238,7722,VNB,A,14
10,test,1,0.0,2-Back,0.0,z,Mon Dec 15 2025 15:44:51 GMT-0600 (Central Standard Time),643488.6000000238,124_o_f_d_a.png,O,m,1352,17,1,2361.2000000476837,641127.3999999762,7722,VNB,A,15
10,test,1,0.0,2-Back,0.0,m,Mon Dec 15 2025 15:44:51 GMT-0600 (Central Standard Time),645866.8999999762,039_o_m_n_a.png,O,z,1351,18,1,2365.7999999523163,643501.1000000238,7722,VNB,A,16
0,test,2,0.0,2-Back,,,Mon Dec 15 2025 15:44:51 GMT-0600 (Central Standard Time),645866.8999999762,165_m_m_h_a.png,O,space,967,1,1,2365.7999999523163,643501.1000000238,7722,VNB,A,0
0,test,2,0.0,2-Back,,,Mon Dec 15 2025 15:44:51 GMT-0600 (Central Standard Time),645866.8999999762,071_y_f_n_a.png,O,space,967,2,1,2365.7999999523163,643501.1000000238,7722,VNB,A,0
1,test,2,1.0,2-Back,1.0,z,Mon Dec 15 2025 15:44:51 GMT-0600 (Central Standard Time),654330.0,124_o_f_h_a.png,O,z,1367,3,1,2389.5,651940.5,7722,VNB,A,1
1,test,2,0.0,2-Back,0.0,m,Mon Dec 15 2025 15:44:51 GMT-0600 (Central Standard Time),657362.1000000238,039_o_m_d_a.png,O,None,2015,4,1,3023.2000000476837,654338.8999999762,7722,VNB,A,2
1,test,2,0.0,2-Back,0.0,m,Mon Dec 15 2025 15:44:51 GMT-0600 (Central Standard Time),659728.7000000477,139_m_f_d_a.png,O,z,1337,5,1,2357.3000000715256,657371.3999999762,7722,VNB,A,3
1,test,2,0.0,2-Back,0.0,m,Mon Dec 15 2025 15:44:51 GMT-0600 (Central Standard Time),661677.7000000477,109_y_m_h_a.png,O,z,930,6,1,1938.4000000953674,659739.2999999523,7722,VNB,A,4
1,test,2,0.0,2-Back,0.0,m,Mon Dec 15 2025 15:44:51 GMT-0600 (Central Standard Time),664709.0,124_o_f_n_a.png,O,None,2013,7,1,3020.5,661688.5,7722,VNB,A,5
2,test,2,1.0,2-Back,1.0,z,Mon Dec 15 2025 15:44:51 GMT-0600 (Central Standard Time),666942.2999999523,039_o_m_h_a.png,O,z,1205,8,1,2225.5,664716.7999999523,7722,VNB,A,6
2,test,2,0.0,2-Back,0.0,m,Mon Dec 15 2025 15:44:51 GMT-0600 (Central Standard Time),669341.5,071_y_f_d_a.png,O,z,1382,9,1,2388.100000023842,666953.3999999762,7722,VNB,A,7
3,test,2,0.0,2-Back,1.0,m,Mon Dec 15 2025 15:44:51 GMT-0600 (Central Standard Time),671923.8999999762,109_y_m_d_a.png,O,m,1564,10,1,2572.7999999523163,669351.1000000238,7722,VNB,A,8
4,test,2,0.0,2-Back,1.0,m,Mon Dec 15 2025 15:44:51 GMT-0600 (Central Standard Time),674790.2999999523,165_m_m_n_a.png,O,m,1837,11,1,2857.1999999284744,671933.1000000238,7722,VNB,A,9
5,test,2,0.0,2-Back,1.0,m,Mon Dec 15 2025 15:44:51 GMT-0600 (Central Standard Time),676988.7999999523,139_m_f_h_a.png,O,m,1172,12,1,2188.5,674800.2999999523,7722,VNB,A,10
6,test,2,1.0,2-Back,1.0,z,Mon Dec 15 2025 15:44:51 GMT-0600 (Central Standard Time),679323.1000000238,039_o_m_n_a.png,O,z,1301,13,1,2323.600000023842,676999.5,7722,VNB,A,11
6,test,2,0.0,2-Back,0.0,m,Mon Dec 15 2025 15:44:51 GMT-0600 (Central Standard Time),681921.8999999762,124_o_f_d_a.png,O,z,1577,14,1,2588.7999999523163,679333.1000000238,7722,VNB,A,12
7,test,2,0.0,2-Back,1.0,m,Mon Dec 15 2025 15:44:51 GMT-0600 (Central Standard Time),684336.2000000477,071_y_f_h_a.png,O,m,1385,15,1,2404.100000023842,681932.1000000238,7722,VNB,A,13
7,test,2,0.0,2-Back,0.0,z,Mon Dec 15 2025 15:44:51 GMT-0600 (Central Standard Time),687086.5,165_m_m_d_a.png,O,m,1731,16,1,2738.7999999523163,684347.7000000477,7722,VNB,A,14
7,test,2,0.0,2-Back,0.0,m,Mon Dec 15 2025 15:44:51 GMT-0600 (Central Standard Time),690119.3999999762,109_y_m_n_a.png,O,None,2015,17,1,3022.100000023842,687097.2999999523,7722,VNB,A,15
8,test,2,1.0,2-Back,1.0,m,Mon Dec 15 2025 15:44:51 GMT-0600 (Central Standard Time),692767.8999999762,139_m_f_n_a.png,O,m,1630,18,1,2637.6999999284744,690130.2000000477,7722,VNB,A,16
0,test,3,1.0,2-Back,,,Mon Dec 15 2025 15:44:51 GMT-0600 (Central Standard Time),692767.8999999762,039_o_m_n_a.png,O,space,971,1,1,2637.6999999284744,690130.2000000477,7722,VNB,A,0
0,test,3,1.0,2-Back,,,Mon Dec 15 2025 15:44:51 GMT-0600 (Central Standard Time),692767.8999999762,124_o_f_d_a.png,O,space,971,2,1,2637.6999999284744,690130.2000000477,7722,VNB,A,0
1,test,3,0.0,2-Back,1.0,m,Mon Dec 15 2025 15:44:51 GMT-0600 (Central Standard Time),700833.3999999762,071_y_f_h_a.png,O,m,1003,3,1,2023.6000000238419,698809.7999999523,7722,VNB,A,1
2,test,3,0.0,2-Back,1.0,z,Mon Dec 15 2025 15:44:51 GMT-0600 (Central Standard Time),703230.5,139_m_f_d_a.png,O,z,1371,4,1,2386.7999999523163,700843.7000000477,7722,VNB,A,2
2,test,3,1.0,2-Back,0.0,m,Mon Dec 15 2025 15:44:51 GMT-0600 (Central Standard Time),705713.2000000477,109_y_m_n_a.png,O,z,1448,5,1,2470.600000023842,703242.6000000238,7722,VNB,A,3
2,test,3,0.0,2-Back,0.0,m,Mon Dec 15 2025 15:44:51 GMT-0600 (Central Standard Time),708745.7000000477,039_o_m_h_a.png,O,None,2016,6,1,3022.5,705723.2000000477,7722,VNB,A,4
2,test,3,0.0,2-Back,0.0,z,Mon Dec 15 2025 15:44:51 GMT-0600 (Central Standard Time),710561.6000000238,071_y_f_n_a.png,O,m,793,7,1,1803.8999999761581,708757.7000000477,7722,VNB,A,5
3,test,3,1.0,2-Back,1.0,m,Mon Dec 15 2025 15:44:51 GMT-0600 (Central Standard Time),712628.8999999762,165_m_m_d_a.png,O,m,1041,8,1,2054.1999999284744,710574.7000000477,7722,VNB,A,6
4,test,3,0.0,2-Back,1.0,m,Mon Dec 15 2025 15:44:51 GMT-0600 (Central Standard Time),714993.8999999762,109_y_m_d_a.png,O,m,1334,9,1,2354.2999999523163,712639.6000000238,7722,VNB,A,7
5,test,3,0.0,2-Back,1.0,m,Mon Dec 15 2025 15:44:51 GMT-0600 (Central Standard Time),716943.7999999523,124_o_f_h_a.png,O,m,919,10,1,1943.2999999523163,715000.5,7722,VNB,A,8
6,test,3,1.0,2-Back,1.0,m,Mon Dec 15 2025 15:44:51 GMT-0600 (Central Standard Time),719326.3999999762,139_m_f_n_a.png,O,m,1365,11,1,2370.0,716956.3999999762,7722,VNB,A,9
7,test,3,1.0,2-Back,1.0,z,Mon Dec 15 2025 15:44:51 GMT-0600 (Central Standard Time),721808.1000000238,165_m_m_h_a.png,O,z,1461,12,1,2473.3000000715256,719334.7999999523,7722,VNB,A,10
7,test,3,0.0,2-Back,0.0,m,Mon Dec 15 2025 15:44:51 GMT-0600 (Central Standard Time),724524.6000000238,071_y_f_d_a.png,O,z,1691,13,1,2705.5,721819.1000000238,7722,VNB,A,11
8,test,3,0.0,2-Back,1.0,m,Mon Dec 15 2025 15:44:51 GMT-0600 (Central Standard Time),726441.7000000477,124_o_f_n_a.png,O,m,885,14,1,1907.0,724534.7000000477,7722,VNB,A,12
8,test,3,0.0,2-Back,0.0,z,Mon Dec 15 2025 15:44:51 GMT-0600 (Central Standard Time),728655.8999999762,039_o_m_d_a.png,O,m,1195,15,1,2203.6999999284744,726452.2000000477,7722,VNB,A,13
9,test,3,1.0,2-Back,1.0,m,Mon Dec 15 2025 15:44:51 GMT-0600 (Central Standard Time),730672.1000000238,139_m_f_h_a.png,O,m,994,16,1,2005.7000000476837,728666.3999999762,7722,VNB,A,14
10,test,3,0.0,2-Back,1.0,m,Mon Dec 15 2025 15:44:51 GMT-0600 (Central Standard Time),733455.3999999762,165_m_m_n_a.png,O,m,1754,17,1,2771.2999999523163,730684.1000000238,7722,VNB,A,15
11,test,3,0.0,2-Back,1.0,z,Mon Dec 15 2025 15:44:51 GMT-0600 (Central Standard Time),735304.2000000477,109_y_m_h_a.png,O,z,828,18,1,1838.5,733465.7000000477,7722,VNB,A,16
0,test,4,0.0,2-Back,,,Mon Dec 15 2025 15:44:51 GMT-0600 (Central Standard Time),735304.2000000477,139_m_f_n_a.png,O,space,1043,1,1,1838.5,733465.7000000477,7722,VNB,A,0
0,test,4,0.0,2-Back,,,Mon Dec 15 2025 15:44:51 GMT-0600 (Central Standard Time),735304.2000000477,039_o_m_n_a.png,O,space,1043,2,1,1838.5,733465.7000000477,7722,VNB,A,0
0,test,4,1.0,2-Back,0.0,m,Mon Dec 15 2025 15:44:51 GMT-0600 (Central Standard Time),744452.6000000238,109_y_m_h_a.png,O,None,2015,3,1,3020.3000000715256,741432.2999999523,7722,VNB,A,1
1,test,4,1.0,2-Back,1.0,m,Mon Dec 15 2025 15:44:51 GMT-0600 (Central Standard Time),746517.5,124_o_f_d_a.png,O,m,1040,4,1,2053.7999999523163,744463.7000000477,7722,VNB,A,2
2,test,4,0.0,2-Back,1.0,z,Mon Dec 15 2025 15:44:51 GMT-0600 (Central Standard Time),748983.3999999762,039_o_m_h_a.png,O,z,1444,5,1,2457.6999999284744,746525.7000000477,7722,VNB,A,3
3,test,4,0.0,2-Back,1.0,m,Mon Dec 15 2025 15:44:51 GMT-0600 (Central Standard Time),751533.7000000477,165_m_m_n_a.png,O,m,1523,6,1,2538.8000000715256,748994.8999999762,7722,VNB,A,4
4,test,4,0.0,2-Back,1.0,m,Mon Dec 15 2025 15:44:51 GMT-0600 (Central Standard Time),753515.5,139_m_f_d_a.png,O,m,950,7,1,1970.1000000238419,751545.3999999762,7722,VNB,A,5
5,test,4,0.0,2-Back,1.0,z,Mon Dec 15 2025 15:44:51 GMT-0600 (Central Standard Time),755754.7000000477,071_y_f_n_a.png,O,z,1199,8,1,2228.4000000953674,753526.2999999523,7722,VNB,A,6
5,test,4,1.0,2-Back,0.0,m,Mon Dec 15 2025 15:44:51 GMT-0600 (Central Standard Time),757896.7000000477,124_o_f_h_a.png,O,z,1112,9,1,2131.9000000953674,755764.7999999523,7722,VNB,A,7
5,test,4,0.0,2-Back,0.0,m,Mon Dec 15 2025 15:44:51 GMT-0600 (Central Standard Time),760646.2999999523,165_m_m_h_a.png,O,z,1729,10,1,2738.7999999523163,757907.5,7722,VNB,A,8
6,test,4,0.0,2-Back,1.0,m,Mon Dec 15 2025 15:44:51 GMT-0600 (Central Standard Time),762879.3999999762,071_y_f_d_a.png,O,m,1205,11,1,2222.5,760656.8999999762,7722,VNB,A,9
6,test,4,0.0,2-Back,0.0,m,Mon Dec 15 2025 15:44:51 GMT-0600 (Central Standard Time),765161.3999999762,109_y_m_n_a.png,O,z,1262,12,1,2271.399999976158,762890.0,7722,VNB,A,10
7,test,4,0.0,2-Back,1.0,z,Mon Dec 15 2025 15:44:51 GMT-0600 (Central Standard Time),767411.8999999762,039_o_m_d_a.png,O,z,1217,13,1,2238.6999999284744,765173.2000000477,7722,VNB,A,11
8,test,4,1.0,2-Back,1.0,m,Mon Dec 15 2025 15:44:51 GMT-0600 (Central Standard Time),770059.7999999523,139_m_f_h_a.png,O,m,1623,14,1,2638.5,767421.2999999523,7722,VNB,A,12
8,test,4,1.0,2-Back,0.0,m,Mon Dec 15 2025 15:44:51 GMT-0600 (Central Standard Time),772444.2999999523,071_y_f_h_a.png,O,z,1367,15,1,2374.2999999523163,770070.0,7722,VNB,A,13
8,test,4,0.0,2-Back,0.0,m,Mon Dec 15 2025 15:44:51 GMT-0600 (Central Standard Time),775475.2000000477,124_o_f_n_a.png,O,None,2015,16,1,3023.100000023842,772452.1000000238,7722,VNB,A,14
8,test,4,0.0,2-Back,0.0,m,Mon Dec 15 2025 15:44:51 GMT-0600 (Central Standard Time),778508.1000000238,109_y_m_d_a.png,O,None,2016,17,1,3021.0,775487.1000000238,7722,VNB,A,15
8,test,4,1.0,2-Back,0.0,m,Mon Dec 15 2025 15:44:51 GMT-0600 (Central Standard Time),781541.2000000477,165_m_m_d_a.png,O,None,2017,18,1,3023.0,778518.2000000477,7722,VNB,A,16
0,test,5,1.0,2-Back,,,Mon Dec 15 2025 15:44:51 GMT-0600 (Central Standard Time),781541.2000000477,071_y_f_d_a.png,O,space,1109,1,1,3023.0,778518.2000000477,7722,VNB,A,0
0,test,5,1.0,2-Back,,,Mon Dec 15 2025 15:44:51 GMT-0600 (Central Standard Time),781541.2000000477,124_o_f_h_a.png,O,space,1109,2,1,3023.0,778518.2000000477,7722,VNB,A,0
1,test,5,1.0,2-Back,1.0,z,Mon Dec 15 2025 15:44:51 GMT-0600 (Central Standard Time),789238.2000000477,039_o_m_d_a.png,O,z,456,3,1,1474.7000000476837,787763.5,7722,VNB,A,1
2,test,5,1.0,2-Back,1.0,m,Mon Dec 15 2025 15:44:51 GMT-0600 (Central Standard Time),791319.6000000238,139_m_f_n_a.png,O,m,1053,4,1,2070.2000000476837,789249.3999999762,7722,VNB,A,2
3,test,5,0.0,2-Back,1.0,m,Mon Dec 15 2025 15:44:51 GMT-0600 (Central Standard Time),793821.0,165_m_m_h_a.png,O,m,1469,5,1,2491.2000000476837,791329.7999999523,7722,VNB,A,3
4,test,5,0.0,2-Back,1.0,z,Mon Dec 15 2025 15:44:51 GMT-0600 (Central Standard Time),796368.1000000238,071_y_f_n_a.png,O,z,1517,6,1,2536.8000000715256,793831.2999999523,7722,VNB,A,4
4,test,5,0.0,2-Back,0.0,m,Mon Dec 15 2025 15:44:51 GMT-0600 (Central Standard Time),798852.7999999523,124_o_f_d_a.png,O,z,1451,7,1,2473.5999999046326,796379.2000000477,7722,VNB,A,5
4,test,5,0.0,2-Back,0.0,m,Mon Dec 15 2025 15:44:51 GMT-0600 (Central Standard Time),801350.2000000477,039_o_m_h_a.png,O,z,1479,8,1,2486.100000023842,798864.1000000238,7722,VNB,A,6
4,test,5,1.0,2-Back,0.0,z,Mon Dec 15 2025 15:44:51 GMT-0600 (Central Standard Time),803815.5,139_m_f_d_a.png,O,m,1438,9,1,2454.2999999523163,801361.2000000477,7722,VNB,A,7
4,test,5,0.0,2-Back,0.0,m,Mon Dec 15 2025 15:44:51 GMT-0600 (Central Standard Time),806332.1000000238,109_y_m_n_a.png,O,z,1491,10,1,2507.600000023842,803824.5,7722,VNB,A,8
5,test,5,0.0,2-Back,1.0,m,Mon Dec 15 2025 15:44:51 GMT-0600 (Central Standard Time),808964.7000000477,165_m_m_n_a.png,O,m,1599,11,1,2620.5,806344.2000000477,7722,VNB,A,9
6,test,5,0.0,2-Back,1.0,m,Mon Dec 15 2025 15:44:51 GMT-0600 (Central Standard Time),811399.0,071_y_f_h_a.png,O,m,1407,12,1,2422.0,808977.0,7722,VNB,A,10
6,test,5,0.0,2-Back,0.0,m,Mon Dec 15 2025 15:44:51 GMT-0600 (Central Standard Time),813196.7999999523,109_y_m_d_a.png,O,z,774,13,1,1786.0,811410.7999999523,7722,VNB,A,11
6,test,5,1.0,2-Back,0.0,z,Mon Dec 15 2025 15:44:51 GMT-0600 (Central Standard Time),815547.1000000238,139_m_f_h_a.png,O,m,1317,14,1,2338.8000000715256,813208.2999999523,7722,VNB,A,12
7,test,5,0.0,2-Back,1.0,m,Mon Dec 15 2025 15:44:51 GMT-0600 (Central Standard Time),818011.5,039_o_m_n_a.png,O,m,1442,15,1,2452.2999999523163,815559.2000000477,7722,VNB,A,13
8,test,5,0.0,2-Back,1.0,m,Mon Dec 15 2025 15:44:51 GMT-0600 (Central Standard Time),820343.7999999523,165_m_m_d_a.png,O,m,1302,16,1,2321.0,818022.7999999523,7722,VNB,A,14
9,test,5,0.0,2-Back,1.0,z,Mon Dec 15 2025 15:44:51 GMT-0600 (Central Standard Time),822859.5,124_o_f_n_a.png,O,z,1484,17,1,2505.0,820354.5,7722,VNB,A,15
10,test,5,1.0,2-Back,1.0,m,Mon Dec 15 2025 15:44:51 GMT-0600 (Central Standard Time),824742.2000000477,109_y_m_h_a.png,O,m,856,18,1,1872.2000000476837,822870.0,7722,VNB,A,16
