acc_sum,block,block_c,change,condition,correct,correct_response,datetime,endtime,face,project,response,response_time,row_sel,session_number,start_end,starttime,subject_id,task,task_vers,trial
0,prac,1,,1-Back,,,Mon Jun 22 2026 10:52:39 GMT-0400 (Eastern Daylight Time),,050_m_f_n_a.png,I,space,11442,1,3,,,9038,NNB,A,0
1,prac,1,0.0,1-Back,1.0,m,Mon Jun 22 2026 10:52:39 GMT-0400 (Eastern Daylight Time),207316.20000004768,063_y_f_n_a.png,I,m,750,2,3,1571.2000000476837,205745.0,9038,NNB,A,1
2,prac,1,1.0,1-Back,1.0,z,Mon Jun 22 2026 10:52:39 GMT-0400 (Eastern Daylight Time),209849.29999995232,063_y_f_n_a.png,I,z,1752,3,3,2524.2999999523163,207325.0,9038,NNB,A,2
3,prac,1,0.0,1-Back,1.0,m,Mon Jun 22 2026 10:52:39 GMT-0400 (Eastern Daylight Time),211766.10000014305,053_o_m_n_a.png,I,m,1089,4,3,1906.7000000476837,209859.40000009537,9038,NNB,A,3
4,prac,1,0.0,1-Back,1.0,m,Mon Jun 22 2026 10:52:39 GMT-0400 (Eastern Daylight Time),213532.90000009537,058_m_m_n_a.png,I,m,948,5,3,1757.7000000476837,211775.20000004768,9038,NNB,A,4
5,prac,1,1.0,1-Back,1.0,z,Mon Jun 22 2026 10:52:39 GMT-0400 (Eastern Daylight Time),215332.70000004768,058_m_m_n_a.png,I,z,1007,6,3,1789.7999999523163,213542.90000009537,9038,NNB,A,5
6,prac,1,0.0,1-Back,1.0,m,Mon Jun 22 2026 10:52:39 GMT-0400 (Eastern Daylight Time),217316.10000014305,047_o_f_n_a.png,I,m,1111,7,3,1974.2000000476837,215341.90000009537,9038,NNB,A,6
7,prac,1,0.0,1-Back,1.0,m,Mon Jun 22 2026 10:52:39 GMT-0400 (Eastern Daylight Time),218816.10000014305,045_m_m_n_a.png,I,m,718,8,3,1490.9000000953674,217325.20000004768,9038,NNB,A,7
8,prac,1,0.0,1-Back,1.0,m,Mon Jun 22 2026 10:52:39 GMT-0400 (Eastern Daylight Time),220599.40000009537,050_m_f_n_a.png,I,m,1004,9,3,1775.1000001430511,218824.29999995232,9038,NNB,A,8
9,prac,1,1.0,1-Back,1.0,z,Mon Jun 22 2026 10:52:39 GMT-0400 (Eastern Daylight Time),222115.70000004768,050_m_f_n_a.png,I,z,723,10,3,1506.4000000953674,220609.29999995232,9038,NNB,A,9
10,prac,1,0.0,1-Back,1.0,m,Mon Jun 22 2026 10:52:39 GMT-0400 (Eastern Daylight Time),223815.90000009537,053_o_m_n_a.png,I,m,912,11,3,1691.2000000476837,222124.70000004768,9038,NNB,A,10
11,prac,1,0.0,1-Back,1.0,m,Mon Jun 22 2026 10:52:39 GMT-0400 (Eastern Daylight Time),225699.40000009537,010_y_f_n_a.png,I,m,986,12,3,1873.2999999523163,223826.10000014305,9038,NNB,A,11
0,test,1,0.0,1-Back,,,Mon Jun 22 2026 10:52:39 GMT-0400 (Eastern Daylight Time),225699.40000009537,063_y_f_n_a.png,I,space,21955,1,3,1873.2999999523163,223826.10000014305,9038,NNB,A,0
1,test,1,0.0,1-Back,1.0,m,Mon Jun 22 2026 10:52:39 GMT-0400 (Eastern Daylight Time),269516.10000014305,043_m_f_n_a.png,I,m,618,2,3,1643.9000000953674,267872.2000000477,9038,NNB,A,1
2,test,1,0.0,1-Back,1.0,m,Mon Jun 22 2026 10:52:39 GMT-0400 (Eastern Daylight Time),271349.2000000477,010_y_f_n_a.png,I,m,800,3,3,1824.0999999046326,269525.10000014305,9038,NNB,A,2
3,test,1,1.0,1-Back,1.0,z,Mon Jun 22 2026 10:52:39 GMT-0400 (Eastern Daylight Time),272932.40000009537,010_y_f_n_a.png,I,z,558,4,3,1576.4000000953674,271356.0,9038,NNB,A,3
4,test,1,0.0,1-Back,1.0,m,Mon Jun 22 2026 10:52:39 GMT-0400 (Eastern Daylight Time),274765.90000009537,043_m_f_n_a.png,I,m,807,5,3,1825.2000000476837,272940.7000000477,9038,NNB,A,4
5,test,1,0.0,1-Back,1.0,m,Mon Jun 22 2026 10:52:39 GMT-0400 (Eastern Daylight Time),276599.2999999523,053_o_m_n_a.png,I,m,806,6,3,1826.8999998569489,274772.40000009537,9038,NNB,A,5
6,test,1,1.0,1-Back,1.0,z,Mon Jun 22 2026 10:52:39 GMT-0400 (Eastern Daylight Time),278316.0,053_o_m_n_a.png,I,z,685,7,3,1708.0999999046326,276607.90000009537,9038,NNB,A,6
7,test,1,0.0,1-Back,1.0,m,Mon Jun 22 2026 10:52:39 GMT-0400 (Eastern Daylight Time),280015.7999999523,058_m_m_n_a.png,I,m,680,8,3,1692.7999999523163,278323.0,9038,NNB,A,7
8,test,1,0.0,1-Back,1.0,m,Mon Jun 22 2026 10:52:39 GMT-0400 (Eastern Daylight Time),281815.90000009537,047_o_f_n_a.png,I,m,772,9,3,1791.4000000953674,280024.5,9038,NNB,A,8
9,test,1,0.0,1-Back,1.0,m,Mon Jun 22 2026 10:52:39 GMT-0400 (Eastern Daylight Time),283649.2000000477,058_m_m_n_a.png,I,m,812,10,3,1827.0,281822.2000000477,9038,NNB,A,9
10,test,1,0.0,1-Back,1.0,m,Mon Jun 22 2026 10:52:39 GMT-0400 (Eastern Daylight Time),285449.2000000477,041_y_m_n_a.png,I,m,779,11,3,1793.9000000953674,283655.2999999523,9038,NNB,A,10
11,test,1,1.0,1-Back,1.0,z,Mon Jun 22 2026 10:52:39 GMT-0400 (Eastern Daylight Time),287032.60000014305,041_y_m_n_a.png,I,z,554,12,3,1577.1000001430511,285455.5,9038,NNB,A,11
12,test,1,0.0,1-Back,1.0,m,Mon Jun 22 2026 10:52:39 GMT-0400 (Eastern Daylight Time),288699.2000000477,044_o_f_n_a.png,I,m,644,13,3,1660.0999999046326,287039.10000014305,9038,NNB,A,12
13,test,1,1.0,1-Back,1.0,z,Mon Jun 22 2026 10:52:39 GMT-0400 (Eastern Daylight Time),290415.90000009537,044_o_f_n_a.png,I,z,689,14,3,1708.6000001430511,288707.2999999523,9038,NNB,A,13
14,test,1,0.0,1-Back,1.0,m,Mon Jun 22 2026 10:52:39 GMT-0400 (Eastern Daylight Time),292199.2000000477,008_y_m_n_a.png,I,m,764,15,3,1776.0,290423.2000000477,9038,NNB,A,14
15,test,1,0.0,1-Back,1.0,m,Mon Jun 22 2026 10:52:39 GMT-0400 (Eastern Daylight Time),294065.90000009537,050_m_f_n_a.png,I,m,845,16,3,1858.7999999523163,292207.10000014305,9038,NNB,A,15
16,test,1,0.0,1-Back,1.0,m,Mon Jun 22 2026 10:52:39 GMT-0400 (Eastern Daylight Time),295765.7999999523,046_o_m_n_a.png,I,m,682,17,3,1693.5,294072.2999999523,9038,NNB,A,16
17,test,1,0.0,1-Back,1.0,m,Mon Jun 22 2026 10:52:39 GMT-0400 (Eastern Daylight Time),297615.7999999523,050_m_f_n_a.png,I,m,830,18,3,1844.2999999523163,295771.5,9038,NNB,A,17
0,test,2,0.0,1-Back,,,Mon Jun 22 2026 10:52:39 GMT-0400 (Eastern Daylight Time),297615.7999999523,058_m_m_n_a.png,I,space,5028,1,3,1844.2999999523163,295771.5,9038,NNB,A,0
1,test,2,0.0,1-Back,1.0,m,Mon Jun 22 2026 10:52:39 GMT-0400 (Eastern Daylight Time),306249.2000000477,043_m_f_n_a.png,I,m,554,2,3,1576.5,304672.7000000477,9038,NNB,A,1
2,test,2,1.0,1-Back,1.0,z,Mon Jun 22 2026 10:52:39 GMT-0400 (Eastern Daylight Time),307949.2000000477,043_m_f_n_a.png,I,z,667,3,3,1692.7000000476837,306256.5,9038,NNB,A,2
3,test,2,0.0,1-Back,1.0,m,Mon Jun 22 2026 10:52:39 GMT-0400 (Eastern Daylight Time),309582.5,058_m_m_n_a.png,I,m,606,4,3,1626.5,307956.0,9038,NNB,A,3
4,test,2,0.0,1-Back,1.0,m,Mon Jun 22 2026 10:52:39 GMT-0400 (Eastern Daylight Time),311382.40000009537,041_y_m_n_a.png,I,m,781,5,3,1794.0,309588.40000009537,9038,NNB,A,4
5,test,2,0.0,1-Back,1.0,m,Mon Jun 22 2026 10:52:39 GMT-0400 (Eastern Daylight Time),313099.2000000477,063_y_f_n_a.png,I,m,693,6,3,1712.0999999046326,311387.10000014305,9038,NNB,A,5
6,test,2,1.0,1-Back,1.0,z,Mon Jun 22 2026 10:52:39 GMT-0400 (Eastern Daylight Time),314615.7999999523,063_y_f_n_a.png,I,z,489,7,3,1509.2999999523163,313106.5,9038,NNB,A,6
7,test,2,0.0,1-Back,1.0,m,Mon Jun 22 2026 10:52:39 GMT-0400 (Eastern Daylight Time),316215.7999999523,041_y_m_n_a.png,I,m,580,8,3,1591.6999998092651,314624.10000014305,9038,NNB,A,7
8,test,2,0.0,1-Back,1.0,m,Mon Jun 22 2026 10:52:39 GMT-0400 (Eastern Daylight Time),317949.2999999523,044_o_f_n_a.png,I,m,700,9,3,1725.5999999046326,316223.7000000477,9038,NNB,A,8
9,test,2,0.0,1-Back,1.0,m,Mon Jun 22 2026 10:52:39 GMT-0400 (Eastern Daylight Time),319749.2999999523,045_m_m_n_a.png,I,m,775,10,3,1792.0,317957.2999999523,9038,NNB,A,9
10,test,2,1.0,1-Back,1.0,z,Mon Jun 22 2026 10:52:39 GMT-0400 (Eastern Daylight Time),321382.40000009537,045_m_m_n_a.png,I,z,615,11,3,1626.2000000476837,319756.2000000477,9038,NNB,A,10
11,test,2,0.0,1-Back,1.0,m,Mon Jun 22 2026 10:52:39 GMT-0400 (Eastern Daylight Time),323049.2000000477,044_o_f_n_a.png,I,m,645,12,3,1660.0999999046326,321389.10000014305,9038,NNB,A,11
12,test,2,0.0,1-Back,1.0,m,Mon Jun 22 2026 10:52:39 GMT-0400 (Eastern Daylight Time),324732.5,047_o_f_n_a.png,I,m,651,13,3,1675.3999998569489,323057.10000014305,9038,NNB,A,12
13,test,2,0.0,1-Back,1.0,m,Mon Jun 22 2026 10:52:39 GMT-0400 (Eastern Daylight Time),326549.5,053_o_m_n_a.png,I,m,799,14,3,1810.0,324739.5,9038,NNB,A,13
14,test,2,0.0,1-Back,1.0,m,Mon Jun 22 2026 10:52:39 GMT-0400 (Eastern Daylight Time),328182.2000000477,046_o_m_n_a.png,I,m,614,15,3,1625.4000000953674,326556.7999999523,9038,NNB,A,14
15,test,2,1.0,1-Back,1.0,z,Mon Jun 22 2026 10:52:39 GMT-0400 (Eastern Daylight Time),329832.60000014305,046_o_m_n_a.png,I,z,629,16,3,1644.7000000476837,328187.90000009537,9038,NNB,A,15
16,test,2,0.0,1-Back,1.0,m,Mon Jun 22 2026 10:52:39 GMT-0400 (Eastern Daylight Time),331532.5,008_y_m_n_a.png,I,m,675,17,3,1693.2999999523163,329839.2000000477,9038,NNB,A,16
17,test,2,1.0,1-Back,1.0,z,Mon Jun 22 2026 10:52:39 GMT-0400 (Eastern Daylight Time),333199.2999999523,008_y_m_n_a.png,I,z,639,18,3,1658.7999999523163,331540.5,9038,NNB,A,17
0,test,3,1.0,1-Back,,,Mon Jun 22 2026 10:52:39 GMT-0400 (Eastern Daylight Time),333199.2999999523,010_y_f_n_a.png,I,space,2060,1,3,1658.7999999523163,331540.5,9038,NNB,A,0
1,test,3,0.0,1-Back,1.0,m,Mon Jun 22 2026 10:52:39 GMT-0400 (Eastern Daylight Time),338882.5,046_o_m_n_a.png,I,m,494,2,3,1510.2000000476837,337372.2999999523,9038,NNB,A,1
2,test,3,1.0,1-Back,1.0,z,Mon Jun 22 2026 10:52:39 GMT-0400 (Eastern Daylight Time),340482.40000009537,046_o_m_n_a.png,I,z,577,3,3,1593.9000000953674,338888.5,9038,NNB,A,2
3,test,3,0.0,1-Back,1.0,m,Mon Jun 22 2026 10:52:39 GMT-0400 (Eastern Daylight Time),342082.5,050_m_f_n_a.png,I,m,577,4,3,1593.7000000476837,340488.7999999523,9038,NNB,A,3
4,test,3,1.0,1-Back,1.0,z,Mon Jun 22 2026 10:52:39 GMT-0400 (Eastern Daylight Time),343749.7999999523,050_m_f_n_a.png,I,z,649,5,3,1659.0999999046326,342090.7000000477,9038,NNB,A,4
5,test,3,0.0,1-Back,1.0,m,Mon Jun 22 2026 10:52:39 GMT-0400 (Eastern Daylight Time),345449.2000000477,044_o_f_n_a.png,I,m,679,6,3,1693.7999999523163,343755.40000009537,9038,NNB,A,5
6,test,3,0.0,1-Back,1.0,m,Mon Jun 22 2026 10:52:39 GMT-0400 (Eastern Daylight Time),347098.90000009537,041_y_m_n_a.png,I,m,626,7,3,1642.4000000953674,345456.5,9038,NNB,A,6
7,test,3,0.0,1-Back,1.0,m,Mon Jun 22 2026 10:52:39 GMT-0400 (Eastern Daylight Time),349015.90000009537,044_o_f_n_a.png,I,m,897,8,3,1911.1000001430511,347104.7999999523,9038,NNB,A,7
8,test,3,0.0,1-Back,1.0,m,Mon Jun 22 2026 10:52:39 GMT-0400 (Eastern Daylight Time),350665.7999999523,008_y_m_n_a.png,I,m,628,9,3,1641.1999998092651,349024.60000014305,9038,NNB,A,8
9,test,3,1.0,1-Back,1.0,z,Mon Jun 22 2026 10:52:39 GMT-0400 (Eastern Daylight Time),352199.2999999523,008_y_m_n_a.png,I,z,506,10,3,1526.0999999046326,350673.2000000477,9038,NNB,A,9
10,test,3,0.0,1-Back,1.0,m,Mon Jun 22 2026 10:52:39 GMT-0400 (Eastern Daylight Time),354049.2999999523,043_m_f_n_a.png,I,m,829,11,3,1842.5,352206.7999999523,9038,NNB,A,10
11,test,3,0.0,1-Back,1.0,m,Mon Jun 22 2026 10:52:39 GMT-0400 (Eastern Daylight Time),355815.7999999523,063_y_f_n_a.png,I,m,737,12,3,1759.3999998569489,354056.40000009537,9038,NNB,A,11
12,test,3,1.0,1-Back,1.0,z,Mon Jun 22 2026 10:52:39 GMT-0400 (Eastern Daylight Time),357499.2000000477,063_y_f_n_a.png,I,z,653,13,3,1675.0999999046326,355824.10000014305,9038,NNB,A,12
13,test,3,0.0,1-Back,1.0,m,Mon Jun 22 2026 10:52:39 GMT-0400 (Eastern Daylight Time),359065.7999999523,043_m_f_n_a.png,I,m,544,14,3,1559.0999999046326,357506.7000000477,9038,NNB,A,13
14,test,3,0.0,1-Back,1.0,m,Mon Jun 22 2026 10:52:39 GMT-0400 (Eastern Daylight Time),360732.60000014305,058_m_m_n_a.png,I,m,642,15,3,1659.8000001907349,359072.7999999523,9038,NNB,A,14
15,test,3,1.0,1-Back,1.0,z,Mon Jun 22 2026 10:52:39 GMT-0400 (Eastern Daylight Time),362299.10000014305,058_m_m_n_a.png,I,z,535,16,3,1558.8000001907349,360740.2999999523,9038,NNB,A,15
16,test,3,0.0,1-Back,1.0,m,Mon Jun 22 2026 10:52:39 GMT-0400 (Eastern Daylight Time),363865.7999999523,047_o_f_n_a.png,I,m,545,17,3,1559.3999998569489,362306.40000009537,9038,NNB,A,16
17,test,3,1.0,1-Back,1.0,z,Mon Jun 22 2026 10:52:39 GMT-0400 (Eastern Daylight Time),365549.2999999523,047_o_f_n_a.png,I,z,650,18,3,1677.8999998569489,363871.40000009537,9038,NNB,A,17
0,test,4,1.0,1-Back,,,Mon Jun 22 2026 10:52:39 GMT-0400 (Eastern Daylight Time),365549.2999999523,050_m_f_n_a.png,I,space,1726,1,3,1677.8999998569489,363871.40000009537,9038,NNB,A,0
1,test,4,0.0,1-Back,1.0,m,Mon Jun 22 2026 10:52:39 GMT-0400 (Eastern Daylight Time),370949.10000014305,046_o_m_n_a.png,I,m,625,2,3,1643.4000000953674,369305.7000000477,9038,NNB,A,1
2,test,4,0.0,1-Back,1.0,m,Mon Jun 22 2026 10:52:39 GMT-0400 (Eastern Daylight Time),372549.40000009537,050_m_f_n_a.png,I,m,582,3,3,1592.2000000476837,370957.2000000477,9038,NNB,A,2
3,test,4,0.0,1-Back,1.0,m,Mon Jun 22 2026 10:52:39 GMT-0400 (Eastern Daylight Time),374149.2999999523,044_o_f_n_a.png,I,m,567,4,3,1594.3999998569489,372554.90000009537,9038,NNB,A,3
3,test,4,1.0,1-Back,0.0,z,Mon Jun 22 2026 10:52:39 GMT-0400 (Eastern Daylight Time),375765.60000014305,044_o_f_n_a.png,I,m,599,5,3,1608.0,374157.60000014305,9038,NNB,A,4
4,test,4,0.0,1-Back,1.0,m,Mon Jun 22 2026 10:52:39 GMT-0400 (Eastern Daylight Time),378065.7999999523,063_y_f_n_a.png,I,m,1278,6,3,2292.399999856949,375773.40000009537,9038,NNB,A,5
5,test,4,0.0,1-Back,1.0,m,Mon Jun 22 2026 10:52:39 GMT-0400 (Eastern Daylight Time),379682.40000009537,041_y_m_n_a.png,I,m,585,7,3,1609.7000000476837,378072.7000000477,9038,NNB,A,6
6,test,4,1.0,1-Back,1.0,z,Mon Jun 22 2026 10:52:39 GMT-0400 (Eastern Daylight Time),381449.2999999523,041_y_m_n_a.png,I,z,745,8,3,1759.8999998569489,379689.40000009537,9038,NNB,A,7
7,test,4,0.0,1-Back,1.0,m,Mon Jun 22 2026 10:52:39 GMT-0400 (Eastern Daylight Time),383332.40000009537,063_y_f_n_a.png,I,m,859,9,3,1875.2000000476837,381457.2000000477,9038,NNB,A,8
8,test,4,0.0,1-Back,1.0,m,Mon Jun 22 2026 10:52:39 GMT-0400 (Eastern Daylight Time),385465.90000009537,045_m_m_n_a.png,I,m,1111,10,3,2125.600000143051,383340.2999999523,9038,NNB,A,9
9,test,4,1.0,1-Back,1.0,z,Mon Jun 22 2026 10:52:39 GMT-0400 (Eastern Daylight Time),387215.7999999523,045_m_m_n_a.png,I,z,730,11,3,1744.0,385471.7999999523,9038,NNB,A,10
10,test,4,0.0,1-Back,1.0,m,Mon Jun 22 2026 10:52:39 GMT-0400 (Eastern Daylight Time),389082.40000009537,047_o_f_n_a.png,I,m,836,12,3,1859.2999999523163,387223.10000014305,9038,NNB,A,11
11,test,4,0.0,1-Back,1.0,m,Mon Jun 22 2026 10:52:39 GMT-0400 (Eastern Daylight Time),391115.7999999523,053_o_m_n_a.png,I,m,1001,13,3,2027.3999998569489,389088.40000009537,9038,NNB,A,12
12,test,4,0.0,1-Back,1.0,m,Mon Jun 22 2026 10:52:39 GMT-0400 (Eastern Daylight Time),392999.2999999523,047_o_f_n_a.png,I,m,856,14,3,1877.6999998092651,391121.60000014305,9038,NNB,A,13
13,test,4,0.0,1-Back,1.0,m,Mon Jun 22 2026 10:52:39 GMT-0400 (Eastern Daylight Time),394799.0,010_y_f_n_a.png,I,m,781,15,3,1793.0999999046326,393005.90000009537,9038,NNB,A,14
14,test,4,1.0,1-Back,1.0,z,Mon Jun 22 2026 10:52:39 GMT-0400 (Eastern Daylight Time),396365.7000000477,010_y_f_n_a.png,I,z,549,16,3,1560.7999999523163,394804.90000009537,9038,NNB,A,15
15,test,4,0.0,1-Back,1.0,m,Mon Jun 22 2026 10:52:39 GMT-0400 (Eastern Daylight Time),398032.5,043_m_f_n_a.png,I,m,638,17,3,1661.7999999523163,396370.7000000477,9038,NNB,A,16
16,test,4,1.0,1-Back,1.0,z,Mon Jun 22 2026 10:52:39 GMT-0400 (Eastern Daylight Time),399665.90000009537,043_m_f_n_a.png,I,z,611,18,3,1624.6000001430511,398041.2999999523,9038,NNB,A,17
0,test,5,1.0,1-Back,,,Mon Jun 22 2026 10:52:39 GMT-0400 (Eastern Daylight Time),399665.90000009537,053_o_m_n_a.png,I,space,1474,1,3,1624.6000001430511,398041.2999999523,9038,NNB,A,0
1,test,5,1.0,1-Back,1.0,z,Mon Jun 22 2026 10:52:39 GMT-0400 (Eastern Daylight Time),404749.2000000477,053_o_m_n_a.png,I,z,558,2,3,1576.7999999523163,403172.40000009537,9038,NNB,A,1
2,test,5,0.0,1-Back,1.0,m,Mon Jun 22 2026 10:52:39 GMT-0400 (Eastern Daylight Time),406249.2000000477,063_y_f_n_a.png,I,m,471,3,3,1492.0,404757.2000000477,9038,NNB,A,2
3,test,5,0.0,1-Back,1.0,m,Mon Jun 22 2026 10:52:39 GMT-0400 (Eastern Daylight Time),407882.2999999523,041_y_m_n_a.png,I,m,610,4,3,1626.3999998569489,406255.90000009537,9038,NNB,A,3
4,test,5,0.0,1-Back,1.0,m,Mon Jun 22 2026 10:52:39 GMT-0400 (Eastern Daylight Time),409815.60000014305,063_y_f_n_a.png,I,m,913,5,3,1930.2000000476837,407885.40000009537,9038,NNB,A,4
5,test,5,0.0,1-Back,1.0,m,Mon Jun 22 2026 10:52:39 GMT-0400 (Eastern Daylight Time),411532.5,058_m_m_n_a.png,I,m,692,6,3,1711.3999998569489,409821.10000014305,9038,NNB,A,5
6,test,5,1.0,1-Back,1.0,z,Mon Jun 22 2026 10:52:39 GMT-0400 (Eastern Daylight Time),413015.7999999523,058_m_m_n_a.png,I,z,455,7,3,1477.1999998092651,411538.60000014305,9038,NNB,A,6
7,test,5,0.0,1-Back,1.0,m,Mon Jun 22 2026 10:52:39 GMT-0400 (Eastern Daylight Time),414698.90000009537,010_y_f_n_a.png,I,m,651,8,3,1675.9000000953674,413023.0,9038,NNB,A,7
8,test,5,0.0,1-Back,1.0,m,Mon Jun 22 2026 10:52:39 GMT-0400 (Eastern Daylight Time),416449.2999999523,008_y_m_n_a.png,I,m,721,9,3,1746.8999998569489,414702.40000009537,9038,NNB,A,8
9,test,5,0.0,1-Back,1.0,m,Mon Jun 22 2026 10:52:39 GMT-0400 (Eastern Daylight Time),418565.7000000477,010_y_f_n_a.png,I,m,1099,10,3,2110.2000000476837,416455.5,9038,NNB,A,9
10,test,5,0.0,1-Back,1.0,m,Mon Jun 22 2026 10:52:39 GMT-0400 (Eastern Daylight Time),420265.90000009537,047_o_f_n_a.png,I,m,678,11,3,1693.6000001430511,418572.2999999523,9038,NNB,A,10
11,test,5,1.0,1-Back,1.0,z,Mon Jun 22 2026 10:52:39 GMT-0400 (Eastern Daylight Time),421749.10000014305,047_o_f_n_a.png,I,z,458,12,3,1476.3000001907349,420272.7999999523,9038,NNB,A,11
12,test,5,0.0,1-Back,1.0,m,Mon Jun 22 2026 10:52:39 GMT-0400 (Eastern Daylight Time),423332.40000009537,046_o_m_n_a.png,I,m,559,13,3,1575.0,421757.40000009537,9038,NNB,A,12
13,test,5,0.0,1-Back,1.0,m,Mon Jun 22 2026 10:52:39 GMT-0400 (Eastern Daylight Time),424982.40000009537,050_m_f_n_a.png,I,m,623,14,3,1643.6000001430511,423338.7999999523,9038,NNB,A,13
14,test,5,1.0,1-Back,1.0,z,Mon Jun 22 2026 10:52:39 GMT-0400 (Eastern Daylight Time),426482.60000014305,050_m_f_n_a.png,I,z,469,15,3,1491.6000001430511,424991.0,9038,NNB,A,14
15,test,5,0.0,1-Back,1.0,m,Mon Jun 22 2026 10:52:39 GMT-0400 (Eastern Daylight Time),428115.90000009537,046_o_m_n_a.png,I,m,609,16,3,1625.9000000953674,426490.0,9038,NNB,A,15
16,test,5,0.0,1-Back,1.0,m,Mon Jun 22 2026 10:52:39 GMT-0400 (Eastern Daylight Time),429915.90000009537,043_m_f_n_a.png,I,m,775,17,3,1794.1000001430511,428121.7999999523,9038,NNB,A,16
17,test,5,0.0,1-Back,1.0,m,Mon Jun 22 2026 10:52:39 GMT-0400 (Eastern Daylight Time),431599.0,045_m_m_n_a.png,I,m,664,18,3,1675.0,429924.0,9038,NNB,A,17
0,prac,1,0.0,2-Back,,,Mon Jun 22 2026 10:52:39 GMT-0400 (Eastern Daylight Time),431599.0,008_y_m_n_a.png,I,space,10833,1,3,1675.0,429924.0,9038,NNB,A,0
0,prac,1,0.0,2-Back,,,Mon Jun 22 2026 10:52:39 GMT-0400 (Eastern Daylight Time),431599.0,043_m_f_n_a.png,I,space,10833,2,3,1675.0,429924.0,9038,NNB,A,0
1,prac,1,1.0,2-Back,1.0,m,Mon Jun 22 2026 10:52:39 GMT-0400 (Eastern Daylight Time),644982.7000000477,046_o_m_n_a.png,I,m,1475,3,3,2292.5,642690.2000000477,9038,NNB,A,1
2,prac,1,0.0,2-Back,1.0,m,Mon Jun 22 2026 10:52:39 GMT-0400 (Eastern Daylight Time),647016.0,047_o_f_n_a.png,I,m,1155,4,3,2023.5,644992.5,9038,NNB,A,2
3,prac,1,0.0,2-Back,1.0,z,Mon Jun 22 2026 10:52:39 GMT-0400 (Eastern Daylight Time),648649.2000000477,046_o_m_n_a.png,I,z,853,5,3,1625.9000000953674,647023.2999999523,9038,NNB,A,3
3,prac,1,1.0,2-Back,0.0,z,Mon Jun 22 2026 10:52:39 GMT-0400 (Eastern Daylight Time),650465.7999999523,047_o_f_n_a.png,I,m,1035,6,3,1808.5999999046326,648657.2000000477,9038,NNB,A,4
4,prac,1,0.0,2-Back,1.0,m,Mon Jun 22 2026 10:52:39 GMT-0400 (Eastern Daylight Time),652265.7999999523,045_m_m_n_a.png,I,m,945,7,3,1786.3999998569489,650479.4000000954,9038,NNB,A,5
5,prac,1,0.0,2-Back,1.0,m,Mon Jun 22 2026 10:52:39 GMT-0400 (Eastern Daylight Time),653999.2999999523,053_o_m_n_a.png,I,m,873,8,3,1723.0999999046326,652276.2000000477,9038,NNB,A,6
6,prac,1,0.0,2-Back,1.0,m,Mon Jun 22 2026 10:52:39 GMT-0400 (Eastern Daylight Time),656065.7999999523,010_y_f_n_a.png,I,m,1122,9,3,2057.5,654008.2999999523,9038,NNB,A,7
7,prac,1,1.0,2-Back,1.0,z,Mon Jun 22 2026 10:52:39 GMT-0400 (Eastern Daylight Time),657999.2000000477,053_o_m_n_a.png,I,z,1147,10,3,1925.2999999523163,656073.9000000954,9038,NNB,A,8
8,prac,1,0.0,2-Back,1.0,m,Mon Jun 22 2026 10:52:39 GMT-0400 (Eastern Daylight Time),660115.7999999523,063_y_f_n_a.png,I,m,1238,11,3,2108.0,658007.7999999523,9038,NNB,A,9
9,prac,1,0.0,2-Back,1.0,m,Mon Jun 22 2026 10:52:39 GMT-0400 (Eastern Daylight Time),662149.2000000477,045_m_m_n_a.png,I,m,1251,12,3,2020.4000000953674,660128.7999999523,9038,NNB,A,10
0,test,1,0.0,2-Back,,,Mon Jun 22 2026 10:52:39 GMT-0400 (Eastern Daylight Time),662149.2000000477,041_y_m_n_a.png,I,space,7734,1,3,2020.4000000953674,660128.7999999523,9038,NNB,A,0
0,test,1,0.0,2-Back,,,Mon Jun 22 2026 10:52:39 GMT-0400 (Eastern Daylight Time),662149.2000000477,041_y_m_n_a.png,I,space,7734,2,3,2020.4000000953674,660128.7999999523,9038,NNB,A,0
1,test,1,0.0,2-Back,1.0,m,Mon Jun 22 2026 10:52:39 GMT-0400 (Eastern Daylight Time),696132.5,047_o_f_n_a.png,I,m,766,3,3,1792.5999999046326,694339.9000000954,9038,NNB,A,1
2,test,1,0.0,2-Back,1.0,m,Mon Jun 22 2026 10:52:39 GMT-0400 (Eastern Daylight Time),698032.5,058_m_m_n_a.png,I,m,871,4,3,1893.7000000476837,696138.7999999523,9038,NNB,A,2
3,test,1,1.0,2-Back,1.0,z,Mon Jun 22 2026 10:52:39 GMT-0400 (Eastern Daylight Time),699732.4000000954,047_o_f_n_a.png,I,z,667,5,3,1693.5,698038.9000000954,9038,NNB,A,3
4,test,1,0.0,2-Back,1.0,m,Mon Jun 22 2026 10:52:39 GMT-0400 (Eastern Daylight Time),701699.0,063_y_f_n_a.png,I,m,943,6,3,1960.0999999046326,699738.9000000954,9038,NNB,A,4
4,test,1,0.0,2-Back,0.0,m,Mon Jun 22 2026 10:52:39 GMT-0400 (Eastern Daylight Time),703465.7000000477,058_m_m_n_a.png,I,z,736,7,3,1760.0,701705.7000000477,9038,NNB,A,5
5,test,1,1.0,2-Back,1.0,z,Mon Jun 22 2026 10:52:39 GMT-0400 (Eastern Daylight Time),705365.600000143,063_y_f_n_a.png,I,z,881,8,3,1892.9000000953674,703472.7000000477,9038,NNB,A,6
6,test,1,0.0,2-Back,1.0,m,Mon Jun 22 2026 10:52:39 GMT-0400 (Eastern Daylight Time),707382.4000000954,008_y_m_n_a.png,I,m,997,9,3,2009.9000000953674,705372.5,9038,NNB,A,7
7,test,1,0.0,2-Back,1.0,m,Mon Jun 22 2026 10:52:39 GMT-0400 (Eastern Daylight Time),709115.7999999523,044_o_f_n_a.png,I,m,700,10,3,1726.5999999046326,707389.2000000477,9038,NNB,A,8
8,test,1,1.0,2-Back,1.0,z,Mon Jun 22 2026 10:52:39 GMT-0400 (Eastern Daylight Time),710699.0,008_y_m_n_a.png,I,z,551,11,3,1576.7999999523163,709122.2000000477,9038,NNB,A,9
9,test,1,0.0,2-Back,1.0,m,Mon Jun 22 2026 10:52:39 GMT-0400 (Eastern Daylight Time),712449.0,043_m_f_n_a.png,I,m,728,12,3,1742.2999999523163,710706.7000000477,9038,NNB,A,10
9,test,1,0.0,2-Back,0.0,m,Mon Jun 22 2026 10:52:39 GMT-0400 (Eastern Daylight Time),714349.0,043_m_f_n_a.png,I,z,874,13,3,1893.0999999046326,712455.9000000954,9038,NNB,A,11
10,test,1,0.0,2-Back,1.0,m,Mon Jun 22 2026 10:52:39 GMT-0400 (Eastern Daylight Time),716382.4000000954,046_o_m_n_a.png,I,m,1006,14,3,2024.9000000953674,714357.5,9038,NNB,A,12
10,test,1,0.0,2-Back,0.0,m,Mon Jun 22 2026 10:52:39 GMT-0400 (Eastern Daylight Time),718565.5,044_o_f_n_a.png,I,z,1164,15,3,2175.0,716390.5,9038,NNB,A,13
11,test,1,1.0,2-Back,1.0,z,Mon Jun 22 2026 10:52:39 GMT-0400 (Eastern Daylight Time),720765.7999999523,046_o_m_n_a.png,I,z,1175,16,3,2194.399999856949,718571.4000000954,9038,NNB,A,14
12,test,1,0.0,2-Back,1.0,m,Mon Jun 22 2026 10:52:39 GMT-0400 (Eastern Daylight Time),722549.0,050_m_f_n_a.png,I,m,765,17,3,1774.5999999046326,720774.4000000954,9038,NNB,A,15
13,test,1,0.0,2-Back,1.0,m,Mon Jun 22 2026 10:52:39 GMT-0400 (Eastern Daylight Time),724599.0,045_m_m_n_a.png,I,m,1030,18,3,2043.7000000476837,722555.2999999523,9038,NNB,A,16
0,test,2,0.0,2-Back,,,Mon Jun 22 2026 10:52:39 GMT-0400 (Eastern Daylight Time),724599.0,045_m_m_n_a.png,I,space,2028,1,3,2043.7000000476837,722555.2999999523,9038,NNB,A,0
0,test,2,0.0,2-Back,,,Mon Jun 22 2026 10:52:39 GMT-0400 (Eastern Daylight Time),724599.0,010_y_f_n_a.png,I,space,2028,2,3,2043.7000000476837,722555.2999999523,9038,NNB,A,0
1,test,2,1.0,2-Back,1.0,z,Mon Jun 22 2026 10:52:39 GMT-0400 (Eastern Daylight Time),733582.5,045_m_m_n_a.png,I,z,790,3,3,1811.2999999523163,731771.2000000477,9038,NNB,A,1
2,test,2,0.0,2-Back,1.0,m,Mon Jun 22 2026 10:52:39 GMT-0400 (Eastern Daylight Time),735465.7000000477,050_m_f_n_a.png,I,m,852,4,3,1875.2999999523163,733590.4000000954,9038,NNB,A,2
2,test,2,0.0,2-Back,0.0,m,Mon Jun 22 2026 10:52:39 GMT-0400 (Eastern Daylight Time),738465.7000000477,010_y_f_n_a.png,I,z,1977,5,3,2993.0999999046326,735472.600000143,9038,NNB,A,3
3,test,2,0.0,2-Back,1.0,m,Mon Jun 22 2026 10:52:39 GMT-0400 (Eastern Daylight Time),740332.4000000954,046_o_m_n_a.png,I,m,841,6,3,1860.2000000476837,738472.2000000477,9038,NNB,A,4
3,test,2,0.0,2-Back,0.0,m,Mon Jun 22 2026 10:52:39 GMT-0400 (Eastern Daylight Time),741965.7000000477,063_y_f_n_a.png,I,z,607,7,3,1626.0999999046326,740339.600000143,9038,NNB,A,5
4,test,2,1.0,2-Back,1.0,z,Mon Jun 22 2026 10:52:39 GMT-0400 (Eastern Daylight Time),743865.7999999523,046_o_m_n_a.png,I,z,878,8,3,1893.6999998092651,741972.100000143,9038,NNB,A,6
5,test,2,0.0,2-Back,1.0,m,Mon Jun 22 2026 10:52:39 GMT-0400 (Eastern Daylight Time),745699.2000000477,008_y_m_n_a.png,I,m,801,9,3,1826.9000000953674,743872.2999999523,9038,NNB,A,7
5,test,2,0.0,2-Back,0.0,m,Mon Jun 22 2026 10:52:39 GMT-0400 (Eastern Daylight Time),747649.0,008_y_m_n_a.png,I,z,920,10,3,1943.2999999523163,745705.7000000477,9038,NNB,A,8
6,test,2,0.0,2-Back,1.0,m,Mon Jun 22 2026 10:52:39 GMT-0400 (Eastern Daylight Time),749732.0,043_m_f_n_a.png,I,m,1057,11,3,2075.5,747656.5,9038,NNB,A,9
7,test,2,0.0,2-Back,1.0,m,Mon Jun 22 2026 10:52:39 GMT-0400 (Eastern Daylight Time),751565.2000000477,010_y_f_n_a.png,I,m,814,12,3,1829.9000000953674,749735.2999999523,9038,NNB,A,10
8,test,2,1.0,2-Back,1.0,z,Mon Jun 22 2026 10:52:39 GMT-0400 (Eastern Daylight Time),753265.2000000477,043_m_f_n_a.png,I,z,677,13,3,1696.7000000476837,751568.5,9038,NNB,A,11
9,test,2,0.0,2-Back,1.0,m,Mon Jun 22 2026 10:52:39 GMT-0400 (Eastern Daylight Time),755081.9000000954,053_o_m_n_a.png,I,m,793,14,3,1813.7999999523163,753268.100000143,9038,NNB,A,12
9,test,2,0.0,2-Back,0.0,m,Mon Jun 22 2026 10:52:39 GMT-0400 (Eastern Daylight Time),756915.7000000477,053_o_m_n_a.png,I,z,800,15,3,1830.9000000953674,755084.7999999523,9038,NNB,A,13
10,test,2,0.0,2-Back,1.0,m,Mon Jun 22 2026 10:52:39 GMT-0400 (Eastern Daylight Time),758698.9000000954,044_o_f_n_a.png,I,m,759,16,3,1776.9000000953674,756922.0,9038,NNB,A,14
11,test,2,0.0,2-Back,1.0,m,Mon Jun 22 2026 10:52:39 GMT-0400 (Eastern Daylight Time),760532.7000000477,058_m_m_n_a.png,I,m,816,17,3,1825.5999999046326,758707.100000143,9038,NNB,A,15
12,test,2,1.0,2-Back,1.0,z,Mon Jun 22 2026 10:52:39 GMT-0400 (Eastern Daylight Time),762048.9000000954,044_o_f_n_a.png,I,z,486,18,3,1510.6000001430511,760538.2999999523,9038,NNB,A,16
0,test,3,1.0,2-Back,,,Mon Jun 22 2026 10:52:39 GMT-0400 (Eastern Daylight Time),762048.9000000954,041_y_m_n_a.png,I,space,1610,1,3,1510.6000001430511,760538.2999999523,9038,NNB,A,0
0,test,3,1.0,2-Back,,,Mon Jun 22 2026 10:52:39 GMT-0400 (Eastern Daylight Time),762048.9000000954,041_y_m_n_a.png,I,space,1610,2,3,1510.6000001430511,760538.2999999523,9038,NNB,A,0
1,test,3,0.0,2-Back,1.0,m,Mon Jun 22 2026 10:52:39 GMT-0400 (Eastern Daylight Time),770649.2000000477,044_o_f_n_a.png,I,m,770,3,3,1794.2000000476837,768855.0,9038,NNB,A,1
2,test,3,0.0,2-Back,1.0,m,Mon Jun 22 2026 10:52:39 GMT-0400 (Eastern Daylight Time),772232.2999999523,045_m_m_n_a.png,I,m,562,4,3,1574.8999998569489,770657.4000000954,9038,NNB,A,2
3,test,3,1.0,2-Back,1.0,z,Mon Jun 22 2026 10:52:39 GMT-0400 (Eastern Daylight Time),773832.2999999523,044_o_f_n_a.png,I,z,578,5,3,1593.3999998569489,772238.9000000954,9038,NNB,A,3
4,test,3,0.0,2-Back,1.0,m,Mon Jun 22 2026 10:52:39 GMT-0400 (Eastern Daylight Time),775932.7000000477,008_y_m_n_a.png,I,m,1082,6,3,2093.2999999523163,773839.4000000954,9038,NNB,A,4
5,test,3,0.0,2-Back,1.0,m,Mon Jun 22 2026 10:52:39 GMT-0400 (Eastern Daylight Time),778532.5,045_m_m_n_a.png,I,m,1575,7,3,2594.0,775938.5,9038,NNB,A,5
6,test,3,1.0,2-Back,1.0,z,Mon Jun 22 2026 10:52:39 GMT-0400 (Eastern Daylight Time),780215.600000143,008_y_m_n_a.png,I,z,655,8,3,1676.5,778539.100000143,9038,NNB,A,6
7,test,3,0.0,2-Back,1.0,m,Mon Jun 22 2026 10:52:39 GMT-0400 (Eastern Daylight Time),782115.600000143,010_y_f_n_a.png,I,m,867,9,3,1891.9000000953674,780223.7000000477,9038,NNB,A,7
8,test,3,0.0,2-Back,1.0,m,Mon Jun 22 2026 10:52:39 GMT-0400 (Eastern Daylight Time),783865.600000143,058_m_m_n_a.png,I,m,719,10,3,1743.9000000953674,782121.7000000477,9038,NNB,A,8
9,test,3,1.0,2-Back,1.0,z,Mon Jun 22 2026 10:52:39 GMT-0400 (Eastern Daylight Time),785582.4000000954,010_y_f_n_a.png,I,z,689,11,3,1708.4000000953674,783874.0,9038,NNB,A,9
10,test,3,1.0,2-Back,1.0,z,Mon Jun 22 2026 10:52:39 GMT-0400 (Eastern Daylight Time),787782.2000000477,058_m_m_n_a.png,I,z,1180,12,3,2193.2000000476837,785589.0,9038,NNB,A,10
11,test,3,0.0,2-Back,1.0,m,Mon Jun 22 2026 10:52:39 GMT-0400 (Eastern Daylight Time),789565.7999999523,044_o_f_n_a.png,I,m,758,13,3,1777.5999999046326,787788.2000000477,9038,NNB,A,11
12,test,3,0.0,2-Back,1.0,m,Mon Jun 22 2026 10:52:39 GMT-0400 (Eastern Daylight Time),791532.2000000477,050_m_f_n_a.png,I,m,933,14,3,1960.2999999523163,789571.9000000954,9038,NNB,A,12
13,test,3,0.0,2-Back,1.0,m,Mon Jun 22 2026 10:52:39 GMT-0400 (Eastern Daylight Time),793582.2999999523,046_o_m_n_a.png,I,m,1022,15,3,2047.1999998092651,791535.100000143,9038,NNB,A,13
14,test,3,1.0,2-Back,1.0,z,Mon Jun 22 2026 10:52:39 GMT-0400 (Eastern Daylight Time),795415.7000000477,050_m_f_n_a.png,I,z,804,16,3,1826.5999999046326,793589.100000143,9038,NNB,A,14
15,test,3,0.0,2-Back,1.0,m,Mon Jun 22 2026 10:52:39 GMT-0400 (Eastern Daylight Time),797198.9000000954,047_o_f_n_a.png,I,m,755,17,3,1776.5,795422.4000000954,9038,NNB,A,15
15,test,3,0.0,2-Back,0.0,m,Mon Jun 22 2026 10:52:39 GMT-0400 (Eastern Daylight Time),798815.7000000477,047_o_f_n_a.png,I,z,588,18,3,1609.7999999523163,797205.9000000954,9038,NNB,A,16
0,test,4,0.0,2-Back,,,Mon Jun 22 2026 10:52:39 GMT-0400 (Eastern Daylight Time),798815.7000000477,053_o_m_n_a.png,I,space,2635,1,3,1609.7999999523163,797205.9000000954,9038,NNB,A,0
0,test,4,0.0,2-Back,,,Mon Jun 22 2026 10:52:39 GMT-0400 (Eastern Daylight Time),798815.7000000477,063_y_f_n_a.png,I,space,2635,2,3,1609.7999999523163,797205.9000000954,9038,NNB,A,0
1,test,4,1.0,2-Back,1.0,z,Mon Jun 22 2026 10:52:39 GMT-0400 (Eastern Daylight Time),808148.7000000477,053_o_m_n_a.png,I,z,464,3,3,1477.5999999046326,806671.100000143,9038,NNB,A,1
2,test,4,1.0,2-Back,1.0,z,Mon Jun 22 2026 10:52:39 GMT-0400 (Eastern Daylight Time),809949.0,063_y_f_n_a.png,I,z,774,4,3,1797.2999999523163,808151.7000000477,9038,NNB,A,2
3,test,4,0.0,2-Back,1.0,m,Mon Jun 22 2026 10:52:39 GMT-0400 (Eastern Daylight Time),811682.4000000954,044_o_f_n_a.png,I,m,702,5,3,1725.9000000953674,809956.5,9038,NNB,A,3
3,test,4,0.0,2-Back,0.0,m,Mon Jun 22 2026 10:52:39 GMT-0400 (Eastern Daylight Time),813365.5,044_o_f_n_a.png,I,z,665,6,3,1674.7000000476837,811690.7999999523,9038,NNB,A,4
4,test,4,0.0,2-Back,1.0,m,Mon Jun 22 2026 10:52:39 GMT-0400 (Eastern Daylight Time),815082.2000000477,043_m_f_n_a.png,I,m,685,7,3,1711.5999999046326,813370.600000143,9038,NNB,A,5
5,test,4,0.0,2-Back,1.0,m,Mon Jun 22 2026 10:52:39 GMT-0400 (Eastern Daylight Time),816999.0,008_y_m_n_a.png,I,m,888,8,3,1909.0,815090.0,9038,NNB,A,6
6,test,4,1.0,2-Back,1.0,z,Mon Jun 22 2026 10:52:39 GMT-0400 (Eastern Daylight Time),818482.2999999523,043_m_f_n_a.png,I,z,460,9,3,1475.5,817006.7999999523,9038,NNB,A,7
7,test,4,0.0,2-Back,1.0,m,Mon Jun 22 2026 10:52:39 GMT-0400 (Eastern Daylight Time),820165.4000000954,058_m_m_n_a.png,I,m,657,10,3,1676.2999999523163,818489.100000143,9038,NNB,A,8
7,test,4,0.0,2-Back,0.0,m,Mon Jun 22 2026 10:52:39 GMT-0400 (Eastern Daylight Time),821749.2999999523,008_y_m_n_a.png,I,z,566,11,3,1575.5999999046326,820173.7000000477,9038,NNB,A,9
8,test,4,0.0,2-Back,1.0,m,Mon Jun 22 2026 10:52:39 GMT-0400 (Eastern Daylight Time),823782.100000143,047_o_f_n_a.png,I,m,1013,12,3,2027.9000000953674,821754.2000000477,9038,NNB,A,10
9,test,4,0.0,2-Back,1.0,m,Mon Jun 22 2026 10:52:39 GMT-0400 (Eastern Daylight Time),825782.2000000477,041_y_m_n_a.png,I,m,980,13,3,1996.7999999523163,823785.4000000954,9038,NNB,A,11
10,test,4,1.0,2-Back,1.0,z,Mon Jun 22 2026 10:52:39 GMT-0400 (Eastern Daylight Time),827532.5,047_o_f_n_a.png,I,z,717,14,3,1742.5999999046326,825789.9000000954,9038,NNB,A,12
11,test,4,1.0,2-Back,1.0,z,Mon Jun 22 2026 10:52:39 GMT-0400 (Eastern Daylight Time),829549.100000143,041_y_m_n_a.png,I,z,991,15,3,2009.7000000476837,827539.4000000954,9038,NNB,A,13
12,test,4,0.0,2-Back,1.0,m,Mon Jun 22 2026 10:52:39 GMT-0400 (Eastern Daylight Time),831265.600000143,045_m_m_n_a.png,I,m,686,16,3,1709.0,829556.600000143,9038,NNB,A,14
13,test,4,0.0,2-Back,1.0,m,Mon Jun 22 2026 10:52:39 GMT-0400 (Eastern Daylight Time),833099.100000143,050_m_f_n_a.png,I,m,810,17,3,1823.6000001430511,831275.5,9038,NNB,A,15
14,test,4,1.0,2-Back,1.0,z,Mon Jun 22 2026 10:52:39 GMT-0400 (Eastern Daylight Time),834748.9000000954,045_m_m_n_a.png,I,z,632,18,3,1643.7000000476837,833105.2000000477,9038,NNB,A,16
0,test,5,1.0,2-Back,,,Mon Jun 22 2026 10:52:39 GMT-0400 (Eastern Daylight Time),834748.9000000954,041_y_m_n_a.png,I,space,1942,1,3,1643.7000000476837,833105.2000000477,9038,NNB,A,0
0,test,5,1.0,2-Back,,,Mon Jun 22 2026 10:52:39 GMT-0400 (Eastern Daylight Time),834748.9000000954,050_m_f_n_a.png,I,space,1942,2,3,1643.7000000476837,833105.2000000477,9038,NNB,A,0
1,test,5,1.0,2-Back,1.0,z,Mon Jun 22 2026 10:52:39 GMT-0400 (Eastern Daylight Time),843265.7999999523,041_y_m_n_a.png,I,z,486,3,3,1511.0,841754.7999999523,9038,NNB,A,1
2,test,5,1.0,2-Back,1.0,z,Mon Jun 22 2026 10:52:39 GMT-0400 (Eastern Daylight Time),844932.600000143,050_m_f_n_a.png,I,z,649,4,3,1660.3000001907349,843272.2999999523,9038,NNB,A,2
3,test,5,0.0,2-Back,1.0,m,Mon Jun 22 2026 10:52:39 GMT-0400 (Eastern Daylight Time),846665.5,047_o_f_n_a.png,I,m,702,5,3,1726.3999998569489,844939.100000143,9038,NNB,A,3
4,test,5,0.0,2-Back,1.0,m,Mon Jun 22 2026 10:52:39 GMT-0400 (Eastern Daylight Time),849065.600000143,041_y_m_n_a.png,I,m,1377,6,3,2394.600000143051,846671.0,9038,NNB,A,4
5,test,5,0.0,2-Back,1.0,m,Mon Jun 22 2026 10:52:39 GMT-0400 (Eastern Daylight Time),850798.9000000954,010_y_f_n_a.png,I,m,705,7,3,1726.9000000953674,849072.0,9038,NNB,A,5
6,test,5,0.0,2-Back,1.0,m,Mon Jun 22 2026 10:52:39 GMT-0400 (Eastern Daylight Time),853049.0,047_o_f_n_a.png,I,m,1220,8,3,2243.7999999523163,850805.2000000477,9038,NNB,A,6
7,test,5,1.0,2-Back,1.0,z,Mon Jun 22 2026 10:52:39 GMT-0400 (Eastern Daylight Time),855199.7999999523,010_y_f_n_a.png,I,z,1122,9,3,2144.0,853055.7999999523,9038,NNB,A,7
8,test,5,0.0,2-Back,1.0,m,Mon Jun 22 2026 10:52:39 GMT-0400 (Eastern Daylight Time),856899.100000143,046_o_m_n_a.png,I,m,668,10,3,1696.2000000476837,855202.9000000954,9038,NNB,A,8
9,test,5,0.0,2-Back,1.0,m,Mon Jun 22 2026 10:52:39 GMT-0400 (Eastern Daylight Time),858649.100000143,043_m_f_n_a.png,I,m,728,11,3,1742.8000001907349,856906.2999999523,9038,NNB,A,9
10,test,5,0.0,2-Back,1.0,m,Mon Jun 22 2026 10:52:39 GMT-0400 (Eastern Daylight Time),860499.100000143,058_m_m_n_a.png,I,m,826,12,3,1843.8000001907349,858655.2999999523,9038,NNB,A,10
11,test,5,0.0,2-Back,1.0,m,Mon Jun 22 2026 10:52:39 GMT-0400 (Eastern Daylight Time),862399.0,046_o_m_n_a.png,I,m,880,13,3,1893.2000000476837,860505.7999999523,9038,NNB,A,11
12,test,5,1.0,2-Back,1.0,z,Mon Jun 22 2026 10:52:39 GMT-0400 (Eastern Daylight Time),864116.0,058_m_m_n_a.png,I,z,691,14,3,1711.2000000476837,862404.7999999523,9038,NNB,A,12
13,test,5,0.0,2-Back,1.0,m,Mon Jun 22 2026 10:52:39 GMT-0400 (Eastern Daylight Time),866215.7000000477,063_y_f_n_a.png,I,m,1079,15,3,2096.5999999046326,864119.100000143,9038,NNB,A,13
14,test,5,0.0,2-Back,1.0,m,Mon Jun 22 2026 10:52:39 GMT-0400 (Eastern Daylight Time),868115.2999999523,053_o_m_n_a.png,I,m,874,16,3,1891.3999998569489,866223.9000000954,9038,NNB,A,14
15,test,5,0.0,2-Back,1.0,m,Mon Jun 22 2026 10:52:39 GMT-0400 (Eastern Daylight Time),869948.9000000954,043_m_f_n_a.png,I,m,815,17,3,1830.6000001430511,868118.2999999523,9038,NNB,A,15
16,test,5,1.0,2-Back,1.0,z,Mon Jun 22 2026 10:52:39 GMT-0400 (Eastern Daylight Time),871515.600000143,053_o_m_n_a.png,I,z,542,18,3,1561.0,869954.600000143,9038,NNB,A,16
