acc_sum,block,block_c,change,condition,correct,correct_response,datetime,endtime,face,project,response,response_time,row_sel,session_number,start_end,starttime,subject_id,task,task_vers,trial
0,prac,1,,1-Back,,,Mon Dec 01 2025 10:41:08 GMT-0500 (Eastern Standard Time),,093_m_f_n_a.png,I,space,17494,1,1,,,9038,NNB,C,0
1,prac,1,0.0,1-Back,1.0,m,Mon Dec 01 2025 10:41:08 GMT-0500 (Eastern Standard Time),277316.39999985695,098_y_f_n_a.png,I,m,681,2,1,1651.7999999523163,275664.59999990463,9038,NNB,C,1
1,prac,1,1.0,1-Back,0.0,z,Mon Dec 01 2025 10:41:08 GMT-0500 (Eastern Standard Time),280114.2999999523,098_y_f_n_a.png,I,None,2015,3,1,2782.4000000953674,277331.89999985695,9038,NNB,C,2
1,prac,1,0.0,1-Back,0.0,m,Mon Dec 01 2025 10:41:08 GMT-0500 (Eastern Standard Time),283047.39999985695,059_o_m_n_a.png,I,None,2004,4,1,2917.399999856949,280130.0,9038,NNB,C,3
2,prac,1,0.0,1-Back,1.0,m,Mon Dec 01 2025 10:41:08 GMT-0500 (Eastern Standard Time),285064.19999980927,092_m_m_n_a.png,I,m,1086,5,1,1997.5,283066.69999980927,9038,NNB,C,4
2,prac,1,1.0,1-Back,0.0,z,Mon Dec 01 2025 10:41:08 GMT-0500 (Eastern Standard Time),286547.5,092_m_m_n_a.png,I,m,685,6,1,1463.9000000953674,285083.59999990463,9038,NNB,C,5
3,prac,1,0.0,1-Back,1.0,m,Mon Dec 01 2025 10:41:08 GMT-0500 (Eastern Standard Time),288230.89999985695,130_o_f_n_a.png,I,m,704,7,1,1665.7999999523163,286565.09999990463,9038,NNB,C,6
4,prac,1,0.0,1-Back,1.0,m,Mon Dec 01 2025 10:41:08 GMT-0500 (Eastern Standard Time),289747.59999990463,082_m_m_n_a.png,I,m,579,8,1,1498.7000000476837,288248.89999985695,9038,NNB,C,7
4,prac,1,0.0,1-Back,0.0,m,Mon Dec 01 2025 10:41:08 GMT-0500 (Eastern Standard Time),291064.19999980927,093_m_f_n_a.png,I,z,514,9,1,1297.7999999523163,289766.39999985695,9038,NNB,C,8
5,prac,1,1.0,1-Back,1.0,z,Mon Dec 01 2025 10:41:08 GMT-0500 (Eastern Standard Time),292597.7999999523,093_m_f_n_a.png,I,z,732,10,1,1513.4000000953674,291084.39999985695,9038,NNB,C,9
6,prac,1,0.0,1-Back,1.0,m,Mon Dec 01 2025 10:41:08 GMT-0500 (Eastern Standard Time),294464.19999980927,059_o_m_n_a.png,I,m,1071,11,1,1846.7999999523163,292617.39999985695,9038,NNB,C,10
7,prac,1,0.0,1-Back,1.0,m,Mon Dec 01 2025 10:41:08 GMT-0500 (Eastern Standard Time),296331.09999990463,028_y_f_n_a.png,I,m,936,12,1,1845.2999999523163,294485.7999999523,9038,NNB,C,11
0,prac,2,0.0,1-Back,,,Mon Dec 01 2025 10:41:08 GMT-0500 (Eastern Standard Time),296331.09999990463,093_m_f_n_a.png,I,a,14476,1,1,1845.2999999523163,294485.7999999523,9038,NNB,C,0
1,prac,2,0.0,1-Back,1.0,m,Mon Dec 01 2025 10:41:08 GMT-0500 (Eastern Standard Time),315380.89999985695,098_y_f_n_a.png,I,m,580,2,1,1495.0,313885.89999985695,9038,NNB,C,1
1,prac,2,1.0,1-Back,0.0,z,Mon Dec 01 2025 10:41:08 GMT-0500 (Eastern Standard Time),318180.59999990463,098_y_f_n_a.png,I,None,2016,3,1,2783.9000000953674,315396.69999980927,9038,NNB,C,2
2,prac,2,0.0,1-Back,1.0,m,Mon Dec 01 2025 10:41:08 GMT-0500 (Eastern Standard Time),319980.7999999523,059_o_m_n_a.png,I,m,1007,4,1,1779.4000000953674,318201.39999985695,9038,NNB,C,3
3,prac,2,0.0,1-Back,1.0,m,Mon Dec 01 2025 10:41:08 GMT-0500 (Eastern Standard Time),322531.0,092_m_m_n_a.png,I,m,1612,5,1,2530.800000190735,320000.19999980927,9038,NNB,C,4
4,prac,2,1.0,1-Back,1.0,z,Mon Dec 01 2025 10:41:08 GMT-0500 (Eastern Standard Time),324447.59999990463,092_m_m_n_a.png,I,z,1121,6,1,1896.5999999046326,322551.0,9038,NNB,C,5
5,prac,2,0.0,1-Back,1.0,m,Mon Dec 01 2025 10:41:08 GMT-0500 (Eastern Standard Time),326630.89999985695,130_o_f_n_a.png,I,m,1221,7,1,2168.7000000476837,324462.19999980927,9038,NNB,C,6
6,prac,2,0.0,1-Back,1.0,m,Mon Dec 01 2025 10:41:08 GMT-0500 (Eastern Standard Time),328347.69999980927,082_m_m_n_a.png,I,m,789,8,1,1700.6999998092651,326647.0,9038,NNB,C,7
7,prac,2,0.0,1-Back,1.0,m,Mon Dec 01 2025 10:41:08 GMT-0500 (Eastern Standard Time),330614.19999980927,093_m_f_n_a.png,I,m,1467,9,1,2249.199999809265,328365.0,9038,NNB,C,8
7,prac,2,1.0,1-Back,0.0,z,Mon Dec 01 2025 10:41:08 GMT-0500 (Eastern Standard Time),332047.39999985695,093_m_f_n_a.png,I,m,640,10,1,1415.0999999046326,330632.2999999523,9038,NNB,C,9
8,prac,2,0.0,1-Back,1.0,m,Mon Dec 01 2025 10:41:08 GMT-0500 (Eastern Standard Time),333747.5,059_o_m_n_a.png,I,m,904,11,1,1683.4000000953674,332064.09999990463,9038,NNB,C,10
8,prac,2,0.0,1-Back,0.0,m,Mon Dec 01 2025 10:41:08 GMT-0500 (Eastern Standard Time),335364.09999990463,028_y_f_n_a.png,I,z,668,12,1,1600.5999999046326,333763.5,9038,NNB,C,11
0,test,1,0.0,1-Back,,,Mon Dec 01 2025 10:41:08 GMT-0500 (Eastern Standard Time),335364.09999990463,098_y_f_n_a.png,I,space,19307,1,1,1600.5999999046326,333763.5,9038,NNB,C,0
1,test,1,0.0,1-Back,1.0,m,Mon Dec 01 2025 10:41:08 GMT-0500 (Eastern Standard Time),403397.5,006_m_f_n_a.png,I,m,704,2,1,1720.1000001430511,401677.39999985695,9038,NNB,C,1
1,test,1,0.0,1-Back,0.0,m,Mon Dec 01 2025 10:41:08 GMT-0500 (Eastern Standard Time),405264.0,028_y_f_n_a.png,I,z,842,3,1,1855.7000000476837,403408.2999999523,9038,NNB,C,2
2,test,1,1.0,1-Back,1.0,z,Mon Dec 01 2025 10:41:08 GMT-0500 (Eastern Standard Time),406980.59999990463,028_y_f_n_a.png,I,z,688,4,1,1702.9000000953674,405277.69999980927,9038,NNB,C,3
3,test,1,0.0,1-Back,1.0,m,Mon Dec 01 2025 10:41:08 GMT-0500 (Eastern Standard Time),409230.59999990463,006_m_f_n_a.png,I,m,1227,5,1,2237.5,406993.09999990463,9038,NNB,C,4
4,test,1,0.0,1-Back,1.0,m,Mon Dec 01 2025 10:41:08 GMT-0500 (Eastern Standard Time),411097.2999999523,059_o_m_n_a.png,I,m,817,6,1,1851.0,409246.2999999523,9038,NNB,C,5
5,test,1,1.0,1-Back,1.0,z,Mon Dec 01 2025 10:41:08 GMT-0500 (Eastern Standard Time),412930.5,059_o_m_n_a.png,I,z,806,7,1,1819.3000001907349,411111.19999980927,9038,NNB,C,6
6,test,1,0.0,1-Back,1.0,m,Mon Dec 01 2025 10:41:08 GMT-0500 (Eastern Standard Time),414897.39999985695,092_m_m_n_a.png,I,m,941,8,1,1954.2000000476837,412943.19999980927,9038,NNB,C,7
7,test,1,0.0,1-Back,1.0,m,Mon Dec 01 2025 10:41:08 GMT-0500 (Eastern Standard Time),416930.59999990463,130_o_f_n_a.png,I,m,1006,9,1,2019.0999999046326,414911.5,9038,NNB,C,8
7,test,1,0.0,1-Back,0.0,m,Mon Dec 01 2025 10:41:08 GMT-0500 (Eastern Standard Time),418980.59999990463,092_m_m_n_a.png,I,z,1021,10,1,2038.5,416942.09999990463,9038,NNB,C,9
8,test,1,0.0,1-Back,1.0,m,Mon Dec 01 2025 10:41:08 GMT-0500 (Eastern Standard Time),420780.5,057_y_m_n_a.png,I,m,779,11,1,1788.3000001907349,418992.19999980927,9038,NNB,C,10
9,test,1,1.0,1-Back,1.0,z,Mon Dec 01 2025 10:41:08 GMT-0500 (Eastern Standard Time),422580.69999980927,057_y_m_n_a.png,I,z,771,12,1,1785.2999999523163,420795.39999985695,9038,NNB,C,11
10,test,1,0.0,1-Back,1.0,m,Mon Dec 01 2025 10:41:08 GMT-0500 (Eastern Standard Time),424547.39999985695,030_o_f_n_a.png,I,m,939,13,1,1953.5,422593.89999985695,9038,NNB,C,12
11,test,1,1.0,1-Back,1.0,z,Mon Dec 01 2025 10:41:08 GMT-0500 (Eastern Standard Time),426297.2999999523,030_o_f_n_a.png,I,z,732,14,1,1737.7999999523163,424559.5,9038,NNB,C,13
12,test,1,0.0,1-Back,1.0,m,Mon Dec 01 2025 10:41:08 GMT-0500 (Eastern Standard Time),428213.89999985695,031_y_m_n_a.png,I,m,886,15,1,1904.5,426309.39999985695,9038,NNB,C,14
13,test,1,0.0,1-Back,1.0,m,Mon Dec 01 2025 10:41:08 GMT-0500 (Eastern Standard Time),430080.69999980927,093_m_f_n_a.png,I,m,842,16,1,1854.1999998092651,428226.5,9038,NNB,C,15
14,test,1,0.0,1-Back,1.0,m,Mon Dec 01 2025 10:41:08 GMT-0500 (Eastern Standard Time),431763.89999985695,146_o_m_n_a.png,I,m,655,17,1,1673.5,430090.39999985695,9038,NNB,C,16
14,test,1,0.0,1-Back,0.0,m,Mon Dec 01 2025 10:41:08 GMT-0500 (Eastern Standard Time),433530.39999985695,093_m_f_n_a.png,I,z,748,18,1,1753.7999999523163,431776.59999990463,9038,NNB,C,17
0,test,2,0.0,1-Back,,,Mon Dec 01 2025 10:41:08 GMT-0500 (Eastern Standard Time),433530.39999985695,092_m_m_n_a.png,I,space,5933,1,1,1753.7999999523163,431776.59999990463,9038,NNB,C,0
1,test,2,0.0,1-Back,1.0,m,Mon Dec 01 2025 10:41:08 GMT-0500 (Eastern Standard Time),443513.59999990463,006_m_f_n_a.png,I,m,998,2,1,2003.5999999046326,441510.0,9038,NNB,C,1
2,test,2,1.0,1-Back,1.0,z,Mon Dec 01 2025 10:41:08 GMT-0500 (Eastern Standard Time),445214.0,006_m_f_n_a.png,I,z,678,3,1,1690.8000001907349,443523.19999980927,9038,NNB,C,2
3,test,2,0.0,1-Back,1.0,m,Mon Dec 01 2025 10:41:08 GMT-0500 (Eastern Standard Time),447063.89999985695,092_m_m_n_a.png,I,m,818,4,1,1837.0,445226.89999985695,9038,NNB,C,3
4,test,2,0.0,1-Back,1.0,m,Mon Dec 01 2025 10:41:08 GMT-0500 (Eastern Standard Time),448864.0,057_y_m_n_a.png,I,m,776,5,1,1787.9000000953674,447076.09999990463,9038,NNB,C,4
5,test,2,0.0,1-Back,1.0,m,Mon Dec 01 2025 10:41:08 GMT-0500 (Eastern Standard Time),450697.2999999523,098_y_f_n_a.png,I,m,815,6,1,1820.7999999523163,448876.5,9038,NNB,C,5
6,test,2,1.0,1-Back,1.0,z,Mon Dec 01 2025 10:41:08 GMT-0500 (Eastern Standard Time),452763.89999985695,098_y_f_n_a.png,I,z,1047,7,1,2053.899999856949,450710.0,9038,NNB,C,6
7,test,2,0.0,1-Back,1.0,m,Mon Dec 01 2025 10:41:08 GMT-0500 (Eastern Standard Time),455097.39999985695,057_y_m_n_a.png,I,m,1300,8,1,2321.7000000476837,452775.69999980927,9038,NNB,C,7
8,test,2,0.0,1-Back,1.0,m,Mon Dec 01 2025 10:41:08 GMT-0500 (Eastern Standard Time),457014.0,030_o_f_n_a.png,I,m,886,9,1,1907.8000001907349,455106.19999980927,9038,NNB,C,8
9,test,2,0.0,1-Back,1.0,m,Mon Dec 01 2025 10:41:08 GMT-0500 (Eastern Standard Time),458864.0,082_m_m_n_a.png,I,m,825,10,1,1836.7000000476837,457027.2999999523,9038,NNB,C,9
10,test,2,1.0,1-Back,1.0,z,Mon Dec 01 2025 10:41:08 GMT-0500 (Eastern Standard Time),460914.0,082_m_m_n_a.png,I,z,1024,11,1,2039.3000001907349,458874.69999980927,9038,NNB,C,10
10,test,2,0.0,1-Back,0.0,m,Mon Dec 01 2025 10:41:08 GMT-0500 (Eastern Standard Time),463347.2999999523,030_o_f_n_a.png,I,z,1406,12,1,2423.7000000476837,460923.59999990463,9038,NNB,C,11
11,test,2,0.0,1-Back,1.0,m,Mon Dec 01 2025 10:41:08 GMT-0500 (Eastern Standard Time),465230.59999990463,130_o_f_n_a.png,I,m,860,13,1,1870.2000000476837,463360.39999985695,9038,NNB,C,12
12,test,2,0.0,1-Back,1.0,m,Mon Dec 01 2025 10:41:08 GMT-0500 (Eastern Standard Time),467413.89999985695,059_o_m_n_a.png,I,m,1153,14,1,2170.899999856949,465243.0,9038,NNB,C,13
13,test,2,0.0,1-Back,1.0,m,Mon Dec 01 2025 10:41:08 GMT-0500 (Eastern Standard Time),469480.59999990463,146_o_m_n_a.png,I,m,1033,15,1,2054.5,467426.09999990463,9038,NNB,C,14
14,test,2,1.0,1-Back,1.0,z,Mon Dec 01 2025 10:41:08 GMT-0500 (Eastern Standard Time),471197.2999999523,146_o_m_n_a.png,I,z,695,16,1,1705.0,469492.2999999523,9038,NNB,C,15
15,test,2,0.0,1-Back,1.0,m,Mon Dec 01 2025 10:41:08 GMT-0500 (Eastern Standard Time),473263.59999990463,031_y_m_n_a.png,I,m,1041,17,1,2052.5,471211.09999990463,9038,NNB,C,16
16,test,2,1.0,1-Back,1.0,z,Mon Dec 01 2025 10:41:08 GMT-0500 (Eastern Standard Time),475064.0,031_y_m_n_a.png,I,z,768,18,1,1791.9000000953674,473272.09999990463,9038,NNB,C,17
0,test,3,1.0,1-Back,,,Mon Dec 01 2025 10:41:08 GMT-0500 (Eastern Standard Time),475064.0,028_y_f_n_a.png,I,space,26047,1,1,1791.9000000953674,473272.09999990463,9038,NNB,C,0
1,test,3,0.0,1-Back,1.0,m,Mon Dec 01 2025 10:41:08 GMT-0500 (Eastern Standard Time),504847.19999980927,146_o_m_n_a.png,I,m,560,1,1,1570.5999999046326,503276.59999990463,9038,NNB,C,1
2,test,3,1.0,1-Back,1.0,z,Mon Dec 01 2025 10:41:08 GMT-0500 (Eastern Standard Time),506597.2999999523,146_o_m_n_a.png,I,z,720,1,1,1735.5,504861.7999999523,9038,NNB,C,2
3,test,3,0.0,1-Back,1.0,m,Mon Dec 01 2025 10:41:08 GMT-0500 (Eastern Standard Time),508614.0,093_m_f_n_a.png,I,m,987,1,1,2003.0,506611.0,9038,NNB,C,3
4,test,3,1.0,1-Back,1.0,z,Mon Dec 01 2025 10:41:08 GMT-0500 (Eastern Standard Time),510397.19999980927,093_m_f_n_a.png,I,z,762,1,1,1771.0,508626.19999980927,9038,NNB,C,4
5,test,3,0.0,1-Back,1.0,m,Mon Dec 01 2025 10:41:08 GMT-0500 (Eastern Standard Time),512280.59999990463,030_o_f_n_a.png,I,m,850,1,1,1870.0999999046326,510410.5,9038,NNB,C,5
6,test,3,0.0,1-Back,1.0,m,Mon Dec 01 2025 10:41:08 GMT-0500 (Eastern Standard Time),514030.59999990463,057_y_m_n_a.png,I,m,727,1,1,1737.2000000476837,512293.39999985695,9038,NNB,C,6
6,test,3,0.0,1-Back,0.0,m,Mon Dec 01 2025 10:41:08 GMT-0500 (Eastern Standard Time),516013.89999985695,030_o_f_n_a.png,I,z,951,1,1,1969.2000000476837,514044.69999980927,9038,NNB,C,7
7,test,3,0.0,1-Back,1.0,m,Mon Dec 01 2025 10:41:08 GMT-0500 (Eastern Standard Time),517713.89999985695,031_y_m_n_a.png,I,m,674,1,1,1685.7999999523163,516028.09999990463,9038,NNB,C,8
8,test,3,1.0,1-Back,1.0,z,Mon Dec 01 2025 10:41:08 GMT-0500 (Eastern Standard Time),519480.59999990463,031_y_m_n_a.png,I,z,734,1,1,1754.0999999046326,517726.5,9038,NNB,C,9
8,test,3,0.0,1-Back,0.0,m,Mon Dec 01 2025 10:41:08 GMT-0500 (Eastern Standard Time),522514.0,006_m_f_n_a.png,I,None,2016,1,1,3021.2000000476837,519492.7999999523,9038,NNB,C,10
8,test,3,0.0,1-Back,0.0,m,Mon Dec 01 2025 10:41:08 GMT-0500 (Eastern Standard Time),524163.7999999523,098_y_f_n_a.png,I,z,622,1,1,1636.9000000953674,522526.89999985695,9038,NNB,C,11
9,test,3,1.0,1-Back,1.0,z,Mon Dec 01 2025 10:41:08 GMT-0500 (Eastern Standard Time),525997.1999998093,098_y_f_n_a.png,I,z,812,1,1,1821.3999998569489,524175.7999999523,9038,NNB,C,12
10,test,3,0.0,1-Back,1.0,m,Mon Dec 01 2025 10:41:08 GMT-0500 (Eastern Standard Time),527747.2999999523,006_m_f_n_a.png,I,m,722,1,1,1738.6000001430511,526008.6999998093,9038,NNB,C,13
11,test,3,0.0,1-Back,1.0,m,Mon Dec 01 2025 10:41:08 GMT-0500 (Eastern Standard Time),529530.399999857,092_m_m_n_a.png,I,m,765,1,1,1770.2999999523163,527760.0999999046,9038,NNB,C,14
12,test,3,1.0,1-Back,1.0,z,Mon Dec 01 2025 10:41:08 GMT-0500 (Eastern Standard Time),531413.6999998093,092_m_m_n_a.png,I,z,853,1,1,1868.7999999523163,529544.899999857,9038,NNB,C,15
13,test,3,0.0,1-Back,1.0,m,Mon Dec 01 2025 10:41:08 GMT-0500 (Eastern Standard Time),533397.2999999523,130_o_f_n_a.png,I,m,954,1,1,1971.6000001430511,531425.6999998093,9038,NNB,C,16
13,test,3,1.0,1-Back,0.0,z,Mon Dec 01 2025 10:41:08 GMT-0500 (Eastern Standard Time),535563.7999999523,130_o_f_n_a.png,I,m,1147,1,1,2154.600000143051,533409.1999998093,9038,NNB,C,17
0,test,4,1.0,1-Back,,,Mon Dec 01 2025 10:41:08 GMT-0500 (Eastern Standard Time),535563.7999999523,093_m_f_n_a.png,I,space,36340,1,1,2154.600000143051,533409.1999998093,9038,NNB,C,0
1,test,4,0.0,1-Back,1.0,m,Mon Dec 01 2025 10:41:08 GMT-0500 (Eastern Standard Time),575563.7999999523,146_o_m_n_a.png,I,m,480,2,1,1485.9000000953674,574077.899999857,9038,NNB,C,1
1,test,4,0.0,1-Back,0.0,m,Mon Dec 01 2025 10:41:08 GMT-0500 (Eastern Standard Time),578597.1999998093,093_m_f_n_a.png,I,None,2016,3,1,3021.899999856949,575575.2999999523,9038,NNB,C,2
2,test,4,0.0,1-Back,1.0,m,Mon Dec 01 2025 10:41:08 GMT-0500 (Eastern Standard Time),580697.2999999523,030_o_f_n_a.png,I,m,1082,4,1,2087.2999999523163,578610.0,9038,NNB,C,3
2,test,4,1.0,1-Back,0.0,z,Mon Dec 01 2025 10:41:08 GMT-0500 (Eastern Standard Time),582247.0999999046,030_o_f_n_a.png,I,m,519,5,1,1539.2000000476837,580707.899999857,9038,NNB,C,4
3,test,4,0.0,1-Back,1.0,m,Mon Dec 01 2025 10:41:08 GMT-0500 (Eastern Standard Time),584297.0999999046,098_y_f_n_a.png,I,m,1017,6,1,2035.4000000953674,582261.6999998093,9038,NNB,C,5
4,test,4,0.0,1-Back,1.0,m,Mon Dec 01 2025 10:41:08 GMT-0500 (Eastern Standard Time),585947.0999999046,057_y_m_n_a.png,I,m,615,7,1,1636.2000000476837,584310.899999857,9038,NNB,C,6
5,test,4,1.0,1-Back,1.0,z,Mon Dec 01 2025 10:41:08 GMT-0500 (Eastern Standard Time),587697.1999998093,057_y_m_n_a.png,I,z,724,8,1,1735.7999999523163,585961.399999857,9038,NNB,C,7
6,test,4,0.0,1-Back,1.0,m,Mon Dec 01 2025 10:41:08 GMT-0500 (Eastern Standard Time),589547.0999999046,098_y_f_n_a.png,I,m,831,9,1,1837.4000000953674,587709.6999998093,9038,NNB,C,8
7,test,4,0.0,1-Back,1.0,m,Mon Dec 01 2025 10:41:08 GMT-0500 (Eastern Standard Time),591497.399999857,082_m_m_n_a.png,I,m,916,10,1,1938.5999999046326,589558.7999999523,9038,NNB,C,9
8,test,4,1.0,1-Back,1.0,z,Mon Dec 01 2025 10:41:08 GMT-0500 (Eastern Standard Time),593030.5,082_m_m_n_a.png,I,z,503,11,1,1521.7000000476837,591508.7999999523,9038,NNB,C,10
9,test,4,0.0,1-Back,1.0,m,Mon Dec 01 2025 10:41:08 GMT-0500 (Eastern Standard Time),594880.399999857,130_o_f_n_a.png,I,m,825,12,1,1838.7000000476837,593041.6999998093,9038,NNB,C,11
10,test,4,0.0,1-Back,1.0,m,Mon Dec 01 2025 10:41:08 GMT-0500 (Eastern Standard Time),596463.7999999523,059_o_m_n_a.png,I,m,559,13,1,1569.7000000476837,594894.0999999046,9038,NNB,C,12
10,test,4,0.0,1-Back,0.0,m,Mon Dec 01 2025 10:41:08 GMT-0500 (Eastern Standard Time),598047.1999998093,130_o_f_n_a.png,I,z,560,14,1,1569.7999999523163,596477.399999857,9038,NNB,C,13
11,test,4,0.0,1-Back,1.0,m,Mon Dec 01 2025 10:41:08 GMT-0500 (Eastern Standard Time),600013.7999999523,028_y_f_n_a.png,I,m,944,15,1,1954.7000000476837,598059.0999999046,9038,NNB,C,14
12,test,4,1.0,1-Back,1.0,z,Mon Dec 01 2025 10:41:08 GMT-0500 (Eastern Standard Time),601713.7999999523,028_y_f_n_a.png,I,z,674,16,1,1688.7999999523163,600025.0,9038,NNB,C,15
13,test,4,0.0,1-Back,1.0,m,Mon Dec 01 2025 10:41:08 GMT-0500 (Eastern Standard Time),603680.5,006_m_f_n_a.png,I,m,942,17,1,1955.1000001430511,601725.399999857,9038,NNB,C,16
14,test,4,1.0,1-Back,1.0,z,Mon Dec 01 2025 10:41:08 GMT-0500 (Eastern Standard Time),605563.899999857,006_m_f_n_a.png,I,z,863,18,1,1870.7000000476837,603693.1999998093,9038,NNB,C,17
0,test,5,1.0,1-Back,,,Mon Dec 01 2025 10:41:08 GMT-0500 (Eastern Standard Time),605563.899999857,059_o_m_n_a.png,I,space,8268,1,1,1870.7000000476837,603693.1999998093,9038,NNB,C,0
1,test,5,1.0,1-Back,1.0,z,Mon Dec 01 2025 10:41:08 GMT-0500 (Eastern Standard Time),617563.7999999523,059_o_m_n_a.png,I,z,680,2,1,1687.2000000476837,615876.5999999046,9038,NNB,C,1
2,test,5,0.0,1-Back,1.0,m,Mon Dec 01 2025 10:41:08 GMT-0500 (Eastern Standard Time),619430.399999857,098_y_f_n_a.png,I,m,835,3,1,1855.0999999046326,617575.2999999523,9038,NNB,C,2
3,test,5,0.0,1-Back,1.0,m,Mon Dec 01 2025 10:41:08 GMT-0500 (Eastern Standard Time),621263.6999998093,057_y_m_n_a.png,I,m,809,4,1,1822.0999999046326,619441.5999999046,9038,NNB,C,3
3,test,5,0.0,1-Back,0.0,m,Mon Dec 01 2025 10:41:08 GMT-0500 (Eastern Standard Time),623080.399999857,098_y_f_n_a.png,I,z,784,5,1,1804.2000000476837,621276.1999998093,9038,NNB,C,4
4,test,5,0.0,1-Back,1.0,m,Mon Dec 01 2025 10:41:08 GMT-0500 (Eastern Standard Time),625163.5999999046,092_m_m_n_a.png,I,m,1063,6,1,2069.0999999046326,623094.5,9038,NNB,C,5
5,test,5,1.0,1-Back,1.0,z,Mon Dec 01 2025 10:41:08 GMT-0500 (Eastern Standard Time),626847.0999999046,092_m_m_n_a.png,I,z,661,7,1,1671.5,625175.5999999046,9038,NNB,C,6
6,test,5,0.0,1-Back,1.0,m,Mon Dec 01 2025 10:41:08 GMT-0500 (Eastern Standard Time),629280.399999857,028_y_f_n_a.png,I,m,1409,8,1,2419.399999856949,626861.0,9038,NNB,C,7
7,test,5,0.0,1-Back,1.0,m,Mon Dec 01 2025 10:41:08 GMT-0500 (Eastern Standard Time),631180.2999999523,031_y_m_n_a.png,I,m,878,9,1,1885.7000000476837,629294.5999999046,9038,NNB,C,8
8,test,5,0.0,1-Back,1.0,m,Mon Dec 01 2025 10:41:08 GMT-0500 (Eastern Standard Time),633780.399999857,028_y_f_n_a.png,I,m,1571,10,1,2588.2999999523163,631192.0999999046,9038,NNB,C,9
9,test,5,0.0,1-Back,1.0,m,Mon Dec 01 2025 10:41:08 GMT-0500 (Eastern Standard Time),635697.0,130_o_f_n_a.png,I,m,891,11,1,1903.7000000476837,633793.2999999523,9038,NNB,C,10
10,test,5,1.0,1-Back,1.0,z,Mon Dec 01 2025 10:41:08 GMT-0500 (Eastern Standard Time),637130.1999998093,130_o_f_n_a.png,I,z,399,12,1,1417.6999998092651,635712.5,9038,NNB,C,11
11,test,5,0.0,1-Back,1.0,m,Mon Dec 01 2025 10:41:08 GMT-0500 (Eastern Standard Time),638863.7999999523,146_o_m_n_a.png,I,m,708,13,1,1720.9000000953674,637142.899999857,9038,NNB,C,12
12,test,5,0.0,1-Back,1.0,m,Mon Dec 01 2025 10:41:08 GMT-0500 (Eastern Standard Time),640613.5999999046,093_m_f_n_a.png,I,m,720,14,1,1735.5999999046326,638878.0,9038,NNB,C,13
13,test,5,1.0,1-Back,1.0,z,Mon Dec 01 2025 10:41:08 GMT-0500 (Eastern Standard Time),642130.399999857,093_m_f_n_a.png,I,z,490,15,1,1504.8999998569489,640625.5,9038,NNB,C,14
14,test,5,0.0,1-Back,1.0,m,Mon Dec 01 2025 10:41:08 GMT-0500 (Eastern Standard Time),643813.7999999523,146_o_m_n_a.png,I,m,653,16,1,1671.2999999523163,642142.5,9038,NNB,C,15
15,test,5,0.0,1-Back,1.0,m,Mon Dec 01 2025 10:41:08 GMT-0500 (Eastern Standard Time),645513.5,006_m_f_n_a.png,I,m,682,17,1,1687.3000001907349,643826.1999998093,9038,NNB,C,16
16,test,5,0.0,1-Back,1.0,m,Mon Dec 01 2025 10:41:08 GMT-0500 (Eastern Standard Time),647280.399999857,082_m_m_n_a.png,I,m,742,18,1,1756.8999998569489,645523.5,9038,NNB,C,17
0,prac,1,0.0,2-Back,,,Mon Dec 01 2025 10:41:08 GMT-0500 (Eastern Standard Time),647280.399999857,031_y_m_n_a.png,I,space,12021,1,1,1756.8999998569489,645523.5,9038,NNB,C,0
0,prac,1,0.0,2-Back,,,Mon Dec 01 2025 10:41:08 GMT-0500 (Eastern Standard Time),647280.399999857,006_m_f_n_a.png,I,space,12021,2,1,1756.8999998569489,645523.5,9038,NNB,C,0
1,prac,1,1.0,2-Back,1.0,m,Mon Dec 01 2025 10:41:08 GMT-0500 (Eastern Standard Time),832980.6999998093,146_o_m_n_a.png,I,m,1018,3,1,1950.8999998569489,831029.7999999523,9038,NNB,C,1
2,prac,1,0.0,2-Back,1.0,m,Mon Dec 01 2025 10:41:08 GMT-0500 (Eastern Standard Time),835080.2999999523,130_o_f_n_a.png,I,m,1150,4,1,2081.4000000953674,832998.899999857,9038,NNB,C,2
3,prac,1,0.0,2-Back,1.0,z,Mon Dec 01 2025 10:41:08 GMT-0500 (Eastern Standard Time),836663.399999857,146_o_m_n_a.png,I,z,801,5,1,1567.3999998569489,835096.0,9038,NNB,C,3
4,prac,1,1.0,2-Back,1.0,z,Mon Dec 01 2025 10:41:08 GMT-0500 (Eastern Standard Time),838563.6999998093,130_o_f_n_a.png,I,z,1108,6,1,1887.2999999523163,836676.399999857,9038,NNB,C,4
5,prac,1,0.0,2-Back,1.0,m,Mon Dec 01 2025 10:41:08 GMT-0500 (Eastern Standard Time),840580.2999999523,082_m_m_n_a.png,I,m,1063,7,1,2004.2999999523163,838576.0,9038,NNB,C,5
5,prac,1,0.0,2-Back,0.0,m,Mon Dec 01 2025 10:41:08 GMT-0500 (Eastern Standard Time),842846.899999857,059_o_m_n_a.png,I,z,1325,8,1,2249.0999999046326,840597.7999999523,9038,NNB,C,6
5,prac,1,0.0,2-Back,0.0,m,Mon Dec 01 2025 10:41:08 GMT-0500 (Eastern Standard Time),844780.1999998093,028_y_f_n_a.png,I,z,1006,9,1,1917.1999998092651,842863.0,9038,NNB,C,7
6,prac,1,1.0,2-Back,1.0,z,Mon Dec 01 2025 10:41:08 GMT-0500 (Eastern Standard Time),846663.5999999046,059_o_m_n_a.png,I,z,1066,10,1,1866.9000000953674,844796.6999998093,9038,NNB,C,8
7,prac,1,0.0,2-Back,1.0,m,Mon Dec 01 2025 10:41:08 GMT-0500 (Eastern Standard Time),848380.1999998093,098_y_f_n_a.png,I,m,792,11,1,1702.0,846678.1999998093,9038,NNB,C,9
8,prac,1,0.0,2-Back,1.0,m,Mon Dec 01 2025 10:41:08 GMT-0500 (Eastern Standard Time),850880.2999999523,082_m_m_n_a.png,I,m,1706,12,1,2482.0,848398.2999999523,9038,NNB,C,10
0,test,1,0.0,2-Back,,,Mon Dec 01 2025 10:41:08 GMT-0500 (Eastern Standard Time),850880.2999999523,057_y_m_n_a.png,I,space,25318,1,1,2482.0,848398.2999999523,9038,NNB,C,0
0,test,1,0.0,2-Back,,,Mon Dec 01 2025 10:41:08 GMT-0500 (Eastern Standard Time),850880.2999999523,057_y_m_n_a.png,I,space,25318,2,1,2482.0,848398.2999999523,9038,NNB,C,0
1,test,1,0.0,2-Back,1.0,m,Mon Dec 01 2025 10:41:08 GMT-0500 (Eastern Standard Time),901030.1999998093,130_o_f_n_a.png,I,m,719,3,1,1735.0,899295.1999998093,9038,NNB,C,1
2,test,1,0.0,2-Back,1.0,m,Mon Dec 01 2025 10:41:08 GMT-0500 (Eastern Standard Time),902714.5,092_m_m_n_a.png,I,m,664,4,1,1671.0,901043.5,9038,NNB,C,2
3,test,1,1.0,2-Back,1.0,z,Mon Dec 01 2025 10:41:08 GMT-0500 (Eastern Standard Time),904580.1999998093,130_o_f_n_a.png,I,z,822,5,1,1851.6999998092651,902728.5,9038,NNB,C,3
4,test,1,0.0,2-Back,1.0,m,Mon Dec 01 2025 10:41:08 GMT-0500 (Eastern Standard Time),906463.399999857,098_y_f_n_a.png,I,m,860,6,1,1872.0,904591.399999857,9038,NNB,C,4
4,test,1,0.0,2-Back,0.0,m,Mon Dec 01 2025 10:41:08 GMT-0500 (Eastern Standard Time),908513.399999857,092_m_m_n_a.png,I,z,1023,7,1,2038.2999999523163,906475.0999999046,9038,NNB,C,5
5,test,1,1.0,2-Back,1.0,z,Mon Dec 01 2025 10:41:08 GMT-0500 (Eastern Standard Time),910729.899999857,098_y_f_n_a.png,I,z,1181,8,1,2202.2000000476837,908527.6999998093,9038,NNB,C,6
6,test,1,0.0,2-Back,1.0,m,Mon Dec 01 2025 10:41:08 GMT-0500 (Eastern Standard Time),912880.0999999046,031_y_m_n_a.png,I,m,1125,9,1,2136.0999999046326,910744.0,9038,NNB,C,7
7,test,1,0.0,2-Back,1.0,m,Mon Dec 01 2025 10:41:08 GMT-0500 (Eastern Standard Time),915413.399999857,030_o_f_n_a.png,I,m,1503,10,1,2519.5999999046326,912893.7999999523,9038,NNB,C,8
8,test,1,1.0,2-Back,1.0,z,Mon Dec 01 2025 10:41:08 GMT-0500 (Eastern Standard Time),917080.1999998093,031_y_m_n_a.png,I,z,617,11,1,1650.7999999523163,915429.399999857,9038,NNB,C,9
9,test,1,0.0,2-Back,1.0,m,Mon Dec 01 2025 10:41:08 GMT-0500 (Eastern Standard Time),919213.5,006_m_f_n_a.png,I,m,1111,12,1,2119.9000000953674,917093.5999999046,9038,NNB,C,10
9,test,1,0.0,2-Back,0.0,m,Mon Dec 01 2025 10:41:08 GMT-0500 (Eastern Standard Time),920980.0999999046,006_m_f_n_a.png,I,z,737,13,1,1754.5999999046326,919225.5,9038,NNB,C,11
10,test,1,0.0,2-Back,1.0,m,Mon Dec 01 2025 10:41:08 GMT-0500 (Eastern Standard Time),922996.7999999523,146_o_m_n_a.png,I,m,971,14,1,2000.0,920996.7999999523,9038,NNB,C,12
11,test,1,0.0,2-Back,1.0,m,Mon Dec 01 2025 10:41:08 GMT-0500 (Eastern Standard Time),925113.1999998093,030_o_f_n_a.png,I,m,1098,15,1,2102.0,923011.1999998093,9038,NNB,C,13
12,test,1,1.0,2-Back,1.0,z,Mon Dec 01 2025 10:41:08 GMT-0500 (Eastern Standard Time),926830.0999999046,146_o_m_n_a.png,I,z,694,16,1,1703.2000000476837,925126.899999857,9038,NNB,C,14
13,test,1,0.0,2-Back,1.0,m,Mon Dec 01 2025 10:41:08 GMT-0500 (Eastern Standard Time),928580.0999999046,093_m_f_n_a.png,I,m,705,17,1,1733.5999999046326,926846.5,9038,NNB,C,15
14,test,1,0.0,2-Back,1.0,m,Mon Dec 01 2025 10:41:08 GMT-0500 (Eastern Standard Time),930346.5,082_m_m_n_a.png,I,m,747,18,1,1752.9000000953674,928593.5999999046,9038,NNB,C,16
0,test,2,0.0,2-Back,,,Mon Dec 01 2025 10:41:08 GMT-0500 (Eastern Standard Time),930346.5,082_m_m_n_a.png,I,space,6060,1,1,1752.9000000953674,928593.5999999046,9038,NNB,C,0
0,test,2,0.0,2-Back,,,Mon Dec 01 2025 10:41:08 GMT-0500 (Eastern Standard Time),930346.5,028_y_f_n_a.png,I,space,6060,2,1,1752.9000000953674,928593.5999999046,9038,NNB,C,0
1,test,2,1.0,2-Back,1.0,z,Mon Dec 01 2025 10:41:08 GMT-0500 (Eastern Standard Time),943280.0999999046,082_m_m_n_a.png,I,z,658,3,1,1669.4000000953674,941610.6999998093,9038,NNB,C,1
2,test,2,0.0,2-Back,1.0,m,Mon Dec 01 2025 10:41:08 GMT-0500 (Eastern Standard Time),945096.899999857,093_m_f_n_a.png,I,m,798,4,1,1803.5999999046326,943293.2999999523,9038,NNB,C,2
2,test,2,0.0,2-Back,0.0,m,Mon Dec 01 2025 10:41:08 GMT-0500 (Eastern Standard Time),946896.7999999523,028_y_f_n_a.png,I,z,774,5,1,1787.6000001430511,945109.1999998093,9038,NNB,C,3
3,test,2,0.0,2-Back,1.0,m,Mon Dec 01 2025 10:41:08 GMT-0500 (Eastern Standard Time),948646.7999999523,146_o_m_n_a.png,I,m,718,6,1,1736.0,946910.7999999523,9038,NNB,C,4
4,test,2,0.0,2-Back,1.0,m,Mon Dec 01 2025 10:41:08 GMT-0500 (Eastern Standard Time),950363.0999999046,098_y_f_n_a.png,I,m,697,7,1,1704.4000000953674,948658.6999998093,9038,NNB,C,5
5,test,2,1.0,2-Back,1.0,z,Mon Dec 01 2025 10:41:08 GMT-0500 (Eastern Standard Time),952213.399999857,146_o_m_n_a.png,I,z,803,8,1,1835.0999999046326,950378.2999999523,9038,NNB,C,6
6,test,2,0.0,2-Back,1.0,m,Mon Dec 01 2025 10:41:08 GMT-0500 (Eastern Standard Time),953980.0,031_y_m_n_a.png,I,m,744,9,1,1755.4000000953674,952224.5999999046,9038,NNB,C,7
6,test,2,0.0,2-Back,0.0,m,Mon Dec 01 2025 10:41:08 GMT-0500 (Eastern Standard Time),955746.899999857,031_y_m_n_a.png,I,z,739,10,1,1753.7000000476837,953993.1999998093,9038,NNB,C,8
7,test,2,0.0,2-Back,1.0,m,Mon Dec 01 2025 10:41:08 GMT-0500 (Eastern Standard Time),957497.0,006_m_f_n_a.png,I,m,732,11,1,1737.1000001430511,955759.899999857,9038,NNB,C,9
8,test,2,0.0,2-Back,1.0,m,Mon Dec 01 2025 10:41:08 GMT-0500 (Eastern Standard Time),959380.0999999046,028_y_f_n_a.png,I,m,854,12,1,1871.7000000476837,957508.399999857,9038,NNB,C,10
9,test,2,1.0,2-Back,1.0,z,Mon Dec 01 2025 10:41:08 GMT-0500 (Eastern Standard Time),961013.399999857,006_m_f_n_a.png,I,z,587,13,1,1616.7999999523163,959396.5999999046,9038,NNB,C,11
10,test,2,0.0,2-Back,1.0,m,Mon Dec 01 2025 10:41:08 GMT-0500 (Eastern Standard Time),962813.399999857,059_o_m_n_a.png,I,m,777,14,1,1786.8999998569489,961026.5,9038,NNB,C,12
11,test,2,0.0,2-Back,1.0,m,Mon Dec 01 2025 10:41:08 GMT-0500 (Eastern Standard Time),964496.6999998093,059_o_m_n_a.png,I,m,657,15,1,1669.5999999046326,962827.0999999046,9038,NNB,C,13
12,test,2,0.0,2-Back,1.0,m,Mon Dec 01 2025 10:41:08 GMT-0500 (Eastern Standard Time),966313.0999999046,030_o_f_n_a.png,I,m,798,16,1,1806.2000000476837,964506.899999857,9038,NNB,C,14
13,test,2,0.0,2-Back,1.0,m,Mon Dec 01 2025 10:41:08 GMT-0500 (Eastern Standard Time),968329.399999857,092_m_m_n_a.png,I,m,997,17,1,2005.7000000476837,966323.6999998093,9038,NNB,C,15
14,test,2,1.0,2-Back,1.0,z,Mon Dec 01 2025 10:41:08 GMT-0500 (Eastern Standard Time),970029.1999998093,030_o_f_n_a.png,I,z,676,18,1,1694.0999999046326,968335.0999999046,9038,NNB,C,16
0,test,3,1.0,2-Back,,,Mon Dec 01 2025 10:41:08 GMT-0500 (Eastern Standard Time),970029.1999998093,057_y_m_n_a.png,I,space,4579,1,1,1694.0999999046326,968335.0999999046,9038,NNB,C,0
0,test,3,1.0,2-Back,,,Mon Dec 01 2025 10:41:08 GMT-0500 (Eastern Standard Time),970029.1999998093,057_y_m_n_a.png,I,space,4579,2,1,1694.0999999046326,968335.0999999046,9038,NNB,C,0
1,test,3,0.0,2-Back,1.0,m,Mon Dec 01 2025 10:41:08 GMT-0500 (Eastern Standard Time),981630.0999999046,030_o_f_n_a.png,I,m,793,3,1,1803.7999999523163,979826.2999999523,9038,NNB,C,1
2,test,3,0.0,2-Back,1.0,m,Mon Dec 01 2025 10:41:08 GMT-0500 (Eastern Standard Time),983563.1999998093,082_m_m_n_a.png,I,m,912,4,1,1918.2999999523163,981644.899999857,9038,NNB,C,2
3,test,3,1.0,2-Back,1.0,z,Mon Dec 01 2025 10:41:08 GMT-0500 (Eastern Standard Time),985246.5999999046,030_o_f_n_a.png,I,z,660,5,1,1671.2000000476837,983575.399999857,9038,NNB,C,3
4,test,3,0.0,2-Back,1.0,m,Mon Dec 01 2025 10:41:08 GMT-0500 (Eastern Standard Time),987163.1999998093,031_y_m_n_a.png,I,m,896,6,1,1902.2999999523163,985260.899999857,9038,NNB,C,4
4,test,3,0.0,2-Back,0.0,m,Mon Dec 01 2025 10:41:08 GMT-0500 (Eastern Standard Time),989213.1999998093,082_m_m_n_a.png,I,z,1027,7,1,2035.8999998569489,987177.2999999523,9038,NNB,C,5
5,test,3,1.0,2-Back,1.0,z,Mon Dec 01 2025 10:41:08 GMT-0500 (Eastern Standard Time),991779.899999857,031_y_m_n_a.png,I,z,1537,8,1,2553.5999999046326,989226.2999999523,9038,NNB,C,6
6,test,3,0.0,2-Back,1.0,m,Mon Dec 01 2025 10:41:08 GMT-0500 (Eastern Standard Time),993513.2999999523,028_y_f_n_a.png,I,m,714,9,1,1720.0,991793.2999999523,9038,NNB,C,7
7,test,3,0.0,2-Back,1.0,m,Mon Dec 01 2025 10:41:08 GMT-0500 (Eastern Standard Time),995496.6999998093,092_m_m_n_a.png,I,m,950,10,1,1973.5999999046326,993523.0999999046,9038,NNB,C,8
8,test,3,1.0,2-Back,1.0,z,Mon Dec 01 2025 10:41:08 GMT-0500 (Eastern Standard Time),997113.0,028_y_f_n_a.png,I,z,598,11,1,1601.9000000953674,995511.0999999046,9038,NNB,C,9
9,test,3,1.0,2-Back,1.0,z,Mon Dec 01 2025 10:41:08 GMT-0500 (Eastern Standard Time),999513.0,092_m_m_n_a.png,I,z,1381,12,1,2390.2000000476837,997122.7999999523,9038,NNB,C,10
10,test,3,0.0,2-Back,1.0,m,Mon Dec 01 2025 10:41:08 GMT-0500 (Eastern Standard Time),1001179.899999857,030_o_f_n_a.png,I,m,645,13,1,1655.2000000476837,999524.6999998093,9038,NNB,C,11
11,test,3,0.0,2-Back,1.0,m,Mon Dec 01 2025 10:41:08 GMT-0500 (Eastern Standard Time),1003096.5,093_m_f_n_a.png,I,m,883,14,1,1904.4000000953674,1001192.0999999046,9038,NNB,C,12
12,test,3,0.0,2-Back,1.0,m,Mon Dec 01 2025 10:41:08 GMT-0500 (Eastern Standard Time),1004846.6999998093,146_o_m_n_a.png,I,m,726,15,1,1739.1999998092651,1003107.5,9038,NNB,C,13
13,test,3,1.0,2-Back,1.0,z,Mon Dec 01 2025 10:41:08 GMT-0500 (Eastern Standard Time),1006462.5999999046,093_m_f_n_a.png,I,z,593,16,1,1602.5,1004860.0999999046,9038,NNB,C,14
14,test,3,0.0,2-Back,1.0,m,Mon Dec 01 2025 10:41:08 GMT-0500 (Eastern Standard Time),1008329.7999999523,130_o_f_n_a.png,I,m,847,17,1,1859.5,1006470.2999999523,9038,NNB,C,15
14,test,3,0.0,2-Back,0.0,m,Mon Dec 01 2025 10:41:08 GMT-0500 (Eastern Standard Time),1010063.1999998093,130_o_f_n_a.png,I,z,709,18,1,1720.5999999046326,1008342.5999999046,9038,NNB,C,16
0,test,4,0.0,2-Back,,,Mon Dec 01 2025 10:41:08 GMT-0500 (Eastern Standard Time),1010063.1999998093,059_o_m_n_a.png,I,space,4671,1,1,1720.5999999046326,1008342.5999999046,9038,NNB,C,0
0,test,4,0.0,2-Back,,,Mon Dec 01 2025 10:41:08 GMT-0500 (Eastern Standard Time),1010063.1999998093,098_y_f_n_a.png,I,space,4671,2,1,1720.5999999046326,1008342.5999999046,9038,NNB,C,0
1,test,4,1.0,2-Back,1.0,z,Mon Dec 01 2025 10:41:08 GMT-0500 (Eastern Standard Time),1021729.5999999046,059_o_m_n_a.png,I,z,640,3,1,1651.7999999523163,1020077.7999999523,9038,NNB,C,1
2,test,4,1.0,2-Back,1.0,z,Mon Dec 01 2025 10:41:08 GMT-0500 (Eastern Standard Time),1023680.0,098_y_f_n_a.png,I,z,925,4,1,1945.1000001430511,1021734.899999857,9038,NNB,C,2
3,test,4,0.0,2-Back,1.0,m,Mon Dec 01 2025 10:41:08 GMT-0500 (Eastern Standard Time),1025263.2999999523,030_o_f_n_a.png,I,m,559,5,1,1569.0,1023694.2999999523,9038,NNB,C,3
3,test,4,0.0,2-Back,0.0,m,Mon Dec 01 2025 10:41:08 GMT-0500 (Eastern Standard Time),1027046.6999998093,030_o_f_n_a.png,I,z,752,6,1,1768.8999998569489,1025277.7999999523,9038,NNB,C,4
4,test,4,0.0,2-Back,1.0,m,Mon Dec 01 2025 10:41:08 GMT-0500 (Eastern Standard Time),1028779.899999857,006_m_f_n_a.png,I,m,713,7,1,1721.8999998569489,1027058.0,9038,NNB,C,5
5,test,4,0.0,2-Back,1.0,m,Mon Dec 01 2025 10:41:08 GMT-0500 (Eastern Standard Time),1030779.899999857,031_y_m_n_a.png,I,m,979,8,1,1986.5,1028793.399999857,9038,NNB,C,6
6,test,4,1.0,2-Back,1.0,z,Mon Dec 01 2025 10:41:08 GMT-0500 (Eastern Standard Time),1032363.1999998093,006_m_f_n_a.png,I,z,563,9,1,1568.6999998092651,1030794.5,9038,NNB,C,7
7,test,4,0.0,2-Back,1.0,m,Mon Dec 01 2025 10:41:08 GMT-0500 (Eastern Standard Time),1034030.0,092_m_m_n_a.png,I,m,643,10,1,1652.5,1032377.5,9038,NNB,C,8
8,test,4,0.0,2-Back,1.0,m,Mon Dec 01 2025 10:41:08 GMT-0500 (Eastern Standard Time),1036063.1999998093,031_y_m_n_a.png,I,m,992,11,1,2017.6999998092651,1034045.5,9038,NNB,C,9
9,test,4,0.0,2-Back,1.0,m,Mon Dec 01 2025 10:41:08 GMT-0500 (Eastern Standard Time),1037896.399999857,130_o_f_n_a.png,I,m,800,12,1,1821.0,1036075.399999857,9038,NNB,C,10
10,test,4,0.0,2-Back,1.0,m,Mon Dec 01 2025 10:41:08 GMT-0500 (Eastern Standard Time),1040029.899999857,057_y_m_n_a.png,I,m,1111,13,1,2121.2999999523163,1037908.5999999046,9038,NNB,C,11
11,test,4,1.0,2-Back,1.0,z,Mon Dec 01 2025 10:41:08 GMT-0500 (Eastern Standard Time),1041863.2999999523,130_o_f_n_a.png,I,z,784,14,1,1818.7999999523163,1040044.5,9038,NNB,C,12
11,test,4,1.0,2-Back,0.0,z,Mon Dec 01 2025 10:41:08 GMT-0500 (Eastern Standard Time),1043529.6999998093,057_y_m_n_a.png,I,m,648,15,1,1654.0,1041875.6999998093,9038,NNB,C,13
12,test,4,0.0,2-Back,1.0,m,Mon Dec 01 2025 10:41:08 GMT-0500 (Eastern Standard Time),1045713.1999998093,082_m_m_n_a.png,I,m,1156,16,1,2170.199999809265,1043543.0,9038,NNB,C,14
13,test,4,0.0,2-Back,1.0,m,Mon Dec 01 2025 10:41:08 GMT-0500 (Eastern Standard Time),1047630.0,093_m_f_n_a.png,I,m,894,17,1,1901.9000000953674,1045728.0999999046,9038,NNB,C,15
14,test,4,1.0,2-Back,1.0,z,Mon Dec 01 2025 10:41:08 GMT-0500 (Eastern Standard Time),1049230.0,082_m_m_n_a.png,I,z,560,18,1,1574.8000001907349,1047655.1999998093,9038,NNB,C,16
0,test,5,1.0,2-Back,,,Mon Dec 01 2025 10:41:08 GMT-0500 (Eastern Standard Time),1049230.0,057_y_m_n_a.png,I,space,3906,1,1,1574.8000001907349,1047655.1999998093,9038,NNB,C,0
0,test,5,1.0,2-Back,,,Mon Dec 01 2025 10:41:08 GMT-0500 (Eastern Standard Time),1049230.0,093_m_f_n_a.png,I,space,3906,2,1,1574.8000001907349,1047655.1999998093,9038,NNB,C,0
1,test,5,1.0,2-Back,1.0,z,Mon Dec 01 2025 10:41:08 GMT-0500 (Eastern Standard Time),1059946.399999857,057_y_m_n_a.png,I,z,730,3,1,1735.8999998569489,1058210.5,9038,NNB,C,1
2,test,5,1.0,2-Back,1.0,z,Mon Dec 01 2025 10:41:08 GMT-0500 (Eastern Standard Time),1061863.2999999523,093_m_f_n_a.png,I,z,884,4,1,1904.7999999523163,1059958.5,9038,NNB,C,2
3,test,5,0.0,2-Back,1.0,m,Mon Dec 01 2025 10:41:08 GMT-0500 (Eastern Standard Time),1063630.0,130_o_f_n_a.png,I,m,729,5,1,1748.4000000953674,1061881.5999999046,9038,NNB,C,3
3,test,5,0.0,2-Back,0.0,m,Mon Dec 01 2025 10:41:08 GMT-0500 (Eastern Standard Time),1065713.0999999046,057_y_m_n_a.png,I,z,1041,6,1,2067.7000000476837,1063645.399999857,9038,NNB,C,4
4,test,5,0.0,2-Back,1.0,m,Mon Dec 01 2025 10:41:08 GMT-0500 (Eastern Standard Time),1067512.899999857,028_y_f_n_a.png,I,m,781,7,1,1785.2000000476837,1065727.6999998093,9038,NNB,C,5
4,test,5,0.0,2-Back,0.0,m,Mon Dec 01 2025 10:41:08 GMT-0500 (Eastern Standard Time),1069413.1999998093,130_o_f_n_a.png,I,z,870,8,1,1886.5,1067526.6999998093,9038,NNB,C,6
5,test,5,1.0,2-Back,1.0,z,Mon Dec 01 2025 10:41:08 GMT-0500 (Eastern Standard Time),1071313.1999998093,028_y_f_n_a.png,I,z,873,9,1,1885.5999999046326,1069427.5999999046,9038,NNB,C,7
6,test,5,0.0,2-Back,1.0,m,Mon Dec 01 2025 10:41:08 GMT-0500 (Eastern Standard Time),1072980.0,146_o_m_n_a.png,I,m,637,10,1,1654.5,1071325.5,9038,NNB,C,8
7,test,5,0.0,2-Back,1.0,m,Mon Dec 01 2025 10:41:08 GMT-0500 (Eastern Standard Time),1075013.2999999523,006_m_f_n_a.png,I,m,1003,11,1,2017.0,1072996.2999999523,9038,NNB,C,9
8,test,5,0.0,2-Back,1.0,m,Mon Dec 01 2025 10:41:08 GMT-0500 (Eastern Standard Time),1076946.6999998093,092_m_m_n_a.png,I,m,905,12,1,1918.5,1075028.1999998093,9038,NNB,C,10
8,test,5,0.0,2-Back,0.0,m,Mon Dec 01 2025 10:41:08 GMT-0500 (Eastern Standard Time),1078663.2999999523,146_o_m_n_a.png,I,z,684,13,1,1703.4000000953674,1076959.899999857,9038,NNB,C,11
9,test,5,1.0,2-Back,1.0,z,Mon Dec 01 2025 10:41:08 GMT-0500 (Eastern Standard Time),1080563.1999998093,092_m_m_n_a.png,I,z,855,14,1,1882.5,1078680.6999998093,9038,NNB,C,12
10,test,5,0.0,2-Back,1.0,m,Mon Dec 01 2025 10:41:08 GMT-0500 (Eastern Standard Time),1082996.5999999046,098_y_f_n_a.png,I,m,1404,15,1,2418.5999999046326,1080578.0,9038,NNB,C,13
10,test,5,0.0,2-Back,0.0,m,Mon Dec 01 2025 10:41:08 GMT-0500 (Eastern Standard Time),1085046.2999999523,059_o_m_n_a.png,I,z,1016,16,1,2034.0,1083012.2999999523,9038,NNB,C,14
11,test,5,0.0,2-Back,1.0,m,Mon Dec 01 2025 10:41:08 GMT-0500 (Eastern Standard Time),1086929.899999857,006_m_f_n_a.png,I,m,856,17,1,1876.7999999523163,1085053.0999999046,9038,NNB,C,15
12,test,5,1.0,2-Back,1.0,z,Mon Dec 01 2025 10:41:08 GMT-0500 (Eastern Standard Time),1088613.1999998093,059_o_m_n_a.png,I,z,636,18,1,1667.7999999523163,1086945.399999857,9038,NNB,C,16
