acc_sum,block,block_c,change,condition,correct,correct_response,datetime,endtime,face,project,response,response_time,row_sel,session_number,start_end,starttime,subject_id,task,task_vers,trial
0,prac,1,,1-Back,,,Fri Jan 09 2026 13:49:54 GMT-0500 (Eastern Standard Time),,097_m_f_n_a.png,I,space,9240,1,2,,,9031,NNB,B,0
1,prac,1,0.0,1-Back,1.0,m,Fri Jan 09 2026 13:49:54 GMT-0500 (Eastern Standard Time),320909.0999994278,152_y_f_n_a.png,I,m,1107,2,2,2014.2999992370605,318894.80000019073,9031,NNB,B,1
1,prac,1,1.0,1-Back,0.0,z,Fri Jan 09 2026 13:49:54 GMT-0500 (Eastern Standard Time),323692.19999980927,152_y_f_n_a.png,I,None,2002,3,2,2769.300000190735,320922.89999961853,9031,NNB,B,2
2,prac,1,0.0,1-Back,1.0,m,Fri Jan 09 2026 13:49:54 GMT-0500 (Eastern Standard Time),326409.0999994278,176_o_m_n_a.png,I,m,1770,4,2,2697.0,323712.0999994278,9031,NNB,B,3
3,prac,1,0.0,1-Back,1.0,m,Fri Jan 09 2026 13:49:54 GMT-0500 (Eastern Standard Time),328259.0,126_m_m_n_a.png,I,m,1054,5,2,1832.6999998092651,326426.30000019073,9031,NNB,B,4
4,prac,1,1.0,1-Back,1.0,z,Fri Jan 09 2026 13:49:54 GMT-0500 (Eastern Standard Time),329942.30000019073,126_m_m_n_a.png,I,z,889,6,2,1669.6000003814697,328272.69999980927,9031,NNB,B,5
5,prac,1,0.0,1-Back,1.0,m,Fri Jan 09 2026 13:49:54 GMT-0500 (Eastern Standard Time),331625.69999980927,086_o_f_n_a.png,I,m,885,7,2,1662.6999998092651,329963.0,9031,NNB,B,6
6,prac,1,0.0,1-Back,1.0,m,Fri Jan 09 2026 13:49:54 GMT-0500 (Eastern Standard Time),333792.30000019073,178_m_m_n_a.png,I,m,1231,8,2,2152.1000003814697,331640.19999980927,9031,NNB,B,7
7,prac,1,0.0,1-Back,1.0,m,Fri Jan 09 2026 13:49:54 GMT-0500 (Eastern Standard Time),335475.69999980927,097_m_f_n_a.png,I,m,888,9,2,1667.6000003814697,333808.0999994278,9031,NNB,B,8
8,prac,1,1.0,1-Back,1.0,z,Fri Jan 09 2026 13:49:54 GMT-0500 (Eastern Standard Time),337125.69999980927,097_m_f_n_a.png,I,z,852,10,2,1633.6000003814697,335492.0999994278,9031,NNB,B,9
9,prac,1,0.0,1-Back,1.0,m,Fri Jan 09 2026 13:49:54 GMT-0500 (Eastern Standard Time),338759.0999994278,176_o_m_n_a.png,I,m,836,11,2,1618.1999998092651,337140.89999961853,9031,NNB,B,10
10,prac,1,0.0,1-Back,1.0,m,Fri Jan 09 2026 13:49:54 GMT-0500 (Eastern Standard Time),340692.19999980927,173_y_f_n_a.png,I,m,985,12,2,1916.3000001907349,338775.89999961853,9031,NNB,B,11
0,test,1,0.0,1-Back,,,Fri Jan 09 2026 13:49:54 GMT-0500 (Eastern Standard Time),340692.19999980927,152_y_f_n_a.png,I,space,13649,1,2,1916.3000001907349,338775.89999961853,9031,NNB,B,0
1,test,1,0.0,1-Back,1.0,m,Fri Jan 09 2026 13:49:54 GMT-0500 (Eastern Standard Time),372608.89999961853,029_m_f_n_a.png,I,m,558,2,2,1584.0,371024.89999961853,9031,NNB,B,1
2,test,1,0.0,1-Back,1.0,m,Fri Jan 09 2026 13:49:54 GMT-0500 (Eastern Standard Time),374458.39999961853,173_y_f_n_a.png,I,m,831,3,2,1836.3000001907349,372622.0999994278,9031,NNB,B,2
3,test,1,1.0,1-Back,1.0,z,Fri Jan 09 2026 13:49:54 GMT-0500 (Eastern Standard Time),376308.69999980927,173_y_f_n_a.png,I,z,821,4,2,1837.5,374471.19999980927,9031,NNB,B,3
4,test,1,0.0,1-Back,1.0,m,Fri Jan 09 2026 13:49:54 GMT-0500 (Eastern Standard Time),378208.69999980927,029_m_f_n_a.png,I,m,875,5,2,1887.1000003814697,376321.5999994278,9031,NNB,B,4
5,test,1,0.0,1-Back,1.0,m,Fri Jan 09 2026 13:49:54 GMT-0500 (Eastern Standard Time),379991.69999980927,176_o_m_n_a.png,I,m,734,6,2,1769.1999998092651,378222.5,9031,NNB,B,5
6,test,1,1.0,1-Back,1.0,z,Fri Jan 09 2026 13:49:54 GMT-0500 (Eastern Standard Time),381758.80000019073,176_o_m_n_a.png,I,z,744,7,2,1759.0,379999.80000019073,9031,NNB,B,6
7,test,1,0.0,1-Back,1.0,m,Fri Jan 09 2026 13:49:54 GMT-0500 (Eastern Standard Time),383642.0999994278,126_m_m_n_a.png,I,m,866,8,2,1871.6999998092651,381770.39999961853,9031,NNB,B,7
8,test,1,0.0,1-Back,1.0,m,Fri Jan 09 2026 13:49:54 GMT-0500 (Eastern Standard Time),385576.69999980927,086_o_f_n_a.png,I,m,902,9,2,1920.8999996185303,383655.80000019073,9031,NNB,B,8
9,test,1,0.0,1-Back,1.0,m,Fri Jan 09 2026 13:49:54 GMT-0500 (Eastern Standard Time),387308.69999980927,126_m_m_n_a.png,I,m,712,10,2,1723.8999996185303,385584.80000019073,9031,NNB,B,9
10,test,1,0.0,1-Back,1.0,m,Fri Jan 09 2026 13:49:54 GMT-0500 (Eastern Standard Time),389308.5999994278,153_y_m_n_a.png,I,m,946,11,2,1986.1999998092651,387322.39999961853,9031,NNB,B,10
11,test,1,1.0,1-Back,1.0,z,Fri Jan 09 2026 13:49:54 GMT-0500 (Eastern Standard Time),391142.0,153_y_m_n_a.png,I,z,804,12,2,1820.5,389321.5,9031,NNB,B,11
12,test,1,0.0,1-Back,1.0,m,Fri Jan 09 2026 13:49:54 GMT-0500 (Eastern Standard Time),392875.30000019073,110_o_f_n_a.png,I,m,713,13,2,1721.8000001907349,391153.5,9031,NNB,B,12
13,test,1,1.0,1-Back,1.0,z,Fri Jan 09 2026 13:49:54 GMT-0500 (Eastern Standard Time),395075.30000019073,110_o_f_n_a.png,I,z,1172,14,2,2186.1000003814697,392889.19999980927,9031,NNB,B,13
14,test,1,0.0,1-Back,1.0,m,Fri Jan 09 2026 13:49:54 GMT-0500 (Eastern Standard Time),396592.0,013_y_m_n_a.png,I,m,493,15,2,1503.9000005722046,395088.0999994278,9031,NNB,B,14
15,test,1,0.0,1-Back,1.0,m,Fri Jan 09 2026 13:49:54 GMT-0500 (Eastern Standard Time),398475.0999994278,097_m_f_n_a.png,I,m,863,16,2,1869.1999998092651,396605.89999961853,9031,NNB,B,15
16,test,1,0.0,1-Back,1.0,m,Fri Jan 09 2026 13:49:54 GMT-0500 (Eastern Standard Time),400275.30000019073,065_o_m_n_a.png,I,m,772,17,2,1786.4000005722046,398488.89999961853,9031,NNB,B,16
17,test,1,0.0,1-Back,1.0,m,Fri Jan 09 2026 13:49:54 GMT-0500 (Eastern Standard Time),402192.0999994278,097_m_f_n_a.png,I,m,893,18,2,1902.6999998092651,400289.39999961853,9031,NNB,B,17
0,test,2,0.0,1-Back,,,Fri Jan 09 2026 13:49:54 GMT-0500 (Eastern Standard Time),402192.0999994278,126_m_m_n_a.png,I,space,11400,1,2,1902.6999998092651,400289.39999961853,9031,NNB,B,0
1,test,2,0.0,1-Back,1.0,m,Fri Jan 09 2026 13:49:54 GMT-0500 (Eastern Standard Time),417242.0,029_m_f_n_a.png,I,m,549,2,2,1602.8000001907349,415639.19999980927,9031,NNB,B,1
2,test,2,1.0,1-Back,1.0,z,Fri Jan 09 2026 13:49:54 GMT-0500 (Eastern Standard Time),419425.30000019073,029_m_f_n_a.png,I,z,1158,3,2,2170.4000005722046,417254.89999961853,9031,NNB,B,2
3,test,2,0.0,1-Back,1.0,m,Fri Jan 09 2026 13:49:54 GMT-0500 (Eastern Standard Time),421092.0999994278,126_m_m_n_a.png,I,m,638,4,2,1652.6999998092651,419439.39999961853,9031,NNB,B,3
4,test,2,0.0,1-Back,1.0,m,Fri Jan 09 2026 13:49:54 GMT-0500 (Eastern Standard Time),422675.30000019073,153_y_m_n_a.png,I,m,556,5,2,1571.1000003814697,421104.19999980927,9031,NNB,B,4
5,test,2,0.0,1-Back,1.0,m,Fri Jan 09 2026 13:49:54 GMT-0500 (Eastern Standard Time),424358.69999980927,152_y_f_n_a.png,I,m,653,6,2,1672.1999998092651,422686.5,9031,NNB,B,5
6,test,2,1.0,1-Back,1.0,z,Fri Jan 09 2026 13:49:54 GMT-0500 (Eastern Standard Time),426075.30000019073,152_y_f_n_a.png,I,z,697,7,2,1702.9000005722046,424372.39999961853,9031,NNB,B,6
7,test,2,0.0,1-Back,1.0,m,Fri Jan 09 2026 13:49:54 GMT-0500 (Eastern Standard Time),427792.0,153_y_m_n_a.png,I,m,692,8,2,1702.4000005722046,426089.5999994278,9031,NNB,B,7
8,test,2,0.0,1-Back,1.0,m,Fri Jan 09 2026 13:49:54 GMT-0500 (Eastern Standard Time),429342.0,110_o_f_n_a.png,I,m,527,9,2,1537.4000005722046,427804.5999994278,9031,NNB,B,8
9,test,2,0.0,1-Back,1.0,m,Fri Jan 09 2026 13:49:54 GMT-0500 (Eastern Standard Time),430908.69999980927,178_m_m_n_a.png,I,m,546,10,2,1552.1999998092651,429356.5,9031,NNB,B,9
10,test,2,1.0,1-Back,1.0,z,Fri Jan 09 2026 13:49:54 GMT-0500 (Eastern Standard Time),432725.19999980927,178_m_m_n_a.png,I,z,787,11,2,1805.1999998092651,430920.0,9031,NNB,B,10
11,test,2,0.0,1-Back,1.0,m,Fri Jan 09 2026 13:49:54 GMT-0500 (Eastern Standard Time),434458.39999961853,110_o_f_n_a.png,I,m,715,12,2,1718.5,432739.89999961853,9031,NNB,B,11
12,test,2,0.0,1-Back,1.0,m,Fri Jan 09 2026 13:49:54 GMT-0500 (Eastern Standard Time),436141.89999961853,086_o_f_n_a.png,I,m,661,13,2,1672.3000001907349,434469.5999994278,9031,NNB,B,12
13,test,2,0.0,1-Back,1.0,m,Fri Jan 09 2026 13:49:54 GMT-0500 (Eastern Standard Time),437808.69999980927,176_o_m_n_a.png,I,m,641,14,2,1653.6999998092651,436155.0,9031,NNB,B,13
14,test,2,0.0,1-Back,1.0,m,Fri Jan 09 2026 13:49:54 GMT-0500 (Eastern Standard Time),439592.0,065_o_m_n_a.png,I,m,751,15,2,1771.6999998092651,437820.30000019073,9031,NNB,B,14
15,test,2,1.0,1-Back,1.0,z,Fri Jan 09 2026 13:49:54 GMT-0500 (Eastern Standard Time),441392.0,065_o_m_n_a.png,I,z,776,16,2,1788.5,439603.5,9031,NNB,B,15
16,test,2,0.0,1-Back,1.0,m,Fri Jan 09 2026 13:49:54 GMT-0500 (Eastern Standard Time),442992.0,013_y_m_n_a.png,I,m,575,17,2,1588.5,441403.5,9031,NNB,B,16
17,test,2,1.0,1-Back,1.0,z,Fri Jan 09 2026 13:49:54 GMT-0500 (Eastern Standard Time),444758.69999980927,013_y_m_n_a.png,I,z,737,18,2,1755.0,443003.69999980927,9031,NNB,B,17
0,test,3,1.0,1-Back,,,Fri Jan 09 2026 13:49:54 GMT-0500 (Eastern Standard Time),444758.69999980927,173_y_f_n_a.png,I,space,8937,1,2,1755.0,443003.69999980927,9031,NNB,B,0
1,test,3,0.0,1-Back,1.0,m,Fri Jan 09 2026 13:49:54 GMT-0500 (Eastern Standard Time),457575.30000019073,065_o_m_n_a.png,I,m,686,1,2,1702.8000001907349,455872.5,9031,NNB,B,1
2,test,3,1.0,1-Back,1.0,z,Fri Jan 09 2026 13:49:54 GMT-0500 (Eastern Standard Time),459325.19999980927,065_o_m_n_a.png,I,z,729,1,2,1739.8000001907349,457585.39999961853,9031,NNB,B,2
3,test,3,0.0,1-Back,1.0,m,Fri Jan 09 2026 13:49:54 GMT-0500 (Eastern Standard Time),460925.19999980927,097_m_f_n_a.png,I,m,578,1,2,1586.6999998092651,459338.5,9031,NNB,B,3
4,test,3,1.0,1-Back,1.0,z,Fri Jan 09 2026 13:49:54 GMT-0500 (Eastern Standard Time),462842.0,097_m_f_n_a.png,I,z,898,1,2,1903.4000005722046,460938.5999994278,9031,NNB,B,4
5,test,3,0.0,1-Back,1.0,m,Fri Jan 09 2026 13:49:54 GMT-0500 (Eastern Standard Time),464442.0999994278,110_o_f_n_a.png,I,m,582,1,2,1585.1999998092651,462856.89999961853,9031,NNB,B,5
6,test,3,0.0,1-Back,1.0,m,Fri Jan 09 2026 13:49:54 GMT-0500 (Eastern Standard Time),466442.19999980927,153_y_m_n_a.png,I,m,965,1,2,1984.8999996185303,464457.30000019073,9031,NNB,B,6
7,test,3,0.0,1-Back,1.0,m,Fri Jan 09 2026 13:49:54 GMT-0500 (Eastern Standard Time),468158.39999961853,110_o_f_n_a.png,I,m,695,1,2,1702.3000001907349,466456.0999994278,9031,NNB,B,7
8,test,3,0.0,1-Back,1.0,m,Fri Jan 09 2026 13:49:54 GMT-0500 (Eastern Standard Time),469775.19999980927,013_y_m_n_a.png,I,m,593,1,2,1602.6999998092651,468172.5,9031,NNB,B,8
9,test,3,1.0,1-Back,1.0,z,Fri Jan 09 2026 13:49:54 GMT-0500 (Eastern Standard Time),471224.80000019073,013_y_m_n_a.png,I,z,432,1,2,1437.0,469787.80000019073,9031,NNB,B,9
10,test,3,0.0,1-Back,1.0,m,Fri Jan 09 2026 13:49:54 GMT-0500 (Eastern Standard Time),472858.30000019073,029_m_f_n_a.png,I,m,614,1,2,1621.2000007629395,471237.0999994278,9031,NNB,B,10
11,test,3,0.0,1-Back,1.0,m,Fri Jan 09 2026 13:49:54 GMT-0500 (Eastern Standard Time),474541.89999961853,152_y_f_n_a.png,I,m,661,1,2,1670.6999998092651,472871.19999980927,9031,NNB,B,11
12,test,3,1.0,1-Back,1.0,z,Fri Jan 09 2026 13:49:54 GMT-0500 (Eastern Standard Time),476325.19999980927,152_y_f_n_a.png,I,z,754,1,2,1770.3999996185303,474554.80000019073,9031,NNB,B,12
13,test,3,0.0,1-Back,1.0,m,Fri Jan 09 2026 13:49:54 GMT-0500 (Eastern Standard Time),477942.0,029_m_f_n_a.png,I,m,586,1,2,1603.1000003814697,476338.89999961853,9031,NNB,B,13
14,test,3,0.0,1-Back,1.0,m,Fri Jan 09 2026 13:49:54 GMT-0500 (Eastern Standard Time),479691.69999980927,126_m_m_n_a.png,I,m,715,1,2,1733.1000003814697,477958.5999994278,9031,NNB,B,14
14,test,3,1.0,1-Back,0.0,z,Fri Jan 09 2026 13:49:54 GMT-0500 (Eastern Standard Time),481642.0999994278,126_m_m_n_a.png,I,m,916,1,2,1934.3999996185303,479707.69999980927,9031,NNB,B,15
15,test,3,0.0,1-Back,1.0,m,Fri Jan 09 2026 13:49:54 GMT-0500 (Eastern Standard Time),483274.5,086_o_f_n_a.png,I,m,613,1,2,1619.1000003814697,481655.39999961853,9031,NNB,B,16
15,test,3,1.0,1-Back,0.0,z,Fri Jan 09 2026 13:49:54 GMT-0500 (Eastern Standard Time),485008.5999994278,086_o_f_n_a.png,I,m,708,1,2,1723.0999994277954,483285.5,9031,NNB,B,17
0,test,4,1.0,1-Back,,,Fri Jan 09 2026 13:49:54 GMT-0500 (Eastern Standard Time),485008.5999994278,097_m_f_n_a.png,I,space,10456,1,2,1723.0999994277954,483285.5,9031,NNB,B,0
1,test,4,0.0,1-Back,1.0,m,Fri Jan 09 2026 13:49:54 GMT-0500 (Eastern Standard Time),499275.0999994278,065_o_m_n_a.png,I,m,614,2,2,1634.5999994277954,497640.5,9031,NNB,B,1
2,test,4,0.0,1-Back,1.0,m,Fri Jan 09 2026 13:49:54 GMT-0500 (Eastern Standard Time),501025.0999994278,097_m_f_n_a.png,I,m,724,3,2,1737.1999998092651,499287.89999961853,9031,NNB,B,2
3,test,4,0.0,1-Back,1.0,m,Fri Jan 09 2026 13:49:54 GMT-0500 (Eastern Standard Time),502541.89999961853,110_o_f_n_a.png,I,m,494,4,2,1502.3000001907349,501039.5999994278,9031,NNB,B,3
3,test,4,1.0,1-Back,0.0,z,Fri Jan 09 2026 13:49:54 GMT-0500 (Eastern Standard Time),504091.80000019073,110_o_f_n_a.png,I,m,530,5,2,1539.5,502552.30000019073,9031,NNB,B,4
4,test,4,0.0,1-Back,1.0,m,Fri Jan 09 2026 13:49:54 GMT-0500 (Eastern Standard Time),505691.89999961853,152_y_f_n_a.png,I,m,580,6,2,1585.5999994277954,504106.30000019073,9031,NNB,B,5
5,test,4,0.0,1-Back,1.0,m,Fri Jan 09 2026 13:49:54 GMT-0500 (Eastern Standard Time),507225.5,153_y_m_n_a.png,I,m,515,7,2,1519.1999998092651,505706.30000019073,9031,NNB,B,6
5,test,4,1.0,1-Back,0.0,z,Fri Jan 09 2026 13:49:54 GMT-0500 (Eastern Standard Time),509158.5999994278,153_y_m_n_a.png,I,m,836,8,2,1918.2999992370605,507240.30000019073,9031,NNB,B,7
6,test,4,0.0,1-Back,1.0,m,Fri Jan 09 2026 13:49:54 GMT-0500 (Eastern Standard Time),510825.30000019073,152_y_f_n_a.png,I,m,633,9,2,1652.0,509173.30000019073,9031,NNB,B,8
7,test,4,0.0,1-Back,1.0,m,Fri Jan 09 2026 13:49:54 GMT-0500 (Eastern Standard Time),512508.5,178_m_m_n_a.png,I,m,663,10,2,1670.1000003814697,510838.39999961853,9031,NNB,B,9
7,test,4,1.0,1-Back,0.0,z,Fri Jan 09 2026 13:49:54 GMT-0500 (Eastern Standard Time),514091.80000019073,178_m_m_n_a.png,I,m,563,11,2,1568.7000007629395,512523.0999994278,9031,NNB,B,10
8,test,4,0.0,1-Back,1.0,m,Fri Jan 09 2026 13:49:54 GMT-0500 (Eastern Standard Time),515691.69999980927,086_o_f_n_a.png,I,m,580,12,2,1586.1999998092651,514105.5,9031,NNB,B,11
9,test,4,0.0,1-Back,1.0,m,Fri Jan 09 2026 13:49:54 GMT-0500 (Eastern Standard Time),517291.80000019073,176_o_m_n_a.png,I,m,582,13,2,1587.4000005722046,515704.39999961853,9031,NNB,B,12
10,test,4,0.0,1-Back,1.0,m,Fri Jan 09 2026 13:49:54 GMT-0500 (Eastern Standard Time),518991.80000019073,086_o_f_n_a.png,I,m,676,14,2,1686.5,517305.30000019073,9031,NNB,B,13
11,test,4,0.0,1-Back,1.0,m,Fri Jan 09 2026 13:49:54 GMT-0500 (Eastern Standard Time),520591.80000019073,173_y_f_n_a.png,I,m,575,15,2,1590.2000007629395,519001.5999994278,9031,NNB,B,14
12,test,4,1.0,1-Back,1.0,z,Fri Jan 09 2026 13:49:54 GMT-0500 (Eastern Standard Time),522192.0,173_y_f_n_a.png,I,z,577,16,2,1587.5,520604.5,9031,NNB,B,15
13,test,4,0.0,1-Back,1.0,m,Fri Jan 09 2026 13:49:54 GMT-0500 (Eastern Standard Time),523825.0999994278,029_m_f_n_a.png,I,m,607,17,2,1622.0,522203.0999994278,9031,NNB,B,16
14,test,4,1.0,1-Back,1.0,z,Fri Jan 09 2026 13:49:54 GMT-0500 (Eastern Standard Time),525608.5999994278,029_m_f_n_a.png,I,z,750,18,2,1770.3999996185303,523838.19999980927,9031,NNB,B,17
0,test,5,1.0,1-Back,,,Fri Jan 09 2026 13:49:54 GMT-0500 (Eastern Standard Time),525608.5999994278,176_o_m_n_a.png,I,space,4512,1,2,1770.3999996185303,523838.19999980927,9031,NNB,B,0
1,test,5,1.0,1-Back,1.0,z,Fri Jan 09 2026 13:49:54 GMT-0500 (Eastern Standard Time),534008.5,176_o_m_n_a.png,I,z,834,2,2,1852.5,532156.0,9031,NNB,B,1
2,test,5,0.0,1-Back,1.0,m,Fri Jan 09 2026 13:49:54 GMT-0500 (Eastern Standard Time),535659.3999996185,152_y_f_n_a.png,I,m,631,3,2,1639.5,534019.8999996185,9031,NNB,B,2
3,test,5,0.0,1-Back,1.0,m,Fri Jan 09 2026 13:49:54 GMT-0500 (Eastern Standard Time),537274.8000001907,153_y_m_n_a.png,I,m,597,4,2,1602.4000005722046,535672.3999996185,9031,NNB,B,3
4,test,5,0.0,1-Back,1.0,m,Fri Jan 09 2026 13:49:54 GMT-0500 (Eastern Standard Time),538991.8999996185,152_y_f_n_a.png,I,m,692,5,2,1708.1999998092651,537283.6999998093,9031,NNB,B,4
5,test,5,0.0,1-Back,1.0,m,Fri Jan 09 2026 13:49:54 GMT-0500 (Eastern Standard Time),540708.5999994278,126_m_m_n_a.png,I,m,688,6,2,1701.5,539007.0999994278,9031,NNB,B,5
6,test,5,1.0,1-Back,1.0,z,Fri Jan 09 2026 13:49:54 GMT-0500 (Eastern Standard Time),542525.0999994278,126_m_m_n_a.png,I,z,796,7,2,1803.2999992370605,540721.8000001907,9031,NNB,B,6
7,test,5,0.0,1-Back,1.0,m,Fri Jan 09 2026 13:49:54 GMT-0500 (Eastern Standard Time),544125.0999994278,173_y_f_n_a.png,I,m,562,8,2,1583.6999998092651,542541.3999996185,9031,NNB,B,7
8,test,5,0.0,1-Back,1.0,m,Fri Jan 09 2026 13:49:54 GMT-0500 (Eastern Standard Time),545925.1999998093,013_y_m_n_a.png,I,m,770,9,2,1786.6999998092651,544138.5,9031,NNB,B,8
9,test,5,0.0,1-Back,1.0,m,Fri Jan 09 2026 13:49:54 GMT-0500 (Eastern Standard Time),548075.0,173_y_f_n_a.png,I,m,1130,10,2,2140.199999809265,545934.8000001907,9031,NNB,B,9
10,test,5,0.0,1-Back,1.0,m,Fri Jan 09 2026 13:49:54 GMT-0500 (Eastern Standard Time),550108.3999996185,086_o_f_n_a.png,I,m,997,11,2,2018.6999998092651,548089.6999998093,9031,NNB,B,10
11,test,5,1.0,1-Back,1.0,z,Fri Jan 09 2026 13:49:54 GMT-0500 (Eastern Standard Time),551841.8000001907,086_o_f_n_a.png,I,z,708,12,2,1720.0,550121.8000001907,9031,NNB,B,11
12,test,5,0.0,1-Back,1.0,m,Fri Jan 09 2026 13:49:54 GMT-0500 (Eastern Standard Time),553691.5999994278,065_o_m_n_a.png,I,m,830,13,2,1833.8999996185303,551857.6999998093,9031,NNB,B,12
13,test,5,0.0,1-Back,1.0,m,Fri Jan 09 2026 13:49:54 GMT-0500 (Eastern Standard Time),555491.8999996185,097_m_f_n_a.png,I,m,772,14,2,1787.3000001907349,553704.5999994278,9031,NNB,B,13
14,test,5,1.0,1-Back,1.0,z,Fri Jan 09 2026 13:49:54 GMT-0500 (Eastern Standard Time),557158.5,097_m_f_n_a.png,I,z,636,15,2,1654.0,555504.5,9031,NNB,B,14
15,test,5,0.0,1-Back,1.0,m,Fri Jan 09 2026 13:49:54 GMT-0500 (Eastern Standard Time),558991.8999996185,065_o_m_n_a.png,I,m,793,16,2,1817.0,557174.8999996185,9031,NNB,B,15
16,test,5,0.0,1-Back,1.0,m,Fri Jan 09 2026 13:49:54 GMT-0500 (Eastern Standard Time),560658.5999994278,029_m_f_n_a.png,I,m,640,17,2,1652.8999996185303,559005.6999998093,9031,NNB,B,16
17,test,5,0.0,1-Back,1.0,m,Fri Jan 09 2026 13:49:54 GMT-0500 (Eastern Standard Time),562341.8999996185,178_m_m_n_a.png,I,m,654,18,2,1672.3999996185303,560669.5,9031,NNB,B,17
0,prac,1,0.0,2-Back,,,Fri Jan 09 2026 13:49:54 GMT-0500 (Eastern Standard Time),562341.8999996185,013_y_m_n_a.png,I,space,7684,1,2,1672.3999996185303,560669.5,9031,NNB,B,0
0,prac,1,0.0,2-Back,,,Fri Jan 09 2026 13:49:54 GMT-0500 (Eastern Standard Time),562341.8999996185,029_m_f_n_a.png,I,space,7684,2,2,1672.3999996185303,560669.5,9031,NNB,B,0
1,prac,1,1.0,2-Back,1.0,m,Fri Jan 09 2026 13:49:54 GMT-0500 (Eastern Standard Time),712175.3000001907,065_o_m_n_a.png,I,m,1153,3,2,2098.6000003814697,710076.6999998093,9031,NNB,B,1
2,prac,1,0.0,2-Back,1.0,m,Fri Jan 09 2026 13:49:54 GMT-0500 (Eastern Standard Time),714141.8999996185,086_o_f_n_a.png,I,m,986,4,2,1924.0,712217.8999996185,9031,NNB,B,2
3,prac,1,0.0,2-Back,1.0,z,Fri Jan 09 2026 13:49:54 GMT-0500 (Eastern Standard Time),716058.5,065_o_m_n_a.png,I,z,1124,5,2,1893.3000001907349,714165.1999998093,9031,NNB,B,3
4,prac,1,1.0,2-Back,1.0,z,Fri Jan 09 2026 13:49:54 GMT-0500 (Eastern Standard Time),718325.3999996185,086_o_f_n_a.png,I,z,1469,6,2,2249.8999996185303,716075.5,9031,NNB,B,4
5,prac,1,0.0,2-Back,1.0,m,Fri Jan 09 2026 13:49:54 GMT-0500 (Eastern Standard Time),720258.5,178_m_m_n_a.png,I,m,993,7,2,1911.1000003814697,718347.3999996185,9031,NNB,B,5
6,prac,1,0.0,2-Back,1.0,m,Fri Jan 09 2026 13:49:54 GMT-0500 (Eastern Standard Time),722141.8000001907,176_o_m_n_a.png,I,m,941,8,2,1866.1000003814697,720275.6999998093,9031,NNB,B,6
7,prac,1,0.0,2-Back,1.0,m,Fri Jan 09 2026 13:49:54 GMT-0500 (Eastern Standard Time),723875.1999998093,173_y_f_n_a.png,I,m,799,9,2,1716.8999996185303,722158.3000001907,9031,NNB,B,7
8,prac,1,1.0,2-Back,1.0,z,Fri Jan 09 2026 13:49:54 GMT-0500 (Eastern Standard Time),725825.1999998093,176_o_m_n_a.png,I,z,1155,10,2,1931.6000003814697,723893.5999994278,9031,NNB,B,8
9,prac,1,0.0,2-Back,1.0,m,Fri Jan 09 2026 13:49:54 GMT-0500 (Eastern Standard Time),727841.8000001907,152_y_f_n_a.png,I,m,1054,11,2,2000.3000001907349,725841.5,9031,NNB,B,9
10,prac,1,0.0,2-Back,1.0,m,Fri Jan 09 2026 13:49:54 GMT-0500 (Eastern Standard Time),729575.1999998093,178_m_m_n_a.png,I,m,932,12,2,1715.1999998092651,727860.0,9031,NNB,B,10
0,test,1,0.0,2-Back,,,Fri Jan 09 2026 13:49:54 GMT-0500 (Eastern Standard Time),729575.1999998093,153_y_m_n_a.png,I,space,9351,1,2,1715.1999998092651,727860.0,9031,NNB,B,0
0,test,1,0.0,2-Back,,,Fri Jan 09 2026 13:49:54 GMT-0500 (Eastern Standard Time),729575.1999998093,153_y_m_n_a.png,I,space,9351,2,2,1715.1999998092651,727860.0,9031,NNB,B,0
1,test,1,0.0,2-Back,1.0,m,Fri Jan 09 2026 13:49:54 GMT-0500 (Eastern Standard Time),756241.3999996185,086_o_f_n_a.png,I,m,1006,3,2,2033.8000001907349,754207.5999994278,9031,NNB,B,1
2,test,1,0.0,2-Back,1.0,m,Fri Jan 09 2026 13:49:54 GMT-0500 (Eastern Standard Time),758258.3000001907,126_m_m_n_a.png,I,m,990,4,2,2005.2000007629395,756253.0999994278,9031,NNB,B,2
3,test,1,1.0,2-Back,1.0,z,Fri Jan 09 2026 13:49:54 GMT-0500 (Eastern Standard Time),760391.5999994278,086_o_f_n_a.png,I,z,1102,5,2,2118.5,758273.0999994278,9031,NNB,B,3
4,test,1,0.0,2-Back,1.0,m,Fri Jan 09 2026 13:49:54 GMT-0500 (Eastern Standard Time),762274.8999996185,152_y_f_n_a.png,I,m,856,6,2,1871.0999994277954,760403.8000001907,9031,NNB,B,4
4,test,1,0.0,2-Back,0.0,m,Fri Jan 09 2026 13:49:54 GMT-0500 (Eastern Standard Time),764708.3000001907,126_m_m_n_a.png,I,z,1388,7,2,2413.9000005722046,762294.3999996185,9031,NNB,B,5
5,test,1,1.0,2-Back,1.0,z,Fri Jan 09 2026 13:49:54 GMT-0500 (Eastern Standard Time),767041.5,152_y_f_n_a.png,I,z,1291,8,2,2317.9000005722046,764723.5999994278,9031,NNB,B,6
6,test,1,0.0,2-Back,1.0,m,Fri Jan 09 2026 13:49:54 GMT-0500 (Eastern Standard Time),768858.0999994278,013_y_m_n_a.png,I,m,798,9,2,1804.3999996185303,767053.6999998093,9031,NNB,B,7
7,test,1,0.0,2-Back,1.0,m,Fri Jan 09 2026 13:49:54 GMT-0500 (Eastern Standard Time),770690.8999996185,110_o_f_n_a.png,I,m,804,10,2,1820.5,768870.3999996185,9031,NNB,B,8
7,test,1,1.0,2-Back,0.0,z,Fri Jan 09 2026 13:49:54 GMT-0500 (Eastern Standard Time),772524.3000001907,013_y_m_n_a.png,I,m,812,11,2,1824.3000001907349,770700.0,9031,NNB,B,9
8,test,1,0.0,2-Back,1.0,m,Fri Jan 09 2026 13:49:54 GMT-0500 (Eastern Standard Time),775074.8999996185,029_m_f_n_a.png,I,m,1523,12,2,2540.699999809265,772534.1999998093,9031,NNB,B,10
8,test,1,0.0,2-Back,0.0,m,Fri Jan 09 2026 13:49:54 GMT-0500 (Eastern Standard Time),777308.1999998093,029_m_f_n_a.png,I,z,1213,13,2,2218.3999996185303,775089.8000001907,9031,NNB,B,11
9,test,1,0.0,2-Back,1.0,m,Fri Jan 09 2026 13:49:54 GMT-0500 (Eastern Standard Time),779341.3999996185,065_o_m_n_a.png,I,m,997,14,2,2015.8999996185303,777325.5,9031,NNB,B,12
10,test,1,0.0,2-Back,1.0,m,Fri Jan 09 2026 13:49:54 GMT-0500 (Eastern Standard Time),781208.0999994278,110_o_f_n_a.png,I,m,817,15,2,1850.6999998092651,779357.3999996185,9031,NNB,B,13
11,test,1,1.0,2-Back,1.0,z,Fri Jan 09 2026 13:49:54 GMT-0500 (Eastern Standard Time),783058.1999998093,065_o_m_n_a.png,I,z,823,16,2,1837.1000003814697,781221.0999994278,9031,NNB,B,14
12,test,1,0.0,2-Back,1.0,m,Fri Jan 09 2026 13:49:54 GMT-0500 (Eastern Standard Time),785091.6999998093,097_m_f_n_a.png,I,m,1005,17,2,2018.6000003814697,783073.0999994278,9031,NNB,B,15
13,test,1,0.0,2-Back,1.0,m,Fri Jan 09 2026 13:49:54 GMT-0500 (Eastern Standard Time),787108.1999998093,178_m_m_n_a.png,I,m,988,18,2,2001.8000001907349,785106.3999996185,9031,NNB,B,16
0,test,2,0.0,2-Back,,,Fri Jan 09 2026 13:49:54 GMT-0500 (Eastern Standard Time),787108.1999998093,178_m_m_n_a.png,I,space,3883,1,2,2001.8000001907349,785106.3999996185,9031,NNB,B,0
0,test,2,0.0,2-Back,,,Fri Jan 09 2026 13:49:54 GMT-0500 (Eastern Standard Time),787108.1999998093,173_y_f_n_a.png,I,space,3883,2,2,2001.8000001907349,785106.3999996185,9031,NNB,B,0
0,test,2,1.0,2-Back,0.0,z,Fri Jan 09 2026 13:49:54 GMT-0500 (Eastern Standard Time),798191.5999994278,178_m_m_n_a.png,I,m,926,3,2,1935.0999994277954,796256.5,9031,NNB,B,1
1,test,2,0.0,2-Back,1.0,m,Fri Jan 09 2026 13:49:54 GMT-0500 (Eastern Standard Time),800041.6999998093,097_m_f_n_a.png,I,m,832,4,2,1835.8000001907349,798205.8999996185,9031,NNB,B,2
2,test,2,0.0,2-Back,1.0,m,Fri Jan 09 2026 13:49:54 GMT-0500 (Eastern Standard Time),802524.8999996185,173_y_f_n_a.png,I,m,1445,5,2,2466.3999996185303,800058.5,9031,NNB,B,3
3,test,2,0.0,2-Back,1.0,m,Fri Jan 09 2026 13:49:54 GMT-0500 (Eastern Standard Time),804608.1999998093,065_o_m_n_a.png,I,m,1059,6,2,2070.800000190735,802537.3999996185,9031,NNB,B,4
4,test,2,0.0,2-Back,1.0,m,Fri Jan 09 2026 13:49:54 GMT-0500 (Eastern Standard Time),806741.5999994278,152_y_f_n_a.png,I,m,1088,7,2,2115.3999996185303,804626.1999998093,9031,NNB,B,5
5,test,2,1.0,2-Back,1.0,z,Fri Jan 09 2026 13:49:54 GMT-0500 (Eastern Standard Time),808708.1999998093,065_o_m_n_a.png,I,z,922,8,2,1950.8000001907349,806757.3999996185,9031,NNB,B,6
6,test,2,0.0,2-Back,1.0,m,Fri Jan 09 2026 13:49:54 GMT-0500 (Eastern Standard Time),810758.1999998093,013_y_m_n_a.png,I,m,1019,9,2,2038.5,808719.6999998093,9031,NNB,B,7
7,test,2,0.0,2-Back,1.0,m,Fri Jan 09 2026 13:49:54 GMT-0500 (Eastern Standard Time),813674.6999998093,013_y_m_n_a.png,I,m,1881,10,2,2899.199999809265,810775.5,9031,NNB,B,8
8,test,2,0.0,2-Back,1.0,m,Fri Jan 09 2026 13:49:54 GMT-0500 (Eastern Standard Time),815691.1999998093,029_m_f_n_a.png,I,m,996,11,2,2001.1999998092651,813690.0,9031,NNB,B,9
9,test,2,0.0,2-Back,1.0,m,Fri Jan 09 2026 13:49:54 GMT-0500 (Eastern Standard Time),817708.0999994278,173_y_f_n_a.png,I,m,996,12,2,2006.0,815702.0999994278,9031,NNB,B,10
10,test,2,1.0,2-Back,1.0,z,Fri Jan 09 2026 13:49:54 GMT-0500 (Eastern Standard Time),820241.5999994278,029_m_f_n_a.png,I,z,1508,13,2,2519.3999996185303,817722.1999998093,9031,NNB,B,11
11,test,2,0.0,2-Back,1.0,m,Fri Jan 09 2026 13:49:54 GMT-0500 (Eastern Standard Time),822024.6999998093,176_o_m_n_a.png,I,m,750,14,2,1768.8999996185303,820255.8000001907,9031,NNB,B,12
12,test,2,0.0,2-Back,1.0,m,Fri Jan 09 2026 13:49:54 GMT-0500 (Eastern Standard Time),824324.3000001907,176_o_m_n_a.png,I,m,1253,15,2,2276.1000003814697,822048.1999998093,9031,NNB,B,13
13,test,2,0.0,2-Back,1.0,m,Fri Jan 09 2026 13:49:54 GMT-0500 (Eastern Standard Time),826158.1999998093,110_o_f_n_a.png,I,m,810,16,2,1822.1999998092651,824336.0,9031,NNB,B,14
14,test,2,0.0,2-Back,1.0,m,Fri Jan 09 2026 13:49:54 GMT-0500 (Eastern Standard Time),828024.8999996185,126_m_m_n_a.png,I,m,818,17,2,1844.5,826180.3999996185,9031,NNB,B,15
15,test,2,1.0,2-Back,1.0,z,Fri Jan 09 2026 13:49:54 GMT-0500 (Eastern Standard Time),830024.8999996185,110_o_f_n_a.png,I,z,950,18,2,1983.5,828041.3999996185,9031,NNB,B,16
0,test,3,1.0,2-Back,,,Fri Jan 09 2026 13:49:54 GMT-0500 (Eastern Standard Time),830024.8999996185,153_y_m_n_a.png,I,space,3767,1,2,1983.5,828041.3999996185,9031,NNB,B,0
0,test,3,1.0,2-Back,,,Fri Jan 09 2026 13:49:54 GMT-0500 (Eastern Standard Time),830024.8999996185,153_y_m_n_a.png,I,space,3767,2,2,1983.5,828041.3999996185,9031,NNB,B,0
1,test,3,0.0,2-Back,1.0,m,Fri Jan 09 2026 13:49:54 GMT-0500 (Eastern Standard Time),840891.3000001907,110_o_f_n_a.png,I,m,880,3,2,1884.9000005722046,839006.3999996185,9031,NNB,B,1
2,test,3,0.0,2-Back,1.0,m,Fri Jan 09 2026 13:49:54 GMT-0500 (Eastern Standard Time),842774.6999998093,178_m_m_n_a.png,I,m,852,4,2,1868.8000001907349,840905.8999996185,9031,NNB,B,2
3,test,3,1.0,2-Back,1.0,z,Fri Jan 09 2026 13:49:54 GMT-0500 (Eastern Standard Time),845174.8999996185,110_o_f_n_a.png,I,z,1353,5,2,2383.8999996185303,842791.0,9031,NNB,B,3
4,test,3,0.0,2-Back,1.0,m,Fri Jan 09 2026 13:49:54 GMT-0500 (Eastern Standard Time),847091.5,013_y_m_n_a.png,I,m,889,6,2,1901.1000003814697,845190.3999996185,9031,NNB,B,4
5,test,3,0.0,2-Back,1.0,m,Fri Jan 09 2026 13:49:54 GMT-0500 (Eastern Standard Time),849041.5999994278,178_m_m_n_a.png,I,m,924,7,2,1936.7999992370605,847104.8000001907,9031,NNB,B,5
5,test,3,1.0,2-Back,0.0,z,Fri Jan 09 2026 13:49:54 GMT-0500 (Eastern Standard Time),851241.5,013_y_m_n_a.png,I,m,1166,8,2,2186.800000190735,849054.6999998093,9031,NNB,B,6
6,test,3,0.0,2-Back,1.0,m,Fri Jan 09 2026 13:49:54 GMT-0500 (Eastern Standard Time),853174.5,173_y_f_n_a.png,I,m,885,9,2,1917.6000003814697,851256.8999996185,9031,NNB,B,7
7,test,3,0.0,2-Back,1.0,m,Fri Jan 09 2026 13:49:54 GMT-0500 (Eastern Standard Time),854941.5,126_m_m_n_a.png,I,m,745,10,2,1754.6000003814697,853186.8999996185,9031,NNB,B,8
8,test,3,1.0,2-Back,1.0,z,Fri Jan 09 2026 13:49:54 GMT-0500 (Eastern Standard Time),856991.5,173_y_f_n_a.png,I,z,1026,11,2,2036.5,854955.0,9031,NNB,B,9
9,test,3,1.0,2-Back,1.0,z,Fri Jan 09 2026 13:49:54 GMT-0500 (Eastern Standard Time),859424.6999998093,126_m_m_n_a.png,I,z,1392,12,2,2414.5,857010.1999998093,9031,NNB,B,10
10,test,3,0.0,2-Back,1.0,m,Fri Jan 09 2026 13:49:54 GMT-0500 (Eastern Standard Time),861224.8999996185,110_o_f_n_a.png,I,m,767,13,2,1785.3999996185303,859439.5,9031,NNB,B,11
11,test,3,0.0,2-Back,1.0,m,Fri Jan 09 2026 13:49:54 GMT-0500 (Eastern Standard Time),862941.3999996185,097_m_f_n_a.png,I,m,679,14,2,1699.8999996185303,861241.5,9031,NNB,B,12
12,test,3,0.0,2-Back,1.0,m,Fri Jan 09 2026 13:49:54 GMT-0500 (Eastern Standard Time),864708.1999998093,065_o_m_n_a.png,I,m,738,15,2,1753.3000001907349,862954.8999996185,9031,NNB,B,13
12,test,3,1.0,2-Back,0.0,z,Fri Jan 09 2026 13:49:54 GMT-0500 (Eastern Standard Time),866458.8999996185,097_m_f_n_a.png,I,m,732,16,2,1736.0,864722.8999996185,9031,NNB,B,14
13,test,3,0.0,2-Back,1.0,m,Fri Jan 09 2026 13:49:54 GMT-0500 (Eastern Standard Time),868224.8999996185,086_o_f_n_a.png,I,m,741,17,2,1754.0999994277954,866470.8000001907,9031,NNB,B,15
14,test,3,0.0,2-Back,1.0,m,Fri Jan 09 2026 13:49:54 GMT-0500 (Eastern Standard Time),870258.1999998093,086_o_f_n_a.png,I,m,990,18,2,2016.8999996185303,868241.3000001907,9031,NNB,B,16
0,test,4,0.0,2-Back,,,Fri Jan 09 2026 13:49:54 GMT-0500 (Eastern Standard Time),870258.1999998093,176_o_m_n_a.png,I,space,4925,1,2,2016.8999996185303,868241.3000001907,9031,NNB,B,0
0,test,4,0.0,2-Back,,,Fri Jan 09 2026 13:49:54 GMT-0500 (Eastern Standard Time),870258.1999998093,152_y_f_n_a.png,I,space,4925,2,2,2016.8999996185303,868241.3000001907,9031,NNB,B,0
1,test,4,1.0,2-Back,1.0,z,Fri Jan 09 2026 13:49:54 GMT-0500 (Eastern Standard Time),882458.0999994278,176_o_m_n_a.png,I,z,866,3,2,1881.0,880577.0999994278,9031,NNB,B,1
2,test,4,1.0,2-Back,1.0,z,Fri Jan 09 2026 13:49:54 GMT-0500 (Eastern Standard Time),884574.8000001907,152_y_f_n_a.png,I,z,1094,4,2,2104.1000003814697,882470.6999998093,9031,NNB,B,2
3,test,4,0.0,2-Back,1.0,m,Fri Jan 09 2026 13:49:54 GMT-0500 (Eastern Standard Time),886308.0,110_o_f_n_a.png,I,m,705,5,2,1719.6000003814697,884588.3999996185,9031,NNB,B,3
4,test,4,0.0,2-Back,1.0,m,Fri Jan 09 2026 13:49:54 GMT-0500 (Eastern Standard Time),888508.0,110_o_f_n_a.png,I,m,1163,6,2,2183.800000190735,886324.1999998093,9031,NNB,B,4
5,test,4,0.0,2-Back,1.0,m,Fri Jan 09 2026 13:49:54 GMT-0500 (Eastern Standard Time),890441.3999996185,029_m_f_n_a.png,I,m,899,7,2,1918.8000001907349,888522.5999994278,9031,NNB,B,5
6,test,4,0.0,2-Back,1.0,m,Fri Jan 09 2026 13:49:54 GMT-0500 (Eastern Standard Time),892108.0,013_y_m_n_a.png,I,m,646,8,2,1651.4000005722046,890456.5999994278,9031,NNB,B,6
6,test,4,1.0,2-Back,0.0,z,Fri Jan 09 2026 13:49:54 GMT-0500 (Eastern Standard Time),894058.0999994278,029_m_f_n_a.png,I,m,932,9,2,1938.6999998092651,892119.3999996185,9031,NNB,B,7
7,test,4,0.0,2-Back,1.0,m,Fri Jan 09 2026 13:49:54 GMT-0500 (Eastern Standard Time),895924.6999998093,126_m_m_n_a.png,I,m,822,10,2,1849.0,894075.6999998093,9031,NNB,B,8
8,test,4,0.0,2-Back,1.0,m,Fri Jan 09 2026 13:49:54 GMT-0500 (Eastern Standard Time),897924.6999998093,013_y_m_n_a.png,I,m,954,11,2,1984.5,895940.1999998093,9031,NNB,B,9
9,test,4,0.0,2-Back,1.0,m,Fri Jan 09 2026 13:49:54 GMT-0500 (Eastern Standard Time),900008.1999998093,086_o_f_n_a.png,I,m,1051,12,2,2070.800000190735,897937.3999996185,9031,NNB,B,10
10,test,4,0.0,2-Back,1.0,m,Fri Jan 09 2026 13:49:54 GMT-0500 (Eastern Standard Time),901924.8000001907,153_y_m_n_a.png,I,m,888,13,2,1902.5,900022.3000001907,9031,NNB,B,11
11,test,4,1.0,2-Back,1.0,z,Fri Jan 09 2026 13:49:54 GMT-0500 (Eastern Standard Time),903841.5,086_o_f_n_a.png,I,z,891,14,2,1902.4000005722046,901939.0999994278,9031,NNB,B,12
12,test,4,1.0,2-Back,1.0,z,Fri Jan 09 2026 13:49:54 GMT-0500 (Eastern Standard Time),906041.3999996185,153_y_m_n_a.png,I,z,1149,15,2,2182.5999994277954,903858.8000001907,9031,NNB,B,13
13,test,4,0.0,2-Back,1.0,m,Fri Jan 09 2026 13:49:54 GMT-0500 (Eastern Standard Time),907774.6999998093,178_m_m_n_a.png,I,m,710,16,2,1721.3000001907349,906053.3999996185,9031,NNB,B,14
14,test,4,0.0,2-Back,1.0,m,Fri Jan 09 2026 13:49:54 GMT-0500 (Eastern Standard Time),909458.0999994278,097_m_f_n_a.png,I,m,657,17,2,1669.2999992370605,907788.8000001907,9031,NNB,B,15
14,test,4,1.0,2-Back,0.0,z,Fri Jan 09 2026 13:49:54 GMT-0500 (Eastern Standard Time),911491.5,178_m_m_n_a.png,I,m,1006,18,2,2020.5,909471.0,9031,NNB,B,16
0,test,5,1.0,2-Back,,,Fri Jan 09 2026 13:49:54 GMT-0500 (Eastern Standard Time),911491.5,153_y_m_n_a.png,I,space,4724,1,2,2020.5,909471.0,9031,NNB,B,0
0,test,5,1.0,2-Back,,,Fri Jan 09 2026 13:49:54 GMT-0500 (Eastern Standard Time),911491.5,097_m_f_n_a.png,I,space,4724,2,2,2020.5,909471.0,9031,NNB,B,0
1,test,5,1.0,2-Back,1.0,z,Fri Jan 09 2026 13:49:54 GMT-0500 (Eastern Standard Time),923324.5999994278,153_y_m_n_a.png,I,z,1029,3,2,2039.3999996185303,921285.1999998093,9031,NNB,B,1
2,test,5,1.0,2-Back,1.0,z,Fri Jan 09 2026 13:49:54 GMT-0500 (Eastern Standard Time),925191.5,097_m_f_n_a.png,I,z,835,4,2,1853.5,923338.0,9031,NNB,B,2
3,test,5,0.0,2-Back,1.0,m,Fri Jan 09 2026 13:49:54 GMT-0500 (Eastern Standard Time),926991.3999996185,086_o_f_n_a.png,I,m,776,5,2,1785.3000001907349,925206.0999994278,9031,NNB,B,3
3,test,5,0.0,2-Back,0.0,m,Fri Jan 09 2026 13:49:54 GMT-0500 (Eastern Standard Time),929474.6999998093,153_y_m_n_a.png,I,z,1439,6,2,2468.0,927006.6999998093,9031,NNB,B,4
4,test,5,0.0,2-Back,1.0,m,Fri Jan 09 2026 13:49:54 GMT-0500 (Eastern Standard Time),931474.6999998093,173_y_f_n_a.png,I,m,957,7,2,1974.5,929500.1999998093,9031,NNB,B,5
5,test,5,0.0,2-Back,1.0,m,Fri Jan 09 2026 13:49:54 GMT-0500 (Eastern Standard Time),933424.3999996185,086_o_f_n_a.png,I,m,924,8,2,1934.5,931489.8999996185,9031,NNB,B,6
6,test,5,1.0,2-Back,1.0,z,Fri Jan 09 2026 13:49:54 GMT-0500 (Eastern Standard Time),935591.1999998093,173_y_f_n_a.png,I,z,1135,9,2,2156.699999809265,933434.5,9031,NNB,B,7
7,test,5,0.0,2-Back,1.0,m,Fri Jan 09 2026 13:49:54 GMT-0500 (Eastern Standard Time),937491.5,065_o_m_n_a.png,I,m,872,10,2,1886.1000003814697,935605.3999996185,9031,NNB,B,8
8,test,5,0.0,2-Back,1.0,m,Fri Jan 09 2026 13:49:54 GMT-0500 (Eastern Standard Time),939191.3999996185,029_m_f_n_a.png,I,m,668,11,2,1687.8000001907349,937503.5999994278,9031,NNB,B,9
9,test,5,0.0,2-Back,1.0,m,Fri Jan 09 2026 13:49:54 GMT-0500 (Eastern Standard Time),940874.5,126_m_m_n_a.png,I,m,663,12,2,1670.4000005722046,939204.0999994278,9031,NNB,B,10
9,test,5,0.0,2-Back,0.0,m,Fri Jan 09 2026 13:49:54 GMT-0500 (Eastern Standard Time),942808.0999994278,065_o_m_n_a.png,I,z,901,13,2,1918.5999994277954,940889.5,9031,NNB,B,11
9,test,5,1.0,2-Back,0.0,z,Fri Jan 09 2026 13:49:54 GMT-0500 (Eastern Standard Time),945708.0,126_m_m_n_a.png,I,m,1863,14,2,2885.0,942823.0,9031,NNB,B,12
10,test,5,0.0,2-Back,1.0,m,Fri Jan 09 2026 13:49:54 GMT-0500 (Eastern Standard Time),947541.3999996185,152_y_f_n_a.png,I,m,803,15,2,1818.0999994277954,945723.3000001907,9031,NNB,B,13
11,test,5,0.0,2-Back,1.0,m,Fri Jan 09 2026 13:49:54 GMT-0500 (Eastern Standard Time),949208.0999994278,176_o_m_n_a.png,I,m,634,16,2,1651.5999994277954,947556.5,9031,NNB,B,14
12,test,5,0.0,2-Back,1.0,m,Fri Jan 09 2026 13:49:54 GMT-0500 (Eastern Standard Time),950841.5,029_m_f_n_a.png,I,m,616,17,2,1620.1000003814697,949221.3999996185,9031,NNB,B,15
12,test,5,1.0,2-Back,0.0,z,Fri Jan 09 2026 13:49:54 GMT-0500 (Eastern Standard Time),952691.5,176_o_m_n_a.png,I,m,822,18,2,1835.8000001907349,950855.6999998093,9031,NNB,B,16
