acc_sum,block,block_c,change,condition,correct,correct_response,datetime,endtime,face,project,response,response_time,row_sel,session_number,start_end,starttime,subject_id,task,task_vers,trial
0,prac,1,,1-Back,,,Thu Oct 02 2025 14:56:29 GMT-0400 (Eastern Daylight Time),,050_m_f_n_a.png,I,space,13879,1,1,,,9031,NNB,A,0
1,prac,1,0.0,1-Back,1.0,m,Thu Oct 02 2025 14:56:29 GMT-0400 (Eastern Daylight Time),3721318.399999976,063_y_f_n_a.png,I,m,1371,2,1,2227.100000023842,3719091.2999999523,9031,NNB,A,1
2,prac,1,1.0,1-Back,1.0,z,Thu Oct 02 2025 14:56:29 GMT-0400 (Eastern Daylight Time),3723951.7000000477,063_y_f_n_a.png,I,z,1848,3,1,2617.100000023842,3721334.600000024,9031,NNB,A,2
3,prac,1,0.0,1-Back,1.0,m,Thu Oct 02 2025 14:56:29 GMT-0400 (Eastern Daylight Time),3726068.100000024,053_o_m_n_a.png,I,m,1153,4,1,2099.0,3723969.100000024,9031,NNB,A,3
4,prac,1,0.0,1-Back,1.0,m,Thu Oct 02 2025 14:56:29 GMT-0400 (Eastern Daylight Time),3728451.600000024,058_m_m_n_a.png,I,m,1557,5,1,2369.8000000715256,3726081.7999999523,9031,NNB,A,4
5,prac,1,1.0,1-Back,1.0,z,Thu Oct 02 2025 14:56:29 GMT-0400 (Eastern Daylight Time),3730318.2000000477,058_m_m_n_a.png,I,z,1069,6,1,1851.6000000238419,3728466.600000024,9031,NNB,A,5
5,prac,1,0.0,1-Back,0.0,m,Thu Oct 02 2025 14:56:29 GMT-0400 (Eastern Daylight Time),3733201.5,047_o_f_n_a.png,I,None,2014,7,1,2868.5,3730333.0,9031,NNB,A,6
6,prac,1,0.0,1-Back,1.0,m,Thu Oct 02 2025 14:56:29 GMT-0400 (Eastern Daylight Time),3734101.600000024,045_m_m_n_a.png,I,m,72,8,1,884.0,3733217.600000024,9031,NNB,A,7
6,prac,1,0.0,1-Back,0.0,m,Thu Oct 02 2025 14:56:29 GMT-0400 (Eastern Daylight Time),3736901.399999976,050_m_f_n_a.png,I,None,2014,9,1,2781.899999976158,3734119.5,9031,NNB,A,8
7,prac,1,1.0,1-Back,1.0,z,Thu Oct 02 2025 14:56:29 GMT-0400 (Eastern Daylight Time),3738351.5,050_m_f_n_a.png,I,z,667,10,1,1434.7000000476837,3736916.7999999523,9031,NNB,A,9
7,prac,1,0.0,1-Back,0.0,m,Thu Oct 02 2025 14:56:29 GMT-0400 (Eastern Daylight Time),3740585.0,053_o_m_n_a.png,I,z,1441,11,1,2218.399999976158,3738366.600000024,9031,NNB,A,10
8,prac,1,0.0,1-Back,1.0,m,Thu Oct 02 2025 14:56:29 GMT-0400 (Eastern Daylight Time),3742934.899999976,010_y_f_n_a.png,I,m,1474,12,1,2332.5,3740602.399999976,9031,NNB,A,11
0,prac,2,0.0,1-Back,,,Thu Oct 02 2025 14:56:29 GMT-0400 (Eastern Daylight Time),3742934.899999976,050_m_f_n_a.png,I,a,4409,1,1,2332.5,3740602.399999976,9031,NNB,A,0
0,prac,2,0.0,1-Back,0.0,m,Thu Oct 02 2025 14:56:29 GMT-0400 (Eastern Daylight Time),3753184.7000000477,063_y_f_n_a.png,I,None,2001,2,1,2768.0,3750416.7000000477,9031,NNB,A,1
0,prac,2,1.0,1-Back,0.0,z,Thu Oct 02 2025 14:56:29 GMT-0400 (Eastern Daylight Time),3755134.899999976,063_y_f_n_a.png,I,m,1168,3,1,1935.5,3753199.399999976,9031,NNB,A,2
1,prac,2,0.0,1-Back,1.0,m,Thu Oct 02 2025 14:56:29 GMT-0400 (Eastern Daylight Time),3757651.5,053_o_m_n_a.png,I,m,1728,4,1,2501.0,3755150.5,9031,NNB,A,3
1,prac,2,0.0,1-Back,0.0,m,Thu Oct 02 2025 14:56:29 GMT-0400 (Eastern Daylight Time),3760168.2000000477,058_m_m_n_a.png,I,z,1725,5,1,2502.2000000476837,3757666.0,9031,NNB,A,4
1,prac,2,1.0,1-Back,0.0,z,Thu Oct 02 2025 14:56:29 GMT-0400 (Eastern Daylight Time),3762951.5,058_m_m_n_a.png,I,None,2001,6,1,2768.5,3760183.0,9031,NNB,A,5
2,prac,2,0.0,1-Back,1.0,m,Thu Oct 02 2025 14:56:29 GMT-0400 (Eastern Daylight Time),3765151.5,047_o_f_n_a.png,I,m,1417,7,1,2185.2999999523163,3762966.2000000477,9031,NNB,A,6
3,prac,2,0.0,1-Back,1.0,m,Thu Oct 02 2025 14:56:29 GMT-0400 (Eastern Daylight Time),3767618.100000024,045_m_m_n_a.png,I,m,1681,8,1,2451.399999976158,3765166.7000000477,9031,NNB,A,7
4,prac,2,0.0,1-Back,1.0,m,Thu Oct 02 2025 14:56:29 GMT-0400 (Eastern Daylight Time),3769653.2000000477,050_m_f_n_a.png,I,m,1246,9,1,2020.7000000476837,3767632.5,9031,NNB,A,8
5,prac,2,1.0,1-Back,1.0,z,Thu Oct 02 2025 14:56:29 GMT-0400 (Eastern Daylight Time),3771634.7999999523,050_m_f_n_a.png,I,z,1199,10,1,1970.1999999284744,3769664.600000024,9031,NNB,A,9
6,prac,2,0.0,1-Back,1.0,m,Thu Oct 02 2025 14:56:29 GMT-0400 (Eastern Daylight Time),3773334.899999976,053_o_m_n_a.png,I,m,909,11,1,1685.6999999284744,3771649.2000000477,9031,NNB,A,10
7,prac,2,0.0,1-Back,1.0,m,Thu Oct 02 2025 14:56:29 GMT-0400 (Eastern Daylight Time),3775284.7999999523,010_y_f_n_a.png,I,m,1162,12,1,1935.5999999046326,3773349.2000000477,9031,NNB,A,11
0,test,1,0.0,1-Back,,,Thu Oct 02 2025 14:56:29 GMT-0400 (Eastern Daylight Time),3775284.7999999523,063_y_f_n_a.png,I,space,15267,1,1,1935.5999999046326,3773349.2000000477,9031,NNB,A,0
1,test,1,0.0,1-Back,1.0,m,Thu Oct 02 2025 14:56:29 GMT-0400 (Eastern Daylight Time),3811684.899999976,043_m_f_n_a.png,I,m,1828,2,1,2837.1999999284744,3808847.7000000477,9031,NNB,A,1
2,test,1,0.0,1-Back,1.0,m,Thu Oct 02 2025 14:56:29 GMT-0400 (Eastern Daylight Time),3813801.399999976,010_y_f_n_a.png,I,m,1072,3,1,2102.5,3811698.899999976,9031,NNB,A,2
3,test,1,1.0,1-Back,1.0,z,Thu Oct 02 2025 14:56:29 GMT-0400 (Eastern Daylight Time),3815684.7000000477,010_y_f_n_a.png,I,z,845,4,1,1869.3000000715256,3813815.399999976,9031,NNB,A,3
4,test,1,0.0,1-Back,1.0,m,Thu Oct 02 2025 14:56:29 GMT-0400 (Eastern Daylight Time),3817734.5,043_m_f_n_a.png,I,m,1027,5,1,2036.2999999523163,3815698.2000000477,9031,NNB,A,4
5,test,1,0.0,1-Back,1.0,m,Thu Oct 02 2025 14:56:29 GMT-0400 (Eastern Daylight Time),3820084.7999999523,053_o_m_n_a.png,I,m,1328,6,1,2337.2999999523163,3817747.5,9031,NNB,A,5
6,test,1,1.0,1-Back,1.0,z,Thu Oct 02 2025 14:56:29 GMT-0400 (Eastern Daylight Time),3821968.100000024,053_o_m_n_a.png,I,z,850,7,1,1869.7000000476837,3820098.399999976,9031,NNB,A,6
7,test,1,0.0,1-Back,1.0,m,Thu Oct 02 2025 14:56:29 GMT-0400 (Eastern Daylight Time),3823951.2000000477,058_m_m_n_a.png,I,m,950,8,1,1969.3000000715256,3821981.899999976,9031,NNB,A,7
8,test,1,0.0,1-Back,1.0,m,Thu Oct 02 2025 14:56:29 GMT-0400 (Eastern Daylight Time),3826351.2000000477,047_o_f_n_a.png,I,m,1366,9,1,2386.9000000953674,3823964.2999999523,9031,NNB,A,8
8,test,1,0.0,1-Back,0.0,m,Thu Oct 02 2025 14:56:29 GMT-0400 (Eastern Daylight Time),3828518.2000000477,058_m_m_n_a.png,I,z,1143,10,1,2154.9000000953674,3826363.2999999523,9031,NNB,A,9
9,test,1,0.0,1-Back,1.0,m,Thu Oct 02 2025 14:56:29 GMT-0400 (Eastern Daylight Time),3830651.5,041_y_m_n_a.png,I,m,1104,11,1,2119.7999999523163,3828531.7000000477,9031,NNB,A,10
10,test,1,1.0,1-Back,1.0,z,Thu Oct 02 2025 14:56:29 GMT-0400 (Eastern Daylight Time),3832518.100000024,041_y_m_n_a.png,I,z,842,12,1,1853.3999999761581,3830664.7000000477,9031,NNB,A,11
11,test,1,0.0,1-Back,1.0,m,Thu Oct 02 2025 14:56:29 GMT-0400 (Eastern Daylight Time),3834284.7999999523,044_o_f_n_a.png,I,m,737,13,1,1752.8999999761581,3832531.899999976,9031,NNB,A,12
12,test,1,1.0,1-Back,1.0,z,Thu Oct 02 2025 14:56:29 GMT-0400 (Eastern Daylight Time),3836318.100000024,044_o_f_n_a.png,I,z,1001,14,1,2020.2000000476837,3834297.899999976,9031,NNB,A,13
13,test,1,0.0,1-Back,1.0,m,Thu Oct 02 2025 14:56:29 GMT-0400 (Eastern Daylight Time),3838118.100000024,008_y_m_n_a.png,I,m,776,15,1,1786.8000000715256,3836331.2999999523,9031,NNB,A,14
14,test,1,0.0,1-Back,1.0,m,Thu Oct 02 2025 14:56:29 GMT-0400 (Eastern Daylight Time),3840701.5,050_m_f_n_a.png,I,m,1553,16,1,2569.600000023842,3838131.899999976,9031,NNB,A,15
15,test,1,0.0,1-Back,1.0,m,Thu Oct 02 2025 14:56:29 GMT-0400 (Eastern Daylight Time),3842718.0,046_o_m_n_a.png,I,m,984,17,1,2003.3999999761581,3840714.600000024,9031,NNB,A,16
15,test,1,0.0,1-Back,0.0,m,Thu Oct 02 2025 14:56:29 GMT-0400 (Eastern Daylight Time),3844868.100000024,050_m_f_n_a.png,I,z,1129,18,1,2137.2000000476837,3842730.899999976,9031,NNB,A,17
0,test,2,0.0,1-Back,,,Thu Oct 02 2025 14:56:29 GMT-0400 (Eastern Daylight Time),3844868.100000024,058_m_m_n_a.png,I,space,2914,1,1,2137.2000000476837,3842730.899999976,9031,NNB,A,0
1,test,2,0.0,1-Back,1.0,m,Thu Oct 02 2025 14:56:29 GMT-0400 (Eastern Daylight Time),3852151.5,043_m_f_n_a.png,I,m,1325,2,1,2336.600000023842,3849814.899999976,9031,NNB,A,1
2,test,2,1.0,1-Back,1.0,z,Thu Oct 02 2025 14:56:29 GMT-0400 (Eastern Daylight Time),3854318.2000000477,043_m_f_n_a.png,I,z,1134,3,1,2151.7000000476837,3852166.5,9031,NNB,A,2
3,test,2,0.0,1-Back,1.0,m,Thu Oct 02 2025 14:56:29 GMT-0400 (Eastern Daylight Time),3855984.600000024,058_m_m_n_a.png,I,m,649,4,1,1653.2000000476837,3854331.399999976,9031,NNB,A,3
4,test,2,0.0,1-Back,1.0,m,Thu Oct 02 2025 14:56:29 GMT-0400 (Eastern Daylight Time),3858501.600000024,041_y_m_n_a.png,I,m,1493,5,1,2503.399999976158,3855998.2000000477,9031,NNB,A,4
5,test,2,0.0,1-Back,1.0,m,Thu Oct 02 2025 14:56:29 GMT-0400 (Eastern Daylight Time),3860351.5,063_y_f_n_a.png,I,m,800,6,1,1835.8999999761581,3858515.600000024,9031,NNB,A,5
6,test,2,1.0,1-Back,1.0,z,Thu Oct 02 2025 14:56:29 GMT-0400 (Eastern Daylight Time),3862851.399999976,063_y_f_n_a.png,I,z,1479,7,1,2486.6999999284744,3860364.7000000477,9031,NNB,A,6
7,test,2,0.0,1-Back,1.0,m,Thu Oct 02 2025 14:56:29 GMT-0400 (Eastern Daylight Time),3864701.2999999523,041_y_m_n_a.png,I,m,818,8,1,1835.5999999046326,3862865.7000000477,9031,NNB,A,7
8,test,2,0.0,1-Back,1.0,m,Thu Oct 02 2025 14:56:29 GMT-0400 (Eastern Daylight Time),3866517.899999976,044_o_f_n_a.png,I,m,794,9,1,1803.2999999523163,3864714.600000024,9031,NNB,A,8
9,test,2,0.0,1-Back,1.0,m,Thu Oct 02 2025 14:56:29 GMT-0400 (Eastern Daylight Time),3868434.7000000477,045_m_m_n_a.png,I,m,897,10,1,1903.1000000238419,3866531.600000024,9031,NNB,A,9
10,test,2,1.0,1-Back,1.0,z,Thu Oct 02 2025 14:56:29 GMT-0400 (Eastern Daylight Time),3870318.100000024,045_m_m_n_a.png,I,z,851,11,1,1869.1000000238419,3868449.0,9031,NNB,A,10
11,test,2,0.0,1-Back,1.0,m,Thu Oct 02 2025 14:56:29 GMT-0400 (Eastern Daylight Time),3872151.399999976,044_o_f_n_a.png,I,m,809,12,1,1820.1000000238419,3870331.2999999523,9031,NNB,A,11
12,test,2,0.0,1-Back,1.0,m,Thu Oct 02 2025 14:56:29 GMT-0400 (Eastern Daylight Time),3874001.2000000477,047_o_f_n_a.png,I,m,831,13,1,1835.8000000715256,3872165.399999976,9031,NNB,A,12
13,test,2,0.0,1-Back,1.0,m,Thu Oct 02 2025 14:56:29 GMT-0400 (Eastern Daylight Time),3875918.2000000477,053_o_m_n_a.png,I,m,868,14,1,1903.0,3874015.2000000477,9031,NNB,A,13
14,test,2,0.0,1-Back,1.0,m,Thu Oct 02 2025 14:56:29 GMT-0400 (Eastern Daylight Time),3877701.399999976,046_o_m_n_a.png,I,m,761,15,1,1769.6999999284744,3875931.7000000477,9031,NNB,A,14
15,test,2,1.0,1-Back,1.0,z,Thu Oct 02 2025 14:56:29 GMT-0400 (Eastern Daylight Time),3879617.7999999523,046_o_m_n_a.png,I,z,897,16,1,1903.1999999284744,3877714.600000024,9031,NNB,A,15
16,test,2,0.0,1-Back,1.0,m,Thu Oct 02 2025 14:56:29 GMT-0400 (Eastern Daylight Time),3881418.2000000477,008_y_m_n_a.png,I,m,773,17,1,1789.2000000476837,3879629.0,9031,NNB,A,16
17,test,2,1.0,1-Back,1.0,z,Thu Oct 02 2025 14:56:29 GMT-0400 (Eastern Daylight Time),3883351.399999976,008_y_m_n_a.png,I,z,908,18,1,1919.3999999761581,3881432.0,9031,NNB,A,17
0,test,3,1.0,1-Back,,,Thu Oct 02 2025 14:56:29 GMT-0400 (Eastern Daylight Time),3883351.399999976,010_y_f_n_a.png,I,space,3159,1,1,1919.3999999761581,3881432.0,9031,NNB,A,0
1,test,3,0.0,1-Back,1.0,m,Thu Oct 02 2025 14:56:29 GMT-0400 (Eastern Daylight Time),3890868.100000024,046_o_m_n_a.png,I,m,1229,2,1,2235.8000000715256,3888632.2999999523,9031,NNB,A,1
2,test,3,1.0,1-Back,1.0,z,Thu Oct 02 2025 14:56:29 GMT-0400 (Eastern Daylight Time),3892634.7999999523,046_o_m_n_a.png,I,z,738,3,1,1753.2999999523163,3890881.5,9031,NNB,A,2
3,test,3,0.0,1-Back,1.0,m,Thu Oct 02 2025 14:56:29 GMT-0400 (Eastern Daylight Time),3894584.7999999523,050_m_f_n_a.png,I,m,924,4,1,1935.8999999761581,3892648.899999976,9031,NNB,A,3
4,test,3,1.0,1-Back,1.0,z,Thu Oct 02 2025 14:56:29 GMT-0400 (Eastern Daylight Time),3896401.2000000477,050_m_f_n_a.png,I,z,797,5,1,1802.9000000953674,3894598.2999999523,9031,NNB,A,4
5,test,3,0.0,1-Back,1.0,m,Thu Oct 02 2025 14:56:29 GMT-0400 (Eastern Daylight Time),3898101.100000024,044_o_f_n_a.png,I,m,676,6,1,1686.7000000476837,3896414.399999976,9031,NNB,A,5
6,test,3,0.0,1-Back,1.0,m,Thu Oct 02 2025 14:56:29 GMT-0400 (Eastern Daylight Time),3899884.7000000477,041_y_m_n_a.png,I,m,753,7,1,1771.7000000476837,3898113.0,9031,NNB,A,6
7,test,3,0.0,1-Back,1.0,m,Thu Oct 02 2025 14:56:29 GMT-0400 (Eastern Daylight Time),3902150.899999976,044_o_f_n_a.png,I,m,1241,8,1,2252.899999976158,3899898.0,9031,NNB,A,7
8,test,3,0.0,1-Back,1.0,m,Thu Oct 02 2025 14:56:29 GMT-0400 (Eastern Daylight Time),3903918.2000000477,008_y_m_n_a.png,I,m,735,9,1,1756.3000000715256,3902161.899999976,9031,NNB,A,8
9,test,3,1.0,1-Back,1.0,z,Thu Oct 02 2025 14:56:29 GMT-0400 (Eastern Daylight Time),3905617.899999976,008_y_m_n_a.png,I,z,680,10,1,1685.5,3903932.399999976,9031,NNB,A,9
10,test,3,0.0,1-Back,1.0,m,Thu Oct 02 2025 14:56:29 GMT-0400 (Eastern Daylight Time),3907551.399999976,043_m_f_n_a.png,I,m,900,11,1,1919.8999999761581,3905631.5,9031,NNB,A,10
11,test,3,0.0,1-Back,1.0,m,Thu Oct 02 2025 14:56:29 GMT-0400 (Eastern Daylight Time),3909418.100000024,063_y_f_n_a.png,I,m,839,12,1,1853.8000000715256,3907564.2999999523,9031,NNB,A,11
12,test,3,1.0,1-Back,1.0,z,Thu Oct 02 2025 14:56:29 GMT-0400 (Eastern Daylight Time),3911251.600000024,063_y_f_n_a.png,I,z,811,13,1,1819.7000000476837,3909431.899999976,9031,NNB,A,12
13,test,3,0.0,1-Back,1.0,m,Thu Oct 02 2025 14:56:29 GMT-0400 (Eastern Daylight Time),3913051.399999976,043_m_f_n_a.png,I,m,771,14,1,1786.3999999761581,3911265.0,9031,NNB,A,13
14,test,3,0.0,1-Back,1.0,m,Thu Oct 02 2025 14:56:29 GMT-0400 (Eastern Daylight Time),3915034.7999999523,058_m_m_n_a.png,I,m,954,15,1,1970.0,3913064.7999999523,9031,NNB,A,14
15,test,3,1.0,1-Back,1.0,z,Thu Oct 02 2025 14:56:29 GMT-0400 (Eastern Daylight Time),3917468.2000000477,058_m_m_n_a.png,I,z,1403,16,1,2419.4000000953674,3915048.7999999523,9031,NNB,A,15
16,test,3,0.0,1-Back,1.0,m,Thu Oct 02 2025 14:56:29 GMT-0400 (Eastern Daylight Time),3919234.7000000477,047_o_f_n_a.png,I,m,746,17,1,1752.5,3917482.2000000477,9031,NNB,A,16
17,test,3,1.0,1-Back,1.0,z,Thu Oct 02 2025 14:56:29 GMT-0400 (Eastern Daylight Time),3921568.2000000477,047_o_f_n_a.png,I,z,1300,18,1,2320.5,3919247.7000000477,9031,NNB,A,17
0,test,4,1.0,1-Back,,,Thu Oct 02 2025 14:56:29 GMT-0400 (Eastern Daylight Time),3921568.2000000477,050_m_f_n_a.png,I,space,3390,1,1,2320.5,3919247.7000000477,9031,NNB,A,0
1,test,4,0.0,1-Back,1.0,m,Thu Oct 02 2025 14:56:29 GMT-0400 (Eastern Daylight Time),3928817.7999999523,046_o_m_n_a.png,I,m,815,2,1,1823.5,3926994.2999999523,9031,NNB,A,1
2,test,4,0.0,1-Back,1.0,m,Thu Oct 02 2025 14:56:29 GMT-0400 (Eastern Daylight Time),3930718.100000024,050_m_f_n_a.png,I,m,869,3,1,1886.3000000715256,3928831.7999999523,9031,NNB,A,2
3,test,4,0.0,1-Back,1.0,m,Thu Oct 02 2025 14:56:29 GMT-0400 (Eastern Daylight Time),3932368.399999976,044_o_f_n_a.png,I,m,633,4,1,1636.7999999523163,3930731.600000024,9031,NNB,A,3
4,test,4,1.0,1-Back,1.0,z,Thu Oct 02 2025 14:56:29 GMT-0400 (Eastern Daylight Time),3934384.0,044_o_f_n_a.png,I,z,998,5,1,2002.7999999523163,3932381.2000000477,9031,NNB,A,4
5,test,4,0.0,1-Back,1.0,m,Thu Oct 02 2025 14:56:29 GMT-0400 (Eastern Daylight Time),3936118.2000000477,063_y_f_n_a.png,I,m,710,6,1,1723.4000000953674,3934394.7999999523,9031,NNB,A,5
6,test,4,0.0,1-Back,1.0,m,Thu Oct 02 2025 14:56:29 GMT-0400 (Eastern Daylight Time),3937868.2000000477,041_y_m_n_a.png,I,m,721,7,1,1736.7000000476837,3936131.5,9031,NNB,A,6
7,test,4,1.0,1-Back,1.0,z,Thu Oct 02 2025 14:56:29 GMT-0400 (Eastern Daylight Time),3939934.7000000477,041_y_m_n_a.png,I,z,1034,8,1,2053.2000000476837,3937881.5,9031,NNB,A,7
8,test,4,0.0,1-Back,1.0,m,Thu Oct 02 2025 14:56:29 GMT-0400 (Eastern Daylight Time),3941984.399999976,063_y_f_n_a.png,I,m,1032,9,1,2036.3999999761581,3939948.0,9031,NNB,A,8
9,test,4,0.0,1-Back,1.0,m,Thu Oct 02 2025 14:56:29 GMT-0400 (Eastern Daylight Time),3943868.2000000477,045_m_m_n_a.png,I,m,854,10,1,1871.1000000238419,3941997.100000024,9031,NNB,A,9
9,test,4,1.0,1-Back,0.0,z,Thu Oct 02 2025 14:56:29 GMT-0400 (Eastern Daylight Time),3945968.100000024,045_m_m_n_a.png,I,m,1067,11,1,2086.3000000715256,3943881.7999999523,9031,NNB,A,10
10,test,4,0.0,1-Back,1.0,m,Thu Oct 02 2025 14:56:29 GMT-0400 (Eastern Daylight Time),3947868.2000000477,047_o_f_n_a.png,I,m,854,12,1,1883.9000000953674,3945984.2999999523,9031,NNB,A,11
11,test,4,0.0,1-Back,1.0,m,Thu Oct 02 2025 14:56:29 GMT-0400 (Eastern Daylight Time),3949617.7000000477,053_o_m_n_a.png,I,m,713,13,1,1735.3000000715256,3947882.399999976,9031,NNB,A,12
12,test,4,0.0,1-Back,1.0,m,Thu Oct 02 2025 14:56:29 GMT-0400 (Eastern Daylight Time),3951284.7999999523,047_o_f_n_a.png,I,m,645,14,1,1656.0999999046326,3949628.7000000477,9031,NNB,A,13
13,test,4,0.0,1-Back,1.0,m,Thu Oct 02 2025 14:56:29 GMT-0400 (Eastern Daylight Time),3953101.2999999523,010_y_f_n_a.png,I,m,768,15,1,1800.1999999284744,3951301.100000024,9031,NNB,A,14
14,test,4,1.0,1-Back,1.0,z,Thu Oct 02 2025 14:56:29 GMT-0400 (Eastern Daylight Time),3954667.7999999523,010_y_f_n_a.png,I,z,536,16,1,1552.0999999046326,3953115.7000000477,9031,NNB,A,15
15,test,4,0.0,1-Back,1.0,m,Thu Oct 02 2025 14:56:29 GMT-0400 (Eastern Daylight Time),3956351.2999999523,043_m_f_n_a.png,I,m,650,17,1,1672.5999999046326,3954678.7000000477,9031,NNB,A,16
16,test,4,1.0,1-Back,1.0,z,Thu Oct 02 2025 14:56:29 GMT-0400 (Eastern Daylight Time),3958318.2999999523,043_m_f_n_a.png,I,z,935,18,1,1953.7999999523163,3956364.5,9031,NNB,A,17
0,test,5,1.0,1-Back,,,Thu Oct 02 2025 14:56:29 GMT-0400 (Eastern Daylight Time),3958318.2999999523,053_o_m_n_a.png,I,space,3119,1,1,1953.7999999523163,3956364.5,9031,NNB,A,0
1,test,5,1.0,1-Back,1.0,z,Thu Oct 02 2025 14:56:29 GMT-0400 (Eastern Daylight Time),3965334.7999999523,053_o_m_n_a.png,I,z,843,2,1,1852.2999999523163,3963482.5,9031,NNB,A,1
2,test,5,0.0,1-Back,1.0,m,Thu Oct 02 2025 14:56:29 GMT-0400 (Eastern Daylight Time),3966968.2000000477,063_y_f_n_a.png,I,m,608,3,1,1618.5,3965349.7000000477,9031,NNB,A,2
3,test,5,0.0,1-Back,1.0,m,Thu Oct 02 2025 14:56:29 GMT-0400 (Eastern Daylight Time),3968751.5,041_y_m_n_a.png,I,m,751,4,1,1769.1000000238419,3966982.399999976,9031,NNB,A,3
4,test,5,0.0,1-Back,1.0,m,Thu Oct 02 2025 14:56:29 GMT-0400 (Eastern Daylight Time),3970451.399999976,063_y_f_n_a.png,I,m,679,5,1,1686.2999999523163,3968765.100000024,9031,NNB,A,4
5,test,5,0.0,1-Back,1.0,m,Thu Oct 02 2025 14:56:29 GMT-0400 (Eastern Daylight Time),3972351.399999976,058_m_m_n_a.png,I,m,867,6,1,1886.0,3970465.399999976,9031,NNB,A,5
6,test,5,1.0,1-Back,1.0,z,Thu Oct 02 2025 14:56:29 GMT-0400 (Eastern Daylight Time),3973968.100000024,058_m_m_n_a.png,I,z,599,7,1,1603.0,3972365.100000024,9031,NNB,A,6
7,test,5,0.0,1-Back,1.0,m,Thu Oct 02 2025 14:56:29 GMT-0400 (Eastern Daylight Time),3975551.5,010_y_f_n_a.png,I,m,551,8,1,1570.5,3973981.0,9031,NNB,A,7
8,test,5,0.0,1-Back,1.0,m,Thu Oct 02 2025 14:56:29 GMT-0400 (Eastern Daylight Time),3977201.2000000477,008_y_m_n_a.png,I,m,631,9,1,1634.8000000715256,3975566.399999976,9031,NNB,A,8
9,test,5,0.0,1-Back,1.0,m,Thu Oct 02 2025 14:56:29 GMT-0400 (Eastern Daylight Time),3978901.100000024,010_y_f_n_a.png,I,m,676,10,1,1686.2000000476837,3977214.899999976,9031,NNB,A,9
10,test,5,0.0,1-Back,1.0,m,Thu Oct 02 2025 14:56:29 GMT-0400 (Eastern Daylight Time),3980551.5,047_o_f_n_a.png,I,m,626,11,1,1640.1000000238419,3978911.399999976,9031,NNB,A,10
11,test,5,1.0,1-Back,1.0,z,Thu Oct 02 2025 14:56:29 GMT-0400 (Eastern Daylight Time),3982351.5,047_o_f_n_a.png,I,z,766,12,1,1787.1000000238419,3980564.399999976,9031,NNB,A,11
12,test,5,0.0,1-Back,1.0,m,Thu Oct 02 2025 14:56:29 GMT-0400 (Eastern Daylight Time),3984118.2000000477,046_o_m_n_a.png,I,m,743,13,1,1753.6000000238419,3982364.600000024,9031,NNB,A,12
13,test,5,0.0,1-Back,1.0,m,Thu Oct 02 2025 14:56:29 GMT-0400 (Eastern Daylight Time),3985718.100000024,050_m_f_n_a.png,I,m,577,14,1,1585.7000000476837,3984132.399999976,9031,NNB,A,13
14,test,5,1.0,1-Back,1.0,z,Thu Oct 02 2025 14:56:29 GMT-0400 (Eastern Daylight Time),3987651.5,050_m_f_n_a.png,I,z,913,15,1,1918.7999999523163,3985732.7000000477,9031,NNB,A,14
15,test,5,0.0,1-Back,1.0,m,Thu Oct 02 2025 14:56:29 GMT-0400 (Eastern Daylight Time),3989234.7000000477,046_o_m_n_a.png,I,m,563,16,1,1569.9000000953674,3987664.7999999523,9031,NNB,A,15
16,test,5,0.0,1-Back,1.0,m,Thu Oct 02 2025 14:56:29 GMT-0400 (Eastern Daylight Time),3991036.2999999523,043_m_f_n_a.png,I,m,772,17,1,1788.7999999523163,3989247.5,9031,NNB,A,16
17,test,5,0.0,1-Back,1.0,m,Thu Oct 02 2025 14:56:29 GMT-0400 (Eastern Daylight Time),3992751.399999976,045_m_m_n_a.png,I,m,684,18,1,1704.6999999284744,3991046.7000000477,9031,NNB,A,17
0,prac,1,0.0,2-Back,,,Thu Oct 02 2025 14:56:29 GMT-0400 (Eastern Daylight Time),3992751.399999976,008_y_m_n_a.png,I,space,27477,1,1,1704.6999999284744,3991046.7000000477,9031,NNB,A,0
0,prac,1,0.0,2-Back,,,Thu Oct 02 2025 14:56:29 GMT-0400 (Eastern Daylight Time),3992751.399999976,043_m_f_n_a.png,I,space,27477,2,1,1704.6999999284744,3991046.7000000477,9031,NNB,A,0
1,prac,1,1.0,2-Back,1.0,m,Thu Oct 02 2025 14:56:29 GMT-0400 (Eastern Daylight Time),4281502.100000024,046_o_m_n_a.png,I,m,1181,3,1,2002.3999999761581,4279499.700000048,9031,NNB,A,1
2,prac,1,0.0,2-Back,1.0,m,Thu Oct 02 2025 14:56:29 GMT-0400 (Eastern Daylight Time),4283949.299999952,047_o_f_n_a.png,I,m,1560,4,1,2430.899999976158,4281518.399999976,9031,NNB,A,2
3,prac,1,0.0,2-Back,1.0,z,Thu Oct 02 2025 14:56:29 GMT-0400 (Eastern Daylight Time),4286435.100000024,046_o_m_n_a.png,I,z,1701,5,1,2473.2000000476837,4283961.899999976,9031,NNB,A,3
4,prac,1,1.0,2-Back,1.0,z,Thu Oct 02 2025 14:56:29 GMT-0400 (Eastern Daylight Time),4288751.799999952,047_o_f_n_a.png,I,z,1533,6,1,2300.7999999523163,4286451.0,9031,NNB,A,4
5,prac,1,0.0,2-Back,1.0,m,Thu Oct 02 2025 14:56:29 GMT-0400 (Eastern Daylight Time),4290851.700000048,045_m_m_n_a.png,I,m,1274,7,1,2083.3000000715256,4288768.399999976,9031,NNB,A,5
6,prac,1,0.0,2-Back,1.0,m,Thu Oct 02 2025 14:56:29 GMT-0400 (Eastern Daylight Time),4292734.399999976,053_o_m_n_a.png,I,m,1041,8,1,1867.1000000238419,4290867.299999952,9031,NNB,A,6
7,prac,1,0.0,2-Back,1.0,m,Thu Oct 02 2025 14:56:29 GMT-0400 (Eastern Daylight Time),4294801.600000024,010_y_f_n_a.png,I,m,1202,9,1,2055.0,4292746.600000024,9031,NNB,A,7
8,prac,1,1.0,2-Back,1.0,z,Thu Oct 02 2025 14:56:29 GMT-0400 (Eastern Daylight Time),4296935.0,053_o_m_n_a.png,I,z,1342,10,1,2117.2000000476837,4294817.799999952,9031,NNB,A,8
9,prac,1,0.0,2-Back,1.0,m,Thu Oct 02 2025 14:56:29 GMT-0400 (Eastern Daylight Time),4298934.600000024,063_y_f_n_a.png,I,m,1156,11,1,1984.5,4296950.100000024,9031,NNB,A,9
10,prac,1,0.0,2-Back,1.0,m,Thu Oct 02 2025 14:56:29 GMT-0400 (Eastern Daylight Time),4300801.200000048,045_m_m_n_a.png,I,m,1082,12,1,1851.6000000238419,4298949.600000024,9031,NNB,A,10
0,test,1,0.0,2-Back,,,Thu Oct 02 2025 14:56:29 GMT-0400 (Eastern Daylight Time),4300801.200000048,041_y_m_n_a.png,I,space,14371,1,1,1851.6000000238419,4298949.600000024,9031,NNB,A,0
0,test,1,0.0,2-Back,,,Thu Oct 02 2025 14:56:29 GMT-0400 (Eastern Daylight Time),4300801.200000048,041_y_m_n_a.png,I,space,14371,2,1,1851.6000000238419,4298949.600000024,9031,NNB,A,0
1,test,1,0.0,2-Back,1.0,m,Thu Oct 02 2025 14:56:29 GMT-0400 (Eastern Daylight Time),4337535.200000048,047_o_f_n_a.png,I,m,1051,3,1,2086.0,4335449.200000048,9031,NNB,A,1
2,test,1,0.0,2-Back,1.0,m,Thu Oct 02 2025 14:56:29 GMT-0400 (Eastern Daylight Time),4339634.899999976,058_m_m_n_a.png,I,m,1046,4,1,2085.5,4337549.399999976,9031,NNB,A,2
3,test,1,1.0,2-Back,1.0,z,Thu Oct 02 2025 14:56:29 GMT-0400 (Eastern Daylight Time),4341784.899999976,047_o_f_n_a.png,I,z,1124,5,1,2134.0,4339650.899999976,9031,NNB,A,3
4,test,1,0.0,2-Back,1.0,m,Thu Oct 02 2025 14:56:29 GMT-0400 (Eastern Daylight Time),4343851.600000024,063_y_f_n_a.png,I,m,1038,6,1,2052.2000000476837,4341799.399999976,9031,NNB,A,4
4,test,1,0.0,2-Back,0.0,m,Thu Oct 02 2025 14:56:29 GMT-0400 (Eastern Daylight Time),4346084.899999976,058_m_m_n_a.png,I,z,1212,7,1,2218.5,4343866.399999976,9031,NNB,A,5
4,test,1,1.0,2-Back,0.0,z,Thu Oct 02 2025 14:56:29 GMT-0400 (Eastern Daylight Time),4347984.5,063_y_f_n_a.png,I,m,882,8,1,1885.2999999523163,4346099.200000048,9031,NNB,A,6
5,test,1,0.0,2-Back,1.0,m,Thu Oct 02 2025 14:56:29 GMT-0400 (Eastern Daylight Time),4350085.0,008_y_m_n_a.png,I,m,1078,9,1,2087.2000000476837,4347997.799999952,9031,NNB,A,7
6,test,1,0.0,2-Back,1.0,m,Thu Oct 02 2025 14:56:29 GMT-0400 (Eastern Daylight Time),4352001.399999976,044_o_f_n_a.png,I,m,898,10,1,1901.8999999761581,4350099.5,9031,NNB,A,8
7,test,1,1.0,2-Back,1.0,z,Thu Oct 02 2025 14:56:29 GMT-0400 (Eastern Daylight Time),4353984.5,008_y_m_n_a.png,I,z,948,11,1,1968.8999999761581,4352015.600000024,9031,NNB,A,9
8,test,1,0.0,2-Back,1.0,m,Thu Oct 02 2025 14:56:29 GMT-0400 (Eastern Daylight Time),4355968.299999952,043_m_f_n_a.png,I,m,933,12,1,1970.1999999284744,4353998.100000024,9031,NNB,A,10
9,test,1,0.0,2-Back,1.0,m,Thu Oct 02 2025 14:56:29 GMT-0400 (Eastern Daylight Time),4358735.0,043_m_f_n_a.png,I,m,1734,13,1,2752.2000000476837,4355982.799999952,9031,NNB,A,11
10,test,1,0.0,2-Back,1.0,m,Thu Oct 02 2025 14:56:29 GMT-0400 (Eastern Daylight Time),4360901.600000024,046_o_m_n_a.png,I,m,1144,14,1,2152.8000000715256,4358748.799999952,9031,NNB,A,12
10,test,1,0.0,2-Back,0.0,m,Thu Oct 02 2025 14:56:29 GMT-0400 (Eastern Daylight Time),4363935.0,044_o_f_n_a.png,I,None,2016,15,1,3019.399999976158,4360915.600000024,9031,NNB,A,13
10,test,1,1.0,2-Back,0.0,z,Thu Oct 02 2025 14:56:29 GMT-0400 (Eastern Daylight Time),4366318.399999976,046_o_m_n_a.png,I,m,1335,16,1,2369.600000023842,4363948.799999952,9031,NNB,A,14
11,test,1,0.0,2-Back,1.0,m,Thu Oct 02 2025 14:56:29 GMT-0400 (Eastern Daylight Time),4368567.899999976,050_m_f_n_a.png,I,m,1207,17,1,2234.1999999284744,4366333.700000048,9031,NNB,A,15
12,test,1,0.0,2-Back,1.0,m,Thu Oct 02 2025 14:56:29 GMT-0400 (Eastern Daylight Time),4370918.299999952,045_m_m_n_a.png,I,m,1327,18,1,2338.899999976158,4368579.399999976,9031,NNB,A,16
0,test,2,0.0,2-Back,,,Thu Oct 02 2025 14:56:29 GMT-0400 (Eastern Daylight Time),4370918.299999952,045_m_m_n_a.png,I,space,7416,1,1,2338.899999976158,4368579.399999976,9031,NNB,A,0
0,test,2,0.0,2-Back,,,Thu Oct 02 2025 14:56:29 GMT-0400 (Eastern Daylight Time),4370918.299999952,010_y_f_n_a.png,I,space,7416,2,1,2338.899999976158,4368579.399999976,9031,NNB,A,0
1,test,2,1.0,2-Back,1.0,z,Thu Oct 02 2025 14:56:29 GMT-0400 (Eastern Daylight Time),4385551.5,045_m_m_n_a.png,I,z,1034,3,1,2052.899999976158,4383498.600000024,9031,NNB,A,1
2,test,2,0.0,2-Back,1.0,m,Thu Oct 02 2025 14:56:29 GMT-0400 (Eastern Daylight Time),4387435.0,050_m_f_n_a.png,I,m,838,4,1,1868.1000000238419,4385566.899999976,9031,NNB,A,2
2,test,2,0.0,2-Back,0.0,m,Thu Oct 02 2025 14:56:29 GMT-0400 (Eastern Daylight Time),4389684.899999976,010_y_f_n_a.png,I,z,1211,5,1,2235.899999976158,4387449.0,9031,NNB,A,3
3,test,2,0.0,2-Back,1.0,m,Thu Oct 02 2025 14:56:29 GMT-0400 (Eastern Daylight Time),4391501.600000024,046_o_m_n_a.png,I,m,786,6,1,1801.7000000476837,4389699.899999976,9031,NNB,A,4
4,test,2,0.0,2-Back,1.0,m,Thu Oct 02 2025 14:56:29 GMT-0400 (Eastern Daylight Time),4393701.700000048,063_y_f_n_a.png,I,m,1160,7,1,2182.600000023842,4391519.100000024,9031,NNB,A,5
4,test,2,1.0,2-Back,0.0,z,Thu Oct 02 2025 14:56:29 GMT-0400 (Eastern Daylight Time),4395951.600000024,046_o_m_n_a.png,I,m,1200,8,1,2234.7000000476837,4393716.899999976,9031,NNB,A,6
5,test,2,0.0,2-Back,1.0,m,Thu Oct 02 2025 14:56:29 GMT-0400 (Eastern Daylight Time),4397886.600000024,008_y_m_n_a.png,I,m,903,9,1,1921.1000000238419,4395965.5,9031,NNB,A,7
6,test,2,0.0,2-Back,1.0,m,Thu Oct 02 2025 14:56:29 GMT-0400 (Eastern Daylight Time),4400301.600000024,008_y_m_n_a.png,I,m,1370,10,1,2401.3000000715256,4397900.299999952,9031,NNB,A,8
7,test,2,0.0,2-Back,1.0,m,Thu Oct 02 2025 14:56:29 GMT-0400 (Eastern Daylight Time),4402218.200000048,043_m_f_n_a.png,I,m,873,11,1,1902.8000000715256,4400315.399999976,9031,NNB,A,9
8,test,2,0.0,2-Back,1.0,m,Thu Oct 02 2025 14:56:29 GMT-0400 (Eastern Daylight Time),4404334.899999976,010_y_f_n_a.png,I,m,1068,12,1,2101.0,4402233.899999976,9031,NNB,A,10
8,test,2,1.0,2-Back,0.0,z,Thu Oct 02 2025 14:56:29 GMT-0400 (Eastern Daylight Time),4406718.399999976,043_m_f_n_a.png,I,m,1335,13,1,2365.399999976158,4404353.0,9031,NNB,A,11
9,test,2,0.0,2-Back,1.0,m,Thu Oct 02 2025 14:56:29 GMT-0400 (Eastern Daylight Time),4408468.200000048,053_o_m_n_a.png,I,m,712,14,1,1735.1000000238419,4406733.100000024,9031,NNB,A,12
10,test,2,0.0,2-Back,1.0,m,Thu Oct 02 2025 14:56:29 GMT-0400 (Eastern Daylight Time),4410451.600000024,053_o_m_n_a.png,I,m,963,15,1,1968.6000000238419,4408483.0,9031,NNB,A,13
11,test,2,0.0,2-Back,1.0,m,Thu Oct 02 2025 14:56:29 GMT-0400 (Eastern Daylight Time),4412401.5,044_o_f_n_a.png,I,m,914,16,1,1933.0,4410468.5,9031,NNB,A,14
12,test,2,0.0,2-Back,1.0,m,Thu Oct 02 2025 14:56:29 GMT-0400 (Eastern Daylight Time),4414218.299999952,058_m_m_n_a.png,I,m,789,17,1,1802.3999999761581,4412415.899999976,9031,NNB,A,15
12,test,2,1.0,2-Back,0.0,z,Thu Oct 02 2025 14:56:29 GMT-0400 (Eastern Daylight Time),4417001.600000024,044_o_f_n_a.png,I,m,1756,18,1,2768.600000023842,4414233.0,9031,NNB,A,16
0,test,3,1.0,2-Back,,,Thu Oct 02 2025 14:56:29 GMT-0400 (Eastern Daylight Time),4417001.600000024,041_y_m_n_a.png,I,space,2869,1,1,2768.600000023842,4414233.0,9031,NNB,A,0
0,test,3,1.0,2-Back,,,Thu Oct 02 2025 14:56:29 GMT-0400 (Eastern Daylight Time),4417001.600000024,041_y_m_n_a.png,I,space,2869,2,1,2768.600000023842,4414233.0,9031,NNB,A,0
1,test,3,0.0,2-Back,1.0,m,Thu Oct 02 2025 14:56:29 GMT-0400 (Eastern Daylight Time),4427101.5,044_o_f_n_a.png,I,m,1069,3,1,2102.2000000476837,4424999.299999952,9031,NNB,A,1
2,test,3,0.0,2-Back,1.0,m,Thu Oct 02 2025 14:56:29 GMT-0400 (Eastern Daylight Time),4428885.100000024,045_m_m_n_a.png,I,m,744,4,1,1767.1000000238419,4427118.0,9031,NNB,A,2
3,test,3,1.0,2-Back,1.0,z,Thu Oct 02 2025 14:56:29 GMT-0400 (Eastern Daylight Time),4431268.0,044_o_f_n_a.png,I,z,1344,5,1,2367.0,4428901.0,9031,NNB,A,3
4,test,3,0.0,2-Back,1.0,m,Thu Oct 02 2025 14:56:29 GMT-0400 (Eastern Daylight Time),4433134.899999976,008_y_m_n_a.png,I,m,835,6,1,1856.1999999284744,4431278.700000048,9031,NNB,A,4
5,test,3,0.0,2-Back,1.0,m,Thu Oct 02 2025 14:56:29 GMT-0400 (Eastern Daylight Time),4435285.0,045_m_m_n_a.png,I,m,1128,7,1,2135.2999999523163,4433149.700000048,9031,NNB,A,5
5,test,3,1.0,2-Back,0.0,z,Thu Oct 02 2025 14:56:29 GMT-0400 (Eastern Daylight Time),4437318.100000024,008_y_m_n_a.png,I,m,1010,8,1,2018.1000000238419,4435300.0,9031,NNB,A,6
6,test,3,0.0,2-Back,1.0,m,Thu Oct 02 2025 14:56:29 GMT-0400 (Eastern Daylight Time),4439118.399999976,010_y_f_n_a.png,I,m,769,9,1,1785.6000000238419,4437332.799999952,9031,NNB,A,7
7,test,3,0.0,2-Back,1.0,m,Thu Oct 02 2025 14:56:29 GMT-0400 (Eastern Daylight Time),4440918.399999976,058_m_m_n_a.png,I,m,760,10,1,1784.2999999523163,4439134.100000024,9031,NNB,A,8
7,test,3,1.0,2-Back,0.0,z,Thu Oct 02 2025 14:56:29 GMT-0400 (Eastern Daylight Time),4443001.600000024,010_y_f_n_a.png,I,m,1056,11,1,2068.8000000715256,4440932.799999952,9031,NNB,A,9
7,test,3,1.0,2-Back,0.0,z,Thu Oct 02 2025 14:56:29 GMT-0400 (Eastern Daylight Time),4444801.5,058_m_m_n_a.png,I,m,781,12,1,1784.8999999761581,4443016.600000024,9031,NNB,A,10
8,test,3,0.0,2-Back,1.0,m,Thu Oct 02 2025 14:56:29 GMT-0400 (Eastern Daylight Time),4446568.299999952,044_o_f_n_a.png,I,m,724,13,1,1750.5999999046326,4444817.700000048,9031,NNB,A,11
9,test,3,0.0,2-Back,1.0,m,Thu Oct 02 2025 14:56:29 GMT-0400 (Eastern Daylight Time),4448151.700000048,050_m_f_n_a.png,I,m,558,14,1,1568.5,4446583.200000048,9031,NNB,A,12
10,test,3,0.0,2-Back,1.0,m,Thu Oct 02 2025 14:56:29 GMT-0400 (Eastern Daylight Time),4449835.0,046_o_m_n_a.png,I,m,655,15,1,1668.3999999761581,4448166.600000024,9031,NNB,A,13
10,test,3,1.0,2-Back,0.0,z,Thu Oct 02 2025 14:56:29 GMT-0400 (Eastern Daylight Time),4451868.399999976,050_m_f_n_a.png,I,m,987,16,1,2017.0,4449851.399999976,9031,NNB,A,14
11,test,3,0.0,2-Back,1.0,m,Thu Oct 02 2025 14:56:29 GMT-0400 (Eastern Daylight Time),4453684.899999976,047_o_f_n_a.png,I,m,778,17,1,1801.3999999761581,4451883.5,9031,NNB,A,15
12,test,3,0.0,2-Back,1.0,m,Thu Oct 02 2025 14:56:29 GMT-0400 (Eastern Daylight Time),4455584.5,047_o_f_n_a.png,I,m,881,18,1,1884.7000000476837,4453699.799999952,9031,NNB,A,16
0,test,4,0.0,2-Back,,,Thu Oct 02 2025 14:56:29 GMT-0400 (Eastern Daylight Time),4455584.5,053_o_m_n_a.png,I,space,3215,1,1,1884.7000000476837,4453699.799999952,9031,NNB,A,0
0,test,4,0.0,2-Back,,,Thu Oct 02 2025 14:56:29 GMT-0400 (Eastern Daylight Time),4455584.5,063_y_f_n_a.png,I,space,3215,2,1,1884.7000000476837,4453699.799999952,9031,NNB,A,0
1,test,4,1.0,2-Back,1.0,z,Thu Oct 02 2025 14:56:29 GMT-0400 (Eastern Daylight Time),4465584.799999952,053_o_m_n_a.png,I,z,615,3,1,1618.0999999046326,4463966.700000048,9031,NNB,A,1
1,test,4,1.0,2-Back,0.0,z,Thu Oct 02 2025 14:56:29 GMT-0400 (Eastern Daylight Time),4467184.700000048,063_y_f_n_a.png,I,m,582,4,1,1586.1000000238419,4465598.600000024,9031,NNB,A,2
2,test,4,0.0,2-Back,1.0,m,Thu Oct 02 2025 14:56:29 GMT-0400 (Eastern Daylight Time),4469201.399999976,044_o_f_n_a.png,I,m,998,5,1,2003.0,4467198.399999976,9031,NNB,A,3
3,test,4,0.0,2-Back,1.0,m,Thu Oct 02 2025 14:56:29 GMT-0400 (Eastern Daylight Time),4471201.399999976,044_o_f_n_a.png,I,m,981,6,1,1985.8999999761581,4469215.5,9031,NNB,A,4
4,test,4,0.0,2-Back,1.0,m,Thu Oct 02 2025 14:56:29 GMT-0400 (Eastern Daylight Time),4473135.0,043_m_f_n_a.png,I,m,901,7,1,1919.7999999523163,4471215.200000048,9031,NNB,A,5
5,test,4,0.0,2-Back,1.0,m,Thu Oct 02 2025 14:56:29 GMT-0400 (Eastern Daylight Time),4475118.399999976,008_y_m_n_a.png,I,m,952,8,1,1969.5,4473148.899999976,9031,NNB,A,6
6,test,4,1.0,2-Back,1.0,z,Thu Oct 02 2025 14:56:29 GMT-0400 (Eastern Daylight Time),4477334.899999976,043_m_f_n_a.png,I,z,1192,9,1,2202.6999999284744,4475132.200000048,9031,NNB,A,7
7,test,4,0.0,2-Back,1.0,m,Thu Oct 02 2025 14:56:29 GMT-0400 (Eastern Daylight Time),4480034.700000048,058_m_m_n_a.png,I,m,1680,10,1,2684.3000000715256,4477350.399999976,9031,NNB,A,8
7,test,4,0.0,2-Back,0.0,m,Thu Oct 02 2025 14:56:29 GMT-0400 (Eastern Daylight Time),4482335.0,008_y_m_n_a.png,I,z,1268,11,1,2285.2999999523163,4480049.700000048,9031,NNB,A,9
8,test,4,0.0,2-Back,1.0,m,Thu Oct 02 2025 14:56:29 GMT-0400 (Eastern Daylight Time),4484285.0,047_o_f_n_a.png,I,m,903,12,1,1934.1000000238419,4482350.899999976,9031,NNB,A,10
9,test,4,0.0,2-Back,1.0,m,Thu Oct 02 2025 14:56:29 GMT-0400 (Eastern Daylight Time),4486568.200000048,041_y_m_n_a.png,I,m,1258,13,1,2268.4000000953674,4484299.799999952,9031,NNB,A,11
10,test,4,1.0,2-Back,1.0,z,Thu Oct 02 2025 14:56:29 GMT-0400 (Eastern Daylight Time),4488934.799999952,047_o_f_n_a.png,I,z,1341,14,1,2352.1999999284744,4486582.600000024,9031,NNB,A,12
10,test,4,1.0,2-Back,0.0,z,Thu Oct 02 2025 14:56:29 GMT-0400 (Eastern Daylight Time),4491618.100000024,041_y_m_n_a.png,I,m,1647,15,1,2665.3000000715256,4488952.799999952,9031,NNB,A,13
11,test,4,0.0,2-Back,1.0,m,Thu Oct 02 2025 14:56:29 GMT-0400 (Eastern Daylight Time),4493818.399999976,045_m_m_n_a.png,I,m,1172,16,1,2186.2999999523163,4491632.100000024,9031,NNB,A,14
12,test,4,0.0,2-Back,1.0,m,Thu Oct 02 2025 14:56:29 GMT-0400 (Eastern Daylight Time),4495834.899999976,050_m_f_n_a.png,I,m,988,17,1,2002.0,4493832.899999976,9031,NNB,A,15
12,test,4,1.0,2-Back,0.0,z,Thu Oct 02 2025 14:56:29 GMT-0400 (Eastern Daylight Time),4497618.100000024,045_m_m_n_a.png,I,m,764,18,1,1769.1000000238419,4495849.0,9031,NNB,A,16
0,test,5,1.0,2-Back,,,Thu Oct 02 2025 14:56:29 GMT-0400 (Eastern Daylight Time),4497618.100000024,041_y_m_n_a.png,I,space,2589,1,1,1769.1000000238419,4495849.0,9031,NNB,A,0
0,test,5,1.0,2-Back,,,Thu Oct 02 2025 14:56:29 GMT-0400 (Eastern Daylight Time),4497618.100000024,050_m_f_n_a.png,I,space,2589,2,1,1769.1000000238419,4495849.0,9031,NNB,A,0
1,test,5,1.0,2-Back,1.0,z,Thu Oct 02 2025 14:56:29 GMT-0400 (Eastern Daylight Time),4507251.700000048,041_y_m_n_a.png,I,z,963,3,1,1967.8000000715256,4505283.899999976,9031,NNB,A,1
2,test,5,1.0,2-Back,1.0,z,Thu Oct 02 2025 14:56:29 GMT-0400 (Eastern Daylight Time),4509868.200000048,050_m_f_n_a.png,I,z,1587,4,1,2601.4000000953674,4507266.799999952,9031,NNB,A,2
3,test,5,0.0,2-Back,1.0,m,Thu Oct 02 2025 14:56:29 GMT-0400 (Eastern Daylight Time),4512018.100000024,047_o_f_n_a.png,I,m,1130,5,1,2135.0,4509883.100000024,9031,NNB,A,3
4,test,5,0.0,2-Back,1.0,m,Thu Oct 02 2025 14:56:29 GMT-0400 (Eastern Daylight Time),4514234.899999976,041_y_m_n_a.png,I,m,1189,6,1,2202.5,4512032.399999976,9031,NNB,A,4
5,test,5,0.0,2-Back,1.0,m,Thu Oct 02 2025 14:56:29 GMT-0400 (Eastern Daylight Time),4516401.399999976,010_y_f_n_a.png,I,m,1148,7,1,2151.7999999523163,4514249.600000024,9031,NNB,A,5
6,test,5,0.0,2-Back,1.0,m,Thu Oct 02 2025 14:56:29 GMT-0400 (Eastern Daylight Time),4518351.799999952,047_o_f_n_a.png,I,m,917,8,1,1935.2999999523163,4516416.5,9031,NNB,A,6
7,test,5,1.0,2-Back,1.0,z,Thu Oct 02 2025 14:56:29 GMT-0400 (Eastern Daylight Time),4520318.299999952,010_y_f_n_a.png,I,z,935,9,1,1952.1999999284744,4518366.100000024,9031,NNB,A,7
8,test,5,0.0,2-Back,1.0,m,Thu Oct 02 2025 14:56:29 GMT-0400 (Eastern Daylight Time),4521968.899999976,046_o_m_n_a.png,I,m,632,10,1,1635.8999999761581,4520333.0,9031,NNB,A,8
9,test,5,0.0,2-Back,1.0,m,Thu Oct 02 2025 14:56:29 GMT-0400 (Eastern Daylight Time),4523718.200000048,043_m_f_n_a.png,I,m,710,11,1,1733.2000000476837,4521985.0,9031,NNB,A,9
10,test,5,0.0,2-Back,1.0,m,Thu Oct 02 2025 14:56:29 GMT-0400 (Eastern Daylight Time),4525851.600000024,058_m_m_n_a.png,I,m,1104,12,1,2118.399999976158,4523733.200000048,9031,NNB,A,10
11,test,5,0.0,2-Back,1.0,m,Thu Oct 02 2025 14:56:29 GMT-0400 (Eastern Daylight Time),4527751.700000048,046_o_m_n_a.png,I,m,875,13,1,1885.8000000715256,4525865.899999976,9031,NNB,A,11
11,test,5,1.0,2-Back,0.0,z,Thu Oct 02 2025 14:56:29 GMT-0400 (Eastern Daylight Time),4529767.899999976,058_m_m_n_a.png,I,m,992,14,1,2001.6999999284744,4527766.200000048,9031,NNB,A,12
12,test,5,0.0,2-Back,1.0,m,Thu Oct 02 2025 14:56:29 GMT-0400 (Eastern Daylight Time),4531867.799999952,063_y_f_n_a.png,I,m,1070,15,1,2084.7999999523163,4529783.0,9031,NNB,A,13
13,test,5,0.0,2-Back,1.0,m,Thu Oct 02 2025 14:56:29 GMT-0400 (Eastern Daylight Time),4533884.299999952,053_o_m_n_a.png,I,m,970,16,1,1999.8999999761581,4531884.399999976,9031,NNB,A,14
14,test,5,0.0,2-Back,1.0,m,Thu Oct 02 2025 14:56:29 GMT-0400 (Eastern Daylight Time),4535617.600000024,043_m_f_n_a.png,I,m,714,17,1,1721.1000000238419,4533896.5,9031,NNB,A,15
14,test,5,1.0,2-Back,0.0,z,Thu Oct 02 2025 14:56:29 GMT-0400 (Eastern Daylight Time),4537651.600000024,053_o_m_n_a.png,I,m,1013,18,1,2022.2000000476837,4535629.399999976,9031,NNB,A,16
