block_c,block_dur,condition,countdown,datetime,endtime,list,multichar_response,project,response,response_time,session_number,start_end,starttime,subject_id,task,task_vers,trial
,,,,Mon Aug 04 2025 15:02:34 GMT-0500 (Central Daylight Time),,,,O,space,677,1,,,7197,WL,A,
prac,,0,,Mon Aug 04 2025 15:02:34 GMT-0500 (Central Daylight Time),,NA,b,O,b,3307,1,,,7197,WL,A,1.0
prac,,0,,Mon Aug 04 2025 15:02:34 GMT-0500 (Central Daylight Time),,NA,bo,O,o,222,1,,,7197,WL,A,1.0
prac,,0,,Mon Aug 04 2025 15:02:34 GMT-0500 (Central Daylight Time),,NA,boo,O,o,134,1,,,7197,WL,A,1.0
prac,,0,,Mon Aug 04 2025 15:02:34 GMT-0500 (Central Daylight Time),,NA,boos,O,s,215,1,,,7197,WL,A,1.0
prac,,0,,Mon Aug 04 2025 15:02:34 GMT-0500 (Central Daylight Time),,NA,boost,O,t,150,1,,,7197,WL,A,1.0
prac,,0,,Mon Aug 04 2025 15:02:34 GMT-0500 (Central Daylight Time),,NA,boostenter,O,enter,1279,1,,,7197,WL,A,1.0
1,8.145999908447266,learn,51854.000091552734,Mon Aug 04 2025 15:02:34 GMT-0500 (Central Daylight Time),141348.79999995232,A,b,O,b,8128,1,8145.299999952316,133203.5,7197,WL,A,1.0
1,8.394999980926514,learn,51605.000019073486,Mon Aug 04 2025 15:02:34 GMT-0500 (Central Daylight Time),141597.89999985695,A,bo,O,o,239,1,8394.399999856949,133203.5,7197,WL,A,1.0
1,8.546000003814697,learn,51453.9999961853,Mon Aug 04 2025 15:02:34 GMT-0500 (Central Daylight Time),141748.79999995232,A,boo,O,o,143,1,8545.299999952316,133203.5,7197,WL,A,1.0
1,8.759000062942505,learn,51240.999937057495,Mon Aug 04 2025 15:02:34 GMT-0500 (Central Daylight Time),141962.29999995232,A,book,O,k,206,1,8758.799999952316,133203.5,7197,WL,A,1.0
1,9.91100001335144,learn,50088.99998664856,Mon Aug 04 2025 15:02:34 GMT-0500 (Central Daylight Time),143114.69999980927,A,bookenter,O,enter,1147,1,9911.199999809265,133203.5,7197,WL,A,1.0
1,11.193000078201294,learn,48806.999921798706,Mon Aug 04 2025 15:02:34 GMT-0500 (Central Daylight Time),144396.39999985695,A,f,O,f,1264,1,1281.2999999523163,143115.09999990463,7197,WL,A,2.0
1,11.276999950408936,learn,48723.000049591064,Mon Aug 04 2025 15:02:34 GMT-0500 (Central Daylight Time),144479.89999985695,A,fl,O,l,62,1,1364.7999999523163,143115.09999990463,7197,WL,A,2.0
1,11.42799997329712,learn,48572.00002670288,Mon Aug 04 2025 15:02:34 GMT-0500 (Central Daylight Time),144631.0,A,flo,O,o,132,1,1515.9000000953674,143115.09999990463,7197,WL,A,2.0
1,11.57800006866455,learn,48421.99993133545,Mon Aug 04 2025 15:02:34 GMT-0500 (Central Daylight Time),144780.89999985695,A,flow,O,w,132,1,1665.7999999523163,143115.09999990463,7197,WL,A,2.0
1,11.694000005722046,learn,48305.999994277954,Mon Aug 04 2025 15:02:34 GMT-0500 (Central Daylight Time),144897.29999995232,A,flowe,O,e,110,1,1782.2000000476837,143115.09999990463,7197,WL,A,2.0
1,11.84500002861023,learn,48154.99997138977,Mon Aug 04 2025 15:02:34 GMT-0500 (Central Daylight Time),145048.0,A,flower,O,r,130,1,1932.9000000953674,143115.09999990463,7197,WL,A,2.0
1,12.64299988746643,learn,47357.00011253357,Mon Aug 04 2025 15:02:34 GMT-0500 (Central Daylight Time),145846.59999990463,A,flowerenter,O,enter,779,1,2731.5,143115.09999990463,7197,WL,A,2.0
1,13.545000076293945,learn,46454.999923706055,Mon Aug 04 2025 15:02:34 GMT-0500 (Central Daylight Time),146747.89999985695,A,m,O,m,880,1,900.8999998569489,145847.0,7197,WL,A,3.0
1,13.660000085830688,learn,46339.99991416931,Mon Aug 04 2025 15:02:34 GMT-0500 (Central Daylight Time),146863.19999980927,A,me,O,e,105,1,1016.1999998092651,145847.0,7197,WL,A,3.0
1,13.859999895095825,learn,46140.000104904175,Mon Aug 04 2025 15:02:34 GMT-0500 (Central Daylight Time),147062.69999980927,A,mea,O,a,180,1,1215.6999998092651,145847.0,7197,WL,A,3.0
1,13.976999998092651,learn,46023.00000190735,Mon Aug 04 2025 15:02:34 GMT-0500 (Central Daylight Time),147180.5,A,mead,O,d,111,1,1333.5,145847.0,7197,WL,A,3.0
1,14.17799997329712,learn,45822.00002670288,Mon Aug 04 2025 15:02:34 GMT-0500 (Central Daylight Time),147381.39999985695,A,meado,O,o,194,1,1534.3999998569489,145847.0,7197,WL,A,3.0
1,14.361000061035156,learn,45638.999938964844,Mon Aug 04 2025 15:02:34 GMT-0500 (Central Daylight Time),147564.39999985695,A,meadow,O,w,177,1,1717.3999998569489,145847.0,7197,WL,A,3.0
1,15.259000062942505,learn,44740.999937057495,Mon Aug 04 2025 15:02:34 GMT-0500 (Central Daylight Time),148462.09999990463,A,meadowg,O,g,879,1,2615.0999999046326,145847.0,7197,WL,A,3.0
1,15.39299988746643,learn,44607.00011253357,Mon Aug 04 2025 15:02:34 GMT-0500 (Central Daylight Time),148596.0,A,meadowgo,O,o,118,1,2749.0,145847.0,7197,WL,A,3.0
1,15.592000007629395,learn,44407.999992370605,Mon Aug 04 2025 15:02:34 GMT-0500 (Central Daylight Time),148795.69999980927,A,meadowgol,O,l,184,1,2948.699999809265,145847.0,7197,WL,A,3.0
1,16.194000005722046,learn,43805.999994277954,Mon Aug 04 2025 15:02:34 GMT-0500 (Central Daylight Time),149396.79999995232,A,meadowgo,O,backspace,594,1,3549.7999999523163,145847.0,7197,WL,A,3.0
1,16.358999967575073,learn,43641.00003242493,Mon Aug 04 2025 15:02:34 GMT-0500 (Central Daylight Time),149562.5,A,meadowg,O,backspace,159,1,3715.5,145847.0,7197,WL,A,3.0
1,16.54200005531311,learn,43457.99994468689,Mon Aug 04 2025 15:02:34 GMT-0500 (Central Daylight Time),149744.89999985695,A,meadow,O,backspace,169,1,3897.899999856949,145847.0,7197,WL,A,3.0
1,16.924000024795532,learn,43075.99997520447,Mon Aug 04 2025 15:02:34 GMT-0500 (Central Daylight Time),150127.59999990463,A,meadowenter,O,enter,366,1,4280.599999904633,145847.0,7197,WL,A,3.0
1,17.608999967575073,learn,42391.00003242493,Mon Aug 04 2025 15:02:34 GMT-0500 (Central Daylight Time),150812.19999980927,A,g,O,g,679,1,684.1999998092651,150128.0,7197,WL,A,4.0
1,17.759000062942505,learn,42240.999937057495,Mon Aug 04 2025 15:02:34 GMT-0500 (Central Daylight Time),150962.39999985695,A,go,O,o,137,1,834.3999998569489,150128.0,7197,WL,A,4.0
1,17.94099998474121,learn,42059.00001525879,Mon Aug 04 2025 15:02:34 GMT-0500 (Central Daylight Time),151144.69999980927,A,gol,O,l,170,1,1016.6999998092651,150128.0,7197,WL,A,4.0
1,18.0239999294281,learn,41976.0000705719,Mon Aug 04 2025 15:02:34 GMT-0500 (Central Daylight Time),151227.5,A,gold,O,d,77,1,1099.5,150128.0,7197,WL,A,4.0
1,18.609999895095825,learn,41390.000104904175,Mon Aug 04 2025 15:02:34 GMT-0500 (Central Daylight Time),151813.5,A,goldenter,O,enter,568,1,1685.5,150128.0,7197,WL,A,4.0
1,19.841000080108643,learn,40158.99991989136,Mon Aug 04 2025 15:02:34 GMT-0500 (Central Daylight Time),153044.39999985695,A,b,O,b,1215,1,1230.5,151813.89999985695,7197,WL,A,5.0
1,20.08999991416931,learn,39910.00008583069,Mon Aug 04 2025 15:02:34 GMT-0500 (Central Daylight Time),153293.59999990463,A,bu,O,u,239,1,1479.7000000476837,151813.89999985695,7197,WL,A,5.0
1,20.325000047683716,learn,39674.999952316284,Mon Aug 04 2025 15:02:34 GMT-0500 (Central Daylight Time),153528.39999985695,A,but,O,t,213,1,1714.5,151813.89999985695,7197,WL,A,5.0
1,20.424999952316284,learn,39575.000047683716,Mon Aug 04 2025 15:02:34 GMT-0500 (Central Daylight Time),153627.79999995232,A,butt,O,t,84,1,1813.9000000953674,151813.89999985695,7197,WL,A,5.0
1,20.55900001525879,learn,39440.99998474121,Mon Aug 04 2025 15:02:34 GMT-0500 (Central Daylight Time),153762.29999995232,A,butto,O,o,113,1,1948.4000000953674,151813.89999985695,7197,WL,A,5.0
1,20.674000024795532,learn,39325.99997520447,Mon Aug 04 2025 15:02:34 GMT-0500 (Central Daylight Time),153876.89999985695,A,button,O,n,99,1,2063.0,151813.89999985695,7197,WL,A,5.0
1,20.991999864578247,learn,39008.00013542175,Mon Aug 04 2025 15:02:34 GMT-0500 (Central Daylight Time),154195.59999990463,A,buttonenter,O,enter,312,1,2381.7000000476837,151813.89999985695,7197,WL,A,5.0
1,21.507999897003174,learn,38492.000102996826,Mon Aug 04 2025 15:02:34 GMT-0500 (Central Daylight Time),154710.79999995232,A,b,O,b,506,1,514.9000000953674,154195.89999985695,7197,WL,A,6.0
1,21.872999906539917,learn,38127.00009346008,Mon Aug 04 2025 15:02:34 GMT-0500 (Central Daylight Time),155076.39999985695,A,,O,backspace,349,1,880.5,154195.89999985695,7197,WL,A,6.0
1,22.007999897003174,learn,37992.000102996826,Mon Aug 04 2025 15:02:34 GMT-0500 (Central Daylight Time),155211.5,A,a,O,a,130,1,1015.6000001430511,154195.89999985695,7197,WL,A,6.0
1,22.354000091552734,learn,37645.999908447266,Mon Aug 04 2025 15:02:34 GMT-0500 (Central Daylight Time),155557.69999980927,A,ap,O,p,334,1,1361.7999999523163,154195.89999985695,7197,WL,A,6.0
1,22.555000066757202,learn,37444.9999332428,Mon Aug 04 2025 15:02:34 GMT-0500 (Central Daylight Time),155758.19999980927,A,app,O,p,191,1,1562.2999999523163,154195.89999985695,7197,WL,A,6.0
1,22.805000066757202,learn,37194.9999332428,Mon Aug 04 2025 15:02:34 GMT-0500 (Central Daylight Time),156008.19999980927,A,appl,O,l,230,1,1812.2999999523163,154195.89999985695,7197,WL,A,6.0
1,22.937999963760376,learn,37062.000036239624,Mon Aug 04 2025 15:02:34 GMT-0500 (Central Daylight Time),156141.59999990463,A,apple,O,e,123,1,1945.7000000476837,154195.89999985695,7197,WL,A,6.0
1,23.27300000190735,learn,36726.99999809265,Mon Aug 04 2025 15:02:34 GMT-0500 (Central Daylight Time),156475.79999995232,A,appleenter,O,enter,321,1,2279.9000000953674,154195.89999985695,7197,WL,A,6.0
1,28.471999883651733,learn,31528.000116348267,Mon Aug 04 2025 15:02:34 GMT-0500 (Central Daylight Time),161675.5,A,t,O,t,5194,1,5199.400000095367,156476.09999990463,7197,WL,A,7.0
1,28.63700008392334,learn,31362.99991607666,Mon Aug 04 2025 15:02:34 GMT-0500 (Central Daylight Time),161840.59999990463,A,tr,O,r,154,1,5364.5,156476.09999990463,7197,WL,A,7.0
1,28.753999948501587,learn,31246.000051498413,Mon Aug 04 2025 15:02:34 GMT-0500 (Central Daylight Time),161957.09999990463,A,tra,O,a,107,1,5481.0,156476.09999990463,7197,WL,A,7.0
1,28.872999906539917,learn,31127.000093460083,Mon Aug 04 2025 15:02:34 GMT-0500 (Central Daylight Time),162076.0,A,trai,O,i,114,1,5599.900000095367,156476.09999990463,7197,WL,A,7.0
1,28.953999996185303,learn,31046.000003814697,Mon Aug 04 2025 15:02:34 GMT-0500 (Central Daylight Time),162157.09999990463,A,train,O,n,62,1,5681.0,156476.09999990463,7197,WL,A,7.0
1,29.338000059127808,learn,30661.999940872192,Mon Aug 04 2025 15:02:34 GMT-0500 (Central Daylight Time),162541.39999985695,A,trainenter,O,enter,366,1,6065.299999952316,156476.09999990463,7197,WL,A,7.0
1,29.770999908447266,learn,30229.000091552734,Mon Aug 04 2025 15:02:34 GMT-0500 (Central Daylight Time),162974.59999990463,A,c,O,c,423,1,432.90000009536743,162541.69999980927,7197,WL,A,8.0
1,29.90499997138977,learn,30095.00002861023,Mon Aug 04 2025 15:02:34 GMT-0500 (Central Daylight Time),163107.89999985695,A,ch,O,h,117,1,566.2000000476837,162541.69999980927,7197,WL,A,8.0
1,29.98799991607666,learn,30012.00008392334,Mon Aug 04 2025 15:02:34 GMT-0500 (Central Daylight Time),163191.79999995232,A,chi,O,i,63,1,650.1000001430511,162541.69999980927,7197,WL,A,8.0
1,30.152999877929688,learn,29847.000122070312,Mon Aug 04 2025 15:02:34 GMT-0500 (Central Daylight Time),163356.89999985695,A,chin,O,n,147,1,815.2000000476837,162541.69999980927,7197,WL,A,8.0
1,30.703999996185303,learn,29296.000003814697,Mon Aug 04 2025 15:02:34 GMT-0500 (Central Daylight Time),163906.89999985695,A,chi,O,backspace,535,1,1365.2000000476837,162541.69999980927,7197,WL,A,8.0
1,30.954999923706055,learn,29045.000076293945,Mon Aug 04 2025 15:02:34 GMT-0500 (Central Daylight Time),164158.0,A,chim,O,m,228,1,1616.3000001907349,162541.69999980927,7197,WL,A,8.0
1,31.585999965667725,learn,28414.000034332275,Mon Aug 04 2025 15:02:34 GMT-0500 (Central Daylight Time),164789.5,A,chimn,O,n,622,1,2247.800000190735,162541.69999980927,7197,WL,A,8.0
1,31.721999883651733,learn,28278.000116348267,Mon Aug 04 2025 15:02:34 GMT-0500 (Central Daylight Time),164925.09999990463,A,chimne,O,e,128,1,2383.4000000953674,162541.69999980927,7197,WL,A,8.0
1,31.836999893188477,learn,28163.000106811523,Mon Aug 04 2025 15:02:34 GMT-0500 (Central Daylight Time),165039.79999995232,A,chimney,O,y,103,1,2498.100000143051,162541.69999980927,7197,WL,A,8.0
1,32.206000089645386,learn,27793.999910354614,Mon Aug 04 2025 15:02:34 GMT-0500 (Central Daylight Time),165409.29999995232,A,chimneyenter,O,enter,348,1,2867.600000143051,162541.69999980927,7197,WL,A,8.0
1,38.45199990272522,learn,21548.00009727478,Mon Aug 04 2025 15:02:34 GMT-0500 (Central Daylight Time),171655.09999990463,A,r,O,r,6226,1,6245.599999904633,165409.5,7197,WL,A,9.0
1,38.568000078201294,learn,21431.999921798706,Mon Aug 04 2025 15:02:34 GMT-0500 (Central Daylight Time),171770.89999985695,A,ru,O,u,109,1,6361.399999856949,165409.5,7197,WL,A,9.0
1,38.7189998626709,learn,21281.0001373291,Mon Aug 04 2025 15:02:34 GMT-0500 (Central Daylight Time),171922.79999995232,A,rug,O,g,144,1,6513.299999952316,165409.5,7197,WL,A,9.0
1,39.01799988746643,learn,20982.00011253357,Mon Aug 04 2025 15:02:34 GMT-0500 (Central Daylight Time),172221.0,A,rugenter,O,enter,281,1,6811.5,165409.5,7197,WL,A,9.0
1,60.01300001144409,learn,-13.000011444091797,Mon Aug 04 2025 15:02:34 GMT-0500 (Central Daylight Time),193216.29999995232,A,None,O,None,20990,1,20995.0,172221.29999995232,7197,WL,A,10.0
2,2.5329999923706055,learn,57467.000007629395,Mon Aug 04 2025 15:02:34 GMT-0500 (Central Daylight Time),263093.2999999523,A,b,O,b,2526,1,2532.7000000476837,260560.59999990463,7197,WL,A,1.0
2,2.749000072479248,learn,57250.99992752075,Mon Aug 04 2025 15:02:34 GMT-0500 (Central Daylight Time),263309.39999985695,A,bo,O,o,206,1,2748.7999999523163,260560.59999990463,7197,WL,A,1.0
2,2.9149999618530273,learn,57085.00003814697,Mon Aug 04 2025 15:02:34 GMT-0500 (Central Daylight Time),263475.19999980927,A,boo,O,o,159,1,2914.5999999046326,260560.59999990463,7197,WL,A,1.0
2,3.1489999294281006,learn,56851.0000705719,Mon Aug 04 2025 15:02:34 GMT-0500 (Central Daylight Time),263709.19999980927,A,book,O,k,218,1,3148.5999999046326,260560.59999990463,7197,WL,A,1.0
2,4.082000017166138,learn,55917.99998283386,Mon Aug 04 2025 15:02:34 GMT-0500 (Central Daylight Time),264642.19999980927,A,bookenter,O,enter,927,1,4081.5999999046326,260560.59999990463,7197,WL,A,1.0
2,4.799000024795532,learn,55200.99997520447,Mon Aug 04 2025 15:02:34 GMT-0500 (Central Daylight Time),265358.89999985695,A,m,O,m,707,1,716.2999999523163,264642.59999990463,7197,WL,A,2.0
2,4.900000095367432,learn,55099.99990463257,Mon Aug 04 2025 15:02:34 GMT-0500 (Central Daylight Time),265459.89999985695,A,me,O,e,94,1,817.2999999523163,264642.59999990463,7197,WL,A,2.0
2,5.065000057220459,learn,54934.99994277954,Mon Aug 04 2025 15:02:34 GMT-0500 (Central Daylight Time),265625.2999999523,A,mea,O,a,142,1,982.7000000476837,264642.59999990463,7197,WL,A,2.0
2,5.197000026702881,learn,54802.99997329712,Mon Aug 04 2025 15:02:34 GMT-0500 (Central Daylight Time),265757.5,A,mead,O,d,122,1,1114.9000000953674,264642.59999990463,7197,WL,A,2.0
2,5.398000001907349,learn,54601.99999809265,Mon Aug 04 2025 15:02:34 GMT-0500 (Central Daylight Time),265958.5,A,meado,O,o,182,1,1315.9000000953674,264642.59999990463,7197,WL,A,2.0
2,5.614000082015991,learn,54385.99991798401,Mon Aug 04 2025 15:02:34 GMT-0500 (Central Daylight Time),266174.59999990463,A,meadow,O,w,206,1,1532.0,264642.59999990463,7197,WL,A,2.0
2,6.230000019073486,learn,53769.999980926514,Mon Aug 04 2025 15:02:34 GMT-0500 (Central Daylight Time),266790.2999999523,A,meadowenter,O,enter,598,1,2147.7000000476837,264642.59999990463,7197,WL,A,2.0
2,6.898000001907349,learn,53101.99999809265,Mon Aug 04 2025 15:02:34 GMT-0500 (Central Daylight Time),267458.2999999523,A,t,O,t,663,1,667.7000000476837,266790.59999990463,7197,WL,A,3.0
2,7.114000082015991,learn,52885.99991798401,Mon Aug 04 2025 15:02:34 GMT-0500 (Central Daylight Time),267674.59999990463,A,tr,O,r,201,1,884.0,266790.59999990463,7197,WL,A,3.0
2,7.21399998664856,learn,52786.00001335144,Mon Aug 04 2025 15:02:34 GMT-0500 (Central Daylight Time),267774.39999985695,A,tra,O,a,81,1,983.7999999523163,266790.59999990463,7197,WL,A,3.0
2,7.26200008392334,learn,52737.99991607666,Mon Aug 04 2025 15:02:34 GMT-0500 (Central Daylight Time),267822.59999990463,A,trai,O,i,37,1,1032.0,266790.59999990463,7197,WL,A,3.0
2,7.364000082015991,learn,52635.99991798401,Mon Aug 04 2025 15:02:34 GMT-0500 (Central Daylight Time),267924.2999999523,A,train,O,n,87,1,1133.7000000476837,266790.59999990463,7197,WL,A,3.0
2,8.11299991607666,learn,51887.00008392334,Mon Aug 04 2025 15:02:34 GMT-0500 (Central Daylight Time),268673.69999980927,A,trainenter,O,enter,736,1,1883.0999999046326,266790.59999990463,7197,WL,A,3.0
2,8.71399998664856,learn,51286.00001335144,Mon Aug 04 2025 15:02:34 GMT-0500 (Central Daylight Time),269274.2999999523,A,r,O,r,586,1,600.2999999523163,268674.0,7197,WL,A,4.0
2,8.829999923706055,learn,51170.000076293945,Mon Aug 04 2025 15:02:34 GMT-0500 (Central Daylight Time),269390.0,A,ru,O,u,97,1,716.0,268674.0,7197,WL,A,4.0
2,8.977999925613403,learn,51022.0000743866,Mon Aug 04 2025 15:02:34 GMT-0500 (Central Daylight Time),269538.39999985695,A,rug,O,g,141,1,864.3999998569489,268674.0,7197,WL,A,4.0
2,9.463000059127808,learn,50536.99994087219,Mon Aug 04 2025 15:02:34 GMT-0500 (Central Daylight Time),270023.7999999523,A,rugenter,O,enter,466,1,1349.7999999523163,268674.0,7197,WL,A,4.0
2,10.013999938964844,learn,49986.000061035156,Mon Aug 04 2025 15:02:34 GMT-0500 (Central Daylight Time),270573.89999985695,A,g,O,g,541,1,550.0,270023.89999985695,7197,WL,A,5.0
2,10.161999940872192,learn,49838.00005912781,Mon Aug 04 2025 15:02:34 GMT-0500 (Central Daylight Time),270722.5,A,go,O,o,133,1,698.6000001430511,270023.89999985695,7197,WL,A,5.0
2,10.348000049591064,learn,49651.999950408936,Mon Aug 04 2025 15:02:34 GMT-0500 (Central Daylight Time),270908.2999999523,A,gol,O,l,179,1,884.4000000953674,270023.89999985695,7197,WL,A,5.0
2,10.463000059127808,learn,49536.99994087219,Mon Aug 04 2025 15:02:34 GMT-0500 (Central Daylight Time),271022.89999985695,A,gold,O,d,94,1,999.0,270023.89999985695,7197,WL,A,5.0
2,10.77999997138977,learn,49220.00002861023,Mon Aug 04 2025 15:02:34 GMT-0500 (Central Daylight Time),271339.89999985695,A,goldenter,O,enter,309,1,1316.0,270023.89999985695,7197,WL,A,5.0
2,11.145999908447266,learn,48854.000091552734,Mon Aug 04 2025 15:02:34 GMT-0500 (Central Daylight Time),271706.69999980927,A,b,O,b,361,1,366.39999985694885,271340.2999999523,7197,WL,A,6.0
2,11.380000114440918,learn,48619.99988555908,Mon Aug 04 2025 15:02:34 GMT-0500 (Central Daylight Time),271940.2999999523,A,bu,O,u,228,1,600.0,271340.2999999523,7197,WL,A,6.0
2,11.54699993133545,learn,48453.00006866455,Mon Aug 04 2025 15:02:34 GMT-0500 (Central Daylight Time),272107.59999990463,A,but,O,t,159,1,767.2999999523163,271340.2999999523,7197,WL,A,6.0
2,11.680000066757202,learn,48319.9999332428,Mon Aug 04 2025 15:02:34 GMT-0500 (Central Daylight Time),272240.0,A,butt,O,t,119,1,899.7000000476837,271340.2999999523,7197,WL,A,6.0
2,11.812000036239624,learn,48187.999963760376,Mon Aug 04 2025 15:02:34 GMT-0500 (Central Daylight Time),272372.59999990463,A,butto,O,o,123,1,1032.2999999523163,271340.2999999523,7197,WL,A,6.0
2,11.914000034332275,learn,48085.999965667725,Mon Aug 04 2025 15:02:34 GMT-0500 (Central Daylight Time),272474.5,A,button,O,n,95,1,1134.2000000476837,271340.2999999523,7197,WL,A,6.0
2,12.329999923706055,learn,47670.000076293945,Mon Aug 04 2025 15:02:34 GMT-0500 (Central Daylight Time),272890.09999990463,A,buttonenter,O,enter,401,1,1549.7999999523163,271340.2999999523,7197,WL,A,6.0
2,13.130000114440918,learn,46869.99988555908,Mon Aug 04 2025 15:02:34 GMT-0500 (Central Daylight Time),273690.0,A,f,O,f,795,1,799.7000000476837,272890.2999999523,7197,WL,A,7.0
2,13.226999998092651,learn,46773.00000190735,Mon Aug 04 2025 15:02:34 GMT-0500 (Central Daylight Time),273787.5,A,fi,O,i,81,1,897.2000000476837,272890.2999999523,7197,WL,A,7.0
2,13.312000036239624,learn,46687.999963760376,Mon Aug 04 2025 15:02:34 GMT-0500 (Central Daylight Time),273872.0,A,fin,O,n,72,1,981.7000000476837,272890.2999999523,7197,WL,A,7.0
2,13.41100001335144,learn,46588.99998664856,Mon Aug 04 2025 15:02:34 GMT-0500 (Central Daylight Time),273971.59999990463,A,fing,O,g,84,1,1081.2999999523163,272890.2999999523,7197,WL,A,7.0
2,13.545000076293945,learn,46454.999923706055,Mon Aug 04 2025 15:02:34 GMT-0500 (Central Daylight Time),274105.69999980927,A,finge,O,e,118,1,1215.3999998569489,272890.2999999523,7197,WL,A,7.0
2,13.611000061035156,learn,46388.999938964844,Mon Aug 04 2025 15:02:34 GMT-0500 (Central Daylight Time),274171.0,A,finger,O,r,58,1,1280.7000000476837,272890.2999999523,7197,WL,A,7.0
2,14.028000116348267,learn,45971.99988365173,Mon Aug 04 2025 15:02:34 GMT-0500 (Central Daylight Time),274588.0,A,fingerenter,O,enter,410,1,1697.7000000476837,272890.2999999523,7197,WL,A,7.0
2,14.411999940872192,learn,45588.00005912781,Mon Aug 04 2025 15:02:34 GMT-0500 (Central Daylight Time),274971.89999985695,A,t,O,t,368,1,383.59999990463257,274588.2999999523,7197,WL,A,8.0
2,14.592999935150146,learn,45407.00006484985,Mon Aug 04 2025 15:02:34 GMT-0500 (Central Daylight Time),275153.0,A,ta,O,a,166,1,564.7000000476837,274588.2999999523,7197,WL,A,8.0
2,14.844000101089478,learn,45155.99989891052,Mon Aug 04 2025 15:02:34 GMT-0500 (Central Daylight Time),275404.19999980927,A,tat,O,t,246,1,815.8999998569489,274588.2999999523,7197,WL,A,8.0
2,14.996000051498413,learn,45003.99994850159,Mon Aug 04 2025 15:02:34 GMT-0500 (Central Daylight Time),275556.2999999523,A,tatt,O,t,146,1,968.0,274588.2999999523,7197,WL,A,8.0
2,15.34500002861023,learn,44654.99997138977,Mon Aug 04 2025 15:02:34 GMT-0500 (Central Daylight Time),275905.5,A,tat,O,backspace,327,1,1317.2000000476837,274588.2999999523,7197,WL,A,8.0
2,15.510999917984009,learn,44489.00008201599,Mon Aug 04 2025 15:02:34 GMT-0500 (Central Daylight Time),276071.0,A,ta,O,backspace,146,1,1482.7000000476837,274588.2999999523,7197,WL,A,8.0
2,15.661999940872192,learn,44338.00005912781,Mon Aug 04 2025 15:02:34 GMT-0500 (Central Daylight Time),276221.89999985695,A,t,O,backspace,132,1,1633.5999999046326,274588.2999999523,7197,WL,A,8.0
2,15.812000036239624,learn,44187.999963760376,Mon Aug 04 2025 15:02:34 GMT-0500 (Central Daylight Time),276372.0,A,,O,backspace,134,1,1783.7000000476837,274588.2999999523,7197,WL,A,8.0
2,15.944000005722046,learn,44055.999994277954,Mon Aug 04 2025 15:02:34 GMT-0500 (Central Daylight Time),276504.09999990463,A,,O,backspace,119,1,1915.7999999523163,274588.2999999523,7197,WL,A,8.0
2,16.094000101089478,learn,43905.99989891052,Mon Aug 04 2025 15:02:34 GMT-0500 (Central Daylight Time),276654.2999999523,A,r,O,r,140,1,2066.0,274588.2999999523,7197,WL,A,8.0
2,16.32800006866455,learn,43671.99993133545,Mon Aug 04 2025 15:02:34 GMT-0500 (Central Daylight Time),276888.0,A,ra,O,a,222,1,2299.7000000476837,274588.2999999523,7197,WL,A,8.0
2,16.444000005722046,learn,43555.999994277954,Mon Aug 04 2025 15:02:34 GMT-0500 (Central Daylight Time),277004.0,A,rat,O,t,110,1,2415.7000000476837,274588.2999999523,7197,WL,A,8.0
2,16.76099991798401,learn,43239.00008201599,Mon Aug 04 2025 15:02:34 GMT-0500 (Central Daylight Time),277321.39999985695,A,ratt,O,t,312,1,2733.0999999046326,274588.2999999523,7197,WL,A,8.0
2,16.977999925613403,learn,43022.0000743866,Mon Aug 04 2025 15:02:34 GMT-0500 (Central Daylight Time),277537.7999999523,A,rattl,O,l,204,1,2949.5,274588.2999999523,7197,WL,A,8.0
2,17.0770001411438,learn,42922.9998588562,Mon Aug 04 2025 15:02:34 GMT-0500 (Central Daylight Time),277637.09999990463,A,rattle,O,e,92,1,3048.7999999523163,274588.2999999523,7197,WL,A,8.0
2,17.394999980926514,learn,42605.000019073486,Mon Aug 04 2025 15:02:34 GMT-0500 (Central Daylight Time),277954.89999985695,A,rattleenter,O,enter,312,1,3366.5999999046326,274588.2999999523,7197,WL,A,8.0
2,19.39300012588501,learn,40606.99987411499,Mon Aug 04 2025 15:02:34 GMT-0500 (Central Daylight Time),279953.7999999523,A,g,O,g,1986,1,1998.6000001430511,277955.19999980927,7197,WL,A,9.0
2,19.47699999809265,learn,40523.00000190735,Mon Aug 04 2025 15:02:34 GMT-0500 (Central Daylight Time),280036.89999985695,A,go,O,o,66,1,2081.7000000476837,277955.19999980927,7197,WL,A,9.0
2,19.64400005340576,learn,40355.99994659424,Mon Aug 04 2025 15:02:34 GMT-0500 (Central Daylight Time),280204.09999990463,A,gol,O,l,160,1,2248.9000000953674,277955.19999980927,7197,WL,A,9.0
2,19.76099991798401,learn,40239.00008201599,Mon Aug 04 2025 15:02:34 GMT-0500 (Central Daylight Time),280321.0,A,gold,O,d,104,1,2365.800000190735,277955.19999980927,7197,WL,A,9.0
2,20.026999950408936,learn,39973.000049591064,Mon Aug 04 2025 15:02:34 GMT-0500 (Central Daylight Time),280586.89999985695,A,goldenter,O,enter,261,1,2631.7000000476837,277955.19999980927,7197,WL,A,9.0
2,25.473999977111816,learn,34526.00002288818,Mon Aug 04 2025 15:02:34 GMT-0500 (Central Daylight Time),286034.59999990463,A,t,O,t,5434,1,5447.5,280587.09999990463,7197,WL,A,10.0
2,25.641000032424927,learn,34358.99996757507,Mon Aug 04 2025 15:02:34 GMT-0500 (Central Daylight Time),286201.2999999523,A,tr,O,r,153,1,5614.200000047684,280587.09999990463,7197,WL,A,10.0
2,25.740000009536743,learn,34259.99999046326,Mon Aug 04 2025 15:02:34 GMT-0500 (Central Daylight Time),286300.69999980927,A,tra,O,a,83,1,5713.599999904633,280587.09999990463,7197,WL,A,10.0
2,25.842999935150146,learn,34157.00006484985,Mon Aug 04 2025 15:02:34 GMT-0500 (Central Daylight Time),286403.19999980927,A,trai,O,i,96,1,5816.099999904633,280587.09999990463,7197,WL,A,10.0
2,25.907999992370605,learn,34092.000007629395,Mon Aug 04 2025 15:02:34 GMT-0500 (Central Daylight Time),286468.5,A,train,O,n,47,1,5881.400000095367,280587.09999990463,7197,WL,A,10.0
2,26.223999977111816,learn,33776.00002288818,Mon Aug 04 2025 15:02:34 GMT-0500 (Central Daylight Time),286784.59999990463,A,trainenter,O,enter,304,1,6197.5,280587.09999990463,7197,WL,A,10.0
2,32.855000019073486,learn,27144.999980926514,Mon Aug 04 2025 15:02:34 GMT-0500 (Central Daylight Time),293416.09999990463,A,r,O,r,6612,1,6631.200000047684,286784.89999985695,7197,WL,A,11.0
2,33.039000034332275,learn,26960.999965667725,Mon Aug 04 2025 15:02:34 GMT-0500 (Central Daylight Time),293599.89999985695,A,ru,O,u,163,1,6815.0,286784.89999985695,7197,WL,A,11.0
2,33.1560001373291,learn,26843.9998626709,Mon Aug 04 2025 15:02:34 GMT-0500 (Central Daylight Time),293716.69999980927,A,rug,O,g,100,1,6931.799999952316,286784.89999985695,7197,WL,A,11.0
2,33.4210000038147,learn,26578.999996185303,Mon Aug 04 2025 15:02:34 GMT-0500 (Central Daylight Time),293982.0,A,rugenter,O,enter,254,1,7197.100000143051,286784.89999985695,7197,WL,A,11.0
2,41.621999979019165,learn,18378.000020980835,Mon Aug 04 2025 15:02:34 GMT-0500 (Central Daylight Time),302183.2999999523,A,m,O,m,8181,1,8201.0,293982.2999999523,7197,WL,A,12.0
2,41.72099995613098,learn,18279.00004386902,Mon Aug 04 2025 15:02:34 GMT-0500 (Central Daylight Time),302281.89999985695,A,me,O,e,79,1,8299.599999904633,293982.2999999523,7197,WL,A,12.0
2,41.87000012397766,learn,18129.99987602234,Mon Aug 04 2025 15:02:34 GMT-0500 (Central Daylight Time),302430.69999980927,A,mea,O,a,132,1,8448.399999856949,293982.2999999523,7197,WL,A,12.0
2,42.085999965667725,learn,17914.000034332275,Mon Aug 04 2025 15:02:34 GMT-0500 (Central Daylight Time),302646.69999980927,A,mead,O,d,197,1,8664.399999856949,293982.2999999523,7197,WL,A,12.0
2,42.235000133514404,learn,17764.999866485596,Mon Aug 04 2025 15:02:34 GMT-0500 (Central Daylight Time),302795.69999980927,A,meado,O,o,142,1,8813.399999856949,293982.2999999523,7197,WL,A,12.0
2,42.73699998855591,learn,17263.00001144409,Mon Aug 04 2025 15:02:34 GMT-0500 (Central Daylight Time),303297.7999999523,A,meadow,O,w,495,1,9315.5,293982.2999999523,7197,WL,A,12.0
2,42.920000076293945,learn,17079.999923706055,Mon Aug 04 2025 15:02:34 GMT-0500 (Central Daylight Time),303480.5,A,meadowenter,O,enter,160,1,9498.200000047684,293982.2999999523,7197,WL,A,12.0
2,43.46900010108948,learn,16530.999898910522,Mon Aug 04 2025 15:02:34 GMT-0500 (Central Daylight Time),304029.7999999523,A,b,O,b,532,1,549.0,303480.7999999523,7197,WL,A,13.0
2,43.80299997329712,learn,16197.00002670288,Mon Aug 04 2025 15:02:34 GMT-0500 (Central Daylight Time),304363.39999985695,A,bo,O,o,327,1,882.5999999046326,303480.7999999523,7197,WL,A,13.0
2,44.019999980926514,learn,15980.000019073486,Mon Aug 04 2025 15:02:34 GMT-0500 (Central Daylight Time),304580.5,A,boo,O,o,212,1,1099.7000000476837,303480.7999999523,7197,WL,A,13.0
2,44.33500003814697,learn,15664.999961853027,Mon Aug 04 2025 15:02:34 GMT-0500 (Central Daylight Time),304896.19999980927,A,bool,O,l,294,1,1415.3999998569489,303480.7999999523,7197,WL,A,13.0
2,44.76800012588501,learn,15231.99987411499,Mon Aug 04 2025 15:02:34 GMT-0500 (Central Daylight Time),305329.19999980927,A,boo,O,backspace,420,1,1848.3999998569489,303480.7999999523,7197,WL,A,13.0
2,45.08400011062622,learn,14915.99988937378,Mon Aug 04 2025 15:02:34 GMT-0500 (Central Daylight Time),305645.0,A,book,O,k,308,1,2164.2000000476837,303480.7999999523,7197,WL,A,13.0
2,45.43400001525879,learn,14565.999984741211,Mon Aug 04 2025 15:02:34 GMT-0500 (Central Daylight Time),305994.69999980927,A,bookenter,O,enter,335,1,2513.899999856949,303480.7999999523,7197,WL,A,13.0
2,51.96600008010864,learn,8033.999919891357,Mon Aug 04 2025 15:02:34 GMT-0500 (Central Daylight Time),312526.59999990463,A,l,O,l,6513,1,6531.700000047684,305994.89999985695,7197,WL,A,14.0
2,52.13199996948242,learn,7868.000030517578,Mon Aug 04 2025 15:02:34 GMT-0500 (Central Daylight Time),312692.39999985695,A,lo,O,o,156,1,6697.5,305994.89999985695,7197,WL,A,14.0
2,52.29900002479553,learn,7700.999975204468,Mon Aug 04 2025 15:02:34 GMT-0500 (Central Daylight Time),312859.89999985695,A,log,O,g,159,1,6865.0,305994.89999985695,7197,WL,A,14.0
2,52.53200006484985,learn,7467.9999351501465,Mon Aug 04 2025 15:02:34 GMT-0500 (Central Daylight Time),313092.69999980927,A,logenter,O,enter,215,1,7097.799999952316,305994.89999985695,7197,WL,A,14.0
2,58.1470000743866,learn,1852.9999256134033,Mon Aug 04 2025 15:02:34 GMT-0500 (Central Daylight Time),318707.89999985695,A,b,O,b,5608,1,5615.0,313092.89999985695,7197,WL,A,15.0
2,58.746999979019165,learn,1253.000020980835,Mon Aug 04 2025 15:02:34 GMT-0500 (Central Daylight Time),319307.7999999523,A,,O,backspace,583,1,6214.900000095367,313092.89999985695,7197,WL,A,15.0
2,60.013999938964844,learn,-13.99993896484375,Mon Aug 04 2025 15:02:34 GMT-0500 (Central Daylight Time),320574.7999999523,A,None,O,None,1262,1,7481.900000095367,313092.89999985695,7197,WL,A,15.0
3,1.1489999294281006,learn,58851.0000705719,Mon Aug 04 2025 15:02:34 GMT-0500 (Central Daylight Time),388735.5,A,b,O,b,1138,1,1148.7000000476837,387586.7999999523,7197,WL,A,1.0
3,1.434000015258789,learn,58565.99998474121,Mon Aug 04 2025 15:02:34 GMT-0500 (Central Daylight Time),389020.7999999523,A,bo,O,o,261,1,1434.0,387586.7999999523,7197,WL,A,1.0
3,1.565999984741211,learn,58434.00001525879,Mon Aug 04 2025 15:02:34 GMT-0500 (Central Daylight Time),389152.39999985695,A,boo,O,o,119,1,1565.5999999046326,387586.7999999523,7197,WL,A,1.0
3,1.7660000324249268,learn,58233.99996757507,Mon Aug 04 2025 15:02:34 GMT-0500 (Central Daylight Time),389352.39999985695,A,book,O,k,179,1,1765.5999999046326,387586.7999999523,7197,WL,A,1.0
3,2.2319998741149902,learn,57768.00012588501,Mon Aug 04 2025 15:02:34 GMT-0500 (Central Daylight Time),389818.39999985695,A,bookenter,O,enter,460,1,2231.5999999046326,387586.7999999523,7197,WL,A,1.0
3,3.8489999771118164,learn,56151.00002288818,Mon Aug 04 2025 15:02:34 GMT-0500 (Central Daylight Time),391435.89999985695,A,f,O,f,1611,1,1617.0999999046326,389818.7999999523,7197,WL,A,2.0
3,3.930999994277954,learn,56069.000005722046,Mon Aug 04 2025 15:02:34 GMT-0500 (Central Daylight Time),391517.2999999523,A,fi,O,i,63,1,1698.5,389818.7999999523,7197,WL,A,2.0
3,3.997999906539917,learn,56002.00009346008,Mon Aug 04 2025 15:02:34 GMT-0500 (Central Daylight Time),391583.89999985695,A,fin,O,n,53,1,1765.0999999046326,389818.7999999523,7197,WL,A,2.0
3,4.096999883651733,learn,55903.00011634827,Mon Aug 04 2025 15:02:34 GMT-0500 (Central Daylight Time),391683.69999980927,A,fing,O,g,93,1,1864.8999998569489,389818.7999999523,7197,WL,A,2.0
3,4.23199987411499,learn,55768.00012588501,Mon Aug 04 2025 15:02:34 GMT-0500 (Central Daylight Time),391818.5,A,finge,O,e,119,1,1999.7000000476837,389818.7999999523,7197,WL,A,2.0
3,4.297999858856201,learn,55702.0001411438,Mon Aug 04 2025 15:02:34 GMT-0500 (Central Daylight Time),391884.0,A,finger,O,r,57,1,2065.2000000476837,389818.7999999523,7197,WL,A,2.0
3,4.580999851226807,learn,55419.00014877319,Mon Aug 04 2025 15:02:34 GMT-0500 (Central Daylight Time),392167.39999985695,A,fingerenter,O,enter,263,1,2348.5999999046326,389818.7999999523,7197,WL,A,2.0
3,4.9649999141693115,learn,55035.00008583069,Mon Aug 04 2025 15:02:34 GMT-0500 (Central Daylight Time),392551.2999999523,A,h,O,h,365,1,383.60000014305115,392167.69999980927,7197,WL,A,3.0
3,5.06499981880188,learn,54935.00018119812,Mon Aug 04 2025 15:02:34 GMT-0500 (Central Daylight Time),392651.7999999523,A,ha,O,a,94,1,484.10000014305115,392167.69999980927,7197,WL,A,3.0
3,5.547999858856201,learn,54452.0001411438,Mon Aug 04 2025 15:02:34 GMT-0500 (Central Daylight Time),393134.89999985695,A,har,O,r,463,1,967.2000000476837,392167.69999980927,7197,WL,A,3.0
3,5.680999994277954,learn,54319.000005722046,Mon Aug 04 2025 15:02:34 GMT-0500 (Central Daylight Time),393267.19999980927,A,haro,O,o,117,1,1099.5,392167.69999980927,7197,WL,A,3.0
3,6.197999954223633,learn,53802.00004577637,Mon Aug 04 2025 15:02:34 GMT-0500 (Central Daylight Time),393784.19999980927,A,har,O,backspace,504,1,1616.5,392167.69999980927,7197,WL,A,3.0
3,6.697999954223633,learn,53302.00004577637,Mon Aug 04 2025 15:02:34 GMT-0500 (Central Daylight Time),394284.5,A,harp,O,p,495,1,2116.800000190735,392167.69999980927,7197,WL,A,3.0
3,7.19599986076355,learn,52804.00013923645,Mon Aug 04 2025 15:02:34 GMT-0500 (Central Daylight Time),394782.69999980927,A,harpenter,O,enter,478,1,2615.0,392167.69999980927,7197,WL,A,3.0
3,7.980999946594238,learn,52019.00005340576,Mon Aug 04 2025 15:02:34 GMT-0500 (Central Daylight Time),395567.0,A,g,O,g,775,1,784.0,394783.0,7197,WL,A,4.0
3,8.095999956130981,learn,51904.00004386902,Mon Aug 04 2025 15:02:34 GMT-0500 (Central Daylight Time),395682.89999985695,A,go,O,o,103,1,899.8999998569489,394783.0,7197,WL,A,4.0
3,8.263999938964844,learn,51736.000061035156,Mon Aug 04 2025 15:02:34 GMT-0500 (Central Daylight Time),395850.39999985695,A,gol,O,l,161,1,1067.3999998569489,394783.0,7197,WL,A,4.0
3,8.363999843597412,learn,51636.00015640259,Mon Aug 04 2025 15:02:34 GMT-0500 (Central Daylight Time),395950.5,A,gold,O,d,79,1,1167.5,394783.0,7197,WL,A,4.0
3,8.61299991607666,learn,51387.00008392334,Mon Aug 04 2025 15:02:34 GMT-0500 (Central Daylight Time),396199.59999990463,A,goldenter,O,enter,237,1,1416.5999999046326,394783.0,7197,WL,A,4.0
3,8.96399998664856,learn,51036.00001335144,Mon Aug 04 2025 15:02:34 GMT-0500 (Central Daylight Time),396550.2999999523,A,r,O,r,331,1,350.40000009536743,396199.89999985695,7197,WL,A,5.0
3,9.162999868392944,learn,50837.000131607056,Mon Aug 04 2025 15:02:34 GMT-0500 (Central Daylight Time),396749.19999980927,A,ra,O,a,183,1,549.2999999523163,396199.89999985695,7197,WL,A,5.0
3,9.27999997138977,learn,50720.00002861023,Mon Aug 04 2025 15:02:34 GMT-0500 (Central Daylight Time),396866.39999985695,A,rat,O,t,103,1,666.5,396199.89999985695,7197,WL,A,5.0
3,9.412999868392944,learn,50587.000131607056,Mon Aug 04 2025 15:02:34 GMT-0500 (Central Daylight Time),396999.69999980927,A,ratt,O,t,121,1,799.7999999523163,396199.89999985695,7197,WL,A,5.0
3,9.579999923706055,learn,50420.000076293945,Mon Aug 04 2025 15:02:34 GMT-0500 (Central Daylight Time),397166.5,A,rattl,O,l,149,1,966.6000001430511,396199.89999985695,7197,WL,A,5.0
3,9.664000034332275,learn,50335.999965667725,Mon Aug 04 2025 15:02:34 GMT-0500 (Central Daylight Time),397250.59999990463,A,rattle,O,e,79,1,1050.7000000476837,396199.89999985695,7197,WL,A,5.0
3,9.94599986076355,learn,50054.00013923645,Mon Aug 04 2025 15:02:34 GMT-0500 (Central Daylight Time),397532.2999999523,A,rattleenter,O,enter,265,1,1332.4000000953674,396199.89999985695,7197,WL,A,5.0
3,10.230000019073486,learn,49769.999980926514,Mon Aug 04 2025 15:02:34 GMT-0500 (Central Daylight Time),397816.59999990463,A,r,O,r,264,1,284.09999990463257,397532.5,7197,WL,A,6.0
3,10.414000034332275,learn,49585.999965667725,Mon Aug 04 2025 15:02:34 GMT-0500 (Central Daylight Time),398000.19999980927,A,ru,O,u,163,1,467.69999980926514,397532.5,7197,WL,A,6.0
3,10.711999893188477,learn,49288.00010681152,Mon Aug 04 2025 15:02:34 GMT-0500 (Central Daylight Time),398298.59999990463,A,rug,O,g,285,1,766.0999999046326,397532.5,7197,WL,A,6.0
3,11.095999956130981,learn,48904.00004386902,Mon Aug 04 2025 15:02:34 GMT-0500 (Central Daylight Time),398682.7999999523,A,rugenter,O,enter,368,1,1150.2999999523163,397532.5,7197,WL,A,6.0
3,13.513000011444092,learn,46486.99998855591,Mon Aug 04 2025 15:02:34 GMT-0500 (Central Daylight Time),401099.69999980927,A,s,O,s,2403,1,2416.5999999046326,398683.09999990463,7197,WL,A,7.0
3,13.661999940872192,learn,46338.00005912781,Mon Aug 04 2025 15:02:34 GMT-0500 (Central Daylight Time),401248.7999999523,A,sa,O,a,136,1,2565.7000000476837,398683.09999990463,7197,WL,A,7.0
3,13.745999813079834,learn,46254.000186920166,Mon Aug 04 2025 15:02:34 GMT-0500 (Central Daylight Time),401331.89999985695,A,sal,O,l,67,1,2648.7999999523163,398683.09999990463,7197,WL,A,7.0
3,14.24399995803833,learn,45756.00004196167,Mon Aug 04 2025 15:02:34 GMT-0500 (Central Daylight Time),401830.59999990463,A,salt,O,t,481,1,3147.5,398683.09999990463,7197,WL,A,7.0
3,14.810999870300293,learn,45189.00012969971,Mon Aug 04 2025 15:02:34 GMT-0500 (Central Daylight Time),402397.7999999523,A,saltenter,O,enter,549,1,3714.7000000476837,398683.09999990463,7197,WL,A,7.0
3,15.277999877929688,learn,44722.00012207031,Mon Aug 04 2025 15:02:34 GMT-0500 (Central Daylight Time),402864.89999985695,A,f,O,f,454,1,466.89999985694885,402398.0,7197,WL,A,8.0
3,15.393999814987183,learn,44606.00018501282,Mon Aug 04 2025 15:02:34 GMT-0500 (Central Daylight Time),402981.0,A,fi,O,i,110,1,583.0,402398.0,7197,WL,A,8.0
3,15.477999925613403,learn,44522.0000743866,Mon Aug 04 2025 15:02:34 GMT-0500 (Central Daylight Time),403064.2999999523,A,fin,O,n,63,1,666.2999999523163,402398.0,7197,WL,A,8.0
3,15.810999870300293,learn,44189.00012969971,Mon Aug 04 2025 15:02:34 GMT-0500 (Central Daylight Time),403397.19999980927,A,fing,O,g,324,1,999.1999998092651,402398.0,7197,WL,A,8.0
3,15.977999925613403,learn,44022.0000743866,Mon Aug 04 2025 15:02:34 GMT-0500 (Central Daylight Time),403564.09999990463,A,finge,O,e,159,1,1166.0999999046326,402398.0,7197,WL,A,8.0
3,16.043999910354614,learn,43956.000089645386,Mon Aug 04 2025 15:02:34 GMT-0500 (Central Daylight Time),403630.39999985695,A,finger,O,r,53,1,1232.3999998569489,402398.0,7197,WL,A,8.0
3,16.393999814987183,learn,43606.00018501282,Mon Aug 04 2025 15:02:34 GMT-0500 (Central Daylight Time),403980.19999980927,A,fingerenter,O,enter,341,1,1582.1999998092651,402398.0,7197,WL,A,8.0
3,17.460000038146973,learn,42539.99996185303,Mon Aug 04 2025 15:02:34 GMT-0500 (Central Daylight Time),405046.69999980927,A,b,O,b,1050,1,1066.1999998092651,403980.5,7197,WL,A,9.0
3,17.66100001335144,learn,42338.99998664856,Mon Aug 04 2025 15:02:34 GMT-0500 (Central Daylight Time),405247.19999980927,A,bo,O,o,179,1,1266.6999998092651,403980.5,7197,WL,A,9.0
3,17.777999877929688,learn,42222.00012207031,Mon Aug 04 2025 15:02:34 GMT-0500 (Central Daylight Time),405364.2999999523,A,boo,O,o,109,1,1383.7999999523163,403980.5,7197,WL,A,9.0
3,18.01199984550476,learn,41988.00015449524,Mon Aug 04 2025 15:02:34 GMT-0500 (Central Daylight Time),405598.0,A,book,O,k,224,1,1617.5,403980.5,7197,WL,A,9.0
3,18.72699999809265,learn,41273.00000190735,Mon Aug 04 2025 15:02:34 GMT-0500 (Central Daylight Time),406313.5,A,boo,O,backspace,703,1,2333.0,403980.5,7197,WL,A,9.0
3,18.89299988746643,learn,41107.00011253357,Mon Aug 04 2025 15:02:34 GMT-0500 (Central Daylight Time),406479.59999990463,A,bo,O,backspace,147,1,2499.0999999046326,403980.5,7197,WL,A,9.0
3,19.026999950408936,learn,40973.000049591064,Mon Aug 04 2025 15:02:34 GMT-0500 (Central Daylight Time),406613.19999980927,A,b,O,backspace,123,1,2632.699999809265,403980.5,7197,WL,A,9.0
3,19.194000005722046,learn,40805.999994277954,Mon Aug 04 2025 15:02:34 GMT-0500 (Central Daylight Time),406780.39999985695,A,,O,backspace,150,1,2799.899999856949,403980.5,7197,WL,A,9.0
3,20.325999975204468,learn,39674.00002479553,Mon Aug 04 2025 15:02:34 GMT-0500 (Central Daylight Time),407912.39999985695,A,b,O,b,1120,1,3931.899999856949,403980.5,7197,WL,A,9.0
3,20.543999910354614,learn,39456.000089645386,Mon Aug 04 2025 15:02:34 GMT-0500 (Central Daylight Time),408130.19999980927,A,bo,O,o,213,1,4149.699999809265,403980.5,7197,WL,A,9.0
3,20.694000005722046,learn,39305.999994277954,Mon Aug 04 2025 15:02:34 GMT-0500 (Central Daylight Time),408280.09999990463,A,boo,O,o,138,1,4299.599999904633,403980.5,7197,WL,A,9.0
3,20.89299988746643,learn,39107.00011253357,Mon Aug 04 2025 15:02:34 GMT-0500 (Central Daylight Time),408479.39999985695,A,book,O,k,188,1,4498.899999856949,403980.5,7197,WL,A,9.0
3,21.22499990463257,learn,38775.00009536743,Mon Aug 04 2025 15:02:34 GMT-0500 (Central Daylight Time),408811.5,A,bookenter,O,enter,326,1,4831.0,403980.5,7197,WL,A,9.0
3,23.55900001525879,learn,36440.99998474121,Mon Aug 04 2025 15:02:34 GMT-0500 (Central Daylight Time),411145.2999999523,A,m,O,m,2322,1,2333.600000143051,408811.69999980927,7197,WL,A,10.0
3,23.657999992370605,learn,36342.000007629395,Mon Aug 04 2025 15:02:34 GMT-0500 (Central Daylight Time),411244.2999999523,A,me,O,e,83,1,2432.600000143051,408811.69999980927,7197,WL,A,10.0
3,23.776000022888184,learn,36223.99997711182,Mon Aug 04 2025 15:02:34 GMT-0500 (Central Daylight Time),411362.89999985695,A,mea,O,a,112,1,2551.2000000476837,408811.69999980927,7197,WL,A,10.0
3,23.941999912261963,learn,36058.00008773804,Mon Aug 04 2025 15:02:34 GMT-0500 (Central Daylight Time),411528.09999990463,A,mead,O,d,152,1,2716.4000000953674,408811.69999980927,7197,WL,A,10.0
3,24.14199995994568,learn,35858.00004005432,Mon Aug 04 2025 15:02:34 GMT-0500 (Central Daylight Time),411728.39999985695,A,meado,O,o,189,1,2916.7000000476837,408811.69999980927,7197,WL,A,10.0
3,24.29099988937378,learn,35709.00011062622,Mon Aug 04 2025 15:02:34 GMT-0500 (Central Daylight Time),411877.39999985695,A,meadow,O,w,132,1,3065.7000000476837,408811.69999980927,7197,WL,A,10.0
3,24.526000022888184,learn,35473.99997711182,Mon Aug 04 2025 15:02:34 GMT-0500 (Central Daylight Time),412112.19999980927,A,meadowenter,O,enter,222,1,3300.5,408811.69999980927,7197,WL,A,10.0
3,25.008999824523926,learn,34991.000175476074,Mon Aug 04 2025 15:02:34 GMT-0500 (Central Daylight Time),412595.59999990463,A,f,O,f,478,1,483.2000000476837,412112.39999985695,7197,WL,A,11.0
3,25.174999952316284,learn,34825.000047683716,Mon Aug 04 2025 15:02:34 GMT-0500 (Central Daylight Time),412761.59999990463,A,fl,O,l,152,1,649.2000000476837,412112.39999985695,7197,WL,A,11.0
3,25.358999967575073,learn,34641.00003242493,Mon Aug 04 2025 15:02:34 GMT-0500 (Central Daylight Time),412945.69999980927,A,flo,O,o,173,1,833.2999999523163,412112.39999985695,7197,WL,A,11.0
3,25.590999841690063,learn,34409.00015830994,Mon Aug 04 2025 15:02:34 GMT-0500 (Central Daylight Time),413177.89999985695,A,floe,O,e,220,1,1065.5,412112.39999985695,7197,WL,A,11.0
3,25.6729998588562,learn,34327.0001411438,Mon Aug 04 2025 15:02:34 GMT-0500 (Central Daylight Time),413260.2999999523,A,floer,O,r,66,1,1147.9000000953674,412112.39999985695,7197,WL,A,11.0
3,26.122999906539917,learn,33877.00009346008,Mon Aug 04 2025 15:02:34 GMT-0500 (Central Daylight Time),413709.7999999523,A,floerenter,O,enter,432,1,1597.4000000953674,412112.39999985695,7197,WL,A,11.0
3,28.641000032424927,learn,31358.999967575073,Mon Aug 04 2025 15:02:34 GMT-0500 (Central Daylight Time),416227.7999999523,A,t,O,t,2502,1,2517.7999999523163,413710.0,7197,WL,A,12.0
3,28.807999849319458,learn,31192.000150680542,Mon Aug 04 2025 15:02:34 GMT-0500 (Central Daylight Time),416394.59999990463,A,tr,O,r,161,1,2684.5999999046326,413710.0,7197,WL,A,12.0
3,28.924000024795532,learn,31075.999975204468,Mon Aug 04 2025 15:02:34 GMT-0500 (Central Daylight Time),416510.69999980927,A,tra,O,a,98,1,2800.699999809265,413710.0,7197,WL,A,12.0
3,29.006999969482422,learn,30993.000030517578,Mon Aug 04 2025 15:02:34 GMT-0500 (Central Daylight Time),416593.59999990463,A,trai,O,i,69,1,2883.5999999046326,413710.0,7197,WL,A,12.0
3,29.054999828338623,learn,30945.000171661377,Mon Aug 04 2025 15:02:34 GMT-0500 (Central Daylight Time),416642.2999999523,A,train,O,n,43,1,2932.2999999523163,413710.0,7197,WL,A,12.0
3,29.424000024795532,learn,30575.999975204468,Mon Aug 04 2025 15:02:34 GMT-0500 (Central Daylight Time),417010.59999990463,A,trainenter,O,enter,364,1,3300.5999999046326,413710.0,7197,WL,A,12.0
3,38.48699998855591,learn,21513.00001144409,Mon Aug 04 2025 15:02:34 GMT-0500 (Central Daylight Time),426073.89999985695,A,f,O,f,9051,1,9063.099999904633,417010.7999999523,7197,WL,A,13.0
3,38.58699989318848,learn,21413.000106811523,Mon Aug 04 2025 15:02:34 GMT-0500 (Central Daylight Time),426174.19999980927,A,fi,O,i,81,1,9163.399999856949,417010.7999999523,7197,WL,A,13.0
3,38.65299987792969,learn,21347.000122070312,Mon Aug 04 2025 15:02:34 GMT-0500 (Central Daylight Time),426239.69999980927,A,fin,O,n,52,1,9228.899999856949,417010.7999999523,7197,WL,A,13.0
3,38.753000020980835,learn,21246.999979019165,Mon Aug 04 2025 15:02:34 GMT-0500 (Central Daylight Time),426339.89999985695,A,fing,O,g,81,1,9329.099999904633,417010.7999999523,7197,WL,A,13.0
3,38.88699984550476,learn,21113.00015449524,Mon Aug 04 2025 15:02:34 GMT-0500 (Central Daylight Time),426474.19999980927,A,finge,O,e,118,1,9463.399999856949,417010.7999999523,7197,WL,A,13.0
3,38.97000002861023,learn,21029.99997138977,Mon Aug 04 2025 15:02:34 GMT-0500 (Central Daylight Time),426557.09999990463,A,finger,O,r,72,1,9546.299999952316,417010.7999999523,7197,WL,A,13.0
3,39.270999908447266,learn,20729.000091552734,Mon Aug 04 2025 15:02:34 GMT-0500 (Central Daylight Time),426858.39999985695,A,fingerenter,O,enter,296,1,9847.599999904633,417010.7999999523,7197,WL,A,13.0
3,41.36999988555908,learn,18630.000114440918,Mon Aug 04 2025 15:02:34 GMT-0500 (Central Daylight Time),428956.59999990463,A,g,O,g,2093,1,2098.0,426858.59999990463,7197,WL,A,14.0
3,41.484999895095825,learn,18515.000104904175,Mon Aug 04 2025 15:02:34 GMT-0500 (Central Daylight Time),429072.2999999523,A,go,O,o,94,1,2213.7000000476837,426858.59999990463,7197,WL,A,14.0
3,41.63499999046326,learn,18365.000009536743,Mon Aug 04 2025 15:02:34 GMT-0500 (Central Daylight Time),429221.69999980927,A,gol,O,l,137,1,2363.0999999046326,426858.59999990463,7197,WL,A,14.0
3,41.73599982261658,learn,18264.000177383423,Mon Aug 04 2025 15:02:34 GMT-0500 (Central Daylight Time),429322.89999985695,A,gold,O,d,83,1,2464.2999999523163,426858.59999990463,7197,WL,A,14.0
3,41.984999895095825,learn,18015.000104904175,Mon Aug 04 2025 15:02:34 GMT-0500 (Central Daylight Time),429572.2999999523,A,goldenter,O,enter,234,1,2713.7000000476837,426858.59999990463,7197,WL,A,14.0
3,44.18499994277954,learn,15815.000057220459,Mon Aug 04 2025 15:02:34 GMT-0500 (Central Daylight Time),431771.7999999523,A,l,O,l,2194,1,2199.2000000476837,429572.59999990463,7197,WL,A,15.0
3,44.3529999256134,learn,15647.000074386597,Mon Aug 04 2025 15:02:34 GMT-0500 (Central Daylight Time),431939.7999999523,A,lo,O,o,161,1,2367.2000000476837,429572.59999990463,7197,WL,A,15.0
3,44.55200004577637,learn,15447.999954223633,Mon Aug 04 2025 15:02:34 GMT-0500 (Central Daylight Time),432139.2999999523,A,log,O,g,185,1,2566.7000000476837,429572.59999990463,7197,WL,A,15.0
3,44.751999855041504,learn,15248.000144958496,Mon Aug 04 2025 15:02:34 GMT-0500 (Central Daylight Time),432338.59999990463,A,logenter,O,enter,194,1,2766.0,429572.59999990463,7197,WL,A,15.0
4,2.1670000553131104,learn,57832.99994468689,Mon Aug 04 2025 15:02:34 GMT-0500 (Central Daylight Time),501150.69999980927,A,b,O,b,2156,1,2166.5999999046326,498984.09999990463,7197,WL,A,1.0
4,2.433000087738037,learn,57566.99991226196,Mon Aug 04 2025 15:02:34 GMT-0500 (Central Daylight Time),501416.69999980927,A,bo,O,o,245,1,2432.5999999046326,498984.09999990463,7197,WL,A,1.0
4,2.5989999771118164,learn,57401.00002288818,Mon Aug 04 2025 15:02:34 GMT-0500 (Central Daylight Time),501582.09999990463,A,boo,O,o,146,1,2598.0,498984.09999990463,7197,WL,A,1.0
4,2.7839999198913574,learn,57216.00008010864,Mon Aug 04 2025 15:02:34 GMT-0500 (Central Daylight Time),501767.09999990463,A,book,O,k,165,1,2783.0,498984.09999990463,7197,WL,A,1.0
4,3.1470000743865967,learn,56852.9999256134,Mon Aug 04 2025 15:02:34 GMT-0500 (Central Daylight Time),502130.89999985695,A,bookenter,O,enter,356,1,3146.7999999523163,498984.09999990463,7197,WL,A,1.0
4,6.7170000076293945,learn,53282.999992370605,Mon Aug 04 2025 15:02:34 GMT-0500 (Central Daylight Time),505700.19999980927,A,f,O,f,3565,1,3569.199999809265,502131.0,7197,WL,A,2.0
4,6.831000089645386,learn,53168.999910354614,Mon Aug 04 2025 15:02:34 GMT-0500 (Central Daylight Time),505814.69999980927,A,fl,O,l,106,1,3683.699999809265,502131.0,7197,WL,A,2.0
4,7.065000057220459,learn,52934.99994277954,Mon Aug 04 2025 15:02:34 GMT-0500 (Central Daylight Time),506049.0,A,flo,O,o,221,1,3918.0,502131.0,7197,WL,A,2.0
4,7.831000089645386,learn,52168.999910354614,Mon Aug 04 2025 15:02:34 GMT-0500 (Central Daylight Time),506814.09999990463,A,floe,O,e,757,1,4683.099999904633,502131.0,7197,WL,A,2.0
4,7.914999961853027,learn,52085.00003814697,Mon Aug 04 2025 15:02:34 GMT-0500 (Central Daylight Time),506898.09999990463,A,floer,O,r,71,1,4767.099999904633,502131.0,7197,WL,A,2.0
4,8.316999912261963,learn,51683.00008773804,Mon Aug 04 2025 15:02:34 GMT-0500 (Central Daylight Time),507300.39999985695,A,floe,O,backspace,381,1,5169.399999856949,502131.0,7197,WL,A,2.0
4,8.497999906539917,learn,51502.00009346008,Mon Aug 04 2025 15:02:34 GMT-0500 (Central Daylight Time),507482.0,A,flo,O,backspace,161,1,5351.0,502131.0,7197,WL,A,2.0
4,8.680000066757202,learn,51319.9999332428,Mon Aug 04 2025 15:02:34 GMT-0500 (Central Daylight Time),507664.0,A,flow,O,w,162,1,5533.0,502131.0,7197,WL,A,2.0
4,8.79800009727478,learn,51201.99990272522,Mon Aug 04 2025 15:02:34 GMT-0500 (Central Daylight Time),507781.5,A,flowe,O,e,108,1,5650.5,502131.0,7197,WL,A,2.0
4,8.930999994277954,learn,51069.000005722046,Mon Aug 04 2025 15:02:34 GMT-0500 (Central Daylight Time),507914.19999980927,A,flower,O,r,110,1,5783.199999809265,502131.0,7197,WL,A,2.0
4,9.13100004196167,learn,50868.99995803833,Mon Aug 04 2025 15:02:34 GMT-0500 (Central Daylight Time),508114.7999999523,A,flowerenter,O,enter,195,1,5983.799999952316,502131.0,7197,WL,A,2.0
4,9.595999956130981,learn,50404.00004386902,Mon Aug 04 2025 15:02:34 GMT-0500 (Central Daylight Time),508579.89999985695,A,k,O,k,461,1,464.7999999523163,508115.09999990463,7197,WL,A,3.0
4,9.913000106811523,learn,50086.99989318848,Mon Aug 04 2025 15:02:34 GMT-0500 (Central Daylight Time),508896.7999999523,A,ke,O,e,305,1,781.7000000476837,508115.09999990463,7197,WL,A,3.0
4,10.046000003814697,learn,49953.9999961853,Mon Aug 04 2025 15:02:34 GMT-0500 (Central Daylight Time),509030.0,A,key,O,y,125,1,914.9000000953674,508115.09999990463,7197,WL,A,3.0
4,10.562999963760376,learn,49437.000036239624,Mon Aug 04 2025 15:02:34 GMT-0500 (Central Daylight Time),509546.09999990463,A,keyenter,O,enter,510,1,1431.0,508115.09999990463,7197,WL,A,3.0
4,11.463000059127808,learn,48536.99994087219,Mon Aug 04 2025 15:02:34 GMT-0500 (Central Daylight Time),510446.09999990463,A,r,O,r,892,1,899.7999999523163,509546.2999999523,7197,WL,A,4.0
4,11.615000009536743,learn,48384.99999046326,Mon Aug 04 2025 15:02:34 GMT-0500 (Central Daylight Time),510598.09999990463,A,ra,O,a,129,1,1051.7999999523163,509546.2999999523,7197,WL,A,4.0
4,11.71399998664856,learn,48286.00001335144,Mon Aug 04 2025 15:02:34 GMT-0500 (Central Daylight Time),510697.19999980927,A,rat,O,t,80,1,1150.8999998569489,509546.2999999523,7197,WL,A,4.0
4,11.845999956130981,learn,48154.00004386902,Mon Aug 04 2025 15:02:34 GMT-0500 (Central Daylight Time),510829.59999990463,A,ratt,O,t,124,1,1283.2999999523163,509546.2999999523,7197,WL,A,4.0
4,12.013000011444092,learn,47986.99998855591,Mon Aug 04 2025 15:02:34 GMT-0500 (Central Daylight Time),510996.0,A,rattl,O,l,149,1,1449.7000000476837,509546.2999999523,7197,WL,A,4.0
4,12.13100004196167,learn,47868.99995803833,Mon Aug 04 2025 15:02:34 GMT-0500 (Central Daylight Time),511114.5,A,rattle,O,e,112,1,1568.2000000476837,509546.2999999523,7197,WL,A,4.0
4,12.397000074386597,learn,47602.9999256134,Mon Aug 04 2025 15:02:34 GMT-0500 (Central Daylight Time),511380.09999990463,A,rattleenter,O,enter,258,1,1833.7999999523163,509546.2999999523,7197,WL,A,4.0
4,12.713000059127808,learn,47286.99994087219,Mon Aug 04 2025 15:02:34 GMT-0500 (Central Daylight Time),511696.19999980927,A,g,O,g,304,1,315.7999999523163,511380.39999985695,7197,WL,A,5.0
4,12.880000114440918,learn,47119.99988555908,Mon Aug 04 2025 15:02:34 GMT-0500 (Central Daylight Time),511863.5,A,go,O,o,157,1,483.10000014305115,511380.39999985695,7197,WL,A,5.0
4,13.079999923706055,learn,46920.000076293945,Mon Aug 04 2025 15:02:34 GMT-0500 (Central Daylight Time),512063.19999980927,A,gol,O,l,180,1,682.7999999523163,511380.39999985695,7197,WL,A,5.0
4,13.180000066757202,learn,46819.9999332428,Mon Aug 04 2025 15:02:34 GMT-0500 (Central Daylight Time),512163.7999999523,A,gold,O,d,83,1,783.4000000953674,511380.39999985695,7197,WL,A,5.0
4,13.447999954223633,learn,46552.00004577637,Mon Aug 04 2025 15:02:34 GMT-0500 (Central Daylight Time),512431.2999999523,A,goldenter,O,enter,247,1,1050.9000000953674,511380.39999985695,7197,WL,A,5.0
4,13.729000091552734,learn,46270.999908447266,Mon Aug 04 2025 15:02:34 GMT-0500 (Central Daylight Time),512712.2999999523,A,t,O,t,270,1,280.7000000476837,512431.59999990463,7197,WL,A,6.0
4,13.895999908447266,learn,46104.000091552734,Mon Aug 04 2025 15:02:34 GMT-0500 (Central Daylight Time),512879.39999985695,A,tr,O,r,157,1,447.7999999523163,512431.59999990463,7197,WL,A,6.0
4,14.062000036239624,learn,45937.999963760376,Mon Aug 04 2025 15:02:34 GMT-0500 (Central Daylight Time),513045.2999999523,A,tra,O,a,155,1,613.7000000476837,512431.59999990463,7197,WL,A,6.0
4,14.111000061035156,learn,45888.999938964844,Mon Aug 04 2025 15:02:34 GMT-0500 (Central Daylight Time),513094.69999980927,A,trai,O,i,29,1,663.0999999046326,512431.59999990463,7197,WL,A,6.0
4,14.161999940872192,learn,45838.00005912781,Mon Aug 04 2025 15:02:34 GMT-0500 (Central Daylight Time),513145.69999980927,A,train,O,n,45,1,714.0999999046326,512431.59999990463,7197,WL,A,6.0
4,14.564000129699707,learn,45435.99987030029,Mon Aug 04 2025 15:02:34 GMT-0500 (Central Daylight Time),513547.39999985695,A,trainenter,O,enter,397,1,1115.7999999523163,512431.59999990463,7197,WL,A,6.0
4,15.098999977111816,learn,44901.00002288818,Mon Aug 04 2025 15:02:34 GMT-0500 (Central Daylight Time),514082.7999999523,A,c,O,c,521,1,535.2000000476837,513547.59999990463,7197,WL,A,7.0
4,15.331000089645386,learn,44668.999910354614,Mon Aug 04 2025 15:02:34 GMT-0500 (Central Daylight Time),514314.09999990463,A,ch,O,h,227,1,766.5,513547.59999990463,7197,WL,A,7.0
4,15.510999917984009,learn,44489.00008201599,Mon Aug 04 2025 15:02:34 GMT-0500 (Central Daylight Time),514495.0,A,chi,O,i,172,1,947.4000000953674,513547.59999990463,7197,WL,A,7.0
4,15.611000061035156,learn,44388.999938964844,Mon Aug 04 2025 15:02:34 GMT-0500 (Central Daylight Time),514594.5,A,chim,O,m,94,1,1046.9000000953674,513547.59999990463,7197,WL,A,7.0
4,16.013000011444092,learn,43986.99998855591,Mon Aug 04 2025 15:02:34 GMT-0500 (Central Daylight Time),514997.0,A,chimn,O,n,396,1,1449.4000000953674,513547.59999990463,7197,WL,A,7.0
4,16.19700002670288,learn,43802.99997329712,Mon Aug 04 2025 15:02:34 GMT-0500 (Central Daylight Time),515180.19999980927,A,chimne,O,e,179,1,1632.5999999046326,513547.59999990463,7197,WL,A,7.0
4,16.314000129699707,learn,43685.99987030029,Mon Aug 04 2025 15:02:34 GMT-0500 (Central Daylight Time),515297.5,A,chimney,O,y,113,1,1749.9000000953674,513547.59999990463,7197,WL,A,7.0
4,16.661999940872192,learn,43338.00005912781,Mon Aug 04 2025 15:02:34 GMT-0500 (Central Daylight Time),515645.09999990463,A,chimneyenter,O,enter,331,1,2097.5,513547.59999990463,7197,WL,A,7.0
4,17.877000093460083,learn,42122.99990653992,Mon Aug 04 2025 15:02:34 GMT-0500 (Central Daylight Time),516860.19999980927,A,s,O,s,1208,1,1214.6999998092651,515645.5,7197,WL,A,8.0
4,18.045000076293945,learn,41954.999923706055,Mon Aug 04 2025 15:02:34 GMT-0500 (Central Daylight Time),517028.7999999523,A,sa,O,a,146,1,1383.2999999523163,515645.5,7197,WL,A,8.0
4,18.128000020980835,learn,41871.999979019165,Mon Aug 04 2025 15:02:34 GMT-0500 (Central Daylight Time),517111.69999980927,A,sal,O,l,71,1,1466.1999998092651,515645.5,7197,WL,A,8.0
4,18.411999940872192,learn,41588.00005912781,Mon Aug 04 2025 15:02:34 GMT-0500 (Central Daylight Time),517395.89999985695,A,salt,O,t,277,1,1750.3999998569489,515645.5,7197,WL,A,8.0
4,18.66000008583069,learn,41339.99991416931,Mon Aug 04 2025 15:02:34 GMT-0500 (Central Daylight Time),517643.89999985695,A,saltenter,O,enter,240,1,1998.3999998569489,515645.5,7197,WL,A,8.0
4,20.812000036239624,learn,39187.999963760376,Mon Aug 04 2025 15:02:34 GMT-0500 (Central Daylight Time),519795.7999999523,A,g,O,g,2129,1,2151.600000143051,517644.19999980927,7197,WL,A,9.0
4,20.962000131607056,learn,39037.999868392944,Mon Aug 04 2025 15:02:34 GMT-0500 (Central Daylight Time),519945.2999999523,A,go,O,o,129,1,2301.100000143051,517644.19999980927,7197,WL,A,9.0
4,21.14400005340576,learn,38855.99994659424,Mon Aug 04 2025 15:02:34 GMT-0500 (Central Daylight Time),520127.09999990463,A,gol,O,l,171,1,2482.9000000953674,517644.19999980927,7197,WL,A,9.0
4,21.229000091552734,learn,38770.999908447266,Mon Aug 04 2025 15:02:34 GMT-0500 (Central Daylight Time),520212.7999999523,A,gold,O,d,81,1,2568.600000143051,517644.19999980927,7197,WL,A,9.0
4,21.4760000705719,learn,38523.9999294281,Mon Aug 04 2025 15:02:34 GMT-0500 (Central Daylight Time),520459.2999999523,A,goldenter,O,enter,240,1,2815.100000143051,517644.19999980927,7197,WL,A,9.0
4,22.01099991798401,learn,37989.00008201599,Mon Aug 04 2025 15:02:34 GMT-0500 (Central Daylight Time),520994.39999985695,A,k,O,k,521,1,534.7999999523163,520459.59999990463,7197,WL,A,10.0
4,22.111000061035156,learn,37888.999938964844,Mon Aug 04 2025 15:02:34 GMT-0500 (Central Daylight Time),521094.09999990463,A,ke,O,e,83,1,634.5,520459.59999990463,7197,WL,A,10.0
4,22.444000005722046,learn,37555.999994277954,Mon Aug 04 2025 15:02:34 GMT-0500 (Central Daylight Time),521427.2999999523,A,key,O,y,318,1,967.7000000476837,520459.59999990463,7197,WL,A,10.0
4,22.825999975204468,learn,37174.00002479553,Mon Aug 04 2025 15:02:34 GMT-0500 (Central Daylight Time),521809.2999999523,A,keyenter,O,enter,368,1,1349.7000000476837,520459.59999990463,7197,WL,A,10.0
4,28.223999977111816,learn,31776.000022888184,Mon Aug 04 2025 15:02:34 GMT-0500 (Central Daylight Time),527208.0999999046,A,a,O,a,5388,1,5398.5,521809.59999990463,7197,WL,A,11.0
4,28.35800004005432,learn,31641.99995994568,Mon Aug 04 2025 15:02:34 GMT-0500 (Central Daylight Time),527341.7999999523,A,al,O,l,116,1,5532.200000047684,521809.59999990463,7197,WL,A,11.0
4,28.47499990463257,learn,31525.00009536743,Mon Aug 04 2025 15:02:34 GMT-0500 (Central Daylight Time),527458.1999998093,A,alk,O,k,96,1,5648.599999904633,521809.59999990463,7197,WL,A,11.0
4,28.89199995994568,learn,31108.00004005432,Mon Aug 04 2025 15:02:34 GMT-0500 (Central Daylight Time),527875.1999998093,A,al,O,backspace,402,1,6065.599999904633,521809.59999990463,7197,WL,A,11.0
4,29.058000087738037,learn,30941.999912261963,Mon Aug 04 2025 15:02:34 GMT-0500 (Central Daylight Time),528042.0,A,a,O,backspace,153,1,6232.400000095367,521809.59999990463,7197,WL,A,11.0
4,29.223999977111816,learn,30776.000022888184,Mon Aug 04 2025 15:02:34 GMT-0500 (Central Daylight Time),528207.7999999523,A,,O,backspace,154,1,6398.200000047684,521809.59999990463,7197,WL,A,11.0
4,29.641000032424927,learn,30358.999967575073,Mon Aug 04 2025 15:02:34 GMT-0500 (Central Daylight Time),528624.6999998093,A,s,O,s,406,1,6815.099999904633,521809.59999990463,7197,WL,A,11.0
4,30.20799994468689,learn,29792.00005531311,Mon Aug 04 2025 15:02:34 GMT-0500 (Central Daylight Time),529191.1999998093,A,,O,backspace,547,1,7381.599999904633,521809.59999990463,7197,WL,A,11.0
4,30.490000009536743,learn,29509.999990463257,Mon Aug 04 2025 15:02:34 GMT-0500 (Central Daylight Time),529474.1999998093,A,h,O,h,261,1,7664.599999904633,521809.59999990463,7197,WL,A,11.0
4,30.58999991416931,learn,29410.00008583069,Mon Aug 04 2025 15:02:34 GMT-0500 (Central Daylight Time),529573.1999998093,A,ha,O,a,90,1,7763.599999904633,521809.59999990463,7197,WL,A,11.0
4,30.806999921798706,learn,29193.000078201294,Mon Aug 04 2025 15:02:34 GMT-0500 (Central Daylight Time),529790.6999998093,A,har,O,r,196,1,7981.099999904633,521809.59999990463,7197,WL,A,11.0
4,30.94000005722046,learn,29059.99994277954,Mon Aug 04 2025 15:02:34 GMT-0500 (Central Daylight Time),529923.2999999523,A,haro,O,o,127,1,8113.700000047684,521809.59999990463,7197,WL,A,11.0
4,31.457000017166138,learn,28542.999982833862,Mon Aug 04 2025 15:02:34 GMT-0500 (Central Daylight Time),530440.1999998093,A,har,O,backspace,504,1,8630.599999904633,521809.59999990463,7197,WL,A,11.0
4,31.937999963760376,learn,28062.000036239624,Mon Aug 04 2025 15:02:34 GMT-0500 (Central Daylight Time),530921.899999857,A,harp,O,p,478,1,9112.299999952316,521809.59999990463,7197,WL,A,11.0
4,32.37299990653992,learn,27627.000093460083,Mon Aug 04 2025 15:02:34 GMT-0500 (Central Daylight Time),531356.2999999523,A,harpenter,O,enter,428,1,9546.700000047684,521809.59999990463,7197,WL,A,11.0
4,39.020999908447266,learn,20979.000091552734,Mon Aug 04 2025 15:02:34 GMT-0500 (Central Daylight Time),538004.7999999523,A,r,O,r,6633,1,6648.200000047684,531356.5999999046,7197,WL,A,12.0
4,39.121999979019165,learn,20878.000020980835,Mon Aug 04 2025 15:02:34 GMT-0500 (Central Daylight Time),538105.5999999046,A,ru,O,u,94,1,6749.0,531356.5999999046,7197,WL,A,12.0
4,39.28699994087219,learn,20713.000059127808,Mon Aug 04 2025 15:02:34 GMT-0500 (Central Daylight Time),538271.2999999523,A,rug,O,g,155,1,6914.700000047684,531356.5999999046,7197,WL,A,12.0
4,39.65400004386902,learn,20345.99995613098,Mon Aug 04 2025 15:02:34 GMT-0500 (Central Daylight Time),538638.399999857,A,rugenter,O,enter,357,1,7281.799999952316,531356.5999999046,7197,WL,A,12.0
4,46.53500008583069,learn,13464.999914169312,Mon Aug 04 2025 15:02:34 GMT-0500 (Central Daylight Time),545519.399999857,A,k,O,k,6863,1,6880.799999952316,538638.5999999046,7197,WL,A,13.0
4,46.651000022888184,learn,13348.999977111816,Mon Aug 04 2025 15:02:34 GMT-0500 (Central Daylight Time),545635.2999999523,A,ke,O,e,101,1,6996.700000047684,538638.5999999046,7197,WL,A,13.0
4,46.90300011634827,learn,13096.999883651733,Mon Aug 04 2025 15:02:34 GMT-0500 (Central Daylight Time),545887.5,A,key,O,y,231,1,7248.900000095367,538638.5999999046,7197,WL,A,13.0
4,47.31699991226196,learn,12683.000087738037,Mon Aug 04 2025 15:02:34 GMT-0500 (Central Daylight Time),546301.399999857,A,keyenter,O,enter,404,1,7662.799999952316,538638.5999999046,7197,WL,A,13.0
4,48.78399991989136,learn,11216.000080108643,Mon Aug 04 2025 15:02:34 GMT-0500 (Central Daylight Time),547768.2999999523,A,g,O,g,1456,1,1466.7000000476837,546301.5999999046,7197,WL,A,14.0
4,48.867000102996826,learn,11132.999897003174,Mon Aug 04 2025 15:02:34 GMT-0500 (Central Daylight Time),547851.0,A,go,O,o,78,1,1549.4000000953674,546301.5999999046,7197,WL,A,14.0
4,49.06699991226196,learn,10933.000087738037,Mon Aug 04 2025 15:02:34 GMT-0500 (Central Daylight Time),548050.899999857,A,gol,O,l,184,1,1749.2999999523163,546301.5999999046,7197,WL,A,14.0
4,49.13300013542175,learn,10866.999864578247,Mon Aug 04 2025 15:02:34 GMT-0500 (Central Daylight Time),548117.399999857,A,gold,O,d,57,1,1815.7999999523163,546301.5999999046,7197,WL,A,14.0
4,49.401999950408936,learn,10598.000049591064,Mon Aug 04 2025 15:02:34 GMT-0500 (Central Daylight Time),548385.6999998093,A,goldenter,O,enter,255,1,2084.0999999046326,546301.5999999046,7197,WL,A,14.0
4,56.41499996185303,learn,3585.0000381469727,Mon Aug 04 2025 15:02:34 GMT-0500 (Central Daylight Time),555399.2999999523,A,t,O,t,7004,1,7013.400000095367,548385.899999857,7197,WL,A,15.0
4,56.765000104904175,learn,3234.999895095825,Mon Aug 04 2025 15:02:34 GMT-0500 (Central Daylight Time),555749.2999999523,A,tr,O,r,329,1,7363.400000095367,548385.899999857,7197,WL,A,15.0
4,56.89800000190735,learn,3101.9999980926514,Mon Aug 04 2025 15:02:34 GMT-0500 (Central Daylight Time),555882.0999999046,A,tra,O,a,117,1,7496.200000047684,548385.899999857,7197,WL,A,15.0
4,56.94700002670288,learn,3052.999973297119,Mon Aug 04 2025 15:02:34 GMT-0500 (Central Daylight Time),555930.6999998093,A,trai,O,i,43,1,7544.799999952316,548385.899999857,7197,WL,A,15.0
4,57.04800009727478,learn,2951.9999027252197,Mon Aug 04 2025 15:02:34 GMT-0500 (Central Daylight Time),556032.2999999523,A,train,O,n,90,1,7646.400000095367,548385.899999857,7197,WL,A,15.0
4,57.3970000743866,learn,2602.9999256134033,Mon Aug 04 2025 15:02:34 GMT-0500 (Central Daylight Time),556380.7999999523,A,trainenter,O,enter,331,1,7994.900000095367,548385.899999857,7197,WL,A,15.0
5,1.432999849319458,learn,60000.0,Mon Aug 04 2025 15:02:34 GMT-0500 (Central Daylight Time),625093.2999999523,A,b,O,b,1423,1,1432.2000000476837,623661.0999999046,7197,WL,A,1.0
5,1.7009999752044678,learn,60000.0,Mon Aug 04 2025 15:02:34 GMT-0500 (Central Daylight Time),625361.5,A,bo,O,o,247,1,1700.4000000953674,623661.0999999046,7197,WL,A,1.0
5,1.8839998245239258,learn,60000.0,Mon Aug 04 2025 15:02:34 GMT-0500 (Central Daylight Time),625544.399999857,A,boo,O,o,160,1,1883.2999999523163,623661.0999999046,7197,WL,A,1.0
5,2.066999912261963,learn,60000.0,Mon Aug 04 2025 15:02:34 GMT-0500 (Central Daylight Time),625727.2999999523,A,book,O,k,164,1,2066.2000000476837,623661.0999999046,7197,WL,A,1.0
5,2.4670000076293945,learn,60000.0,Mon Aug 04 2025 15:02:34 GMT-0500 (Central Daylight Time),626127.6999998093,A,bookenter,O,enter,379,1,2466.5999999046326,623661.0999999046,7197,WL,A,1.0
5,2.815999984741211,learn,60000.0,Mon Aug 04 2025 15:02:34 GMT-0500 (Central Daylight Time),626476.1999998093,A,f,O,f,342,1,348.2999999523163,626127.899999857,7197,WL,A,2.0
5,2.931999921798706,learn,60000.0,Mon Aug 04 2025 15:02:34 GMT-0500 (Central Daylight Time),626593.0,A,fl,O,l,95,1,465.10000014305115,626127.899999857,7197,WL,A,2.0
5,3.132999897003174,learn,60000.0,Mon Aug 04 2025 15:02:34 GMT-0500 (Central Daylight Time),626794.1999998093,A,flo,O,o,177,1,666.2999999523163,626127.899999857,7197,WL,A,2.0
5,3.2669999599456787,learn,60000.0,Mon Aug 04 2025 15:02:34 GMT-0500 (Central Daylight Time),626927.5,A,flow,O,w,112,1,799.6000001430511,626127.899999857,7197,WL,A,2.0
5,3.3329999446868896,learn,60000.0,Mon Aug 04 2025 15:02:34 GMT-0500 (Central Daylight Time),626993.1999998093,A,flowe,O,e,59,1,865.2999999523163,626127.899999857,7197,WL,A,2.0
5,3.482999801635742,learn,60000.0,Mon Aug 04 2025 15:02:34 GMT-0500 (Central Daylight Time),627143.399999857,A,flower,O,r,141,1,1015.5,626127.899999857,7197,WL,A,2.0
5,3.8989999294281006,learn,60000.0,Mon Aug 04 2025 15:02:34 GMT-0500 (Central Daylight Time),627560.0,A,flowerenter,O,enter,395,1,1432.1000001430511,626127.899999857,7197,WL,A,2.0
5,4.416999816894531,learn,60000.0,Mon Aug 04 2025 15:02:34 GMT-0500 (Central Daylight Time),628077.5,A,t,O,t,512,1,517.3000001907349,627560.1999998093,7197,WL,A,3.0
5,4.898000001907349,learn,60000.0,Mon Aug 04 2025 15:02:34 GMT-0500 (Central Daylight Time),628558.7999999523,A,tr,O,r,469,1,998.6000001430511,627560.1999998093,7197,WL,A,3.0
5,5.082000017166138,learn,60000.0,Mon Aug 04 2025 15:02:34 GMT-0500 (Central Daylight Time),628742.6999998093,A,tra,O,a,166,1,1182.5,627560.1999998093,7197,WL,A,3.0
5,5.129999876022339,learn,60000.0,Mon Aug 04 2025 15:02:34 GMT-0500 (Central Daylight Time),628790.399999857,A,trai,O,i,37,1,1230.2000000476837,627560.1999998093,7197,WL,A,3.0
5,5.198999881744385,learn,60000.0,Mon Aug 04 2025 15:02:34 GMT-0500 (Central Daylight Time),628859.6999998093,A,train,O,n,64,1,1299.5,627560.1999998093,7197,WL,A,3.0
5,5.547999858856201,learn,60000.0,Mon Aug 04 2025 15:02:34 GMT-0500 (Central Daylight Time),629208.7999999523,A,trainenter,O,enter,335,1,1648.6000001430511,627560.1999998093,7197,WL,A,3.0
5,5.881999969482422,learn,60000.0,Mon Aug 04 2025 15:02:34 GMT-0500 (Central Daylight Time),629542.899999857,A,r,O,r,316,1,333.89999985694885,629209.0,7197,WL,A,4.0
5,6.015999794006348,learn,60000.0,Mon Aug 04 2025 15:02:34 GMT-0500 (Central Daylight Time),629676.5,A,ru,O,u,128,1,467.5,629209.0,7197,WL,A,4.0
5,6.2149999141693115,learn,60000.0,Mon Aug 04 2025 15:02:34 GMT-0500 (Central Daylight Time),629875.7999999523,A,rug,O,g,192,1,666.7999999523163,629209.0,7197,WL,A,4.0
5,6.597999811172485,learn,60000.0,Mon Aug 04 2025 15:02:34 GMT-0500 (Central Daylight Time),630258.1999998093,A,rugenter,O,enter,374,1,1049.1999998092651,629209.0,7197,WL,A,4.0
5,8.082000017166138,learn,60000.0,Mon Aug 04 2025 15:02:34 GMT-0500 (Central Daylight Time),631742.5999999046,A,b,O,b,1478,1,1484.0999999046326,630258.5,7197,WL,A,5.0
5,8.63099980354309,learn,60000.0,Mon Aug 04 2025 15:02:34 GMT-0500 (Central Daylight Time),632291.5,A,,O,backspace,536,1,2033.0,630258.5,7197,WL,A,5.0
5,8.88099980354309,learn,60000.0,Mon Aug 04 2025 15:02:34 GMT-0500 (Central Daylight Time),632542.0999999046,A,m,O,m,241,1,2283.5999999046326,630258.5,7197,WL,A,5.0
5,8.946999788284302,learn,60000.0,Mon Aug 04 2025 15:02:34 GMT-0500 (Central Daylight Time),632607.399999857,A,me,O,e,45,1,2348.899999856949,630258.5,7197,WL,A,5.0
5,9.113999843597412,learn,60000.0,Mon Aug 04 2025 15:02:34 GMT-0500 (Central Daylight Time),632774.7999999523,A,mea,O,a,157,1,2516.2999999523163,630258.5,7197,WL,A,5.0
5,9.3989999294281,learn,60000.0,Mon Aug 04 2025 15:02:34 GMT-0500 (Central Daylight Time),633059.5,A,mead,O,d,262,1,2801.0,630258.5,7197,WL,A,5.0
5,9.63099980354309,learn,60000.0,Mon Aug 04 2025 15:02:34 GMT-0500 (Central Daylight Time),633291.5,A,meado,O,o,216,1,3033.0,630258.5,7197,WL,A,5.0
5,9.797999858856201,learn,60000.0,Mon Aug 04 2025 15:02:34 GMT-0500 (Central Daylight Time),633458.399999857,A,meadow,O,w,152,1,3199.899999856949,630258.5,7197,WL,A,5.0
5,10.096999883651733,learn,60000.0,Mon Aug 04 2025 15:02:34 GMT-0500 (Central Daylight Time),633757.399999857,A,meadowenter,O,enter,282,1,3498.899999856949,630258.5,7197,WL,A,5.0
5,10.946999788284302,learn,60000.0,Mon Aug 04 2025 15:02:34 GMT-0500 (Central Daylight Time),634608.0,A,b,O,b,840,1,850.4000000953674,633757.5999999046,7197,WL,A,6.0
5,11.446999788284302,learn,60000.0,Mon Aug 04 2025 15:02:34 GMT-0500 (Central Daylight Time),635107.399999857,A,,O,backspace,493,1,1349.7999999523163,633757.5999999046,7197,WL,A,6.0
5,11.712999820709229,learn,60000.0,Mon Aug 04 2025 15:02:34 GMT-0500 (Central Daylight Time),635373.5,A,h,O,h,247,1,1615.9000000953674,633757.5999999046,7197,WL,A,6.0
5,11.813999891281128,learn,60000.0,Mon Aug 04 2025 15:02:34 GMT-0500 (Central Daylight Time),635474.5,A,ha,O,a,79,1,1716.9000000953674,633757.5999999046,7197,WL,A,6.0
5,11.961999893188477,learn,60000.0,Mon Aug 04 2025 15:02:34 GMT-0500 (Central Daylight Time),635623.0999999046,A,har,O,r,136,1,1865.5,633757.5999999046,7197,WL,A,6.0
5,12.128999948501587,learn,60000.0,Mon Aug 04 2025 15:02:34 GMT-0500 (Central Daylight Time),635789.6999998093,A,harp,O,p,149,1,2032.0999999046326,633757.5999999046,7197,WL,A,6.0
5,12.446999788284302,learn,60000.0,Mon Aug 04 2025 15:02:34 GMT-0500 (Central Daylight Time),636107.1999998093,A,harpenter,O,enter,302,1,2349.5999999046326,633757.5999999046,7197,WL,A,6.0
5,12.812999963760376,learn,60000.0,Mon Aug 04 2025 15:02:34 GMT-0500 (Central Daylight Time),636474.0,A,s,O,s,354,1,366.5,636107.5,7197,WL,A,7.0
5,12.946999788284302,learn,60000.0,Mon Aug 04 2025 15:02:34 GMT-0500 (Central Daylight Time),636607.5,A,sa,O,a,114,1,500.0,636107.5,7197,WL,A,7.0
5,13.063999891281128,learn,60000.0,Mon Aug 04 2025 15:02:34 GMT-0500 (Central Daylight Time),636724.399999857,A,sal,O,l,111,1,616.8999998569489,636107.5,7197,WL,A,7.0
5,13.111999988555908,learn,60000.0,Mon Aug 04 2025 15:02:34 GMT-0500 (Central Daylight Time),636772.1999998093,A,salk,O,k,31,1,664.6999998092651,636107.5,7197,WL,A,7.0
5,13.646999835968018,learn,60000.0,Mon Aug 04 2025 15:02:34 GMT-0500 (Central Daylight Time),637307.399999857,A,sal,O,backspace,521,1,1199.8999998569489,636107.5,7197,WL,A,7.0
5,13.744999885559082,learn,60000.0,Mon Aug 04 2025 15:02:34 GMT-0500 (Central Daylight Time),637406.0999999046,A,salt,O,t,88,1,1298.5999999046326,636107.5,7197,WL,A,7.0
5,14.013999938964844,learn,60000.0,Mon Aug 04 2025 15:02:34 GMT-0500 (Central Daylight Time),637674.5,A,saltenter,O,enter,261,1,1567.0,636107.5,7197,WL,A,7.0
5,14.628999948501587,learn,60000.0,Mon Aug 04 2025 15:02:34 GMT-0500 (Central Daylight Time),638289.1999998093,A,b,O,b,603,1,614.2999999523163,637674.899999857,7197,WL,A,8.0
5,14.829999923706055,learn,60000.0,Mon Aug 04 2025 15:02:34 GMT-0500 (Central Daylight Time),638490.1999998093,A,bu,O,u,188,1,815.2999999523163,637674.899999857,7197,WL,A,8.0
5,14.978999853134155,learn,60000.0,Mon Aug 04 2025 15:02:34 GMT-0500 (Central Daylight Time),638639.5999999046,A,but,O,t,130,1,964.7000000476837,637674.899999857,7197,WL,A,8.0
5,15.128000020980835,learn,60000.0,Mon Aug 04 2025 15:02:34 GMT-0500 (Central Daylight Time),638788.7999999523,A,butt,O,t,133,1,1113.9000000953674,637674.899999857,7197,WL,A,8.0
5,15.227999925613403,learn,60000.0,Mon Aug 04 2025 15:02:34 GMT-0500 (Central Daylight Time),638888.7999999523,A,butto,O,o,86,1,1213.9000000953674,637674.899999857,7197,WL,A,8.0
5,15.310999870300293,learn,60000.0,Mon Aug 04 2025 15:02:34 GMT-0500 (Central Daylight Time),638972.0,A,button,O,n,76,1,1297.1000001430511,637674.899999857,7197,WL,A,8.0
5,15.645999908447266,learn,60000.0,Mon Aug 04 2025 15:02:34 GMT-0500 (Central Daylight Time),639306.399999857,A,buttonenter,O,enter,327,1,1631.5,637674.899999857,7197,WL,A,8.0
5,15.944999933242798,learn,60000.0,Mon Aug 04 2025 15:02:34 GMT-0500 (Central Daylight Time),639606.0,A,g,O,g,291,1,299.30000019073486,639306.6999998093,7197,WL,A,9.0
5,16.111999988555908,learn,60000.0,Mon Aug 04 2025 15:02:34 GMT-0500 (Central Daylight Time),639772.7999999523,A,go,O,o,158,1,466.10000014305115,639306.6999998093,7197,WL,A,9.0
5,16.328999996185303,learn,60000.0,Mon Aug 04 2025 15:02:34 GMT-0500 (Central Daylight Time),639989.2999999523,A,gol,O,l,198,1,682.6000001430511,639306.6999998093,7197,WL,A,9.0
5,16.393999814987183,learn,60000.0,Mon Aug 04 2025 15:02:34 GMT-0500 (Central Daylight Time),640054.7999999523,A,gold,O,d,54,1,748.1000001430511,639306.6999998093,7197,WL,A,9.0
5,16.69599986076355,learn,60000.0,Mon Aug 04 2025 15:02:34 GMT-0500 (Central Daylight Time),640356.1999998093,A,goldenter,O,enter,297,1,1049.5,639306.6999998093,7197,WL,A,9.0
5,17.046000003814697,learn,60000.0,Mon Aug 04 2025 15:02:34 GMT-0500 (Central Daylight Time),640706.6999998093,A,h,O,h,338,1,350.19999980926514,640356.5,7197,WL,A,10.0
5,17.15999984741211,learn,60000.0,Mon Aug 04 2025 15:02:34 GMT-0500 (Central Daylight Time),640821.0,A,ha,O,a,97,1,464.5,640356.5,7197,WL,A,10.0
5,17.361999988555908,learn,60000.0,Mon Aug 04 2025 15:02:34 GMT-0500 (Central Daylight Time),641022.2999999523,A,har,O,r,181,1,665.7999999523163,640356.5,7197,WL,A,10.0
5,17.911999940872192,learn,60000.0,Mon Aug 04 2025 15:02:34 GMT-0500 (Central Daylight Time),641572.5999999046,A,harp,O,p,544,1,1216.0999999046326,640356.5,7197,WL,A,10.0
5,18.878000020980835,learn,60000.0,Mon Aug 04 2025 15:02:34 GMT-0500 (Central Daylight Time),642539.0,A,harpenter,O,enter,951,1,2182.5,640356.5,7197,WL,A,10.0
5,21.99399995803833,learn,60000.0,Mon Aug 04 2025 15:02:34 GMT-0500 (Central Daylight Time),645654.5,A,s,O,s,3097,1,3115.2000000476837,642539.2999999523,7197,WL,A,11.0
5,22.49399995803833,learn,60000.0,Mon Aug 04 2025 15:02:34 GMT-0500 (Central Daylight Time),646154.899999857,A,,O,backspace,493,1,3615.5999999046326,642539.2999999523,7197,WL,A,11.0
5,22.694000005722046,learn,60000.0,Mon Aug 04 2025 15:02:34 GMT-0500 (Central Daylight Time),646355.0,A,r,O,r,186,1,3815.7000000476837,642539.2999999523,7197,WL,A,11.0
5,22.8439998626709,learn,60000.0,Mon Aug 04 2025 15:02:34 GMT-0500 (Central Daylight Time),646504.2999999523,A,ra,O,a,136,1,3965.0,642539.2999999523,7197,WL,A,11.0
5,22.960999965667725,learn,60000.0,Mon Aug 04 2025 15:02:34 GMT-0500 (Central Daylight Time),646621.2999999523,A,rat,O,t,113,1,4082.0,642539.2999999523,7197,WL,A,11.0
5,23.108999967575073,learn,60000.0,Mon Aug 04 2025 15:02:34 GMT-0500 (Central Daylight Time),646769.6999998093,A,ratt,O,t,135,1,4230.399999856949,642539.2999999523,7197,WL,A,11.0
5,23.375999927520752,learn,60000.0,Mon Aug 04 2025 15:02:34 GMT-0500 (Central Daylight Time),647036.7999999523,A,rattl,O,l,251,1,4497.5,642539.2999999523,7197,WL,A,11.0
5,23.526999950408936,learn,60000.0,Mon Aug 04 2025 15:02:34 GMT-0500 (Central Daylight Time),647187.5,A,rattle,O,e,144,1,4648.200000047684,642539.2999999523,7197,WL,A,11.0
5,23.776000022888184,learn,60000.0,Mon Aug 04 2025 15:02:34 GMT-0500 (Central Daylight Time),647436.7999999523,A,rattleenter,O,enter,232,1,4897.5,642539.2999999523,7197,WL,A,11.0
5,27.923999786376953,learn,60000.0,Mon Aug 04 2025 15:02:34 GMT-0500 (Central Daylight Time),651584.0999999046,A,g,O,g,4126,1,4147.0,647437.0999999046,7197,WL,A,12.0
5,28.00599980354309,learn,60000.0,Mon Aug 04 2025 15:02:34 GMT-0500 (Central Daylight Time),651666.1999998093,A,go,O,o,78,1,4229.099999904633,647437.0999999046,7197,WL,A,12.0
5,28.19099998474121,learn,60000.0,Mon Aug 04 2025 15:02:34 GMT-0500 (Central Daylight Time),651851.7999999523,A,gol,O,l,172,1,4414.700000047684,647437.0999999046,7197,WL,A,12.0
5,28.307999849319458,learn,60000.0,Mon Aug 04 2025 15:02:34 GMT-0500 (Central Daylight Time),651968.1999998093,A,gold,O,d,96,1,4531.099999904633,647437.0999999046,7197,WL,A,12.0
5,28.557999849319458,learn,60000.0,Mon Aug 04 2025 15:02:34 GMT-0500 (Central Daylight Time),652218.5999999046,A,goldenter,O,enter,244,1,4781.5,647437.0999999046,7197,WL,A,12.0
5,29.223999977111816,learn,60000.0,Mon Aug 04 2025 15:02:34 GMT-0500 (Central Daylight Time),652884.899999857,A,k,O,k,650,1,666.0999999046326,652218.7999999523,7197,WL,A,13.0
5,29.37399983406067,learn,60000.0,Mon Aug 04 2025 15:02:34 GMT-0500 (Central Daylight Time),653035.0999999046,A,ke,O,e,135,1,816.2999999523163,652218.7999999523,7197,WL,A,13.0
5,29.506999969482422,learn,60000.0,Mon Aug 04 2025 15:02:34 GMT-0500 (Central Daylight Time),653167.7999999523,A,key,O,y,113,1,949.0,652218.7999999523,7197,WL,A,13.0
5,29.85699987411499,learn,60000.0,Mon Aug 04 2025 15:02:34 GMT-0500 (Central Daylight Time),653518.2999999523,A,keyenter,O,enter,340,1,1299.5,652218.7999999523,7197,WL,A,13.0
5,30.090999841690063,learn,60000.0,Mon Aug 04 2025 15:02:34 GMT-0500 (Central Daylight Time),653752.1999998093,A,a,O,a,214,1,233.59999990463257,653518.5999999046,7197,WL,A,14.0
5,30.207000017166138,learn,60000.0,Mon Aug 04 2025 15:02:34 GMT-0500 (Central Daylight Time),653867.6999998093,A,ap,O,p,100,1,349.09999990463257,653518.5999999046,7197,WL,A,14.0
5,30.35699987411499,learn,60000.0,Mon Aug 04 2025 15:02:34 GMT-0500 (Central Daylight Time),654018.0999999046,A,app,O,p,136,1,499.5,653518.5999999046,7197,WL,A,14.0
5,30.557999849319458,learn,60000.0,Mon Aug 04 2025 15:02:34 GMT-0500 (Central Daylight Time),654218.6999998093,A,appl,O,l,195,1,700.0999999046326,653518.5999999046,7197,WL,A,14.0
5,30.638999938964844,learn,60000.0,Mon Aug 04 2025 15:02:34 GMT-0500 (Central Daylight Time),654299.7999999523,A,apple,O,e,74,1,781.2000000476837,653518.5999999046,7197,WL,A,14.0
5,30.905999898910522,learn,60000.0,Mon Aug 04 2025 15:02:34 GMT-0500 (Central Daylight Time),654566.899999857,A,appleenter,O,enter,254,1,1048.2999999523163,653518.5999999046,7197,WL,A,14.0
5,36.30499982833862,learn,60000.0,Mon Aug 04 2025 15:02:34 GMT-0500 (Central Daylight Time),659966.2999999523,A,s,O,s,5390,1,5399.200000047684,654567.0999999046,7197,WL,A,15.0
5,36.43899989128113,learn,60000.0,Mon Aug 04 2025 15:02:34 GMT-0500 (Central Daylight Time),660100.2999999523,A,sa,O,a,129,1,5533.200000047684,654567.0999999046,7197,WL,A,15.0
5,36.537999868392944,learn,60000.0,Mon Aug 04 2025 15:02:34 GMT-0500 (Central Daylight Time),660198.6999998093,A,sal,O,l,86,1,5631.599999904633,654567.0999999046,7197,WL,A,15.0
5,36.605000019073486,learn,60000.0,Mon Aug 04 2025 15:02:34 GMT-0500 (Central Daylight Time),660266.0999999046,A,salk,O,k,43,1,5699.0,654567.0999999046,7197,WL,A,15.0
5,36.92199993133545,learn,60000.0,Mon Aug 04 2025 15:02:34 GMT-0500 (Central Daylight Time),660583.399999857,A,salkt,O,t,297,1,6016.299999952316,654567.0999999046,7197,WL,A,15.0
5,37.169999837875366,learn,60000.0,Mon Aug 04 2025 15:02:34 GMT-0500 (Central Daylight Time),660831.1999998093,A,salk,O,backspace,229,1,6264.099999904633,654567.0999999046,7197,WL,A,15.0
5,37.33699989318848,learn,60000.0,Mon Aug 04 2025 15:02:34 GMT-0500 (Central Daylight Time),660998.1999998093,A,sal,O,backspace,147,1,6431.099999904633,654567.0999999046,7197,WL,A,15.0
5,37.47099995613098,learn,60000.0,Mon Aug 04 2025 15:02:34 GMT-0500 (Central Daylight Time),661132.0,A,salt,O,t,128,1,6564.900000095367,654567.0999999046,7197,WL,A,15.0
5,37.68599987030029,learn,60000.0,Mon Aug 04 2025 15:02:34 GMT-0500 (Central Daylight Time),661347.5999999046,A,saltenter,O,enter,210,1,6780.5,654567.0999999046,7197,WL,A,15.0
6,1.7000000476837158,distr,58299.999952316284,Mon Aug 04 2025 15:02:34 GMT-0500 (Central Daylight Time),746304.899999857,B,b,O,b,1680,1,1699.8999998569489,744605.0,7197,WL,A,1.0
6,1.883000135421753,distr,58116.99986457825,Mon Aug 04 2025 15:02:34 GMT-0500 (Central Daylight Time),746487.899999857,B,bo,O,o,171,1,1882.8999998569489,744605.0,7197,WL,A,1.0
6,2.0340001583099365,distr,57965.99984169006,Mon Aug 04 2025 15:02:34 GMT-0500 (Central Daylight Time),746638.6999998093,B,bow,O,w,141,1,2033.6999998092651,744605.0,7197,WL,A,1.0
6,2.299999952316284,distr,57700.000047683716,Mon Aug 04 2025 15:02:34 GMT-0500 (Central Daylight Time),746904.7999999523,B,bowl,O,l,245,1,2299.7999999523163,744605.0,7197,WL,A,1.0
6,2.683000087738037,distr,57316.99991226196,Mon Aug 04 2025 15:02:34 GMT-0500 (Central Daylight Time),747287.399999857,B,bowlenter,O,enter,362,1,2682.399999856949,744605.0,7197,WL,A,1.0
6,3.25,distr,56750.0,Mon Aug 04 2025 15:02:34 GMT-0500 (Central Daylight Time),747854.7999999523,B,c,O,c,549,1,567.1000001430511,747287.6999998093,7197,WL,A,2.0
6,3.3340001106262207,distr,56665.99988937378,Mon Aug 04 2025 15:02:34 GMT-0500 (Central Daylight Time),747938.6999998093,B,co,O,o,78,1,651.0,747287.6999998093,7197,WL,A,2.0
6,3.433000087738037,distr,56566.99991226196,Mon Aug 04 2025 15:02:34 GMT-0500 (Central Daylight Time),748037.7999999523,B,cou,O,u,80,1,750.1000001430511,747287.6999998093,7197,WL,A,2.0
6,3.6660001277923584,distr,56333.99987220764,Mon Aug 04 2025 15:02:34 GMT-0500 (Central Daylight Time),748270.899999857,B,coun,O,n,212,1,983.2000000476837,747287.6999998093,7197,WL,A,2.0
6,3.8320000171661377,distr,56167.99998283386,Mon Aug 04 2025 15:02:34 GMT-0500 (Central Daylight Time),748437.0,B,count,O,t,158,1,1149.3000001907349,747287.6999998093,7197,WL,A,2.0
6,4.416000127792358,distr,55583.99987220764,Mon Aug 04 2025 15:02:34 GMT-0500 (Central Daylight Time),749020.5999999046,B,county,O,y,577,1,1732.9000000953674,747287.6999998093,7197,WL,A,2.0
6,4.853000164031982,distr,55146.99983596802,Mon Aug 04 2025 15:02:34 GMT-0500 (Central Daylight Time),749458.0,B,countyenter,O,enter,422,1,2170.300000190735,747287.6999998093,7197,WL,A,2.0
6,5.998000144958496,distr,54001.999855041504,Mon Aug 04 2025 15:02:34 GMT-0500 (Central Daylight Time),750603.0999999046,B,j,O,j,1132,1,1144.2000000476837,749458.899999857,7197,WL,A,3.0
6,6.182000160217285,distr,53817.999839782715,Mon Aug 04 2025 15:02:34 GMT-0500 (Central Daylight Time),750786.7999999523,B,ju,O,u,168,1,1327.9000000953674,749458.899999857,7197,WL,A,3.0
6,6.398000001907349,distr,53601.99999809265,Mon Aug 04 2025 15:02:34 GMT-0500 (Central Daylight Time),751003.0,B,jud,O,d,202,1,1544.1000001430511,749458.899999857,7197,WL,A,3.0
6,6.64900016784668,distr,53350.99983215332,Mon Aug 04 2025 15:02:34 GMT-0500 (Central Daylight Time),751253.7999999523,B,judg,O,g,242,1,1794.9000000953674,749458.899999857,7197,WL,A,3.0
6,6.732000112533569,distr,53267.99988746643,Mon Aug 04 2025 15:02:34 GMT-0500 (Central Daylight Time),751336.5999999046,B,judge,O,e,71,1,1877.7000000476837,749458.899999857,7197,WL,A,3.0
6,7.0980000495910645,distr,52901.999950408936,Mon Aug 04 2025 15:02:34 GMT-0500 (Central Daylight Time),751702.5,B,judgeenter,O,enter,357,1,2243.600000143051,749458.899999857,7197,WL,A,3.0
6,7.697999954223633,distr,52302.00004577637,Mon Aug 04 2025 15:02:34 GMT-0500 (Central Daylight Time),752302.899999857,B,p,O,p,583,1,600.0999999046326,751702.7999999523,7197,WL,A,4.0
6,7.832000017166138,distr,52167.99998283386,Mon Aug 04 2025 15:02:34 GMT-0500 (Central Daylight Time),752436.5999999046,B,pe,O,e,126,1,733.7999999523163,751702.7999999523,7197,WL,A,4.0
6,7.982000112533569,distr,52017.99988746643,Mon Aug 04 2025 15:02:34 GMT-0500 (Central Daylight Time),752586.6999998093,B,pea,O,a,135,1,883.8999998569489,751702.7999999523,7197,WL,A,4.0
6,8.265000104904175,distr,51734.999895095825,Mon Aug 04 2025 15:02:34 GMT-0500 (Central Daylight Time),752869.899999857,B,peac,O,c,266,1,1167.0999999046326,751702.7999999523,7197,WL,A,4.0
6,8.38100004196167,distr,51618.99995803833,Mon Aug 04 2025 15:02:34 GMT-0500 (Central Daylight Time),752985.399999857,B,peach,O,h,94,1,1282.5999999046326,751702.7999999523,7197,WL,A,4.0
6,8.730999946594238,distr,51269.00005340576,Mon Aug 04 2025 15:02:34 GMT-0500 (Central Daylight Time),753336.0999999046,B,peachenter,O,enter,329,1,1633.2999999523163,751702.7999999523,7197,WL,A,4.0
6,9.199000120162964,distr,50800.999879837036,Mon Aug 04 2025 15:02:34 GMT-0500 (Central Daylight Time),753804.0999999046,B,c,O,c,463,1,467.7999999523163,753336.2999999523,7197,WL,A,5.0
6,9.366000175476074,distr,50633.999824523926,Mon Aug 04 2025 15:02:34 GMT-0500 (Central Daylight Time),753970.5,B,ch,O,h,161,1,634.2000000476837,753336.2999999523,7197,WL,A,5.0
6,9.549000024795532,distr,50450.99997520447,Mon Aug 04 2025 15:02:34 GMT-0500 (Central Daylight Time),754153.7999999523,B,cha,O,a,175,1,817.5,753336.2999999523,7197,WL,A,5.0
6,9.914000034332275,distr,50085.999965667725,Mon Aug 04 2025 15:02:34 GMT-0500 (Central Daylight Time),754518.5999999046,B,chai,O,i,355,1,1182.2999999523163,753336.2999999523,7197,WL,A,5.0
6,10.314000129699707,distr,49685.99987030029,Mon Aug 04 2025 15:02:34 GMT-0500 (Central Daylight Time),754918.1999998093,B,chait,O,t,383,1,1581.8999998569489,753336.2999999523,7197,WL,A,5.0
6,10.549000024795532,distr,49450.99997520447,Mon Aug 04 2025 15:02:34 GMT-0500 (Central Daylight Time),755153.2999999523,B,chaitenter,O,enter,229,1,1817.0,753336.2999999523,7197,WL,A,5.0
6,11.86300015449524,distr,48136.99984550476,Mon Aug 04 2025 15:02:34 GMT-0500 (Central Daylight Time),756468.1999998093,B,c,O,c,1294,1,1314.5999999046326,755153.5999999046,7197,WL,A,6.0
6,11.980999946594238,distr,48019.00005340576,Mon Aug 04 2025 15:02:34 GMT-0500 (Central Daylight Time),756586.2999999523,B,ch,O,h,102,1,1432.7000000476837,755153.5999999046,7197,WL,A,6.0
6,12.164000034332275,distr,47835.999965667725,Mon Aug 04 2025 15:02:34 GMT-0500 (Central Daylight Time),756768.6999998093,B,cha,O,a,171,1,1615.0999999046326,755153.5999999046,7197,WL,A,6.0
6,12.364000082015991,distr,47635.99991798401,Mon Aug 04 2025 15:02:34 GMT-0500 (Central Daylight Time),756968.6999998093,B,chai,O,i,180,1,1815.0999999046326,755153.5999999046,7197,WL,A,6.0
6,12.748000144958496,distr,47251.999855041504,Mon Aug 04 2025 15:02:34 GMT-0500 (Central Daylight Time),757352.1999998093,B,chait,O,t,363,1,2198.5999999046326,755153.5999999046,7197,WL,A,6.0
6,13.064000129699707,distr,46935.99987030029,Mon Aug 04 2025 15:02:34 GMT-0500 (Central Daylight Time),757668.5,B,chaitenter,O,enter,301,1,2514.9000000953674,755153.5999999046,7197,WL,A,6.0
6,14.414000034332275,distr,45585.999965667725,Mon Aug 04 2025 15:02:34 GMT-0500 (Central Daylight Time),759018.7999999523,B,c,O,c,1346,1,1349.9000000953674,757668.899999857,7197,WL,A,7.0
6,14.52999997138977,distr,45470.00002861023,Mon Aug 04 2025 15:02:34 GMT-0500 (Central Daylight Time),759134.5,B,ch,O,h,98,1,1465.6000001430511,757668.899999857,7197,WL,A,7.0
6,15.01200008392334,distr,44987.99991607666,Mon Aug 04 2025 15:02:34 GMT-0500 (Central Daylight Time),759616.7999999523,B,cha,O,a,470,1,1947.9000000953674,757668.899999857,7197,WL,A,7.0
6,15.212000131607056,distr,44787.999868392944,Mon Aug 04 2025 15:02:34 GMT-0500 (Central Daylight Time),759816.5999999046,B,chai,O,i,187,1,2147.7000000476837,757668.899999857,7197,WL,A,7.0
6,15.380000114440918,distr,44619.99988555908,Mon Aug 04 2025 15:02:34 GMT-0500 (Central Daylight Time),759984.5,B,chair,O,r,155,1,2315.600000143051,757668.899999857,7197,WL,A,7.0
6,16.080000162124634,distr,43919.999837875366,Mon Aug 04 2025 15:02:34 GMT-0500 (Central Daylight Time),760684.1999998093,B,chairenter,O,enter,686,1,3015.2999999523163,757668.899999857,7197,WL,A,7.0
6,31.555000066757202,distr,28444.999933242798,Mon Aug 04 2025 15:02:34 GMT-0500 (Central Daylight Time),776160.2999999523,B,s,O,s,15456,1,15475.700000047684,760684.5999999046,7197,WL,A,8.0
6,31.937999963760376,distr,28062.000036239624,Mon Aug 04 2025 15:02:34 GMT-0500 (Central Daylight Time),776543.1999998093,B,se,O,e,365,1,15858.599999904633,760684.5999999046,7197,WL,A,8.0
6,32.0550000667572,distr,27944.999933242798,Mon Aug 04 2025 15:02:34 GMT-0500 (Central Daylight Time),776659.7999999523,B,see,O,e,111,1,15975.200000047684,760684.5999999046,7197,WL,A,8.0
6,32.22200012207031,distr,27777.999877929688,Mon Aug 04 2025 15:02:34 GMT-0500 (Central Daylight Time),776827.399999857,B,seed,O,d,154,1,16142.799999952316,760684.5999999046,7197,WL,A,8.0
6,32.555999994277954,distr,27444.000005722046,Mon Aug 04 2025 15:02:34 GMT-0500 (Central Daylight Time),777161.5,B,seedenter,O,enter,323,1,16476.900000095367,760684.5999999046,7197,WL,A,8.0
6,35.92300009727478,distr,24076.99990272522,Mon Aug 04 2025 15:02:34 GMT-0500 (Central Daylight Time),780527.7999999523,B,enter,O,enter,3348,1,3366.0,777161.7999999523,7197,WL,A,9.0
6,36.555999994277954,distr,23444.000005722046,Mon Aug 04 2025 15:02:34 GMT-0500 (Central Daylight Time),781161.5,B,enter,O,enter,613,1,633.4000000953674,780528.0999999046,7197,WL,A,10.0
6,38.74000000953674,distr,21259.999990463257,Mon Aug 04 2025 15:02:34 GMT-0500 (Central Daylight Time),783344.7999999523,B,enter,O,enter,2163,1,2183.0,781161.7999999523,7197,WL,A,11.0
6,38.937999963760376,distr,21062.000036239624,Mon Aug 04 2025 15:02:34 GMT-0500 (Central Daylight Time),783543.5999999046,B,enter,O,enter,179,1,198.59999990463257,783345.0,7197,WL,A,12.0
6,39.705000162124634,distr,20294.999837875366,Mon Aug 04 2025 15:02:34 GMT-0500 (Central Daylight Time),784310.0999999046,B,enter,O,enter,749,1,766.2000000476837,783543.899999857,7197,WL,A,13.0
6,39.88700008392334,distr,20112.99991607666,Mon Aug 04 2025 15:02:34 GMT-0500 (Central Daylight Time),784492.6999998093,B,enter,O,enter,176,1,182.29999995231628,784310.399999857,7197,WL,A,14.0
6,40.48699998855591,distr,19513.00001144409,Mon Aug 04 2025 15:02:34 GMT-0500 (Central Daylight Time),785092.0,B,enter,O,enter,585,1,599.0,784493.0,7197,WL,A,15.0
7,1.3980000019073486,immed,58601.99999809265,Mon Aug 04 2025 15:02:34 GMT-0500 (Central Daylight Time),798337.0,A,b,O,b,1394,1,1397.8000001907349,796939.1999998093,7197,WL,A,1.0
7,1.63100004196167,immed,58368.99995803833,Mon Aug 04 2025 15:02:34 GMT-0500 (Central Daylight Time),798569.899999857,A,bo,O,o,230,1,1630.7000000476837,796939.1999998093,7197,WL,A,1.0
7,1.815000057220459,immed,58184.99994277954,Mon Aug 04 2025 15:02:34 GMT-0500 (Central Daylight Time),798754.5,A,boo,O,o,171,1,1815.3000001907349,796939.1999998093,7197,WL,A,1.0
7,1.996999979019165,immed,58003.000020980835,Mon Aug 04 2025 15:02:34 GMT-0500 (Central Daylight Time),798936.5999999046,A,book,O,k,163,1,1997.4000000953674,796939.1999998093,7197,WL,A,1.0
7,2.63100004196167,immed,57368.99995803833,Mon Aug 04 2025 15:02:34 GMT-0500 (Central Daylight Time),799570.2999999523,A,bookenter,O,enter,631,1,2631.100000143051,796939.1999998093,7197,WL,A,1.0
7,3.1670000553131104,immed,56832.99994468689,Mon Aug 04 2025 15:02:34 GMT-0500 (Central Daylight Time),800106.1999998093,A,m,O,m,531,1,535.5,799570.6999998093,7197,WL,A,2.0
7,3.2649998664855957,immed,56735.000133514404,Mon Aug 04 2025 15:02:34 GMT-0500 (Central Daylight Time),800204.5999999046,A,me,O,e,80,1,633.9000000953674,799570.6999998093,7197,WL,A,2.0
7,3.616999864578247,immed,56383.00013542175,Mon Aug 04 2025 15:02:34 GMT-0500 (Central Daylight Time),800555.899999857,A,mea,O,a,344,1,985.2000000476837,799570.6999998093,7197,WL,A,2.0
7,3.799999952316284,immed,56200.000047683716,Mon Aug 04 2025 15:02:34 GMT-0500 (Central Daylight Time),800739.0,A,mead,O,d,176,1,1168.3000001907349,799570.6999998093,7197,WL,A,2.0
7,4.115000009536743,immed,55884.99999046326,Mon Aug 04 2025 15:02:34 GMT-0500 (Central Daylight Time),801054.2999999523,A,meado,O,o,296,1,1483.6000001430511,799570.6999998093,7197,WL,A,2.0
7,4.447999954223633,immed,55552.00004577637,Mon Aug 04 2025 15:02:34 GMT-0500 (Central Daylight Time),801387.5,A,meadow,O,w,318,1,1816.8000001907349,799570.6999998093,7197,WL,A,2.0
7,4.680999994277954,immed,55319.000005722046,Mon Aug 04 2025 15:02:34 GMT-0500 (Central Daylight Time),801620.0,A,meadowenter,O,enter,227,1,2049.300000190735,799570.6999998093,7197,WL,A,2.0
7,4.997999906539917,immed,55002.00009346008,Mon Aug 04 2025 15:02:34 GMT-0500 (Central Daylight Time),801937.0,A,t,O,t,304,1,316.7000000476837,801620.2999999523,7197,WL,A,3.0
7,5.228999853134155,immed,54771.000146865845,Mon Aug 04 2025 15:02:34 GMT-0500 (Central Daylight Time),802168.6999998093,A,tr,O,r,212,1,548.3999998569489,801620.2999999523,7197,WL,A,3.0
7,5.36299991607666,immed,54637.00008392334,Mon Aug 04 2025 15:02:34 GMT-0500 (Central Daylight Time),802301.6999998093,A,tra,O,a,123,1,681.3999998569489,801620.2999999523,7197,WL,A,3.0
7,5.395999908447266,immed,54604.000091552734,Mon Aug 04 2025 15:02:34 GMT-0500 (Central Daylight Time),802335.5999999046,A,trai,O,i,15,1,715.2999999523163,801620.2999999523,7197,WL,A,3.0
7,5.496000051498413,immed,54503.99994850159,Mon Aug 04 2025 15:02:34 GMT-0500 (Central Daylight Time),802435.1999998093,A,train,O,n,95,1,814.8999998569489,801620.2999999523,7197,WL,A,3.0
7,5.863999843597412,immed,54136.00015640259,Mon Aug 04 2025 15:02:34 GMT-0500 (Central Daylight Time),802803.399999857,A,trainenter,O,enter,361,1,1183.0999999046326,801620.2999999523,7197,WL,A,3.0
7,6.23199987411499,immed,53768.00012588501,Mon Aug 04 2025 15:02:34 GMT-0500 (Central Daylight Time),803170.899999857,A,r,O,r,363,1,367.2000000476837,802803.6999998093,7197,WL,A,4.0
7,6.3480000495910645,immed,53651.999950408936,Mon Aug 04 2025 15:02:34 GMT-0500 (Central Daylight Time),803286.899999857,A,ru,O,u,96,1,483.2000000476837,802803.6999998093,7197,WL,A,4.0
7,6.5309998989105225,immed,53469.00010108948,Mon Aug 04 2025 15:02:34 GMT-0500 (Central Daylight Time),803470.399999857,A,rug,O,g,163,1,666.7000000476837,802803.6999998093,7197,WL,A,4.0
7,6.7799999713897705,immed,53220.00002861023,Mon Aug 04 2025 15:02:34 GMT-0500 (Central Daylight Time),803719.5,A,rugenter,O,enter,228,1,915.8000001907349,802803.6999998093,7197,WL,A,4.0
7,7.346999883651733,immed,52653.00011634827,Mon Aug 04 2025 15:02:34 GMT-0500 (Central Daylight Time),804286.0,A,r,O,r,559,1,566.3000001907349,803719.6999998093,7197,WL,A,5.0
7,7.96399998664856,immed,52036.00001335144,Mon Aug 04 2025 15:02:34 GMT-0500 (Central Daylight Time),804903.0999999046,A,ra,O,a,598,1,1183.4000000953674,803719.6999998093,7197,WL,A,5.0
7,8.148000001907349,immed,51851.99999809265,Mon Aug 04 2025 15:02:34 GMT-0500 (Central Daylight Time),805086.899999857,A,rat,O,t,174,1,1367.2000000476837,803719.6999998093,7197,WL,A,5.0
7,8.282999992370605,immed,51717.000007629395,Mon Aug 04 2025 15:02:34 GMT-0500 (Central Daylight Time),805222.1999998093,A,ratt,O,t,131,1,1502.5,803719.6999998093,7197,WL,A,5.0
7,8.430999994277954,immed,51569.000005722046,Mon Aug 04 2025 15:02:34 GMT-0500 (Central Daylight Time),805370.0999999046,A,rattl,O,l,126,1,1650.4000000953674,803719.6999998093,7197,WL,A,5.0
7,8.513999938964844,immed,51486.000061035156,Mon Aug 04 2025 15:02:34 GMT-0500 (Central Daylight Time),805453.6999998093,A,rattle,O,e,72,1,1734.0,803719.6999998093,7197,WL,A,5.0
7,8.763000011444092,immed,51236.99998855591,Mon Aug 04 2025 15:02:34 GMT-0500 (Central Daylight Time),805702.1999998093,A,rattleenter,O,enter,237,1,1982.5,803719.6999998093,7197,WL,A,5.0
7,9.928999900817871,immed,50071.00009918213,Mon Aug 04 2025 15:02:34 GMT-0500 (Central Daylight Time),806868.5,A,k,O,k,1159,1,1166.0,805702.5,7197,WL,A,6.0
7,10.047999858856201,immed,49952.0001411438,Mon Aug 04 2025 15:02:34 GMT-0500 (Central Daylight Time),806987.5999999046,A,ke,O,e,111,1,1285.0999999046326,805702.5,7197,WL,A,6.0
7,10.213000059127808,immed,49786.99994087219,Mon Aug 04 2025 15:02:34 GMT-0500 (Central Daylight Time),807151.899999857,A,key,O,y,149,1,1449.3999998569489,805702.5,7197,WL,A,6.0
7,10.546000003814697,immed,49453.9999961853,Mon Aug 04 2025 15:02:34 GMT-0500 (Central Daylight Time),807485.5999999046,A,keyenter,O,enter,314,1,1783.0999999046326,805702.5,7197,WL,A,6.0
7,10.728999853134155,immed,49271.000146865845,Mon Aug 04 2025 15:02:34 GMT-0500 (Central Daylight Time),807668.399999857,A,g,O,g,176,1,182.5,807485.899999857,7197,WL,A,7.0
7,10.894999980926514,immed,49105.000019073486,Mon Aug 04 2025 15:02:34 GMT-0500 (Central Daylight Time),807833.899999857,A,go,O,o,150,1,348.0,807485.899999857,7197,WL,A,7.0
7,11.080999851226807,immed,48919.00014877319,Mon Aug 04 2025 15:02:34 GMT-0500 (Central Daylight Time),808019.7999999523,A,gol,O,l,181,1,533.9000000953674,807485.899999857,7197,WL,A,7.0
7,11.213000059127808,immed,48786.99994087219,Mon Aug 04 2025 15:02:34 GMT-0500 (Central Daylight Time),808151.899999857,A,gold,O,d,110,1,666.0,807485.899999857,7197,WL,A,7.0
7,11.51199984550476,immed,48488.00015449524,Mon Aug 04 2025 15:02:34 GMT-0500 (Central Daylight Time),808451.5,A,goldenter,O,enter,285,1,965.6000001430511,807485.899999857,7197,WL,A,7.0
7,13.944999933242798,immed,46055.0000667572,Mon Aug 04 2025 15:02:34 GMT-0500 (Central Daylight Time),810884.399999857,A,a,O,a,2417,1,2432.5999999046326,808451.7999999523,7197,WL,A,8.0
7,14.096999883651733,immed,45903.00011634827,Mon Aug 04 2025 15:02:34 GMT-0500 (Central Daylight Time),811035.6999998093,A,ap,O,p,136,1,2583.899999856949,808451.7999999523,7197,WL,A,8.0
7,14.244999885559082,immed,45755.00011444092,Mon Aug 04 2025 15:02:34 GMT-0500 (Central Daylight Time),811184.0999999046,A,app,O,p,135,1,2732.2999999523163,808451.7999999523,7197,WL,A,8.0
7,14.394999980926514,immed,45605.000019073486,Mon Aug 04 2025 15:02:34 GMT-0500 (Central Daylight Time),811333.7999999523,A,appl,O,l,140,1,2882.0,808451.7999999523,7197,WL,A,8.0
7,14.494999885559082,immed,45505.00011444092,Mon Aug 04 2025 15:02:34 GMT-0500 (Central Daylight Time),811434.6999998093,A,apple,O,e,87,1,2982.899999856949,808451.7999999523,7197,WL,A,8.0
7,14.694999933242798,immed,45305.0000667572,Mon Aug 04 2025 15:02:34 GMT-0500 (Central Daylight Time),811634.1999998093,A,appleenter,O,enter,178,1,3182.399999856949,808451.7999999523,7197,WL,A,8.0
7,14.911999940872192,immed,45088.00005912781,Mon Aug 04 2025 15:02:34 GMT-0500 (Central Daylight Time),811850.899999857,A,f,O,f,203,1,216.39999985694885,811634.5,7197,WL,A,9.0
7,15.013000011444092,immed,44986.99998855591,Mon Aug 04 2025 15:02:34 GMT-0500 (Central Daylight Time),811952.399999857,A,fi,O,i,81,1,317.89999985694885,811634.5,7197,WL,A,9.0
