block_c,block_dur,condition,countdown,datetime,endtime,list,multichar_response,project,response,response_time,session_number,start_end,starttime,subject_id,task,task_vers,trial
,,,,Thu Nov 06 2025 16:59:11 GMT-0600 (Central Standard Time),,,,O,space,754,1,,,7235,WL,C,
prac,,0,,Thu Nov 06 2025 16:59:11 GMT-0600 (Central Standard Time),,NA,b,O,b,1178,1,,,7235,WL,C,1.0
prac,,0,,Thu Nov 06 2025 16:59:11 GMT-0600 (Central Standard Time),,NA,bo,O,o,145,1,,,7235,WL,C,1.0
prac,,0,,Thu Nov 06 2025 16:59:11 GMT-0600 (Central Standard Time),,NA,boo,O,o,157,1,,,7235,WL,C,1.0
prac,,0,,Thu Nov 06 2025 16:59:11 GMT-0600 (Central Standard Time),,NA,boos,O,s,70,1,,,7235,WL,C,1.0
prac,,0,,Thu Nov 06 2025 16:59:11 GMT-0600 (Central Standard Time),,NA,boost,O,t,163,1,,,7235,WL,C,1.0
prac,,0,,Thu Nov 06 2025 16:59:11 GMT-0600 (Central Standard Time),,NA,boostenter,O,enter,1501,1,,,7235,WL,C,1.0
1,1.0490000247955322,learn,58950.99997520447,Thu Nov 06 2025 16:59:11 GMT-0600 (Central Standard Time),141734.79999999702,A,t,O,t,1037,1,1048.5999999940395,140686.20000000298,7235,WL,C,1.0
1,1.1649999618530273,learn,58835.00003814697,Thu Nov 06 2025 16:59:11 GMT-0600 (Central Standard Time),141850.29999999702,A,to,O,o,109,1,1164.0999999940395,140686.20000000298,7235,WL,C,1.0
1,1.315000057220459,learn,58684.99994277954,Thu Nov 06 2025 16:59:11 GMT-0600 (Central Standard Time),142000.59999999404,A,tow,O,w,139,1,1314.3999999910593,140686.20000000298,7235,WL,C,1.0
1,1.4830000400543213,learn,58516.99995994568,Thu Nov 06 2025 16:59:11 GMT-0600 (Central Standard Time),142168.39999999106,A,towe,O,e,156,1,1482.199999988079,140686.20000000298,7235,WL,C,1.0
1,1.5490000247955322,learn,58450.99997520447,Thu Nov 06 2025 16:59:11 GMT-0600 (Central Standard Time),142234.0,A,tower,O,r,52,1,1547.7999999970198,140686.20000000298,7235,WL,C,1.0
1,1.9160001277923584,learn,58083.99987220764,Thu Nov 06 2025 16:59:11 GMT-0600 (Central Standard Time),142601.59999999404,A,towerenter,O,enter,346,1,1915.3999999910593,140686.20000000298,7235,WL,C,1.0
1,2.2820000648498535,learn,57717.99993515015,Thu Nov 06 2025 16:59:11 GMT-0600 (Central Standard Time),142967.29999999702,A,w,O,w,355,1,365.40000000596046,142601.89999999106,7235,WL,C,2.0
1,2.3489999771118164,learn,57651.00002288818,Thu Nov 06 2025 16:59:11 GMT-0600 (Central Standard Time),143034.5,A,wh,O,h,52,1,432.6000000089407,142601.89999999106,7235,WL,C,2.0
1,2.448000192642212,learn,57551.99980735779,Thu Nov 06 2025 16:59:11 GMT-0600 (Central Standard Time),143133.70000000298,A,whi,O,i,90,1,531.8000000119209,142601.89999999106,7235,WL,C,2.0
1,2.633000135421753,learn,57366.99986457825,Thu Nov 06 2025 16:59:11 GMT-0600 (Central Standard Time),143318.20000000298,A,whie,O,e,175,1,716.3000000119209,142601.89999999106,7235,WL,C,2.0
1,2.932000160217285,learn,57067.999839782715,Thu Nov 06 2025 16:59:11 GMT-0600 (Central Standard Time),143617.70000000298,A,whi,O,backspace,285,1,1015.8000000119209,142601.89999999106,7235,WL,C,2.0
1,3.116000175476074,learn,56883.999824523926,Thu Nov 06 2025 16:59:11 GMT-0600 (Central Standard Time),143801.09999999404,A,wh,O,backspace,162,1,1199.2000000029802,142601.89999999106,7235,WL,C,2.0
1,3.249000072479248,learn,56750.99992752075,Thu Nov 06 2025 16:59:11 GMT-0600 (Central Standard Time),143934.59999999404,A,whe,O,e,125,1,1332.7000000029802,142601.89999999106,7235,WL,C,2.0
1,3.381999969482422,learn,56618.00003051758,Thu Nov 06 2025 16:59:11 GMT-0600 (Central Standard Time),144067.70000000298,A,whet,O,t,126,1,1465.800000011921,142601.89999999106,7235,WL,C,2.0
1,3.7990000247955322,learn,56200.99997520447,Thu Nov 06 2025 16:59:11 GMT-0600 (Central Standard Time),144484.0,A,whe,O,backspace,402,1,1882.1000000089407,142601.89999999106,7235,WL,C,2.0
1,4.015000104904175,learn,55984.999895095825,Thu Nov 06 2025 16:59:11 GMT-0600 (Central Standard Time),144700.20000000298,A,whea,O,a,209,1,2098.300000011921,142601.89999999106,7235,WL,C,2.0
1,4.115000009536743,learn,55884.99999046326,Thu Nov 06 2025 16:59:11 GMT-0600 (Central Standard Time),144800.09999999404,A,wheat,O,t,85,1,2198.2000000029802,142601.89999999106,7235,WL,C,2.0
1,4.565000057220459,learn,55434.99994277954,Thu Nov 06 2025 16:59:11 GMT-0600 (Central Standard Time),145249.79999999702,A,wheatenter,O,enter,444,1,2647.9000000059605,142601.89999999106,7235,WL,C,2.0
1,4.981000185012817,learn,55018.99981498718,Thu Nov 06 2025 16:59:11 GMT-0600 (Central Standard Time),145666.39999999106,A,q,O,q,402,1,416.3999999910593,145250.0,7235,WL,C,3.0
1,5.064000129699707,learn,54935.99987030029,Thu Nov 06 2025 16:59:11 GMT-0600 (Central Standard Time),145749.59999999404,A,qu,O,u,74,1,499.59999999403954,145250.0,7235,WL,C,3.0
1,5.2820000648498535,learn,54717.99993515015,Thu Nov 06 2025 16:59:11 GMT-0600 (Central Standard Time),145967.20000000298,A,que,O,e,205,1,717.2000000029802,145250.0,7235,WL,C,3.0
1,5.448000192642212,learn,54551.99980735779,Thu Nov 06 2025 16:59:11 GMT-0600 (Central Standard Time),146133.0,A,quee,O,e,150,1,883.0,145250.0,7235,WL,C,3.0
1,5.7820000648498535,learn,54217.99993515015,Thu Nov 06 2025 16:59:11 GMT-0600 (Central Standard Time),146467.09999999404,A,queen,O,n,314,1,1217.0999999940395,145250.0,7235,WL,C,3.0
1,6.21399998664856,learn,53786.00001335144,Thu Nov 06 2025 16:59:11 GMT-0600 (Central Standard Time),146899.09999999404,A,queenenter,O,enter,418,1,1649.0999999940395,145250.0,7235,WL,C,3.0
1,6.621000051498413,learn,53378.99994850159,Thu Nov 06 2025 16:59:11 GMT-0600 (Central Standard Time),147306.70000000298,A,s,O,s,385,1,407.40000000596046,146899.29999999702,7235,WL,C,4.0
1,6.797000169754028,learn,53202.99983024597,Thu Nov 06 2025 16:59:11 GMT-0600 (Central Standard Time),147482.70000000298,A,su,O,u,163,1,583.4000000059605,146899.29999999702,7235,WL,C,4.0
1,7.014000177383423,learn,52985.99982261658,Thu Nov 06 2025 16:59:11 GMT-0600 (Central Standard Time),147699.39999999106,A,sug,O,g,202,1,800.0999999940395,146899.29999999702,7235,WL,C,4.0
1,7.314000129699707,learn,52685.99987030029,Thu Nov 06 2025 16:59:11 GMT-0600 (Central Standard Time),147999.09999999404,A,sugu,O,u,282,1,1099.7999999970198,146899.29999999702,7235,WL,C,4.0
1,7.680000066757202,learn,52319.9999332428,Thu Nov 06 2025 16:59:11 GMT-0600 (Central Standard Time),148365.29999999702,A,sug,O,backspace,349,1,1466.0,146899.29999999702,7235,WL,C,4.0
1,7.764000177383423,learn,52235.99982261658,Thu Nov 06 2025 16:59:11 GMT-0600 (Central Standard Time),148449.0,A,suga,O,a,80,1,1549.7000000029802,146899.29999999702,7235,WL,C,4.0
1,7.8480000495910645,learn,52151.999950408936,Thu Nov 06 2025 16:59:11 GMT-0600 (Central Standard Time),148533.5,A,sugar,O,r,76,1,1634.2000000029802,146899.29999999702,7235,WL,C,4.0
1,8.246999979019165,learn,51753.000020980835,Thu Nov 06 2025 16:59:11 GMT-0600 (Central Standard Time),148931.79999999702,A,sugarenter,O,enter,381,1,2032.5,146899.29999999702,7235,WL,C,4.0
1,8.914000034332275,learn,51085.999965667725,Thu Nov 06 2025 16:59:11 GMT-0600 (Central Standard Time),149599.79999999702,A,h,O,h,657,1,667.5999999940395,148932.20000000298,7235,WL,C,5.0
1,9.062999963760376,learn,50937.000036239624,Thu Nov 06 2025 16:59:11 GMT-0600 (Central Standard Time),149748.39999999106,A,ho,O,o,129,1,816.1999999880791,148932.20000000298,7235,WL,C,5.0
1,9.199000120162964,learn,50800.999879837036,Thu Nov 06 2025 16:59:11 GMT-0600 (Central Standard Time),149883.89999999106,A,hom,O,m,112,1,951.6999999880791,148932.20000000298,7235,WL,C,5.0
1,9.347000122070312,learn,50652.99987792969,Thu Nov 06 2025 16:59:11 GMT-0600 (Central Standard Time),150032.5,A,home,O,e,138,1,1100.2999999970198,148932.20000000298,7235,WL,C,5.0
1,9.88100004196167,learn,50118.99995803833,Thu Nov 06 2025 16:59:11 GMT-0600 (Central Standard Time),150566.0,A,homeenter,O,enter,525,1,1633.7999999970198,148932.20000000298,7235,WL,C,5.0
1,10.513000011444092,learn,49486.99998855591,Thu Nov 06 2025 16:59:11 GMT-0600 (Central Standard Time),151198.0,A,b,O,b,623,1,631.6000000089407,150566.39999999106,7235,WL,C,6.0
1,10.61300015449524,learn,49386.99984550476,Thu Nov 06 2025 16:59:11 GMT-0600 (Central Standard Time),151298.0,A,bo,O,o,87,1,731.6000000089407,150566.39999999106,7235,WL,C,6.0
1,10.796000003814697,learn,49203.9999961853,Thu Nov 06 2025 16:59:11 GMT-0600 (Central Standard Time),151481.70000000298,A,boy,O,y,163,1,915.3000000119209,150566.39999999106,7235,WL,C,6.0
1,11.213000059127808,learn,48786.99994087219,Thu Nov 06 2025 16:59:11 GMT-0600 (Central Standard Time),151898.09999999404,A,boyenter,O,enter,411,1,1331.7000000029802,150566.39999999106,7235,WL,C,6.0
1,11.629000186920166,learn,48370.999813079834,Thu Nov 06 2025 16:59:11 GMT-0600 (Central Standard Time),152314.59999999404,A,d,O,d,396,1,416.29999999701977,151898.29999999702,7235,WL,C,7.0
1,11.713000059127808,learn,48286.99994087219,Thu Nov 06 2025 16:59:11 GMT-0600 (Central Standard Time),152398.5,A,do,O,o,73,1,500.20000000298023,151898.29999999702,7235,WL,C,7.0
1,11.861999988555908,learn,48138.00001144409,Thu Nov 06 2025 16:59:11 GMT-0600 (Central Standard Time),152547.59999999404,A,doc,O,c,143,1,649.2999999970198,151898.29999999702,7235,WL,C,7.0
1,12.279000043869019,learn,47720.99995613098,Thu Nov 06 2025 16:59:11 GMT-0600 (Central Standard Time),152964.20000000298,A,doct,O,t,410,1,1065.9000000059605,151898.29999999702,7235,WL,C,7.0
1,12.413000106811523,learn,47586.99989318848,Thu Nov 06 2025 16:59:11 GMT-0600 (Central Standard Time),153098.09999999404,A,docto,O,o,113,1,1199.7999999970198,151898.29999999702,7235,WL,C,7.0
1,12.578999996185303,learn,47421.0000038147,Thu Nov 06 2025 16:59:11 GMT-0600 (Central Standard Time),153263.79999999702,A,doctor,O,r,155,1,1365.5,151898.29999999702,7235,WL,C,7.0
1,13.045000076293945,learn,46954.999923706055,Thu Nov 06 2025 16:59:11 GMT-0600 (Central Standard Time),153730.09999999404,A,doctorenter,O,enter,462,1,1831.7999999970198,151898.29999999702,7235,WL,C,7.0
1,13.397000074386597,learn,46602.9999256134,Thu Nov 06 2025 16:59:11 GMT-0600 (Central Standard Time),154081.89999999106,A,c,O,c,339,1,351.5,153730.39999999106,7235,WL,C,8.0
1,13.562000036239624,learn,46437.999963760376,Thu Nov 06 2025 16:59:11 GMT-0600 (Central Standard Time),154247.0,A,ca,O,a,146,1,516.6000000089407,153730.39999999106,7235,WL,C,8.0
1,13.67799997329712,learn,46322.00002670288,Thu Nov 06 2025 16:59:11 GMT-0600 (Central Standard Time),154363.29999999702,A,cam,O,m,101,1,632.9000000059605,153730.39999999106,7235,WL,C,8.0
1,14.01200008392334,learn,45987.99991607666,Thu Nov 06 2025 16:59:11 GMT-0600 (Central Standard Time),154697.0,A,camp,O,p,322,1,966.6000000089407,153730.39999999106,7235,WL,C,8.0
1,14.57800006866455,learn,45421.99993133545,Thu Nov 06 2025 16:59:11 GMT-0600 (Central Standard Time),155263.09999999404,A,campenter,O,enter,554,1,1532.7000000029802,153730.39999999106,7235,WL,C,8.0
1,15.361000061035156,learn,44638.999938964844,Thu Nov 06 2025 16:59:11 GMT-0600 (Central Standard Time),156046.29999999702,A,n,O,n,765,1,783.0,155263.29999999702,7235,WL,C,9.0
1,15.511000156402588,learn,44488.99984359741,Thu Nov 06 2025 16:59:11 GMT-0600 (Central Standard Time),156196.5,A,na,O,a,135,1,933.2000000029802,155263.29999999702,7235,WL,C,9.0
1,15.628000020980835,learn,44371.999979019165,Thu Nov 06 2025 16:59:11 GMT-0600 (Central Standard Time),156313.70000000298,A,nai,O,i,97,1,1050.4000000059605,155263.29999999702,7235,WL,C,9.0
1,15.794000148773193,learn,44205.99985122681,Thu Nov 06 2025 16:59:11 GMT-0600 (Central Standard Time),156479.09999999404,A,nail,O,l,155,1,1215.7999999970198,155263.29999999702,7235,WL,C,9.0
1,17.195000171661377,learn,42804.99982833862,Thu Nov 06 2025 16:59:11 GMT-0600 (Central Standard Time),157880.0,A,nailenter,O,enter,1383,1,2616.7000000029802,155263.29999999702,7235,WL,C,9.0
1,20.027000188827515,learn,39972.999811172485,Thu Nov 06 2025 16:59:11 GMT-0600 (Central Standard Time),160712.70000000298,A,o,O,o,2821,1,2832.4000000059605,157880.29999999702,7235,WL,C,10.0
1,20.81000018119812,learn,39189.99981880188,Thu Nov 06 2025 16:59:11 GMT-0600 (Central Standard Time),161495.20000000298,A,oc,O,c,772,1,3614.9000000059605,157880.29999999702,7235,WL,C,10.0
1,21.093000173568726,learn,38906.999826431274,Thu Nov 06 2025 16:59:11 GMT-0600 (Central Standard Time),161778.20000000298,A,oce,O,e,266,1,3897.9000000059605,157880.29999999702,7235,WL,C,10.0
1,21.259000062942505,learn,38740.999937057495,Thu Nov 06 2025 16:59:11 GMT-0600 (Central Standard Time),161944.5,A,ocea,O,a,162,1,4064.2000000029802,157880.29999999702,7235,WL,C,10.0
1,21.37600016593933,learn,38623.99983406067,Thu Nov 06 2025 16:59:11 GMT-0600 (Central Standard Time),162061.79999999702,A,ocean,O,n,109,1,4181.5,157880.29999999702,7235,WL,C,10.0
1,21.742000102996826,learn,38257.999897003174,Thu Nov 06 2025 16:59:11 GMT-0600 (Central Standard Time),162427.20000000298,A,oceanenter,O,enter,359,1,4546.9000000059605,157880.29999999702,7235,WL,C,10.0
1,26.742000102996826,learn,33257.999897003174,Thu Nov 06 2025 16:59:11 GMT-0600 (Central Standard Time),167427.0,A,b,O,b,4995,1,4999.5,162427.5,7235,WL,C,11.0
1,26.824000120162964,learn,33175.999879837036,Thu Nov 06 2025 16:59:11 GMT-0600 (Central Standard Time),167509.5,A,bo,O,o,75,1,5082.0,162427.5,7235,WL,C,11.0
1,27.174000024795532,learn,32825.99997520447,Thu Nov 06 2025 16:59:11 GMT-0600 (Central Standard Time),167858.79999999702,A,bod,O,d,343,1,5431.29999999702,162427.5,7235,WL,C,11.0
1,27.29100012779236,learn,32708.99987220764,Thu Nov 06 2025 16:59:11 GMT-0600 (Central Standard Time),167975.70000000298,A,body,O,y,98,1,5548.20000000298,162427.5,7235,WL,C,11.0
1,28.258000135421753,learn,31741.999864578247,Thu Nov 06 2025 16:59:11 GMT-0600 (Central Standard Time),168942.89999999106,A,bodyenter,O,enter,957,1,6515.399999991059,162427.5,7235,WL,C,11.0
1,29.674000024795532,learn,30325.999975204468,Thu Nov 06 2025 16:59:11 GMT-0600 (Central Standard Time),170359.70000000298,A,c,O,c,1399,1,1416.6000000089407,168943.09999999404,7235,WL,C,12.0
1,29.901000022888184,learn,30098.999977111816,Thu Nov 06 2025 16:59:11 GMT-0600 (Central Standard Time),170586.20000000298,A,cr,O,r,222,1,1643.1000000089407,168943.09999999404,7235,WL,C,12.0
1,30.064000129699707,learn,29935.999870300293,Thu Nov 06 2025 16:59:11 GMT-0600 (Central Standard Time),170748.70000000298,A,cre,O,e,145,1,1805.6000000089407,168943.09999999404,7235,WL,C,12.0
1,30.223999977111816,learn,29776.000022888184,Thu Nov 06 2025 16:59:11 GMT-0600 (Central Standard Time),170908.79999999702,A,crea,O,a,144,1,1965.7000000029802,168943.09999999404,7235,WL,C,12.0
1,30.35700011253357,learn,29642.99988746643,Thu Nov 06 2025 16:59:11 GMT-0600 (Central Standard Time),171042.0,A,cream,O,m,129,1,2098.9000000059605,168943.09999999404,7235,WL,C,12.0
1,31.59000015258789,learn,28409.99984741211,Thu Nov 06 2025 16:59:11 GMT-0600 (Central Standard Time),172275.70000000298,A,creamenter,O,enter,1220,1,3332.6000000089407,168943.09999999404,7235,WL,C,12.0
1,33.105000019073486,learn,26894.999980926514,Thu Nov 06 2025 16:59:11 GMT-0600 (Central Standard Time),173790.39999999106,A,enter,O,enter,1506,1,1514.5,172275.89999999106,7235,WL,C,13.0
1,33.40499997138977,learn,26595.00002861023,Thu Nov 06 2025 16:59:11 GMT-0600 (Central Standard Time),174090.39999999106,A,enter,O,enter,286,1,299.79999999701977,173790.59999999404,7235,WL,C,14.0
1,33.77400016784668,learn,26225.99983215332,Thu Nov 06 2025 16:59:11 GMT-0600 (Central Standard Time),174459.0,A,enter,O,enter,355,1,368.40000000596046,174090.59999999404,7235,WL,C,15.0
2,0.7999999523162842,learn,59200.000047683716,Thu Nov 06 2025 16:59:11 GMT-0600 (Central Standard Time),247267.79999999702,A,t,O,t,793,1,800.0999999940395,246467.70000000298,7235,WL,C,1.0
2,0.8829998970031738,learn,59117.000102996826,Thu Nov 06 2025 16:59:11 GMT-0600 (Central Standard Time),247350.39999999106,A,to,O,o,65,1,882.6999999880791,246467.70000000298,7235,WL,C,1.0
2,1.0499999523162842,learn,58950.000047683716,Thu Nov 06 2025 16:59:11 GMT-0600 (Central Standard Time),247517.39999999106,A,tow,O,w,151,1,1049.699999988079,246467.70000000298,7235,WL,C,1.0
2,1.182999849319458,learn,58817.00015068054,Thu Nov 06 2025 16:59:11 GMT-0600 (Central Standard Time),247650.39999999106,A,towe,O,e,129,1,1182.699999988079,246467.70000000298,7235,WL,C,1.0
2,1.2829999923706055,learn,58717.000007629395,Thu Nov 06 2025 16:59:11 GMT-0600 (Central Standard Time),247750.5,A,tower,O,r,84,1,1282.7999999970198,246467.70000000298,7235,WL,C,1.0
2,1.815999984741211,learn,58184.00001525879,Thu Nov 06 2025 16:59:11 GMT-0600 (Central Standard Time),248283.79999999702,A,towerenter,O,enter,519,1,1816.0999999940395,246467.70000000298,7235,WL,C,1.0
2,2.2990000247955322,learn,57700.99997520447,Thu Nov 06 2025 16:59:11 GMT-0600 (Central Standard Time),248767.0,A,w,O,w,464,1,483.0,248284.0,7235,WL,C,2.0
2,2.3489999771118164,learn,57651.00002288818,Thu Nov 06 2025 16:59:11 GMT-0600 (Central Standard Time),248816.79999999702,A,wh,O,h,37,1,532.7999999970198,248284.0,7235,WL,C,2.0
2,2.5829999446868896,learn,57417.00005531311,Thu Nov 06 2025 16:59:11 GMT-0600 (Central Standard Time),249050.39999999106,A,whe,O,e,221,1,766.3999999910593,248284.0,7235,WL,C,2.0
2,2.748999834060669,learn,57251.00016593933,Thu Nov 06 2025 16:59:11 GMT-0600 (Central Standard Time),249216.70000000298,A,whee,O,e,154,1,932.7000000029802,248284.0,7235,WL,C,2.0
2,2.9149999618530273,learn,57085.00003814697,Thu Nov 06 2025 16:59:11 GMT-0600 (Central Standard Time),249383.0,A,wheet,O,t,155,1,1099.0,248284.0,7235,WL,C,2.0
2,3.2829999923706055,learn,56717.000007629395,Thu Nov 06 2025 16:59:11 GMT-0600 (Central Standard Time),249750.89999999106,A,whee,O,backspace,358,1,1466.8999999910593,248284.0,7235,WL,C,2.0
2,3.4819998741149902,learn,56518.00012588501,Thu Nov 06 2025 16:59:11 GMT-0600 (Central Standard Time),249950.09999999404,A,whe,O,backspace,188,1,1666.0999999940395,248284.0,7235,WL,C,2.0
2,3.631999969482422,learn,56368.00003051758,Thu Nov 06 2025 16:59:11 GMT-0600 (Central Standard Time),250100.09999999404,A,whea,O,a,135,1,1816.0999999940395,248284.0,7235,WL,C,2.0
2,3.7319998741149902,learn,56268.00012588501,Thu Nov 06 2025 16:59:11 GMT-0600 (Central Standard Time),250199.79999999702,A,wheat,O,t,85,1,1915.7999999970198,248284.0,7235,WL,C,2.0
2,4.099999904632568,learn,55900.00009536743,Thu Nov 06 2025 16:59:11 GMT-0600 (Central Standard Time),250567.39999999106,A,wheatenter,O,enter,348,1,2283.3999999910593,248284.0,7235,WL,C,2.0
2,4.815000057220459,learn,55184.99994277954,Thu Nov 06 2025 16:59:11 GMT-0600 (Central Standard Time),251282.70000000298,A,q,O,q,702,1,715.0,250567.70000000298,7235,WL,C,3.0
2,4.898000001907349,learn,55101.99999809265,Thu Nov 06 2025 16:59:11 GMT-0600 (Central Standard Time),251366.09999999404,A,qu,O,u,73,1,798.3999999910593,250567.70000000298,7235,WL,C,3.0
2,5.332000017166138,learn,54667.99998283386,Thu Nov 06 2025 16:59:11 GMT-0600 (Central Standard Time),251799.5,A,que,O,e,422,1,1231.7999999970198,250567.70000000298,7235,WL,C,3.0
2,5.480999946594238,learn,54519.00005340576,Thu Nov 06 2025 16:59:11 GMT-0600 (Central Standard Time),251949.0,A,quee,O,e,143,1,1381.2999999970198,250567.70000000298,7235,WL,C,3.0
2,5.565000057220459,learn,54434.99994277954,Thu Nov 06 2025 16:59:11 GMT-0600 (Central Standard Time),252032.89999999106,A,queen,O,n,72,1,1465.199999988079,250567.70000000298,7235,WL,C,3.0
2,6.748999834060669,learn,53251.00016593933,Thu Nov 06 2025 16:59:11 GMT-0600 (Central Standard Time),253216.39999999106,A,queenenter,O,enter,1164,1,2648.699999988079,250567.70000000298,7235,WL,C,3.0
2,8.996999979019165,learn,51003.000020980835,Thu Nov 06 2025 16:59:11 GMT-0600 (Central Standard Time),255465.29999999702,A,s,O,s,2245,1,2248.7999999970198,253216.5,7235,WL,C,4.0
2,10.396999835968018,learn,49603.00016403198,Thu Nov 06 2025 16:59:11 GMT-0600 (Central Standard Time),256865.20000000298,A,su,O,u,1388,1,3648.7000000029802,253216.5,7235,WL,C,4.0
2,10.914000034332275,learn,49085.999965667725,Thu Nov 06 2025 16:59:11 GMT-0600 (Central Standard Time),257382.0,A,sug,O,g,506,1,4165.5,253216.5,7235,WL,C,4.0
2,11.19599986076355,learn,48804.00013923645,Thu Nov 06 2025 16:59:11 GMT-0600 (Central Standard Time),257664.29999999702,A,suga,O,a,262,1,4447.79999999702,253216.5,7235,WL,C,4.0
2,11.27999997138977,learn,48720.00002861023,Thu Nov 06 2025 16:59:11 GMT-0600 (Central Standard Time),257747.79999999702,A,sugar,O,r,78,1,4531.29999999702,253216.5,7235,WL,C,4.0
2,12.129999876022339,learn,47870.00012397766,Thu Nov 06 2025 16:59:11 GMT-0600 (Central Standard Time),258598.09999999404,A,sugarenter,O,enter,842,1,5381.5999999940395,253216.5,7235,WL,C,4.0
2,12.628999948501587,learn,47371.00005149841,Thu Nov 06 2025 16:59:11 GMT-0600 (Central Standard Time),259096.70000000298,A,c,O,c,494,1,498.40000000596046,258598.29999999702,7235,WL,C,5.0
2,12.812999963760376,learn,47187.000036239624,Thu Nov 06 2025 16:59:11 GMT-0600 (Central Standard Time),259281.0,A,ca,O,a,173,1,682.7000000029802,258598.29999999702,7235,WL,C,5.0
2,12.895999908447266,learn,47104.000091552734,Thu Nov 06 2025 16:59:11 GMT-0600 (Central Standard Time),259363.5,A,cam,O,m,76,1,765.2000000029802,258598.29999999702,7235,WL,C,5.0
2,13.095999956130981,learn,46904.00004386902,Thu Nov 06 2025 16:59:11 GMT-0600 (Central Standard Time),259563.59999999404,A,camp,O,p,186,1,965.2999999970198,258598.29999999702,7235,WL,C,5.0
2,13.680999994277954,learn,46319.000005722046,Thu Nov 06 2025 16:59:11 GMT-0600 (Central Standard Time),260148.5,A,campenter,O,enter,564,1,1550.2000000029802,258598.29999999702,7235,WL,C,5.0
2,14.162999868392944,learn,45837.000131607056,Thu Nov 06 2025 16:59:11 GMT-0600 (Central Standard Time),260631.09999999404,A,f,O,f,464,1,482.29999999701977,260148.79999999702,7235,WL,C,6.0
2,14.263000011444092,learn,45736.99998855591,Thu Nov 06 2025 16:59:11 GMT-0600 (Central Standard Time),260730.29999999702,A,fl,O,l,86,1,581.5,260148.79999999702,7235,WL,C,6.0
2,14.378000020980835,learn,45621.999979019165,Thu Nov 06 2025 16:59:11 GMT-0600 (Central Standard Time),260846.29999999702,A,fla,O,a,98,1,697.5,260148.79999999702,7235,WL,C,6.0
2,14.578999996185303,learn,45421.0000038147,Thu Nov 06 2025 16:59:11 GMT-0600 (Central Standard Time),261046.29999999702,A,flag,O,g,191,1,897.5,260148.79999999702,7235,WL,C,6.0
2,14.978999853134155,learn,45021.000146865845,Thu Nov 06 2025 16:59:11 GMT-0600 (Central Standard Time),261446.5,A,flagenter,O,enter,391,1,1297.7000000029802,260148.79999999702,7235,WL,C,6.0
2,16.812999963760376,learn,43187.000036239624,Thu Nov 06 2025 16:59:11 GMT-0600 (Central Standard Time),263280.5,A,c,O,c,1830,1,1833.7000000029802,261446.79999999702,7235,WL,C,7.0
2,17.210999965667725,learn,42789.000034332275,Thu Nov 06 2025 16:59:11 GMT-0600 (Central Standard Time),263678.700000003,A,ca,O,a,380,1,2231.9000000059605,261446.79999999702,7235,WL,C,7.0
2,17.41100001335144,learn,42588.99998664856,Thu Nov 06 2025 16:59:11 GMT-0600 (Central Standard Time),263878.700000003,A,cat,O,t,181,1,2431.9000000059605,261446.79999999702,7235,WL,C,7.0
2,17.57799983024597,learn,42422.00016975403,Thu Nov 06 2025 16:59:11 GMT-0600 (Central Standard Time),264045.89999999106,A,catt,O,t,159,1,2599.0999999940395,261446.79999999702,7235,WL,C,7.0
2,17.710999965667725,learn,42289.000034332275,Thu Nov 06 2025 16:59:11 GMT-0600 (Central Standard Time),264179.09999999404,A,cattl,O,l,125,1,2732.2999999970198,261446.79999999702,7235,WL,C,7.0
2,17.861000061035156,learn,42138.999938964844,Thu Nov 06 2025 16:59:11 GMT-0600 (Central Standard Time),264328.89999999106,A,cattle,O,e,146,1,2882.0999999940395,261446.79999999702,7235,WL,C,7.0
2,18.128999948501587,learn,41871.00005149841,Thu Nov 06 2025 16:59:11 GMT-0600 (Central Standard Time),264596.5,A,cattleenter,O,enter,253,1,3149.7000000029802,261446.79999999702,7235,WL,C,7.0
2,18.89400005340576,learn,41105.99994659424,Thu Nov 06 2025 16:59:11 GMT-0600 (Central Standard Time),265361.5,A,s,O,s,752,1,764.7000000029802,264596.799999997,7235,WL,C,8.0
2,19.01099991798401,learn,40989.00008201599,Thu Nov 06 2025 16:59:11 GMT-0600 (Central Standard Time),265479.09999999404,A,sh,O,h,107,1,882.2999999970198,264596.799999997,7235,WL,C,8.0
2,19.14299988746643,learn,40857.00011253357,Thu Nov 06 2025 16:59:11 GMT-0600 (Central Standard Time),265610.799999997,A,sho,O,o,118,1,1014.0,264596.799999997,7235,WL,C,8.0
2,19.276999950408936,learn,40723.000049591064,Thu Nov 06 2025 16:59:11 GMT-0600 (Central Standard Time),265744.5,A,shor,O,r,130,1,1147.7000000029802,264596.799999997,7235,WL,C,8.0
2,19.41100001335144,learn,40588.99998664856,Thu Nov 06 2025 16:59:11 GMT-0600 (Central Standard Time),265878.5,A,shore,O,e,116,1,1281.7000000029802,264596.799999997,7235,WL,C,8.0
2,20.993000030517578,learn,39006.99996948242,Thu Nov 06 2025 16:59:11 GMT-0600 (Central Standard Time),267460.5,A,shoreenter,O,enter,1574,1,2863.7000000029802,264596.799999997,7235,WL,C,8.0
2,22.075999975204468,learn,37924.00002479553,Thu Nov 06 2025 16:59:11 GMT-0600 (Central Standard Time),268543.59999999404,A,d,O,d,1064,1,1082.8999999910593,267460.700000003,7235,WL,C,9.0
2,22.259999990463257,learn,37740.00000953674,Thu Nov 06 2025 16:59:11 GMT-0600 (Central Standard Time),268727.59999999404,A,do,O,o,165,1,1266.8999999910593,267460.700000003,7235,WL,C,9.0
2,22.776000022888184,learn,37223.99997711182,Thu Nov 06 2025 16:59:11 GMT-0600 (Central Standard Time),269243.5,A,doc,O,c,501,1,1782.7999999970198,267460.700000003,7235,WL,C,9.0
2,22.991999864578247,learn,37008.00013542175,Thu Nov 06 2025 16:59:11 GMT-0600 (Central Standard Time),269459.799999997,A,doct,O,t,210,1,1999.0999999940395,267460.700000003,7235,WL,C,9.0
2,23.108999967575073,learn,36891.00003242493,Thu Nov 06 2025 16:59:11 GMT-0600 (Central Standard Time),269576.799999997,A,docto,O,o,106,1,2116.0999999940395,267460.700000003,7235,WL,C,9.0
2,23.20899987220764,learn,36791.00012779236,Thu Nov 06 2025 16:59:11 GMT-0600 (Central Standard Time),269677.09999999404,A,doctor,O,r,85,1,2216.3999999910593,267460.700000003,7235,WL,C,9.0
2,23.942999839782715,learn,36057.000160217285,Thu Nov 06 2025 16:59:11 GMT-0600 (Central Standard Time),270410.39999999106,A,doctorenter,O,enter,729,1,2949.699999988079,267460.700000003,7235,WL,C,9.0
2,24.80900001525879,learn,35190.99998474121,Thu Nov 06 2025 16:59:11 GMT-0600 (Central Standard Time),271276.299999997,A,n,O,n,850,1,865.7000000029802,270410.59999999404,7235,WL,C,10.0
2,24.924999952316284,learn,35075.000047683716,Thu Nov 06 2025 16:59:11 GMT-0600 (Central Standard Time),271393.09999999404,A,na,O,a,104,1,982.5,270410.59999999404,7235,WL,C,10.0
2,25.043999910354614,learn,34956.000089645386,Thu Nov 06 2025 16:59:11 GMT-0600 (Central Standard Time),271511.59999999404,A,nai,O,i,101,1,1101.0,270410.59999999404,7235,WL,C,10.0
2,25.241999864578247,learn,34758.00013542175,Thu Nov 06 2025 16:59:11 GMT-0600 (Central Standard Time),271709.5,A,nail,O,l,180,1,1298.9000000059605,270410.59999999404,7235,WL,C,10.0
2,25.741999864578247,learn,34258.00013542175,Thu Nov 06 2025 16:59:11 GMT-0600 (Central Standard Time),272210.09999999404,A,nailenter,O,enter,496,1,1799.5,270410.59999999404,7235,WL,C,10.0
2,26.441999912261963,learn,33558.00008773804,Thu Nov 06 2025 16:59:11 GMT-0600 (Central Standard Time),272909.700000003,A,b,O,b,682,1,699.5,272210.200000003,7235,WL,C,11.0
2,26.625,learn,33375.0,Thu Nov 06 2025 16:59:11 GMT-0600 (Central Standard Time),273092.799999997,A,bo,O,o,168,1,882.5999999940395,272210.200000003,7235,WL,C,11.0
2,26.79099988937378,learn,33209.00011062622,Thu Nov 06 2025 16:59:11 GMT-0600 (Central Standard Time),273259.200000003,A,bod,O,d,152,1,1049.0,272210.200000003,7235,WL,C,11.0
2,26.95799994468689,learn,33042.00005531311,Thu Nov 06 2025 16:59:11 GMT-0600 (Central Standard Time),273425.39999999106,A,body,O,y,162,1,1215.199999988079,272210.200000003,7235,WL,C,11.0
2,29.04099988937378,learn,30959.00011062622,Thu Nov 06 2025 16:59:11 GMT-0600 (Central Standard Time),275509.200000003,A,bodyenter,O,enter,2069,1,3299.0,272210.200000003,7235,WL,C,11.0
2,31.039999961853027,learn,28960.000038146973,Thu Nov 06 2025 16:59:11 GMT-0600 (Central Standard Time),277508.0,A,c,O,c,1985,1,1998.5,275509.5,7235,WL,C,12.0
2,31.60699987411499,learn,28393.00012588501,Thu Nov 06 2025 16:59:11 GMT-0600 (Central Standard Time),278075.09999999404,A,ca,O,a,561,1,2565.5999999940395,275509.5,7235,WL,C,12.0
2,31.723000049591064,learn,28276.999950408936,Thu Nov 06 2025 16:59:11 GMT-0600 (Central Standard Time),278191.09999999404,A,cam,O,m,99,1,2681.5999999940395,275509.5,7235,WL,C,12.0
2,31.907999992370605,learn,28092.000007629395,Thu Nov 06 2025 16:59:11 GMT-0600 (Central Standard Time),278376.09999999404,A,camp,O,p,166,1,2866.5999999940395,275509.5,7235,WL,C,12.0
2,32.371999979019165,learn,27628.000020980835,Thu Nov 06 2025 16:59:11 GMT-0600 (Central Standard Time),278840.09999999404,A,campenter,O,enter,442,1,3330.5999999940395,275509.5,7235,WL,C,12.0
2,32.87299990653992,learn,27127.000093460083,Thu Nov 06 2025 16:59:11 GMT-0600 (Central Standard Time),279340.59999999404,A,f,O,f,486,1,500.29999999701977,278840.299999997,7235,WL,C,13.0
2,32.99000000953674,learn,27009.999990463257,Thu Nov 06 2025 16:59:11 GMT-0600 (Central Standard Time),279457.89999999106,A,fl,O,l,105,1,617.5999999940395,278840.299999997,7235,WL,C,13.0
2,33.08999991416931,learn,26910.00008583069,Thu Nov 06 2025 16:59:11 GMT-0600 (Central Standard Time),279557.39999999106,A,fla,O,a,92,1,717.0999999940395,278840.299999997,7235,WL,C,13.0
2,33.35599994659424,learn,26644.00005340576,Thu Nov 06 2025 16:59:11 GMT-0600 (Central Standard Time),279823.799999997,A,flag,O,g,255,1,983.5,278840.299999997,7235,WL,C,13.0
2,33.69000005722046,learn,26309.99994277954,Thu Nov 06 2025 16:59:11 GMT-0600 (Central Standard Time),280157.39999999106,A,flagenter,O,enter,318,1,1317.0999999940395,278840.299999997,7235,WL,C,13.0
2,38.48799991607666,learn,21512.00008392334,Thu Nov 06 2025 16:59:11 GMT-0600 (Central Standard Time),284955.89999999106,A,n,O,n,4791,1,4798.199999988079,280157.700000003,7235,WL,C,14.0
2,38.704999923706055,learn,21295.000076293945,Thu Nov 06 2025 16:59:11 GMT-0600 (Central Standard Time),285172.700000003,A,na,O,a,201,1,5015.0,280157.700000003,7235,WL,C,14.0
2,38.77199983596802,learn,21228.000164031982,Thu Nov 06 2025 16:59:11 GMT-0600 (Central Standard Time),285239.299999997,A,nai,O,i,47,1,5081.5999999940395,280157.700000003,7235,WL,C,14.0
2,38.97199988365173,learn,21028.000116348267,Thu Nov 06 2025 16:59:11 GMT-0600 (Central Standard Time),285439.39999999106,A,nail,O,l,182,1,5281.699999988079,280157.700000003,7235,WL,C,14.0
2,39.50399994850159,learn,20496.000051498413,Thu Nov 06 2025 16:59:11 GMT-0600 (Central Standard Time),285971.59999999404,A,nailenter,O,enter,526,1,5813.899999991059,280157.700000003,7235,WL,C,14.0
2,44.418999910354614,learn,15581.000089645386,Thu Nov 06 2025 16:59:11 GMT-0600 (Central Standard Time),290887.0,A,c,O,c,4906,1,4915.0,285972.0,7235,WL,C,15.0
2,44.519999980926514,learn,15480.000019073486,Thu Nov 06 2025 16:59:11 GMT-0600 (Central Standard Time),290987.5,A,co,O,o,96,1,5015.5,285972.0,7235,WL,C,15.0
2,44.68599987030029,learn,15314.000129699707,Thu Nov 06 2025 16:59:11 GMT-0600 (Central Standard Time),291153.89999999106,A,cor,O,r,152,1,5181.899999991059,285972.0,7235,WL,C,15.0
2,44.769999980926514,learn,15230.000019073486,Thu Nov 06 2025 16:59:11 GMT-0600 (Central Standard Time),291237.299999997,A,corn,O,n,74,1,5265.29999999702,285972.0,7235,WL,C,15.0
2,45.18599987030029,learn,14814.000129699707,Thu Nov 06 2025 16:59:11 GMT-0600 (Central Standard Time),291654.09999999404,A,cornenter,O,enter,409,1,5682.0999999940395,285972.0,7235,WL,C,15.0
3,1.1499998569488525,learn,58850.00014305115,Thu Nov 06 2025 16:59:11 GMT-0600 (Central Standard Time),360264.59999999404,A,t,O,t,1145,1,1150.2999999970198,359114.299999997,7235,WL,C,1.0
3,1.2170000076293945,learn,58782.999992370605,Thu Nov 06 2025 16:59:11 GMT-0600 (Central Standard Time),360331.200000003,A,to,O,o,61,1,1216.9000000059605,359114.299999997,7235,WL,C,1.0
3,1.4010000228881836,learn,58598.99997711182,Thu Nov 06 2025 16:59:11 GMT-0600 (Central Standard Time),360514.799999997,A,tow,O,w,176,1,1400.5,359114.299999997,7235,WL,C,1.0
3,1.5839998722076416,learn,58416.00012779236,Thu Nov 06 2025 16:59:11 GMT-0600 (Central Standard Time),360698.5,A,towe,O,e,170,1,1584.2000000029802,359114.299999997,7235,WL,C,1.0
3,1.6499998569488525,learn,58350.00014305115,Thu Nov 06 2025 16:59:11 GMT-0600 (Central Standard Time),360764.59999999404,A,tower,O,r,51,1,1650.2999999970198,359114.299999997,7235,WL,C,1.0
3,2.0329999923706055,learn,57967.000007629395,Thu Nov 06 2025 16:59:11 GMT-0600 (Central Standard Time),361147.39999999106,A,towerenter,O,enter,369,1,2033.0999999940395,359114.299999997,7235,WL,C,1.0
3,2.3869998455047607,learn,57613.00015449524,Thu Nov 06 2025 16:59:11 GMT-0600 (Central Standard Time),361501.0,A,w,O,w,345,1,353.5,361147.5,7235,WL,C,2.0
3,2.4670000076293945,learn,57532.999992370605,Thu Nov 06 2025 16:59:11 GMT-0600 (Central Standard Time),361581.200000003,A,wh,O,h,64,1,433.70000000298023,361147.5,7235,WL,C,2.0
3,2.816999912261963,learn,57183.00008773804,Thu Nov 06 2025 16:59:11 GMT-0600 (Central Standard Time),361931.0,A,whe,O,e,334,1,783.5,361147.5,7235,WL,C,2.0
3,2.9839999675750732,learn,57016.00003242493,Thu Nov 06 2025 16:59:11 GMT-0600 (Central Standard Time),362098.299999997,A,whea,O,a,162,1,950.7999999970198,361147.5,7235,WL,C,2.0
3,3.065999984741211,learn,56934.00001525879,Thu Nov 06 2025 16:59:11 GMT-0600 (Central Standard Time),362180.700000003,A,wheat,O,t,68,1,1033.2000000029802,361147.5,7235,WL,C,2.0
3,3.382999897003174,learn,56617.000102996826,Thu Nov 06 2025 16:59:11 GMT-0600 (Central Standard Time),362497.5,A,wheatenter,O,enter,312,1,1350.0,361147.5,7235,WL,C,2.0
3,3.7330000400543213,learn,56266.99995994568,Thu Nov 06 2025 16:59:11 GMT-0600 (Central Standard Time),362847.299999997,A,q,O,q,332,1,349.59999999403954,362497.700000003,7235,WL,C,3.0
3,3.8499999046325684,learn,56150.00009536743,Thu Nov 06 2025 16:59:11 GMT-0600 (Central Standard Time),362963.89999999106,A,qu,O,u,101,1,466.19999998807907,362497.700000003,7235,WL,C,3.0
3,4.016000032424927,learn,55983.99996757507,Thu Nov 06 2025 16:59:11 GMT-0600 (Central Standard Time),363130.700000003,A,que,O,e,160,1,633.0,362497.700000003,7235,WL,C,3.0
3,4.165999889373779,learn,55834.00011062622,Thu Nov 06 2025 16:59:11 GMT-0600 (Central Standard Time),363280.5,A,quee,O,e,138,1,782.7999999970198,362497.700000003,7235,WL,C,3.0
3,4.299999952316284,learn,55700.000047683716,Thu Nov 06 2025 16:59:11 GMT-0600 (Central Standard Time),363414.5,A,queen,O,n,125,1,916.7999999970198,362497.700000003,7235,WL,C,3.0
3,4.749000072479248,learn,55250.99992752075,Thu Nov 06 2025 16:59:11 GMT-0600 (Central Standard Time),363863.59999999404,A,queenenter,O,enter,431,1,1365.8999999910593,362497.700000003,7235,WL,C,3.0
3,5.299999952316284,learn,54700.000047683716,Thu Nov 06 2025 16:59:11 GMT-0600 (Central Standard Time),364414.700000003,A,s,O,s,542,1,550.9000000059605,363863.799999997,7235,WL,C,4.0
3,5.431999921798706,learn,54568.000078201294,Thu Nov 06 2025 16:59:11 GMT-0600 (Central Standard Time),364546.39999999106,A,sh,O,h,119,1,682.5999999940395,363863.799999997,7235,WL,C,4.0
3,5.832000017166138,learn,54167.99998283386,Thu Nov 06 2025 16:59:11 GMT-0600 (Central Standard Time),364946.799999997,A,s,O,backspace,387,1,1083.0,363863.799999997,7235,WL,C,4.0
3,6.049999952316284,learn,53950.000047683716,Thu Nov 06 2025 16:59:11 GMT-0600 (Central Standard Time),365163.799999997,A,su,O,u,210,1,1300.0,363863.799999997,7235,WL,C,4.0
3,6.349999904632568,learn,53650.00009536743,Thu Nov 06 2025 16:59:11 GMT-0600 (Central Standard Time),365464.0,A,sug,O,g,289,1,1600.2000000029802,363863.799999997,7235,WL,C,4.0
3,6.58299994468689,learn,53417.00005531311,Thu Nov 06 2025 16:59:11 GMT-0600 (Central Standard Time),365697.200000003,A,suga,O,a,213,1,1833.4000000059605,363863.799999997,7235,WL,C,4.0
3,6.631999969482422,learn,53368.00003051758,Thu Nov 06 2025 16:59:11 GMT-0600 (Central Standard Time),365746.09999999404,A,sugar,O,r,37,1,1882.2999999970198,363863.799999997,7235,WL,C,4.0
3,6.882999897003174,learn,53117.000102996826,Thu Nov 06 2025 16:59:11 GMT-0600 (Central Standard Time),365997.200000003,A,sugarenter,O,enter,236,1,2133.4000000059605,363863.799999997,7235,WL,C,4.0
3,7.164999961853027,learn,52835.00003814697,Thu Nov 06 2025 16:59:11 GMT-0600 (Central Standard Time),366279.39999999106,A,c,O,c,262,1,282.0,365997.39999999106,7235,WL,C,5.0
3,7.332000017166138,learn,52667.99998283386,Thu Nov 06 2025 16:59:11 GMT-0600 (Central Standard Time),366446.09999999404,A,ca,O,a,158,1,448.70000000298023,365997.39999999106,7235,WL,C,5.0
3,7.513999938964844,learn,52486.000061035156,Thu Nov 06 2025 16:59:11 GMT-0600 (Central Standard Time),366628.59999999404,A,cat,O,t,175,1,631.2000000029802,365997.39999999106,7235,WL,C,5.0
3,7.698999881744385,learn,52301.000118255615,Thu Nov 06 2025 16:59:11 GMT-0600 (Central Standard Time),366813.5,A,catt,O,t,176,1,816.1000000089407,365997.39999999106,7235,WL,C,5.0
3,7.848999977111816,learn,52151.00002288818,Thu Nov 06 2025 16:59:11 GMT-0600 (Central Standard Time),366963.59999999404,A,cattl,O,l,135,1,966.2000000029802,365997.39999999106,7235,WL,C,5.0
3,7.997999906539917,learn,52002.00009346008,Thu Nov 06 2025 16:59:11 GMT-0600 (Central Standard Time),367112.5,A,cattle,O,e,129,1,1115.1000000089407,365997.39999999106,7235,WL,C,5.0
3,8.615000009536743,learn,51384.99999046326,Thu Nov 06 2025 16:59:11 GMT-0600 (Central Standard Time),367729.39999999106,A,cattleenter,O,enter,614,1,1732.0,365997.39999999106,7235,WL,C,5.0
3,10.763999938964844,learn,49236.000061035156,Thu Nov 06 2025 16:59:11 GMT-0600 (Central Standard Time),369878.39999999106,A,c,O,c,2132,1,2148.7999999970198,367729.59999999404,7235,WL,C,6.0
3,11.297999858856201,learn,48702.0001411438,Thu Nov 06 2025 16:59:11 GMT-0600 (Central Standard Time),370412.200000003,A,ca,O,a,518,1,2682.6000000089407,367729.59999999404,7235,WL,C,6.0
3,11.397000074386597,learn,48602.9999256134,Thu Nov 06 2025 16:59:11 GMT-0600 (Central Standard Time),370511.200000003,A,cam,O,m,80,1,2781.6000000089407,367729.59999999404,7235,WL,C,6.0
3,11.579999923706055,learn,48420.000076293945,Thu Nov 06 2025 16:59:11 GMT-0600 (Central Standard Time),370694.5,A,camp,O,p,165,1,2964.9000000059605,367729.59999999404,7235,WL,C,6.0
3,12.54699993133545,learn,47453.00006866455,Thu Nov 06 2025 16:59:11 GMT-0600 (Central Standard Time),371661.0,A,campenter,O,enter,959,1,3931.4000000059605,367729.59999999404,7235,WL,C,6.0
3,13.04699993133545,learn,46953.00006866455,Thu Nov 06 2025 16:59:11 GMT-0600 (Central Standard Time),372161.0,A,f,O,f,487,1,499.70000000298023,371661.299999997,7235,WL,C,7.0
3,13.164000034332275,learn,46835.999965667725,Thu Nov 06 2025 16:59:11 GMT-0600 (Central Standard Time),372278.5,A,fl,O,l,100,1,617.2000000029802,371661.299999997,7235,WL,C,7.0
3,13.313999891281128,learn,46686.00010871887,Thu Nov 06 2025 16:59:11 GMT-0600 (Central Standard Time),372428.0,A,fla,O,a,134,1,766.7000000029802,371661.299999997,7235,WL,C,7.0
3,13.546000003814697,learn,46453.9999961853,Thu Nov 06 2025 16:59:11 GMT-0600 (Central Standard Time),372660.700000003,A,flag,O,g,225,1,999.4000000059605,371661.299999997,7235,WL,C,7.0
3,13.780999898910522,learn,46219.00010108948,Thu Nov 06 2025 16:59:11 GMT-0600 (Central Standard Time),372895.09999999404,A,flagenter,O,enter,225,1,1233.7999999970198,371661.299999997,7235,WL,C,7.0
3,14.113999843597412,learn,45886.00015640259,Thu Nov 06 2025 16:59:11 GMT-0600 (Central Standard Time),373228.200000003,A,h,O,h,317,1,332.80000001192093,372895.39999999106,7235,WL,C,8.0
3,14.279000043869019,learn,45720.99995613098,Thu Nov 06 2025 16:59:11 GMT-0600 (Central Standard Time),373393.59999999404,A,ho,O,o,160,1,498.20000000298023,372895.39999999106,7235,WL,C,8.0
3,14.394999980926514,learn,45605.000019073486,Thu Nov 06 2025 16:59:11 GMT-0600 (Central Standard Time),373509.799999997,A,hom,O,m,99,1,614.4000000059605,372895.39999999106,7235,WL,C,8.0
3,14.494999885559082,learn,45505.00011444092,Thu Nov 06 2025 16:59:11 GMT-0600 (Central Standard Time),373609.59999999404,A,home,O,e,94,1,714.2000000029802,372895.39999999106,7235,WL,C,8.0
3,15.04699993133545,learn,44953.00006866455,Thu Nov 06 2025 16:59:11 GMT-0600 (Central Standard Time),374160.89999999106,A,homeenter,O,enter,540,1,1265.5,372895.39999999106,7235,WL,C,8.0
3,15.378999948501587,learn,44621.00005149841,Thu Nov 06 2025 16:59:11 GMT-0600 (Central Standard Time),374493.5,A,b,O,b,324,1,332.40000000596046,374161.09999999404,7235,WL,C,9.0
3,15.44599986076355,learn,44554.00013923645,Thu Nov 06 2025 16:59:11 GMT-0600 (Central Standard Time),374559.89999999106,A,bo,O,o,55,1,398.79999999701977,374161.09999999404,7235,WL,C,9.0
3,15.680000066757202,learn,44319.9999332428,Thu Nov 06 2025 16:59:11 GMT-0600 (Central Standard Time),374794.299999997,A,boy,O,y,229,1,633.2000000029802,374161.09999999404,7235,WL,C,9.0
3,16.111999988555908,learn,43888.00001144409,Thu Nov 06 2025 16:59:11 GMT-0600 (Central Standard Time),375226.5,A,boyenter,O,enter,428,1,1065.4000000059605,374161.09999999404,7235,WL,C,9.0
3,16.496000051498413,learn,43503.99994850159,Thu Nov 06 2025 16:59:11 GMT-0600 (Central Standard Time),375610.59999999404,A,n,O,n,378,1,383.8999999910593,375226.700000003,7235,WL,C,10.0
3,16.713000059127808,learn,43286.99994087219,Thu Nov 06 2025 16:59:11 GMT-0600 (Central Standard Time),375826.89999999106,A,na,O,a,202,1,600.1999999880791,375226.700000003,7235,WL,C,10.0
3,16.84500002861023,learn,43154.99997138977,Thu Nov 06 2025 16:59:11 GMT-0600 (Central Standard Time),375959.200000003,A,nai,O,i,114,1,732.5,375226.700000003,7235,WL,C,10.0
3,17.046000003814697,learn,42953.9999961853,Thu Nov 06 2025 16:59:11 GMT-0600 (Central Standard Time),376160.299999997,A,nail,O,l,198,1,933.5999999940395,375226.700000003,7235,WL,C,10.0
3,17.546000003814697,learn,42453.9999961853,Thu Nov 06 2025 16:59:11 GMT-0600 (Central Standard Time),376660.299999997,A,nailenter,O,enter,485,1,1433.5999999940395,375226.700000003,7235,WL,C,10.0
3,18.111999988555908,learn,41888.00001144409,Thu Nov 06 2025 16:59:11 GMT-0600 (Central Standard Time),377226.200000003,A,s,O,s,563,1,565.7000000029802,376660.5,7235,WL,C,11.0
3,18.16100001335144,learn,41838.99998664856,Thu Nov 06 2025 16:59:11 GMT-0600 (Central Standard Time),377275.59999999404,A,sh,O,h,42,1,615.0999999940395,376660.5,7235,WL,C,11.0
3,18.312000036239624,learn,41687.999963760376,Thu Nov 06 2025 16:59:11 GMT-0600 (Central Standard Time),377425.799999997,A,sho,O,o,137,1,765.2999999970198,376660.5,7235,WL,C,11.0
3,18.411999940872192,learn,41588.00005912781,Thu Nov 06 2025 16:59:11 GMT-0600 (Central Standard Time),377526.200000003,A,shor,O,r,83,1,865.7000000029802,376660.5,7235,WL,C,11.0
3,18.545000076293945,learn,41454.999923706055,Thu Nov 06 2025 16:59:11 GMT-0600 (Central Standard Time),377659.200000003,A,shore,O,e,119,1,998.7000000029802,376660.5,7235,WL,C,11.0
3,19.066999912261963,learn,40933.00008773804,Thu Nov 06 2025 16:59:11 GMT-0600 (Central Standard Time),378181.200000003,A,shoreenter,O,enter,498,1,1520.7000000029802,376660.5,7235,WL,C,11.0
3,24.49399995803833,learn,35506.00004196167,Thu Nov 06 2025 16:59:11 GMT-0600 (Central Standard Time),383607.799999997,A,c,O,c,5408,1,5426.4000000059605,378181.39999999106,7235,WL,C,12.0
3,24.542999982833862,learn,35457.00001716614,Thu Nov 06 2025 16:59:11 GMT-0600 (Central Standard Time),383657.5,A,co,O,o,37,1,5476.100000008941,378181.39999999106,7235,WL,C,12.0
3,24.693000078201294,learn,35306.999921798706,Thu Nov 06 2025 16:59:11 GMT-0600 (Central Standard Time),383807.299999997,A,cor,O,r,139,1,5625.9000000059605,378181.39999999106,7235,WL,C,12.0
3,24.80999994277954,learn,35190.00005722046,Thu Nov 06 2025 16:59:11 GMT-0600 (Central Standard Time),383924.09999999404,A,corn,O,n,103,1,5742.70000000298,378181.39999999106,7235,WL,C,12.0
3,25.675999879837036,learn,34324.000120162964,Thu Nov 06 2025 16:59:11 GMT-0600 (Central Standard Time),384790.0,A,cornenter,O,enter,848,1,6608.600000008941,378181.39999999106,7235,WL,C,12.0
3,27.79200005531311,learn,32207.99994468689,Thu Nov 06 2025 16:59:11 GMT-0600 (Central Standard Time),386905.89999999106,A,b,O,b,2104,1,2115.699999988079,384790.200000003,7235,WL,C,13.0
3,27.875999927520752,learn,32124.000072479248,Thu Nov 06 2025 16:59:11 GMT-0600 (Central Standard Time),386990.299999997,A,bo,O,o,76,1,2200.0999999940395,384790.200000003,7235,WL,C,13.0
3,28.075000047683716,learn,31924.999952316284,Thu Nov 06 2025 16:59:11 GMT-0600 (Central Standard Time),387189.700000003,A,bod,O,d,188,1,2399.5,384790.200000003,7235,WL,C,13.0
3,28.257999897003174,learn,31742.000102996826,Thu Nov 06 2025 16:59:11 GMT-0600 (Central Standard Time),387372.700000003,A,body,O,y,167,1,2582.5,384790.200000003,7235,WL,C,13.0
3,29.259000062942505,learn,30740.999937057495,Thu Nov 06 2025 16:59:11 GMT-0600 (Central Standard Time),388373.200000003,A,bodyenter,O,enter,992,1,3583.0,384790.200000003,7235,WL,C,13.0
3,33.806999921798706,learn,26193.000078201294,Thu Nov 06 2025 16:59:11 GMT-0600 (Central Standard Time),392921.299999997,A,enter,O,enter,4528,1,4548.0,388373.299999997,7235,WL,C,14.0
3,34.02300000190735,learn,25976.99999809265,Thu Nov 06 2025 16:59:11 GMT-0600 (Central Standard Time),393136.89999999106,A,enter,O,enter,195,1,215.3999999910593,392921.5,7235,WL,C,15.0
4,0.5510001182556152,learn,59448.999881744385,Thu Nov 06 2025 16:59:11 GMT-0600 (Central Standard Time),459950.700000003,A,t,O,t,533,1,550.5,459400.200000003,7235,WL,C,1.0
4,0.7170000076293945,learn,59282.999992370605,Thu Nov 06 2025 16:59:11 GMT-0600 (Central Standard Time),460116.89999999106,A,to,O,o,150,1,716.6999999880791,459400.200000003,7235,WL,C,1.0
4,0.81600022315979,learn,59183.99977684021,Thu Nov 06 2025 16:59:11 GMT-0600 (Central Standard Time),460216.200000003,A,tow,O,w,80,1,816.0,459400.200000003,7235,WL,C,1.0
4,0.9830000400543213,learn,59016.99995994568,Thu Nov 06 2025 16:59:11 GMT-0600 (Central Standard Time),460382.89999999106,A,towe,O,e,157,1,982.6999999880791,459400.200000003,7235,WL,C,1.0
4,1.06600022315979,learn,58933.99977684021,Thu Nov 06 2025 16:59:11 GMT-0600 (Central Standard Time),460466.200000003,A,tower,O,r,70,1,1066.0,459400.200000003,7235,WL,C,1.0
4,1.567000150680542,learn,58432.99984931946,Thu Nov 06 2025 16:59:11 GMT-0600 (Central Standard Time),460967.5,A,towerenter,O,enter,491,1,1567.2999999970198,459400.200000003,7235,WL,C,1.0
4,2.2160000801086426,learn,57783.99991989136,Thu Nov 06 2025 16:59:11 GMT-0600 (Central Standard Time),461616.299999997,A,w,O,w,638,1,648.5999999940395,460967.700000003,7235,WL,C,2.0
4,2.3480000495910645,learn,57651.999950408936,Thu Nov 06 2025 16:59:11 GMT-0600 (Central Standard Time),461748.39999999106,A,wh,O,h,121,1,780.6999999880791,460967.700000003,7235,WL,C,2.0
4,2.5,learn,57500.0,Thu Nov 06 2025 16:59:11 GMT-0600 (Central Standard Time),461899.700000003,A,whe,O,e,131,1,932.0,460967.700000003,7235,WL,C,2.0
4,2.699000120162964,learn,57300.999879837036,Thu Nov 06 2025 16:59:11 GMT-0600 (Central Standard Time),462099.39999999106,A,whea,O,a,193,1,1131.699999988079,460967.700000003,7235,WL,C,2.0
4,2.7990000247955322,learn,57200.99997520447,Thu Nov 06 2025 16:59:11 GMT-0600 (Central Standard Time),462198.799999997,A,wheat,O,t,82,1,1231.0999999940395,460967.700000003,7235,WL,C,2.0
4,3.0330002307891846,learn,56966.999769210815,Thu Nov 06 2025 16:59:11 GMT-0600 (Central Standard Time),462432.89999999106,A,wheatenter,O,enter,223,1,1465.199999988079,460967.700000003,7235,WL,C,2.0
4,3.633000135421753,learn,56366.99986457825,Thu Nov 06 2025 16:59:11 GMT-0600 (Central Standard Time),463033.200000003,A,q,O,q,581,1,600.2000000029802,462433.0,7235,WL,C,3.0
4,3.7340002059936523,learn,56265.99979400635,Thu Nov 06 2025 16:59:11 GMT-0600 (Central Standard Time),463134.0,A,qu,O,u,92,1,701.0,462433.0,7235,WL,C,3.0
4,3.9160001277923584,learn,56083.99987220764,Thu Nov 06 2025 16:59:11 GMT-0600 (Central Standard Time),463316.09999999404,A,que,O,e,175,1,883.0999999940395,462433.0,7235,WL,C,3.0
4,4.082000017166138,learn,55917.99998283386,Thu Nov 06 2025 16:59:11 GMT-0600 (Central Standard Time),463482.0,A,quee,O,e,146,1,1049.0,462433.0,7235,WL,C,3.0
4,4.198000192642212,learn,55801.99980735779,Thu Nov 06 2025 16:59:11 GMT-0600 (Central Standard Time),463598.39999999106,A,queen,O,n,107,1,1165.3999999910593,462433.0,7235,WL,C,3.0
4,4.699000120162964,learn,55300.999879837036,Thu Nov 06 2025 16:59:11 GMT-0600 (Central Standard Time),464099.299999997,A,queenenter,O,enter,495,1,1666.2999999970198,462433.0,7235,WL,C,3.0
4,5.082000017166138,learn,54917.99998283386,Thu Nov 06 2025 16:59:11 GMT-0600 (Central Standard Time),464482.0,A,s,O,s,368,1,382.40000000596046,464099.59999999404,7235,WL,C,4.0
4,5.515000104904175,learn,54484.999895095825,Thu Nov 06 2025 16:59:11 GMT-0600 (Central Standard Time),464914.799999997,A,su,O,u,427,1,815.2000000029802,464099.59999999404,7235,WL,C,4.0
4,5.916000127792358,learn,54083.99987220764,Thu Nov 06 2025 16:59:11 GMT-0600 (Central Standard Time),465315.5,A,sug,O,g,387,1,1215.9000000059605,464099.59999999404,7235,WL,C,4.0
4,6.115000009536743,learn,53884.99999046326,Thu Nov 06 2025 16:59:11 GMT-0600 (Central Standard Time),465515.39999999106,A,suga,O,a,194,1,1415.7999999970198,464099.59999999404,7235,WL,C,4.0
4,6.164000034332275,learn,53835.999965667725,Thu Nov 06 2025 16:59:11 GMT-0600 (Central Standard Time),465563.89999999106,A,sugar,O,r,40,1,1464.2999999970198,464099.59999999404,7235,WL,C,4.0
4,6.947000026702881,learn,53052.99997329712,Thu Nov 06 2025 16:59:11 GMT-0600 (Central Standard Time),466347.5,A,sugarenter,O,enter,770,1,2247.9000000059605,464099.59999999404,7235,WL,C,4.0
4,7.982000112533569,learn,52017.99988746643,Thu Nov 06 2025 16:59:11 GMT-0600 (Central Standard Time),467381.89999999106,A,d,O,d,1025,1,1034.199999988079,466347.700000003,7235,WL,C,5.0
4,8.098000049591064,learn,51901.999950408936,Thu Nov 06 2025 16:59:11 GMT-0600 (Central Standard Time),467498.299999997,A,do,O,o,104,1,1150.5999999940395,466347.700000003,7235,WL,C,5.0
4,8.231000185012817,learn,51768.99981498718,Thu Nov 06 2025 16:59:11 GMT-0600 (Central Standard Time),467631.299999997,A,doc,O,c,122,1,1283.5999999940395,466347.700000003,7235,WL,C,5.0
4,8.448000192642212,learn,51551.99980735779,Thu Nov 06 2025 16:59:11 GMT-0600 (Central Standard Time),467848.0,A,doct,O,t,197,1,1500.2999999970198,466347.700000003,7235,WL,C,5.0
4,8.546000003814697,learn,51453.9999961853,Thu Nov 06 2025 16:59:11 GMT-0600 (Central Standard Time),467946.5,A,docto,O,o,94,1,1598.7999999970198,466347.700000003,7235,WL,C,5.0
4,8.664000034332275,learn,51335.999965667725,Thu Nov 06 2025 16:59:11 GMT-0600 (Central Standard Time),468063.700000003,A,doctor,O,r,99,1,1716.0,466347.700000003,7235,WL,C,5.0
4,9.231000185012817,learn,50768.99981498718,Thu Nov 06 2025 16:59:11 GMT-0600 (Central Standard Time),468630.59999999404,A,doctorenter,O,enter,558,1,2282.8999999910593,466347.700000003,7235,WL,C,5.0
4,11.912000179290771,learn,48087.99982070923,Thu Nov 06 2025 16:59:11 GMT-0600 (Central Standard Time),471312.09999999404,A,c,O,c,2662,1,2681.3999999910593,468630.700000003,7235,WL,C,6.0
4,12.09600019454956,learn,47903.99980545044,Thu Nov 06 2025 16:59:11 GMT-0600 (Central Standard Time),471496.0,A,ca,O,a,165,1,2865.2999999970198,468630.700000003,7235,WL,C,6.0
4,12.146000146865845,learn,47853.999853134155,Thu Nov 06 2025 16:59:11 GMT-0600 (Central Standard Time),471546.299999997,A,cam,O,m,30,1,2915.5999999940395,468630.700000003,7235,WL,C,6.0
4,12.296000003814697,learn,47703.9999961853,Thu Nov 06 2025 16:59:11 GMT-0600 (Central Standard Time),471696.299999997,A,camp,O,p,147,1,3065.5999999940395,468630.700000003,7235,WL,C,6.0
4,12.664000034332275,learn,47335.999965667725,Thu Nov 06 2025 16:59:11 GMT-0600 (Central Standard Time),472063.5,A,campenter,O,enter,350,1,3432.7999999970198,468630.700000003,7235,WL,C,6.0
4,13.03000020980835,learn,46969.99979019165,Thu Nov 06 2025 16:59:11 GMT-0600 (Central Standard Time),472430.09999999404,A,f,O,f,350,1,366.29999999701977,472063.799999997,7235,WL,C,7.0
4,13.146000146865845,learn,46853.999853134155,Thu Nov 06 2025 16:59:11 GMT-0600 (Central Standard Time),472545.59999999404,A,fl,O,l,95,1,481.79999999701977,472063.799999997,7235,WL,C,7.0
4,13.296000003814697,learn,46703.9999961853,Thu Nov 06 2025 16:59:11 GMT-0600 (Central Standard Time),472695.89999999106,A,fla,O,a,132,1,632.0999999940395,472063.799999997,7235,WL,C,7.0
4,13.496000051498413,learn,46503.99994850159,Thu Nov 06 2025 16:59:11 GMT-0600 (Central Standard Time),472896.5,A,flag,O,g,188,1,832.7000000029802,472063.799999997,7235,WL,C,7.0
4,13.729000091552734,learn,46270.999908447266,Thu Nov 06 2025 16:59:11 GMT-0600 (Central Standard Time),473128.59999999404,A,flagenter,O,enter,221,1,1064.7999999970198,472063.799999997,7235,WL,C,7.0
4,14.529000043869019,learn,45470.99995613098,Thu Nov 06 2025 16:59:11 GMT-0600 (Central Standard Time),473929.299999997,A,n,O,n,787,1,800.5,473128.799999997,7235,WL,C,8.0
4,14.761000156402588,learn,45238.99984359741,Thu Nov 06 2025 16:59:11 GMT-0600 (Central Standard Time),474161.09999999404,A,na,O,a,220,1,1032.2999999970198,473128.799999997,7235,WL,C,8.0
4,14.861000061035156,learn,45138.999938964844,Thu Nov 06 2025 16:59:11 GMT-0600 (Central Standard Time),474261.5,A,nai,O,i,83,1,1132.7000000029802,473128.799999997,7235,WL,C,8.0
4,15.062000036239624,learn,44937.999963760376,Thu Nov 06 2025 16:59:11 GMT-0600 (Central Standard Time),474462.0,A,nail,O,l,184,1,1333.2000000029802,473128.799999997,7235,WL,C,8.0
4,15.378000020980835,learn,44621.999979019165,Thu Nov 06 2025 16:59:11 GMT-0600 (Central Standard Time),474778.09999999404,A,nailenter,O,enter,304,1,1649.2999999970198,473128.799999997,7235,WL,C,8.0
4,15.84500002861023,learn,44154.99997138977,Thu Nov 06 2025 16:59:11 GMT-0600 (Central Standard Time),475245.59999999404,A,h,O,h,451,1,467.20000000298023,474778.39999999106,7235,WL,C,9.0
4,15.995000123977661,learn,44004.99987602234,Thu Nov 06 2025 16:59:11 GMT-0600 (Central Standard Time),475394.700000003,A,ho,O,o,136,1,616.3000000119209,474778.39999999106,7235,WL,C,9.0
4,16.112000226974487,learn,43887.99977302551,Thu Nov 06 2025 16:59:11 GMT-0600 (Central Standard Time),475511.59999999404,A,hom,O,m,97,1,733.2000000029802,474778.39999999106,7235,WL,C,9.0
4,16.461000204086304,learn,43538.999795913696,Thu Nov 06 2025 16:59:11 GMT-0600 (Central Standard Time),475861.200000003,A,home,O,e,341,1,1082.800000011921,474778.39999999106,7235,WL,C,9.0
4,17.33300018310547,learn,42666.99981689453,Thu Nov 06 2025 16:59:11 GMT-0600 (Central Standard Time),476733.89999999106,A,homeenter,O,enter,856,1,1955.5,474778.39999999106,7235,WL,C,9.0
4,17.91000008583069,learn,42089.99991416931,Thu Nov 06 2025 16:59:11 GMT-0600 (Central Standard Time),477311.09999999404,A,b,O,b,559,1,576.7000000029802,476734.39999999106,7235,WL,C,10.0
4,17.993000030517578,learn,42006.99996948242,Thu Nov 06 2025 16:59:11 GMT-0600 (Central Standard Time),477394.09999999404,A,bo,O,o,71,1,659.7000000029802,476734.39999999106,7235,WL,C,10.0
4,18.16000008583069,learn,41839.99991416931,Thu Nov 06 2025 16:59:11 GMT-0600 (Central Standard Time),477560.799999997,A,boy,O,y,155,1,826.4000000059605,476734.39999999106,7235,WL,C,10.0
4,19.06000018119812,learn,40939.99981880188,Thu Nov 06 2025 16:59:11 GMT-0600 (Central Standard Time),478460.5,A,boyenter,O,enter,893,1,1726.1000000089407,476734.39999999106,7235,WL,C,10.0
4,22.658000230789185,learn,37341.999769210815,Thu Nov 06 2025 16:59:11 GMT-0600 (Central Standard Time),482059.200000003,A,l,O,l,3584,1,3598.4000000059605,478460.799999997,7235,WL,C,11.0
4,22.759000062942505,learn,37240.999937057495,Thu Nov 06 2025 16:59:11 GMT-0600 (Central Standard Time),482160.0,A,le,O,e,91,1,3699.2000000029802,478460.799999997,7235,WL,C,11.0
4,23.009000062942505,learn,36990.999937057495,Thu Nov 06 2025 16:59:11 GMT-0600 (Central Standard Time),482409.59999999404,A,let,O,t,237,1,3948.7999999970198,478460.799999997,7235,WL,C,11.0
4,23.176000118255615,learn,36823.999881744385,Thu Nov 06 2025 16:59:11 GMT-0600 (Central Standard Time),482576.299999997,A,lett,O,t,155,1,4115.5,478460.799999997,7235,WL,C,11.0
4,23.29200005531311,learn,36707.99994468689,Thu Nov 06 2025 16:59:11 GMT-0600 (Central Standard Time),482693.0,A,lette,O,e,102,1,4232.20000000298,478460.799999997,7235,WL,C,11.0
4,23.392000198364258,learn,36607.99980163574,Thu Nov 06 2025 16:59:11 GMT-0600 (Central Standard Time),482792.59999999404,A,letter,O,r,93,1,4331.79999999702,478460.799999997,7235,WL,C,11.0
4,24.408000230789185,learn,35591.999769210815,Thu Nov 06 2025 16:59:11 GMT-0600 (Central Standard Time),483808.59999999404,A,letterenter,O,enter,1005,1,5347.79999999702,478460.799999997,7235,WL,C,11.0
4,25.075000047683716,learn,34924.999952316284,Thu Nov 06 2025 16:59:11 GMT-0600 (Central Standard Time),484476.299999997,A,c,O,c,651,1,667.5,483808.799999997,7235,WL,C,12.0
4,25.124000072479248,learn,34875.99992752075,Thu Nov 06 2025 16:59:11 GMT-0600 (Central Standard Time),484524.799999997,A,co,O,o,40,1,716.0,483808.799999997,7235,WL,C,12.0
4,25.60800004005432,learn,34391.99995994568,Thu Nov 06 2025 16:59:11 GMT-0600 (Central Standard Time),485008.89999999106,A,cor,O,r,473,1,1200.0999999940395,483808.799999997,7235,WL,C,12.0
4,25.758000135421753,learn,34241.99986457825,Thu Nov 06 2025 16:59:11 GMT-0600 (Central Standard Time),485158.299999997,A,corn,O,n,140,1,1349.5,483808.799999997,7235,WL,C,12.0
4,27.125,learn,32875.0,Thu Nov 06 2025 16:59:11 GMT-0600 (Central Standard Time),486525.5,A,cornenter,O,enter,1351,1,2716.7000000029802,483808.799999997,7235,WL,C,12.0
4,30.00600004196167,learn,29993.99995803833,Thu Nov 06 2025 16:59:11 GMT-0600 (Central Standard Time),489407.09999999404,A,b,O,b,2871,1,2881.2999999970198,486525.799999997,7235,WL,C,13.0
4,30.106000185012817,learn,29893.999814987183,Thu Nov 06 2025 16:59:11 GMT-0600 (Central Standard Time),489506.89999999106,A,bo,O,o,86,1,2981.0999999940395,486525.799999997,7235,WL,C,13.0
4,30.33900022506714,learn,29660.99977493286,Thu Nov 06 2025 16:59:11 GMT-0600 (Central Standard Time),489740.0,A,bod,O,d,218,1,3214.2000000029802,486525.799999997,7235,WL,C,13.0
4,30.456000089645386,learn,29543.999910354614,Thu Nov 06 2025 16:59:11 GMT-0600 (Central Standard Time),489856.700000003,A,body,O,y,114,1,3330.9000000059605,486525.799999997,7235,WL,C,13.0
4,31.556000232696533,learn,28443.999767303467,Thu Nov 06 2025 16:59:11 GMT-0600 (Central Standard Time),490956.39999999106,A,bodyenter,O,enter,1093,1,4430.5999999940395,486525.799999997,7235,WL,C,13.0
4,34.105000019073486,learn,25894.999980926514,Thu Nov 06 2025 16:59:11 GMT-0600 (Central Standard Time),493505.700000003,A,c,O,c,2537,1,2549.1000000089407,490956.59999999404,7235,WL,C,14.0
4,34.32100009918213,learn,25678.99990081787,Thu Nov 06 2025 16:59:11 GMT-0600 (Central Standard Time),493721.200000003,A,ca,O,a,201,1,2764.6000000089407,490956.59999999404,7235,WL,C,14.0
4,34.504000186920166,learn,25495.999813079834,Thu Nov 06 2025 16:59:11 GMT-0600 (Central Standard Time),493905.200000003,A,cat,O,t,164,1,2948.6000000089407,490956.59999999404,7235,WL,C,14.0
4,34.65700006484985,learn,25342.999935150146,Thu Nov 06 2025 16:59:11 GMT-0600 (Central Standard Time),494057.59999999404,A,catt,O,t,140,1,3101.0,490956.59999999404,7235,WL,C,14.0
4,34.73800015449524,learn,25261.99984550476,Thu Nov 06 2025 16:59:11 GMT-0600 (Central Standard Time),494139.200000003,A,cattl,O,l,75,1,3182.6000000089407,490956.59999999404,7235,WL,C,14.0
4,34.855000019073486,learn,25144.999980926514,Thu Nov 06 2025 16:59:11 GMT-0600 (Central Standard Time),494255.59999999404,A,cattle,O,e,98,1,3299.0,490956.59999999404,7235,WL,C,14.0
4,35.0550000667572,learn,24944.999933242798,Thu Nov 06 2025 16:59:11 GMT-0600 (Central Standard Time),494455.200000003,A,cattleenter,O,enter,189,1,3498.6000000089407,490956.59999999404,7235,WL,C,14.0
4,37.4539999961853,learn,22546.000003814697,Thu Nov 06 2025 16:59:11 GMT-0600 (Central Standard Time),496855.0,A,enter,O,enter,2391,1,2399.6000000089407,494455.39999999106,7235,WL,C,15.0
5,10.69700002670288,learn,60000.0,Thu Nov 06 2025 16:59:11 GMT-0600 (Central Standard Time),575364.700000003,A,t,O,t,10679,1,10697.300000011921,564667.3999999911,7235,WL,C,1.0
5,10.812000036239624,learn,60000.0,Thu Nov 06 2025 16:59:11 GMT-0600 (Central Standard Time),575479.5,A,to,O,o,97,1,10812.10000000894,564667.3999999911,7235,WL,C,1.0
5,10.979000091552734,learn,60000.0,Thu Nov 06 2025 16:59:11 GMT-0600 (Central Standard Time),575646.5,A,tow,O,w,147,1,10979.10000000894,564667.3999999911,7235,WL,C,1.0
5,11.212000131607056,learn,60000.0,Thu Nov 06 2025 16:59:11 GMT-0600 (Central Standard Time),575879.5,A,towe,O,e,215,1,11212.10000000894,564667.3999999911,7235,WL,C,1.0
5,11.295000076293945,learn,60000.0,Thu Nov 06 2025 16:59:11 GMT-0600 (Central Standard Time),575962.799999997,A,tower,O,r,78,1,11295.40000000596,564667.3999999911,7235,WL,C,1.0
5,11.795000076293945,learn,60000.0,Thu Nov 06 2025 16:59:11 GMT-0600 (Central Standard Time),576462.799999997,A,towerenter,O,enter,491,1,11795.40000000596,564667.3999999911,7235,WL,C,1.0
5,14.57800006866455,learn,60000.0,Thu Nov 06 2025 16:59:11 GMT-0600 (Central Standard Time),579245.0,A,c,O,c,2767,1,2782.0,576463.0,7235,WL,C,2.0
5,14.777000188827515,learn,60000.0,Thu Nov 06 2025 16:59:11 GMT-0600 (Central Standard Time),579444.0,A,ca,O,a,193,1,2981.0,576463.0,7235,WL,C,2.0
5,14.894999980926514,learn,60000.0,Thu Nov 06 2025 16:59:11 GMT-0600 (Central Standard Time),579562.299999997,A,cam,O,m,106,1,3099.2999999970198,576463.0,7235,WL,C,2.0
5,15.144000053405762,learn,60000.0,Thu Nov 06 2025 16:59:11 GMT-0600 (Central Standard Time),579811.299999997,A,camp,O,p,244,1,3348.2999999970198,576463.0,7235,WL,C,2.0
5,16.14400005340576,learn,60000.0,Thu Nov 06 2025 16:59:11 GMT-0600 (Central Standard Time),580811.700000003,A,campenter,O,enter,986,1,4348.70000000298,576463.0,7235,WL,C,2.0
5,16.960999965667725,learn,60000.0,Thu Nov 06 2025 16:59:11 GMT-0600 (Central Standard Time),581628.0,A,s,O,s,810,1,816.0,580812.0,7235,WL,C,3.0
5,17.31000018119812,learn,60000.0,Thu Nov 06 2025 16:59:11 GMT-0600 (Central Standard Time),581977.3999999911,A,sh,O,h,345,1,1165.3999999910593,580812.0,7235,WL,C,3.0
5,17.47699999809265,learn,60000.0,Thu Nov 06 2025 16:59:11 GMT-0600 (Central Standard Time),582144.5,A,sho,O,o,147,1,1332.5,580812.0,7235,WL,C,3.0
5,17.611000061035156,learn,60000.0,Thu Nov 06 2025 16:59:11 GMT-0600 (Central Standard Time),582278.0,A,shor,O,r,117,1,1466.0,580812.0,7235,WL,C,3.0
5,17.95900011062622,learn,60000.0,Thu Nov 06 2025 16:59:11 GMT-0600 (Central Standard Time),582626.599999994,A,shore,O,e,344,1,1814.5999999940395,580812.0,7235,WL,C,3.0
5,18.81000018119812,learn,60000.0,Thu Nov 06 2025 16:59:11 GMT-0600 (Central Standard Time),583477.8999999911,A,shoreenter,O,enter,834,1,2665.8999999910593,580812.0,7235,WL,C,3.0
5,19.210000038146973,learn,60000.0,Thu Nov 06 2025 16:59:11 GMT-0600 (Central Standard Time),583877.200000003,A,b,O,b,384,1,399.0,583478.200000003,7235,WL,C,4.0
5,19.276000022888184,learn,60000.0,Thu Nov 06 2025 16:59:11 GMT-0600 (Central Standard Time),583943.200000003,A,bo,O,o,56,1,465.0,583478.200000003,7235,WL,C,4.0
5,19.4760000705719,learn,60000.0,Thu Nov 06 2025 16:59:11 GMT-0600 (Central Standard Time),584143.3999999911,A,bod,O,d,182,1,665.1999999880791,583478.200000003,7235,WL,C,4.0
5,19.593000173568726,learn,60000.0,Thu Nov 06 2025 16:59:11 GMT-0600 (Central Standard Time),584260.200000003,A,body,O,y,103,1,782.0,583478.200000003,7235,WL,C,4.0
5,19.943000078201294,learn,60000.0,Thu Nov 06 2025 16:59:11 GMT-0600 (Central Standard Time),584610.5,A,bodyenter,O,enter,337,1,1132.2999999970198,583478.200000003,7235,WL,C,4.0
5,21.759000062942505,learn,60000.0,Thu Nov 06 2025 16:59:11 GMT-0600 (Central Standard Time),586426.599999994,A,f,O,f,1803,1,1815.8999999910593,584610.700000003,7235,WL,C,5.0
5,22.725000143051147,learn,60000.0,Thu Nov 06 2025 16:59:11 GMT-0600 (Central Standard Time),587392.700000003,A,fl,O,l,955,1,2782.0,584610.700000003,7235,WL,C,5.0
5,22.907999992370605,learn,60000.0,Thu Nov 06 2025 16:59:11 GMT-0600 (Central Standard Time),587575.5,A,fla,O,a,173,1,2964.7999999970198,584610.700000003,7235,WL,C,5.0
5,23.258000135421753,learn,60000.0,Thu Nov 06 2025 16:59:11 GMT-0600 (Central Standard Time),587925.5,A,flag,O,g,333,1,3314.7999999970198,584610.700000003,7235,WL,C,5.0
5,23.975000143051147,learn,60000.0,Thu Nov 06 2025 16:59:11 GMT-0600 (Central Standard Time),588642.599999994,A,flagenter,O,enter,705,1,4031.8999999910593,584610.700000003,7235,WL,C,5.0
5,24.991000175476074,learn,60000.0,Thu Nov 06 2025 16:59:11 GMT-0600 (Central Standard Time),589658.299999997,A,n,O,n,1011,1,1015.5,588642.799999997,7235,WL,C,6.0
5,25.223000049591064,learn,60000.0,Thu Nov 06 2025 16:59:11 GMT-0600 (Central Standard Time),589890.799999997,A,na,O,a,228,1,1248.0,588642.799999997,7235,WL,C,6.0
5,25.424000024795532,learn,60000.0,Thu Nov 06 2025 16:59:11 GMT-0600 (Central Standard Time),590091.5,A,nai,O,i,187,1,1448.7000000029802,588642.799999997,7235,WL,C,6.0
5,25.641000032424927,learn,60000.0,Thu Nov 06 2025 16:59:11 GMT-0600 (Central Standard Time),590308.5,A,nail,O,l,211,1,1665.7000000029802,588642.799999997,7235,WL,C,6.0
5,25.973999977111816,learn,60000.0,Thu Nov 06 2025 16:59:11 GMT-0600 (Central Standard Time),590641.3999999911,A,nailenter,O,enter,321,1,1998.5999999940395,588642.799999997,7235,WL,C,6.0
5,26.491000175476074,learn,60000.0,Thu Nov 06 2025 16:59:11 GMT-0600 (Central Standard Time),591158.5,A,c,O,c,507,1,516.9000000059605,590641.599999994,7235,WL,C,7.0
5,26.69099998474121,learn,60000.0,Thu Nov 06 2025 16:59:11 GMT-0600 (Central Standard Time),591358.0,A,ca,O,a,181,1,716.4000000059605,590641.599999994,7235,WL,C,7.0
5,26.873000144958496,learn,60000.0,Thu Nov 06 2025 16:59:11 GMT-0600 (Central Standard Time),591540.8999999911,A,cat,O,t,168,1,899.2999999970198,590641.599999994,7235,WL,C,7.0
5,27.02300000190735,learn,60000.0,Thu Nov 06 2025 16:59:11 GMT-0600 (Central Standard Time),591690.700000003,A,catt,O,t,137,1,1049.1000000089407,590641.599999994,7235,WL,C,7.0
5,27.157000064849854,learn,60000.0,Thu Nov 06 2025 16:59:11 GMT-0600 (Central Standard Time),591824.200000003,A,cattl,O,l,112,1,1182.6000000089407,590641.599999994,7235,WL,C,7.0
5,27.305999994277954,learn,60000.0,Thu Nov 06 2025 16:59:11 GMT-0600 (Central Standard Time),591973.8999999911,A,cattle,O,e,133,1,1332.2999999970198,590641.599999994,7235,WL,C,7.0
5,27.640000104904175,learn,60000.0,Thu Nov 06 2025 16:59:11 GMT-0600 (Central Standard Time),592307.700000003,A,cattleenter,O,enter,319,1,1666.1000000089407,590641.599999994,7235,WL,C,7.0
5,29.52400016784668,learn,60000.0,Thu Nov 06 2025 16:59:11 GMT-0600 (Central Standard Time),594191.3999999911,A,b,O,b,1874,1,1883.2999999970198,592308.099999994,7235,WL,C,8.0
5,29.59000015258789,learn,60000.0,Thu Nov 06 2025 16:59:11 GMT-0600 (Central Standard Time),594257.200000003,A,bo,O,o,54,1,1949.1000000089407,592308.099999994,7235,WL,C,8.0
5,29.795000076293945,learn,60000.0,Thu Nov 06 2025 16:59:11 GMT-0600 (Central Standard Time),594462.700000003,A,boy,O,y,188,1,2154.6000000089407,592308.099999994,7235,WL,C,8.0
5,30.457000017166138,learn,60000.0,Thu Nov 06 2025 16:59:11 GMT-0600 (Central Standard Time),595124.099999994,A,boyenter,O,enter,655,1,2816.0,592308.099999994,7235,WL,C,8.0
5,30.772000074386597,learn,60000.0,Thu Nov 06 2025 16:59:11 GMT-0600 (Central Standard Time),595439.5,A,h,O,h,297,1,315.20000000298023,595124.299999997,7235,WL,C,9.0
5,30.889000177383423,learn,60000.0,Thu Nov 06 2025 16:59:11 GMT-0600 (Central Standard Time),595556.5,A,ho,O,o,110,1,432.20000000298023,595124.299999997,7235,WL,C,9.0
5,31.014000177383423,learn,60000.0,Thu Nov 06 2025 16:59:11 GMT-0600 (Central Standard Time),595681.0,A,hom,O,m,114,1,556.7000000029802,595124.299999997,7235,WL,C,9.0
5,31.123000144958496,learn,60000.0,Thu Nov 06 2025 16:59:11 GMT-0600 (Central Standard Time),595790.200000003,A,home,O,e,93,1,665.9000000059605,595124.299999997,7235,WL,C,9.0
5,31.373000144958496,learn,60000.0,Thu Nov 06 2025 16:59:11 GMT-0600 (Central Standard Time),596040.099999994,A,homeenter,O,enter,239,1,915.7999999970198,595124.299999997,7235,WL,C,9.0
5,34.835999965667725,learn,60000.0,Thu Nov 06 2025 16:59:11 GMT-0600 (Central Standard Time),599504.3999999911,A,q,O,q,3461,1,3464.199999988079,596040.200000003,7235,WL,C,10.0
5,34.97000002861023,learn,60000.0,Thu Nov 06 2025 16:59:11 GMT-0600 (Central Standard Time),599638.5,A,qu,O,u,125,1,3598.2999999970198,596040.200000003,7235,WL,C,10.0
5,35.13700008392334,learn,60000.0,Thu Nov 06 2025 16:59:11 GMT-0600 (Central Standard Time),599805.299999997,A,que,O,e,150,1,3765.0999999940395,596040.200000003,7235,WL,C,10.0
5,35.28700017929077,learn,60000.0,Thu Nov 06 2025 16:59:11 GMT-0600 (Central Standard Time),599955.200000003,A,quee,O,e,137,1,3915.0,596040.200000003,7235,WL,C,10.0
5,35.40400004386902,learn,60000.0,Thu Nov 06 2025 16:59:11 GMT-0600 (Central Standard Time),600071.700000003,A,queen,O,n,98,1,4031.5,596040.200000003,7235,WL,C,10.0
5,35.771000146865845,learn,60000.0,Thu Nov 06 2025 16:59:11 GMT-0600 (Central Standard Time),600439.299999997,A,queenenter,O,enter,358,1,4399.0999999940395,596040.200000003,7235,WL,C,10.0
5,36.20300006866455,learn,60000.0,Thu Nov 06 2025 16:59:11 GMT-0600 (Central Standard Time),600871.599999994,A,s,O,s,422,1,432.09999999403954,600439.5,7235,WL,C,11.0
5,36.32000017166138,learn,60000.0,Thu Nov 06 2025 16:59:11 GMT-0600 (Central Standard Time),600988.200000003,A,su,O,u,102,1,548.7000000029802,600439.5,7235,WL,C,11.0
5,36.503000020980835,learn,60000.0,Thu Nov 06 2025 16:59:11 GMT-0600 (Central Standard Time),601171.599999994,A,sur,O,r,178,1,732.0999999940395,600439.5,7235,WL,C,11.0
5,36.90400004386902,learn,60000.0,Thu Nov 06 2025 16:59:11 GMT-0600 (Central Standard Time),601572.0,A,su,O,backspace,387,1,1132.5,600439.5,7235,WL,C,11.0
5,37.003000020980835,learn,60000.0,Thu Nov 06 2025 16:59:11 GMT-0600 (Central Standard Time),601671.5,A,sug,O,g,81,1,1232.0,600439.5,7235,WL,C,11.0
5,37.187000036239624,learn,60000.0,Thu Nov 06 2025 16:59:11 GMT-0600 (Central Standard Time),601854.799999997,A,suga,O,a,171,1,1415.2999999970198,600439.5,7235,WL,C,11.0
5,37.253000020980835,learn,60000.0,Thu Nov 06 2025 16:59:11 GMT-0600 (Central Standard Time),601921.0,A,sugar,O,r,61,1,1481.5,600439.5,7235,WL,C,11.0
5,38.069000005722046,learn,60000.0,Thu Nov 06 2025 16:59:11 GMT-0600 (Central Standard Time),602737.200000003,A,sugarenter,O,enter,804,1,2297.7000000029802,600439.5,7235,WL,C,11.0
5,42.86800003051758,learn,60000.0,Thu Nov 06 2025 16:59:11 GMT-0600 (Central Standard Time),607536.599999994,A,c,O,c,4788,1,4799.20000000298,602737.3999999911,7235,WL,C,12.0
5,42.93400001525879,learn,60000.0,Thu Nov 06 2025 16:59:11 GMT-0600 (Central Standard Time),607602.3999999911,A,co,O,o,52,1,4865.0,602737.3999999911,7235,WL,C,12.0
5,43.13499999046326,learn,60000.0,Thu Nov 06 2025 16:59:11 GMT-0600 (Central Standard Time),607802.799999997,A,cor,O,r,195,1,5065.4000000059605,602737.3999999911,7235,WL,C,12.0
5,43.26800012588501,learn,60000.0,Thu Nov 06 2025 16:59:11 GMT-0600 (Central Standard Time),607935.700000003,A,corn,O,n,122,1,5198.300000011921,602737.3999999911,7235,WL,C,12.0
5,44.867000102996826,learn,60000.0,Thu Nov 06 2025 16:59:11 GMT-0600 (Central Standard Time),609535.599999994,A,cornenter,O,enter,1590,1,6798.20000000298,602737.3999999911,7235,WL,C,12.0
5,46.818000078201294,learn,60000.0,Thu Nov 06 2025 16:59:11 GMT-0600 (Central Standard Time),611486.0,A,f,O,f,1934,1,1950.2000000029802,609535.799999997,7235,WL,C,13.0
5,46.93300008773804,learn,60000.0,Thu Nov 06 2025 16:59:11 GMT-0600 (Central Standard Time),611601.099999994,A,fl,O,l,110,1,2065.2999999970198,609535.799999997,7235,WL,C,13.0
5,47.116000175476074,learn,60000.0,Thu Nov 06 2025 16:59:11 GMT-0600 (Central Standard Time),611784.3999999911,A,fla,O,a,180,1,2248.5999999940395,609535.799999997,7235,WL,C,13.0
5,47.35000014305115,learn,60000.0,Thu Nov 06 2025 16:59:11 GMT-0600 (Central Standard Time),612017.700000003,A,flag,O,g,221,1,2481.9000000059605,609535.799999997,7235,WL,C,13.0
5,48.53400015830994,learn,60000.0,Thu Nov 06 2025 16:59:11 GMT-0600 (Central Standard Time),613201.799999997,A,flagenter,O,enter,1164,1,3666.0,609535.799999997,7235,WL,C,13.0
5,59.14800000190735,learn,60000.0,Thu Nov 06 2025 16:59:11 GMT-0600 (Central Standard Time),623815.700000003,A,b,O,b,10595,1,10613.60000000894,613202.099999994,7235,WL,C,14.0
5,60.42900013923645,learn,60000.0,Thu Nov 06 2025 16:59:11 GMT-0600 (Central Standard Time),625096.8999999911,A,,O,backspace,1278,1,11894.79999999702,613202.099999994,7235,WL,C,14.0
6,0.8510000705718994,distr,59148.9999294281,Thu Nov 06 2025 16:59:11 GMT-0600 (Central Standard Time),700690.700000003,B,s,O,s,836,1,850.5,699840.200000003,7235,WL,C,1.0
6,1.0329999923706055,distr,58967.000007629395,Thu Nov 06 2025 16:59:11 GMT-0600 (Central Standard Time),700873.200000003,B,sk,O,k,163,1,1033.0,699840.200000003,7235,WL,C,1.0
6,1.2160000801086426,distr,58783.99991989136,Thu Nov 06 2025 16:59:11 GMT-0600 (Central Standard Time),701056.200000003,B,sky,O,y,172,1,1216.0,699840.200000003,7235,WL,C,1.0
6,1.565999984741211,distr,58434.00001525879,Thu Nov 06 2025 16:59:11 GMT-0600 (Central Standard Time),701406.0,B,skyenter,O,enter,334,1,1565.7999999970198,699840.200000003,7235,WL,C,1.0
6,1.8500001430511475,distr,58149.99985694885,Thu Nov 06 2025 16:59:11 GMT-0600 (Central Standard Time),701689.700000003,B,d,O,d,264,1,283.5,701406.200000003,7235,WL,C,2.0
6,1.933000087738037,distr,58066.99991226196,Thu Nov 06 2025 16:59:11 GMT-0600 (Central Standard Time),701772.700000003,B,do,O,o,74,1,366.5,701406.200000003,7235,WL,C,2.0
6,2.2330000400543213,distr,57766.99995994568,Thu Nov 06 2025 16:59:11 GMT-0600 (Central Standard Time),702072.700000003,B,dol,O,l,286,1,666.5,701406.200000003,7235,WL,C,2.0
6,2.384000062942505,distr,57615.999937057495,Thu Nov 06 2025 16:59:11 GMT-0600 (Central Standard Time),702223.5,B,doll,O,l,140,1,817.2999999970198,701406.200000003,7235,WL,C,2.0
6,2.449000120162964,distr,57550.999879837036,Thu Nov 06 2025 16:59:11 GMT-0600 (Central Standard Time),702289.0,B,dolla,O,a,55,1,882.7999999970198,701406.200000003,7235,WL,C,2.0
6,2.5490000247955322,distr,57450.99997520447,Thu Nov 06 2025 16:59:11 GMT-0600 (Central Standard Time),702389.299999997,B,dollar,O,r,85,1,983.0999999940395,701406.200000003,7235,WL,C,2.0
6,2.8330001831054688,distr,57166.99981689453,Thu Nov 06 2025 16:59:11 GMT-0600 (Central Standard Time),702672.799999997,B,dollarenter,O,enter,272,1,1266.5999999940395,701406.200000003,7235,WL,C,2.0
6,3.2160000801086426,distr,56783.99991989136,Thu Nov 06 2025 16:59:11 GMT-0600 (Central Standard Time),703055.700000003,B,v,O,v,364,1,382.6000000089407,702673.099999994,7235,WL,C,3.0
6,3.366000175476074,distr,56633.999824523926,Thu Nov 06 2025 16:59:11 GMT-0600 (Central Standard Time),703205.799999997,B,va,O,a,134,1,532.7000000029802,702673.099999994,7235,WL,C,3.0
6,3.499000072479248,distr,56500.99992752075,Thu Nov 06 2025 16:59:11 GMT-0600 (Central Standard Time),703339.099999994,B,val,O,l,120,1,666.0,702673.099999994,7235,WL,C,3.0
6,3.6490001678466797,distr,56350.99983215332,Thu Nov 06 2025 16:59:11 GMT-0600 (Central Standard Time),703488.799999997,B,vall,O,l,147,1,815.7000000029802,702673.099999994,7235,WL,C,3.0
6,3.7810001373291016,distr,56218.9998626709,Thu Nov 06 2025 16:59:11 GMT-0600 (Central Standard Time),703621.3999999911,B,valle,O,e,124,1,948.2999999970198,702673.099999994,7235,WL,C,3.0
6,3.8990001678466797,distr,56100.99983215332,Thu Nov 06 2025 16:59:11 GMT-0600 (Central Standard Time),703738.799999997,B,valley,O,y,110,1,1065.7000000029802,702673.099999994,7235,WL,C,3.0
6,4.232000112533569,distr,55767.99988746643,Thu Nov 06 2025 16:59:11 GMT-0600 (Central Standard Time),704071.8999999911,B,valleyenter,O,enter,314,1,1398.7999999970198,702673.099999994,7235,WL,C,3.0
6,4.54800009727478,distr,55451.99990272522,Thu Nov 06 2025 16:59:11 GMT-0600 (Central Standard Time),704388.299999997,B,m,O,m,310,1,316.09999999403954,704072.200000003,7235,WL,C,4.0
6,4.716000080108643,distr,55283.99991989136,Thu Nov 06 2025 16:59:11 GMT-0600 (Central Standard Time),704555.5,B,mo,O,o,161,1,483.29999999701977,704072.200000003,7235,WL,C,4.0
6,4.848999977111816,distr,55151.00002288818,Thu Nov 06 2025 16:59:11 GMT-0600 (Central Standard Time),704688.5,B,mot,O,t,130,1,616.2999999970198,704072.200000003,7235,WL,C,4.0
6,4.933000087738037,distr,55066.99991226196,Thu Nov 06 2025 16:59:11 GMT-0600 (Central Standard Time),704772.5,B,moth,O,h,76,1,700.2999999970198,704072.200000003,7235,WL,C,4.0
6,5.016000032424927,distr,54983.99996757507,Thu Nov 06 2025 16:59:11 GMT-0600 (Central Standard Time),704855.599999994,B,mothe,O,e,72,1,783.3999999910593,704072.200000003,7235,WL,C,4.0
6,5.116000175476074,distr,54883.999824523926,Thu Nov 06 2025 16:59:11 GMT-0600 (Central Standard Time),704955.700000003,B,mother,O,r,95,1,883.5,704072.200000003,7235,WL,C,4.0
6,5.416000127792358,distr,54583.99987220764,Thu Nov 06 2025 16:59:11 GMT-0600 (Central Standard Time),705255.8999999911,B,motherenter,O,enter,290,1,1183.699999988079,704072.200000003,7235,WL,C,4.0
6,5.732000112533569,distr,54267.99988746643,Thu Nov 06 2025 16:59:11 GMT-0600 (Central Standard Time),705571.599999994,B,t,O,t,302,1,315.3999999910593,705256.200000003,7235,WL,C,5.0
6,5.79800009727478,distr,54201.99990272522,Thu Nov 06 2025 16:59:11 GMT-0600 (Central Standard Time),705637.8999999911,B,to,O,o,50,1,381.69999998807907,705256.200000003,7235,WL,C,5.0
6,5.965000152587891,distr,54034.99984741211,Thu Nov 06 2025 16:59:11 GMT-0600 (Central Standard Time),705804.799999997,B,too,O,o,159,1,548.5999999940395,705256.200000003,7235,WL,C,5.0
6,6.182000160217285,distr,53817.999839782715,Thu Nov 06 2025 16:59:11 GMT-0600 (Central Standard Time),706021.700000003,B,tool,O,l,201,1,765.5,705256.200000003,7235,WL,C,5.0
6,6.5980000495910645,distr,53401.999950408936,Thu Nov 06 2025 16:59:11 GMT-0600 (Central Standard Time),706437.3999999911,B,toolenter,O,enter,400,1,1181.199999988079,705256.200000003,7235,WL,C,5.0
6,6.930999994277954,distr,53069.000005722046,Thu Nov 06 2025 16:59:11 GMT-0600 (Central Standard Time),706771.099999994,B,m,O,m,319,1,333.3999999910593,706437.700000003,7235,WL,C,6.0
6,7.065000057220459,distr,52934.99994277954,Thu Nov 06 2025 16:59:11 GMT-0600 (Central Standard Time),706905.099999994,B,me,O,e,122,1,467.3999999910593,706437.700000003,7235,WL,C,6.0
6,7.215000152587891,distr,52784.99984741211,Thu Nov 06 2025 16:59:11 GMT-0600 (Central Standard Time),707055.299999997,B,mea,O,a,140,1,617.5999999940395,706437.700000003,7235,WL,C,6.0
6,7.365000009536743,distr,52634.99999046326,Thu Nov 06 2025 16:59:11 GMT-0600 (Central Standard Time),707205.099999994,B,meat,O,t,135,1,767.3999999910593,706437.700000003,7235,WL,C,6.0
6,7.930999994277954,distr,52069.000005722046,Thu Nov 06 2025 16:59:11 GMT-0600 (Central Standard Time),707771.3999999911,B,meatenter,O,enter,560,1,1333.699999988079,706437.700000003,7235,WL,C,6.0
6,8.54800009727478,distr,51451.99990272522,Thu Nov 06 2025 16:59:11 GMT-0600 (Central Standard Time),708387.5,B,m,O,m,603,1,616.0,707771.5,7235,WL,C,7.0
6,8.680999994277954,distr,51319.000005722046,Thu Nov 06 2025 16:59:11 GMT-0600 (Central Standard Time),708521.299999997,B,mo,O,o,121,1,749.7999999970198,707771.5,7235,WL,C,7.0
6,8.781000137329102,distr,51218.9998626709,Thu Nov 06 2025 16:59:11 GMT-0600 (Central Standard Time),708620.599999994,B,mon,O,n,93,1,849.0999999940395,707771.5,7235,WL,C,7.0
6,8.96399998664856,distr,51036.00001335144,Thu Nov 06 2025 16:59:11 GMT-0600 (Central Standard Time),708803.5,B,mone,O,e,166,1,1032.0,707771.5,7235,WL,C,7.0
6,9.081000089645386,distr,50918.999910354614,Thu Nov 06 2025 16:59:11 GMT-0600 (Central Standard Time),708920.799999997,B,money,O,y,106,1,1149.2999999970198,707771.5,7235,WL,C,7.0
6,9.531000137329102,distr,50468.9998626709,Thu Nov 06 2025 16:59:11 GMT-0600 (Central Standard Time),709371.0,B,moneyenter,O,enter,434,1,1599.5,707771.5,7235,WL,C,7.0
6,9.864000082015991,distr,50135.99991798401,Thu Nov 06 2025 16:59:11 GMT-0600 (Central Standard Time),709703.700000003,B,h,O,h,321,1,332.40000000596046,709371.299999997,7235,WL,C,8.0
6,10.031000137329102,distr,49968.9998626709,Thu Nov 06 2025 16:59:11 GMT-0600 (Central Standard Time),709870.3999999911,B,ho,O,o,150,1,499.09999999403954,709371.299999997,7235,WL,C,8.0
6,10.230000019073486,distr,49769.999980926514,Thu Nov 06 2025 16:59:11 GMT-0600 (Central Standard Time),710070.200000003,B,hot,O,t,182,1,698.9000000059605,709371.299999997,7235,WL,C,8.0
6,10.38100004196167,distr,49618.99995803833,Thu Nov 06 2025 16:59:11 GMT-0600 (Central Standard Time),710220.5,B,hote,O,e,144,1,849.2000000029802,709371.299999997,7235,WL,C,8.0
6,10.514000177383423,distr,49485.99982261658,Thu Nov 06 2025 16:59:11 GMT-0600 (Central Standard Time),710353.599999994,B,hotel,O,l,111,1,982.2999999970198,709371.299999997,7235,WL,C,8.0
6,10.897000074386597,distr,49102.9999256134,Thu Nov 06 2025 16:59:11 GMT-0600 (Central Standard Time),710736.5,B,hotelenter,O,enter,372,1,1365.2000000029802,709371.299999997,7235,WL,C,8.0
6,12.014000177383423,distr,47985.99982261658,Thu Nov 06 2025 16:59:11 GMT-0600 (Central Standard Time),711853.3999999911,B,d,O,d,1108,1,1116.699999988079,710736.700000003,7235,WL,C,9.0
6,12.11300015449524,distr,47886.99984550476,Thu Nov 06 2025 16:59:11 GMT-0600 (Central Standard Time),711952.8999999911,B,di,O,i,97,1,1216.199999988079,710736.700000003,7235,WL,C,9.0
6,12.230000019073486,distr,47769.999980926514,Thu Nov 06 2025 16:59:11 GMT-0600 (Central Standard Time),712069.799999997,B,dia,O,a,101,1,1333.0999999940395,710736.700000003,7235,WL,C,9.0
6,12.380000114440918,distr,47619.99988555908,Thu Nov 06 2025 16:59:11 GMT-0600 (Central Standard Time),712220.299999997,B,diam,O,m,144,1,1483.5999999940395,710736.700000003,7235,WL,C,9.0
6,12.546000003814697,distr,47453.9999961853,Thu Nov 06 2025 16:59:11 GMT-0600 (Central Standard Time),712386.299999997,B,diamo,O,o,145,1,1649.5999999940395,710736.700000003,7235,WL,C,9.0
6,12.629000186920166,distr,47370.999813079834,Thu Nov 06 2025 16:59:11 GMT-0600 (Central Standard Time),712469.099999994,B,diamon,O,n,75,1,1732.3999999910593,710736.700000003,7235,WL,C,9.0
6,12.96399998664856,distr,47036.00001335144,Thu Nov 06 2025 16:59:11 GMT-0600 (Central Standard Time),712803.299999997,B,diamond,O,d,318,1,2066.5999999940395,710736.700000003,7235,WL,C,9.0
6,13.196000099182129,distr,46803.99990081787,Thu Nov 06 2025 16:59:11 GMT-0600 (Central Standard Time),713035.700000003,B,diamondenter,O,enter,226,1,2299.0,710736.700000003,7235,WL,C,9.0
6,19.943000078201294,distr,40056.999921798706,Thu Nov 06 2025 16:59:11 GMT-0600 (Central Standard Time),719783.599999994,B,b,O,b,6729,1,6747.70000000298,713035.8999999911,7235,WL,C,10.0
6,20.360000133514404,distr,39639.999866485596,Thu Nov 06 2025 16:59:11 GMT-0600 (Central Standard Time),720200.3999999911,B,bu,O,u,406,1,7164.5,713035.8999999911,7235,WL,C,10.0
6,20.89300012588501,distr,39106.99987411499,Thu Nov 06 2025 16:59:11 GMT-0600 (Central Standard Time),720733.099999994,B,but,O,t,525,1,7697.20000000298,713035.8999999911,7235,WL,C,10.0
6,21.093000173568726,distr,38906.999826431274,Thu Nov 06 2025 16:59:11 GMT-0600 (Central Standard Time),720933.599999994,B,butt,O,t,192,1,7897.70000000298,713035.8999999911,7235,WL,C,10.0
6,21.325999975204468,distr,38674.00002479553,Thu Nov 06 2025 16:59:11 GMT-0600 (Central Standard Time),721166.700000003,B,butte,O,e,215,1,8130.800000011921,713035.8999999911,7235,WL,C,10.0
6,21.426000118255615,distr,38573.999881744385,Thu Nov 06 2025 16:59:11 GMT-0600 (Central Standard Time),721266.599999994,B,butter,O,r,80,1,8230.70000000298,713035.8999999911,7235,WL,C,10.0
6,22.41000008583069,distr,37589.99991416931,Thu Nov 06 2025 16:59:11 GMT-0600 (Central Standard Time),722250.8999999911,B,butterenter,O,enter,979,1,9215.0,713035.8999999911,7235,WL,C,10.0
6,26.94099998474121,distr,33059.00001525879,Thu Nov 06 2025 16:59:11 GMT-0600 (Central Standard Time),726781.3999999911,B,v,O,v,4515,1,4530.199999988079,722251.200000003,7235,WL,C,11.0
6,27.10700011253357,distr,32892.99988746643,Thu Nov 06 2025 16:59:11 GMT-0600 (Central Standard Time),726947.3999999911,B,va,O,a,152,1,4696.199999988079,722251.200000003,7235,WL,C,11.0
6,27.407000064849854,distr,32592.999935150146,Thu Nov 06 2025 16:59:11 GMT-0600 (Central Standard Time),727247.8999999911,B,val,O,l,280,1,4996.699999988079,722251.200000003,7235,WL,C,11.0
6,28.19099998474121,distr,31809.00001525879,Thu Nov 06 2025 16:59:11 GMT-0600 (Central Standard Time),728031.200000003,B,va,O,backspace,765,1,5780.0,722251.200000003,7235,WL,C,11.0
6,28.374000072479248,distr,31625.999927520752,Thu Nov 06 2025 16:59:11 GMT-0600 (Central Standard Time),728214.200000003,B,v,O,backspace,175,1,5963.0,722251.200000003,7235,WL,C,11.0
6,28.557000160217285,distr,31442.999839782715,Thu Nov 06 2025 16:59:11 GMT-0600 (Central Standard Time),728397.700000003,B,,O,backspace,176,1,6146.5,722251.200000003,7235,WL,C,11.0
6,40.95300006866455,distr,19046.99993133545,Thu Nov 06 2025 16:59:11 GMT-0600 (Central Standard Time),740793.700000003,B,h,O,h,12384,1,18542.5,722251.200000003,7235,WL,C,11.0
6,41.085999965667725,distr,18914.000034332275,Thu Nov 06 2025 16:59:11 GMT-0600 (Central Standard Time),740926.8999999911,B,ho,O,o,124,1,18675.69999998808,722251.200000003,7235,WL,C,11.0
6,41.32000017166138,distr,18679.999828338623,Thu Nov 06 2025 16:59:11 GMT-0600 (Central Standard Time),741160.700000003,B,hot,O,t,214,1,18909.5,722251.200000003,7235,WL,C,11.0
6,41.45300006866455,distr,18546.99993133545,Thu Nov 06 2025 16:59:11 GMT-0600 (Central Standard Time),741293.5,B,hote,O,e,116,1,19042.29999999702,722251.200000003,7235,WL,C,11.0
6,41.53700017929077,distr,18462.99982070923,Thu Nov 06 2025 16:59:11 GMT-0600 (Central Standard Time),741377.200000003,B,hotel,O,l,72,1,19126.0,722251.200000003,7235,WL,C,11.0
6,41.85300016403198,distr,18146.999835968018,Thu Nov 06 2025 16:59:11 GMT-0600 (Central Standard Time),741693.099999994,B,hotelenter,O,enter,301,1,19441.89999999106,722251.200000003,7235,WL,C,11.0
6,50.384000062942505,distr,9615.999937057495,Thu Nov 06 2025 16:59:11 GMT-0600 (Central Standard Time),750224.5,B,enter,O,enter,8520,1,8531.20000000298,741693.299999997,7235,WL,C,12.0
6,50.58400011062622,distr,9415.99988937378,Thu Nov 06 2025 16:59:11 GMT-0600 (Central Standard Time),750424.299999997,B,enter,O,enter,180,1,199.5,750224.799999997,7235,WL,C,13.0
6,50.75,distr,9250.0,Thu Nov 06 2025 16:59:11 GMT-0600 (Central Standard Time),750590.5,B,enter,O,enter,149,1,166.0,750424.5,7235,WL,C,14.0
6,50.950000047683716,distr,9049.999952316284,Thu Nov 06 2025 16:59:11 GMT-0600 (Central Standard Time),750790.5,B,enter,O,enter,181,1,199.70000000298023,750590.799999997,7235,WL,C,15.0
7,0.9160001277923584,immed,59083.99987220764,Thu Nov 06 2025 16:59:11 GMT-0600 (Central Standard Time),760187.799999997,A,t,O,t,903,1,916.0,759271.799999997,7235,WL,C,1.0
7,1.0500001907348633,immed,58949.99980926514,Thu Nov 06 2025 16:59:11 GMT-0600 (Central Standard Time),760321.5,A,to,O,o,114,1,1049.7000000029802,759271.799999997,7235,WL,C,1.0
7,1.1319999694824219,immed,58868.00003051758,Thu Nov 06 2025 16:59:11 GMT-0600 (Central Standard Time),760403.8999999911,A,tow,O,w,69,1,1132.0999999940395,759271.799999997,7235,WL,C,1.0
7,1.3489999771118164,immed,58651.00002288818,Thu Nov 06 2025 16:59:11 GMT-0600 (Central Standard Time),760620.5,A,towe,O,e,209,1,1348.7000000029802,759271.799999997,7235,WL,C,1.0
7,1.4490001201629639,immed,58550.999879837036,Thu Nov 06 2025 16:59:11 GMT-0600 (Central Standard Time),760720.5,A,tower,O,r,89,1,1448.7000000029802,759271.799999997,7235,WL,C,1.0
7,1.7820000648498535,immed,58217.99993515015,Thu Nov 06 2025 16:59:11 GMT-0600 (Central Standard Time),761053.599999994,A,towerenter,O,enter,325,1,1781.7999999970198,759271.799999997,7235,WL,C,1.0
7,2.2160000801086426,immed,57783.99991989136,Thu Nov 06 2025 16:59:11 GMT-0600 (Central Standard Time),761487.099999994,A,q,O,q,416,1,433.29999999701977,761053.799999997,7235,WL,C,2.0
7,2.2820000648498535,immed,57717.99993515015,Thu Nov 06 2025 16:59:11 GMT-0600 (Central Standard Time),761553.799999997,A,qu,O,u,55,1,500.0,761053.799999997,7235,WL,C,2.0
7,2.4660000801086426,immed,57533.99991989136,Thu Nov 06 2025 16:59:11 GMT-0600 (Central Standard Time),761737.5,A,que,O,e,170,1,683.7000000029802,761053.799999997,7235,WL,C,2.0
7,2.615000009536743,immed,57384.99999046326,Thu Nov 06 2025 16:59:11 GMT-0600 (Central Standard Time),761886.200000003,A,quee,O,e,140,1,832.4000000059605,761053.799999997,7235,WL,C,2.0
7,2.7160000801086426,immed,57283.99991989136,Thu Nov 06 2025 16:59:11 GMT-0600 (Central Standard Time),761987.700000003,A,queen,O,n,95,1,933.9000000059605,761053.799999997,7235,WL,C,2.0
7,3.065999984741211,immed,56934.00001525879,Thu Nov 06 2025 16:59:11 GMT-0600 (Central Standard Time),762337.299999997,A,queenenter,O,enter,330,1,1283.5,761053.799999997,7235,WL,C,2.0
7,3.366000175476074,immed,56633.999824523926,Thu Nov 06 2025 16:59:11 GMT-0600 (Central Standard Time),762637.099999994,A,s,O,s,291,1,299.5,762337.599999994,7235,WL,C,3.0
7,3.5160000324249268,immed,56483.99996757507,Thu Nov 06 2025 16:59:11 GMT-0600 (Central Standard Time),762787.5,A,su,O,u,130,1,449.90000000596046,762337.599999994,7235,WL,C,3.0
7,3.815999984741211,immed,56184.00001525879,Thu Nov 06 2025 16:59:11 GMT-0600 (Central Standard Time),763087.5,A,sug,O,g,290,1,749.9000000059605,762337.599999994,7235,WL,C,3.0
7,3.998000144958496,immed,56001.999855041504,Thu Nov 06 2025 16:59:11 GMT-0600 (Central Standard Time),763270.0,A,suga,O,a,165,1,932.4000000059605,762337.599999994,7235,WL,C,3.0
7,4.398000001907349,immed,55601.99999809265,Thu Nov 06 2025 16:59:11 GMT-0600 (Central Standard Time),763669.8999999911,A,sugaenter,O,enter,383,1,1332.2999999970198,762337.599999994,7235,WL,C,3.0
7,5.88100004196167,immed,54118.99995803833,Thu Nov 06 2025 16:59:11 GMT-0600 (Central Standard Time),765152.700000003,A,d,O,d,1464,1,1482.7000000029802,763670.0,7235,WL,C,4.0
7,5.998000144958496,immed,54001.999855041504,Thu Nov 06 2025 16:59:11 GMT-0600 (Central Standard Time),765269.3999999911,A,do,O,o,101,1,1599.3999999910593,763670.0,7235,WL,C,4.0
7,6.131999969482422,immed,53868.00003051758,Thu Nov 06 2025 16:59:11 GMT-0600 (Central Standard Time),765403.700000003,A,doc,O,c,127,1,1733.7000000029802,763670.0,7235,WL,C,4.0
7,6.38100004196167,immed,53618.99995803833,Thu Nov 06 2025 16:59:11 GMT-0600 (Central Standard Time),765652.599999994,A,doct,O,t,242,1,1982.5999999940395,763670.0,7235,WL,C,4.0
7,6.565999984741211,immed,53434.00001525879,Thu Nov 06 2025 16:59:11 GMT-0600 (Central Standard Time),765837.8999999911,A,docto,O,o,168,1,2167.8999999910593,763670.0,7235,WL,C,4.0
7,6.982000112533569,immed,53017.99988746643,Thu Nov 06 2025 16:59:11 GMT-0600 (Central Standard Time),766253.200000003,A,doctor,O,r,399,1,2583.2000000029802,763670.0,7235,WL,C,4.0
7,7.865000009536743,immed,52134.99999046326,Thu Nov 06 2025 16:59:11 GMT-0600 (Central Standard Time),767136.299999997,A,doctorenter,O,enter,864,1,3466.2999999970198,763670.0,7235,WL,C,4.0
7,9.014000177383423,immed,50985.99982261658,Thu Nov 06 2025 16:59:11 GMT-0600 (Central Standard Time),768285.3999999911,A,w,O,w,1131,1,1148.8999999910593,767136.5,7235,WL,C,5.0
7,9.180999994277954,immed,50819.000005722046,Thu Nov 06 2025 16:59:11 GMT-0600 (Central Standard Time),768452.0,A,wh,O,h,160,1,1315.5,767136.5,7235,WL,C,5.0
7,9.27999997138977,immed,50720.00002861023,Thu Nov 06 2025 16:59:11 GMT-0600 (Central Standard Time),768551.3999999911,A,whe,O,e,90,1,1414.8999999910593,767136.5,7235,WL,C,5.0
7,9.578999996185303,immed,50421.0000038147,Thu Nov 06 2025 16:59:11 GMT-0600 (Central Standard Time),768850.799999997,A,whea,O,a,294,1,1714.2999999970198,767136.5,7235,WL,C,5.0
7,9.646000146865845,immed,50353.999853134155,Thu Nov 06 2025 16:59:11 GMT-0600 (Central Standard Time),768917.799999997,A,wheat,O,t,51,1,1781.2999999970198,767136.5,7235,WL,C,5.0
7,9.980000019073486,immed,50019.999980926514,Thu Nov 06 2025 16:59:11 GMT-0600 (Central Standard Time),769251.700000003,A,wheatenter,O,enter,328,1,2115.2000000029802,767136.5,7235,WL,C,5.0
7,10.246999979019165,immed,49753.000020980835,Thu Nov 06 2025 16:59:11 GMT-0600 (Central Standard Time),769518.599999994,A,c,O,c,248,1,266.59999999403954,769252.0,7235,WL,C,6.0
7,10.313000202178955,immed,49686.999797821045,Thu Nov 06 2025 16:59:11 GMT-0600 (Central Standard Time),769584.200000003,A,co,O,o,55,1,332.20000000298023,769252.0,7235,WL,C,6.0
7,10.496000051498413,immed,49503.99994850159,Thu Nov 06 2025 16:59:11 GMT-0600 (Central Standard Time),769767.799999997,A,cor,O,r,165,1,515.7999999970198,769252.0,7235,WL,C,6.0
7,10.61300015449524,immed,49386.99984550476,Thu Nov 06 2025 16:59:11 GMT-0600 (Central Standard Time),769884.599999994,A,corn,O,n,102,1,632.5999999940395,769252.0,7235,WL,C,6.0
7,10.963000059127808,immed,49036.99994087219,Thu Nov 06 2025 16:59:11 GMT-0600 (Central Standard Time),770234.099999994,A,cornenter,O,enter,337,1,982.0999999940395,769252.0,7235,WL,C,6.0
7,11.17900013923645,immed,48820.99986076355,Thu Nov 06 2025 16:59:11 GMT-0600 (Central Standard Time),770450.5,A,s,O,s,201,1,216.1000000089407,770234.3999999911,7235,WL,C,7.0
7,11.330000162124634,immed,48669.999837875366,Thu Nov 06 2025 16:59:11 GMT-0600 (Central Standard Time),770601.200000003,A,sh,O,h,131,1,366.80000001192093,770234.3999999911,7235,WL,C,7.0
7,11.42900013923645,immed,48570.99986076355,Thu Nov 06 2025 16:59:11 GMT-0600 (Central Standard Time),770700.8999999911,A,sho,O,o,85,1,466.5,770234.3999999911,7235,WL,C,7.0
7,11.529000043869019,immed,48470.99995613098,Thu Nov 06 2025 16:59:11 GMT-0600 (Central Standard Time),770800.700000003,A,shor,O,r,97,1,566.3000000119209,770234.3999999911,7235,WL,C,7.0
7,11.680000066757202,immed,48319.9999332428,Thu Nov 06 2025 16:59:11 GMT-0600 (Central Standard Time),770951.200000003,A,shore,O,e,141,1,716.8000000119209,770234.3999999911,7235,WL,C,7.0
7,12.462000131607056,immed,47537.999868392944,Thu Nov 06 2025 16:59:11 GMT-0600 (Central Standard Time),771733.700000003,A,shoreenter,O,enter,775,1,1499.300000011921,770234.3999999911,7235,WL,C,7.0
7,13.162000179290771,immed,46837.99982070923,Thu Nov 06 2025 16:59:11 GMT-0600 (Central Standard Time),772433.599999994,A,f,O,f,687,1,699.5999999940395,771734.0,7235,WL,C,8.0
7,13.26200008392334,immed,46737.99991607666,Thu Nov 06 2025 16:59:11 GMT-0600 (Central Standard Time),772533.599999994,A,fl,O,l,92,1,799.5999999940395,771734.0,7235,WL,C,8.0
7,13.394999980926514,immed,46605.000019073486,Thu Nov 06 2025 16:59:11 GMT-0600 (Central Standard Time),772666.3999999911,A,fla,O,a,117,1,932.3999999910593,771734.0,7235,WL,C,8.0
7,13.545000076293945,immed,46454.999923706055,Thu Nov 06 2025 16:59:11 GMT-0600 (Central Standard Time),772816.299999997,A,flag,O,g,139,1,1082.2999999970198,771734.0,7235,WL,C,8.0
7,13.696000099182129,immed,46303.99990081787,Thu Nov 06 2025 16:59:11 GMT-0600 (Central Standard Time),772967.799999997,A,flagenter,O,enter,142,1,1233.7999999970198,771734.0,7235,WL,C,8.0
7,14.09600019454956,immed,45903.99980545044,Thu Nov 06 2025 16:59:11 GMT-0600 (Central Standard Time),773367.299999997,A,c,O,c,380,1,399.29999999701977,772968.0,7235,WL,C,9.0
7,14.245000123977661,immed,45754.99987602234,Thu Nov 06 2025 16:59:11 GMT-0600 (Central Standard Time),773516.099999994,A,ca,O,a,143,1,548.0999999940395,772968.0,7235,WL,C,9.0
7,14.312000036239624,immed,45687.999963760376,Thu Nov 06 2025 16:59:11 GMT-0600 (Central Standard Time),773584.0,A,cam,O,m,49,1,616.0,772968.0,7235,WL,C,9.0
7,14.42799997329712,immed,45572.00002670288,Thu Nov 06 2025 16:59:11 GMT-0600 (Central Standard Time),773699.799999997,A,camp,O,p,109,1,731.7999999970198,772968.0,7235,WL,C,9.0
7,14.795000076293945,immed,45204.999923706055,Thu Nov 06 2025 16:59:11 GMT-0600 (Central Standard Time),774066.299999997,A,campenter,O,enter,352,1,1098.2999999970198,772968.0,7235,WL,C,9.0
7,15.412000179290771,immed,44587.99982070923,Thu Nov 06 2025 16:59:11 GMT-0600 (Central Standard Time),774683.3999999911,A,h,O,h,602,1,616.8999999910593,774066.5,7235,WL,C,10.0
7,15.51200008392334,immed,44487.99991607666,Thu Nov 06 2025 16:59:11 GMT-0600 (Central Standard Time),774783.5,A,ho,O,o,90,1,717.0,774066.5,7235,WL,C,10.0
7,15.644999980926514,immed,44355.000019073486,Thu Nov 06 2025 16:59:11 GMT-0600 (Central Standard Time),774916.799999997,A,hom,O,m,118,1,850.2999999970198,774066.5,7235,WL,C,10.0
7,15.746000051498413,immed,44253.99994850159,Thu Nov 06 2025 16:59:11 GMT-0600 (Central Standard Time),775017.099999994,A,home,O,e,81,1,950.5999999940395,774066.5,7235,WL,C,10.0
7,16.045000076293945,immed,43954.999923706055,Thu Nov 06 2025 16:59:11 GMT-0600 (Central Standard Time),775316.8999999911,A,homeenter,O,enter,283,1,1250.3999999910593,774066.5,7235,WL,C,10.0
7,16.294000148773193,immed,43705.99985122681,Thu Nov 06 2025 16:59:11 GMT-0600 (Central Standard Time),775566.0,A,b,O,b,232,1,248.90000000596046,775317.099999994,7235,WL,C,11.0
7,16.444000005722046,immed,43555.999994277954,Thu Nov 06 2025 16:59:11 GMT-0600 (Central Standard Time),775716.0,A,bo,O,o,136,1,398.90000000596046,775317.099999994,7235,WL,C,11.0
7,16.59500002861023,immed,43404.99997138977,Thu Nov 06 2025 16:59:11 GMT-0600 (Central Standard Time),775866.599999994,A,boy,O,y,138,1,549.5,775317.099999994,7235,WL,C,11.0
7,16.99400019645691,immed,43005.99980354309,Thu Nov 06 2025 16:59:11 GMT-0600 (Central Standard Time),776266.099999994,A,boyenter,O,enter,396,1,949.0,775317.099999994,7235,WL,C,11.0
7,18.37600016593933,immed,41623.99983406067,Thu Nov 06 2025 16:59:11 GMT-0600 (Central Standard Time),777648.200000003,A,n,O,n,1362,1,1381.9000000059605,776266.299999997,7235,WL,C,12.0
7,18.478000164031982,immed,41521.99983596802,Thu Nov 06 2025 16:59:11 GMT-0600 (Central Standard Time),777750.099999994,A,na,O,a,94,1,1483.7999999970198,776266.299999997,7235,WL,C,12.0
7,18.5770001411438,immed,41422.9998588562,Thu Nov 06 2025 16:59:11 GMT-0600 (Central Standard Time),777848.799999997,A,nai,O,i,79,1,1582.5,776266.299999997,7235,WL,C,12.0
7,18.743000030517578,immed,41256.99996948242,Thu Nov 06 2025 16:59:11 GMT-0600 (Central Standard Time),778015.299999997,A,nail,O,l,156,1,1749.0,776266.299999997,7235,WL,C,12.0
7,19.509999990463257,immed,40490.00000953674,Thu Nov 06 2025 16:59:11 GMT-0600 (Central Standard Time),778782.200000003,A,nailenter,O,enter,751,1,2515.9000000059605,776266.299999997,7235,WL,C,12.0
7,22.058000087738037,immed,37941.99991226196,Thu Nov 06 2025 16:59:11 GMT-0600 (Central Standard Time),781330.599999994,A,d,O,d,2542,1,2548.0999999940395,778782.5,7235,WL,C,13.0
7,22.2260000705719,immed,37773.9999294281,Thu Nov 06 2025 16:59:11 GMT-0600 (Central Standard Time),781497.8999999911,A,do,O,o,155,1,2715.3999999910593,778782.5,7235,WL,C,13.0
7,22.725000143051147,immed,37274.99985694885,Thu Nov 06 2025 16:59:11 GMT-0600 (Central Standard Time),781997.299999997,A,doc,O,c,491,1,3214.7999999970198,778782.5,7235,WL,C,13.0
7,22.907999992370605,immed,37092.000007629395,Thu Nov 06 2025 16:59:11 GMT-0600 (Central Standard Time),782180.5,A,doct,O,t,168,1,3398.0,778782.5,7235,WL,C,13.0
7,22.992000102996826,immed,37007.999897003174,Thu Nov 06 2025 16:59:11 GMT-0600 (Central Standard Time),782264.200000003,A,docto,O,o,66,1,3481.7000000029802,778782.5,7235,WL,C,13.0
7,23.10800004005432,immed,36891.99995994568,Thu Nov 06 2025 16:59:11 GMT-0600 (Central Standard Time),782380.299999997,A,doctor,O,r,102,1,3597.7999999970198,778782.5,7235,WL,C,13.0
7,25.473999977111816,immed,34526.00002288818,Thu Nov 06 2025 16:59:11 GMT-0600 (Central Standard Time),784746.599999994,A,doctorenter,O,enter,2362,1,5964.0999999940395,778782.5,7235,WL,C,13.0
7,26.27500009536743,immed,33724.99990463257,Thu Nov 06 2025 16:59:11 GMT-0600 (Central Standard Time),785546.8999999911,A,f,O,f,795,1,800.0999999940395,784746.799999997,7235,WL,C,14.0
7,26.407000064849854,immed,33592.99993515015,Thu Nov 06 2025 16:59:11 GMT-0600 (Central Standard Time),785679.5,A,fl,O,l,123,1,932.7000000029802,784746.799999997,7235,WL,C,14.0
