acc_sum,block,block_c,change,condition,correct,correct_response,datetime,endtime,face,project,response,response_time,row_sel,session_number,start_end,starttime,subject_id,task,task_vers,trial
0,prac,1,,1-Back,,,Fri May 09 2025 14:02:06 GMT-0500 (Central Daylight Time),,124_o_f_d_a.png,I,space,3741,1,2,,,8030,VNB,A,0
1,prac,1,0.0,1-Back,1,m,Fri May 09 2025 14:02:06 GMT-0500 (Central Daylight Time),110052.1000000001,071_y_f_n_a.png,I,m,990,2,2,1851.5,108200.6000000001,8030,VNB,A,1
1,prac,1,0.0,1-Back,0,m,Fri May 09 2025 14:02:06 GMT-0500 (Central Daylight Time),112490.80000000028,165_m_m_h_a.png,I,z,1617,3,2,2428.7000000001863,110062.1000000001,8030,VNB,A,2
2,prac,1,0.0,1-Back,1,m,Fri May 09 2025 14:02:06 GMT-0500 (Central Daylight Time),114256.90000000037,109_y_m_d_a.png,I,m,952,4,2,1758.8000000002794,112498.1000000001,8030,VNB,A,3
3,prac,1,0.0,1-Back,1,m,Fri May 09 2025 14:02:06 GMT-0500 (Central Daylight Time),116489.80000000028,124_o_f_n_a.png,I,m,1402,5,2,2225.600000000093,114264.20000000019,8030,VNB,A,4
4,prac,1,1.0,1-Back,1,z,Fri May 09 2025 14:02:06 GMT-0500 (Central Daylight Time),118390.20000000019,109_y_m_n_a.png,I,z,1104,6,2,1892.7000000001863,116497.5,8030,VNB,A,5
5,prac,1,0.0,1-Back,1,m,Fri May 09 2025 14:02:06 GMT-0500 (Central Daylight Time),120138.30000000028,039_o_m_h_a.png,I,m,939,7,2,1739.8000000002794,118398.5,8030,VNB,A,6
5,prac,1,0.0,1-Back,0,m,Fri May 09 2025 14:02:06 GMT-0500 (Central Daylight Time),122421.20000000019,139_m_f_d_a.png,I,z,1470,8,2,2275.2000000001863,120146.0,8030,VNB,A,7
5,prac,1,1.0,1-Back,0,z,Fri May 09 2025 14:02:06 GMT-0500 (Central Daylight Time),124770.40000000037,071_y_f_d_a.png,I,m,1549,9,2,2341.9000000003725,122428.5,8030,VNB,A,8
6,prac,1,0.0,1-Back,1,m,Fri May 09 2025 14:02:06 GMT-0500 (Central Daylight Time),127019.5,165_m_m_n_a.png,I,m,1445,10,2,2241.1999999997206,124778.30000000028,8030,VNB,A,9
6,prac,1,0.0,1-Back,0,m,Fri May 09 2025 14:02:06 GMT-0500 (Central Daylight Time),129552.30000000028,124_o_f_h_a.png,I,z,1707,11,2,2525.5,127026.80000000028,8030,VNB,A,10
7,prac,1,0.0,1-Back,1,m,Fri May 09 2025 14:02:06 GMT-0500 (Central Daylight Time),132319.2000000002,109_y_m_d_a.png,I,m,1985,12,2,2759.7000000001863,129559.5,8030,VNB,A,11
0,prac,2,0.0,1-Back,,,Fri May 09 2025 14:02:06 GMT-0500 (Central Daylight Time),132319.2000000002,124_o_f_d_a.png,I,a,11054,1,2,2759.7000000001863,129559.5,8030,VNB,A,0
1,prac,2,0.0,1-Back,1,m,Fri May 09 2025 14:02:06 GMT-0500 (Central Daylight Time),148596.2000000002,071_y_f_n_a.png,I,m,1369,2,2,2175.0,146421.2000000002,8030,VNB,A,1
1,prac,2,0.0,1-Back,0,m,Fri May 09 2025 14:02:06 GMT-0500 (Central Daylight Time),151062.1000000001,165_m_m_h_a.png,I,z,1659,3,2,2458.2999999998137,148603.80000000028,8030,VNB,A,2
2,prac,2,0.0,1-Back,1,m,Fri May 09 2025 14:02:06 GMT-0500 (Central Daylight Time),153527.90000000037,109_y_m_d_a.png,I,m,1676,4,2,2458.5,151069.40000000037,8030,VNB,A,3
3,prac,2,0.0,1-Back,1,m,Fri May 09 2025 14:02:06 GMT-0500 (Central Daylight Time),155827.40000000037,124_o_f_n_a.png,I,m,1458,5,2,2292.100000000093,153535.30000000028,8030,VNB,A,4
3,prac,2,1.0,1-Back,0,z,Fri May 09 2025 14:02:06 GMT-0500 (Central Daylight Time),157959.7000000002,109_y_m_n_a.png,I,m,1327,6,2,2125.2000000001863,155834.5,8030,VNB,A,5
3,prac,2,0.0,1-Back,0,m,Fri May 09 2025 14:02:06 GMT-0500 (Central Daylight Time),160759.2000000002,039_o_m_h_a.png,I,None,2001,7,2,2792.100000000093,157967.1000000001,8030,VNB,A,6
3,prac,2,0.0,1-Back,0,m,Fri May 09 2025 14:02:06 GMT-0500 (Central Daylight Time),163574.7000000002,139_m_f_d_a.png,I,None,2016,8,2,2808.2999999998137,160766.40000000037,8030,VNB,A,7
3,prac,2,1.0,1-Back,0,z,Fri May 09 2025 14:02:06 GMT-0500 (Central Daylight Time),166390.5,071_y_f_d_a.png,I,None,2017,9,2,2808.5,163582.0,8030,VNB,A,8
3,prac,2,0.0,1-Back,0,m,Fri May 09 2025 14:02:06 GMT-0500 (Central Daylight Time),169206.40000000037,165_m_m_n_a.png,I,None,2008,10,2,2808.8000000002794,166397.6000000001,8030,VNB,A,9
3,prac,2,0.0,1-Back,0,m,Fri May 09 2025 14:02:06 GMT-0500 (Central Daylight Time),172038.90000000037,124_o_f_h_a.png,I,None,2014,11,2,2824.3000000002794,169214.6000000001,8030,VNB,A,10
3,prac,2,0.0,1-Back,0,m,Fri May 09 2025 14:02:06 GMT-0500 (Central Daylight Time),174821.30000000028,109_y_m_d_a.png,I,None,2009,12,2,2775.2000000001863,172046.1000000001,8030,VNB,A,11
0,test,1,0.0,1-Back,,,Fri May 09 2025 14:02:06 GMT-0500 (Central Daylight Time),174821.30000000028,071_y_f_d_a.png,I,space,11796,1,2,2775.2000000001863,172046.1000000001,8030,VNB,A,0
1,test,1,0.0,1-Back,1,m,Fri May 09 2025 14:02:06 GMT-0500 (Central Daylight Time),198963.40000000037,139_m_f_n_a.png,I,m,1281,2,2,2290.600000000093,196672.80000000028,8030,VNB,A,1
2,test,1,0.0,1-Back,1,m,Fri May 09 2025 14:02:06 GMT-0500 (Central Daylight Time),201329.80000000028,039_o_m_h_a.png,I,m,1348,3,2,2360.600000000093,198969.2000000002,8030,VNB,A,2
3,test,1,1.0,1-Back,1,z,Fri May 09 2025 14:02:06 GMT-0500 (Central Daylight Time),203195.6000000001,165_m_m_h_a.png,I,z,839,4,2,1858.2999999998137,201337.30000000028,8030,VNB,A,3
4,test,1,0.0,1-Back,1,m,Fri May 09 2025 14:02:06 GMT-0500 (Central Daylight Time),205261.6000000001,124_o_f_n_a.png,I,m,1046,5,2,2059.899999999907,203201.7000000002,8030,VNB,A,4
5,test,1,0.0,1-Back,1,m,Fri May 09 2025 14:02:06 GMT-0500 (Central Daylight Time),207061.1000000001,109_y_m_d_a.png,I,m,772,6,2,1792.5,205268.6000000001,8030,VNB,A,5
6,test,1,1.0,1-Back,1,z,Fri May 09 2025 14:02:06 GMT-0500 (Central Daylight Time),209710.40000000037,139_m_f_d_a.png,I,z,1619,7,2,2642.7000000001863,207067.7000000002,8030,VNB,A,6
7,test,1,0.0,1-Back,1,m,Fri May 09 2025 14:02:06 GMT-0500 (Central Daylight Time),211809.80000000028,071_y_f_h_a.png,I,m,1081,8,2,2093.399999999907,209716.40000000037,8030,VNB,A,7
8,test,1,0.0,1-Back,1,m,Fri May 09 2025 14:02:06 GMT-0500 (Central Daylight Time),213642.1000000001,039_o_m_n_a.png,I,m,815,9,2,1826.0,211816.1000000001,8030,VNB,A,8
9,test,1,0.0,1-Back,1,m,Fri May 09 2025 14:02:06 GMT-0500 (Central Daylight Time),215841.7000000002,109_y_m_h_a.png,I,m,1174,10,2,2193.2000000001863,213648.5,8030,VNB,A,9
10,test,1,0.0,1-Back,1,m,Fri May 09 2025 14:02:06 GMT-0500 (Central Daylight Time),217858.1000000001,039_o_m_d_a.png,I,m,999,11,2,2010.2999999998137,215847.80000000028,8030,VNB,A,10
11,test,1,1.0,1-Back,1,z,Fri May 09 2025 14:02:06 GMT-0500 (Central Daylight Time),219873.80000000028,124_o_f_d_a.png,I,z,984,12,2,2009.1000000000931,217864.7000000002,8030,VNB,A,11
12,test,1,0.0,1-Back,1,m,Fri May 09 2025 14:02:06 GMT-0500 (Central Daylight Time),222006.40000000037,165_m_m_n_a.png,I,m,1103,13,2,2126.3000000002794,219880.1000000001,8030,VNB,A,12
12,test,1,1.0,1-Back,0,z,Fri May 09 2025 14:02:06 GMT-0500 (Central Daylight Time),224139.30000000028,071_y_f_n_a.png,I,m,1114,14,2,2126.3000000002794,222013.0,8030,VNB,A,13
13,test,1,0.0,1-Back,1,m,Fri May 09 2025 14:02:06 GMT-0500 (Central Daylight Time),225888.5,139_m_f_h_a.png,I,m,717,15,2,1741.5999999996275,224146.90000000037,8030,VNB,A,14
13,test,1,0.0,1-Back,0,m,Fri May 09 2025 14:02:06 GMT-0500 (Central Daylight Time),228454.2000000002,165_m_m_d_a.png,I,z,1543,16,2,2559.7000000001863,225894.5,8030,VNB,A,15
14,test,1,0.0,1-Back,1,m,Fri May 09 2025 14:02:06 GMT-0500 (Central Daylight Time),230353.7999999998,109_y_m_n_a.png,I,m,882,17,2,1893.0999999996275,228460.7000000002,8030,VNB,A,16
15,test,1,0.0,1-Back,1,m,Fri May 09 2025 14:02:06 GMT-0500 (Central Daylight Time),232420.0,124_o_f_h_a.png,I,m,1047,18,2,2059.899999999441,230360.10000000056,8030,VNB,A,17
0,test,2,0.0,1-Back,,,Fri May 09 2025 14:02:06 GMT-0500 (Central Daylight Time),232420.0,109_y_m_n_a.png,I,space,2605,1,2,2059.899999999441,230360.10000000056,8030,VNB,A,0
1,test,2,0.0,1-Back,1,m,Fri May 09 2025 14:02:06 GMT-0500 (Central Daylight Time),239001.2999999998,071_y_f_h_a.png,I,m,924,2,2,1942.8999999994412,237058.40000000037,8030,VNB,A,1
1,test,2,1.0,1-Back,0,m,Fri May 09 2025 14:02:06 GMT-0500 (Central Daylight Time),241183.90000000037,039_o_m_n_a.png,I,z,1160,3,2,2175.9000000003725,239008.0,8030,VNB,A,2
2,test,2,0.0,1-Back,1,m,Fri May 09 2025 14:02:06 GMT-0500 (Central Daylight Time),243566.40000000037,139_m_f_d_a.png,I,m,1353,4,2,2376.5,241189.90000000037,8030,VNB,A,3
3,test,2,0.0,1-Back,1,z,Fri May 09 2025 14:02:06 GMT-0500 (Central Daylight Time),245549.10000000056,165_m_m_d_a.png,I,z,963,5,2,1976.300000000745,243572.7999999998,8030,VNB,A,4
4,test,2,0.0,1-Back,1,m,Fri May 09 2025 14:02:06 GMT-0500 (Central Daylight Time),247515.2000000002,109_y_m_h_a.png,I,m,947,6,2,1960.2000000001863,245555.0,8030,VNB,A,5
5,test,2,1.0,1-Back,1,z,Fri May 09 2025 14:02:06 GMT-0500 (Central Daylight Time),249464.5,124_o_f_h_a.png,I,z,926,7,2,1942.7000000001863,247521.7999999998,8030,VNB,A,6
6,test,2,0.0,1-Back,1,m,Fri May 09 2025 14:02:06 GMT-0500 (Central Daylight Time),251313.60000000056,139_m_f_n_a.png,I,m,824,8,2,1842.9000000003725,249470.7000000002,8030,VNB,A,7
7,test,2,0.0,1-Back,1,m,Fri May 09 2025 14:02:06 GMT-0500 (Central Daylight Time),253213.40000000037,071_y_f_d_a.png,I,m,878,9,2,1892.2000000001863,251321.2000000002,8030,VNB,A,8
8,test,2,0.0,1-Back,1,m,Fri May 09 2025 14:02:06 GMT-0500 (Central Daylight Time),254945.90000000037,165_m_m_n_a.png,I,m,715,10,2,1725.9000000003725,253220.0,8030,VNB,A,9
9,test,2,1.0,1-Back,1,m,Fri May 09 2025 14:02:06 GMT-0500 (Central Daylight Time),256612.0,139_m_f_h_a.png,I,m,646,11,2,1659.5999999996275,254952.40000000037,8030,VNB,A,10
10,test,2,0.0,1-Back,1,z,Fri May 09 2025 14:02:06 GMT-0500 (Central Daylight Time),258428.5,039_o_m_h_a.png,I,z,797,12,2,1810.2999999998137,256618.2000000002,8030,VNB,A,11
11,test,2,0.0,1-Back,1,m,Fri May 09 2025 14:02:06 GMT-0500 (Central Daylight Time),260494.40000000037,109_y_m_d_a.png,I,m,1044,13,2,2059.4000000003725,258435.0,8030,VNB,A,12
12,test,2,0.0,1-Back,1,m,Fri May 09 2025 14:02:06 GMT-0500 (Central Daylight Time),262343.9000000004,124_o_f_n_a.png,I,m,827,14,2,1843.5,260500.40000000037,8030,VNB,A,13
13,test,2,0.0,1-Back,1,z,Fri May 09 2025 14:02:06 GMT-0500 (Central Daylight Time),263976.7000000002,071_y_f_n_a.png,I,z,609,15,2,1626.2999999998137,262350.4000000004,8030,VNB,A,14
14,test,2,1.0,1-Back,1,m,Fri May 09 2025 14:02:06 GMT-0500 (Central Daylight Time),265859.2000000002,165_m_m_h_a.png,I,m,857,16,2,1875.7000000001863,263983.5,8030,VNB,A,15
15,test,2,0.0,1-Back,1,m,Fri May 09 2025 14:02:06 GMT-0500 (Central Daylight Time),267942.2999999998,124_o_f_d_a.png,I,m,1054,17,2,2076.7999999998137,265865.5,8030,VNB,A,16
16,test,2,1.0,1-Back,1,z,Fri May 09 2025 14:02:06 GMT-0500 (Central Daylight Time),269741.4000000004,039_o_m_d_a.png,I,z,779,18,2,1792.7999999998137,267948.60000000056,8030,VNB,A,17
0,test,3,1.0,1-Back,,,Fri May 09 2025 14:02:06 GMT-0500 (Central Daylight Time),269741.4000000004,124_o_f_h_a.png,I,space,1555,1,2,1792.7999999998137,267948.60000000056,8030,VNB,A,0
1,test,3,0.0,1-Back,1,m,Fri May 09 2025 14:02:06 GMT-0500 (Central Daylight Time),275206.5,139_m_f_d_a.png,I,m,820,2,2,1843.0999999996275,273363.4000000004,8030,VNB,A,1
2,test,3,1.0,1-Back,1,m,Fri May 09 2025 14:02:06 GMT-0500 (Central Daylight Time),276872.60000000056,165_m_m_n_a.png,I,m,634,3,2,1659.4000000003725,275213.2000000002,8030,VNB,A,2
3,test,3,0.0,1-Back,1,z,Fri May 09 2025 14:02:06 GMT-0500 (Central Daylight Time),278888.5,124_o_f_n_a.png,I,z,984,4,2,2010.0,276878.5,8030,VNB,A,3
4,test,3,1.0,1-Back,1,m,Fri May 09 2025 14:02:06 GMT-0500 (Central Daylight Time),281071.4000000004,039_o_m_d_a.png,I,m,1160,5,2,2176.0,278895.4000000004,8030,VNB,A,4
5,test,3,0.0,1-Back,1,m,Fri May 09 2025 14:02:06 GMT-0500 (Central Daylight Time),282970.60000000056,071_y_f_h_a.png,I,m,874,6,2,1892.7000000001863,281077.9000000004,8030,VNB,A,5
6,test,3,0.0,1-Back,1,z,Fri May 09 2025 14:02:06 GMT-0500 (Central Daylight Time),284753.60000000056,109_y_m_h_a.png,I,z,765,7,2,1774.6000000005588,282979.0,8030,VNB,A,6
7,test,3,0.0,1-Back,1,m,Fri May 09 2025 14:02:06 GMT-0500 (Central Daylight Time),286952.9000000004,139_m_f_n_a.png,I,m,1167,8,2,2192.4000000003725,284760.5,8030,VNB,A,7
8,test,3,0.0,1-Back,1,m,Fri May 09 2025 14:02:06 GMT-0500 (Central Daylight Time),288652.2000000002,071_y_f_d_a.png,I,m,680,9,2,1692.5999999996275,286959.60000000056,8030,VNB,A,8
9,test,3,1.0,1-Back,1,m,Fri May 09 2025 14:02:06 GMT-0500 (Central Daylight Time),290485.0,039_o_m_n_a.png,I,m,813,10,2,1826.3999999994412,288658.60000000056,8030,VNB,A,9
10,test,3,0.0,1-Back,1,m,Fri May 09 2025 14:02:06 GMT-0500 (Central Daylight Time),292317.9000000004,165_m_m_h_a.png,I,m,804,11,2,1826.7999999998137,290491.10000000056,8030,VNB,A,10
11,test,3,0.0,1-Back,1,z,Fri May 09 2025 14:02:06 GMT-0500 (Central Daylight Time),294050.7000000002,139_m_f_h_a.png,I,z,707,12,2,1726.9000000003725,292323.7999999998,8030,VNB,A,11
12,test,3,1.0,1-Back,1,m,Fri May 09 2025 14:02:06 GMT-0500 (Central Daylight Time),295883.4000000004,124_o_f_d_a.png,I,m,806,13,2,1826.2000000001863,294057.2000000002,8030,VNB,A,12
13,test,3,0.0,1-Back,1,z,Fri May 09 2025 14:02:06 GMT-0500 (Central Daylight Time),297766.0,165_m_m_d_a.png,I,z,861,14,2,1876.0,295890.0,8030,VNB,A,13
14,test,3,0.0,1-Back,1,m,Fri May 09 2025 14:02:06 GMT-0500 (Central Daylight Time),299615.4000000004,109_y_m_n_a.png,I,m,826,15,2,1842.7000000001863,297772.7000000002,8030,VNB,A,14
15,test,3,1.0,1-Back,1,m,Fri May 09 2025 14:02:06 GMT-0500 (Central Daylight Time),301365.0,039_o_m_h_a.png,I,m,722,16,2,1743.0999999996275,299621.9000000004,8030,VNB,A,15
16,test,3,0.0,1-Back,1,m,Fri May 09 2025 14:02:06 GMT-0500 (Central Daylight Time),303081.10000000056,109_y_m_d_a.png,I,m,683,17,2,1709.7000000001863,301371.4000000004,8030,VNB,A,16
17,test,3,1.0,1-Back,1,m,Fri May 09 2025 14:02:06 GMT-0500 (Central Daylight Time),305130.2000000002,071_y_f_n_a.png,I,m,1032,18,2,2042.7999999998137,303087.4000000004,8030,VNB,A,17
0,test,4,1.0,1-Back,,,Fri May 09 2025 14:02:06 GMT-0500 (Central Daylight Time),305130.2000000002,165_m_m_d_a.png,I,space,1566,1,2,2042.7999999998137,303087.4000000004,8030,VNB,A,0
1,test,4,0.0,1-Back,1,z,Fri May 09 2025 14:02:06 GMT-0500 (Central Daylight Time),310595.2999999998,039_o_m_d_a.png,I,z,848,2,2,1860.0,308735.2999999998,8030,VNB,A,1
2,test,4,0.0,1-Back,1,m,Fri May 09 2025 14:02:06 GMT-0500 (Central Daylight Time),312278.10000000056,109_y_m_h_a.png,I,m,661,3,2,1676.800000000745,310601.2999999998,8030,VNB,A,2
3,test,4,0.0,1-Back,1,m,Fri May 09 2025 14:02:06 GMT-0500 (Central Daylight Time),314111.10000000056,139_m_f_n_a.png,I,m,803,4,2,1826.300000000745,312284.7999999998,8030,VNB,A,3
4,test,4,1.0,1-Back,1,m,Fri May 09 2025 14:02:06 GMT-0500 (Central Daylight Time),316260.2000000002,124_o_f_h_a.png,I,m,1130,5,2,2143.0999999996275,314117.10000000056,8030,VNB,A,4
5,test,4,0.0,1-Back,1,m,Fri May 09 2025 14:02:06 GMT-0500 (Central Daylight Time),318259.5,165_m_m_n_a.png,I,m,980,6,2,1993.2999999998137,316266.2000000002,8030,VNB,A,5
6,test,4,0.0,1-Back,1,m,Fri May 09 2025 14:02:06 GMT-0500 (Central Daylight Time),319842.2000000002,109_y_m_d_a.png,I,m,565,7,2,1576.2999999998137,318265.9000000004,8030,VNB,A,6
7,test,4,1.0,1-Back,1,z,Fri May 09 2025 14:02:06 GMT-0500 (Central Daylight Time),321508.4000000004,071_y_f_d_a.png,I,z,646,8,2,1660.2000000001863,319848.2000000002,8030,VNB,A,7
8,test,4,0.0,1-Back,1,m,Fri May 09 2025 14:02:06 GMT-0500 (Central Daylight Time),323374.7999999998,139_m_f_h_a.png,I,m,835,9,2,1859.8999999994412,321514.9000000004,8030,VNB,A,8
9,test,4,0.0,1-Back,1,z,Fri May 09 2025 14:02:06 GMT-0500 (Central Daylight Time),325224.2000000002,039_o_m_h_a.png,I,z,827,10,2,1843.0,323381.2000000002,8030,VNB,A,9
10,test,4,1.0,1-Back,1,m,Fri May 09 2025 14:02:06 GMT-0500 (Central Daylight Time),326940.2999999998,124_o_f_n_a.png,I,m,697,11,2,1710.0,325230.2999999998,8030,VNB,A,10
11,test,4,0.0,1-Back,1,m,Fri May 09 2025 14:02:06 GMT-0500 (Central Daylight Time),328589.7000000002,139_m_f_d_a.png,I,m,620,12,2,1642.2999999998137,326947.4000000004,8030,VNB,A,11
12,test,4,0.0,1-Back,1,m,Fri May 09 2025 14:02:06 GMT-0500 (Central Daylight Time),330705.9000000004,071_y_f_n_a.png,I,m,1090,13,2,2109.7999999998137,328596.10000000056,8030,VNB,A,12
13,test,4,0.0,1-Back,1,m,Fri May 09 2025 14:02:06 GMT-0500 (Central Daylight Time),333105.0,124_o_f_d_a.png,I,m,1374,14,2,2392.7999999998137,330712.2000000002,8030,VNB,A,13
14,test,4,0.0,1-Back,1,m,Fri May 09 2025 14:02:06 GMT-0500 (Central Daylight Time),335054.5,071_y_f_h_a.png,I,m,919,15,2,1943.2000000001863,333111.2999999998,8030,VNB,A,14
15,test,4,1.0,1-Back,1,z,Fri May 09 2025 14:02:06 GMT-0500 (Central Daylight Time),336837.2000000002,165_m_m_h_a.png,I,z,762,16,2,1775.7999999998137,335061.4000000004,8030,VNB,A,15
16,test,4,0.0,1-Back,1,m,Fri May 09 2025 14:02:06 GMT-0500 (Central Daylight Time),338753.2999999998,039_o_m_n_a.png,I,m,883,17,2,1909.699999999255,336843.60000000056,8030,VNB,A,16
17,test,4,1.0,1-Back,1,z,Fri May 09 2025 14:02:06 GMT-0500 (Central Daylight Time),340403.7000000002,109_y_m_n_a.png,I,z,631,18,2,1643.9000000003725,338759.7999999998,8030,VNB,A,17
0,test,5,1.0,1-Back,,,Fri May 09 2025 14:02:06 GMT-0500 (Central Daylight Time),340403.7000000002,039_o_m_n_a.png,I,space,1693,1,2,1643.9000000003725,338759.7999999998,8030,VNB,A,0
1,test,5,1.0,1-Back,1,m,Fri May 09 2025 14:02:06 GMT-0500 (Central Daylight Time),345851.0,124_o_f_h_a.png,I,m,714,2,2,1726.2999999998137,344124.7000000002,8030,VNB,A,1
2,test,5,0.0,1-Back,1,m,Fri May 09 2025 14:02:06 GMT-0500 (Central Daylight Time),347733.4000000004,109_y_m_d_a.png,I,m,861,3,2,1876.4000000003725,345857.0,8030,VNB,A,2
3,test,5,0.0,1-Back,1,z,Fri May 09 2025 14:02:06 GMT-0500 (Central Daylight Time),349499.7000000002,039_o_m_d_a.png,I,z,747,4,2,1759.9000000003725,347739.7999999998,8030,VNB,A,3
4,test,5,0.0,1-Back,1,m,Fri May 09 2025 14:02:06 GMT-0500 (Central Daylight Time),351232.60000000056,139_m_f_h_a.png,I,m,700,5,2,1726.800000000745,349505.7999999998,8030,VNB,A,4
5,test,5,0.0,1-Back,1,m,Fri May 09 2025 14:02:06 GMT-0500 (Central Daylight Time),353065.60000000056,071_y_f_n_a.png,I,m,816,6,2,1826.2000000001863,351239.4000000004,8030,VNB,A,5
6,test,5,1.0,1-Back,1,z,Fri May 09 2025 14:02:06 GMT-0500 (Central Daylight Time),354764.7999999998,124_o_f_n_a.png,I,z,679,7,2,1693.0999999996275,353071.7000000002,8030,VNB,A,6
7,test,5,0.0,1-Back,1,m,Fri May 09 2025 14:02:06 GMT-0500 (Central Daylight Time),356464.4000000004,139_m_f_d_a.png,I,m,667,8,2,1693.2000000001863,354771.2000000002,8030,VNB,A,7
8,test,5,0.0,1-Back,1,m,Fri May 09 2025 14:02:06 GMT-0500 (Central Daylight Time),358497.0,109_y_m_h_a.png,I,m,1009,9,2,2026.0,356471.0,8030,VNB,A,8
9,test,5,0.0,1-Back,1,m,Fri May 09 2025 14:02:06 GMT-0500 (Central Daylight Time),360163.10000000056,071_y_f_d_a.png,I,m,639,10,2,1659.7000000001863,358503.4000000004,8030,VNB,A,9
10,test,5,0.0,1-Back,1,m,Fri May 09 2025 14:02:06 GMT-0500 (Central Daylight Time),362129.5,165_m_m_n_a.png,I,m,933,11,2,1959.7999999998137,360169.7000000002,8030,VNB,A,10
11,test,5,1.0,1-Back,1,z,Fri May 09 2025 14:02:06 GMT-0500 (Central Daylight Time),364078.7000000002,139_m_f_n_a.png,I,z,927,12,2,1943.0,362135.7000000002,8030,VNB,A,11
12,test,5,0.0,1-Back,1,m,Fri May 09 2025 14:02:06 GMT-0500 (Central Daylight Time),365994.7000000002,039_o_m_h_a.png,I,m,890,13,2,1910.2000000001863,364084.5,8030,VNB,A,12
13,test,5,0.0,1-Back,1,z,Fri May 09 2025 14:02:06 GMT-0500 (Central Daylight Time),367810.7999999998,165_m_m_h_a.png,I,z,797,14,2,1809.5999999996275,366001.2000000002,8030,VNB,A,13
14,test,5,1.0,1-Back,1,m,Fri May 09 2025 14:02:06 GMT-0500 (Central Daylight Time),369810.0,124_o_f_d_a.png,I,m,969,15,2,1993.2000000001863,367816.7999999998,8030,VNB,A,14
15,test,5,0.0,1-Back,1,m,Fri May 09 2025 14:02:06 GMT-0500 (Central Daylight Time),371626.2000000002,109_y_m_n_a.png,I,m,791,16,2,1810.0,369816.2000000002,8030,VNB,A,15
16,test,5,0.0,1-Back,1,m,Fri May 09 2025 14:02:06 GMT-0500 (Central Daylight Time),373308.9000000004,071_y_f_h_a.png,I,m,663,17,2,1676.4000000003725,371632.5,8030,VNB,A,16
17,test,5,0.0,1-Back,1,m,Fri May 09 2025 14:02:06 GMT-0500 (Central Daylight Time),375491.60000000056,165_m_m_d_a.png,I,m,1162,18,2,2176.4000000003725,373315.2000000002,8030,VNB,A,17
0,prac,1,0.0,2-Back,,,Fri May 09 2025 14:02:06 GMT-0500 (Central Daylight Time),375491.60000000056,139_m_f_n_a.png,I,space,6167,1,2,2176.4000000003725,373315.2000000002,8030,VNB,A,0
0,prac,1,0.0,2-Back,,,Fri May 09 2025 14:02:06 GMT-0500 (Central Daylight Time),375491.60000000056,124_o_f_h_a.png,I,space,6167,2,2,2176.4000000003725,373315.2000000002,8030,VNB,A,0
1,prac,1,0.0,2-Back,1,m,Fri May 09 2025 14:02:06 GMT-0500 (Central Daylight Time),470578.9000000004,039_o_m_d_a.png,I,m,1039,3,2,1842.0,468736.9000000004,8030,VNB,A,1
2,prac,1,1.0,2-Back,1,z,Fri May 09 2025 14:02:06 GMT-0500 (Central Daylight Time),473294.5,165_m_m_h_a.png,I,z,1901,4,2,2707.5,470587.0,8030,VNB,A,2
2,prac,1,0.0,2-Back,0,m,Fri May 09 2025 14:02:06 GMT-0500 (Central Daylight Time),476110.10000000056,071_y_f_n_a.png,I,None,2016,5,2,2808.4000000003725,473301.7000000002,8030,VNB,A,3
3,prac,1,1.0,2-Back,1,z,Fri May 09 2025 14:02:06 GMT-0500 (Central Daylight Time),478759.4000000004,039_o_m_h_a.png,I,z,1859,6,2,2641.5,476117.9000000004,8030,VNB,A,4
3,prac,1,1.0,2-Back,0,z,Fri May 09 2025 14:02:06 GMT-0500 (Central Daylight Time),480592.2000000002,109_y_m_n_a.png,I,m,1011,7,2,1824.7000000001863,478767.5,8030,VNB,A,5
4,prac,1,0.0,2-Back,1,m,Fri May 09 2025 14:02:06 GMT-0500 (Central Daylight Time),482908.2000000002,139_m_f_d_a.png,I,m,1511,8,2,2308.4000000003725,480599.7999999998,8030,VNB,A,6
5,prac,1,0.0,2-Back,1,m,Fri May 09 2025 14:02:06 GMT-0500 (Central Daylight Time),485274.0,124_o_f_d_a.png,I,m,1535,9,2,2358.399999999441,482915.60000000056,8030,VNB,A,7
5,prac,1,0.0,2-Back,0,m,Fri May 09 2025 14:02:06 GMT-0500 (Central Daylight Time),486940.2999999998,165_m_m_h_a.png,I,z,879,10,2,1658.7999999998137,485281.5,8030,VNB,A,8
5,prac,1,1.0,2-Back,0,z,Fri May 09 2025 14:02:06 GMT-0500 (Central Daylight Time),489689.2000000002,071_y_f_d_a.png,I,m,1950,11,2,2741.5,486947.7000000002,8030,VNB,A,9
6,prac,1,0.0,2-Back,1,m,Fri May 09 2025 14:02:06 GMT-0500 (Central Daylight Time),492038.60000000056,039_o_m_n_a.png,I,m,1545,12,2,2341.5,489697.10000000056,8030,VNB,A,10
0,prac,2,0.0,2-Back,,,Fri May 09 2025 14:02:06 GMT-0500 (Central Daylight Time),492038.60000000056,139_m_f_n_a.png,I,a,5831,1,2,2341.5,489697.10000000056,8030,VNB,A,0
0,prac,2,0.0,2-Back,,,Fri May 09 2025 14:02:06 GMT-0500 (Central Daylight Time),492038.60000000056,124_o_f_h_a.png,I,a,5831,2,2,2341.5,489697.10000000056,8030,VNB,A,0
1,prac,2,0.0,2-Back,1,m,Fri May 09 2025 14:02:06 GMT-0500 (Central Daylight Time),505451.10000000056,039_o_m_d_a.png,I,m,1648,3,2,2441.5,503009.60000000056,8030,VNB,A,1
2,prac,2,1.0,2-Back,1,z,Fri May 09 2025 14:02:06 GMT-0500 (Central Daylight Time),507800.4000000004,165_m_m_h_a.png,I,z,1575,4,2,2341.5,505458.9000000004,8030,VNB,A,2
3,prac,2,0.0,2-Back,1,m,Fri May 09 2025 14:02:06 GMT-0500 (Central Daylight Time),509716.60000000056,071_y_f_n_a.png,I,m,1112,5,2,1908.7000000001863,507807.9000000004,8030,VNB,A,3
3,prac,2,1.0,2-Back,0,z,Fri May 09 2025 14:02:06 GMT-0500 (Central Daylight Time),511849.0,039_o_m_h_a.png,I,m,1326,6,2,2125.0,509724.0,8030,VNB,A,4
3,prac,2,1.0,2-Back,0,z,Fri May 09 2025 14:02:06 GMT-0500 (Central Daylight Time),514664.9000000004,109_y_m_n_a.png,I,None,2011,7,2,2807.9000000003725,511857.0,8030,VNB,A,5
4,prac,2,0.0,2-Back,1,m,Fri May 09 2025 14:02:06 GMT-0500 (Central Daylight Time),516531.10000000056,139_m_f_d_a.png,I,m,1063,8,2,1858.5,514672.60000000056,8030,VNB,A,6
5,prac,2,0.0,2-Back,1,m,Fri May 09 2025 14:02:06 GMT-0500 (Central Daylight Time),518563.7000000002,124_o_f_d_a.png,I,m,1199,9,2,2025.0999999996275,516538.60000000056,8030,VNB,A,7
5,prac,2,0.0,2-Back,0,m,Fri May 09 2025 14:02:06 GMT-0500 (Central Daylight Time),520396.2999999998,165_m_m_h_a.png,I,z,1046,10,2,1824.7999999998137,518571.5,8030,VNB,A,8
5,prac,2,1.0,2-Back,0,z,Fri May 09 2025 14:02:06 GMT-0500 (Central Daylight Time),522612.2999999998,071_y_f_d_a.png,I,m,1404,11,2,2208.199999999255,520404.10000000056,8030,VNB,A,9
5,prac,2,0.0,2-Back,0,m,Fri May 09 2025 14:02:06 GMT-0500 (Central Daylight Time),525061.7000000002,039_o_m_n_a.png,I,z,1638,12,2,2441.7000000001863,522620.0,8030,VNB,A,10
0,test,1,0.0,2-Back,,,Fri May 09 2025 14:02:06 GMT-0500 (Central Daylight Time),525061.7000000002,109_y_m_h_a.png,I,space,8412,1,2,2441.7000000001863,522620.0,8030,VNB,A,0
0,test,1,0.0,2-Back,,,Fri May 09 2025 14:02:06 GMT-0500 (Central Daylight Time),525061.7000000002,124_o_f_n_a.png,I,space,8412,2,2,2441.7000000001863,522620.0,8030,VNB,A,0
1,test,1,0.0,2-Back,1,z,Fri May 09 2025 14:02:06 GMT-0500 (Central Daylight Time),551020.1000000006,039_o_m_h_a.png,I,z,888,3,2,1910.1000000005588,549110.0,8030,VNB,A,1
2,test,1,0.0,2-Back,1,m,Fri May 09 2025 14:02:06 GMT-0500 (Central Daylight Time),553085.9000000004,139_m_f_d_a.png,I,m,1045,4,2,2059.7000000001863,551026.2000000002,8030,VNB,A,2
2,test,1,1.0,2-Back,0,m,Fri May 09 2025 14:02:06 GMT-0500 (Central Daylight Time),555285.4000000004,109_y_m_n_a.png,I,z,1179,5,2,2193.0,553092.4000000004,8030,VNB,A,3
2,test,1,0.0,2-Back,0,z,Fri May 09 2025 14:02:06 GMT-0500 (Central Daylight Time),557484.7000000002,071_y_f_d_a.png,I,m,1171,6,2,2192.7999999998137,555291.9000000004,8030,VNB,A,4
3,test,1,0.0,2-Back,1,m,Fri May 09 2025 14:02:06 GMT-0500 (Central Daylight Time),559933.9000000004,165_m_m_h_a.png,I,m,1419,7,2,2442.0,557491.9000000004,8030,VNB,A,5
3,test,1,1.0,2-Back,0,m,Fri May 09 2025 14:02:06 GMT-0500 (Central Daylight Time),562533.1000000006,071_y_f_n_a.png,I,z,1578,8,2,2593.0,559940.1000000006,8030,VNB,A,6
4,test,1,0.0,2-Back,1,z,Fri May 09 2025 14:02:06 GMT-0500 (Central Daylight Time),564399.2000000002,124_o_f_h_a.png,I,z,836,9,2,1859.5999999996275,562539.6000000006,8030,VNB,A,7
5,test,1,0.0,2-Back,1,m,Fri May 09 2025 14:02:06 GMT-0500 (Central Daylight Time),567248.2999999998,039_o_m_d_a.png,I,m,1818,10,2,2842.5,564405.7999999998,8030,VNB,A,8
6,test,1,1.0,2-Back,1,m,Fri May 09 2025 14:02:06 GMT-0500 (Central Daylight Time),570030.7999999998,165_m_m_d_a.png,I,m,1761,11,2,2775.899999999441,567254.9000000004,8030,VNB,A,9
6,test,1,0.0,2-Back,0,m,Fri May 09 2025 14:02:06 GMT-0500 (Central Daylight Time),573063.1000000006,139_m_f_n_a.png,I,None,2016,12,2,3025.5,570037.6000000006,8030,VNB,A,10
6,test,1,0.0,2-Back,0,m,Fri May 09 2025 14:02:06 GMT-0500 (Central Daylight Time),575095.7000000002,071_y_f_h_a.png,I,z,1001,13,2,2025.7999999998137,573069.9000000004,8030,VNB,A,11
6,test,1,0.0,2-Back,0,z,Fri May 09 2025 14:02:06 GMT-0500 (Central Daylight Time),577761.7000000002,165_m_m_n_a.png,I,m,1642,14,2,2658.7000000001863,575103.0,8030,VNB,A,12
7,test,1,0.0,2-Back,1,m,Fri May 09 2025 14:02:06 GMT-0500 (Central Daylight Time),580177.4000000004,109_y_m_d_a.png,I,m,1390,15,2,2409.2999999998137,577768.1000000006,8030,VNB,A,13
7,test,1,1.0,2-Back,0,m,Fri May 09 2025 14:02:06 GMT-0500 (Central Daylight Time),582210.2000000002,139_m_f_h_a.png,I,z,1016,16,2,2026.0,580184.2000000002,8030,VNB,A,14
7,test,1,0.0,2-Back,0,z,Fri May 09 2025 14:02:06 GMT-0500 (Central Daylight Time),584792.7999999998,124_o_f_d_a.png,I,m,1559,17,2,2576.2999999998137,582216.5,8030,VNB,A,15
8,test,1,0.0,2-Back,1,m,Fri May 09 2025 14:02:06 GMT-0500 (Central Daylight Time),587491.9000000004,039_o_m_n_a.png,I,m,1680,18,2,2692.5,584799.4000000004,8030,VNB,A,16
0,test,2,0.0,2-Back,,,Fri May 09 2025 14:02:06 GMT-0500 (Central Daylight Time),587491.9000000004,165_m_m_h_a.png,I,space,3757,1,2,2692.5,584799.4000000004,8030,VNB,A,0
0,test,2,0.0,2-Back,,,Fri May 09 2025 14:02:06 GMT-0500 (Central Daylight Time),587491.9000000004,071_y_f_n_a.png,I,space,3757,2,2,2692.5,584799.4000000004,8030,VNB,A,0
1,test,2,1.0,2-Back,1,z,Fri May 09 2025 14:02:06 GMT-0500 (Central Daylight Time),598005.2999999998,124_o_f_h_a.png,I,z,629,3,2,1643.3999999994412,596361.9000000004,8030,VNB,A,1
2,test,2,0.0,2-Back,1,m,Fri May 09 2025 14:02:06 GMT-0500 (Central Daylight Time),600021.2999999998,039_o_m_d_a.png,I,m,996,4,2,2009.199999999255,598012.1000000006,8030,VNB,A,2
2,test,2,0.0,2-Back,0,m,Fri May 09 2025 14:02:06 GMT-0500 (Central Daylight Time),602870.6000000006,139_m_f_d_a.png,I,z,1820,5,2,2842.9000000003725,600027.7000000002,8030,VNB,A,3
3,test,2,0.0,2-Back,1,m,Fri May 09 2025 14:02:06 GMT-0500 (Central Daylight Time),605269.7999999998,109_y_m_h_a.png,I,m,1371,6,2,2392.399999999441,602877.4000000004,8030,VNB,A,4
4,test,2,0.0,2-Back,1,m,Fri May 09 2025 14:02:06 GMT-0500 (Central Daylight Time),607752.2000000002,124_o_f_n_a.png,I,m,1460,7,2,2475.4000000003725,605276.7999999998,8030,VNB,A,5
4,test,2,1.0,2-Back,0,z,Fri May 09 2025 14:02:06 GMT-0500 (Central Daylight Time),610434.7000000002,039_o_m_h_a.png,I,m,1656,8,2,2676.2000000001863,607758.5,8030,VNB,A,6
5,test,2,0.0,2-Back,1,m,Fri May 09 2025 14:02:06 GMT-0500 (Central Daylight Time),612967.2999999998,071_y_f_d_a.png,I,m,1502,9,2,2526.0999999996275,610441.2000000002,8030,VNB,A,7
5,test,2,0.0,2-Back,0,m,Fri May 09 2025 14:02:06 GMT-0500 (Central Daylight Time),615849.9000000004,109_y_m_d_a.png,I,z,1866,10,2,2875.9000000003725,612974.0,8030,VNB,A,8
6,test,2,0.0,2-Back,1,m,Fri May 09 2025 14:02:06 GMT-0500 (Central Daylight Time),617932.2000000002,165_m_m_n_a.png,I,m,1064,11,2,2076.0999999996275,615856.1000000006,8030,VNB,A,9
6,test,2,0.0,2-Back,0,m,Fri May 09 2025 14:02:06 GMT-0500 (Central Daylight Time),620965.0,139_m_f_h_a.png,I,None,2016,12,2,3026.5,617938.5,8030,VNB,A,10
7,test,2,1.0,2-Back,1,z,Fri May 09 2025 14:02:06 GMT-0500 (Central Daylight Time),623314.1000000006,039_o_m_n_a.png,I,z,1332,13,2,2342.4000000003725,620971.7000000002,8030,VNB,A,11
8,test,2,0.0,2-Back,1,m,Fri May 09 2025 14:02:06 GMT-0500 (Central Daylight Time),625996.7000000002,124_o_f_d_a.png,I,m,1655,14,2,2676.5,623320.2000000002,8030,VNB,A,12
8,test,2,0.0,2-Back,0,m,Fri May 09 2025 14:02:06 GMT-0500 (Central Daylight Time),629029.1000000006,071_y_f_h_a.png,I,None,2015,15,2,3025.2000000001863,626003.9000000004,8030,VNB,A,13
9,test,2,0.0,2-Back,1,z,Fri May 09 2025 14:02:06 GMT-0500 (Central Daylight Time),631344.9000000004,165_m_m_d_a.png,I,z,1283,16,2,2308.7999999998137,629036.1000000006,8030,VNB,A,14
10,test,2,0.0,2-Back,1,m,Fri May 09 2025 14:02:06 GMT-0500 (Central Daylight Time),633594.2000000002,109_y_m_n_a.png,I,m,1231,17,2,2242.5999999996275,631351.6000000006,8030,VNB,A,15
11,test,2,1.0,2-Back,1,m,Fri May 09 2025 14:02:06 GMT-0500 (Central Daylight Time),636193.7000000002,139_m_f_n_a.png,I,m,1566,18,2,2593.0999999996275,633600.6000000006,8030,VNB,A,16
0,test,3,1.0,2-Back,,,Fri May 09 2025 14:02:06 GMT-0500 (Central Daylight Time),636193.7000000002,039_o_m_n_a.png,I,space,2119,1,2,2593.0999999996275,633600.6000000006,8030,VNB,A,0
0,test,3,1.0,2-Back,,,Fri May 09 2025 14:02:06 GMT-0500 (Central Daylight Time),636193.7000000002,124_o_f_d_a.png,I,space,2119,2,2,2593.0999999996275,633600.6000000006,8030,VNB,A,0
1,test,3,0.0,2-Back,1,m,Fri May 09 2025 14:02:06 GMT-0500 (Central Daylight Time),645273.9000000004,071_y_f_h_a.png,I,m,883,3,2,1892.2000000001863,643381.7000000002,8030,VNB,A,1
2,test,3,0.0,2-Back,1,z,Fri May 09 2025 14:02:06 GMT-0500 (Central Daylight Time),647473.2000000002,139_m_f_d_a.png,I,z,1166,4,2,2192.5999999996275,645280.6000000006,8030,VNB,A,2
3,test,3,1.0,2-Back,1,m,Fri May 09 2025 14:02:06 GMT-0500 (Central Daylight Time),650205.5,109_y_m_n_a.png,I,m,1703,5,2,2725.7999999998137,647479.7000000002,8030,VNB,A,3
3,test,3,0.0,2-Back,0,m,Fri May 09 2025 14:02:06 GMT-0500 (Central Daylight Time),652888.4000000004,039_o_m_h_a.png,I,z,1659,6,2,2675.7999999998137,650212.6000000006,8030,VNB,A,4
3,test,3,0.0,2-Back,0,z,Fri May 09 2025 14:02:06 GMT-0500 (Central Daylight Time),655487.2999999998,071_y_f_n_a.png,I,m,1577,7,2,2592.2999999998137,652895.0,8030,VNB,A,5
4,test,3,1.0,2-Back,1,m,Fri May 09 2025 14:02:06 GMT-0500 (Central Daylight Time),658336.2000000002,165_m_m_d_a.png,I,m,1826,8,2,2842.2000000001863,655494.0,8030,VNB,A,6
4,test,3,0.0,2-Back,0,m,Fri May 09 2025 14:02:06 GMT-0500 (Central Daylight Time),661368.9000000004,109_y_m_d_a.png,I,None,2016,9,2,3025.7999999998137,658343.1000000006,8030,VNB,A,7
5,test,3,0.0,2-Back,1,m,Fri May 09 2025 14:02:06 GMT-0500 (Central Daylight Time),663684.7999999998,124_o_f_h_a.png,I,m,1297,10,2,2309.0999999996275,661375.7000000002,8030,VNB,A,8
5,test,3,1.0,2-Back,0,m,Fri May 09 2025 14:02:06 GMT-0500 (Central Daylight Time),665950.6000000006,139_m_f_n_a.png,I,z,1237,11,2,2259.300000000745,663691.2999999998,8030,VNB,A,9
6,test,3,1.0,2-Back,1,z,Fri May 09 2025 14:02:06 GMT-0500 (Central Daylight Time),668233.2999999998,165_m_m_h_a.png,I,z,1258,12,2,2275.699999999255,665957.6000000006,8030,VNB,A,10
7,test,3,0.0,2-Back,1,m,Fri May 09 2025 14:02:06 GMT-0500 (Central Daylight Time),670466.2000000002,071_y_f_d_a.png,I,m,1200,13,2,2226.2999999998137,668239.9000000004,8030,VNB,A,11
8,test,3,0.0,2-Back,1,m,Fri May 09 2025 14:02:06 GMT-0500 (Central Daylight Time),672565.2999999998,124_o_f_n_a.png,I,m,1071,14,2,2092.5999999996275,670472.7000000002,8030,VNB,A,12
8,test,3,0.0,2-Back,0,z,Fri May 09 2025 14:02:06 GMT-0500 (Central Daylight Time),674944.0,039_o_m_d_a.png,I,m,1219,15,2,2372.2999999998137,672571.7000000002,8030,VNB,A,13
8,test,3,1.0,2-Back,0,m,Fri May 09 2025 14:02:06 GMT-0500 (Central Daylight Time),676963.5,139_m_f_h_a.png,I,z,988,16,2,2012.7999999998137,674950.7000000002,8030,VNB,A,14
9,test,3,0.0,2-Back,1,m,Fri May 09 2025 14:02:06 GMT-0500 (Central Daylight Time),679179.7999999998,165_m_m_n_a.png,I,m,1198,17,2,2209.0,676970.7999999998,8030,VNB,A,15
9,test,3,0.0,2-Back,0,z,Fri May 09 2025 14:02:06 GMT-0500 (Central Daylight Time),681795.7999999998,109_y_m_h_a.png,I,m,1588,18,2,2609.0999999996275,679186.7000000002,8030,VNB,A,16
0,test,4,0.0,2-Back,,,Fri May 09 2025 14:02:06 GMT-0500 (Central Daylight Time),681795.7999999998,139_m_f_n_a.png,I,space,1894,1,2,2609.0999999996275,679186.7000000002,8030,VNB,A,0
0,test,4,0.0,2-Back,,,Fri May 09 2025 14:02:06 GMT-0500 (Central Daylight Time),681795.7999999998,039_o_m_n_a.png,I,space,1894,2,2,2609.0999999996275,679186.7000000002,8030,VNB,A,0
1,test,4,1.0,2-Back,1,m,Fri May 09 2025 14:02:06 GMT-0500 (Central Daylight Time),690543.2000000002,109_y_m_h_a.png,I,m,735,3,2,1760.0,688783.2000000002,8030,VNB,A,1
2,test,4,1.0,2-Back,1,m,Fri May 09 2025 14:02:06 GMT-0500 (Central Daylight Time),693192.1000000006,124_o_f_d_a.png,I,m,1626,4,2,2642.4000000003725,690549.7000000002,8030,VNB,A,2
3,test,4,0.0,2-Back,1,z,Fri May 09 2025 14:02:06 GMT-0500 (Central Daylight Time),695274.7999999998,039_o_m_h_a.png,I,z,1057,5,2,2076.5,693198.2999999998,8030,VNB,A,3
4,test,4,0.0,2-Back,1,m,Fri May 09 2025 14:02:06 GMT-0500 (Central Daylight Time),698024.0,165_m_m_n_a.png,I,m,1718,6,2,2742.5,695281.5,8030,VNB,A,4
5,test,4,0.0,2-Back,1,m,Fri May 09 2025 14:02:06 GMT-0500 (Central Daylight Time),701023.1000000006,139_m_f_d_a.png,I,m,1977,7,2,2992.300000000745,698030.7999999998,8030,VNB,A,5
6,test,4,0.0,2-Back,1,z,Fri May 09 2025 14:02:06 GMT-0500 (Central Daylight Time),704021.9000000004,071_y_f_n_a.png,I,z,1977,8,2,2992.2000000001863,701029.7000000002,8030,VNB,A,6
7,test,4,1.0,2-Back,1,m,Fri May 09 2025 14:02:06 GMT-0500 (Central Daylight Time),706787.7999999998,124_o_f_h_a.png,I,m,1746,9,2,2759.0999999996275,704028.7000000002,8030,VNB,A,7
8,test,4,0.0,2-Back,1,m,Fri May 09 2025 14:02:06 GMT-0500 (Central Daylight Time),709437.0,165_m_m_h_a.png,I,m,1620,10,2,2642.7999999998137,706794.2000000002,8030,VNB,A,8
8,test,4,0.0,2-Back,0,m,Fri May 09 2025 14:02:06 GMT-0500 (Central Daylight Time),711703.0,071_y_f_d_a.png,I,z,1244,11,2,2258.7999999998137,709444.2000000002,8030,VNB,A,9
9,test,4,0.0,2-Back,1,m,Fri May 09 2025 14:02:06 GMT-0500 (Central Daylight Time),714368.7999999998,109_y_m_n_a.png,I,m,1642,12,2,2659.699999999255,711709.1000000006,8030,VNB,A,10
9,test,4,0.0,2-Back,0,z,Fri May 09 2025 14:02:06 GMT-0500 (Central Daylight Time),717034.5,039_o_m_d_a.png,I,m,1648,13,2,2658.899999999441,714375.6000000006,8030,VNB,A,11
9,test,4,1.0,2-Back,0,m,Fri May 09 2025 14:02:06 GMT-0500 (Central Daylight Time),720067.0,139_m_f_h_a.png,I,None,2014,14,2,3026.5,717040.5,8030,VNB,A,12
9,test,4,1.0,2-Back,0,m,Fri May 09 2025 14:02:06 GMT-0500 (Central Daylight Time),722599.6000000006,071_y_f_h_a.png,I,z,1502,15,2,2525.600000000559,720074.0,8030,VNB,A,13
9,test,4,0.0,2-Back,0,m,Fri May 09 2025 14:02:06 GMT-0500 (Central Daylight Time),725631.9000000004,124_o_f_n_a.png,I,None,2016,16,2,3025.5,722606.4000000004,8030,VNB,A,14
10,test,4,0.0,2-Back,1,m,Fri May 09 2025 14:02:06 GMT-0500 (Central Daylight Time),727482.4000000004,109_y_m_d_a.png,I,m,824,17,2,1842.2999999998137,725640.1000000006,8030,VNB,A,15
10,test,4,1.0,2-Back,0,m,Fri May 09 2025 14:02:06 GMT-0500 (Central Daylight Time),730513.7999999998,165_m_m_d_a.png,I,None,2016,18,2,3024.699999999255,727489.1000000006,8030,VNB,A,16
0,test,5,1.0,2-Back,,,Fri May 09 2025 14:02:06 GMT-0500 (Central Daylight Time),730513.7999999998,071_y_f_d_a.png,I,space,1647,1,2,3024.699999999255,727489.1000000006,8030,VNB,A,0
0,test,5,1.0,2-Back,,,Fri May 09 2025 14:02:06 GMT-0500 (Central Daylight Time),730513.7999999998,124_o_f_h_a.png,I,space,1647,2,2,3024.699999999255,727489.1000000006,8030,VNB,A,0
1,test,5,1.0,2-Back,1,z,Fri May 09 2025 14:02:06 GMT-0500 (Central Daylight Time),739211.0,039_o_m_d_a.png,I,z,932,3,2,1942.7999999998137,737268.2000000002,8030,VNB,A,1
2,test,5,1.0,2-Back,1,m,Fri May 09 2025 14:02:06 GMT-0500 (Central Daylight Time),741277.1000000006,139_m_f_n_a.png,I,m,1038,4,2,2059.5,739217.6000000006,8030,VNB,A,2
3,test,5,0.0,2-Back,1,m,Fri May 09 2025 14:02:06 GMT-0500 (Central Daylight Time),744026.1000000006,165_m_m_h_a.png,I,m,1732,5,2,2742.0,741284.1000000006,8030,VNB,A,3
3,test,5,0.0,2-Back,0,z,Fri May 09 2025 14:02:06 GMT-0500 (Central Daylight Time),746425.5,071_y_f_n_a.png,I,m,1374,6,2,2392.7999999998137,744032.7000000002,8030,VNB,A,4
3,test,5,0.0,2-Back,0,m,Fri May 09 2025 14:02:06 GMT-0500 (Central Daylight Time),749124.6000000006,124_o_f_d_a.png,I,z,1672,7,2,2692.5,746432.1000000006,8030,VNB,A,5
4,test,5,0.0,2-Back,1,m,Fri May 09 2025 14:02:06 GMT-0500 (Central Daylight Time),751873.7000000002,039_o_m_h_a.png,I,m,1717,8,2,2741.9000000003725,749131.7999999998,8030,VNB,A,6
5,test,5,1.0,2-Back,1,z,Fri May 09 2025 14:02:06 GMT-0500 (Central Daylight Time),754806.1000000006,139_m_f_d_a.png,I,z,1903,9,2,2925.300000000745,751880.7999999998,8030,VNB,A,7
6,test,5,0.0,2-Back,1,m,Fri May 09 2025 14:02:06 GMT-0500 (Central Daylight Time),756789.0,109_y_m_n_a.png,I,m,963,10,2,1976.0999999996275,754812.9000000004,8030,VNB,A,8
7,test,5,0.0,2-Back,1,m,Fri May 09 2025 14:02:06 GMT-0500 (Central Daylight Time),759404.7000000002,165_m_m_n_a.png,I,m,1595,11,2,2609.0,756795.7000000002,8030,VNB,A,9
8,test,5,0.0,2-Back,1,m,Fri May 09 2025 14:02:06 GMT-0500 (Central Daylight Time),761637.5,071_y_f_h_a.png,I,m,1205,12,2,2225.7999999998137,759411.7000000002,8030,VNB,A,10
9,test,5,0.0,2-Back,1,m,Fri May 09 2025 14:02:06 GMT-0500 (Central Daylight Time),763970.1000000006,109_y_m_d_a.png,I,m,1316,13,2,2325.9000000003725,761644.2000000002,8030,VNB,A,11
10,test,5,1.0,2-Back,1,z,Fri May 09 2025 14:02:06 GMT-0500 (Central Daylight Time),766302.4000000004,139_m_f_h_a.png,I,z,1311,14,2,2325.600000000559,763976.7999999998,8030,VNB,A,12
11,test,5,0.0,2-Back,1,m,Fri May 09 2025 14:02:06 GMT-0500 (Central Daylight Time),768785.1000000006,039_o_m_n_a.png,I,m,1458,15,2,2476.4000000003725,766308.7000000002,8030,VNB,A,13
12,test,5,0.0,2-Back,1,m,Fri May 09 2025 14:02:06 GMT-0500 (Central Daylight Time),771217.7999999998,165_m_m_d_a.png,I,m,1408,16,2,2426.199999999255,768791.6000000006,8030,VNB,A,14
12,test,5,0.0,2-Back,0,z,Fri May 09 2025 14:02:06 GMT-0500 (Central Daylight Time),773683.7000000002,124_o_f_n_a.png,I,m,1447,17,2,2459.2999999998137,771224.4000000004,8030,VNB,A,15
12,test,5,1.0,2-Back,0,m,Fri May 09 2025 14:02:06 GMT-0500 (Central Daylight Time),775749.7999999998,109_y_m_h_a.png,I,z,1037,18,2,2059.399999999441,773690.4000000004,8030,VNB,A,16
