Number,acc_sum,block,block_c,block_cond,con_img,correct,correct_response,datetime,endtime,jitter,project,response,response_time,row_sel,session_number,start_end,starttime,subject_id,task,task_vers,trial
2,1,prac,1,A,circle.png,1,z,Thu Dec 11 2025 15:38:39 GMT-0600 (Central Standard Time),58414.10000002384,2000,O,z,1179,2,,3943.400000035763,54470.69999998808,7717,NTS,B,1
7,1,prac,1,A,circle.png,0,m,Thu Dec 11 2025 15:38:39 GMT-0600 (Central Standard Time),62412.10000002384,1700,O,None,1513,6,,3991.300000011921,58420.80000001192,7717,NTS,B,2
4,1,prac,1,A,circle.png,0,z,Thu Dec 11 2025 15:38:39 GMT-0600 (Central Standard Time),66111.69999998808,1400,O,None,1514,4,,3692.899999976158,62418.80000001192,7717,NTS,B,3
2,2,prac,1,A,circle.png,1,z,Thu Dec 11 2025 15:38:39 GMT-0600 (Central Standard Time),69574.80000001192,2000,O,z,669,2,,3457.300000011921,66117.5,7717,NTS,B,4
4,3,prac,1,A,circle.png,1,z,Thu Dec 11 2025 15:38:39 GMT-0600 (Central Standard Time),72325.69999998808,1400,O,z,578,4,,2744.300000011921,69581.39999997616,7717,NTS,B,5
1,4,prac,1,A,circle.png,1,z,Thu Dec 11 2025 15:38:39 GMT-0600 (Central Standard Time),74691.69999998808,1000,O,z,584,1,,2359.300000011921,72332.39999997616,7717,NTS,B,6
3,5,prac,1,A,circle.png,1,z,Thu Dec 11 2025 15:38:39 GMT-0600 (Central Standard Time),77175.19999998808,1200,O,z,487,3,,2476.599999964237,74698.60000002384,7717,NTS,B,7
9,6,prac,1,A,circle.png,1,m,Thu Dec 11 2025 15:38:39 GMT-0600 (Central Standard Time),79921.69999998808,1500,O,m,464,8,,2739.199999988079,77182.5,7717,NTS,B,8
8,7,prac,1,A,circle.png,1,m,Thu Dec 11 2025 15:38:39 GMT-0600 (Central Standard Time),82973.30000001192,1600,O,m,667,7,,3047.600000023842,79925.69999998808,7717,NTS,B,9
1,8,prac,1,A,circle.png,1,z,Thu Dec 11 2025 15:38:39 GMT-0600 (Central Standard Time),85370.80000001192,1000,O,z,616,1,,2390.900000035763,82979.89999997616,7717,NTS,B,10
9,9,prac,1,A,circle.png,1,m,Thu Dec 11 2025 15:38:39 GMT-0600 (Central Standard Time),88488.60000002384,1500,O,m,844,8,,3111.800000011921,85376.80000001192,7717,NTS,B,11
6,10,prac,1,A,circle.png,1,m,Thu Dec 11 2025 15:38:39 GMT-0600 (Central Standard Time),91920.30000001192,1900,O,m,744,5,,3425.400000035763,88494.89999997616,7717,NTS,B,12
7,1,prac,1,B,triangle.png,1,z,Thu Dec 11 2025 15:38:39 GMT-0600 (Central Standard Time),129706.60000002384,2000,O,z,1407,6,,4192.300000011921,125514.30000001192,7717,NTS,B,1
6,2,prac,1,B,triangle.png,1,m,Thu Dec 11 2025 15:38:39 GMT-0600 (Central Standard Time),132021.89999997616,1000,O,m,521,5,,2307.599999964237,129714.30000001192,7717,NTS,B,2
1,3,prac,1,B,triangle.png,1,z,Thu Dec 11 2025 15:38:39 GMT-0600 (Central Standard Time),135504.69999998808,1900,O,z,792,1,,3476.5,132028.19999998808,7717,NTS,B,3
9,4,prac,1,B,triangle.png,1,z,Thu Dec 11 2025 15:38:39 GMT-0600 (Central Standard Time),138372.0,1400,O,z,690,8,,2859.600000023842,135512.39999997616,7717,NTS,B,4
7,5,prac,1,B,triangle.png,1,z,Thu Dec 11 2025 15:38:39 GMT-0600 (Central Standard Time),141753.39999997616,2000,O,z,586,6,,3374.2999999523163,138379.10000002384,7717,NTS,B,5
8,6,prac,1,B,triangle.png,1,m,Thu Dec 11 2025 15:38:39 GMT-0600 (Central Standard Time),144185.69999998808,1200,O,m,435,7,,2426.300000011921,141759.39999997616,7717,NTS,B,6
2,7,prac,1,B,triangle.png,1,m,Thu Dec 11 2025 15:38:39 GMT-0600 (Central Standard Time),147885.0,1700,O,m,1206,2,,3695.199999988079,144189.80000001192,7717,NTS,B,7
1,8,prac,1,B,triangle.png,1,z,Thu Dec 11 2025 15:38:39 GMT-0600 (Central Standard Time),151282.89999997616,1900,O,z,707,1,,3394.0,147888.89999997616,7717,NTS,B,8
9,9,prac,1,B,triangle.png,1,z,Thu Dec 11 2025 15:38:39 GMT-0600 (Central Standard Time),154231.80000001192,1400,O,z,761,8,,2945.0,151286.80000001192,7717,NTS,B,9
2,10,prac,1,B,triangle.png,1,m,Thu Dec 11 2025 15:38:39 GMT-0600 (Central Standard Time),157464.39999997616,1700,O,m,744,2,,3228.599999964237,154235.80000001192,7717,NTS,B,10
4,11,prac,1,B,triangle.png,1,m,Thu Dec 11 2025 15:38:39 GMT-0600 (Central Standard Time),160198.30000001192,1500,O,m,438,4,,2729.800000011921,157468.5,7717,NTS,B,11
3,12,prac,1,B,triangle.png,1,z,Thu Dec 11 2025 15:38:39 GMT-0600 (Central Standard Time),163313.0,1600,O,z,728,3,,3109.0,160204.0,7717,NTS,B,12
8,1,test,1,A,circle.png,1,m,Thu Dec 11 2025 15:38:39 GMT-0600 (Central Standard Time),182974.69999998808,1600,O,m,966,7,,2580.599999964237,180394.10000002384,7717,NTS,B,1
2,2,test,1,A,circle.png,1,z,Thu Dec 11 2025 15:38:39 GMT-0600 (Central Standard Time),186089.19999998808,2000,O,z,1092,2,,3108.899999976158,182980.30000001192,7717,NTS,B,2
4,3,test,1,A,circle.png,1,z,Thu Dec 11 2025 15:38:39 GMT-0600 (Central Standard Time),188554.5,1400,O,z,1052,4,,2461.899999976158,186092.60000002384,7717,NTS,B,3
2,4,test,1,A,circle.png,1,z,Thu Dec 11 2025 15:38:39 GMT-0600 (Central Standard Time),191021.30000001192,2000,O,z,449,2,,2464.199999988079,188557.10000002384,7717,NTS,B,4
9,5,test,1,A,circle.png,1,m,Thu Dec 11 2025 15:38:39 GMT-0600 (Central Standard Time),193103.60000002384,1500,O,m,564,8,,2078.0,191025.60000002384,7717,NTS,B,5
4,6,test,1,A,circle.png,1,z,Thu Dec 11 2025 15:38:39 GMT-0600 (Central Standard Time),195220.10000002384,1400,O,z,691,4,,2113.0,193107.10000002384,7717,NTS,B,6
1,7,test,1,A,circle.png,1,z,Thu Dec 11 2025 15:38:39 GMT-0600 (Central Standard Time),196835.10000002384,1000,O,z,583,1,,1612.0,195223.10000002384,7717,NTS,B,7
6,8,test,1,A,circle.png,1,m,Thu Dec 11 2025 15:38:39 GMT-0600 (Central Standard Time),199334.10000002384,1900,O,m,581,5,,2494.800000011921,196839.30000001192,7717,NTS,B,8
9,9,test,1,A,circle.png,1,m,Thu Dec 11 2025 15:38:39 GMT-0600 (Central Standard Time),201417.10000002384,1500,O,m,552,8,,2079.7000000476837,199337.39999997616,7717,NTS,B,9
4,10,test,1,A,circle.png,1,z,Thu Dec 11 2025 15:38:39 GMT-0600 (Central Standard Time),203433.10000002384,1400,O,z,595,4,,2011.5,201421.60000002384,7717,NTS,B,10
3,11,test,1,A,circle.png,1,z,Thu Dec 11 2025 15:38:39 GMT-0600 (Central Standard Time),205250.69999998808,1200,O,z,594,3,,1813.300000011921,203437.39999997616,7717,NTS,B,11
7,12,test,1,A,circle.png,1,m,Thu Dec 11 2025 15:38:39 GMT-0600 (Central Standard Time),207647.80000001192,1700,O,m,679,6,,2391.400000035763,205256.39999997616,7717,NTS,B,12
1,13,test,1,A,circle.png,1,z,Thu Dec 11 2025 15:38:39 GMT-0600 (Central Standard Time),209298.60000002384,1000,O,z,620,1,,1647.9000000357628,207650.69999998808,7717,NTS,B,13
8,14,test,1,A,circle.png,1,m,Thu Dec 11 2025 15:38:39 GMT-0600 (Central Standard Time),211646.69999998808,1600,O,m,720,7,,2344.5,209302.19999998808,7717,NTS,B,14
3,15,test,1,A,circle.png,1,z,Thu Dec 11 2025 15:38:39 GMT-0600 (Central Standard Time),213463.19999998808,1200,O,z,587,3,,1813.3999999761581,211649.80000001192,7717,NTS,B,15
8,16,test,1,A,circle.png,1,m,Thu Dec 11 2025 15:38:39 GMT-0600 (Central Standard Time),215746.5,1600,O,m,651,7,,2277.399999976158,213469.10000002384,7717,NTS,B,16
4,17,test,1,A,circle.png,1,z,Thu Dec 11 2025 15:38:39 GMT-0600 (Central Standard Time),217812.10000002384,1400,O,z,641,4,,2062.400000035763,215749.69999998808,7717,NTS,B,17
6,18,test,1,A,circle.png,1,m,Thu Dec 11 2025 15:38:39 GMT-0600 (Central Standard Time),220578.0,1900,O,m,842,5,,2760.800000011921,217817.19999998808,7717,NTS,B,18
1,19,test,1,A,circle.png,1,z,Thu Dec 11 2025 15:38:39 GMT-0600 (Central Standard Time),222160.39999997616,1000,O,z,562,1,,1578.7999999523163,220581.60000002384,7717,NTS,B,19
7,20,test,1,A,circle.png,1,m,Thu Dec 11 2025 15:38:39 GMT-0600 (Central Standard Time),224593.0,1700,O,m,702,6,,2429.0,222164.0,7717,NTS,B,20
6,21,test,1,A,circle.png,1,m,Thu Dec 11 2025 15:38:39 GMT-0600 (Central Standard Time),227277.39999997616,1900,O,m,766,5,,2679.199999988079,224598.19999998808,7717,NTS,B,21
3,22,test,1,A,circle.png,1,z,Thu Dec 11 2025 15:38:39 GMT-0600 (Central Standard Time),229141.10000002384,1200,O,z,647,3,,1857.0,227284.10000002384,7717,NTS,B,22
9,23,test,1,A,circle.png,1,m,Thu Dec 11 2025 15:38:39 GMT-0600 (Central Standard Time),231374.60000002384,1500,O,m,700,8,,2227.7000000476837,229146.89999997616,7717,NTS,B,23
2,24,test,1,A,circle.png,1,z,Thu Dec 11 2025 15:38:39 GMT-0600 (Central Standard Time),234006.69999998808,2000,O,z,613,2,,2627.399999976158,231379.30000001192,7717,NTS,B,24
6,1,test,1,B,triangle.png,1,m,Thu Dec 11 2025 15:38:39 GMT-0600 (Central Standard Time),248135.60000002384,1500,O,m,1220,13,,2746.400000035763,245389.19999998808,7717,NTS,B,1
4,2,test,1,B,triangle.png,1,m,Thu Dec 11 2025 15:38:39 GMT-0600 (Central Standard Time),250184.0,1000,O,m,1028,12,,2044.0,248140.0,7717,NTS,B,2
8,3,test,1,B,triangle.png,1,m,Thu Dec 11 2025 15:38:39 GMT-0600 (Central Standard Time),252450.60000002384,1700,O,m,535,15,,2262.600000023842,250188.0,7717,NTS,B,3
7,4,test,1,B,triangle.png,1,z,Thu Dec 11 2025 15:38:39 GMT-0600 (Central Standard Time),254537.5,1600,O,z,469,14,,2080.600000023842,252456.89999997616,7717,NTS,B,4
7,5,test,1,B,triangle.png,1,z,Thu Dec 11 2025 15:38:39 GMT-0600 (Central Standard Time),257319.5,2000,O,z,768,6,,2779.100000023842,254540.39999997616,7717,NTS,B,5
1,6,test,1,B,triangle.png,1,z,Thu Dec 11 2025 15:38:39 GMT-0600 (Central Standard Time),259381.30000001192,1400,O,z,647,9,,2058.400000035763,257322.89999997616,7717,NTS,B,6
3,7,test,1,B,triangle.png,1,z,Thu Dec 11 2025 15:38:39 GMT-0600 (Central Standard Time),261698.69999998808,1600,O,z,684,3,,2314.399999976158,259384.30000001192,7717,NTS,B,7
3,8,test,1,B,triangle.png,1,z,Thu Dec 11 2025 15:38:39 GMT-0600 (Central Standard Time),264213.1999999881,2000,O,z,488,11,,2508.599999964237,261704.60000002384,7717,NTS,B,8
9,9,test,1,B,triangle.png,1,z,Thu Dec 11 2025 15:38:39 GMT-0600 (Central Standard Time),266263.5,1400,O,z,622,8,,2044.800000011921,264218.6999999881,7717,NTS,B,9
4,10,test,1,B,triangle.png,1,m,Thu Dec 11 2025 15:38:39 GMT-0600 (Central Standard Time),268462.60000002384,1500,O,m,673,4,,2195.900000035763,266266.6999999881,7717,NTS,B,10
6,11,test,1,B,triangle.png,1,m,Thu Dec 11 2025 15:38:39 GMT-0600 (Central Standard Time),270678.89999997616,1000,O,m,1188,5,,2212.199999988079,268466.6999999881,7717,NTS,B,11
3,12,test,1,B,triangle.png,1,z,Thu Dec 11 2025 15:38:39 GMT-0600 (Central Standard Time),273344.0,2000,O,z,644,11,,2660.699999988079,270683.3000000119,7717,NTS,B,12
9,13,test,1,B,triangle.png,1,z,Thu Dec 11 2025 15:38:39 GMT-0600 (Central Standard Time),275810.89999997616,1900,O,z,543,16,,2460.399999976158,273350.5,7717,NTS,B,13
1,14,test,1,B,triangle.png,1,z,Thu Dec 11 2025 15:38:39 GMT-0600 (Central Standard Time),278326.10000002384,1900,O,z,597,1,,2512.0,275814.10000002384,7717,NTS,B,14
1,15,test,1,B,triangle.png,1,z,Thu Dec 11 2025 15:38:39 GMT-0600 (Central Standard Time),280842.6999999881,1900,O,z,586,1,,2509.599999964237,278333.10000002384,7717,NTS,B,15
8,16,test,1,B,triangle.png,1,m,Thu Dec 11 2025 15:38:39 GMT-0600 (Central Standard Time),282625.1999999881,1200,O,m,553,7,,1777.0,280848.1999999881,7717,NTS,B,16
2,17,test,1,B,triangle.png,1,m,Thu Dec 11 2025 15:38:39 GMT-0600 (Central Standard Time),284258.1999999881,1200,O,m,402,10,,1628.199999988079,282630.0,7717,NTS,B,17
7,18,test,1,B,triangle.png,1,z,Thu Dec 11 2025 15:38:39 GMT-0600 (Central Standard Time),287289.6999999881,2000,O,z,1008,6,,3027.800000011921,284261.89999997616,7717,NTS,B,18
2,19,test,1,B,triangle.png,1,m,Thu Dec 11 2025 15:38:39 GMT-0600 (Central Standard Time),289758.10000002384,1700,O,m,749,2,,2464.300000011921,287293.8000000119,7717,NTS,B,19
8,20,test,1,B,triangle.png,1,m,Thu Dec 11 2025 15:38:39 GMT-0600 (Central Standard Time),291488.60000002384,1200,O,m,512,7,,1725.9000000357628,289762.6999999881,7717,NTS,B,20
4,21,test,1,B,triangle.png,1,m,Thu Dec 11 2025 15:38:39 GMT-0600 (Central Standard Time),293172.0,1000,O,m,652,12,,1680.1000000238419,291491.89999997616,7717,NTS,B,21
9,22,test,1,B,triangle.png,1,z,Thu Dec 11 2025 15:38:39 GMT-0600 (Central Standard Time),295287.60000002384,1400,O,z,682,8,,2110.800000011921,293176.8000000119,7717,NTS,B,22
8,23,test,1,B,triangle.png,1,m,Thu Dec 11 2025 15:38:39 GMT-0600 (Central Standard Time),297671.1999999881,1700,O,m,656,15,,2380.5,295290.6999999881,7717,NTS,B,23
1,24,test,1,B,triangle.png,1,z,Thu Dec 11 2025 15:38:39 GMT-0600 (Central Standard Time),299853.0,1400,O,z,765,9,,2178.5,297674.5,7717,NTS,B,24
9,0,prac,1,C,circle.png,0,m,Thu Dec 11 2025 15:38:39 GMT-0600 (Central Standard Time),347404.6999999881,1900,O,None,1516,8,,4192.199999988079,343212.5,7717,NTS,B,1
2,0,prac,1,C,triangle.png,0,m,Thu Dec 11 2025 15:38:39 GMT-0600 (Central Standard Time),350986.1999999881,1600,O,z,1199,2,,3574.699999988079,347411.5,7717,NTS,B,2
6,0,prac,1,C,circle.png,0,m,Thu Dec 11 2025 15:38:39 GMT-0600 (Central Standard Time),355284.89999997616,2000,O,None,1517,5,,4291.399999976158,350993.5,7717,NTS,B,3
8,1,prac,1,C,triangle.png,1,m,Thu Dec 11 2025 15:38:39 GMT-0600 (Central Standard Time),358767.10000002384,1400,O,m,1295,7,,3471.600000023842,355295.5,7717,NTS,B,4
1,2,prac,1,C,circle.png,1,z,Thu Dec 11 2025 15:38:39 GMT-0600 (Central Standard Time),362532.1999999881,1700,O,z,1272,1,,3755.599999964237,358776.60000002384,7717,NTS,B,5
3,2,prac,1,C,triangle.png,0,z,Thu Dec 11 2025 15:38:39 GMT-0600 (Central Standard Time),366314.60000002384,1500,O,None,1501,3,,3776.600000023842,362538.0,7717,NTS,B,6
6,3,prac,1,C,circle.png,1,m,Thu Dec 11 2025 15:38:39 GMT-0600 (Central Standard Time),370130.10000002384,2000,O,m,1017,5,,3807.2000000476837,366322.89999997616,7717,NTS,B,7
8,3,prac,1,C,triangle.png,0,m,Thu Dec 11 2025 15:38:39 GMT-0600 (Central Standard Time),373762.3000000119,1400,O,z,1442,7,,3624.300000011921,370138.0,7717,NTS,B,8
3,4,prac,1,C,triangle.png,1,z,Thu Dec 11 2025 15:38:39 GMT-0600 (Central Standard Time),377045.89999997616,1500,O,z,987,3,,3274.2999999523163,373771.60000002384,7717,NTS,B,9
4,4,prac,1,C,circle.png,0,z,Thu Dec 11 2025 15:38:39 GMT-0600 (Central Standard Time),380326.6999999881,1000,O,None,1501,4,,3270.199999988079,377056.5,7717,NTS,B,10
9,5,prac,1,C,circle.png,1,m,Thu Dec 11 2025 15:38:39 GMT-0600 (Central Standard Time),384125.6999999881,1900,O,m,1104,8,,3795.5,380330.1999999881,7717,NTS,B,11
7,5,prac,1,C,triangle.png,0,z,Thu Dec 11 2025 15:38:39 GMT-0600 (Central Standard Time),387624.89999997616,1200,O,None,1516,6,,3492.2999999523163,384132.60000002384,7717,NTS,B,12
2,0,prac,2,C,triangle.png,0,m,Thu Dec 11 2025 15:38:39 GMT-0600 (Central Standard Time),397372.39999997616,1600,O,None,1515,2,,3895.2999999523163,393477.10000002384,7717,NTS,B,1
9,0,prac,2,C,circle.png,0,m,Thu Dec 11 2025 15:38:39 GMT-0600 (Central Standard Time),401156.3000000119,1900,O,z,1116,8,,3777.800000011921,397378.5,7717,NTS,B,2
7,1,prac,2,C,triangle.png,1,z,Thu Dec 11 2025 15:38:39 GMT-0600 (Central Standard Time),404269.5,1200,O,z,1122,6,,3107.300000011921,401162.1999999881,7717,NTS,B,3
6,2,prac,2,C,circle.png,1,m,Thu Dec 11 2025 15:38:39 GMT-0600 (Central Standard Time),407936.39999997616,2000,O,m,878,5,,3659.199999988079,404277.1999999881,7717,NTS,B,4
3,3,prac,2,C,triangle.png,1,z,Thu Dec 11 2025 15:38:39 GMT-0600 (Central Standard Time),411267.5,1500,O,z,1032,3,,3324.5,407943.0,7717,NTS,B,5
4,3,prac,2,C,circle.png,0,z,Thu Dec 11 2025 15:38:39 GMT-0600 (Central Standard Time),414000.60000002384,1000,O,m,961,4,,2727.800000011921,411272.8000000119,7717,NTS,B,6
1,3,prac,2,C,circle.png,0,z,Thu Dec 11 2025 15:38:39 GMT-0600 (Central Standard Time),417997.89999997616,1700,O,None,1516,1,,3994.0,414003.89999997616,7717,NTS,B,7
8,4,prac,2,C,triangle.png,1,m,Thu Dec 11 2025 15:38:39 GMT-0600 (Central Standard Time),421497.60000002384,1400,O,m,1308,7,,3494.7000000476837,418002.89999997616,7717,NTS,B,8
4,5,prac,2,C,circle.png,1,z,Thu Dec 11 2025 15:38:39 GMT-0600 (Central Standard Time),423963.89999997616,1000,O,z,691,4,,2461.099999964237,421502.8000000119,7717,NTS,B,9
1,5,prac,2,C,circle.png,0,z,Thu Dec 11 2025 15:38:39 GMT-0600 (Central Standard Time),427946.8000000119,1700,O,None,1516,1,,3976.199999988079,423970.60000002384,7717,NTS,B,10
2,6,prac,2,C,triangle.png,1,m,Thu Dec 11 2025 15:38:39 GMT-0600 (Central Standard Time),431477.39999997616,1600,O,m,1149,2,,3525.2999999523163,427952.10000002384,7717,NTS,B,11
9,7,prac,2,C,circle.png,1,m,Thu Dec 11 2025 15:38:39 GMT-0600 (Central Standard Time),435293.89999997616,1900,O,m,1124,8,,3812.099999964237,431481.8000000119,7717,NTS,B,12
7,1,test,1,C,triangle.png,1,z,Thu Dec 11 2025 15:38:39 GMT-0600 (Central Standard Time),469748.60000002384,1700,O,z,1466,6,,3195.100000023842,466553.5,7717,NTS,B,1
8,2,test,1,C,triangle.png,1,m,Thu Dec 11 2025 15:38:39 GMT-0600 (Central Standard Time),472231.0,1600,O,m,855,23,,2478.800000011921,469752.1999999881,7717,NTS,B,2
4,3,test,1,C,triangle.png,1,m,Thu Dec 11 2025 15:38:39 GMT-0600 (Central Standard Time),474747.1999999881,1500,O,m,986,20,,2512.199999988079,472235.0,7717,NTS,B,3
9,4,test,1,C,circle.png,1,m,Thu Dec 11 2025 15:38:39 GMT-0600 (Central Standard Time),477379.5,1500,O,m,1107,24,,2625.399999976158,474754.10000002384,7717,NTS,B,4
3,5,test,1,C,circle.png,1,z,Thu Dec 11 2025 15:38:39 GMT-0600 (Central Standard Time),480061.8000000119,1600,O,z,1060,19,,2675.100000023842,477386.6999999881,7717,NTS,B,5
3,6,test,1,C,triangle.png,1,z,Thu Dec 11 2025 15:38:39 GMT-0600 (Central Standard Time),482177.5,1200,O,z,893,3,,2112.0,480065.5,7717,NTS,B,6
4,6,test,1,C,triangle.png,0,m,Thu Dec 11 2025 15:38:39 GMT-0600 (Central Standard Time),485210.0,1500,O,None,1516,12,,3026.399999976158,482183.60000002384,7717,NTS,B,7
1,7,test,1,C,triangle.png,1,z,Thu Dec 11 2025 15:38:39 GMT-0600 (Central Standard Time),487942.60000002384,1900,O,z,806,9,,2725.900000035763,485216.6999999881,7717,NTS,B,8
6,8,test,1,C,circle.png,1,m,Thu Dec 11 2025 15:38:39 GMT-0600 (Central Standard Time),490810.39999997616,1900,O,m,945,5,,2861.399999976158,487949.0,7717,NTS,B,9
7,9,test,1,C,triangle.png,1,z,Thu Dec 11 2025 15:38:39 GMT-0600 (Central Standard Time),493776.10000002384,1700,O,z,1234,22,,2960.5,490815.60000002384,7717,NTS,B,10
1,10,test,1,C,circle.png,1,z,Thu Dec 11 2025 15:38:39 GMT-0600 (Central Standard Time),495923.8000000119,1000,O,z,1118,1,,2141.5,493782.3000000119,7717,NTS,B,11
6,11,test,1,C,triangle.png,1,m,Thu Dec 11 2025 15:38:39 GMT-0600 (Central Standard Time),498123.10000002384,1000,O,m,1166,13,,2192.7000000476837,495930.39999997616,7717,NTS,B,12
2,12,test,1,C,triangle.png,1,m,Thu Dec 11 2025 15:38:39 GMT-0600 (Central Standard Time),500655.60000002384,2000,O,m,506,2,,2526.900000035763,498128.6999999881,7717,NTS,B,13
7,13,test,1,C,circle.png,1,m,Thu Dec 11 2025 15:38:39 GMT-0600 (Central Standard Time),504021.1999999881,2000,O,m,1332,14,,3360.800000011921,500660.39999997616,7717,NTS,B,14
9,13,test,1,C,triangle.png,0,z,Thu Dec 11 2025 15:38:39 GMT-0600 (Central Standard Time),506952.6999999881,1400,O,None,1515,16,,2928.5,504024.1999999881,7717,NTS,B,15
4,14,test,1,C,circle.png,1,z,Thu Dec 11 2025 15:38:39 GMT-0600 (Central Standard Time),509252.60000002384,1400,O,z,867,4,,2295.800000011921,506956.8000000119,7717,NTS,B,16
3,14,test,1,C,circle.png,0,z,Thu Dec 11 2025 15:38:39 GMT-0600 (Central Standard Time),512386.10000002384,1600,O,None,1516,11,,3128.7000000476837,509257.39999997616,7717,NTS,B,17
6,14,test,1,C,circle.png,0,m,Thu Dec 11 2025 15:38:39 GMT-0600 (Central Standard Time),515817.5,1900,O,None,1516,21,,3427.100000023842,512390.39999997616,7717,NTS,B,18
2,15,test,1,C,circle.png,1,z,Thu Dec 11 2025 15:38:39 GMT-0600 (Central Standard Time),518582.60000002384,1700,O,z,1047,10,,2759.900000035763,515822.6999999881,7717,NTS,B,19
2,16,test,1,C,circle.png,1,z,Thu Dec 11 2025 15:38:39 GMT-0600 (Central Standard Time),521231.89999997616,1700,O,z,920,18,,2644.099999964237,518587.8000000119,7717,NTS,B,20
8,17,test,1,C,circle.png,1,m,Thu Dec 11 2025 15:38:39 GMT-0600 (Central Standard Time),523414.60000002384,1200,O,m,953,15,,2180.0,521234.60000002384,7717,NTS,B,21
8,17,test,1,C,triangle.png,0,m,Thu Dec 11 2025 15:38:39 GMT-0600 (Central Standard Time),526546.6000000238,1600,O,None,1515,7,,3127.7000000476837,523418.89999997616,7717,NTS,B,22
1,18,test,1,C,triangle.png,1,z,Thu Dec 11 2025 15:38:39 GMT-0600 (Central Standard Time),529280.1999999881,1900,O,z,813,17,,2729.5,526550.6999999881,7717,NTS,B,23
9,19,test,1,C,circle.png,1,m,Thu Dec 11 2025 15:38:39 GMT-0600 (Central Standard Time),531562.3000000119,1500,O,m,752,8,,2277.800000011921,529284.5,7717,NTS,B,24
6,0,test,2,C,triangle.png,0,m,Thu Dec 11 2025 15:38:39 GMT-0600 (Central Standard Time),553939.5,1000,O,None,1515,21,,2526.5,551413.0,7717,NTS,B,1
4,1,test,2,C,circle.png,1,z,Thu Dec 11 2025 15:38:39 GMT-0600 (Central Standard Time),556221.1999999881,1400,O,z,857,4,,2276.800000011921,553944.3999999762,7717,NTS,B,2
9,2,test,2,C,triangle.png,1,z,Thu Dec 11 2025 15:38:39 GMT-0600 (Central Standard Time),559004.0,1400,O,z,1360,24,,2779.399999976158,556224.6000000238,7717,NTS,B,3
1,2,test,2,C,triangle.png,0,z,Thu Dec 11 2025 15:38:39 GMT-0600 (Central Standard Time),562420.6000000238,1900,O,None,1501,9,,3413.600000023842,559007.0,7717,NTS,B,4
7,3,test,2,C,circle.png,1,m,Thu Dec 11 2025 15:38:39 GMT-0600 (Central Standard Time),565601.1999999881,2000,O,m,1161,22,,3174.099999964237,562427.1000000238,7717,NTS,B,5
6,3,test,2,C,triangle.png,0,m,Thu Dec 11 2025 15:38:39 GMT-0600 (Central Standard Time),568133.8999999762,1000,O,None,1515,13,,2527.399999976158,565606.5,7717,NTS,B,6
9,4,test,2,C,triangle.png,1,z,Thu Dec 11 2025 15:38:39 GMT-0600 (Central Standard Time),570834.1000000238,1400,O,z,1270,16,,2694.300000011921,568139.8000000119,7717,NTS,B,7
3,5,test,2,C,triangle.png,1,z,Thu Dec 11 2025 15:38:39 GMT-0600 (Central Standard Time),572883.8000000119,1200,O,z,827,3,,2045.699999988079,570838.1000000238,7717,NTS,B,8
8,6,test,2,C,circle.png,1,m,Thu Dec 11 2025 15:38:39 GMT-0600 (Central Standard Time),575149.1999999881,1200,O,m,1033,23,,2260.199999988079,572889.0,7717,NTS,B,9
9,7,test,2,C,circle.png,1,m,Thu Dec 11 2025 15:38:39 GMT-0600 (Central Standard Time),577547.6999999881,1500,O,m,866,8,,2392.699999988079,575155.0,7717,NTS,B,10
8,7,test,2,C,triangle.png,0,m,Thu Dec 11 2025 15:38:39 GMT-0600 (Central Standard Time),580046.6999999881,1600,O,z,864,7,,2495.399999976158,577551.3000000119,7717,NTS,B,11
3,8,test,2,C,circle.png,1,z,Thu Dec 11 2025 15:38:39 GMT-0600 (Central Standard Time),582996.8000000119,1600,O,z,1332,11,,2944.699999988079,580052.1000000238,7717,NTS,B,12
4,9,test,2,C,triangle.png,1,m,Thu Dec 11 2025 15:38:39 GMT-0600 (Central Standard Time),585378.6999999881,1500,O,m,860,12,,2377.399999976158,583001.3000000119,7717,NTS,B,13
7,9,test,2,C,circle.png,0,m,Thu Dec 11 2025 15:38:39 GMT-0600 (Central Standard Time),588910.6999999881,2000,O,None,1516,14,,3528.300000011921,585382.3999999762,7717,NTS,B,14
2,10,test,2,C,circle.png,1,z,Thu Dec 11 2025 15:38:39 GMT-0600 (Central Standard Time),591542.6999999881,1700,O,z,900,18,,2627.399999976158,588915.3000000119,7717,NTS,B,15
7,10,test,2,C,triangle.png,0,z,Thu Dec 11 2025 15:38:39 GMT-0600 (Central Standard Time),594774.8000000119,1700,O,None,1515,6,,3225.699999988079,591549.1000000238,7717,NTS,B,16
4,10,test,2,C,triangle.png,0,m,Thu Dec 11 2025 15:38:39 GMT-0600 (Central Standard Time),597508.6000000238,1500,O,z,1208,20,,2731.100000023842,594777.5,7717,NTS,B,17
6,11,test,2,C,circle.png,1,m,Thu Dec 11 2025 15:38:39 GMT-0600 (Central Standard Time),600840.6000000238,1900,O,m,1403,5,,3327.2000000476837,597513.3999999762,7717,NTS,B,18
1,12,test,2,C,circle.png,1,z,Thu Dec 11 2025 15:38:39 GMT-0600 (Central Standard Time),603090.6000000238,1000,O,z,1216,1,,2244.5,600846.1000000238,7717,NTS,B,19
2,13,test,2,C,circle.png,1,z,Thu Dec 11 2025 15:38:39 GMT-0600 (Central Standard Time),605721.6999999881,1700,O,z,903,10,,2624.099999964237,603097.6000000238,7717,NTS,B,20
1,13,test,2,C,triangle.png,0,z,Thu Dec 11 2025 15:38:39 GMT-0600 (Central Standard Time),609139.8000000119,1900,O,None,1502,17,,3412.199999988079,605727.6000000238,7717,NTS,B,21
3,14,test,2,C,circle.png,1,z,Thu Dec 11 2025 15:38:39 GMT-0600 (Central Standard Time),611353.1999999881,1600,O,z,594,19,,2209.300000011921,609143.8999999762,7717,NTS,B,22
2,15,test,2,C,triangle.png,1,m,Thu Dec 11 2025 15:38:39 GMT-0600 (Central Standard Time),614203.3999999762,2000,O,m,825,2,,2845.199999988079,611358.1999999881,7717,NTS,B,23
8,16,test,2,C,circle.png,1,m,Thu Dec 11 2025 15:38:39 GMT-0600 (Central Standard Time),616069.1999999881,1200,O,m,637,15,,1861.3999999761581,614207.8000000119,7717,NTS,B,24
9,0,test,3,C,circle.png,0,m,Thu Dec 11 2025 15:38:39 GMT-0600 (Central Standard Time),627649.0,1500,O,None,1515,8,,3029.600000023842,624619.3999999762,7717,NTS,B,1
9,1,test,3,C,triangle.png,1,z,Thu Dec 11 2025 15:38:39 GMT-0600 (Central Standard Time),630281.0,1400,O,z,1211,16,,2626.199999988079,627654.8000000119,7717,NTS,B,2
6,2,test,3,C,triangle.png,1,m,Thu Dec 11 2025 15:38:39 GMT-0600 (Central Standard Time),632197.5,1000,O,m,892,13,,1913.1000000238419,630284.3999999762,7717,NTS,B,3
3,3,test,3,C,triangle.png,1,z,Thu Dec 11 2025 15:38:39 GMT-0600 (Central Standard Time),634413.1999999881,1200,O,z,982,19,,2211.099999964237,632202.1000000238,7717,NTS,B,4
2,4,test,3,C,triangle.png,1,m,Thu Dec 11 2025 15:38:39 GMT-0600 (Central Standard Time),637178.0,2000,O,m,744,2,,2757.699999988079,634420.3000000119,7717,NTS,B,5
6,5,test,3,C,circle.png,1,m,Thu Dec 11 2025 15:38:39 GMT-0600 (Central Standard Time),640395.1000000238,1900,O,m,1287,21,,3211.7000000476837,637183.3999999762,7717,NTS,B,6
1,6,test,3,C,circle.png,1,z,Thu Dec 11 2025 15:38:39 GMT-0600 (Central Standard Time),642826.5,1000,O,z,1408,17,,2426.100000023842,640400.3999999762,7717,NTS,B,7
9,7,test,3,C,circle.png,1,m,Thu Dec 11 2025 15:38:39 GMT-0600 (Central Standard Time),645028.3999999762,1500,O,m,684,24,,2196.7999999523163,642831.6000000238,7717,NTS,B,8
8,8,test,3,C,triangle.png,1,m,Thu Dec 11 2025 15:38:39 GMT-0600 (Central Standard Time),647991.8000000119,1600,O,m,1345,23,,2959.699999988079,645032.1000000238,7717,NTS,B,9
1,9,test,3,C,circle.png,1,z,Thu Dec 11 2025 15:38:39 GMT-0600 (Central Standard Time),650340.8999999762,1000,O,z,1331,1,,2344.099999964237,647996.8000000119,7717,NTS,B,10
8,10,test,3,C,triangle.png,1,m,Thu Dec 11 2025 15:38:39 GMT-0600 (Central Standard Time),652990.1000000238,1600,O,m,1023,7,,2643.600000023842,650346.5,7717,NTS,B,11
4,11,test,3,C,circle.png,1,z,Thu Dec 11 2025 15:38:39 GMT-0600 (Central Standard Time),655422.8000000119,1400,O,z,999,4,,2429.100000023842,652993.6999999881,7717,NTS,B,12
8,12,test,3,C,circle.png,1,m,Thu Dec 11 2025 15:38:39 GMT-0600 (Central Standard Time),658006.1999999881,1200,O,m,1356,15,,2580.199999988079,655426.0,7717,NTS,B,13
7,13,test,3,C,circle.png,1,m,Thu Dec 11 2025 15:38:39 GMT-0600 (Central Standard Time),661087.3000000119,2000,O,m,1062,14,,3078.5,658008.8000000119,7717,NTS,B,14
3,14,test,3,C,circle.png,1,z,Thu Dec 11 2025 15:38:39 GMT-0600 (Central Standard Time),663503.1000000238,1600,O,z,795,11,,2412.2000000476837,661090.8999999762,7717,NTS,B,15
6,15,test,3,C,circle.png,1,m,Thu Dec 11 2025 15:38:39 GMT-0600 (Central Standard Time),666186.5,1900,O,m,763,5,,2680.899999976158,663505.6000000238,7717,NTS,B,16
2,15,test,3,C,triangle.png,0,m,Thu Dec 11 2025 15:38:39 GMT-0600 (Central Standard Time),669718.6000000238,2000,O,None,1517,18,,3528.600000023842,666190.0,7717,NTS,B,17
7,16,test,3,C,triangle.png,1,z,Thu Dec 11 2025 15:38:39 GMT-0600 (Central Standard Time),672735.3000000119,1700,O,z,1288,22,,3012.699999988079,669722.6000000238,7717,NTS,B,18
4,17,test,3,C,circle.png,1,z,Thu Dec 11 2025 15:38:39 GMT-0600 (Central Standard Time),675117.3000000119,1400,O,z,957,20,,2378.600000023842,672738.6999999881,7717,NTS,B,19
4,17,test,3,C,triangle.png,0,m,Thu Dec 11 2025 15:38:39 GMT-0600 (Central Standard Time),677648.5,1500,O,z,1013,12,,2527.399999976158,675121.1000000238,7717,NTS,B,20
3,18,test,3,C,triangle.png,1,z,Thu Dec 11 2025 15:38:39 GMT-0600 (Central Standard Time),680280.5,1200,O,z,1401,3,,2627.100000023842,677653.3999999762,7717,NTS,B,21
1,18,test,3,C,triangle.png,0,z,Thu Dec 11 2025 15:38:39 GMT-0600 (Central Standard Time),683714.8999999762,1900,O,None,1517,9,,3431.199999988079,680283.6999999881,7717,NTS,B,22
7,18,test,3,C,triangle.png,0,z,Thu Dec 11 2025 15:38:39 GMT-0600 (Central Standard Time),686696.8000000119,1700,O,m,1263,6,,2976.5,683720.3000000119,7717,NTS,B,23
2,19,test,3,C,circle.png,1,z,Thu Dec 11 2025 15:38:39 GMT-0600 (Central Standard Time),689345.1000000238,1700,O,z,919,10,,2644.100000023842,686701.0,7717,NTS,B,24
7,0,test,4,C,circle.png,0,m,Thu Dec 11 2025 15:38:39 GMT-0600 (Central Standard Time),708390.6999999881,2000,O,None,1501,14,,3513.899999976158,704876.8000000119,7717,NTS,B,1
6,0,test,4,C,triangle.png,0,m,Thu Dec 11 2025 15:38:39 GMT-0600 (Central Standard Time),710422.1000000238,1000,O,z,1015,13,,2026.2000000476837,708395.8999999762,7717,NTS,B,2
7,1,test,4,C,triangle.png,1,z,Thu Dec 11 2025 15:38:39 GMT-0600 (Central Standard Time),713137.5,1700,O,z,985,22,,2711.899999976158,710425.6000000238,7717,NTS,B,3
1,2,test,4,C,triangle.png,1,z,Thu Dec 11 2025 15:38:39 GMT-0600 (Central Standard Time),715836.1000000238,1900,O,z,782,9,,2690.2000000476837,713145.8999999762,7717,NTS,B,4
2,3,test,4,C,triangle.png,1,m,Thu Dec 11 2025 15:38:39 GMT-0600 (Central Standard Time),718902.6999999881,2000,O,m,1038,2,,3063.699999988079,715839.0,7717,NTS,B,5
3,4,test,4,C,circle.png,1,z,Thu Dec 11 2025 15:38:39 GMT-0600 (Central Standard Time),721886.6000000238,1600,O,z,1366,11,,2977.2000000476837,718909.3999999762,7717,NTS,B,6
8,5,test,4,C,triangle.png,1,m,Thu Dec 11 2025 15:38:39 GMT-0600 (Central Standard Time),724483.8999999762,1600,O,m,967,7,,2588.7999999523163,721895.1000000238,7717,NTS,B,7
1,6,test,4,C,circle.png,1,z,Thu Dec 11 2025 15:38:39 GMT-0600 (Central Standard Time),726433.3999999762,1000,O,z,920,17,,1942.0,724491.3999999762,7717,NTS,B,8
9,7,test,4,C,circle.png,1,m,Thu Dec 11 2025 15:38:39 GMT-0600 (Central Standard Time),728733.5,1500,O,m,767,8,,2295.0,726438.5,7717,NTS,B,9
1,8,test,4,C,circle.png,1,z,Thu Dec 11 2025 15:38:39 GMT-0600 (Central Standard Time),730499.1000000238,1000,O,z,734,1,,1757.9000000357628,728741.1999999881,7717,NTS,B,10
8,9,test,4,C,circle.png,1,m,Thu Dec 11 2025 15:38:39 GMT-0600 (Central Standard Time),732565.1000000238,1200,O,m,848,15,,2062.100000023842,730503.0,7717,NTS,B,11
4,10,test,4,C,circle.png,1,z,Thu Dec 11 2025 15:38:39 GMT-0600 (Central Standard Time),734864.3000000119,1400,O,z,879,4,,2292.300000011921,732572.0,7717,NTS,B,12
6,10,test,4,C,circle.png,0,m,Thu Dec 11 2025 15:38:39 GMT-0600 (Central Standard Time),738296.3999999762,1900,O,None,1515,21,,3423.5,734872.8999999762,7717,NTS,B,13
2,11,test,4,C,circle.png,1,z,Thu Dec 11 2025 15:38:39 GMT-0600 (Central Standard Time),740645.3999999762,1700,O,z,623,10,,2338.199999988079,738307.1999999881,7717,NTS,B,14
9,12,test,4,C,circle.png,1,m,Thu Dec 11 2025 15:38:39 GMT-0600 (Central Standard Time),742928.8000000119,1500,O,m,752,24,,2280.800000011921,740648.0,7717,NTS,B,15
9,12,test,4,C,triangle.png,0,z,Thu Dec 11 2025 15:38:39 GMT-0600 (Central Standard Time),745848.8000000119,1400,O,None,1502,16,,2915.100000023842,742933.6999999881,7717,NTS,B,16
4,13,test,4,C,triangle.png,1,m,Thu Dec 11 2025 15:38:39 GMT-0600 (Central Standard Time),748143.6000000238,1500,O,m,782,12,,2290.0,745853.6000000238,7717,NTS,B,17
3,14,test,4,C,triangle.png,1,z,Thu Dec 11 2025 15:38:39 GMT-0600 (Central Standard Time),750125.5,1200,O,z,757,3,,1976.8999999761581,748148.6000000238,7717,NTS,B,18
8,15,test,4,C,triangle.png,1,m,Thu Dec 11 2025 15:38:39 GMT-0600 (Central Standard Time),752658.5,1600,O,m,910,23,,2529.399999976158,750129.1000000238,7717,NTS,B,19
2,16,test,4,C,triangle.png,1,m,Thu Dec 11 2025 15:38:39 GMT-0600 (Central Standard Time),756040.6999999881,2000,O,m,1362,18,,3377.699999988079,752663.0,7717,NTS,B,20
4,17,test,4,C,circle.png,1,z,Thu Dec 11 2025 15:38:39 GMT-0600 (Central Standard Time),758606.5,1400,O,z,1148,20,,2562.399999976158,756044.1000000238,7717,NTS,B,21
6,18,test,4,C,circle.png,1,m,Thu Dec 11 2025 15:38:39 GMT-0600 (Central Standard Time),761256.1999999881,1900,O,m,730,5,,2644.300000011921,758611.8999999762,7717,NTS,B,22
3,19,test,4,C,triangle.png,1,z,Thu Dec 11 2025 15:38:39 GMT-0600 (Central Standard Time),763623.3000000119,1200,O,z,1149,19,,2363.699999988079,761259.6000000238,7717,NTS,B,23
7,20,test,4,C,triangle.png,1,z,Thu Dec 11 2025 15:38:39 GMT-0600 (Central Standard Time),766040.3000000119,1700,O,z,697,6,,2413.600000023842,763626.6999999881,7717,NTS,B,24
