block_c,block_dur,condition,countdown,datetime,endtime,list,multichar_response,project,response,response_time,session_number,start_end,starttime,subject_id,task,task_vers,trial
,,,,Thu Feb 05 2026 12:28:30 GMT-0500 (Eastern Standard Time),,,,I,space,593,2,,,9033,WL,C,
prac,,0,,Thu Feb 05 2026 12:28:30 GMT-0500 (Eastern Standard Time),,NA,b,I,b,3957,2,,,9033,WL,C,1.0
prac,,0,,Thu Feb 05 2026 12:28:30 GMT-0500 (Eastern Standard Time),,NA,bo,I,o,694,2,,,9033,WL,C,1.0
prac,,0,,Thu Feb 05 2026 12:28:30 GMT-0500 (Eastern Standard Time),,NA,boo,I,o,146,2,,,9033,WL,C,1.0
prac,,0,,Thu Feb 05 2026 12:28:30 GMT-0500 (Eastern Standard Time),,NA,boos,I,s,227,2,,,9033,WL,C,1.0
prac,,0,,Thu Feb 05 2026 12:28:30 GMT-0500 (Eastern Standard Time),,NA,boost,I,t,320,2,,,9033,WL,C,1.0
prac,,0,,Thu Feb 05 2026 12:28:30 GMT-0500 (Eastern Standard Time),,NA,boostenter,I,enter,3491,2,,,9033,WL,C,1.0
1,0.4160001277923584,learn,59583.99987220764,Thu Feb 05 2026 12:28:30 GMT-0500 (Eastern Standard Time),114402.20000000298,A,w,I,w,394,2,415.40000000596046,113986.79999999702,9033,WL,C,1.0
1,0.7330000400543213,learn,59266.99995994568,Thu Feb 05 2026 12:28:30 GMT-0500 (Eastern Standard Time),114718.70000000298,A,wh,I,h,300,2,731.9000000059605,113986.79999999702,9033,WL,C,1.0
1,1.065999984741211,learn,58934.00001525879,Thu Feb 05 2026 12:28:30 GMT-0500 (Eastern Standard Time),115051.79999999702,A,whe,I,e,319,2,1065.0,113986.79999999702,9033,WL,C,1.0
1,1.4320001602172852,learn,58567.999839782715,Thu Feb 05 2026 12:28:30 GMT-0500 (Eastern Standard Time),115417.90000000596,A,whea,I,a,346,2,1431.1000000089407,113986.79999999702,9033,WL,C,1.0
1,1.815999984741211,learn,58184.00001525879,Thu Feb 05 2026 12:28:30 GMT-0500 (Eastern Standard Time),115801.90000000596,A,wheat,I,t,373,2,1815.1000000089407,113986.79999999702,9033,WL,C,1.0
1,4.281000137329102,learn,55718.9998626709,Thu Feb 05 2026 12:28:30 GMT-0500 (Eastern Standard Time),118267.20000000298,A,wheatq,I,q,2449,2,4280.4000000059605,113986.79999999702,9033,WL,C,1.0
1,4.5980000495910645,learn,55401.999950408936,Thu Feb 05 2026 12:28:30 GMT-0500 (Eastern Standard Time),118584.29999999702,A,wheatqu,I,u,308,2,4597.5,113986.79999999702,9033,WL,C,1.0
1,5.016000032424927,learn,54983.99996757507,Thu Feb 05 2026 12:28:30 GMT-0500 (Eastern Standard Time),119001.60000000894,A,wheatque,I,e,405,2,5014.800000011921,113986.79999999702,9033,WL,C,1.0
1,5.332000017166138,learn,54667.99998283386,Thu Feb 05 2026 12:28:30 GMT-0500 (Eastern Standard Time),119318.0,A,wheatquee,I,e,292,2,5331.20000000298,113986.79999999702,9033,WL,C,1.0
1,6.117000102996826,learn,53882.999897003174,Thu Feb 05 2026 12:28:30 GMT-0500 (Eastern Standard Time),120102.5,A,wheatqueen,I,n,759,2,6115.70000000298,113986.79999999702,9033,WL,C,1.0
1,8.48200011253357,learn,51517.99988746643,Thu Feb 05 2026 12:28:30 GMT-0500 (Eastern Standard Time),122468.29999999702,A,wheatqueenb,I,b,2343,2,8481.5,113986.79999999702,9033,WL,C,1.0
1,8.914999961853027,learn,51085.00003814697,Thu Feb 05 2026 12:28:30 GMT-0500 (Eastern Standard Time),122901.29999999702,A,wheatqueenbo,I,o,410,2,8914.5,113986.79999999702,9033,WL,C,1.0
1,9.466000080108643,learn,50533.99991989136,Thu Feb 05 2026 12:28:30 GMT-0500 (Eastern Standard Time),123451.60000000894,A,wheatqueenboy,I,y,528,2,9464.800000011921,113986.79999999702,9033,WL,C,1.0
1,11.5,learn,48500.0,Thu Feb 05 2026 12:28:30 GMT-0500 (Eastern Standard Time),125485.5,A,wheatqueenboys,I,s,2015,2,11498.70000000298,113986.79999999702,9033,WL,C,1.0
1,11.865000009536743,learn,48134.99999046326,Thu Feb 05 2026 12:28:30 GMT-0500 (Eastern Standard Time),125850.5,A,wheatqueenboysu,I,u,352,2,11863.70000000298,113986.79999999702,9033,WL,C,1.0
1,12.332000017166138,learn,47667.99998283386,Thu Feb 05 2026 12:28:30 GMT-0500 (Eastern Standard Time),126317.40000000596,A,wheatqueenboysug,I,g,441,2,12330.60000000894,113986.79999999702,9033,WL,C,1.0
1,12.699000120162964,learn,47300.999879837036,Thu Feb 05 2026 12:28:30 GMT-0500 (Eastern Standard Time),126684.70000000298,A,wheatqueenboysuga,I,a,345,2,12697.90000000596,113986.79999999702,9033,WL,C,1.0
1,13.050000190734863,learn,46949.99980926514,Thu Feb 05 2026 12:28:30 GMT-0500 (Eastern Standard Time),127036.10000000894,A,wheatqueenboysugar,I,r,337,2,13049.300000011921,113986.79999999702,9033,WL,C,1.0
1,15.999000072479248,learn,44000.99992752075,Thu Feb 05 2026 12:28:30 GMT-0500 (Eastern Standard Time),129984.79999999702,A,wheatqueenboysugars,I,s,2931,2,15998.0,113986.79999999702,9033,WL,C,1.0
1,16.299000024795532,learn,43700.99997520447,Thu Feb 05 2026 12:28:30 GMT-0500 (Eastern Standard Time),130285.29999999702,A,wheatqueenboysugarsh,I,h,284,2,16298.5,113986.79999999702,9033,WL,C,1.0
1,16.71500015258789,learn,43284.99984741211,Thu Feb 05 2026 12:28:30 GMT-0500 (Eastern Standard Time),130701.0,A,wheatqueenboysugarsho,I,o,402,2,16714.20000000298,113986.79999999702,9033,WL,C,1.0
1,17.381999969482422,learn,42618.00003051758,Thu Feb 05 2026 12:28:30 GMT-0500 (Eastern Standard Time),131368.10000000894,A,wheatqueenboysugarshor,I,r,651,2,17381.30000001192,113986.79999999702,9033,WL,C,1.0
1,17.999000072479248,learn,42000.99992752075,Thu Feb 05 2026 12:28:30 GMT-0500 (Eastern Standard Time),131985.0,A,wheatqueenboysugarshore,I,e,600,2,17998.20000000298,113986.79999999702,9033,WL,C,1.0
1,19.433000087738037,learn,40566.99991226196,Thu Feb 05 2026 12:28:30 GMT-0500 (Eastern Standard Time),133418.60000000894,A,wheatqueenboysugarshorec,I,c,1412,2,19431.80000001192,113986.79999999702,9033,WL,C,1.0
1,19.749000072479248,learn,40250.99992752075,Thu Feb 05 2026 12:28:30 GMT-0500 (Eastern Standard Time),133734.90000000596,A,wheatqueenboysugarshoreca,I,a,294,2,19748.10000000894,113986.79999999702,9033,WL,C,1.0
1,20.015000104904175,learn,39984.999895095825,Thu Feb 05 2026 12:28:30 GMT-0500 (Eastern Standard Time),134000.70000000298,A,wheatqueenboysugarshorecat,I,t,246,2,20013.90000000596,113986.79999999702,9033,WL,C,1.0
1,20.348999977111816,learn,39651.00002288818,Thu Feb 05 2026 12:28:30 GMT-0500 (Eastern Standard Time),134335.10000000894,A,wheatqueenboysugarshorecatt,I,t,317,2,20348.30000001192,113986.79999999702,9033,WL,C,1.0
1,21.164999961853027,learn,38835.00003814697,Thu Feb 05 2026 12:28:30 GMT-0500 (Eastern Standard Time),135150.60000000894,A,wheatqueenboysugarshorecattl,I,l,795,2,21163.80000001192,113986.79999999702,9033,WL,C,1.0
1,22.14800000190735,learn,37851.99999809265,Thu Feb 05 2026 12:28:30 GMT-0500 (Eastern Standard Time),136134.0,A,wheatqueenboysugarshorecattle,I,e,965,2,22147.20000000298,113986.79999999702,9033,WL,C,1.0
1,31.299000024795532,learn,28700.999975204468,Thu Feb 05 2026 12:28:30 GMT-0500 (Eastern Standard Time),145285.10000000894,A,wheatqueenboysugarshorecattl,I,backspace,9137,2,31298.30000001192,113986.79999999702,9033,WL,C,1.0
1,31.46500015258789,learn,28534.99984741211,Thu Feb 05 2026 12:28:30 GMT-0500 (Eastern Standard Time),145450.70000000298,A,wheatqueenboysugarshorecatt,I,backspace,153,2,31463.90000000596,113986.79999999702,9033,WL,C,1.0
1,31.598000049591064,learn,28401.999950408936,Thu Feb 05 2026 12:28:30 GMT-0500 (Eastern Standard Time),145583.90000000596,A,wheatqueenboysugarshorecat,I,backspace,121,2,31597.10000000894,113986.79999999702,9033,WL,C,1.0
1,32.81599998474121,learn,27184.00001525879,Thu Feb 05 2026 12:28:30 GMT-0500 (Eastern Standard Time),146802.10000000894,A,wheatqueenboysugarshoreca,I,backspace,1203,2,32815.30000001192,113986.79999999702,9033,WL,C,1.0
1,32.96500015258789,learn,27034.99984741211,Thu Feb 05 2026 12:28:30 GMT-0500 (Eastern Standard Time),146950.70000000298,A,wheatqueenboysugarshorec,I,backspace,133,2,32963.90000000596,113986.79999999702,9033,WL,C,1.0
1,33.11500000953674,learn,26884.999990463257,Thu Feb 05 2026 12:28:30 GMT-0500 (Eastern Standard Time),147101.10000000894,A,wheatqueenboysugarshore,I,backspace,127,2,33114.30000001192,113986.79999999702,9033,WL,C,1.0
1,33.23200011253357,learn,26767.99988746643,Thu Feb 05 2026 12:28:30 GMT-0500 (Eastern Standard Time),147217.40000000596,A,wheatqueenboysugarshor,I,backspace,106,2,33230.60000000894,113986.79999999702,9033,WL,C,1.0
1,33.36500000953674,learn,26634.999990463257,Thu Feb 05 2026 12:28:30 GMT-0500 (Eastern Standard Time),147351.29999999702,A,wheatqueenboysugarsho,I,backspace,125,2,33364.5,113986.79999999702,9033,WL,C,1.0
1,33.48100018501282,learn,26518.999814987183,Thu Feb 05 2026 12:28:30 GMT-0500 (Eastern Standard Time),147467.29999999702,A,wheatqueenboysugarsh,I,backspace,100,2,33480.5,113986.79999999702,9033,WL,C,1.0
1,33.61500000953674,learn,26384.999990463257,Thu Feb 05 2026 12:28:30 GMT-0500 (Eastern Standard Time),147600.79999999702,A,wheatqueenboysugars,I,backspace,112,2,33614.0,113986.79999999702,9033,WL,C,1.0
1,33.73100018501282,learn,26268.999814987183,Thu Feb 05 2026 12:28:30 GMT-0500 (Eastern Standard Time),147717.5,A,wheatqueenboysugar,I,backspace,105,2,33730.70000000298,113986.79999999702,9033,WL,C,1.0
1,33.86500000953674,learn,26134.999990463257,Thu Feb 05 2026 12:28:30 GMT-0500 (Eastern Standard Time),147850.79999999702,A,wheatqueenboysuga,I,backspace,119,2,33864.0,113986.79999999702,9033,WL,C,1.0
1,33.998000144958496,learn,26001.999855041504,Thu Feb 05 2026 12:28:30 GMT-0500 (Eastern Standard Time),147984.0,A,wheatqueenboysug,I,backspace,116,2,33997.20000000298,113986.79999999702,9033,WL,C,1.0
1,34.11500000953674,learn,25884.999990463257,Thu Feb 05 2026 12:28:30 GMT-0500 (Eastern Standard Time),148100.5,A,wheatqueenboysu,I,backspace,90,2,34113.70000000298,113986.79999999702,9033,WL,C,1.0
1,34.19800019264221,learn,25801.999807357788,Thu Feb 05 2026 12:28:30 GMT-0500 (Eastern Standard Time),148183.90000000596,A,wheatqueenboys,I,backspace,76,2,34197.10000000894,113986.79999999702,9033,WL,C,1.0
1,34.366000175476074,learn,25633.999824523926,Thu Feb 05 2026 12:28:30 GMT-0500 (Eastern Standard Time),148351.79999999702,A,wheatqueenboy,I,backspace,152,2,34365.0,113986.79999999702,9033,WL,C,1.0
1,34.498000144958496,learn,25501.999855041504,Thu Feb 05 2026 12:28:30 GMT-0500 (Eastern Standard Time),148484.10000000894,A,wheatqueenbo,I,backspace,117,2,34497.30000001192,113986.79999999702,9033,WL,C,1.0
1,34.63100004196167,learn,25368.99995803833,Thu Feb 05 2026 12:28:30 GMT-0500 (Eastern Standard Time),148617.29999999702,A,wheatqueenb,I,backspace,112,2,34630.5,113986.79999999702,9033,WL,C,1.0
1,34.765000104904175,learn,25234.999895095825,Thu Feb 05 2026 12:28:30 GMT-0500 (Eastern Standard Time),148750.79999999702,A,wheatqueen,I,backspace,122,2,34764.0,113986.79999999702,9033,WL,C,1.0
1,34.91499996185303,learn,25085.000038146973,Thu Feb 05 2026 12:28:30 GMT-0500 (Eastern Standard Time),148900.79999999702,A,wheatquee,I,backspace,128,2,34914.0,113986.79999999702,9033,WL,C,1.0
1,35.05000019073486,learn,24949.999809265137,Thu Feb 05 2026 12:28:30 GMT-0500 (Eastern Standard Time),149035.60000000894,A,wheatque,I,backspace,122,2,35048.80000001192,113986.79999999702,9033,WL,C,1.0
1,35.19800019264221,learn,24801.999807357788,Thu Feb 05 2026 12:28:30 GMT-0500 (Eastern Standard Time),149184.10000000894,A,wheatqu,I,backspace,131,2,35197.30000001192,113986.79999999702,9033,WL,C,1.0
1,35.33200001716614,learn,24667.999982833862,Thu Feb 05 2026 12:28:30 GMT-0500 (Eastern Standard Time),149317.70000000298,A,wheatq,I,backspace,124,2,35330.90000000596,113986.79999999702,9033,WL,C,1.0
1,35.63199996948242,learn,24368.000030517578,Thu Feb 05 2026 12:28:30 GMT-0500 (Eastern Standard Time),149618.10000000894,A,wheat,I,backspace,291,2,35631.30000001192,113986.79999999702,9033,WL,C,1.0
1,37.19800019264221,learn,22801.999807357788,Thu Feb 05 2026 12:28:30 GMT-0500 (Eastern Standard Time),151184.0,A,wheatenter,I,enter,1557,2,37197.20000000298,113986.79999999702,9033,WL,C,1.0
1,45.38199996948242,learn,14618.000030517578,Thu Feb 05 2026 12:28:30 GMT-0500 (Eastern Standard Time),159368.10000000894,A,t,I,t,8169,2,8183.800000011921,151184.29999999702,9033,WL,C,2.0
1,46.08200001716614,learn,13917.999982833862,Thu Feb 05 2026 12:28:30 GMT-0500 (Eastern Standard Time),160067.5,A,to,I,o,677,2,8883.20000000298,151184.29999999702,9033,WL,C,2.0
1,46.598999977111816,learn,13401.000022888184,Thu Feb 05 2026 12:28:30 GMT-0500 (Eastern Standard Time),160585.0,A,tow,I,w,499,2,9400.70000000298,151184.29999999702,9033,WL,C,2.0
1,46.998000144958496,learn,13001.999855041504,Thu Feb 05 2026 12:28:30 GMT-0500 (Eastern Standard Time),160983.79999999702,A,towe,I,e,376,2,9799.5,151184.29999999702,9033,WL,C,2.0
1,47.46500015258789,learn,12534.99984741211,Thu Feb 05 2026 12:28:30 GMT-0500 (Eastern Standard Time),161451.29999999702,A,tower,I,r,456,2,10267.0,151184.29999999702,9033,WL,C,2.0
1,49.430999994277954,learn,10569.000005722046,Thu Feb 05 2026 12:28:30 GMT-0500 (Eastern Standard Time),163417.20000000298,A,towerenter,I,enter,1944,2,12232.90000000596,151184.29999999702,9033,WL,C,2.0
1,50.51699995994568,learn,9483.000040054321,Thu Feb 05 2026 12:28:30 GMT-0500 (Eastern Standard Time),164502.79999999702,A,c,I,c,1081,2,1085.3999999910593,163417.40000000596,9033,WL,C,3.0
1,50.90000009536743,learn,9099.999904632568,Thu Feb 05 2026 12:28:30 GMT-0500 (Eastern Standard Time),164886.29999999702,A,co,I,o,373,2,1468.8999999910593,163417.40000000596,9033,WL,C,3.0
1,51.33400011062622,learn,8665.99988937378,Thu Feb 05 2026 12:28:30 GMT-0500 (Eastern Standard Time),165319.70000000298,A,cor,I,r,426,2,1902.2999999970198,163417.40000000596,9033,WL,C,3.0
1,51.81500005722046,learn,8184.999942779541,Thu Feb 05 2026 12:28:30 GMT-0500 (Eastern Standard Time),165800.70000000298,A,corn,I,n,460,2,2383.2999999970198,163417.40000000596,9033,WL,C,3.0
1,52.61500000953674,learn,7384.999990463257,Thu Feb 05 2026 12:28:30 GMT-0500 (Eastern Standard Time),166600.60000000894,A,cornenter,I,enter,790,2,3183.2000000029802,163417.40000000596,9033,WL,C,3.0
1,53.21500015258789,learn,6784.999847412109,Thu Feb 05 2026 12:28:30 GMT-0500 (Eastern Standard Time),167201.0,A,w,I,w,584,2,600.0999999940395,166600.90000000596,9033,WL,C,4.0
1,53.53200006484985,learn,6467.9999351501465,Thu Feb 05 2026 12:28:30 GMT-0500 (Eastern Standard Time),167518.10000000894,A,wh,I,h,311,2,917.2000000029802,166600.90000000596,9033,WL,C,4.0
1,53.89900016784668,learn,6100.99983215332,Thu Feb 05 2026 12:28:30 GMT-0500 (Eastern Standard Time),167884.60000000894,A,whe,I,e,352,2,1283.7000000029802,166600.90000000596,9033,WL,C,4.0
1,54.31500005722046,learn,5684.999942779541,Thu Feb 05 2026 12:28:30 GMT-0500 (Eastern Standard Time),168300.60000000894,A,whea,I,a,400,2,1699.7000000029802,166600.90000000596,9033,WL,C,4.0
1,54.765000104904175,learn,5234.999895095825,Thu Feb 05 2026 12:28:30 GMT-0500 (Eastern Standard Time),168751.0,A,wheat,I,t,445,2,2150.0999999940395,166600.90000000596,9033,WL,C,4.0
1,57.19800019264221,learn,2801.999807357788,Thu Feb 05 2026 12:28:30 GMT-0500 (Eastern Standard Time),171184.0,A,wheatenter,I,enter,2418,2,4583.0999999940395,166600.90000000596,9033,WL,C,4.0
1,58.06500005722046,learn,1934.999942779541,Thu Feb 05 2026 12:28:30 GMT-0500 (Eastern Standard Time),172051.29999999702,A,q,I,q,858,2,867.0999999940395,171184.20000000298,9033,WL,C,5.0
1,58.366000175476074,learn,1633.9998245239258,Thu Feb 05 2026 12:28:30 GMT-0500 (Eastern Standard Time),172351.70000000298,A,qu,I,u,277,2,1167.5,171184.20000000298,9033,WL,C,5.0
1,58.71600008010864,learn,1283.9999198913574,Thu Feb 05 2026 12:28:30 GMT-0500 (Eastern Standard Time),172701.70000000298,A,que,I,e,328,2,1517.5,171184.20000000298,9033,WL,C,5.0
1,59.05000019073486,learn,949.9998092651367,Thu Feb 05 2026 12:28:30 GMT-0500 (Eastern Standard Time),173036.0,A,quee,I,e,314,2,1851.7999999970198,171184.20000000298,9033,WL,C,5.0
1,59.39900016784668,learn,600.9998321533203,Thu Feb 05 2026 12:28:30 GMT-0500 (Eastern Standard Time),173385.10000000894,A,queen,I,n,332,2,2200.9000000059605,171184.20000000298,9033,WL,C,5.0
1,60.01600003242493,learn,-16.000032424926758,Thu Feb 05 2026 12:28:30 GMT-0500 (Eastern Standard Time),174001.70000000298,A,queenNone,I,None,610,2,2817.5,171184.20000000298,9033,WL,C,5.0
2,0.8990001678466797,learn,59100.99983215332,Thu Feb 05 2026 12:28:30 GMT-0500 (Eastern Standard Time),252418.60000000894,A,b,I,b,890,2,899.7000000029802,251518.90000000596,9033,WL,C,1.0
2,1.1490001678466797,learn,58850.99983215332,Thu Feb 05 2026 12:28:30 GMT-0500 (Eastern Standard Time),252668.29999999702,A,bo,I,o,236,2,1149.3999999910593,251518.90000000596,9033,WL,C,1.0
2,1.8819999694824219,learn,58118.00003051758,Thu Feb 05 2026 12:28:30 GMT-0500 (Eastern Standard Time),253401.0,A,boy,I,y,713,2,1882.0999999940395,251518.90000000596,9033,WL,C,1.0
2,2.315999984741211,learn,57684.00001525879,Thu Feb 05 2026 12:28:30 GMT-0500 (Eastern Standard Time),253834.90000000596,A,boyenter,I,enter,422,2,2316.0,251518.90000000596,9033,WL,C,1.0
2,3.1670000553131104,learn,56832.99994468689,Thu Feb 05 2026 12:28:30 GMT-0500 (Eastern Standard Time),254686.0,A,s,I,s,839,2,850.8999999910593,253835.10000000894,9033,WL,C,2.0
2,3.499000072479248,learn,56500.99992752075,Thu Feb 05 2026 12:28:30 GMT-0500 (Eastern Standard Time),255018.10000000894,A,su,I,u,321,2,1183.0,253835.10000000894,9033,WL,C,2.0
2,4.115000009536743,learn,55884.99999046326,Thu Feb 05 2026 12:28:30 GMT-0500 (Eastern Standard Time),255634.10000000894,A,sug,I,g,604,2,1799.0,253835.10000000894,9033,WL,C,2.0
2,4.232000112533569,learn,55767.99988746643,Thu Feb 05 2026 12:28:30 GMT-0500 (Eastern Standard Time),255750.79999999702,A,suga,I,a,108,2,1915.699999988079,253835.10000000894,9033,WL,C,2.0
2,4.617000102996826,learn,55382.999897003174,Thu Feb 05 2026 12:28:30 GMT-0500 (Eastern Standard Time),256135.90000000596,A,sugar,I,r,375,2,2300.7999999970198,253835.10000000894,9033,WL,C,2.0
2,5.065000057220459,learn,54934.99994277954,Thu Feb 05 2026 12:28:30 GMT-0500 (Eastern Standard Time),256584.10000000894,A,sugarenter,I,enter,439,2,2749.0,253835.10000000894,9033,WL,C,2.0
2,5.683000087738037,learn,54316.99991226196,Thu Feb 05 2026 12:28:30 GMT-0500 (Eastern Standard Time),257201.40000000596,A,t,I,t,602,2,617.1000000089407,256584.29999999702,9033,WL,C,3.0
2,6.182000160217285,learn,53817.999839782715,Thu Feb 05 2026 12:28:30 GMT-0500 (Eastern Standard Time),257701.29999999702,A,tp,I,p,493,2,1117.0,256584.29999999702,9033,WL,C,3.0
2,7.315999984741211,learn,52684.00001525879,Thu Feb 05 2026 12:28:30 GMT-0500 (Eastern Standard Time),258835.0,A,tpo,I,o,1119,2,2250.7000000029802,256584.29999999702,9033,WL,C,3.0
2,8.015000104904175,learn,51984.999895095825,Thu Feb 05 2026 12:28:30 GMT-0500 (Eastern Standard Time),259534.10000000894,A,tpow,I,w,682,2,2949.800000011921,256584.29999999702,9033,WL,C,3.0
2,8.23200011253357,learn,51767.99988746643,Thu Feb 05 2026 12:28:30 GMT-0500 (Eastern Standard Time),259750.79999999702,A,tpowe,I,e,202,2,3166.5,256584.29999999702,9033,WL,C,3.0
2,8.46500015258789,learn,51534.99984741211,Thu Feb 05 2026 12:28:30 GMT-0500 (Eastern Standard Time),259984.10000000894,A,tpower,I,r,215,2,3399.800000011921,256584.29999999702,9033,WL,C,3.0
2,8.848999977111816,learn,51151.00002288818,Thu Feb 05 2026 12:28:30 GMT-0500 (Eastern Standard Time),260367.70000000298,A,tpowerenter,I,enter,366,2,3783.4000000059605,256584.29999999702,9033,WL,C,3.0
2,9.532999992370605,learn,50467.000007629395,Thu Feb 05 2026 12:28:30 GMT-0500 (Eastern Standard Time),261051.70000000298,A,w,I,w,666,2,683.7000000029802,260368.0,9033,WL,C,4.0
2,9.883000135421753,learn,50116.99986457825,Thu Feb 05 2026 12:28:30 GMT-0500 (Eastern Standard Time),261402.20000000298,A,wh,I,h,339,2,1034.2000000029802,260368.0,9033,WL,C,4.0
2,10.182000160217285,learn,49817.999839782715,Thu Feb 05 2026 12:28:30 GMT-0500 (Eastern Standard Time),261701.40000000596,A,whe,I,e,292,2,1333.4000000059605,260368.0,9033,WL,C,4.0
2,10.483000040054321,learn,49516.99995994568,Thu Feb 05 2026 12:28:30 GMT-0500 (Eastern Standard Time),262002.0,A,whea,I,a,281,2,1634.0,260368.0,9033,WL,C,4.0
2,10.733000040054321,learn,49266.99995994568,Thu Feb 05 2026 12:28:30 GMT-0500 (Eastern Standard Time),262251.60000000894,A,wheat,I,t,228,2,1883.6000000089407,260368.0,9033,WL,C,4.0
2,11.199000120162964,learn,48800.999879837036,Thu Feb 05 2026 12:28:30 GMT-0500 (Eastern Standard Time),262717.5,A,wheatenter,I,enter,451,2,2349.5,260368.0,9033,WL,C,4.0
2,11.815000057220459,learn,48184.99994277954,Thu Feb 05 2026 12:28:30 GMT-0500 (Eastern Standard Time),263334.10000000894,A,s,I,s,603,2,616.4000000059605,262717.700000003,9033,WL,C,5.0
2,12.082000017166138,learn,47917.99998283386,Thu Feb 05 2026 12:28:30 GMT-0500 (Eastern Standard Time),263601.40000000596,A,sh,I,h,257,2,883.7000000029802,262717.700000003,9033,WL,C,5.0
2,12.416000127792358,learn,47583.99987220764,Thu Feb 05 2026 12:28:30 GMT-0500 (Eastern Standard Time),263935.200000003,A,sho,I,o,318,2,1217.5,262717.700000003,9033,WL,C,5.0
2,12.815000057220459,learn,47184.99994277954,Thu Feb 05 2026 12:28:30 GMT-0500 (Eastern Standard Time),264334.40000000596,A,shor,I,r,377,2,1616.7000000029802,262717.700000003,9033,WL,C,5.0
2,13.083000183105469,learn,46916.99981689453,Thu Feb 05 2026 12:28:30 GMT-0500 (Eastern Standard Time),264601.799999997,A,shore,I,e,249,2,1884.0999999940395,262717.700000003,9033,WL,C,5.0
2,13.866000175476074,learn,46133.999824523926,Thu Feb 05 2026 12:28:30 GMT-0500 (Eastern Standard Time),265385.299999997,A,shoreenter,I,enter,772,2,2667.5999999940395,262717.700000003,9033,WL,C,5.0
2,14.815999984741211,learn,45184.00001525879,Thu Feb 05 2026 12:28:30 GMT-0500 (Eastern Standard Time),266334.799999997,A,q,I,q,937,2,949.2999999970198,265385.5,9033,WL,C,6.0
2,15.216000080108643,learn,44783.99991989136,Thu Feb 05 2026 12:28:30 GMT-0500 (Eastern Standard Time),266734.40000000596,A,qu,I,u,378,2,1348.9000000059605,265385.5,9033,WL,C,6.0
2,15.532999992370605,learn,44467.000007629395,Thu Feb 05 2026 12:28:30 GMT-0500 (Eastern Standard Time),267052.0,A,que,I,e,305,2,1666.5,265385.5,9033,WL,C,6.0
2,15.748000144958496,learn,44251.999855041504,Thu Feb 05 2026 12:28:30 GMT-0500 (Eastern Standard Time),267267.40000000596,A,quee,I,e,194,2,1881.9000000059605,265385.5,9033,WL,C,6.0
2,16.049000024795532,learn,43950.99997520447,Thu Feb 05 2026 12:28:30 GMT-0500 (Eastern Standard Time),267568.40000000596,A,queen,I,n,282,2,2182.9000000059605,265385.5,9033,WL,C,6.0
2,16.767000198364258,learn,43232.99980163574,Thu Feb 05 2026 12:28:30 GMT-0500 (Eastern Standard Time),268285.40000000596,A,queenenter,I,enter,708,2,2899.9000000059605,265385.5,9033,WL,C,6.0
2,17.284000158309937,learn,42715.99984169006,Thu Feb 05 2026 12:28:30 GMT-0500 (Eastern Standard Time),268803.200000003,A,c,I,c,510,2,517.5999999940395,268285.60000000894,9033,WL,C,7.0
2,17.682000160217285,learn,42317.999839782715,Thu Feb 05 2026 12:28:30 GMT-0500 (Eastern Standard Time),269201.40000000596,A,co,I,o,386,2,915.7999999970198,268285.60000000894,9033,WL,C,7.0
2,18.700000047683716,learn,41299.999952316284,Thu Feb 05 2026 12:28:30 GMT-0500 (Eastern Standard Time),270218.799999997,A,cor,I,r,998,2,1933.199999988079,268285.60000000894,9033,WL,C,7.0
2,19.216000080108643,learn,40783.99991989136,Thu Feb 05 2026 12:28:30 GMT-0500 (Eastern Standard Time),270735.0,A,corn,I,n,500,2,2449.3999999910593,268285.60000000894,9033,WL,C,7.0
2,19.73300004005432,learn,40266.99995994568,Thu Feb 05 2026 12:28:30 GMT-0500 (Eastern Standard Time),271251.40000000596,A,cornenter,I,enter,505,2,2965.7999999970198,268285.60000000894,9033,WL,C,7.0
2,20.598999977111816,learn,39401.00002288818,Thu Feb 05 2026 12:28:30 GMT-0500 (Eastern Standard Time),272118.10000000894,A,d,I,d,862,2,866.4000000059605,271251.700000003,9033,WL,C,8.0
2,20.91600012779236,learn,39083.99987220764,Thu Feb 05 2026 12:28:30 GMT-0500 (Eastern Standard Time),272435.0,A,do,I,o,307,2,1183.2999999970198,271251.700000003,9033,WL,C,8.0
2,21.881999969482422,learn,38118.00003051758,Thu Feb 05 2026 12:28:30 GMT-0500 (Eastern Standard Time),273401.0,A,doc,I,c,947,2,2149.2999999970198,271251.700000003,9033,WL,C,8.0
2,22.432000160217285,learn,37567.999839782715,Thu Feb 05 2026 12:28:30 GMT-0500 (Eastern Standard Time),273950.700000003,A,doct,I,t,541,2,2699.0,271251.700000003,9033,WL,C,8.0
2,22.866000175476074,learn,37133.999824523926,Thu Feb 05 2026 12:28:30 GMT-0500 (Eastern Standard Time),274385.10000000894,A,docto,I,o,417,2,3133.4000000059605,271251.700000003,9033,WL,C,8.0
2,23.516000032424927,learn,36483.99996757507,Thu Feb 05 2026 12:28:30 GMT-0500 (Eastern Standard Time),275035.299999997,A,doctor,I,r,636,2,3783.5999999940395,271251.700000003,9033,WL,C,8.0
2,24.91700005531311,learn,35082.99994468689,Thu Feb 05 2026 12:28:30 GMT-0500 (Eastern Standard Time),276435.40000000596,A,doctorenter,I,enter,1379,2,5183.70000000298,271251.700000003,9033,WL,C,8.0
2,30.98300004005432,learn,29016.99995994568,Thu Feb 05 2026 12:28:30 GMT-0500 (Eastern Standard Time),282502.200000003,A,c,I,c,6056,2,6066.5999999940395,276435.60000000894,9033,WL,C,9.0
2,31.366000175476074,learn,28633.999824523926,Thu Feb 05 2026 12:28:30 GMT-0500 (Eastern Standard Time),282884.5,A,ca,I,a,367,2,6448.899999991059,276435.60000000894,9033,WL,C,9.0
2,31.881999969482422,learn,28118.000030517578,Thu Feb 05 2026 12:28:30 GMT-0500 (Eastern Standard Time),283401.299999997,A,cat,I,t,505,2,6965.699999988079,276435.60000000894,9033,WL,C,9.0
2,32.10000014305115,learn,27899.999856948853,Thu Feb 05 2026 12:28:30 GMT-0500 (Eastern Standard Time),283618.700000003,A,catt,I,t,204,2,7183.0999999940395,276435.60000000894,9033,WL,C,9.0
2,32.46600008010864,learn,27533.999919891357,Thu Feb 05 2026 12:28:30 GMT-0500 (Eastern Standard Time),283985.10000000894,A,cattl,I,l,348,2,7549.5,276435.60000000894,9033,WL,C,9.0
2,33.06599998474121,learn,26934.00001525879,Thu Feb 05 2026 12:28:30 GMT-0500 (Eastern Standard Time),284584.60000000894,A,cattle,I,e,590,2,8149.0,276435.60000000894,9033,WL,C,9.0
2,33.848999977111816,learn,26151.000022888184,Thu Feb 05 2026 12:28:30 GMT-0500 (Eastern Standard Time),285367.5,A,cattleenter,I,enter,774,2,8931.89999999106,276435.60000000894,9033,WL,C,9.0
2,34.449000120162964,learn,25550.999879837036,Thu Feb 05 2026 12:28:30 GMT-0500 (Eastern Standard Time),285967.700000003,A,h,I,h,585,2,600.0,285367.700000003,9033,WL,C,10.0
2,34.782999992370605,learn,25217.000007629395,Thu Feb 05 2026 12:28:30 GMT-0500 (Eastern Standard Time),286301.799999997,A,ho,I,o,310,2,934.0999999940395,285367.700000003,9033,WL,C,10.0
2,35.13300013542175,learn,24866.999864578247,Thu Feb 05 2026 12:28:30 GMT-0500 (Eastern Standard Time),286651.60000000894,A,hon,I,n,329,2,1283.9000000059605,285367.700000003,9033,WL,C,10.0
2,38.48200011253357,learn,21517.99988746643,Thu Feb 05 2026 12:28:30 GMT-0500 (Eastern Standard Time),290001.299999997,A,honm,I,m,3330,2,4633.5999999940395,285367.700000003,9033,WL,C,10.0
2,38.93300008773804,learn,21066.999912261963,Thu Feb 05 2026 12:28:30 GMT-0500 (Eastern Standard Time),290451.799999997,A,honme,I,e,438,2,5084.0999999940395,285367.700000003,9033,WL,C,10.0
2,39.73200011253357,learn,20267.99988746643,Thu Feb 05 2026 12:28:30 GMT-0500 (Eastern Standard Time),291251.10000000894,A,honmeenter,I,enter,786,2,5883.4000000059605,285367.700000003,9033,WL,C,10.0
2,60.01600003242493,learn,-16.000032424926758,Thu Feb 05 2026 12:28:30 GMT-0500 (Eastern Standard Time),311535.5,A,None,I,None,20280,2,20284.09999999404,291251.40000000596,9033,WL,C,11.0
3,1.1660001277923584,learn,58833.99987220764,Thu Feb 05 2026 12:28:30 GMT-0500 (Eastern Standard Time),392435.200000003,A,c,I,c,1155,2,1165.2000000029802,391270.0,9033,WL,C,1.0
3,1.633000135421753,learn,58366.99986457825,Thu Feb 05 2026 12:28:30 GMT-0500 (Eastern Standard Time),392901.90000000596,A,co,I,o,451,2,1631.9000000059605,391270.0,9033,WL,C,1.0
3,2.0490000247955322,learn,57950.99997520447,Thu Feb 05 2026 12:28:30 GMT-0500 (Eastern Standard Time),393318.40000000596,A,cor,I,r,392,2,2048.4000000059605,391270.0,9033,WL,C,1.0
3,2.6660001277923584,learn,57333.99987220764,Thu Feb 05 2026 12:28:30 GMT-0500 (Eastern Standard Time),393935.200000003,A,corn,I,n,609,2,2665.2000000029802,391270.0,9033,WL,C,1.0
3,3.6490001678466797,learn,56350.99983215332,Thu Feb 05 2026 12:28:30 GMT-0500 (Eastern Standard Time),394917.700000003,A,cornenter,I,enter,966,2,3647.7000000029802,391270.0,9033,WL,C,1.0
3,4.5329999923706055,learn,55467.000007629395,Thu Feb 05 2026 12:28:30 GMT-0500 (Eastern Standard Time),395802.299999997,A,w,I,w,877,2,884.3999999910593,394917.90000000596,9033,WL,C,2.0
3,4.749000072479248,learn,55250.99992752075,Thu Feb 05 2026 12:28:30 GMT-0500 (Eastern Standard Time),396018.0,A,wh,I,h,205,2,1100.0999999940395,394917.90000000596,9033,WL,C,2.0
3,5.184000015258789,learn,54815.99998474121,Thu Feb 05 2026 12:28:30 GMT-0500 (Eastern Standard Time),396453.10000000894,A,whe,I,e,412,2,1535.2000000029802,394917.90000000596,9033,WL,C,2.0
3,5.483000040054321,learn,54516.99995994568,Thu Feb 05 2026 12:28:30 GMT-0500 (Eastern Standard Time),396751.799999997,A,whea,I,a,288,2,1833.8999999910593,394917.90000000596,9033,WL,C,2.0
3,5.75,learn,54250.0,Thu Feb 05 2026 12:28:30 GMT-0500 (Eastern Standard Time),397018.60000000894,A,wheat,I,t,245,2,2100.7000000029802,394917.90000000596,9033,WL,C,2.0
3,6.450000047683716,learn,53549.999952316284,Thu Feb 05 2026 12:28:30 GMT-0500 (Eastern Standard Time),397718.700000003,A,wheatenter,I,enter,690,2,2800.7999999970198,394917.90000000596,9033,WL,C,2.0
3,7.39900016784668,learn,52600.99983215332,Thu Feb 05 2026 12:28:30 GMT-0500 (Eastern Standard Time),398668.40000000596,A,n,I,n,930,2,949.5,397718.90000000596,9033,WL,C,3.0
3,7.598999977111816,learn,52401.00002288818,Thu Feb 05 2026 12:28:30 GMT-0500 (Eastern Standard Time),398868.10000000894,A,na,I,a,177,2,1149.2000000029802,397718.90000000596,9033,WL,C,3.0
3,8.049000024795532,learn,51950.99997520447,Thu Feb 05 2026 12:28:30 GMT-0500 (Eastern Standard Time),399317.5,A,nai,I,i,434,2,1598.5999999940395,397718.90000000596,9033,WL,C,3.0
3,8.39900016784668,learn,51600.99983215332,Thu Feb 05 2026 12:28:30 GMT-0500 (Eastern Standard Time),399667.700000003,A,nail,I,l,332,2,1948.7999999970198,397718.90000000596,9033,WL,C,3.0
3,8.884000062942505,learn,51115.999937057495,Thu Feb 05 2026 12:28:30 GMT-0500 (Eastern Standard Time),400152.60000000894,A,nailenter,I,enter,468,2,2433.7000000029802,397718.90000000596,9033,WL,C,3.0
3,9.549000024795532,learn,50450.99997520447,Thu Feb 05 2026 12:28:30 GMT-0500 (Eastern Standard Time),400818.0,A,c,I,c,648,2,665.2000000029802,400152.799999997,9033,WL,C,4.0
3,9.933000087738037,learn,50066.99991226196,Thu Feb 05 2026 12:28:30 GMT-0500 (Eastern Standard Time),401202.5,A,ca,I,a,365,2,1049.7000000029802,400152.799999997,9033,WL,C,4.0
3,12.801000118255615,learn,47198.999881744385,Thu Feb 05 2026 12:28:30 GMT-0500 (Eastern Standard Time),404069.799999997,A,cam,I,m,2843,2,3917.0,400152.799999997,9033,WL,C,4.0
3,13.433000087738037,learn,46566.99991226196,Thu Feb 05 2026 12:28:30 GMT-0500 (Eastern Standard Time),404702.40000000596,A,camp,I,p,615,2,4549.600000008941,400152.799999997,9033,WL,C,4.0
3,14.049000024795532,learn,45950.99997520447,Thu Feb 05 2026 12:28:30 GMT-0500 (Eastern Standard Time),405318.200000003,A,campenter,I,enter,598,2,5165.4000000059605,400152.799999997,9033,WL,C,4.0
3,14.782999992370605,learn,45217.000007629395,Thu Feb 05 2026 12:28:30 GMT-0500 (Eastern Standard Time),406051.60000000894,A,b,I,b,724,2,733.2000000029802,405318.40000000596,9033,WL,C,5.0
3,15.416000127792358,learn,44583.99987220764,Thu Feb 05 2026 12:28:30 GMT-0500 (Eastern Standard Time),406685.299999997,A,bo,I,o,621,2,1366.8999999910593,405318.40000000596,9033,WL,C,5.0
3,15.867000102996826,learn,44132.999897003174,Thu Feb 05 2026 12:28:30 GMT-0500 (Eastern Standard Time),407135.60000000894,A,bod,I,d,433,2,1817.2000000029802,405318.40000000596,9033,WL,C,5.0
3,16.332000017166138,learn,43667.99998283386,Thu Feb 05 2026 12:28:30 GMT-0500 (Eastern Standard Time),407601.299999997,A,body,I,y,455,2,2282.8999999910593,405318.40000000596,9033,WL,C,5.0
3,16.932000160217285,learn,43067.999839782715,Thu Feb 05 2026 12:28:30 GMT-0500 (Eastern Standard Time),408201.0,A,bodyenter,I,enter,581,2,2882.5999999940395,405318.40000000596,9033,WL,C,5.0
3,17.633000135421753,learn,42366.99986457825,Thu Feb 05 2026 12:28:30 GMT-0500 (Eastern Standard Time),408901.90000000596,A,q,I,q,681,2,700.6000000089407,408201.299999997,9033,WL,C,6.0
3,18.466000080108643,learn,41533.99991989136,Thu Feb 05 2026 12:28:30 GMT-0500 (Eastern Standard Time),409735.10000000894,A,qu,I,u,816,2,1533.800000011921,408201.299999997,9033,WL,C,6.0
3,18.81500005722046,learn,41184.99994277954,Thu Feb 05 2026 12:28:30 GMT-0500 (Eastern Standard Time),410084.200000003,A,que,I,e,325,2,1882.9000000059605,408201.299999997,9033,WL,C,6.0
3,19.032000064849854,learn,40967.99993515015,Thu Feb 05 2026 12:28:30 GMT-0500 (Eastern Standard Time),410300.90000000596,A,quee,I,e,210,2,2099.6000000089407,408201.299999997,9033,WL,C,6.0
3,19.33300018310547,learn,40666.99981689453,Thu Feb 05 2026 12:28:30 GMT-0500 (Eastern Standard Time),410602.40000000596,A,queen,I,n,284,2,2401.1000000089407,408201.299999997,9033,WL,C,6.0
3,20.282000064849854,learn,39717.99993515015,Thu Feb 05 2026 12:28:30 GMT-0500 (Eastern Standard Time),411551.299999997,A,queenenter,I,enter,942,2,3350.0,408201.299999997,9033,WL,C,6.0
3,21.131999969482422,learn,38868.00003051758,Thu Feb 05 2026 12:28:30 GMT-0500 (Eastern Standard Time),412401.200000003,A,t,I,t,842,2,849.5999999940395,411551.60000000894,9033,WL,C,7.0
3,21.381999969482422,learn,38618.00003051758,Thu Feb 05 2026 12:28:30 GMT-0500 (Eastern Standard Time),412651.200000003,A,to,I,o,237,2,1099.5999999940395,411551.60000000894,9033,WL,C,7.0
3,21.782999992370605,learn,38217.000007629395,Thu Feb 05 2026 12:28:30 GMT-0500 (Eastern Standard Time),413052.0,A,tow,I,w,379,2,1500.3999999910593,411551.60000000894,9033,WL,C,7.0
3,22.06599998474121,learn,37934.00001525879,Thu Feb 05 2026 12:28:30 GMT-0500 (Eastern Standard Time),413335.200000003,A,towe,I,e,266,2,1783.5999999940395,411551.60000000894,9033,WL,C,7.0
3,22.41600012779236,learn,37583.99987220764,Thu Feb 05 2026 12:28:30 GMT-0500 (Eastern Standard Time),413685.299999997,A,tower,I,r,328,2,2133.699999988079,411551.60000000894,9033,WL,C,7.0
3,23.367000102996826,learn,36632.999897003174,Thu Feb 05 2026 12:28:30 GMT-0500 (Eastern Standard Time),414635.5,A,towerenter,I,enter,930,2,3083.8999999910593,411551.60000000894,9033,WL,C,7.0
3,24.16700005531311,learn,35832.99994468689,Thu Feb 05 2026 12:28:30 GMT-0500 (Eastern Standard Time),415436.0,A,h,I,h,791,2,800.2999999970198,414635.700000003,9033,WL,C,8.0
3,24.516000032424927,learn,35483.99996757507,Thu Feb 05 2026 12:28:30 GMT-0500 (Eastern Standard Time),415785.0,A,ho,I,o,330,2,1149.2999999970198,414635.700000003,9033,WL,C,8.0
3,27.016000032424927,learn,32983.99996757507,Thu Feb 05 2026 12:28:30 GMT-0500 (Eastern Standard Time),418284.60000000894,A,hom,I,m,2477,2,3648.9000000059605,414635.700000003,9033,WL,C,8.0
3,27.41600012779236,learn,32583.99987220764,Thu Feb 05 2026 12:28:30 GMT-0500 (Eastern Standard Time),418684.90000000596,A,home,I,e,387,2,4049.2000000029802,414635.700000003,9033,WL,C,8.0
3,28.015000104904175,learn,31984.999895095825,Thu Feb 05 2026 12:28:30 GMT-0500 (Eastern Standard Time),419284.200000003,A,homeenter,I,enter,584,2,4648.5,414635.700000003,9033,WL,C,8.0
3,28.89900016784668,learn,31100.99983215332,Thu Feb 05 2026 12:28:30 GMT-0500 (Eastern Standard Time),420168.40000000596,A,d,I,d,878,2,883.9000000059605,419284.5,9033,WL,C,9.0
3,29.266000032424927,learn,30733.999967575073,Thu Feb 05 2026 12:28:30 GMT-0500 (Eastern Standard Time),420534.700000003,A,do,I,o,349,2,1250.2000000029802,419284.5,9033,WL,C,9.0
3,29.66700005531311,learn,30332.99994468689,Thu Feb 05 2026 12:28:30 GMT-0500 (Eastern Standard Time),420935.60000000894,A,doc,I,c,384,2,1651.1000000089407,419284.5,9033,WL,C,9.0
3,30.06599998474121,learn,29934.00001525879,Thu Feb 05 2026 12:28:30 GMT-0500 (Eastern Standard Time),421334.5,A,doct,I,t,391,2,2050.0,419284.5,9033,WL,C,9.0
3,30.41600012779236,learn,29583.99987220764,Thu Feb 05 2026 12:28:30 GMT-0500 (Eastern Standard Time),421685.10000000894,A,docto,I,o,329,2,2400.6000000089407,419284.5,9033,WL,C,9.0
3,30.83300018310547,learn,29166.99981689453,Thu Feb 05 2026 12:28:30 GMT-0500 (Eastern Standard Time),422101.5,A,doctor,I,r,394,2,2817.0,419284.5,9033,WL,C,9.0
3,31.23200011253357,learn,28767.99988746643,Thu Feb 05 2026 12:28:30 GMT-0500 (Eastern Standard Time),422501.0,A,doctorenter,I,enter,385,2,3216.5,419284.5,9033,WL,C,9.0
3,32.03200006484985,learn,27967.999935150146,Thu Feb 05 2026 12:28:30 GMT-0500 (Eastern Standard Time),423300.90000000596,A,b,I,b,788,2,799.7000000029802,422501.200000003,9033,WL,C,10.0
3,32.43300008773804,learn,27566.999912261963,Thu Feb 05 2026 12:28:30 GMT-0500 (Eastern Standard Time),423701.5,A,bo,I,o,387,2,1200.2999999970198,422501.200000003,9033,WL,C,10.0
3,33.182000160217285,learn,26817.999839782715,Thu Feb 05 2026 12:28:30 GMT-0500 (Eastern Standard Time),424451.0,A,boy,I,y,737,2,1949.7999999970198,422501.200000003,9033,WL,C,10.0
3,33.86500000953674,learn,26134.999990463257,Thu Feb 05 2026 12:28:30 GMT-0500 (Eastern Standard Time),425134.200000003,A,boyenter,I,enter,667,2,2633.0,422501.200000003,9033,WL,C,10.0
3,34.46500015258789,learn,25534.99984741211,Thu Feb 05 2026 12:28:30 GMT-0500 (Eastern Standard Time),425734.200000003,A,h,I,h,587,2,599.9000000059605,425134.299999997,9033,WL,C,11.0
3,34.782999992370605,learn,25217.000007629395,Thu Feb 05 2026 12:28:30 GMT-0500 (Eastern Standard Time),426052.200000003,A,ho,I,o,305,2,917.9000000059605,425134.299999997,9033,WL,C,11.0
3,35.301000118255615,learn,24698.999881744385,Thu Feb 05 2026 12:28:30 GMT-0500 (Eastern Standard Time),426569.799999997,A,hom,I,m,497,2,1435.5,425134.299999997,9033,WL,C,11.0
3,35.699000120162964,learn,24300.999879837036,Thu Feb 05 2026 12:28:30 GMT-0500 (Eastern Standard Time),426968.200000003,A,home,I,e,382,2,1833.9000000059605,425134.299999997,9033,WL,C,11.0
3,37.10000014305115,learn,22899.999856948853,Thu Feb 05 2026 12:28:30 GMT-0500 (Eastern Standard Time),428368.799999997,A,homeenter,I,enter,1379,2,3234.5,425134.299999997,9033,WL,C,11.0
3,40.04900002479553,learn,19950.999975204468,Thu Feb 05 2026 12:28:30 GMT-0500 (Eastern Standard Time),431317.60000000894,A,b,I,b,2944,2,2948.6000000089407,428369.0,9033,WL,C,12.0
3,40.598999977111816,learn,19401.000022888184,Thu Feb 05 2026 12:28:30 GMT-0500 (Eastern Standard Time),431867.60000000894,A,bo,I,o,537,2,3498.6000000089407,428369.0,9033,WL,C,12.0
3,41.134000062942505,learn,18865.999937057495,Thu Feb 05 2026 12:28:30 GMT-0500 (Eastern Standard Time),432402.5,A,bod,I,d,523,2,4033.5,428369.0,9033,WL,C,12.0
3,41.598999977111816,learn,18401.000022888184,Thu Feb 05 2026 12:28:30 GMT-0500 (Eastern Standard Time),432867.90000000596,A,body,I,y,450,2,4498.9000000059605,428369.0,9033,WL,C,12.0
3,42.032999992370605,learn,17967.000007629395,Thu Feb 05 2026 12:28:30 GMT-0500 (Eastern Standard Time),433302.40000000596,A,bodyenter,I,enter,429,2,4933.4000000059605,428369.0,9033,WL,C,12.0
3,43.33200001716614,learn,16667.999982833862,Thu Feb 05 2026 12:28:30 GMT-0500 (Eastern Standard Time),434600.90000000596,A,f,I,f,1282,2,1298.2999999970198,433302.60000000894,9033,WL,C,13.0
3,43.95099997520447,learn,16049.000024795532,Thu Feb 05 2026 12:28:30 GMT-0500 (Eastern Standard Time),435219.799999997,A,fl,I,l,608,2,1917.199999988079,433302.60000000894,9033,WL,C,13.0
3,44.39900016784668,learn,15600.99983215332,Thu Feb 05 2026 12:28:30 GMT-0500 (Eastern Standard Time),435668.10000000894,A,fla,I,a,427,2,2365.5,433302.60000000894,9033,WL,C,13.0
3,44.81599998474121,learn,15184.000015258789,Thu Feb 05 2026 12:28:30 GMT-0500 (Eastern Standard Time),436085.10000000894,A,flag,I,g,394,2,2782.5,433302.60000000894,9033,WL,C,13.0
3,45.415000200271606,learn,14584.999799728394,Thu Feb 05 2026 12:28:30 GMT-0500 (Eastern Standard Time),436684.200000003,A,flagenter,I,enter,586,2,3381.5999999940395,433302.60000000894,9033,WL,C,13.0
3,60.01600003242493,learn,-16.000032424926758,Thu Feb 05 2026 12:28:30 GMT-0500 (Eastern Standard Time),451284.799999997,A,None,I,None,14596,2,14600.39999999106,436684.40000000596,9033,WL,C,14.0
4,1.3829998970031738,learn,58617.000102996826,Thu Feb 05 2026 12:28:30 GMT-0500 (Eastern Standard Time),522351.200000003,A,l,I,l,1375,2,1383.0999999940395,520968.10000000894,9033,WL,C,1.0
4,1.5829999446868896,learn,58417.00005531311,Thu Feb 05 2026 12:28:30 GMT-0500 (Eastern Standard Time),522551.40000000596,A,le,I,e,193,2,1583.2999999970198,520968.10000000894,9033,WL,C,1.0
4,1.9679999351501465,learn,58032.00006484985,Thu Feb 05 2026 12:28:30 GMT-0500 (Eastern Standard Time),522936.10000000894,A,let,I,t,375,2,1968.0,520968.10000000894,9033,WL,C,1.0
4,2.2330000400543213,learn,57766.99995994568,Thu Feb 05 2026 12:28:30 GMT-0500 (Eastern Standard Time),523201.200000003,A,lett,I,t,243,2,2233.0999999940395,520968.10000000894,9033,WL,C,1.0
4,2.5999999046325684,learn,57400.00009536743,Thu Feb 05 2026 12:28:30 GMT-0500 (Eastern Standard Time),523568.200000003,A,lette,I,e,356,2,2600.0999999940395,520968.10000000894,9033,WL,C,1.0
4,2.9509999752044678,learn,57049.00002479553,Thu Feb 05 2026 12:28:30 GMT-0500 (Eastern Standard Time),523918.5,A,letter,I,r,328,2,2950.3999999910593,520968.10000000894,9033,WL,C,1.0
4,3.2679998874664307,learn,56732.00011253357,Thu Feb 05 2026 12:28:30 GMT-0500 (Eastern Standard Time),524235.40000000596,A,letterenter,I,enter,308,2,3267.2999999970198,520968.10000000894,9033,WL,C,1.0
4,3.8519999980926514,learn,56148.00000190735,Thu Feb 05 2026 12:28:30 GMT-0500 (Eastern Standard Time),524820.200000003,A,c,I,c,576,2,584.5999999940395,524235.60000000894,9033,WL,C,2.0
4,4.283999919891357,learn,55716.00008010864,Thu Feb 05 2026 12:28:30 GMT-0500 (Eastern Standard Time),525251.6000000089,A,ca,I,a,419,2,1016.0,524235.60000000894,9033,WL,C,2.0
4,6.300999879837036,learn,53699.000120162964,Thu Feb 05 2026 12:28:30 GMT-0500 (Eastern Standard Time),527268.6000000089,A,cam,I,m,1991,2,3033.0,524235.60000000894,9033,WL,C,2.0
4,6.784999847412109,learn,53215.00015258789,Thu Feb 05 2026 12:28:30 GMT-0500 (Eastern Standard Time),527752.5,A,camp,I,p,463,2,3516.8999999910593,524235.60000000894,9033,WL,C,2.0
4,7.299999952316284,learn,52700.000047683716,Thu Feb 05 2026 12:28:30 GMT-0500 (Eastern Standard Time),528267.799999997,A,campenter,I,enter,499,2,4032.199999988079,524235.60000000894,9033,WL,C,2.0
4,8.118000030517578,learn,51881.99996948242,Thu Feb 05 2026 12:28:30 GMT-0500 (Eastern Standard Time),529086.200000003,A,s,I,s,798,2,818.2000000029802,528268.0,9033,WL,C,3.0
4,8.399999856948853,learn,51600.00014305115,Thu Feb 05 2026 12:28:30 GMT-0500 (Eastern Standard Time),529367.900000006,A,sh,I,h,263,2,1099.9000000059605,528268.0,9033,WL,C,3.0
4,8.766999959945679,learn,51233.00004005432,Thu Feb 05 2026 12:28:30 GMT-0500 (Eastern Standard Time),529734.700000003,A,sho,I,o,350,2,1466.7000000029802,528268.0,9033,WL,C,3.0
4,9.149999856948853,learn,50850.00014305115,Thu Feb 05 2026 12:28:30 GMT-0500 (Eastern Standard Time),530118.400000006,A,shor,I,r,361,2,1850.4000000059605,528268.0,9033,WL,C,3.0
4,9.484999895095825,learn,50515.000104904175,Thu Feb 05 2026 12:28:30 GMT-0500 (Eastern Standard Time),530453.200000003,A,shore,I,e,312,2,2185.2000000029802,528268.0,9033,WL,C,3.0
4,9.8510000705719,learn,50148.9999294281,Thu Feb 05 2026 12:28:30 GMT-0500 (Eastern Standard Time),530818.799999997,A,shoreenter,I,enter,353,2,2550.7999999970198,528268.0,9033,WL,C,3.0
4,10.61899995803833,learn,49381.00004196167,Thu Feb 05 2026 12:28:30 GMT-0500 (Eastern Standard Time),531586.900000006,A,f,I,f,760,2,767.9000000059605,530819.0,9033,WL,C,4.0
4,10.899999856948853,learn,49100.00014305115,Thu Feb 05 2026 12:28:30 GMT-0500 (Eastern Standard Time),531868.299999997,A,fl,I,l,268,2,1049.2999999970198,530819.0,9033,WL,C,4.0
4,11.233999967575073,learn,48766.00003242493,Thu Feb 05 2026 12:28:30 GMT-0500 (Eastern Standard Time),532202.200000003,A,fla,I,a,323,2,1383.2000000029802,530819.0,9033,WL,C,4.0
4,12.066999912261963,learn,47933.00008773804,Thu Feb 05 2026 12:28:30 GMT-0500 (Eastern Standard Time),533035.299999997,A,flag,I,g,813,2,2216.2999999970198,530819.0,9033,WL,C,4.0
4,13.132999897003174,learn,46867.000102996826,Thu Feb 05 2026 12:28:30 GMT-0500 (Eastern Standard Time),534101.200000003,A,flagenter,I,enter,1044,2,3282.2000000029802,530819.0,9033,WL,C,4.0
4,13.851999998092651,learn,46148.00000190735,Thu Feb 05 2026 12:28:30 GMT-0500 (Eastern Standard Time),534820.0,A,b,I,b,709,2,718.5999999940395,534101.400000006,9033,WL,C,5.0
4,14.234999895095825,learn,45765.000104904175,Thu Feb 05 2026 12:28:30 GMT-0500 (Eastern Standard Time),535202.700000003,A,bo,I,o,364,2,1101.2999999970198,534101.400000006,9033,WL,C,5.0
4,14.967000007629395,learn,45032.999992370605,Thu Feb 05 2026 12:28:30 GMT-0500 (Eastern Standard Time),535934.900000006,A,boy,I,y,724,2,1833.5,534101.400000006,9033,WL,C,5.0
4,15.550999879837036,learn,44449.000120162964,Thu Feb 05 2026 12:28:30 GMT-0500 (Eastern Standard Time),536519.200000003,A,boyenter,I,enter,568,2,2417.7999999970198,534101.400000006,9033,WL,C,5.0
4,16.549999952316284,learn,43450.000047683716,Thu Feb 05 2026 12:28:30 GMT-0500 (Eastern Standard Time),537518.200000003,A,t,I,t,995,2,998.7999999970198,536519.400000006,9033,WL,C,6.0
4,17.384999990463257,learn,42615.00000953674,Thu Feb 05 2026 12:28:30 GMT-0500 (Eastern Standard Time),538352.799999997,A,to,I,o,819,2,1833.3999999910593,536519.400000006,9033,WL,C,6.0
4,17.750999927520752,learn,42249.00007247925,Thu Feb 05 2026 12:28:30 GMT-0500 (Eastern Standard Time),538718.799999997,A,tow,I,w,359,2,2199.3999999910593,536519.400000006,9033,WL,C,6.0
4,18.066999912261963,learn,41933.00008773804,Thu Feb 05 2026 12:28:30 GMT-0500 (Eastern Standard Time),539035.1000000089,A,towe,I,e,293,2,2515.7000000029802,536519.400000006,9033,WL,C,6.0
4,18.384000062942505,learn,41615.999937057495,Thu Feb 05 2026 12:28:30 GMT-0500 (Eastern Standard Time),539351.5,A,tower,I,r,309,2,2832.0999999940395,536519.400000006,9033,WL,C,6.0
4,18.75,learn,41250.0,Thu Feb 05 2026 12:28:30 GMT-0500 (Eastern Standard Time),539718.0,A,towerenter,I,enter,353,2,3198.5999999940395,536519.400000006,9033,WL,C,6.0
4,19.151999950408936,learn,40848.000049591064,Thu Feb 05 2026 12:28:30 GMT-0500 (Eastern Standard Time),540119.5,A,w,I,w,395,2,401.29999999701977,539718.200000003,9033,WL,C,7.0
4,19.532999992370605,learn,40467.000007629395,Thu Feb 05 2026 12:28:30 GMT-0500 (Eastern Standard Time),540501.299999997,A,wh,I,h,360,2,783.0999999940395,539718.200000003,9033,WL,C,7.0
4,19.93400001525879,learn,40065.99998474121,Thu Feb 05 2026 12:28:30 GMT-0500 (Eastern Standard Time),540902.200000003,A,whe,I,e,378,2,1184.0,539718.200000003,9033,WL,C,7.0
4,20.300999879837036,learn,39699.000120162964,Thu Feb 05 2026 12:28:30 GMT-0500 (Eastern Standard Time),541268.5,A,whea,I,a,354,2,1550.2999999970198,539718.200000003,9033,WL,C,7.0
4,20.717000007629395,learn,39282.999992370605,Thu Feb 05 2026 12:28:30 GMT-0500 (Eastern Standard Time),541685.200000003,A,wheat,I,t,396,2,1967.0,539718.200000003,9033,WL,C,7.0
4,21.41700005531311,learn,38582.99994468689,Thu Feb 05 2026 12:28:30 GMT-0500 (Eastern Standard Time),542384.5,A,wheatenter,I,enter,682,2,2666.2999999970198,539718.200000003,9033,WL,C,7.0
4,22.000999927520752,learn,37999.00007247925,Thu Feb 05 2026 12:28:30 GMT-0500 (Eastern Standard Time),542968.900000006,A,c,I,c,570,2,584.0,542384.900000006,9033,WL,C,8.0
4,22.316999912261963,learn,37683.00008773804,Thu Feb 05 2026 12:28:30 GMT-0500 (Eastern Standard Time),543285.1000000089,A,co,I,o,302,2,900.2000000029802,542384.900000006,9033,WL,C,8.0
4,22.75,learn,37250.0,Thu Feb 05 2026 12:28:30 GMT-0500 (Eastern Standard Time),543718.200000003,A,cor,I,r,419,2,1333.2999999970198,542384.900000006,9033,WL,C,8.0
4,23.200999975204468,learn,36799.00002479553,Thu Feb 05 2026 12:28:30 GMT-0500 (Eastern Standard Time),544169.299999997,A,corn,I,n,434,2,1784.3999999910593,542384.900000006,9033,WL,C,8.0
4,24.16700005531311,learn,35832.99994468689,Thu Feb 05 2026 12:28:30 GMT-0500 (Eastern Standard Time),545135.299999997,A,cornenter,I,enter,957,2,2750.3999999910593,542384.900000006,9033,WL,C,8.0
4,24.800999879837036,learn,35199.000120162964,Thu Feb 05 2026 12:28:30 GMT-0500 (Eastern Standard Time),545768.700000003,A,q,I,q,619,2,633.2000000029802,545135.5,9033,WL,C,9.0
4,25.200000047683716,learn,34799.999952316284,Thu Feb 05 2026 12:28:30 GMT-0500 (Eastern Standard Time),546167.900000006,A,qu,I,u,392,2,1032.4000000059605,545135.5,9033,WL,C,9.0
4,25.5,learn,34500.0,Thu Feb 05 2026 12:28:30 GMT-0500 (Eastern Standard Time),546467.799999997,A,que,I,e,278,2,1332.2999999970198,545135.5,9033,WL,C,9.0
4,25.800999879837036,learn,34199.000120162964,Thu Feb 05 2026 12:28:30 GMT-0500 (Eastern Standard Time),546768.5,A,quee,I,e,291,2,1633.0,545135.5,9033,WL,C,9.0
4,26.151000022888184,learn,33848.99997711182,Thu Feb 05 2026 12:28:30 GMT-0500 (Eastern Standard Time),547118.5,A,queen,I,n,325,2,1983.0,545135.5,9033,WL,C,9.0
4,26.76699995994568,learn,33233.00004005432,Thu Feb 05 2026 12:28:30 GMT-0500 (Eastern Standard Time),547734.400000006,A,queenenter,I,enter,610,2,2598.9000000059605,545135.5,9033,WL,C,9.0
4,27.51900005340576,learn,32480.99994659424,Thu Feb 05 2026 12:28:30 GMT-0500 (Eastern Standard Time),548486.700000003,A,b,I,b,732,2,752.0999999940395,547734.6000000089,9033,WL,C,10.0
4,27.884000062942505,learn,32115.999937057495,Thu Feb 05 2026 12:28:30 GMT-0500 (Eastern Standard Time),548851.900000006,A,bo,I,o,352,2,1117.2999999970198,547734.6000000089,9033,WL,C,10.0
4,28.41700005531311,learn,31582.99994468689,Thu Feb 05 2026 12:28:30 GMT-0500 (Eastern Standard Time),549385.1000000089,A,boy,I,y,515,2,1650.5,547734.6000000089,9033,WL,C,10.0
4,29.132999897003174,learn,30867.000102996826,Thu Feb 05 2026 12:28:30 GMT-0500 (Eastern Standard Time),550101.299999997,A,boyenter,I,enter,701,2,2366.699999988079,547734.6000000089,9033,WL,C,10.0
4,29.884999990463257,learn,30115.000009536743,Thu Feb 05 2026 12:28:30 GMT-0500 (Eastern Standard Time),550852.900000006,A,d,I,d,732,2,751.4000000059605,550101.5,9033,WL,C,11.0
4,30.16700005531311,learn,29832.99994468689,Thu Feb 05 2026 12:28:30 GMT-0500 (Eastern Standard Time),551134.799999997,A,do,I,o,272,2,1033.2999999970198,550101.5,9033,WL,C,11.0
4,30.533999919891357,learn,29466.000080108643,Thu Feb 05 2026 12:28:30 GMT-0500 (Eastern Standard Time),551502.200000003,A,doc,I,c,353,2,1400.7000000029802,550101.5,9033,WL,C,11.0
4,30.950999975204468,learn,29049.000024795532,Thu Feb 05 2026 12:28:30 GMT-0500 (Eastern Standard Time),551918.799999997,A,doct,I,t,393,2,1817.2999999970198,550101.5,9033,WL,C,11.0
4,31.26799988746643,learn,28732.00011253357,Thu Feb 05 2026 12:28:30 GMT-0500 (Eastern Standard Time),552235.6000000089,A,docto,I,o,305,2,2134.1000000089407,550101.5,9033,WL,C,11.0
4,31.717000007629395,learn,28282.999992370605,Thu Feb 05 2026 12:28:30 GMT-0500 (Eastern Standard Time),552685.1000000089,A,doctor,I,r,435,2,2583.6000000089407,550101.5,9033,WL,C,11.0
4,33.21799993515015,learn,26782.000064849854,Thu Feb 05 2026 12:28:30 GMT-0500 (Eastern Standard Time),554185.6000000089,A,doctorenter,I,enter,1481,2,4084.1000000089407,550101.5,9033,WL,C,11.0
4,37.050999879837036,learn,22949.000120162964,Thu Feb 05 2026 12:28:30 GMT-0500 (Eastern Standard Time),558018.6000000089,A,s,I,s,3825,2,3832.7000000029802,554185.900000006,9033,WL,C,12.0
4,37.48300004005432,learn,22516.99995994568,Thu Feb 05 2026 12:28:30 GMT-0500 (Eastern Standard Time),558451.200000003,A,su,I,u,420,2,4265.29999999702,554185.900000006,9033,WL,C,12.0
4,38.16799998283386,learn,21832.000017166138,Thu Feb 05 2026 12:28:30 GMT-0500 (Eastern Standard Time),559136.1000000089,A,sug,I,g,666,2,4950.20000000298,554185.900000006,9033,WL,C,12.0
4,38.550999879837036,learn,21449.000120162964,Thu Feb 05 2026 12:28:30 GMT-0500 (Eastern Standard Time),559519.299999997,A,suga,I,a,369,2,5333.399999991059,554185.900000006,9033,WL,C,12.0
4,39.16799998283386,learn,20832.000017166138,Thu Feb 05 2026 12:28:30 GMT-0500 (Eastern Standard Time),560135.400000006,A,sugar,I,r,592,2,5949.5,554185.900000006,9033,WL,C,12.0
4,40.300999879837036,learn,19699.000120162964,Thu Feb 05 2026 12:28:30 GMT-0500 (Eastern Standard Time),561269.0,A,sugarenter,I,enter,1112,2,7083.0999999940395,554185.900000006,9033,WL,C,12.0
4,45.484999895095825,learn,14515.000104904175,Thu Feb 05 2026 12:28:30 GMT-0500 (Eastern Standard Time),566452.799999997,A,c,I,c,5166,2,5183.5,561269.299999997,9033,WL,C,13.0
4,45.86699986457825,learn,14133.000135421753,Thu Feb 05 2026 12:28:30 GMT-0500 (Eastern Standard Time),566835.400000006,A,ca,I,a,360,2,5566.100000008941,561269.299999997,9033,WL,C,13.0
4,47.34999990463257,learn,12650.000095367432,Thu Feb 05 2026 12:28:30 GMT-0500 (Eastern Standard Time),568317.700000003,A,cam,I,m,1467,2,7048.4000000059605,561269.299999997,9033,WL,C,13.0
4,47.91700005531311,learn,12082.99994468689,Thu Feb 05 2026 12:28:30 GMT-0500 (Eastern Standard Time),568885.299999997,A,camp,I,p,556,2,7616.0,561269.299999997,9033,WL,C,13.0
4,48.532999992370605,learn,11467.000007629395,Thu Feb 05 2026 12:28:30 GMT-0500 (Eastern Standard Time),569501.200000003,A,campenter,I,enter,602,2,8231.90000000596,561269.299999997,9033,WL,C,13.0
4,55.53399991989136,learn,4466.000080108643,Thu Feb 05 2026 12:28:30 GMT-0500 (Eastern Standard Time),576501.799999997,A,c,I,c,6989,2,7000.29999999702,569501.5,9033,WL,C,14.0
4,55.818000078201294,learn,4181.999921798706,Thu Feb 05 2026 12:28:30 GMT-0500 (Eastern Standard Time),576785.400000006,A,ca,I,a,263,2,7283.9000000059605,569501.5,9033,WL,C,14.0
4,56.06699991226196,learn,3933.000087738037,Thu Feb 05 2026 12:28:30 GMT-0500 (Eastern Standard Time),577034.799999997,A,cat,I,t,237,2,7533.29999999702,569501.5,9033,WL,C,14.0
4,56.33399987220764,learn,3666.0001277923584,Thu Feb 05 2026 12:28:30 GMT-0500 (Eastern Standard Time),577302.200000003,A,catt,I,t,253,2,7800.70000000298,569501.5,9033,WL,C,14.0
4,57.134000062942505,learn,2865.999937057495,Thu Feb 05 2026 12:28:30 GMT-0500 (Eastern Standard Time),578102.299999997,A,cattl,I,l,786,2,8600.79999999702,569501.5,9033,WL,C,14.0
4,57.550999879837036,learn,2449.000120162964,Thu Feb 05 2026 12:28:30 GMT-0500 (Eastern Standard Time),578519.1000000089,A,cattle,I,e,409,2,9017.60000000894,569501.5,9033,WL,C,14.0
4,57.93400001525879,learn,2065.999984741211,Thu Feb 05 2026 12:28:30 GMT-0500 (Eastern Standard Time),578902.200000003,A,cattleenter,I,enter,376,2,9400.70000000298,569501.5,9033,WL,C,14.0
4,60.01799988746643,learn,-17.999887466430664,Thu Feb 05 2026 12:28:30 GMT-0500 (Eastern Standard Time),580985.900000006,A,None,I,None,2079,2,2083.5,578902.400000006,9033,WL,C,15.0
5,0.7660000324249268,learn,60000.0,Thu Feb 05 2026 12:28:30 GMT-0500 (Eastern Standard Time),651485.1000000089,A,c,I,c,755,2,766.3000000119209,650718.799999997,9033,WL,C,1.0
5,2.1010000705718994,learn,60000.0,Thu Feb 05 2026 12:28:30 GMT-0500 (Eastern Standard Time),652820.299999997,A,co,I,o,1321,2,2101.5,650718.799999997,9033,WL,C,1.0
5,2.5160000324249268,learn,60000.0,Thu Feb 05 2026 12:28:30 GMT-0500 (Eastern Standard Time),653234.900000006,A,cor,I,r,402,2,2516.1000000089407,650718.799999997,9033,WL,C,1.0
5,3.0829999446868896,learn,60000.0,Thu Feb 05 2026 12:28:30 GMT-0500 (Eastern Standard Time),653801.6000000089,A,corn,I,n,557,2,3082.800000011921,650718.799999997,9033,WL,C,1.0
5,3.5840001106262207,learn,60000.0,Thu Feb 05 2026 12:28:30 GMT-0500 (Eastern Standard Time),654302.400000006,A,cornenter,I,enter,485,2,3583.6000000089407,650718.799999997,9033,WL,C,1.0
5,4.1519999504089355,learn,60000.0,Thu Feb 05 2026 12:28:30 GMT-0500 (Eastern Standard Time),654870.400000006,A,w,I,w,547,2,567.7999999970198,654302.6000000089,9033,WL,C,2.0
5,4.466000080108643,learn,60000.0,Thu Feb 05 2026 12:28:30 GMT-0500 (Eastern Standard Time),655185.299999997,A,wh,I,h,305,2,882.6999999880791,654302.6000000089,9033,WL,C,2.0
5,4.766000032424927,learn,60000.0,Thu Feb 05 2026 12:28:30 GMT-0500 (Eastern Standard Time),655485.400000006,A,whe,I,e,287,2,1182.7999999970198,654302.6000000089,9033,WL,C,2.0
5,5.065999984741211,learn,60000.0,Thu Feb 05 2026 12:28:30 GMT-0500 (Eastern Standard Time),655784.6000000089,A,whea,I,a,281,2,1482.0,654302.6000000089,9033,WL,C,2.0
5,5.466000080108643,learn,60000.0,Thu Feb 05 2026 12:28:30 GMT-0500 (Eastern Standard Time),656184.900000006,A,wheat,I,t,391,2,1882.2999999970198,654302.6000000089,9033,WL,C,2.0
5,5.983000040054321,learn,60000.0,Thu Feb 05 2026 12:28:30 GMT-0500 (Eastern Standard Time),656701.6000000089,A,wheatenter,I,enter,496,2,2399.0,654302.6000000089,9033,WL,C,2.0
5,6.683000087738037,learn,60000.0,Thu Feb 05 2026 12:28:30 GMT-0500 (Eastern Standard Time),657402.1000000089,A,n,I,n,694,2,700.3000000119209,656701.799999997,9033,WL,C,3.0
5,6.950000047683716,learn,60000.0,Thu Feb 05 2026 12:28:30 GMT-0500 (Eastern Standard Time),657668.799999997,A,na,I,a,254,2,967.0,656701.799999997,9033,WL,C,3.0
5,7.232000112533569,learn,60000.0,Thu Feb 05 2026 12:28:30 GMT-0500 (Eastern Standard Time),657951.200000003,A,nai,I,i,273,2,1249.4000000059605,656701.799999997,9033,WL,C,3.0
5,7.598999977111816,learn,60000.0,Thu Feb 05 2026 12:28:30 GMT-0500 (Eastern Standard Time),658318.299999997,A,nail,I,l,352,2,1616.5,656701.799999997,9033,WL,C,3.0
5,8.233999967575073,learn,60000.0,Thu Feb 05 2026 12:28:30 GMT-0500 (Eastern Standard Time),658952.400000006,A,nailenter,I,enter,617,2,2250.6000000089407,656701.799999997,9033,WL,C,3.0
5,8.782999992370605,learn,60000.0,Thu Feb 05 2026 12:28:30 GMT-0500 (Eastern Standard Time),659502.200000003,A,f,I,f,537,2,549.5999999940395,658952.6000000089,9033,WL,C,4.0
5,9.067000150680542,learn,60000.0,Thu Feb 05 2026 12:28:30 GMT-0500 (Eastern Standard Time),659785.5,A,fl,I,l,265,2,832.8999999910593,658952.6000000089,9033,WL,C,4.0
5,9.433000087738037,learn,60000.0,Thu Feb 05 2026 12:28:30 GMT-0500 (Eastern Standard Time),660152.0,A,fla,I,a,348,2,1199.3999999910593,658952.6000000089,9033,WL,C,4.0
5,9.91700005531311,learn,60000.0,Thu Feb 05 2026 12:28:30 GMT-0500 (Eastern Standard Time),660635.5,A,flag,I,g,470,2,1682.8999999910593,658952.6000000089,9033,WL,C,4.0
5,10.265000104904175,learn,60000.0,Thu Feb 05 2026 12:28:30 GMT-0500 (Eastern Standard Time),660984.400000006,A,flagenter,I,enter,339,2,2031.7999999970198,658952.6000000089,9033,WL,C,4.0
5,10.917999982833862,learn,60000.0,Thu Feb 05 2026 12:28:30 GMT-0500 (Eastern Standard Time),661636.6000000089,A,s,I,s,633,2,652.0,660984.6000000089,9033,WL,C,5.0
5,11.184999942779541,learn,60000.0,Thu Feb 05 2026 12:28:30 GMT-0500 (Eastern Standard Time),661903.400000006,A,sh,I,h,251,2,918.7999999970198,660984.6000000089,9033,WL,C,5.0
5,11.567000150680542,learn,60000.0,Thu Feb 05 2026 12:28:30 GMT-0500 (Eastern Standard Time),662285.900000006,A,sho,I,o,360,2,1301.2999999970198,660984.6000000089,9033,WL,C,5.0
5,12.049999952316284,learn,60000.0,Thu Feb 05 2026 12:28:30 GMT-0500 (Eastern Standard Time),662768.700000003,A,shor,I,r,465,2,1784.0999999940395,660984.6000000089,9033,WL,C,5.0
5,12.33400011062622,learn,60000.0,Thu Feb 05 2026 12:28:30 GMT-0500 (Eastern Standard Time),663052.700000003,A,shore,I,e,271,2,2068.0999999940395,660984.6000000089,9033,WL,C,5.0
5,12.766000032424927,learn,60000.0,Thu Feb 05 2026 12:28:30 GMT-0500 (Eastern Standard Time),663484.900000006,A,shoreenter,I,enter,408,2,2500.2999999970198,660984.6000000089,9033,WL,C,5.0
5,13.433000087738037,learn,60000.0,Thu Feb 05 2026 12:28:30 GMT-0500 (Eastern Standard Time),664152.299999997,A,b,I,b,662,2,667.1999999880791,663485.1000000089,9033,WL,C,6.0
5,13.916000127792358,learn,60000.0,Thu Feb 05 2026 12:28:30 GMT-0500 (Eastern Standard Time),664634.700000003,A,bo,I,o,461,2,1149.5999999940395,663485.1000000089,9033,WL,C,6.0
5,14.615999937057495,learn,60000.0,Thu Feb 05 2026 12:28:30 GMT-0500 (Eastern Standard Time),665334.799999997,A,bod,I,d,691,2,1849.699999988079,663485.1000000089,9033,WL,C,6.0
5,15.181999921798706,learn,60000.0,Thu Feb 05 2026 12:28:30 GMT-0500 (Eastern Standard Time),665901.299999997,A,body,I,y,551,2,2416.199999988079,663485.1000000089,9033,WL,C,6.0
5,15.567000150680542,learn,60000.0,Thu Feb 05 2026 12:28:30 GMT-0500 (Eastern Standard Time),666285.900000006,A,bodyenter,I,enter,370,2,2800.7999999970198,663485.1000000089,9033,WL,C,6.0
5,16.16600012779236,learn,60000.0,Thu Feb 05 2026 12:28:30 GMT-0500 (Eastern Standard Time),666884.400000006,A,f,I,f,579,2,598.2999999970198,666286.1000000089,9033,WL,C,7.0
5,16.81599998474121,learn,60000.0,Thu Feb 05 2026 12:28:30 GMT-0500 (Eastern Standard Time),667534.799999997,A,fl,I,l,638,2,1248.699999988079,666286.1000000089,9033,WL,C,7.0
5,17.032999992370605,learn,60000.0,Thu Feb 05 2026 12:28:30 GMT-0500 (Eastern Standard Time),667751.900000006,A,fla,I,a,208,2,1465.7999999970198,666286.1000000089,9033,WL,C,7.0
5,17.56599998474121,learn,60000.0,Thu Feb 05 2026 12:28:30 GMT-0500 (Eastern Standard Time),668285.400000006,A,flag,I,g,519,2,1999.2999999970198,666286.1000000089,9033,WL,C,7.0
5,17.950000047683716,learn,60000.0,Thu Feb 05 2026 12:28:30 GMT-0500 (Eastern Standard Time),668669.0,A,flagenter,I,enter,370,2,2382.8999999910593,666286.1000000089,9033,WL,C,7.0
5,18.58400011062622,learn,60000.0,Thu Feb 05 2026 12:28:30 GMT-0500 (Eastern Standard Time),669302.799999997,A,c,I,c,628,2,633.6999999880791,668669.1000000089,9033,WL,C,8.0
5,18.81599998474121,learn,60000.0,Thu Feb 05 2026 12:28:30 GMT-0500 (Eastern Standard Time),669535.400000006,A,ca,I,a,225,2,866.2999999970198,668669.1000000089,9033,WL,C,8.0
5,20.532999992370605,learn,60000.0,Thu Feb 05 2026 12:28:30 GMT-0500 (Eastern Standard Time),671251.5,A,cam,I,m,1696,2,2582.3999999910593,668669.1000000089,9033,WL,C,8.0
5,21.12000012397766,learn,60000.0,Thu Feb 05 2026 12:28:30 GMT-0500 (Eastern Standard Time),671838.400000006,A,camp,I,p,580,2,3169.2999999970198,668669.1000000089,9033,WL,C,8.0
5,21.83400011062622,learn,60000.0,Thu Feb 05 2026 12:28:30 GMT-0500 (Eastern Standard Time),672552.6000000089,A,campenter,I,enter,699,2,3883.5,668669.1000000089,9033,WL,C,8.0
5,22.317000150680542,learn,60000.0,Thu Feb 05 2026 12:28:30 GMT-0500 (Eastern Standard Time),673035.700000003,A,l,I,l,466,2,483.0,672552.700000003,9033,WL,C,9.0
5,22.950000047683716,learn,60000.0,Thu Feb 05 2026 12:28:30 GMT-0500 (Eastern Standard Time),673669.400000006,A,le,I,e,619,2,1116.7000000029802,672552.700000003,9033,WL,C,9.0
5,23.367000102996826,learn,60000.0,Thu Feb 05 2026 12:28:30 GMT-0500 (Eastern Standard Time),674085.5,A,let,I,t,393,2,1532.7999999970198,672552.700000003,9033,WL,C,9.0
5,23.617000102996826,learn,60000.0,Thu Feb 05 2026 12:28:30 GMT-0500 (Eastern Standard Time),674335.400000006,A,lett,I,t,230,2,1782.7000000029802,672552.700000003,9033,WL,C,9.0
5,23.966000080108643,learn,60000.0,Thu Feb 05 2026 12:28:30 GMT-0500 (Eastern Standard Time),674685.400000006,A,lette,I,e,328,2,2132.7000000029802,672552.700000003,9033,WL,C,9.0
5,24.282999992370605,learn,60000.0,Thu Feb 05 2026 12:28:30 GMT-0500 (Eastern Standard Time),675002.299999997,A,letter,I,r,298,2,2449.5999999940395,672552.700000003,9033,WL,C,9.0
5,24.966000080108643,learn,60000.0,Thu Feb 05 2026 12:28:30 GMT-0500 (Eastern Standard Time),675684.400000006,A,letterenter,I,enter,668,2,3131.7000000029802,672552.700000003,9033,WL,C,9.0
5,25.667999982833862,learn,60000.0,Thu Feb 05 2026 12:28:30 GMT-0500 (Eastern Standard Time),676386.6000000089,A,q,I,q,685,2,702.0,675684.6000000089,9033,WL,C,10.0
5,26.16700005531311,learn,60000.0,Thu Feb 05 2026 12:28:30 GMT-0500 (Eastern Standard Time),676885.6000000089,A,qu,I,u,492,2,1201.0,675684.6000000089,9033,WL,C,10.0
5,26.533999919891357,learn,60000.0,Thu Feb 05 2026 12:28:30 GMT-0500 (Eastern Standard Time),677252.799999997,A,que,I,e,352,2,1568.199999988079,675684.6000000089,9033,WL,C,10.0
5,26.850000143051147,learn,60000.0,Thu Feb 05 2026 12:28:30 GMT-0500 (Eastern Standard Time),677568.700000003,A,quee,I,e,299,2,1884.0999999940395,675684.6000000089,9033,WL,C,10.0
5,27.183000087738037,learn,60000.0,Thu Feb 05 2026 12:28:30 GMT-0500 (Eastern Standard Time),677901.400000006,A,queen,I,n,318,2,2216.7999999970198,675684.6000000089,9033,WL,C,10.0
5,28.049000024795532,learn,60000.0,Thu Feb 05 2026 12:28:30 GMT-0500 (Eastern Standard Time),678767.799999997,A,queenenter,I,enter,858,2,3083.199999988079,675684.6000000089,9033,WL,C,10.0
5,28.950000047683716,learn,60000.0,Thu Feb 05 2026 12:28:30 GMT-0500 (Eastern Standard Time),679669.200000003,A,t,I,t,881,2,901.2000000029802,678768.0,9033,WL,C,11.0
5,29.266000032424927,learn,60000.0,Thu Feb 05 2026 12:28:30 GMT-0500 (Eastern Standard Time),679985.200000003,A,to,I,o,295,2,1217.2000000029802,678768.0,9033,WL,C,11.0
5,29.83299994468689,learn,60000.0,Thu Feb 05 2026 12:28:30 GMT-0500 (Eastern Standard Time),680552.200000003,A,tow,I,w,547,2,1784.2000000029802,678768.0,9033,WL,C,11.0
5,30.18400001525879,learn,60000.0,Thu Feb 05 2026 12:28:30 GMT-0500 (Eastern Standard Time),680902.5,A,towe,I,e,327,2,2134.5,678768.0,9033,WL,C,11.0
5,30.51699995994568,learn,60000.0,Thu Feb 05 2026 12:28:30 GMT-0500 (Eastern Standard Time),681235.5,A,tower,I,r,319,2,2467.5,678768.0,9033,WL,C,11.0
5,30.901000022888184,learn,60000.0,Thu Feb 05 2026 12:28:30 GMT-0500 (Eastern Standard Time),681619.6000000089,A,towerenter,I,enter,371,2,2851.6000000089407,678768.0,9033,WL,C,11.0
5,31.533999919891357,learn,60000.0,Thu Feb 05 2026 12:28:30 GMT-0500 (Eastern Standard Time),682252.5,A,h,I,h,623,2,632.7000000029802,681619.799999997,9033,WL,C,12.0
5,31.966000080108643,learn,60000.0,Thu Feb 05 2026 12:28:30 GMT-0500 (Eastern Standard Time),682684.6000000089,A,ho,I,o,410,2,1064.800000011921,681619.799999997,9033,WL,C,12.0
5,32.717000007629395,learn,60000.0,Thu Feb 05 2026 12:28:30 GMT-0500 (Eastern Standard Time),683435.5,A,hom,I,m,730,2,1815.7000000029802,681619.799999997,9033,WL,C,12.0
5,33.31599998474121,learn,60000.0,Thu Feb 05 2026 12:28:30 GMT-0500 (Eastern Standard Time),684035.200000003,A,home,I,e,579,2,2415.4000000059605,681619.799999997,9033,WL,C,12.0
5,33.76699995994568,learn,60000.0,Thu Feb 05 2026 12:28:30 GMT-0500 (Eastern Standard Time),684485.6000000089,A,homeenter,I,enter,429,2,2865.800000011921,681619.799999997,9033,WL,C,12.0
5,34.98300004005432,learn,60000.0,Thu Feb 05 2026 12:28:30 GMT-0500 (Eastern Standard Time),685701.5,A,d,I,d,1204,2,1215.7999999970198,684485.700000003,9033,WL,C,13.0
5,35.33299994468689,learn,60000.0,Thu Feb 05 2026 12:28:30 GMT-0500 (Eastern Standard Time),686052.400000006,A,do,I,o,338,2,1566.7000000029802,684485.700000003,9033,WL,C,13.0
5,35.81700015068054,learn,60000.0,Thu Feb 05 2026 12:28:30 GMT-0500 (Eastern Standard Time),686536.1000000089,A,doc,I,c,467,2,2050.4000000059605,684485.700000003,9033,WL,C,13.0
5,36.282999992370605,learn,60000.0,Thu Feb 05 2026 12:28:30 GMT-0500 (Eastern Standard Time),687002.200000003,A,doct,I,t,456,2,2516.5,684485.700000003,9033,WL,C,13.0
5,36.60000014305115,learn,60000.0,Thu Feb 05 2026 12:28:30 GMT-0500 (Eastern Standard Time),687318.700000003,A,docto,I,o,300,2,2833.0,684485.700000003,9033,WL,C,13.0
5,36.98399996757507,learn,60000.0,Thu Feb 05 2026 12:28:30 GMT-0500 (Eastern Standard Time),687702.5,A,doctor,I,r,363,2,3216.7999999970198,684485.700000003,9033,WL,C,13.0
5,37.49900007247925,learn,60000.0,Thu Feb 05 2026 12:28:30 GMT-0500 (Eastern Standard Time),688217.900000006,A,doctorenter,I,enter,496,2,3732.2000000029802,684485.700000003,9033,WL,C,13.0
5,37.96600008010864,learn,60000.0,Thu Feb 05 2026 12:28:30 GMT-0500 (Eastern Standard Time),688685.200000003,A,c,I,c,456,2,467.09999999403954,688218.1000000089,9033,WL,C,14.0
5,38.33400011062622,learn,60000.0,Thu Feb 05 2026 12:28:30 GMT-0500 (Eastern Standard Time),689052.6000000089,A,ca,I,a,345,2,834.5,688218.1000000089,9033,WL,C,14.0
5,38.85000014305115,learn,60000.0,Thu Feb 05 2026 12:28:30 GMT-0500 (Eastern Standard Time),689568.6000000089,A,cat,I,t,500,2,1350.5,688218.1000000089,9033,WL,C,14.0
5,39.18300008773804,learn,60000.0,Thu Feb 05 2026 12:28:30 GMT-0500 (Eastern Standard Time),689901.700000003,A,catt,I,t,311,2,1683.5999999940395,688218.1000000089,9033,WL,C,14.0
5,39.46600008010864,learn,60000.0,Thu Feb 05 2026 12:28:30 GMT-0500 (Eastern Standard Time),690184.799999997,A,cattl,I,l,264,2,1966.699999988079,688218.1000000089,9033,WL,C,14.0
5,39.83299994468689,learn,60000.0,Thu Feb 05 2026 12:28:30 GMT-0500 (Eastern Standard Time),690552.299999997,A,cattle,I,e,351,2,2334.199999988079,688218.1000000089,9033,WL,C,14.0
5,40.365999937057495,learn,60000.0,Thu Feb 05 2026 12:28:30 GMT-0500 (Eastern Standard Time),691085.400000006,A,cattleenter,I,enter,517,2,2867.2999999970198,688218.1000000089,9033,WL,C,14.0
5,44.98300004005432,learn,60000.0,Thu Feb 05 2026 12:28:30 GMT-0500 (Eastern Standard Time),695701.700000003,A,s,I,s,4605,2,4616.20000000298,691085.5,9033,WL,C,15.0
5,45.43400001525879,learn,60000.0,Thu Feb 05 2026 12:28:30 GMT-0500 (Eastern Standard Time),696153.1000000089,A,su,I,u,443,2,5067.600000008941,691085.5,9033,WL,C,15.0
5,46.0,learn,60000.0,Thu Feb 05 2026 12:28:30 GMT-0500 (Eastern Standard Time),696719.1000000089,A,sug,I,g,542,2,5633.600000008941,691085.5,9033,WL,C,15.0
5,46.13199996948242,learn,60000.0,Thu Feb 05 2026 12:28:30 GMT-0500 (Eastern Standard Time),696851.400000006,A,suga,I,a,120,2,5765.9000000059605,691085.5,9033,WL,C,15.0
5,46.617000102996826,learn,60000.0,Thu Feb 05 2026 12:28:30 GMT-0500 (Eastern Standard Time),697335.700000003,A,sugar,I,r,477,2,6250.20000000298,691085.5,9033,WL,C,15.0
5,47.23200011253357,learn,60000.0,Thu Feb 05 2026 12:28:30 GMT-0500 (Eastern Standard Time),697951.200000003,A,sugarenter,I,enter,608,2,6865.70000000298,691085.5,9033,WL,C,15.0
6,1.9149999618530273,distr,58085.00003814697,Thu Feb 05 2026 12:28:30 GMT-0500 (Eastern Standard Time),779586.0,B,w,I,w,1896,2,1914.7000000029802,777671.299999997,9033,WL,C,1.0
6,2.3309998512268066,distr,57669.00014877319,Thu Feb 05 2026 12:28:30 GMT-0500 (Eastern Standard Time),780002.299999997,B,wi,I,i,403,2,2331.0,777671.299999997,9033,WL,C,1.0
6,2.7819998264312744,distr,57218.000173568726,Thu Feb 05 2026 12:28:30 GMT-0500 (Eastern Standard Time),780452.5,B,win,I,n,426,2,2781.2000000029802,777671.299999997,9033,WL,C,1.0
6,3.1649999618530273,distr,56835.00003814697,Thu Feb 05 2026 12:28:30 GMT-0500 (Eastern Standard Time),780835.5,B,wint,I,t,372,2,3164.2000000029802,777671.299999997,9033,WL,C,1.0
6,3.4139997959136963,distr,56586.000204086304,Thu Feb 05 2026 12:28:30 GMT-0500 (Eastern Standard Time),781085.400000006,B,winte,I,e,227,2,3414.1000000089407,777671.299999997,9033,WL,C,1.0
6,3.863999843597412,distr,56136.00015640259,Thu Feb 05 2026 12:28:30 GMT-0500 (Eastern Standard Time),781534.799999997,B,winter,I,r,434,2,3863.5,777671.299999997,9033,WL,C,1.0
6,4.497999906539917,distr,55502.00009346008,Thu Feb 05 2026 12:28:30 GMT-0500 (Eastern Standard Time),782169.1000000089,B,winterenter,I,enter,624,2,4497.800000011921,777671.299999997,9033,WL,C,1.0
6,6.113999843597412,distr,53886.00015640259,Thu Feb 05 2026 12:28:30 GMT-0500 (Eastern Standard Time),783784.700000003,B,m,I,m,1608,2,1615.4000000059605,782169.299999997,9033,WL,C,2.0
6,6.597999811172485,distr,53402.000188827515,Thu Feb 05 2026 12:28:30 GMT-0500 (Eastern Standard Time),784268.799999997,B,mo,I,o,471,2,2099.5,782169.299999997,9033,WL,C,2.0
6,7.0309998989105225,distr,52969.00010108948,Thu Feb 05 2026 12:28:30 GMT-0500 (Eastern Standard Time),784701.900000006,B,mot,I,t,419,2,2532.6000000089407,782169.299999997,9033,WL,C,2.0
6,7.23199987411499,distr,52768.00012588501,Thu Feb 05 2026 12:28:30 GMT-0500 (Eastern Standard Time),784902.6000000089,B,moth,I,h,193,2,2733.300000011921,782169.299999997,9033,WL,C,2.0
6,7.597999811172485,distr,52402.000188827515,Thu Feb 05 2026 12:28:30 GMT-0500 (Eastern Standard Time),785269.0,B,mothe,I,e,353,2,3099.7000000029802,782169.299999997,9033,WL,C,2.0
6,7.948999881744385,distr,52051.000118255615,Thu Feb 05 2026 12:28:30 GMT-0500 (Eastern Standard Time),785619.5,B,mother,I,r,338,2,3450.2000000029802,782169.299999997,9033,WL,C,2.0
6,8.497999906539917,distr,51502.00009346008,Thu Feb 05 2026 12:28:30 GMT-0500 (Eastern Standard Time),786169.200000003,B,motherenter,I,enter,531,2,3999.9000000059605,782169.299999997,9033,WL,C,2.0
6,9.197999954223633,distr,50802.00004577637,Thu Feb 05 2026 12:28:30 GMT-0500 (Eastern Standard Time),786868.6000000089,B,d,I,d,689,2,699.2000000029802,786169.400000006,9033,WL,C,3.0
6,9.446999788284302,distr,50553.0002117157,Thu Feb 05 2026 12:28:30 GMT-0500 (Eastern Standard Time),787118.299999997,B,do,I,o,233,2,948.8999999910593,786169.400000006,9033,WL,C,3.0
6,9.797999858856201,distr,50202.0001411438,Thu Feb 05 2026 12:28:30 GMT-0500 (Eastern Standard Time),787469.1000000089,B,dol,I,l,331,2,1299.7000000029802,786169.400000006,9033,WL,C,3.0
6,10.06499981880188,distr,49935.00018119812,Thu Feb 05 2026 12:28:30 GMT-0500 (Eastern Standard Time),787735.400000006,B,doll,I,l,250,2,1566.0,786169.400000006,9033,WL,C,3.0
6,10.347999811172485,distr,49652.000188827515,Thu Feb 05 2026 12:28:30 GMT-0500 (Eastern Standard Time),788019.1000000089,B,dolla,I,a,273,2,1849.7000000029802,786169.400000006,9033,WL,C,3.0
6,10.715999841690063,distr,49284.00015830994,Thu Feb 05 2026 12:28:30 GMT-0500 (Eastern Standard Time),788386.700000003,B,dollar,I,r,355,2,2217.2999999970198,786169.400000006,9033,WL,C,3.0
6,11.096999883651733,distr,48903.00011634827,Thu Feb 05 2026 12:28:30 GMT-0500 (Eastern Standard Time),788768.1000000089,B,dollarenter,I,enter,363,2,2598.7000000029802,786169.400000006,9033,WL,C,3.0
6,11.780999898910522,distr,48219.00010108948,Thu Feb 05 2026 12:28:30 GMT-0500 (Eastern Standard Time),789452.299999997,B,v,I,v,675,2,684.0,788768.299999997,9033,WL,C,4.0
6,11.996999979019165,distr,48003.000020980835,Thu Feb 05 2026 12:28:30 GMT-0500 (Eastern Standard Time),789668.400000006,B,va,I,a,204,2,900.1000000089407,788768.299999997,9033,WL,C,4.0
6,12.497999906539917,distr,47502.00009346008,Thu Feb 05 2026 12:28:30 GMT-0500 (Eastern Standard Time),790168.700000003,B,val,I,l,484,2,1400.4000000059605,788768.299999997,9033,WL,C,4.0
6,12.746999979019165,distr,47253.000020980835,Thu Feb 05 2026 12:28:30 GMT-0500 (Eastern Standard Time),790418.200000003,B,vall,I,l,239,2,1649.9000000059605,788768.299999997,9033,WL,C,4.0
6,13.113999843597412,distr,46886.00015640259,Thu Feb 05 2026 12:28:30 GMT-0500 (Eastern Standard Time),790784.799999997,B,valle,I,e,356,2,2016.5,788768.299999997,9033,WL,C,4.0
6,13.547999858856201,distr,46452.0001411438,Thu Feb 05 2026 12:28:30 GMT-0500 (Eastern Standard Time),791219.400000006,B,valley,I,y,414,2,2451.1000000089407,788768.299999997,9033,WL,C,4.0
6,14.080999851226807,distr,45919.00014877319,Thu Feb 05 2026 12:28:30 GMT-0500 (Eastern Standard Time),791751.799999997,B,valleyenter,I,enter,523,2,2983.5,788768.299999997,9033,WL,C,4.0
6,14.863999843597412,distr,45136.00015640259,Thu Feb 05 2026 12:28:30 GMT-0500 (Eastern Standard Time),792535.299999997,B,s,I,s,769,2,783.1999999880791,791752.1000000089,9033,WL,C,5.0
6,16.180999994277954,distr,43819.000005722046,Thu Feb 05 2026 12:28:30 GMT-0500 (Eastern Standard Time),793851.5,B,sk,I,k,1303,2,2099.3999999910593,791752.1000000089,9033,WL,C,5.0
6,17.06499981880188,distr,42935.00018119812,Thu Feb 05 2026 12:28:30 GMT-0500 (Eastern Standard Time),794735.5,B,sky,I,y,868,2,2983.3999999910593,791752.1000000089,9033,WL,C,5.0
6,19.06499981880188,distr,40935.00018119812,Thu Feb 05 2026 12:28:30 GMT-0500 (Eastern Standard Time),796735.700000003,B,skyenter,I,enter,1984,2,4983.5999999940395,791752.1000000089,9033,WL,C,5.0
6,19.780999898910522,distr,40219.00010108948,Thu Feb 05 2026 12:28:30 GMT-0500 (Eastern Standard Time),797451.700000003,B,v,I,v,698,2,715.7000000029802,796736.0,9033,WL,C,6.0
6,19.99899983406067,distr,40001.00016593933,Thu Feb 05 2026 12:28:30 GMT-0500 (Eastern Standard Time),797669.700000003,B,va,I,a,204,2,933.7000000029802,796736.0,9033,WL,C,6.0
6,20.746999979019165,distr,39253.000020980835,Thu Feb 05 2026 12:28:30 GMT-0500 (Eastern Standard Time),798418.299999997,B,val,I,l,729,2,1682.2999999970198,796736.0,9033,WL,C,6.0
6,20.98099994659424,distr,39019.00005340576,Thu Feb 05 2026 12:28:30 GMT-0500 (Eastern Standard Time),798652.1000000089,B,vall,I,l,224,2,1916.1000000089407,796736.0,9033,WL,C,6.0
6,21.21399998664856,distr,38786.00001335144,Thu Feb 05 2026 12:28:30 GMT-0500 (Eastern Standard Time),798884.900000006,B,valle,I,e,226,2,2148.9000000059605,796736.0,9033,WL,C,6.0
6,21.680999994277954,distr,38319.000005722046,Thu Feb 05 2026 12:28:30 GMT-0500 (Eastern Standard Time),799352.0,B,valley,I,y,452,2,2616.0,796736.0,9033,WL,C,6.0
6,23.431999921798706,distr,36568.000078201294,Thu Feb 05 2026 12:28:30 GMT-0500 (Eastern Standard Time),801102.6000000089,B,valleyenter,I,enter,1735,2,4366.600000008941,796736.0,9033,WL,C,6.0
6,29.680999994277954,distr,30319.000005722046,Thu Feb 05 2026 12:28:30 GMT-0500 (Eastern Standard Time),807352.0,B,m,I,m,6244,2,6249.20000000298,801102.799999997,9033,WL,C,7.0
6,30.363999843597412,distr,29636.000156402588,Thu Feb 05 2026 12:28:30 GMT-0500 (Eastern Standard Time),808035.299999997,B,mo,I,o,664,2,6932.5,801102.799999997,9033,WL,C,7.0
6,31.014999866485596,distr,28985.000133514404,Thu Feb 05 2026 12:28:30 GMT-0500 (Eastern Standard Time),808686.0,B,mot,I,t,625,2,7583.20000000298,801102.799999997,9033,WL,C,7.0
6,31.1969997882843,distr,28803.0002117157,Thu Feb 05 2026 12:28:30 GMT-0500 (Eastern Standard Time),808868.1000000089,B,moth,I,h,168,2,7765.300000011921,801102.799999997,9033,WL,C,7.0
6,31.597999811172485,distr,28402.000188827515,Thu Feb 05 2026 12:28:30 GMT-0500 (Eastern Standard Time),809268.6000000089,B,mothe,I,e,387,2,8165.800000011921,801102.799999997,9033,WL,C,7.0
6,31.881999969482422,distr,28118.000030517578,Thu Feb 05 2026 12:28:30 GMT-0500 (Eastern Standard Time),809552.400000006,B,mother,I,r,267,2,8449.60000000894,801102.799999997,9033,WL,C,7.0
6,32.24799990653992,distr,27752.000093460083,Thu Feb 05 2026 12:28:30 GMT-0500 (Eastern Standard Time),809918.5,B,motherenter,I,enter,359,2,8815.70000000298,801102.799999997,9033,WL,C,7.0
6,60.01599979400635,distr,-15.999794006347656,Thu Feb 05 2026 12:28:30 GMT-0500 (Eastern Standard Time),837687.1000000089,B,None,I,None,27765,2,27768.40000000596,809918.700000003,9033,WL,C,8.0
7,2.9150002002716064,immed,57084.99979972839,Thu Feb 05 2026 12:28:30 GMT-0500 (Eastern Standard Time),850168.200000003,A,t,I,t,2897,2,2915.0,847253.200000003,9033,WL,C,1.0
7,3.0480000972747803,immed,56951.99990272522,Thu Feb 05 2026 12:28:30 GMT-0500 (Eastern Standard Time),850301.299999997,A,to,I,o,126,2,3048.0999999940395,847253.200000003,9033,WL,C,1.0
7,3.5,immed,56500.0,Thu Feb 05 2026 12:28:30 GMT-0500 (Eastern Standard Time),850752.900000006,A,tow,I,w,441,2,3499.7000000029802,847253.200000003,9033,WL,C,1.0
7,3.8320000171661377,immed,56167.99998283386,Thu Feb 05 2026 12:28:30 GMT-0500 (Eastern Standard Time),851085.299999997,A,towe,I,e,307,2,3832.0999999940395,847253.200000003,9033,WL,C,1.0
7,4.117000102996826,immed,55882.999897003174,Thu Feb 05 2026 12:28:30 GMT-0500 (Eastern Standard Time),851370.0,A,tower,I,r,265,2,4116.79999999702,847253.200000003,9033,WL,C,1.0
7,4.648000001907349,immed,55351.99999809265,Thu Feb 05 2026 12:28:30 GMT-0500 (Eastern Standard Time),851901.299999997,A,towerenter,I,enter,525,2,4648.0999999940395,847253.200000003,9033,WL,C,1.0
7,7.833000183105469,immed,52166.99981689453,Thu Feb 05 2026 12:28:30 GMT-0500 (Eastern Standard Time),855085.900000006,A,t,I,t,3173,2,3184.4000000059605,851901.5,9033,WL,C,2.0
7,8.033000230789185,immed,51966.999769210815,Thu Feb 05 2026 12:28:30 GMT-0500 (Eastern Standard Time),855285.700000003,A,to,I,o,177,2,3384.2000000029802,851901.5,9033,WL,C,2.0
7,8.583000183105469,immed,51416.99981689453,Thu Feb 05 2026 12:28:30 GMT-0500 (Eastern Standard Time),855835.700000003,A,tow,I,w,526,2,3934.2000000029802,851901.5,9033,WL,C,2.0
7,8.783000230789185,immed,51216.999769210815,Thu Feb 05 2026 12:28:30 GMT-0500 (Eastern Standard Time),856035.700000003,A,towe,I,e,178,2,4134.20000000298,851901.5,9033,WL,C,2.0
7,9.100000143051147,immed,50899.99985694885,Thu Feb 05 2026 12:28:30 GMT-0500 (Eastern Standard Time),856352.5,A,tower,I,r,299,2,4451.0,851901.5,9033,WL,C,2.0
7,9.56600022315979,immed,50433.99977684021,Thu Feb 05 2026 12:28:30 GMT-0500 (Eastern Standard Time),856819.400000006,A,towerenter,I,enter,446,2,4917.9000000059605,851901.5,9033,WL,C,2.0
7,9.999000072479248,immed,50000.99992752075,Thu Feb 05 2026 12:28:30 GMT-0500 (Eastern Standard Time),857252.0,A,w,I,w,422,2,432.3999999910593,856819.6000000089,9033,WL,C,3.0
7,10.333000183105469,immed,49666.99981689453,Thu Feb 05 2026 12:28:30 GMT-0500 (Eastern Standard Time),857586.400000006,A,wh,I,h,313,2,766.7999999970198,856819.6000000089,9033,WL,C,3.0
7,10.749000072479248,immed,49250.99992752075,Thu Feb 05 2026 12:28:30 GMT-0500 (Eastern Standard Time),858002.0,A,whe,I,e,405,2,1182.3999999910593,856819.6000000089,9033,WL,C,3.0
7,11.082000017166138,immed,48917.99998283386,Thu Feb 05 2026 12:28:30 GMT-0500 (Eastern Standard Time),858334.900000006,A,whea,I,a,317,2,1515.2999999970198,856819.6000000089,9033,WL,C,3.0
7,11.332000017166138,immed,48667.99998283386,Thu Feb 05 2026 12:28:30 GMT-0500 (Eastern Standard Time),858584.700000003,A,wheat,I,t,240,2,1765.0999999940395,856819.6000000089,9033,WL,C,3.0
7,11.882000207901001,immed,48117.999792099,Thu Feb 05 2026 12:28:30 GMT-0500 (Eastern Standard Time),859134.799999997,A,wheatenter,I,enter,539,2,2315.199999988079,856819.6000000089,9033,WL,C,3.0
7,12.516000032424927,immed,47483.99996757507,Thu Feb 05 2026 12:28:30 GMT-0500 (Eastern Standard Time),859769.299999997,A,b,I,b,627,2,634.3999999910593,859134.900000006,9033,WL,C,4.0
7,12.966000080108643,immed,47033.99991989136,Thu Feb 05 2026 12:28:30 GMT-0500 (Eastern Standard Time),860219.299999997,A,bo,I,o,439,2,1084.3999999910593,859134.900000006,9033,WL,C,4.0
7,13.46500015258789,immed,46534.99984741211,Thu Feb 05 2026 12:28:30 GMT-0500 (Eastern Standard Time),860718.1000000089,A,boy,I,y,482,2,1583.2000000029802,859134.900000006,9033,WL,C,4.0
7,13.850000143051147,immed,46149.99985694885,Thu Feb 05 2026 12:28:30 GMT-0500 (Eastern Standard Time),861102.799999997,A,boyenter,I,enter,365,2,1967.8999999910593,859134.900000006,9033,WL,C,4.0
7,14.533000230789185,immed,45466.999769210815,Thu Feb 05 2026 12:28:30 GMT-0500 (Eastern Standard Time),861785.6000000089,A,q,I,q,676,2,682.6000000089407,861103.0,9033,WL,C,5.0
7,14.89900016784668,immed,45100.99983215332,Thu Feb 05 2026 12:28:30 GMT-0500 (Eastern Standard Time),862151.5,A,qu,I,u,356,2,1048.5,861103.0,9033,WL,C,5.0
7,15.39900016784668,immed,44600.99983215332,Thu Feb 05 2026 12:28:30 GMT-0500 (Eastern Standard Time),862651.799999997,A,que,I,e,488,2,1548.7999999970198,861103.0,9033,WL,C,5.0
7,15.599000215530396,immed,44400.999784469604,Thu Feb 05 2026 12:28:30 GMT-0500 (Eastern Standard Time),862851.6000000089,A,quee,I,e,185,2,1748.6000000089407,861103.0,9033,WL,C,5.0
7,15.91700005531311,immed,44082.99994468689,Thu Feb 05 2026 12:28:30 GMT-0500 (Eastern Standard Time),863169.6000000089,A,queen,I,n,297,2,2066.6000000089407,861103.0,9033,WL,C,5.0
7,16.383000135421753,immed,43616.99986457825,Thu Feb 05 2026 12:28:30 GMT-0500 (Eastern Standard Time),863636.200000003,A,queenenter,I,enter,443,2,2533.2000000029802,861103.0,9033,WL,C,5.0
7,17.651000022888184,immed,42348.99997711182,Thu Feb 05 2026 12:28:30 GMT-0500 (Eastern Standard Time),864903.6000000089,A,f,I,f,1262,2,1267.2000000029802,863636.400000006,9033,WL,C,6.0
7,17.865000009536743,immed,42134.99999046326,Thu Feb 05 2026 12:28:30 GMT-0500 (Eastern Standard Time),865118.200000003,A,fl,I,l,205,2,1481.7999999970198,863636.400000006,9033,WL,C,6.0
7,18.23200011253357,immed,41767.99988746643,Thu Feb 05 2026 12:28:30 GMT-0500 (Eastern Standard Time),865485.299999997,A,fla,I,a,343,2,1848.8999999910593,863636.400000006,9033,WL,C,6.0
7,18.89900016784668,immed,41100.99983215332,Thu Feb 05 2026 12:28:30 GMT-0500 (Eastern Standard Time),866152.299999997,A,flag,I,g,646,2,2515.8999999910593,863636.400000006,9033,WL,C,6.0
7,19.249000072479248,immed,40750.99992752075,Thu Feb 05 2026 12:28:30 GMT-0500 (Eastern Standard Time),866501.700000003,A,flagenter,I,enter,326,2,2865.2999999970198,863636.400000006,9033,WL,C,6.0
7,19.91600012779236,immed,40083.99987220764,Thu Feb 05 2026 12:28:30 GMT-0500 (Eastern Standard Time),867168.5,A,s,I,s,661,2,666.5999999940395,866501.900000006,9033,WL,C,7.0
7,20.183000087738037,immed,39816.99991226196,Thu Feb 05 2026 12:28:30 GMT-0500 (Eastern Standard Time),867436.1000000089,A,sh,I,h,257,2,934.2000000029802,866501.900000006,9033,WL,C,7.0
7,20.582000017166138,immed,39417.99998283386,Thu Feb 05 2026 12:28:30 GMT-0500 (Eastern Standard Time),867835.1000000089,A,sho,I,o,383,2,1333.2000000029802,866501.900000006,9033,WL,C,7.0
7,21.0,immed,39000.0,Thu Feb 05 2026 12:28:30 GMT-0500 (Eastern Standard Time),868252.5,A,shor,I,r,396,2,1750.5999999940395,866501.900000006,9033,WL,C,7.0
7,21.25,immed,38750.0,Thu Feb 05 2026 12:28:30 GMT-0500 (Eastern Standard Time),868503.0,A,shore,I,e,242,2,2001.0999999940395,866501.900000006,9033,WL,C,7.0
7,21.717000007629395,immed,38282.999992370605,Thu Feb 05 2026 12:28:30 GMT-0500 (Eastern Standard Time),868969.5,A,shoreenter,I,enter,447,2,2467.5999999940395,866501.900000006,9033,WL,C,7.0
7,22.516000032424927,immed,37483.99996757507,Thu Feb 05 2026 12:28:30 GMT-0500 (Eastern Standard Time),869769.299999997,A,l,I,l,785,2,799.6999999880791,868969.6000000089,9033,WL,C,8.0
7,23.016000032424927,immed,36983.99996757507,Thu Feb 05 2026 12:28:30 GMT-0500 (Eastern Standard Time),870268.5,A,le,I,e,486,2,1298.8999999910593,868969.6000000089,9033,WL,C,8.0
7,23.41700005531311,immed,36582.99994468689,Thu Feb 05 2026 12:28:30 GMT-0500 (Eastern Standard Time),870670.200000003,A,let,I,t,388,2,1700.5999999940395,868969.6000000089,9033,WL,C,8.0
7,23.632000207901,immed,36367.999792099,Thu Feb 05 2026 12:28:30 GMT-0500 (Eastern Standard Time),870884.900000006,A,lett,I,t,205,2,1915.2999999970198,868969.6000000089,9033,WL,C,8.0
7,23.91600012779236,immed,36083.99987220764,Thu Feb 05 2026 12:28:30 GMT-0500 (Eastern Standard Time),871169.299999997,A,lette,I,e,271,2,2199.699999988079,868969.6000000089,9033,WL,C,8.0
7,24.182000160217285,immed,35817.999839782715,Thu Feb 05 2026 12:28:30 GMT-0500 (Eastern Standard Time),871435.299999997,A,letter,I,r,247,2,2465.699999988079,868969.6000000089,9033,WL,C,8.0
7,24.515000104904175,immed,35484.999895095825,Thu Feb 05 2026 12:28:30 GMT-0500 (Eastern Standard Time),871768.200000003,A,letterenter,I,enter,323,2,2798.5999999940395,868969.6000000089,9033,WL,C,8.0
7,25.15000009536743,immed,34849.99990463257,Thu Feb 05 2026 12:28:30 GMT-0500 (Eastern Standard Time),872402.900000006,A,c,I,c,626,2,634.5,871768.400000006,9033,WL,C,9.0
7,25.516000032424927,immed,34483.99996757507,Thu Feb 05 2026 12:28:30 GMT-0500 (Eastern Standard Time),872768.6000000089,A,ca,I,a,358,2,1000.2000000029802,871768.400000006,9033,WL,C,9.0
7,25.933000087738037,immed,34066.99991226196,Thu Feb 05 2026 12:28:30 GMT-0500 (Eastern Standard Time),873185.700000003,A,can,I,n,403,2,1417.2999999970198,871768.400000006,9033,WL,C,9.0
7,27.25,immed,32750.0,Thu Feb 05 2026 12:28:30 GMT-0500 (Eastern Standard Time),874502.400000006,A,canm,I,m,1311,2,2734.0,871768.400000006,9033,WL,C,9.0
7,27.83300018310547,immed,32166.99981689453,Thu Feb 05 2026 12:28:30 GMT-0500 (Eastern Standard Time),875086.400000006,A,canmp,I,p,575,2,3318.0,871768.400000006,9033,WL,C,9.0
7,28.58300018310547,immed,31416.99981689453,Thu Feb 05 2026 12:28:30 GMT-0500 (Eastern Standard Time),875836.1000000089,A,canmpenter,I,enter,727,2,4067.7000000029802,871768.400000006,9033,WL,C,9.0
7,29.266000032424927,immed,30733.999967575073,Thu Feb 05 2026 12:28:30 GMT-0500 (Eastern Standard Time),876518.5,A,n,I,n,669,2,682.2999999970198,875836.200000003,9033,WL,C,10.0
7,29.582000017166138,immed,30417.999982833862,Thu Feb 05 2026 12:28:30 GMT-0500 (Eastern Standard Time),876835.400000006,A,na,I,a,296,2,999.2000000029802,875836.200000003,9033,WL,C,10.0
7,29.866000175476074,immed,30133.999824523926,Thu Feb 05 2026 12:28:30 GMT-0500 (Eastern Standard Time),877118.799999997,A,nai,I,i,268,2,1282.5999999940395,875836.200000003,9033,WL,C,10.0
7,30.267000198364258,immed,29732.999801635742,Thu Feb 05 2026 12:28:30 GMT-0500 (Eastern Standard Time),877519.700000003,A,nail,I,l,383,2,1683.5,875836.200000003,9033,WL,C,10.0
7,31.117000102996826,immed,28882.999897003174,Thu Feb 05 2026 12:28:30 GMT-0500 (Eastern Standard Time),878369.5,A,nailenter,I,enter,831,2,2533.2999999970198,875836.200000003,9033,WL,C,10.0
7,31.701000213623047,immed,28298.999786376953,Thu Feb 05 2026 12:28:30 GMT-0500 (Eastern Standard Time),878953.5,A,b,I,b,577,2,583.7999999970198,878369.700000003,9033,WL,C,11.0
7,32.10000014305115,immed,27899.999856948853,Thu Feb 05 2026 12:28:30 GMT-0500 (Eastern Standard Time),879353.1000000089,A,bo,I,o,387,2,983.4000000059605,878369.700000003,9033,WL,C,11.0
7,32.56600022315979,immed,27433.99977684021,Thu Feb 05 2026 12:28:30 GMT-0500 (Eastern Standard Time),879818.900000006,A,bod,I,d,454,2,1449.2000000029802,878369.700000003,9033,WL,C,11.0
7,33.10000014305115,immed,26899.999856948853,Thu Feb 05 2026 12:28:30 GMT-0500 (Eastern Standard Time),880352.700000003,A,body,I,y,512,2,1983.0,878369.700000003,9033,WL,C,11.0
7,33.682000160217285,immed,26317.999839782715,Thu Feb 05 2026 12:28:30 GMT-0500 (Eastern Standard Time),880934.900000006,A,bodyenter,I,enter,565,2,2565.2000000029802,878369.700000003,9033,WL,C,11.0
7,34.41600012779236,immed,25583.99987220764,Thu Feb 05 2026 12:28:30 GMT-0500 (Eastern Standard Time),881668.799999997,A,t,I,t,715,2,733.6999999880791,880935.1000000089,9033,WL,C,12.0
7,35.283000230789185,immed,24716.999769210815,Thu Feb 05 2026 12:28:30 GMT-0500 (Eastern Standard Time),882535.6000000089,A,to,I,o,858,2,1600.5,880935.1000000089,9033,WL,C,12.0
7,35.783000230789185,immed,24216.999769210815,Thu Feb 05 2026 12:28:30 GMT-0500 (Eastern Standard Time),883035.700000003,A,tow,I,w,478,2,2100.5999999940395,880935.1000000089,9033,WL,C,12.0
7,36.04900002479553,immed,23950.999975204468,Thu Feb 05 2026 12:28:30 GMT-0500 (Eastern Standard Time),883301.799999997,A,towe,I,e,246,2,2366.699999988079,880935.1000000089,9033,WL,C,12.0
7,36.35000014305115,immed,23649.999856948853,Thu Feb 05 2026 12:28:30 GMT-0500 (Eastern Standard Time),883603.0,A,tower,I,r,276,2,2667.8999999910593,880935.1000000089,9033,WL,C,12.0
7,36.73300004005432,immed,23266.99995994568,Thu Feb 05 2026 12:28:30 GMT-0500 (Eastern Standard Time),883986.200000003,A,towerenter,I,enter,360,2,3051.0999999940395,880935.1000000089,9033,WL,C,12.0
7,37.349000215530396,immed,22650.999784469604,Thu Feb 05 2026 12:28:30 GMT-0500 (Eastern Standard Time),884601.799999997,A,q,I,q,607,2,615.2999999970198,883986.5,9033,WL,C,13.0
7,37.83200001716614,immed,22167.999982833862,Thu Feb 05 2026 12:28:30 GMT-0500 (Eastern Standard Time),885084.900000006,A,qu,I,u,460,2,1098.4000000059605,883986.5,9033,WL,C,13.0
7,38.23300004005432,immed,21766.99995994568,Thu Feb 05 2026 12:28:30 GMT-0500 (Eastern Standard Time),885485.799999997,A,que,I,e,386,2,1499.2999999970198,883986.5,9033,WL,C,13.0
7,38.449000120162964,immed,21550.999879837036,Thu Feb 05 2026 12:28:30 GMT-0500 (Eastern Standard Time),885701.799999997,A,quee,I,e,205,2,1715.2999999970198,883986.5,9033,WL,C,13.0
7,38.81600022315979,immed,21183.99977684021,Thu Feb 05 2026 12:28:30 GMT-0500 (Eastern Standard Time),886069.200000003,A,queen,I,n,345,2,2082.7000000029802,883986.5,9033,WL,C,13.0
7,39.449000120162964,immed,20550.999879837036,Thu Feb 05 2026 12:28:30 GMT-0500 (Eastern Standard Time),886701.700000003,A,queenenter,I,enter,613,2,2715.2000000029802,883986.5,9033,WL,C,13.0
7,40.04900002479553,immed,19950.999975204468,Thu Feb 05 2026 12:28:30 GMT-0500 (Eastern Standard Time),887301.6000000089,A,h,I,h,596,2,599.7000000029802,886701.900000006,9033,WL,C,14.0
7,40.366000175476074,immed,19633.999824523926,Thu Feb 05 2026 12:28:30 GMT-0500 (Eastern Standard Time),887618.900000006,A,ho,I,o,298,2,917.0,886701.900000006,9033,WL,C,14.0
7,41.116000175476074,immed,18883.999824523926,Thu Feb 05 2026 12:28:30 GMT-0500 (Eastern Standard Time),888368.6000000089,A,hom,I,m,730,2,1666.7000000029802,886701.900000006,9033,WL,C,14.0
7,41.66600012779236,immed,18333.99987220764,Thu Feb 05 2026 12:28:30 GMT-0500 (Eastern Standard Time),888919.1000000089,A,home,I,e,543,2,2217.2000000029802,886701.900000006,9033,WL,C,14.0
7,42.26600003242493,immed,17733.999967575073,Thu Feb 05 2026 12:28:30 GMT-0500 (Eastern Standard Time),889519.299999997,A,homeenter,I,enter,580,2,2817.3999999910593,886701.900000006,9033,WL,C,14.0
7,42.88300013542175,immed,17116.999864578247,Thu Feb 05 2026 12:28:30 GMT-0500 (Eastern Standard Time),890135.900000006,A,d,I,d,611,2,616.4000000059605,889519.5,9033,WL,C,15.0
7,43.132000207901,immed,16867.999792099,Thu Feb 05 2026 12:28:30 GMT-0500 (Eastern Standard Time),890384.900000006,A,do,I,o,229,2,865.4000000059605,889519.5,9033,WL,C,15.0
7,43.449000120162964,immed,16550.999879837036,Thu Feb 05 2026 12:28:30 GMT-0500 (Eastern Standard Time),890702.200000003,A,doc,I,c,303,2,1182.7000000029802,889519.5,9033,WL,C,15.0
7,43.866000175476074,immed,16133.999824523926,Thu Feb 05 2026 12:28:30 GMT-0500 (Eastern Standard Time),891118.900000006,A,doct,I,t,411,2,1599.4000000059605,889519.5,9033,WL,C,15.0
7,44.25,immed,15750.0,Thu Feb 05 2026 12:28:30 GMT-0500 (Eastern Standard Time),891503.1000000089,A,docto,I,o,362,2,1983.6000000089407,889519.5,9033,WL,C,15.0
7,44.80000019073486,immed,15199.999809265137,Thu Feb 05 2026 12:28:30 GMT-0500 (Eastern Standard Time),892052.700000003,A,doctor,I,r,535,2,2533.2000000029802,889519.5,9033,WL,C,15.0
7,45.165000200271606,immed,14834.999799728394,Thu Feb 05 2026 12:28:30 GMT-0500 (Eastern Standard Time),892418.200000003,A,doctorenter,I,enter,356,2,2898.7000000029802,889519.5,9033,WL,C,15.0
