acc_sum,block,block_c,change,condition,correct,correct_response,datetime,endtime,face,project,response,response_time,row_sel,session_number,start_end,starttime,subject_id,task,task_vers,trial
0,prac,1,,1-Back,,,Fri May 09 2025 08:22:08 GMT-0500 (Central Daylight Time),,097_m_f_n_a.png,O,space,11510,1,1,,,7139,NNB,B,0
1,prac,1,0.0,1-Back,1,m,Fri May 09 2025 08:22:08 GMT-0500 (Central Daylight Time),150989.40000003576,152_y_f_n_a.png,O,m,901,2,1,1762.9000000357628,149226.5,7139,NNB,B,1
2,prac,1,1.0,1-Back,1,z,Fri May 09 2025 08:22:08 GMT-0500 (Central Daylight Time),152790.40000003576,152_y_f_n_a.png,O,z,1002,3,1,1783.5,151006.90000003576,7139,NNB,B,2
3,prac,1,0.0,1-Back,1,m,Fri May 09 2025 08:22:08 GMT-0500 (Central Daylight Time),154890.10000002384,176_o_m_n_a.png,O,m,1225,4,1,2081.5,152808.60000002384,7139,NNB,B,3
4,prac,1,0.0,1-Back,1,m,Fri May 09 2025 08:22:08 GMT-0500 (Central Daylight Time),157388.90000003576,126_m_m_n_a.png,O,m,1639,5,1,2485.7000000476837,154903.19999998808,7139,NNB,B,4
5,prac,1,1.0,1-Back,1,z,Fri May 09 2025 08:22:08 GMT-0500 (Central Daylight Time),159269.40000003576,126_m_m_n_a.png,O,z,1093,6,1,1864.300000011921,157405.10000002384,7139,NNB,B,5
6,prac,1,0.0,1-Back,1,m,Fri May 09 2025 08:22:08 GMT-0500 (Central Daylight Time),161269.80000001192,086_o_f_n_a.png,O,m,1124,7,1,1983.8999999761581,159285.90000003576,7139,NNB,B,6
6,prac,1,0.0,1-Back,0,m,Fri May 09 2025 08:22:08 GMT-0500 (Central Daylight Time),163271.30000001192,178_m_m_n_a.png,O,z,1121,8,1,1987.3999999761581,161283.90000003576,7139,NNB,B,7
7,prac,1,0.0,1-Back,1,m,Fri May 09 2025 08:22:08 GMT-0500 (Central Daylight Time),166002.5,097_m_f_n_a.png,O,m,1954,9,1,2714.699999988079,163287.80000001192,7139,NNB,B,8
8,prac,1,1.0,1-Back,1,z,Fri May 09 2025 08:22:08 GMT-0500 (Central Daylight Time),167951.40000003576,097_m_f_n_a.png,O,z,1148,10,1,1929.300000011921,166022.10000002384,7139,NNB,B,9
9,prac,1,0.0,1-Back,1,m,Fri May 09 2025 08:22:08 GMT-0500 (Central Daylight Time),169799.10000002384,176_o_m_n_a.png,O,m,1058,11,1,1832.300000011921,167966.80000001192,7139,NNB,B,10
10,prac,1,0.0,1-Back,1,m,Fri May 09 2025 08:22:08 GMT-0500 (Central Daylight Time),171768.69999998808,173_y_f_n_a.png,O,m,1106,12,1,1954.0999999642372,169814.60000002384,7139,NNB,B,11
0,test,1,0.0,1-Back,,,Fri May 09 2025 08:22:08 GMT-0500 (Central Daylight Time),171768.69999998808,152_y_f_n_a.png,O,space,11113,1,1,1954.0999999642372,169814.60000002384,7139,NNB,B,0
1,test,1,0.0,1-Back,1,m,Fri May 09 2025 08:22:08 GMT-0500 (Central Daylight Time),204688.40000003576,029_m_f_n_a.png,O,m,1276,2,1,2299.100000023842,202389.30000001192,7139,NNB,B,1
2,test,1,0.0,1-Back,1,m,Fri May 09 2025 08:22:08 GMT-0500 (Central Daylight Time),207021.19999998808,173_y_f_n_a.png,O,m,1296,3,1,2315.199999988079,204706.0,7139,NNB,B,2
3,test,1,1.0,1-Back,1,z,Fri May 09 2025 08:22:08 GMT-0500 (Central Daylight Time),208969.19999998808,173_y_f_n_a.png,O,z,921,4,1,1931.8999999761581,207037.30000001192,7139,NNB,B,3
4,test,1,0.0,1-Back,1,m,Fri May 09 2025 08:22:08 GMT-0500 (Central Daylight Time),210954.5,029_m_f_n_a.png,O,m,951,5,1,1969.0999999642372,208985.40000003576,7139,NNB,B,4
5,test,1,0.0,1-Back,1,m,Fri May 09 2025 08:22:08 GMT-0500 (Central Daylight Time),212935.19999998808,176_o_m_n_a.png,O,m,959,6,1,1968.199999988079,210967.0,7139,NNB,B,5
6,test,1,1.0,1-Back,1,z,Fri May 09 2025 08:22:08 GMT-0500 (Central Daylight Time),215068.60000002384,176_o_m_n_a.png,O,z,1115,7,1,2117.900000035763,212950.69999998808,7139,NNB,B,6
7,test,1,0.0,1-Back,1,m,Fri May 09 2025 08:22:08 GMT-0500 (Central Daylight Time),217383.5,126_m_m_n_a.png,O,m,1273,8,1,2299.399999976158,215084.10000002384,7139,NNB,B,7
8,test,1,0.0,1-Back,1,m,Fri May 09 2025 08:22:08 GMT-0500 (Central Daylight Time),219617.40000003576,086_o_f_n_a.png,O,m,1207,9,1,2222.7000000476837,217394.69999998808,7139,NNB,B,8
9,test,1,0.0,1-Back,1,m,Fri May 09 2025 08:22:08 GMT-0500 (Central Daylight Time),221867.90000003576,126_m_m_n_a.png,O,m,1233,10,1,2235.600000023842,219632.30000001192,7139,NNB,B,9
10,test,1,0.0,1-Back,1,m,Fri May 09 2025 08:22:08 GMT-0500 (Central Daylight Time),224782.19999998808,153_y_m_n_a.png,O,m,1877,11,1,2898.699999988079,221883.5,7139,NNB,B,10
11,test,1,1.0,1-Back,1,z,Fri May 09 2025 08:22:08 GMT-0500 (Central Daylight Time),226863.90000003576,153_y_m_n_a.png,O,z,1049,12,1,2067.2000000476837,224796.69999998808,7139,NNB,B,11
12,test,1,0.0,1-Back,1,m,Fri May 09 2025 08:22:08 GMT-0500 (Central Daylight Time),228980.30000001192,110_o_f_n_a.png,O,m,1089,13,1,2102.5,226877.80000001192,7139,NNB,B,12
13,test,1,1.0,1-Back,1,z,Fri May 09 2025 08:22:08 GMT-0500 (Central Daylight Time),231229.40000003576,110_o_f_n_a.png,O,z,1218,14,1,2234.0,228995.40000003576,7139,NNB,B,13
14,test,1,0.0,1-Back,1,m,Fri May 09 2025 08:22:08 GMT-0500 (Central Daylight Time),233279.10000002384,013_y_m_n_a.png,O,m,1025,15,1,2037.6000000238419,231241.5,7139,NNB,B,14
15,test,1,0.0,1-Back,1,m,Fri May 09 2025 08:22:08 GMT-0500 (Central Daylight Time),235680.10000002384,097_m_f_n_a.png,O,m,1359,16,1,2384.0,233296.10000002384,7139,NNB,B,15
16,test,1,0.0,1-Back,1,m,Fri May 09 2025 08:22:08 GMT-0500 (Central Daylight Time),237911.60000002384,065_o_m_n_a.png,O,m,1184,17,1,2215.5,235696.10000002384,7139,NNB,B,16
17,test,1,0.0,1-Back,1,m,Fri May 09 2025 08:22:08 GMT-0500 (Central Daylight Time),240111.10000002384,097_m_f_n_a.png,O,m,1177,18,1,2182.900000035763,237928.19999998808,7139,NNB,B,17
0,test,2,0.0,1-Back,,,Fri May 09 2025 08:22:08 GMT-0500 (Central Daylight Time),240111.10000002384,126_m_m_n_a.png,O,space,4633,1,1,2182.900000035763,237928.19999998808,7139,NNB,B,0
1,test,2,0.0,1-Back,1,m,Fri May 09 2025 08:22:08 GMT-0500 (Central Daylight Time),248859.40000003576,029_m_f_n_a.png,O,m,1050,2,1,2066.900000035763,246792.5,7139,NNB,B,1
2,test,2,1.0,1-Back,1,z,Fri May 09 2025 08:22:08 GMT-0500 (Central Daylight Time),250822.60000002384,029_m_f_n_a.png,O,z,915,3,1,1947.6000000238419,248875.0,7139,NNB,B,2
3,test,2,0.0,1-Back,1,m,Fri May 09 2025 08:22:08 GMT-0500 (Central Daylight Time),252970.90000003576,126_m_m_n_a.png,O,m,1130,4,1,2137.400000035763,250833.5,7139,NNB,B,3
4,test,2,0.0,1-Back,1,m,Fri May 09 2025 08:22:08 GMT-0500 (Central Daylight Time),255156.40000003576,153_y_m_n_a.png,O,m,1155,5,1,2174.400000035763,252982.0,7139,NNB,B,4
5,test,2,0.0,1-Back,1,m,Fri May 09 2025 08:22:08 GMT-0500 (Central Daylight Time),257206.10000002384,152_y_f_n_a.png,O,m,1016,6,1,2033.4000000357628,255172.69999998808,7139,NNB,B,5
6,test,2,1.0,1-Back,1,z,Fri May 09 2025 08:22:08 GMT-0500 (Central Daylight Time),259020.30000001192,152_y_f_n_a.png,O,z,777,7,1,1798.300000011921,257222.0,7139,NNB,B,6
7,test,2,0.0,1-Back,1,m,Fri May 09 2025 08:22:08 GMT-0500 (Central Daylight Time),260905.0,153_y_m_n_a.png,O,m,852,8,1,1870.0999999642372,259034.90000003576,7139,NNB,B,7
8,test,2,0.0,1-Back,1,m,Fri May 09 2025 08:22:08 GMT-0500 (Central Daylight Time),262920.40000003576,110_o_f_n_a.png,O,m,992,9,1,2000.1000000238419,260920.30000001192,7139,NNB,B,8
9,test,2,0.0,1-Back,1,m,Fri May 09 2025 08:22:08 GMT-0500 (Central Daylight Time),264969.10000002384,178_m_m_n_a.png,O,m,1015,10,1,2033.5,262935.60000002384,7139,NNB,B,9
10,test,2,1.0,1-Back,1,z,Fri May 09 2025 08:22:08 GMT-0500 (Central Daylight Time),266752.10000002384,178_m_m_n_a.png,O,z,758,11,1,1766.300000011921,264985.8000000119,7139,NNB,B,10
11,test,2,0.0,1-Back,1,m,Fri May 09 2025 08:22:08 GMT-0500 (Central Daylight Time),268769.90000003576,110_o_f_n_a.png,O,m,971,12,1,2000.9000000357628,266769.0,7139,NNB,B,11
12,test,2,0.0,1-Back,1,m,Fri May 09 2025 08:22:08 GMT-0500 (Central Daylight Time),271001.3000000119,086_o_f_n_a.png,O,m,1208,13,1,2218.800000011921,268782.5,7139,NNB,B,12
13,test,2,0.0,1-Back,1,m,Fri May 09 2025 08:22:08 GMT-0500 (Central Daylight Time),273435.10000002384,176_o_m_n_a.png,O,m,1399,14,1,2417.400000035763,271017.6999999881,7139,NNB,B,13
14,test,2,0.0,1-Back,1,m,Fri May 09 2025 08:22:08 GMT-0500 (Central Daylight Time),275434.6999999881,065_o_m_n_a.png,O,m,958,15,1,1984.199999988079,273450.5,7139,NNB,B,14
15,test,2,1.0,1-Back,1,z,Fri May 09 2025 08:22:08 GMT-0500 (Central Daylight Time),277365.60000002384,065_o_m_n_a.png,O,z,888,16,1,1915.0,275450.60000002384,7139,NNB,B,15
16,test,2,0.0,1-Back,1,m,Fri May 09 2025 08:22:08 GMT-0500 (Central Daylight Time),279400.6999999881,013_y_m_n_a.png,O,m,1000,17,1,2018.5999999642372,277382.10000002384,7139,NNB,B,16
17,test,2,1.0,1-Back,1,z,Fri May 09 2025 08:22:08 GMT-0500 (Central Daylight Time),281365.6999999881,013_y_m_n_a.png,O,z,917,18,1,1948.7999999523163,279416.90000003576,7139,NNB,B,17
0,test,3,1.0,1-Back,,,Fri May 09 2025 08:22:08 GMT-0500 (Central Daylight Time),281365.6999999881,173_y_f_n_a.png,O,space,9107,1,1,1948.7999999523163,279416.90000003576,7139,NNB,B,0
1,test,3,0.0,1-Back,1,m,Fri May 09 2025 08:22:08 GMT-0500 (Central Daylight Time),294594.40000003576,065_o_m_n_a.png,O,m,999,1,1,2002.4000000357628,292592.0,7139,NNB,B,1
2,test,3,1.0,1-Back,1,z,Fri May 09 2025 08:22:08 GMT-0500 (Central Daylight Time),296610.60000002384,065_o_m_n_a.png,O,z,998,1,1,2004.800000011921,294605.8000000119,7139,NNB,B,2
3,test,3,0.0,1-Back,1,m,Fri May 09 2025 08:22:08 GMT-0500 (Central Daylight Time),298591.6999999881,097_m_f_n_a.png,O,m,935,1,1,1966.2999999523163,296625.40000003576,7139,NNB,B,3
4,test,3,1.0,1-Back,1,z,Fri May 09 2025 08:22:08 GMT-0500 (Central Daylight Time),300757.1999999881,097_m_f_n_a.png,O,z,1144,1,1,2149.7999999523163,298607.40000003576,7139,NNB,B,4
5,test,3,0.0,1-Back,1,m,Fri May 09 2025 08:22:08 GMT-0500 (Central Daylight Time),302741.6999999881,110_o_f_n_a.png,O,m,966,1,1,1969.7999999523163,300771.90000003576,7139,NNB,B,5
6,test,3,0.0,1-Back,1,m,Fri May 09 2025 08:22:08 GMT-0500 (Central Daylight Time),304839.60000002384,153_y_m_n_a.png,O,m,1060,1,1,2079.900000035763,302759.6999999881,7139,NNB,B,6
7,test,3,0.0,1-Back,1,m,Fri May 09 2025 08:22:08 GMT-0500 (Central Daylight Time),306957.1999999881,110_o_f_n_a.png,O,m,1072,1,1,2100.699999988079,304856.5,7139,NNB,B,7
8,test,3,0.0,1-Back,1,m,Fri May 09 2025 08:22:08 GMT-0500 (Central Daylight Time),309140.10000002384,013_y_m_n_a.png,O,m,1150,1,1,2166.5,306973.60000002384,7139,NNB,B,8
9,test,3,1.0,1-Back,1,z,Fri May 09 2025 08:22:08 GMT-0500 (Central Daylight Time),310986.8000000119,013_y_m_n_a.png,O,z,804,1,1,1831.199999988079,309155.60000002384,7139,NNB,B,9
10,test,3,0.0,1-Back,1,m,Fri May 09 2025 08:22:08 GMT-0500 (Central Daylight Time),312952.8000000119,029_m_f_n_a.png,O,m,934,1,1,1954.699999988079,310998.10000002384,7139,NNB,B,10
11,test,3,0.0,1-Back,1,m,Fri May 09 2025 08:22:08 GMT-0500 (Central Daylight Time),315085.90000003576,152_y_f_n_a.png,O,m,1087,1,1,2117.300000011921,312968.60000002384,7139,NNB,B,11
12,test,3,1.0,1-Back,1,z,Fri May 09 2025 08:22:08 GMT-0500 (Central Daylight Time),316822.0,152_y_f_n_a.png,O,z,717,1,1,1720.5999999642372,315101.40000003576,7139,NNB,B,12
13,test,3,0.0,1-Back,1,m,Fri May 09 2025 08:22:08 GMT-0500 (Central Daylight Time),318803.8000000119,029_m_f_n_a.png,O,m,948,1,1,1966.3999999761581,316837.40000003576,7139,NNB,B,13
14,test,3,0.0,1-Back,1,m,Fri May 09 2025 08:22:08 GMT-0500 (Central Daylight Time),320916.8000000119,126_m_m_n_a.png,O,m,1070,1,1,2098.0,318818.8000000119,7139,NNB,B,14
15,test,3,1.0,1-Back,1,z,Fri May 09 2025 08:22:08 GMT-0500 (Central Daylight Time),322899.60000002384,126_m_m_n_a.png,O,z,963,1,1,1967.199999988079,320932.40000003576,7139,NNB,B,15
16,test,3,0.0,1-Back,1,m,Fri May 09 2025 08:22:08 GMT-0500 (Central Daylight Time),324934.5,086_o_f_n_a.png,O,m,1016,1,1,2020.699999988079,322913.8000000119,7139,NNB,B,16
17,test,3,1.0,1-Back,1,z,Fri May 09 2025 08:22:08 GMT-0500 (Central Daylight Time),326983.60000002384,086_o_f_n_a.png,O,z,1004,1,1,2032.699999988079,324950.90000003576,7139,NNB,B,17
0,test,4,1.0,1-Back,,,Fri May 09 2025 08:22:08 GMT-0500 (Central Daylight Time),326983.60000002384,097_m_f_n_a.png,O,space,4416,1,1,2032.699999988079,324950.90000003576,7139,NNB,B,0
1,test,4,0.0,1-Back,1,m,Fri May 09 2025 08:22:08 GMT-0500 (Central Daylight Time),336130.40000003576,065_o_m_n_a.png,O,m,1557,2,1,2581.400000035763,333549.0,7139,NNB,B,1
2,test,4,0.0,1-Back,1,m,Fri May 09 2025 08:22:08 GMT-0500 (Central Daylight Time),338779.1999999881,097_m_f_n_a.png,O,m,1621,3,1,2632.099999964237,336147.10000002384,7139,NNB,B,2
3,test,4,0.0,1-Back,1,m,Fri May 09 2025 08:22:08 GMT-0500 (Central Daylight Time),340944.3000000119,110_o_f_n_a.png,O,m,1140,4,1,2150.800000011921,338793.5,7139,NNB,B,3
4,test,4,1.0,1-Back,1,z,Fri May 09 2025 08:22:08 GMT-0500 (Central Daylight Time),342843.8000000119,110_o_f_n_a.png,O,z,862,5,1,1881.300000011921,340962.5,7139,NNB,B,4
5,test,4,0.0,1-Back,1,m,Fri May 09 2025 08:22:08 GMT-0500 (Central Daylight Time),344692.90000003576,152_y_f_n_a.png,O,m,820,6,1,1833.0,342859.90000003576,7139,NNB,B,5
6,test,4,0.0,1-Back,1,m,Fri May 09 2025 08:22:08 GMT-0500 (Central Daylight Time),346742.8000000119,153_y_m_n_a.png,O,m,1025,7,1,2033.699999988079,344709.10000002384,7139,NNB,B,6
7,test,4,1.0,1-Back,1,z,Fri May 09 2025 08:22:08 GMT-0500 (Central Daylight Time),348509.60000002384,153_y_m_n_a.png,O,z,728,8,1,1749.5,346760.10000002384,7139,NNB,B,7
8,test,4,0.0,1-Back,1,m,Fri May 09 2025 08:22:08 GMT-0500 (Central Daylight Time),350458.8000000119,152_y_f_n_a.png,O,m,905,9,1,1931.5,348527.3000000119,7139,NNB,B,8
9,test,4,0.0,1-Back,1,m,Fri May 09 2025 08:22:08 GMT-0500 (Central Daylight Time),352509.10000002384,178_m_m_n_a.png,O,m,1032,10,1,2034.1000000238419,350475.0,7139,NNB,B,9
10,test,4,1.0,1-Back,1,z,Fri May 09 2025 08:22:08 GMT-0500 (Central Daylight Time),354258.10000002384,178_m_m_n_a.png,O,z,699,11,1,1732.5,352525.60000002384,7139,NNB,B,10
11,test,4,0.0,1-Back,1,m,Fri May 09 2025 08:22:08 GMT-0500 (Central Daylight Time),356309.3000000119,086_o_f_n_a.png,O,m,1033,12,1,2036.6000000238419,354272.6999999881,7139,NNB,B,11
12,test,4,0.0,1-Back,1,m,Fri May 09 2025 08:22:08 GMT-0500 (Central Daylight Time),358456.10000002384,176_o_m_n_a.png,O,m,1110,13,1,2129.100000023842,356327.0,7139,NNB,B,12
13,test,4,0.0,1-Back,1,m,Fri May 09 2025 08:22:08 GMT-0500 (Central Daylight Time),360671.10000002384,086_o_f_n_a.png,O,m,1166,14,1,2197.600000023842,358473.5,7139,NNB,B,13
14,test,4,0.0,1-Back,1,m,Fri May 09 2025 08:22:08 GMT-0500 (Central Daylight Time),362988.40000003576,173_y_f_n_a.png,O,m,1288,15,1,2300.400000035763,360688.0,7139,NNB,B,14
15,test,4,1.0,1-Back,1,z,Fri May 09 2025 08:22:08 GMT-0500 (Central Daylight Time),364938.40000003576,173_y_f_n_a.png,O,z,917,16,1,1932.5,363005.90000003576,7139,NNB,B,15
16,test,4,0.0,1-Back,1,m,Fri May 09 2025 08:22:08 GMT-0500 (Central Daylight Time),366955.6999999881,029_m_f_n_a.png,O,m,981,17,1,2001.699999988079,364954.0,7139,NNB,B,16
17,test,4,1.0,1-Back,1,z,Fri May 09 2025 08:22:08 GMT-0500 (Central Daylight Time),369203.10000002384,029_m_f_n_a.png,O,z,1206,18,1,2230.600000023842,366972.5,7139,NNB,B,17
0,test,5,1.0,1-Back,,,Fri May 09 2025 08:22:08 GMT-0500 (Central Daylight Time),369203.10000002384,176_o_m_n_a.png,O,space,3630,1,1,2230.600000023842,366972.5,7139,NNB,B,0
1,test,5,1.0,1-Back,1,z,Fri May 09 2025 08:22:08 GMT-0500 (Central Daylight Time),376818.90000003576,176_o_m_n_a.png,O,z,950,2,1,1952.0,374866.90000003576,7139,NNB,B,1
2,test,5,0.0,1-Back,1,m,Fri May 09 2025 08:22:08 GMT-0500 (Central Daylight Time),378767.40000003576,152_y_f_n_a.png,O,m,910,3,1,1933.5,376833.90000003576,7139,NNB,B,2
3,test,5,0.0,1-Back,1,m,Fri May 09 2025 08:22:08 GMT-0500 (Central Daylight Time),380667.40000003576,153_y_m_n_a.png,O,m,868,4,1,1884.300000011921,378783.10000002384,7139,NNB,B,3
3,test,5,0.0,1-Back,0,m,Fri May 09 2025 08:22:08 GMT-0500 (Central Daylight Time),382564.6999999881,152_y_f_n_a.png,O,z,854,5,1,1880.2999999523163,380684.40000003576,7139,NNB,B,4
4,test,5,0.0,1-Back,1,m,Fri May 09 2025 08:22:08 GMT-0500 (Central Daylight Time),384615.0,126_m_m_n_a.png,O,m,1019,6,1,2033.3999999761581,382581.60000002384,7139,NNB,B,5
5,test,5,1.0,1-Back,1,z,Fri May 09 2025 08:22:08 GMT-0500 (Central Daylight Time),386547.6999999881,126_m_m_n_a.png,O,z,889,7,1,1915.8999999761581,384631.8000000119,7139,NNB,B,6
6,test,5,0.0,1-Back,1,m,Fri May 09 2025 08:22:08 GMT-0500 (Central Daylight Time),388380.10000002384,173_y_f_n_a.png,O,m,804,8,1,1817.6000000238419,386562.5,7139,NNB,B,7
7,test,5,0.0,1-Back,1,m,Fri May 09 2025 08:22:08 GMT-0500 (Central Daylight Time),390463.60000002384,013_y_m_n_a.png,O,m,1062,9,1,2068.800000011921,388394.8000000119,7139,NNB,B,8
8,test,5,0.0,1-Back,1,m,Fri May 09 2025 08:22:08 GMT-0500 (Central Daylight Time),392813.3000000119,173_y_f_n_a.png,O,m,1304,10,1,2333.199999988079,390480.10000002384,7139,NNB,B,9
9,test,5,0.0,1-Back,1,m,Fri May 09 2025 08:22:08 GMT-0500 (Central Daylight Time),394964.10000002384,086_o_f_n_a.png,O,m,1134,11,1,2136.300000011921,392827.8000000119,7139,NNB,B,10
10,test,5,1.0,1-Back,1,z,Fri May 09 2025 08:22:08 GMT-0500 (Central Daylight Time),396795.10000002384,086_o_f_n_a.png,O,z,782,12,1,1814.800000011921,394980.3000000119,7139,NNB,B,11
11,test,5,0.0,1-Back,1,m,Fri May 09 2025 08:22:08 GMT-0500 (Central Daylight Time),398743.8000000119,065_o_m_n_a.png,O,m,917,13,1,1935.3999999761581,396808.40000003576,7139,NNB,B,12
12,test,5,0.0,1-Back,1,m,Fri May 09 2025 08:22:08 GMT-0500 (Central Daylight Time),400993.10000002384,097_m_f_n_a.png,O,m,1225,14,1,2235.600000023842,398757.5,7139,NNB,B,13
13,test,5,1.0,1-Back,1,z,Fri May 09 2025 08:22:08 GMT-0500 (Central Daylight Time),403075.3000000119,097_m_f_n_a.png,O,z,1040,15,1,2065.699999988079,401009.60000002384,7139,NNB,B,14
14,test,5,0.0,1-Back,1,m,Fri May 09 2025 08:22:08 GMT-0500 (Central Daylight Time),405158.10000002384,065_o_m_n_a.png,O,m,1038,16,1,2065.100000023842,403093.0,7139,NNB,B,15
15,test,5,0.0,1-Back,1,m,Fri May 09 2025 08:22:08 GMT-0500 (Central Daylight Time),407023.6999999881,029_m_f_n_a.png,O,m,832,17,1,1851.5,405172.1999999881,7139,NNB,B,16
16,test,5,0.0,1-Back,1,m,Fri May 09 2025 08:22:08 GMT-0500 (Central Daylight Time),409258.0,178_m_m_n_a.png,O,m,1200,18,1,2217.099999964237,407040.90000003576,7139,NNB,B,17
0,prac,1,0.0,2-Back,,,Fri May 09 2025 08:22:08 GMT-0500 (Central Daylight Time),409258.0,013_y_m_n_a.png,O,space,14039,1,1,2217.099999964237,407040.90000003576,7139,NNB,B,0
0,prac,1,0.0,2-Back,,,Fri May 09 2025 08:22:08 GMT-0500 (Central Daylight Time),409258.0,029_m_f_n_a.png,O,space,14039,2,1,2217.099999964237,407040.90000003576,7139,NNB,B,0
1,prac,1,1.0,2-Back,1,m,Fri May 09 2025 08:22:08 GMT-0500 (Central Daylight Time),552861.6999999881,065_o_m_n_a.png,O,m,1047,3,1,1921.8999999761581,550939.8000000119,7139,NNB,B,1
2,prac,1,0.0,2-Back,1,m,Fri May 09 2025 08:22:08 GMT-0500 (Central Daylight Time),554928.0,086_o_f_n_a.png,O,m,1171,4,1,2048.099999964237,552879.9000000358,7139,NNB,B,2
3,prac,1,0.0,2-Back,1,z,Fri May 09 2025 08:22:08 GMT-0500 (Central Daylight Time),557061.1999999881,065_o_m_n_a.png,O,z,1344,5,1,2115.5,554945.6999999881,7139,NNB,B,3
4,prac,1,1.0,2-Back,1,z,Fri May 09 2025 08:22:08 GMT-0500 (Central Daylight Time),559606.9000000358,086_o_f_n_a.png,O,z,1764,6,1,2528.2000000476837,557078.6999999881,7139,NNB,B,4
5,prac,1,0.0,2-Back,1,m,Fri May 09 2025 08:22:08 GMT-0500 (Central Daylight Time),561508.0,178_m_m_n_a.png,O,m,1010,7,1,1886.699999988079,559621.3000000119,7139,NNB,B,5
6,prac,1,0.0,2-Back,1,m,Fri May 09 2025 08:22:08 GMT-0500 (Central Daylight Time),563675.1000000238,176_o_m_n_a.png,O,m,1290,8,1,2147.900000035763,561527.1999999881,7139,NNB,B,6
7,prac,1,0.0,2-Back,1,m,Fri May 09 2025 08:22:08 GMT-0500 (Central Daylight Time),566139.9000000358,173_y_f_n_a.png,O,m,1589,9,1,2446.0,563693.9000000358,7139,NNB,B,7
8,prac,1,1.0,2-Back,1,z,Fri May 09 2025 08:22:08 GMT-0500 (Central Daylight Time),568256.6000000238,176_o_m_n_a.png,O,z,1331,10,1,2098.199999988079,566158.4000000358,7139,NNB,B,8
9,prac,1,0.0,2-Back,1,m,Fri May 09 2025 08:22:08 GMT-0500 (Central Daylight Time),570439.9000000358,152_y_f_n_a.png,O,m,1302,11,1,2165.400000035763,568274.5,7139,NNB,B,9
9,prac,1,0.0,2-Back,0,m,Fri May 09 2025 08:22:08 GMT-0500 (Central Daylight Time),573237.4000000358,178_m_m_n_a.png,O,None,2015,12,1,2781.0,570456.4000000358,7139,NNB,B,10
0,test,1,0.0,2-Back,,,Fri May 09 2025 08:22:08 GMT-0500 (Central Daylight Time),573237.4000000358,153_y_m_n_a.png,O,space,13411,1,1,2781.0,570456.4000000358,7139,NNB,B,0
0,test,1,0.0,2-Back,,,Fri May 09 2025 08:22:08 GMT-0500 (Central Daylight Time),573237.4000000358,153_y_m_n_a.png,O,space,13411,2,1,2781.0,570456.4000000358,7139,NNB,B,0
1,test,1,0.0,2-Back,1,m,Fri May 09 2025 08:22:08 GMT-0500 (Central Daylight Time),604780.1000000238,086_o_f_n_a.png,O,m,1632,3,1,2636.800000011921,602143.3000000119,7139,NNB,B,1
2,test,1,0.0,2-Back,1,m,Fri May 09 2025 08:22:08 GMT-0500 (Central Daylight Time),607244.8000000119,126_m_m_n_a.png,O,m,1433,4,1,2450.100000023842,604794.6999999881,7139,NNB,B,2
3,test,1,1.0,2-Back,1,z,Fri May 09 2025 08:22:08 GMT-0500 (Central Daylight Time),609410.6000000238,086_o_f_n_a.png,O,z,1125,5,1,2148.699999988079,607261.9000000358,7139,NNB,B,3
4,test,1,0.0,2-Back,1,m,Fri May 09 2025 08:22:08 GMT-0500 (Central Daylight Time),611725.1999999881,152_y_f_n_a.png,O,m,1294,6,1,2299.2999999523163,609425.9000000358,7139,NNB,B,4
4,test,1,0.0,2-Back,0,m,Fri May 09 2025 08:22:08 GMT-0500 (Central Daylight Time),614109.5,126_m_m_n_a.png,O,z,1363,7,1,2368.399999976158,611741.1000000238,7139,NNB,B,5
5,test,1,1.0,2-Back,1,z,Fri May 09 2025 08:22:08 GMT-0500 (Central Daylight Time),616858.4000000358,152_y_f_n_a.png,O,z,1698,8,1,2733.800000011921,614124.6000000238,7139,NNB,B,6
6,test,1,0.0,2-Back,1,m,Fri May 09 2025 08:22:08 GMT-0500 (Central Daylight Time),619357.4000000358,013_y_m_n_a.png,O,m,1466,9,1,2484.900000035763,616872.5,7139,NNB,B,7
7,test,1,0.0,2-Back,1,m,Fri May 09 2025 08:22:08 GMT-0500 (Central Daylight Time),622039.4000000358,110_o_f_n_a.png,O,m,1636,10,1,2664.7000000476837,619374.6999999881,7139,NNB,B,8
7,test,1,1.0,2-Back,0,z,Fri May 09 2025 08:22:08 GMT-0500 (Central Daylight Time),624805.3000000119,013_y_m_n_a.png,O,m,1733,11,1,2749.199999988079,622056.1000000238,7139,NNB,B,9
8,test,1,0.0,2-Back,1,m,Fri May 09 2025 08:22:08 GMT-0500 (Central Daylight Time),627837.1000000238,029_m_f_n_a.png,O,m,1981,12,1,3015.300000011921,624821.8000000119,7139,NNB,B,10
8,test,1,0.0,2-Back,0,m,Fri May 09 2025 08:22:08 GMT-0500 (Central Daylight Time),630886.8000000119,029_m_f_n_a.png,O,None,2017,13,1,3032.5,627854.3000000119,7139,NNB,B,11
9,test,1,0.0,2-Back,1,m,Fri May 09 2025 08:22:08 GMT-0500 (Central Daylight Time),633386.3000000119,065_o_m_n_a.png,O,m,1474,14,1,2485.899999976158,630900.4000000358,7139,NNB,B,12
9,test,1,0.0,2-Back,0,m,Fri May 09 2025 08:22:08 GMT-0500 (Central Daylight Time),635735.8000000119,110_o_f_n_a.png,O,z,1318,15,1,2335.399999976158,633400.4000000358,7139,NNB,B,13
9,test,1,1.0,2-Back,0,z,Fri May 09 2025 08:22:08 GMT-0500 (Central Daylight Time),638768.6000000238,065_o_m_n_a.png,O,None,2016,16,1,3017.300000011921,635751.3000000119,7139,NNB,B,14
10,test,1,0.0,2-Back,1,m,Fri May 09 2025 08:22:08 GMT-0500 (Central Daylight Time),640868.5,097_m_f_n_a.png,O,m,1066,17,1,2084.5,638784.0,7139,NNB,B,15
11,test,1,0.0,2-Back,1,m,Fri May 09 2025 08:22:08 GMT-0500 (Central Daylight Time),643649.8000000119,178_m_m_n_a.png,O,m,1735,18,1,2763.699999988079,640886.1000000238,7139,NNB,B,16
0,test,2,0.0,2-Back,,,Fri May 09 2025 08:22:08 GMT-0500 (Central Daylight Time),643649.8000000119,178_m_m_n_a.png,O,space,6512,1,1,2763.699999988079,640886.1000000238,7139,NNB,B,0
0,test,2,0.0,2-Back,,,Fri May 09 2025 08:22:08 GMT-0500 (Central Daylight Time),643649.8000000119,173_y_f_n_a.png,O,space,6512,2,1,2763.699999988079,640886.1000000238,7139,NNB,B,0
1,test,2,1.0,2-Back,1,z,Fri May 09 2025 08:22:08 GMT-0500 (Central Daylight Time),657411.6000000238,178_m_m_n_a.png,O,z,1072,3,1,2098.600000023842,655313.0,7139,NNB,B,1
2,test,2,0.0,2-Back,1,m,Fri May 09 2025 08:22:08 GMT-0500 (Central Daylight Time),659561.6000000238,097_m_f_n_a.png,O,m,1107,4,1,2134.0,657427.6000000238,7139,NNB,B,2
2,test,2,0.0,2-Back,0,m,Fri May 09 2025 08:22:08 GMT-0500 (Central Daylight Time),662026.8000000119,173_y_f_n_a.png,O,z,1439,5,1,2449.399999976158,659577.4000000358,7139,NNB,B,3
3,test,2,0.0,2-Back,1,m,Fri May 09 2025 08:22:08 GMT-0500 (Central Daylight Time),664108.6000000238,065_o_m_n_a.png,O,m,1044,6,1,2066.0,662042.6000000238,7139,NNB,B,4
4,test,2,0.0,2-Back,1,m,Fri May 09 2025 08:22:08 GMT-0500 (Central Daylight Time),666991.1000000238,152_y_f_n_a.png,O,m,1850,7,1,2867.199999988079,664123.9000000358,7139,NNB,B,5
5,test,2,1.0,2-Back,1,z,Fri May 09 2025 08:22:08 GMT-0500 (Central Daylight Time),668821.5,065_o_m_n_a.png,O,z,795,8,1,1813.5,667008.0,7139,NNB,B,6
6,test,2,0.0,2-Back,1,m,Fri May 09 2025 08:22:08 GMT-0500 (Central Daylight Time),671240.1000000238,013_y_m_n_a.png,O,m,1392,9,1,2407.5,668832.6000000238,7139,NNB,B,7
6,test,2,0.0,2-Back,0,m,Fri May 09 2025 08:22:08 GMT-0500 (Central Daylight Time),674272.6999999881,013_y_m_n_a.png,O,None,2015,10,1,3017.699999988079,671255.0,7139,NNB,B,8
6,test,2,0.0,2-Back,0,m,Fri May 09 2025 08:22:08 GMT-0500 (Central Daylight Time),677303.8000000119,029_m_f_n_a.png,O,None,2013,11,1,3016.0,674287.8000000119,7139,NNB,B,9
6,test,2,0.0,2-Back,0,m,Fri May 09 2025 08:22:08 GMT-0500 (Central Daylight Time),679938.3000000119,173_y_f_n_a.png,O,z,1599,12,1,2618.5,677319.8000000119,7139,NNB,B,10
7,test,2,1.0,2-Back,1,z,Fri May 09 2025 08:22:08 GMT-0500 (Central Daylight Time),682686.5,029_m_f_n_a.png,O,z,1703,13,1,2732.800000011921,679953.6999999881,7139,NNB,B,11
8,test,2,0.0,2-Back,1,m,Fri May 09 2025 08:22:08 GMT-0500 (Central Daylight Time),684603.5,176_o_m_n_a.png,O,m,899,14,1,1902.3999999761581,682701.1000000238,7139,NNB,B,12
9,test,2,0.0,2-Back,1,m,Fri May 09 2025 08:22:08 GMT-0500 (Central Daylight Time),687551.1000000238,176_o_m_n_a.png,O,m,1910,15,1,2930.400000035763,684620.6999999881,7139,NNB,B,13
10,test,2,0.0,2-Back,1,m,Fri May 09 2025 08:22:08 GMT-0500 (Central Daylight Time),690251.3000000119,110_o_f_n_a.png,O,m,1667,16,1,2685.5,687565.8000000119,7139,NNB,B,14
11,test,2,0.0,2-Back,1,m,Fri May 09 2025 08:22:08 GMT-0500 (Central Daylight Time),692666.3000000119,126_m_m_n_a.png,O,m,1373,17,1,2398.800000011921,690267.5,7139,NNB,B,15
12,test,2,1.0,2-Back,1,z,Fri May 09 2025 08:22:08 GMT-0500 (Central Daylight Time),694817.8000000119,110_o_f_n_a.png,O,z,1133,18,1,2135.600000023842,692682.1999999881,7139,NNB,B,16
0,test,3,1.0,2-Back,,,Fri May 09 2025 08:22:08 GMT-0500 (Central Daylight Time),694817.8000000119,153_y_m_n_a.png,O,space,5096,1,1,2135.600000023842,692682.1999999881,7139,NNB,B,0
0,test,3,1.0,2-Back,,,Fri May 09 2025 08:22:08 GMT-0500 (Central Daylight Time),694817.8000000119,153_y_m_n_a.png,O,space,5096,2,1,2135.600000023842,692682.1999999881,7139,NNB,B,0
1,test,3,0.0,2-Back,1,m,Fri May 09 2025 08:22:08 GMT-0500 (Central Daylight Time),707428.1000000238,110_o_f_n_a.png,O,m,1338,3,1,2351.0,705077.1000000238,7139,NNB,B,1
2,test,3,0.0,2-Back,1,m,Fri May 09 2025 08:22:08 GMT-0500 (Central Daylight Time),709895.1000000238,178_m_m_n_a.png,O,m,1419,4,1,2450.600000023842,707444.5,7139,NNB,B,2
3,test,3,1.0,2-Back,1,z,Fri May 09 2025 08:22:08 GMT-0500 (Central Daylight Time),711944.3000000119,110_o_f_n_a.png,O,z,1009,5,1,2032.6000000238419,709911.6999999881,7139,NNB,B,3
4,test,3,0.0,2-Back,1,m,Fri May 09 2025 08:22:08 GMT-0500 (Central Daylight Time),714408.3000000119,013_y_m_n_a.png,O,m,1441,6,1,2449.300000011921,711959.0,7139,NNB,B,4
4,test,3,0.0,2-Back,0,m,Fri May 09 2025 08:22:08 GMT-0500 (Central Daylight Time),716342.1999999881,178_m_m_n_a.png,O,z,910,7,1,1922.7999999523163,714419.4000000358,7139,NNB,B,5
4,test,3,1.0,2-Back,0,z,Fri May 09 2025 08:22:08 GMT-0500 (Central Daylight Time),719374.8000000119,013_y_m_n_a.png,O,None,2015,8,1,3017.300000011921,716357.5,7139,NNB,B,6
5,test,3,0.0,2-Back,1,m,Fri May 09 2025 08:22:08 GMT-0500 (Central Daylight Time),721875.1999999881,173_y_f_n_a.png,O,m,1449,9,1,2484.0,719391.1999999881,7139,NNB,B,7
6,test,3,0.0,2-Back,1,m,Fri May 09 2025 08:22:08 GMT-0500 (Central Daylight Time),724656.5,126_m_m_n_a.png,O,m,1734,10,1,2764.899999976158,721891.6000000238,7139,NNB,B,8
7,test,3,1.0,2-Back,1,z,Fri May 09 2025 08:22:08 GMT-0500 (Central Daylight Time),726671.3000000119,173_y_f_n_a.png,O,z,982,11,1,1999.3999999761581,724671.9000000358,7139,NNB,B,9
8,test,3,1.0,2-Back,1,z,Fri May 09 2025 08:22:08 GMT-0500 (Central Daylight Time),728837.0,126_m_m_n_a.png,O,z,1144,12,1,2150.399999976158,726686.6000000238,7139,NNB,B,10
9,test,3,0.0,2-Back,1,m,Fri May 09 2025 08:22:08 GMT-0500 (Central Daylight Time),731002.5,110_o_f_n_a.png,O,m,1137,13,1,2151.300000011921,728851.1999999881,7139,NNB,B,11
10,test,3,0.0,2-Back,1,m,Fri May 09 2025 08:22:08 GMT-0500 (Central Daylight Time),733336.9000000358,097_m_f_n_a.png,O,m,1307,14,1,2323.300000011921,731013.6000000238,7139,NNB,B,12
11,test,3,0.0,2-Back,1,m,Fri May 09 2025 08:22:08 GMT-0500 (Central Daylight Time),735771.1999999881,065_o_m_n_a.png,O,m,1401,15,1,2416.7999999523163,733354.4000000358,7139,NNB,B,13
12,test,3,1.0,2-Back,1,z,Fri May 09 2025 08:22:08 GMT-0500 (Central Daylight Time),738136.6000000238,097_m_f_n_a.png,O,z,1319,16,1,2349.300000011921,735787.3000000119,7139,NNB,B,14
13,test,3,0.0,2-Back,1,m,Fri May 09 2025 08:22:08 GMT-0500 (Central Daylight Time),740867.1000000238,086_o_f_n_a.png,O,m,1704,17,1,2715.300000011921,738151.8000000119,7139,NNB,B,15
13,test,3,0.0,2-Back,0,m,Fri May 09 2025 08:22:08 GMT-0500 (Central Daylight Time),743917.6000000238,086_o_f_n_a.png,O,None,2015,18,1,3033.900000035763,740883.6999999881,7139,NNB,B,16
0,test,4,0.0,2-Back,,,Fri May 09 2025 08:22:08 GMT-0500 (Central Daylight Time),743917.6000000238,176_o_m_n_a.png,O,space,6100,1,1,3033.900000035763,740883.6999999881,7139,NNB,B,0
0,test,4,0.0,2-Back,,,Fri May 09 2025 08:22:08 GMT-0500 (Central Daylight Time),743917.6000000238,152_y_f_n_a.png,O,space,6100,2,1,3033.900000035763,740883.6999999881,7139,NNB,B,0
1,test,4,1.0,2-Back,1,z,Fri May 09 2025 08:22:08 GMT-0500 (Central Daylight Time),757878.8000000119,176_o_m_n_a.png,O,z,1575,3,1,2598.899999976158,755279.9000000358,7139,NNB,B,1
2,test,4,1.0,2-Back,1,z,Fri May 09 2025 08:22:08 GMT-0500 (Central Daylight Time),760461.4000000358,152_y_f_n_a.png,O,z,1545,4,1,2565.800000011921,757895.6000000238,7139,NNB,B,2
3,test,4,0.0,2-Back,1,m,Fri May 09 2025 08:22:08 GMT-0500 (Central Daylight Time),762644.0,110_o_f_n_a.png,O,m,1152,5,1,2165.699999988079,760478.3000000119,7139,NNB,B,3
3,test,4,0.0,2-Back,0,m,Fri May 09 2025 08:22:08 GMT-0500 (Central Daylight Time),765676.6000000238,110_o_f_n_a.png,O,None,2014,6,1,3016.800000011921,762659.8000000119,7139,NNB,B,4
4,test,4,0.0,2-Back,1,m,Fri May 09 2025 08:22:08 GMT-0500 (Central Daylight Time),767809.1999999881,029_m_f_n_a.png,O,m,1108,7,1,2119.899999976158,765689.3000000119,7139,NNB,B,5
5,test,4,0.0,2-Back,1,m,Fri May 09 2025 08:22:08 GMT-0500 (Central Daylight Time),770209.4000000358,013_y_m_n_a.png,O,m,1360,8,1,2382.600000023842,767826.8000000119,7139,NNB,B,6
6,test,4,1.0,2-Back,1,z,Fri May 09 2025 08:22:08 GMT-0500 (Central Daylight Time),772107.6000000238,029_m_f_n_a.png,O,z,869,9,1,1881.800000011921,770225.8000000119,7139,NNB,B,7
7,test,4,0.0,2-Back,1,m,Fri May 09 2025 08:22:08 GMT-0500 (Central Daylight Time),774340.8000000119,126_m_m_n_a.png,O,m,1214,10,1,2217.300000011921,772123.5,7139,NNB,B,8
8,test,4,0.0,2-Back,1,m,Fri May 09 2025 08:22:08 GMT-0500 (Central Daylight Time),776889.5,013_y_m_n_a.png,O,m,1508,11,1,2530.399999976158,774359.1000000238,7139,NNB,B,9
9,test,4,0.0,2-Back,1,m,Fri May 09 2025 08:22:08 GMT-0500 (Central Daylight Time),779422.6000000238,086_o_f_n_a.png,O,m,1509,12,1,2520.0,776902.6000000238,7139,NNB,B,10
10,test,4,0.0,2-Back,1,m,Fri May 09 2025 08:22:08 GMT-0500 (Central Daylight Time),781955.8000000119,153_y_m_n_a.png,O,m,1499,13,1,2516.800000011921,779439.0,7139,NNB,B,11
11,test,4,1.0,2-Back,1,z,Fri May 09 2025 08:22:08 GMT-0500 (Central Daylight Time),783836.9000000358,086_o_f_n_a.png,O,z,837,14,1,1864.0,781972.9000000358,7139,NNB,B,12
12,test,4,1.0,2-Back,1,z,Fri May 09 2025 08:22:08 GMT-0500 (Central Daylight Time),786636.6999999881,153_y_m_n_a.png,O,z,1755,15,1,2781.5,783855.1999999881,7139,NNB,B,13
13,test,4,0.0,2-Back,1,m,Fri May 09 2025 08:22:08 GMT-0500 (Central Daylight Time),788852.3000000119,178_m_m_n_a.png,O,m,1188,16,1,2200.5,786651.8000000119,7139,NNB,B,14
14,test,4,0.0,2-Back,1,m,Fri May 09 2025 08:22:08 GMT-0500 (Central Daylight Time),791285.3000000119,097_m_f_n_a.png,O,m,1405,17,1,2418.800000011921,788866.5,7139,NNB,B,15
15,test,4,1.0,2-Back,1,z,Fri May 09 2025 08:22:08 GMT-0500 (Central Daylight Time),793084.0,178_m_m_n_a.png,O,z,755,18,1,1782.0999999642372,791301.9000000358,7139,NNB,B,16
0,test,5,1.0,2-Back,,,Fri May 09 2025 08:22:08 GMT-0500 (Central Daylight Time),793084.0,153_y_m_n_a.png,O,space,4348,1,1,1782.0999999642372,791301.9000000358,7139,NNB,B,0
0,test,5,1.0,2-Back,,,Fri May 09 2025 08:22:08 GMT-0500 (Central Daylight Time),793084.0,097_m_f_n_a.png,O,space,4348,2,1,1782.0999999642372,791301.9000000358,7139,NNB,B,0
1,test,5,1.0,2-Back,1,z,Fri May 09 2025 08:22:08 GMT-0500 (Central Daylight Time),804614.1000000238,153_y_m_n_a.png,O,z,1077,3,1,2100.400000035763,802513.6999999881,7139,NNB,B,1
2,test,5,1.0,2-Back,1,z,Fri May 09 2025 08:22:08 GMT-0500 (Central Daylight Time),806580.3000000119,097_m_f_n_a.png,O,z,921,4,1,1948.699999988079,804631.6000000238,7139,NNB,B,2
3,test,5,0.0,2-Back,1,m,Fri May 09 2025 08:22:08 GMT-0500 (Central Daylight Time),808562.4000000358,086_o_f_n_a.png,O,m,957,5,1,1966.800000011921,806595.6000000238,7139,NNB,B,3
4,test,5,0.0,2-Back,1,m,Fri May 09 2025 08:22:08 GMT-0500 (Central Daylight Time),811263.9000000358,153_y_m_n_a.png,O,m,1653,6,1,2684.600000023842,808579.3000000119,7139,NNB,B,4
5,test,5,0.0,2-Back,1,m,Fri May 09 2025 08:22:08 GMT-0500 (Central Daylight Time),813595.6000000238,173_y_f_n_a.png,O,m,1299,7,1,2313.600000023842,811282.0,7139,NNB,B,5
5,test,5,0.0,2-Back,0,m,Fri May 09 2025 08:22:08 GMT-0500 (Central Daylight Time),815993.9000000358,086_o_f_n_a.png,O,z,1358,8,1,2381.5,813612.4000000358,7139,NNB,B,6
6,test,5,1.0,2-Back,1,z,Fri May 09 2025 08:22:08 GMT-0500 (Central Daylight Time),818496.4000000358,173_y_f_n_a.png,O,z,1469,9,1,2487.400000035763,816009.0,7139,NNB,B,7
7,test,5,0.0,2-Back,1,m,Fri May 09 2025 08:22:08 GMT-0500 (Central Daylight Time),820592.3000000119,065_o_m_n_a.png,O,m,1067,10,1,2085.100000023842,818507.1999999881,7139,NNB,B,8
8,test,5,0.0,2-Back,1,m,Fri May 09 2025 08:22:08 GMT-0500 (Central Daylight Time),823257.1999999881,029_m_f_n_a.png,O,m,1622,11,1,2647.599999964237,820609.6000000238,7139,NNB,B,9
9,test,5,0.0,2-Back,1,m,Fri May 09 2025 08:22:08 GMT-0500 (Central Daylight Time),825624.1999999881,126_m_m_n_a.png,O,m,1317,12,1,2348.2999999523163,823275.9000000358,7139,NNB,B,10
9,test,5,0.0,2-Back,0,m,Fri May 09 2025 08:22:08 GMT-0500 (Central Daylight Time),827873.9000000358,065_o_m_n_a.png,O,z,1216,13,1,2231.800000011921,825642.1000000238,7139,NNB,B,11
9,test,5,1.0,2-Back,0,z,Fri May 09 2025 08:22:08 GMT-0500 (Central Daylight Time),829957.4000000358,126_m_m_n_a.png,O,m,1050,14,1,2066.900000035763,827890.5,7139,NNB,B,12
10,test,5,0.0,2-Back,1,m,Fri May 09 2025 08:22:08 GMT-0500 (Central Daylight Time),832974.0,152_y_f_n_a.png,O,m,1983,15,1,3001.399999976158,829972.6000000238,7139,NNB,B,13
11,test,5,0.0,2-Back,1,m,Fri May 09 2025 08:22:08 GMT-0500 (Central Daylight Time),835237.3000000119,176_o_m_n_a.png,O,m,1220,16,1,2249.100000023842,832988.1999999881,7139,NNB,B,14
12,test,5,0.0,2-Back,1,m,Fri May 09 2025 08:22:08 GMT-0500 (Central Daylight Time),837803.4000000358,029_m_f_n_a.png,O,m,1523,17,1,2548.0,835255.4000000358,7139,NNB,B,15
13,test,5,1.0,2-Back,1,z,Fri May 09 2025 08:22:08 GMT-0500 (Central Daylight Time),839819.9000000358,176_o_m_n_a.png,O,z,974,18,1,1999.5,837820.4000000358,7139,NNB,B,16
