acc_sum,block,block_c,condition,correct,correct_response,datetime,endtime,flanker,jitter,project,response,response_test_buffer_response,response_test_target_response,response_time,response_time_test_buffer_response,response_time_test_target_response,row_sel,session_number,start_end,starttime,subject_id,target,task,task_vers,time_test_buffer,time_test_buffer_response,time_test_constants,time_test_flanker,time_test_jitter,time_test_logger,time_test_target,time_test_target_response,time_test_variables,trial
1,prac,1,con,1,z,Tue Oct 28 2025 13:53:59 GMT-0500 (Central Daylight Time),83144.5,elated,800,I,z,,,574,,,9,3,2677.9000000003725,80466.59999999963,8047,elated,AF,C,,,,,,,,,,1
2,prac,1,con,1,z,Tue Oct 28 2025 13:53:59 GMT-0500 (Central Daylight Time),85960.19999999925,love,1000,I,z,,,507,,,11,3,2809.199999999255,83151.0,8047,love,AF,C,,,,,,,,,,2
3,prac,1,con,1,m,Tue Oct 28 2025 13:53:59 GMT-0500 (Central Daylight Time),88492.80000000075,step,800,I,m,,,428,,,1,3,2527.7000000011176,85965.09999999963,8047,step,AF,C,,,,,,,,,,3
4,prac,1,con,1,m,Tue Oct 28 2025 13:53:59 GMT-0500 (Central Daylight Time),90992.0,jacket,800,I,m,,,398,,,5,3,2494.9000000003725,88497.09999999963,8047,jacket,AF,C,,,,,,,,,,4
5,prac,1,inc,1,z,Tue Oct 28 2025 13:53:59 GMT-0500 (Central Daylight Time),94007.80000000075,napkin,1100,I,z,,,608,,,12,3,3010.9000000003725,90996.90000000037,8047,friend,AF,C,,,,,,,,,,5
6,prac,1,inc,1,m,Tue Oct 28 2025 13:53:59 GMT-0500 (Central Daylight Time),96990.09999999963,hate,1100,I,m,,,576,,,4,3,2978.0,94012.09999999963,8047,film,AF,C,,,,,,,,,,6
7,prac,1,con,1,m,Tue Oct 28 2025 13:53:59 GMT-0500 (Central Daylight Time),99805.90000000037,bell,1000,I,m,,,510,,,3,3,2810.800000000745,96995.09999999963,8047,bell,AF,C,,,,,,,,,,7
8,prac,1,inc,1,z,Tue Oct 28 2025 13:53:59 GMT-0500 (Central Daylight Time),102554.90000000037,film,900,I,z,,,538,,,14,3,2744.9000000003725,99810.0,8047,hate,AF,C,,,,,,,,,,8
9,prac,1,con,1,z,Tue Oct 28 2025 13:53:59 GMT-0500 (Central Daylight Time),105120.5,brutal,800,I,z,,,465,,,13,3,2560.9000000003725,102559.59999999963,8047,brutal,AF,C,,,,,,,,,,9
10,prac,1,inc,1,m,Tue Oct 28 2025 13:53:59 GMT-0500 (Central Daylight Time),107836.30000000075,elated,900,I,m,,,502,,,6,3,2710.60000000149,105125.69999999925,8047,napkin,AF,C,,,,,,,,,,10
11,prac,1,con,1,z,Tue Oct 28 2025 13:53:59 GMT-0500 (Central Daylight Time),110685.90000000037,rage,1000,I,z,,,534,,,15,3,2844.4000000003725,107841.5,8047,rage,AF,C,,,,,,,,,,11
12,prac,1,inc,1,m,Tue Oct 28 2025 13:53:59 GMT-0500 (Central Daylight Time),113668.09999999963,brutal,1100,I,m,,,569,,,8,3,2977.5999999996275,110690.5,8047,window,AF,C,,,,,,,,,,12
13,prac,1,con,1,m,Tue Oct 28 2025 13:53:59 GMT-0500 (Central Daylight Time),116733.80000000075,remote,1000,I,m,,,752,,,7,3,3061.5,113672.30000000075,8047,remote,AF,C,,,,,,,,,,13
14,prac,1,inc,1,z,Tue Oct 28 2025 13:53:59 GMT-0500 (Central Daylight Time),119549.69999999925,rock,900,I,z,,,601,,,10,3,2812.199999999255,116737.5,8047,kind,AF,C,,,,,,,,,,14
15,prac,1,inc,1,m,Tue Oct 28 2025 13:53:59 GMT-0500 (Central Daylight Time),122298.80000000075,kind,900,I,m,,,545,,,2,3,2744.60000000149,119554.19999999925,8047,rock,AF,C,,,,,,,,,,15
16,prac,1,inc,1,z,Tue Oct 28 2025 13:53:59 GMT-0500 (Central Daylight Time),125331.09999999963,window,1100,I,z,,,628,,,16,3,3028.5,122302.59999999963,8047,temper,AF,C,,,,,,,,,,16
1,test,1,con,1,z,Tue Oct 28 2025 13:53:59 GMT-0500 (Central Daylight Time),134595.0,brutal,1100,I,z,z,None,448,248.0,200.0,36,3,2079.5,132515.5,8047,brutal,AF,C,132582,132582,130753,131866,130753,132832,132382,132382,132832,1
2,test,1,con,1,z,Tue Oct 28 2025 13:53:59 GMT-0500 (Central Daylight Time),136527.69999999925,kind,800,I,z,z,None,585,385.0,200.0,9,3,1928.199999999255,134599.5,8047,kind,AF,C,134365,134365,132837,133649,132837,134765,134165,134165,134765,2
3,test,1,inc,1,z,Tue Oct 28 2025 13:53:59 GMT-0500 (Central Daylight Time),138794.40000000037,film,1100,I,z,z,None,631,432.0,199.0,48,3,2262.7000000011176,136531.69999999925,8047,hate,AF,C,136598,136598,134769,135881,134769,137032,136398,136398,137031,3
4,test,1,inc,1,z,Tue Oct 28 2025 13:53:59 GMT-0500 (Central Daylight Time),140709.80000000075,step,800,I,z,z,None,577,378.0,199.0,13,3,1911.4000000003725,138798.40000000037,8047,kind,AF,C,138564,138564,137035,137847,137036,138947,138364,138364,138947,4
5,test,1,con,1,z,Tue Oct 28 2025 13:53:59 GMT-0500 (Central Daylight Time),142609.0,elated,900,I,z,z,None,465,266.0,199.0,2,3,1895.0999999996275,140713.90000000037,8047,elated,AF,C,140580,140580,138951,139863,138951,140846,140380,140380,140846,5
6,test,1,con,1,z,Tue Oct 28 2025 13:53:59 GMT-0500 (Central Daylight Time),144508.40000000037,friend,900,I,z,z,None,455,255.0,200.0,26,3,1895.300000000745,142613.09999999963,8047,friend,AF,C,142479,142479,140850,141763,140850,142745,142279,142279,142745,6
7,test,1,inc,1,z,Tue Oct 28 2025 13:53:59 GMT-0500 (Central Daylight Time),146407.90000000037,step,800,I,z,z,None,560,360.0,200.0,45,3,1895.0999999996275,144512.80000000075,8047,hate,AF,C,144278,144278,142750,143562,142750,144645,144078,144078,144645,7
8,test,1,inc,1,z,Tue Oct 28 2025 13:53:59 GMT-0500 (Central Daylight Time),148457.09999999963,napkin,900,I,z,z,None,607,408.0,199.0,62,3,2045.199999999255,146411.90000000037,8047,temper,AF,C,146278,146278,144649,145562,144649,146694,146079,146079,146694,8
9,test,1,inc,1,m,Tue Oct 28 2025 13:53:59 GMT-0500 (Central Daylight Time),150506.30000000075,love,1000,I,m,m,None,515,315.0,200.0,79,3,2045.0,148461.30000000075,8047,rock,AF,C,148427,148427,146698,147713,146699,148743,148227,148227,148743,9
10,test,1,con,1,z,Tue Oct 28 2025 13:53:59 GMT-0500 (Central Daylight Time),152539.19999999925,brutal,1000,I,z,z,None,497,297.0,200.0,35,3,2028.7999999988824,150510.40000000037,8047,brutal,AF,C,150477,150477,148747,149760,148748,150776,150276,150276,150776,10
11,test,1,con,1,z,Tue Oct 28 2025 13:53:59 GMT-0500 (Central Daylight Time),154505.30000000075,hate,1000,I,z,z,None,417,217.0,200.0,43,3,1961.7000000011176,152543.59999999963,8047,hate,AF,C,152509,152509,150781,151793,150781,152742,152309,152309,152742,11
12,test,1,con,1,z,Tue Oct 28 2025 13:53:59 GMT-0500 (Central Daylight Time),156554.40000000037,rage,1100,I,z,z,None,415,215.0,200.0,52,3,2045.0,154509.40000000037,8047,rage,AF,C,154575,154575,152746,153859,152747,154791,154375,154375,154791,12
13,test,1,con,1,m,Tue Oct 28 2025 13:53:59 GMT-0500 (Central Daylight Time),158654.0,bell,1000,I,m,m,None,561,361.0,200.0,83,3,2095.4000000003725,156558.59999999963,8047,bell,AF,C,156525,156525,154796,155808,154796,156891,156325,156325,156891,13
14,test,1,con,1,z,Tue Oct 28 2025 13:53:59 GMT-0500 (Central Daylight Time),160453.40000000037,hate,800,I,z,z,None,462,262.0,200.0,41,3,1795.5999999996275,158657.80000000075,8047,hate,AF,C,158424,158424,156895,157708,156895,158690,158224,158224,158690,14
15,test,1,con,1,z,Tue Oct 28 2025 13:53:59 GMT-0500 (Central Daylight Time),162602.80000000075,hate,1100,I,z,z,None,514,315.0,199.0,44,3,2145.10000000149,160457.69999999925,8047,hate,AF,C,160523,160523,158695,159807,158695,160840,160324,160324,160840,15
16,test,1,con,1,z,Tue Oct 28 2025 13:53:59 GMT-0500 (Central Daylight Time),164385.69999999925,brutal,800,I,z,z,None,440,241.0,199.0,33,3,1778.0999999996275,162607.59999999963,8047,brutal,AF,C,162373,162373,160845,161657,160845,162623,162173,162173,162623,16
17,test,1,inc,1,m,Tue Oct 28 2025 13:53:59 GMT-0500 (Central Daylight Time),166251.80000000075,rage,800,I,m,m,None,529,330.0,199.0,85,3,1862.1000000014901,164389.69999999925,8047,bell,AF,C,164156,164156,162627,163439,162627,164489,163956,163956,164489,17
18,test,1,inc,1,m,Tue Oct 28 2025 13:53:59 GMT-0500 (Central Daylight Time),168384.5,love,1000,I,m,m,None,583,384.0,199.0,95,3,2128.699999999255,166255.80000000075,8047,film,AF,C,166221,166222,164493,165505,164493,166622,166022,166022,166622,18
19,test,1,con,1,m,Tue Oct 28 2025 13:53:59 GMT-0500 (Central Daylight Time),170651.40000000037,step,1100,I,m,m,None,630,415.0,215.0,68,3,2262.5999999996275,168388.80000000075,8047,step,AF,C,168471,168471,166626,167738,166626,168888,168255,168256,168888,19
20,test,1,con,1,m,Tue Oct 28 2025 13:53:59 GMT-0500 (Central Daylight Time),172516.19999999925,bell,900,I,m,m,None,421,222.0,199.0,82,3,1860.7999999988824,170655.40000000037,8047,bell,AF,C,170520,170520,168892,169804,168893,170753,170321,170321,170753,20
21,test,1,con,1,m,Tue Oct 28 2025 13:53:59 GMT-0500 (Central Daylight Time),174582.19999999925,rock,1100,I,m,m,None,420,220.0,200.0,76,3,2062.0999999996275,172520.09999999963,8047,rock,AF,C,172586,172586,170757,171870,170757,172819,172386,172386,172819,21
22,test,1,inc,1,z,Tue Oct 28 2025 13:53:59 GMT-0500 (Central Daylight Time),176798.09999999963,remote,1000,I,z,z,None,677,478.0,199.0,63,3,2210.699999999255,174587.40000000037,8047,temper,AF,C,174552,174552,172824,173836,172825,175035,174353,174353,175035,22
23,test,1,con,1,z,Tue Oct 28 2025 13:53:59 GMT-0500 (Central Daylight Time),178780.80000000075,elated,1000,I,z,z,None,437,237.0,200.0,3,3,1977.0,176803.80000000075,8047,elated,AF,C,176769,176769,175041,176052,175041,177018,176568,176568,177018,23
24,test,1,inc,1,m,Tue Oct 28 2025 13:53:59 GMT-0500 (Central Daylight Time),180697.19999999925,elated,800,I,m,m,None,567,367.0,200.0,117,3,1911.8999999985099,178785.30000000075,8047,remote,AF,C,178551,178551,177022,177835,177023,178934,178351,178351,178934,24
25,test,1,con,1,m,Tue Oct 28 2025 13:53:59 GMT-0500 (Central Daylight Time),182479.59999999963,bell,800,I,m,m,None,443,243.0,200.0,81,3,1778.699999999255,180700.90000000037,8047,bell,AF,C,180467,180467,178938,179751,178938,180717,180267,180267,180717,25
26,test,1,inc,1,z,Tue Oct 28 2025 13:53:59 GMT-0500 (Central Daylight Time),184379.30000000075,jacket,800,I,z,z,None,564,364.0,200.0,61,3,1895.7000000011176,182483.59999999963,8047,temper,AF,C,182250,182250,180721,181534,180721,182616,182050,182050,182616,26
27,test,1,inc,1,m,Tue Oct 28 2025 13:53:59 GMT-0500 (Central Daylight Time),186378.19999999925,brutal,900,I,m,m,None,564,364.0,200.0,110,3,1994.7999999988824,184383.40000000037,8047,napkin,AF,C,184249,184249,182620,183533,182621,184615,184049,184049,184615,27
28,test,1,con,1,z,Tue Oct 28 2025 13:53:59 GMT-0500 (Central Daylight Time),188361.30000000075,temper,800,I,z,z,None,648,449.0,199.0,57,3,1978.9000000003725,186382.40000000037,8047,temper,AF,C,186148,186149,184619,185432,184620,186598,185949,185949,186598,28
29,test,1,con,1,m,Tue Oct 28 2025 13:53:59 GMT-0500 (Central Daylight Time),190177.30000000075,step,800,I,m,m,None,483,283.0,200.0,65,3,1812.5,188364.80000000075,8047,step,AF,C,188131,188131,186602,187415,186602,188414,187931,187931,188414,29
30,test,1,inc,1,m,Tue Oct 28 2025 13:53:59 GMT-0500 (Central Daylight Time),192077.0,elated,800,I,m,m,None,555,355.0,200.0,125,3,1896.0,190181.0,8047,window,AF,C,189947,189947,188418,189231,188418,190314,189747,189747,190314,30
31,test,1,con,1,z,Tue Oct 28 2025 13:53:59 GMT-0500 (Central Daylight Time),194142.90000000037,brutal,900,I,z,z,None,619,419.0,200.0,34,3,2062.0,192080.90000000037,8047,brutal,AF,C,191947,191947,190318,191230,190318,192380,191747,191747,192380,31
32,test,1,inc,1,z,Tue Oct 28 2025 13:53:59 GMT-0500 (Central Daylight Time),196242.0,bell,1000,I,z,z,None,557,357.0,200.0,47,3,2095.0999999996275,194146.90000000037,8047,hate,AF,C,194113,194113,192384,193397,192384,194479,193913,193913,194479,32
33,test,1,con,1,z,Tue Oct 28 2025 13:53:59 GMT-0500 (Central Daylight Time),198008.19999999925,love,800,I,z,z,None,426,226.0,200.0,17,3,1762.5,196245.69999999925,8047,love,AF,C,196012,196012,194483,195296,194483,196245,195812,195812,196245,33
34,test,1,con,1,z,Tue Oct 28 2025 13:53:59 GMT-0500 (Central Daylight Time),200107.80000000075,rage,1000,I,z,z,None,564,364.0,200.0,51,3,2095.60000000149,198012.19999999925,8047,rage,AF,C,197978,197978,196249,197262,196250,198345,197778,197778,198345,34
35,test,1,con,1,m,Tue Oct 28 2025 13:53:59 GMT-0500 (Central Daylight Time),202156.90000000037,jacket,1100,I,m,m,None,403,204.0,199.0,100,3,2045.5999999996275,200111.30000000075,8047,jacket,AF,C,200178,200178,198348,199461,198349,200394,199978,199978,200394,35
36,test,1,inc,1,m,Tue Oct 28 2025 13:53:59 GMT-0500 (Central Daylight Time),204106.30000000075,rage,800,I,m,m,None,615,415.0,200.0,93,3,1945.5,202160.80000000075,8047,film,AF,C,201927,201927,200398,201211,200398,202343,201727,201727,202343,36
37,test,1,con,1,m,Tue Oct 28 2025 13:53:59 GMT-0500 (Central Daylight Time),205872.5,rock,800,I,m,m,None,417,218.0,199.0,73,3,1762.4000000003725,204110.09999999963,8047,rock,AF,C,203876,203876,202347,203160,202347,204110,203677,203677,204109,37
38,test,1,con,1,m,Tue Oct 28 2025 13:53:59 GMT-0500 (Central Daylight Time),207622.0,film,800,I,m,m,None,410,211.0,199.0,89,3,1744.5,205877.5,8047,film,AF,C,205643,205643,204115,204926,204115,205859,205443,205443,205859,38
38,test,1,con,0,z,Tue Oct 28 2025 13:53:59 GMT-0500 (Central Daylight Time),209804.69999999925,friend,1100,I,m,m,None,546,346.0,200.0,28,3,2179.0,207625.69999999925,8047,friend,AF,C,207692,207692,205863,206976,205863,208042,207492,207492,208042,39
39,test,1,inc,1,m,Tue Oct 28 2025 13:53:59 GMT-0500 (Central Daylight Time),211770.80000000075,brutal,900,I,m,m,None,530,331.0,199.0,126,3,1962.1000000014901,209808.69999999925,8047,window,AF,C,209675,209675,208046,208958,208046,210008,209475,209475,210008,40
40,test,1,inc,1,z,Tue Oct 28 2025 13:53:59 GMT-0500 (Central Daylight Time),213836.59999999963,bell,1000,I,z,z,None,520,321.0,199.0,55,3,2062.0,211774.59999999963,8047,rage,AF,C,211741,211741,210012,211024,210012,212074,211541,211541,212074,41
41,test,1,con,1,m,Tue Oct 28 2025 13:53:59 GMT-0500 (Central Daylight Time),216019.30000000075,napkin,1000,I,m,m,None,647,447.0,200.0,107,3,2178.7000000011176,213840.59999999963,8047,napkin,AF,C,213807,213807,212078,213091,212078,214256,213607,213607,214256,42
42,test,1,con,1,z,Tue Oct 28 2025 13:53:59 GMT-0500 (Central Daylight Time),218018.80000000075,kind,900,I,z,z,None,557,357.0,200.0,10,3,1995.5,216023.30000000075,8047,kind,AF,C,215889,215889,214260,215173,214260,216256,215689,215689,216256,43
43,test,1,inc,1,z,Tue Oct 28 2025 13:53:59 GMT-0500 (Central Daylight Time),220251.19999999925,window,1100,I,z,z,None,588,389.0,199.0,8,3,2228.7999999988824,218022.40000000037,8047,elated,AF,C,218089,218089,216259,217372,216260,218488,217889,217889,218488,44
44,test,1,con,1,z,Tue Oct 28 2025 13:53:59 GMT-0500 (Central Daylight Time),222507.69999999925,friend,800,I,z,z,None,777,578.0,199.0,25,3,2252.7999999988824,220254.90000000037,8047,friend,AF,C,220021,220022,218492,219305,218492,220745,219822,219822,220745,45
45,test,1,con,1,z,Tue Oct 28 2025 13:53:59 GMT-0500 (Central Daylight Time),224383.30000000075,rage,900,I,z,z,None,442,243.0,199.0,50,3,1871.0,222512.30000000075,8047,rage,AF,C,222371,222371,220749,221654,220750,222620,222171,222171,222620,46
46,test,1,inc,1,z,Tue Oct 28 2025 13:53:59 GMT-0500 (Central Daylight Time),226449.5,rock,900,I,z,z,None,624,425.0,199.0,22,3,2062.300000000745,224387.19999999925,8047,love,AF,C,224253,224253,222624,223537,222625,224687,224054,224054,224687,47
47,test,1,inc,1,m,Tue Oct 28 2025 13:53:59 GMT-0500 (Central Daylight Time),228648.80000000075,hate,1100,I,m,m,None,551,351.0,200.0,72,3,2195.5,226453.30000000075,8047,step,AF,C,226519,226519,224690,225803,224691,226886,226319,226319,226886,48
48,test,1,inc,1,m,Tue Oct 28 2025 13:53:59 GMT-0500 (Central Daylight Time),230764.59999999963,temper,1000,I,m,m,None,570,371.0,199.0,127,3,2111.7999999988824,228652.80000000075,8047,window,AF,C,228619,228619,226890,227902,226890,229002,228419,228419,229002,49
49,test,1,inc,1,m,Tue Oct 28 2025 13:53:59 GMT-0500 (Central Daylight Time),232814.0,kind,900,I,m,m,None,603,403.0,200.0,86,3,2045.300000000745,230768.69999999925,8047,bell,AF,C,230635,230635,229006,229918,229006,231051,230435,230435,231051,50
50,test,1,inc,1,m,Tue Oct 28 2025 13:53:59 GMT-0500 (Central Daylight Time),234946.69999999925,friend,1100,I,m,m,None,490,290.0,200.0,104,3,2128.699999999255,232818.0,8047,jacket,AF,C,232884,232884,231055,232168,231055,233184,232684,232684,233184,51
51,test,1,inc,1,z,Tue Oct 28 2025 13:53:59 GMT-0500 (Central Daylight Time),236929.30000000075,jacket,800,I,z,z,None,633,433.0,200.0,5,3,1978.7000000011176,234950.59999999963,8047,elated,AF,C,234717,234717,233188,234000,233188,235166,234517,234517,235166,52
52,test,1,con,1,m,Tue Oct 28 2025 13:53:59 GMT-0500 (Central Daylight Time),238761.90000000037,jacket,800,I,m,m,None,514,315.0,199.0,97,3,1828.5,236933.40000000037,8047,jacket,AF,C,236683,236683,235170,235983,235171,236999,236484,236484,236999,53
53,test,1,con,1,m,Tue Oct 28 2025 13:53:59 GMT-0500 (Central Daylight Time),240778.09999999963,rock,1000,I,m,m,None,474,274.0,200.0,75,3,2012.5,238765.59999999963,8047,rock,AF,C,238732,238732,237003,238016,237003,239015,238532,238532,239015,54
54,test,1,inc,1,z,Tue Oct 28 2025 13:53:59 GMT-0500 (Central Daylight Time),242911.0,film,1100,I,z,z,None,494,294.0,200.0,24,3,2128.9000000003725,240782.09999999963,8047,love,AF,C,240848,240848,239019,240132,239019,241148,240648,240648,241148,55
55,test,1,inc,1,z,Tue Oct 28 2025 13:53:59 GMT-0500 (Central Daylight Time),244827.0,jacket,800,I,z,z,None,573,373.0,200.0,37,3,1912.0999999996275,242914.90000000037,8047,brutal,AF,C,242681,242681,241152,241965,241152,243064,242481,242481,243064,56
56,test,1,con,1,z,Tue Oct 28 2025 13:53:59 GMT-0500 (Central Daylight Time),246759.59999999963,love,900,I,z,z,None,493,293.0,200.0,18,3,1928.9000000003725,244830.69999999925,8047,love,AF,C,244697,244697,243068,243981,243068,244997,244497,244497,244997,57
57,test,1,con,1,m,Tue Oct 28 2025 13:53:59 GMT-0500 (Central Daylight Time),248825.40000000037,step,1000,I,m,m,None,532,332.0,200.0,67,3,2062.0,246763.40000000037,8047,step,AF,C,246730,246730,245000,246013,245001,247062,246530,246530,247062,58
58,test,1,con,1,m,Tue Oct 28 2025 13:53:59 GMT-0500 (Central Daylight Time),250824.90000000037,remote,1000,I,m,m,None,448,233.0,215.0,115,3,1996.0999999996275,248828.80000000075,8047,remote,AF,C,248812,248813,247066,248079,247066,249062,248597,248597,249062,59
59,test,1,con,1,z,Tue Oct 28 2025 13:53:59 GMT-0500 (Central Daylight Time),252641.09999999963,rage,800,I,z,z,None,475,275.0,200.0,49,3,1812.4000000003725,250828.69999999925,8047,rage,AF,C,250595,250595,249066,249879,249066,250878,250395,250395,250878,60
60,test,1,inc,1,m,Tue Oct 28 2025 13:53:59 GMT-0500 (Central Daylight Time),254757.09999999963,hate,1100,I,m,m,None,479,279.0,200.0,88,3,2112.0,252645.09999999963,8047,bell,AF,C,252711,252711,250882,251995,250882,252994,252511,252511,252994,61
61,test,1,inc,1,m,Tue Oct 28 2025 13:53:59 GMT-0500 (Central Daylight Time),256989.80000000075,friend,1100,I,m,m,None,595,394.0,201.0,112,3,2229.0,254760.80000000075,8047,napkin,AF,C,254828,254828,252998,254111,252998,255227,254627,254627,255227,62
62,test,1,inc,1,z,Tue Oct 28 2025 13:53:59 GMT-0500 (Central Daylight Time),258889.09999999963,napkin,900,I,z,z,None,449,250.0,199.0,30,3,1895.5,256993.59999999963,8047,friend,AF,C,256860,256860,255231,256143,255231,257126,256660,256660,257126,63
63,test,1,inc,1,m,Tue Oct 28 2025 13:53:59 GMT-0500 (Central Daylight Time),261005.19999999925,temper,1000,I,m,m,None,570,370.0,200.0,103,3,2112.0999999996275,258893.09999999963,8047,jacket,AF,C,258860,258860,257130,258143,257130,259242,258659,258659,259242,64
64,test,1,con,1,m,Tue Oct 28 2025 13:53:59 GMT-0500 (Central Daylight Time),262954.5999999996,napkin,900,I,m,m,None,515,315.0,200.0,106,3,1945.5999999996275,261009.0,8047,napkin,AF,C,260875,260875,259246,260159,259246,261192,260675,260675,261192,65
65,test,1,con,1,m,Tue Oct 28 2025 13:53:59 GMT-0500 (Central Daylight Time),264903.9000000004,film,1000,I,m,m,None,408,209.0,199.0,91,3,1945.7000000011176,262958.19999999925,8047,film,AF,C,262925,262925,261195,262208,261196,263141,262725,262725,263141,66
66,test,1,con,1,m,Tue Oct 28 2025 13:53:59 GMT-0500 (Central Daylight Time),267003.30000000075,napkin,1100,I,m,m,None,464,264.0,200.0,108,3,2095.5,264907.80000000075,8047,napkin,AF,C,264974,264974,263145,264257,263145,265240,264774,264774,265240,67
67,test,1,con,1,z,Tue Oct 28 2025 13:53:59 GMT-0500 (Central Daylight Time),269202.5999999996,love,1100,I,z,z,None,555,356.0,199.0,20,3,2195.0999999996275,267007.5,8047,love,AF,C,267073,267073,265245,266357,265245,267440,266874,266874,267440,68
68,test,1,inc,1,z,Tue Oct 28 2025 13:53:59 GMT-0500 (Central Daylight Time),271435.30000000075,film,1100,I,z,z,None,588,389.0,199.0,16,3,2228.5,269206.80000000075,8047,kind,AF,C,269273,269273,267444,268556,267444,269672,269073,269073,269672,69
69,test,1,con,1,m,Tue Oct 28 2025 13:53:59 GMT-0500 (Central Daylight Time),273384.69999999925,window,900,I,m,m,None,509,309.0,200.0,122,3,1945.699999999255,271439.0,8047,window,AF,C,271305,271305,269676,270589,269676,271622,271105,271105,271622,70
70,test,1,inc,1,m,Tue Oct 28 2025 13:53:59 GMT-0500 (Central Daylight Time),275467.4000000004,brutal,900,I,m,m,None,639,439.0,200.0,118,3,2079.0999999996275,273388.30000000075,8047,remote,AF,C,273255,273255,271625,272538,271626,273704,273055,273055,273704,71
71,test,1,con,1,m,Tue Oct 28 2025 13:53:59 GMT-0500 (Central Daylight Time),277266.9000000004,napkin,800,I,m,m,None,455,256.0,199.0,105,3,1795.7000000011176,275471.19999999925,8047,napkin,AF,C,275238,275238,273708,274521,273708,275504,275038,275038,275504,72
72,test,1,inc,1,m,Tue Oct 28 2025 13:53:59 GMT-0500 (Central Daylight Time),279382.5999999996,friend,1100,I,m,m,None,467,252.0,215.0,128,3,2111.7999999988824,277270.80000000075,8047,window,AF,C,277354,277354,275508,276620,275508,277620,277138,277138,277620,73
73,test,1,con,1,z,Tue Oct 28 2025 13:53:59 GMT-0500 (Central Daylight Time),281198.9000000004,elated,800,I,z,z,None,477,277.0,200.0,1,3,1812.5,279386.4000000004,8047,elated,AF,C,279153,279153,277623,278436,277624,279436,278953,278953,279436,74
74,test,1,con,1,z,Tue Oct 28 2025 13:53:59 GMT-0500 (Central Daylight Time),283231.5,temper,1000,I,z,z,None,493,293.0,200.0,59,3,2029.0,281202.5,8047,temper,AF,C,281169,281169,279440,280453,279440,281469,280969,280969,281469,75
75,test,1,con,1,m,Tue Oct 28 2025 13:53:59 GMT-0500 (Central Daylight Time),285197.69999999925,step,900,I,m,m,None,527,328.0,199.0,66,3,1962.0,283235.69999999925,8047,step,AF,C,283102,283102,281473,282385,281473,283435,282902,282902,283435,76
76,test,1,inc,1,m,Tue Oct 28 2025 13:53:59 GMT-0500 (Central Daylight Time),287330.5999999996,love,1000,I,m,m,None,589,390.0,199.0,71,3,2129.0999999996275,285201.5,8047,step,AF,C,285168,285168,283439,284451,283439,285568,284968,284968,285568,77
77,test,1,inc,1,z,Tue Oct 28 2025 13:53:59 GMT-0500 (Central Daylight Time),289346.30000000075,napkin,900,I,z,z,None,582,382.0,200.0,38,3,2011.800000000745,287334.5,8047,brutal,AF,C,287200,287200,285572,286484,285572,287583,287000,287000,287583,78
78,test,1,con,1,z,Tue Oct 28 2025 13:53:59 GMT-0500 (Central Daylight Time),291629.0,friend,1000,I,z,z,None,745,546.0,199.0,27,3,2278.699999999255,289350.30000000075,8047,friend,AF,C,289316,289316,287587,288600,287588,289866,289116,289117,289866,79
79,test,1,inc,1,m,Tue Oct 28 2025 13:53:59 GMT-0500 (Central Daylight Time),293578.30000000075,rage,800,I,m,m,None,530,323.0,207.0,69,3,1945.7000000011176,291632.5999999996,8047,step,AF,C,291482,291482,289870,290683,289870,291815,291275,291275,291815,80
80,test,1,con,1,m,Tue Oct 28 2025 13:53:59 GMT-0500 (Central Daylight Time),295627.4000000004,rock,900,I,m,m,None,606,406.0,200.0,74,3,2045.4000000003725,293582.0,8047,rock,AF,C,293448,293448,291819,292733,291819,293864,293248,293248,293864,81
81,test,1,inc,1,z,Tue Oct 28 2025 13:53:59 GMT-0500 (Central Daylight Time),297860.0,film,1100,I,z,z,None,588,388.0,200.0,56,3,2228.800000000745,295631.19999999925,8047,rage,AF,C,295697,295697,293868,294981,293868,296097,295497,295497,296097,82
82,test,1,inc,1,m,Tue Oct 28 2025 13:53:59 GMT-0500 (Central Daylight Time),299826.4000000004,brutal,900,I,m,m,None,522,323.0,199.0,102,3,1962.5,297863.9000000004,8047,jacket,AF,C,297731,297731,296101,297014,296101,298064,297531,297531,298063,83
83,test,1,con,1,z,Tue Oct 28 2025 13:53:59 GMT-0500 (Central Daylight Time),301909.0,temper,900,I,z,z,None,645,446.0,199.0,58,3,2078.699999999255,299830.30000000075,8047,temper,AF,C,299696,299696,298067,298980,298068,300146,299497,299497,300146,84
84,test,1,inc,1,m,Tue Oct 28 2025 13:53:59 GMT-0500 (Central Daylight Time),303958.4000000004,kind,900,I,m,m,None,603,403.0,200.0,94,3,2045.5999999996275,301912.80000000075,8047,film,AF,C,301779,301779,300150,301062,300150,302195,301579,301579,302195,85
85,test,1,con,1,m,Tue Oct 28 2025 13:53:59 GMT-0500 (Central Daylight Time),306074.0999999996,film,1100,I,m,m,None,482,282.0,200.0,92,3,2112.0,303962.0999999996,8047,film,AF,C,304028,304028,302199,303312,302199,304311,303828,303828,304311,86
86,test,1,inc,1,m,Tue Oct 28 2025 13:53:59 GMT-0500 (Central Daylight Time),308357.0,friend,1100,I,m,m,None,638,438.0,200.0,120,3,2279.199999999255,306077.80000000075,8047,remote,AF,C,306144,306144,304315,305429,304315,306594,305944,305944,306594,87
87,test,1,inc,1,z,Tue Oct 28 2025 13:53:59 GMT-0500 (Central Daylight Time),310256.4000000004,step,800,I,z,z,None,551,351.0,200.0,21,3,1895.5,308360.9000000004,8047,love,AF,C,308127,308127,306598,307411,306598,308494,307927,307927,308493,88
88,test,1,con,1,m,Tue Oct 28 2025 13:53:59 GMT-0500 (Central Daylight Time),312306.9000000004,jacket,900,I,m,m,None,614,415.0,199.0,98,3,2046.5999999996275,310260.30000000075,8047,jacket,AF,C,310127,310127,308497,309410,308498,310544,309927,309927,310544,89
89,test,1,inc,1,m,Tue Oct 28 2025 13:53:59 GMT-0500 (Central Daylight Time),314238.4000000004,elated,800,I,m,m,None,586,386.0,200.0,109,3,1927.5,312310.9000000004,8047,napkin,AF,C,312076,312076,310548,311360,310548,312475,311876,311876,312475,90
90,test,1,inc,1,z,Tue Oct 28 2025 13:53:59 GMT-0500 (Central Daylight Time),316437.69999999925,window,1100,I,z,z,None,560,361.0,199.0,32,3,2195.5,314242.19999999925,8047,friend,AF,C,314309,314309,312479,313592,312479,314675,314109,314109,314675,91
91,test,1,inc,1,m,Tue Oct 28 2025 13:53:59 GMT-0500 (Central Daylight Time),318653.9000000004,hate,1100,I,m,m,None,578,378.0,200.0,96,3,2212.5999999996275,316441.30000000075,8047,film,AF,C,316508,316508,314678,315791,314679,316891,316308,316308,316891,92
92,test,1,inc,1,m,Tue Oct 28 2025 13:53:59 GMT-0500 (Central Daylight Time),320670.0,kind,900,I,m,m,None,578,378.0,200.0,70,3,2012.0999999996275,318657.9000000004,8047,step,AF,C,318524,318524,316895,317807,316895,318907,318324,318324,318907,93
93,test,1,inc,1,m,Tue Oct 28 2025 13:53:59 GMT-0500 (Central Daylight Time),322686.5,kind,900,I,m,m,None,570,370.0,200.0,78,3,2012.4000000003725,320674.0999999996,8047,rock,AF,C,320540,320540,318911,319823,318911,320924,320340,320340,320924,94
94,test,1,inc,1,z,Tue Oct 28 2025 13:53:59 GMT-0500 (Central Daylight Time),324801.9000000004,remote,1000,I,z,z,None,574,374.0,200.0,39,3,2111.5,322690.4000000004,8047,brutal,AF,C,322656,322656,320927,321939,320928,323039,322456,322456,323039,95
95,test,1,con,1,z,Tue Oct 28 2025 13:53:59 GMT-0500 (Central Daylight Time),326984.5999999996,temper,1100,I,z,z,None,542,342.0,200.0,60,3,2178.9000000003725,324805.69999999925,8047,temper,AF,C,324872,324872,323043,324157,323043,325222,324672,324672,325222,96
96,test,1,inc,1,z,Tue Oct 28 2025 13:53:59 GMT-0500 (Central Daylight Time),329100.5999999996,remote,1000,I,z,z,None,571,371.0,200.0,31,3,2112.4000000003725,326988.19999999925,8047,friend,AF,C,326955,326955,325225,326238,325225,327338,326754,326754,327338,97
97,test,1,con,1,m,Tue Oct 28 2025 13:53:59 GMT-0500 (Central Daylight Time),331083.30000000075,film,900,I,m,m,None,539,339.0,200.0,90,3,1978.7000000011176,329104.5999999996,8047,film,AF,C,328971,328971,327342,328254,327342,329321,328771,328771,329320,98
98,test,1,con,1,z,Tue Oct 28 2025 13:53:59 GMT-0500 (Central Daylight Time),333265.69999999925,elated,1100,I,z,z,None,548,349.0,199.0,4,3,2178.5,331087.19999999925,8047,elated,AF,C,331153,331153,329324,330437,329324,331503,330954,330954,331503,99
99,test,1,inc,1,z,Tue Oct 28 2025 13:53:59 GMT-0500 (Central Daylight Time),335348.5999999996,rock,900,I,z,z,None,646,446.0,200.0,54,3,2079.2999999988824,333269.30000000075,8047,rage,AF,C,333136,333136,331506,332420,331507,333586,332936,332936,333586,100
100,test,1,con,1,z,Tue Oct 28 2025 13:53:59 GMT-0500 (Central Daylight Time),337297.69999999925,love,1000,I,z,z,None,406,207.0,199.0,19,3,1945.3999999985099,335352.30000000075,8047,love,AF,C,335319,335319,333589,334602,333590,335535,335119,335119,335535,101
101,test,1,con,1,m,Tue Oct 28 2025 13:53:59 GMT-0500 (Central Daylight Time),339330.80000000075,remote,900,I,m,m,None,598,398.0,200.0,114,3,2029.6000000014901,337301.19999999925,8047,remote,AF,C,337168,337168,335538,336452,335539,337568,336968,336968,337568,102
102,test,1,con,1,m,Tue Oct 28 2025 13:53:59 GMT-0500 (Central Daylight Time),341380.19999999925,remote,1100,I,m,m,None,405,205.0,200.0,116,3,2045.199999999255,339335.0,8047,remote,AF,C,339401,339401,337572,338684,337572,339617,339201,339201,339617,103
103,test,1,inc,1,m,Tue Oct 28 2025 13:53:59 GMT-0500 (Central Daylight Time),343496.19999999925,love,1000,I,m,m,None,576,376.0,200.0,87,3,2112.199999999255,341384.0,8047,bell,AF,C,341350,341350,339621,340634,339621,341733,341150,341150,341733,104
104,test,1,con,1,m,Tue Oct 28 2025 13:53:59 GMT-0500 (Central Daylight Time),345545.5,jacket,1000,I,m,m,None,516,316.0,200.0,99,3,2045.699999999255,343499.80000000075,8047,jacket,AF,C,343466,343466,341737,342750,341737,343783,343266,343266,343782,105
105,test,1,inc,1,z,Tue Oct 28 2025 13:53:59 GMT-0500 (Central Daylight Time),347611.4000000004,remote,1000,I,z,z,None,523,323.0,200.0,7,3,2062.300000000745,345549.0999999996,8047,elated,AF,C,345515,345515,343786,344799,343786,345848,345315,345315,345848,106
106,test,1,inc,1,z,Tue Oct 28 2025 13:53:59 GMT-0500 (Central Daylight Time),349527.30000000075,napkin,900,I,z,z,None,476,277.0,199.0,6,3,1912.1000000014901,347615.19999999925,8047,elated,AF,C,347481,347481,345852,346765,345853,347764,347282,347282,347764,107
107,test,1,inc,1,m,Tue Oct 28 2025 13:53:59 GMT-0500 (Central Daylight Time),351378.0,rage,800,I,m,m,None,499,300.0,199.0,77,3,1847.0,349531.0,8047,rock,AF,C,349298,349298,347768,348581,347768,349615,349098,349098,349615,108
108,test,1,inc,1,z,Tue Oct 28 2025 13:53:59 GMT-0500 (Central Daylight Time),353393.0,rock,900,I,z,z,None,567,367.0,200.0,46,3,2011.0999999996275,351381.9000000004,8047,hate,AF,C,351247,351247,349619,350531,349619,351630,351047,351047,351630,109
109,test,1,con,1,m,Tue Oct 28 2025 13:53:59 GMT-0500 (Central Daylight Time),355325.69999999925,remote,800,I,m,m,None,587,387.0,200.0,113,3,1928.8999999985099,353396.80000000075,8047,remote,AF,C,353163,353163,351634,352446,351634,353563,352963,352963,353563,110
110,test,1,inc,1,z,Tue Oct 28 2025 13:53:59 GMT-0500 (Central Daylight Time),357374.9000000004,bell,1000,I,z,z,None,501,302.0,199.0,23,3,2045.2000000011176,355329.69999999925,8047,love,AF,C,355296,355296,353567,354579,353567,355612,355096,355096,355612,111
111,test,1,inc,1,z,Tue Oct 28 2025 13:53:59 GMT-0500 (Central Daylight Time),359440.9000000004,bell,1000,I,z,z,None,533,333.0,200.0,15,3,2061.9000000003725,357379.0,8047,kind,AF,C,357345,357345,355616,356629,355616,357678,357145,357145,357678,112
112,test,1,inc,1,m,Tue Oct 28 2025 13:53:59 GMT-0500 (Central Daylight Time),361507.0,temper,1000,I,m,m,None,523,323.0,200.0,119,3,2062.300000000745,359444.69999999925,8047,remote,AF,C,359411,359411,357682,358695,357682,359744,359211,359211,359744,113
113,test,1,inc,1,m,Tue Oct 28 2025 13:53:59 GMT-0500 (Central Daylight Time),363729.9000000004,temper,1000,I,m,m,None,690,490.0,200.0,111,3,2218.9000000003725,361511.0,8047,napkin,AF,C,361477,361477,359748,360761,359748,361967,361277,361277,361967,114
114,test,1,con,1,m,Tue Oct 28 2025 13:53:59 GMT-0500 (Central Daylight Time),365639.0,window,800,I,m,m,None,577,377.0,200.0,121,3,1905.300000000745,363733.69999999925,8047,window,AF,C,363493,363493,361971,362777,361971,363876,363293,363293,363876,115
115,test,1,inc,1,z,Tue Oct 28 2025 13:53:59 GMT-0500 (Central Daylight Time),367638.19999999925,rock,900,I,z,z,None,561,361.0,200.0,14,3,1995.5999999996275,365642.5999999996,8047,kind,AF,C,365509,365509,363880,364792,363880,365875,365309,365309,365875,116
116,test,1,con,1,m,Tue Oct 28 2025 13:53:59 GMT-0500 (Central Daylight Time),369771.0999999996,bell,1100,I,m,m,None,489,290.0,199.0,84,3,2129.199999999255,367641.9000000004,8047,bell,AF,C,367708,367708,365879,366992,365879,368008,367509,367509,368008,117
117,test,1,con,1,z,Tue Oct 28 2025 13:53:59 GMT-0500 (Central Daylight Time),371753.5,kind,1000,I,z,z,None,449,249.0,200.0,11,3,1978.800000000745,369774.69999999925,8047,kind,AF,C,369741,369741,368012,369025,368012,369991,369541,369541,369991,118
118,test,1,con,1,z,Tue Oct 28 2025 13:53:59 GMT-0500 (Central Daylight Time),373819.80000000075,kind,1100,I,z,z,None,421,222.0,199.0,12,3,2062.5,371757.30000000075,8047,kind,AF,C,371824,371824,369994,371107,369995,372057,371624,371624,372057,119
118,test,1,inc,0,z,Tue Oct 28 2025 13:53:59 GMT-0500 (Central Daylight Time),375918.9000000004,jacket,800,I,m,m,None,752,552.0,200.0,29,3,2095.300000000745,373823.5999999996,8047,friend,AF,C,373590,373590,372061,372873,372061,374156,373390,373390,374156,120
119,test,1,inc,1,z,Tue Oct 28 2025 13:53:59 GMT-0500 (Central Daylight Time),378251.5999999996,window,1100,I,z,z,None,697,497.0,200.0,40,3,2329.0,375922.5999999996,8047,brutal,AF,C,375989,375989,374160,375273,374160,376489,375789,375789,376489,121
120,test,1,con,1,z,Tue Oct 28 2025 13:53:59 GMT-0500 (Central Daylight Time),380317.80000000075,hate,900,I,z,z,None,628,428.0,200.0,42,3,2062.4000000003725,378255.4000000004,8047,hate,AF,C,378122,378122,376492,377406,376493,378555,377922,377922,378555,122
121,test,1,inc,1,z,Tue Oct 28 2025 13:53:59 GMT-0500 (Central Daylight Time),382533.9000000004,window,1100,I,z,z,None,569,370.0,199.0,64,3,2212.0999999996275,380321.80000000075,8047,temper,AF,C,380388,380388,378559,379671,378559,380771,380188,380188,380771,123
122,test,1,con,1,m,Tue Oct 28 2025 13:53:59 GMT-0500 (Central Daylight Time),384833.0999999996,window,1100,I,m,m,None,650,451.0,199.0,124,3,2295.5,382537.5999999996,8047,window,AF,C,382603,382603,380775,381887,380775,383070,382404,382404,383070,124
123,test,1,inc,1,m,Tue Oct 28 2025 13:53:59 GMT-0500 (Central Daylight Time),386932.19999999925,hate,1100,I,m,m,None,463,263.0,200.0,80,3,2095.2999999988824,384836.9000000004,8047,rock,AF,C,384903,384903,383074,384187,383074,385169,384702,384703,385169,125
124,test,1,inc,1,z,Tue Oct 28 2025 13:53:59 GMT-0500 (Central Daylight Time),388898.69999999925,step,800,I,z,z,None,622,423.0,199.0,53,3,1962.5999999996275,386936.0999999996,8047,rage,AF,C,386703,386703,385173,385986,385173,387136,386503,386503,387136,126
125,test,1,con,1,m,Tue Oct 28 2025 13:53:59 GMT-0500 (Central Daylight Time),390964.4000000004,window,1000,I,m,m,None,529,330.0,199.0,123,3,2061.9000000003725,388902.5,8047,window,AF,C,388868,388868,387140,388152,387140,389202,388669,388669,389201,127
126,test,1,inc,1,m,Tue Oct 28 2025 13:53:59 GMT-0500 (Central Daylight Time),392830.9000000004,elated,800,I,m,m,None,518,319.0,199.0,101,3,1862.0,390968.9000000004,8047,jacket,AF,C,390735,390735,389206,390018,389206,391068,390535,390535,391068,128
