acc_sum,block,block_c,change,condition,correct,correct_response,datetime,endtime,face,project,response,response_time,row_sel,session_number,start_end,starttime,subject_id,task,task_vers,trial
0,prac,1,,1-Back,,,Wed Jun 24 2026 10:23:54 GMT-0500 (Central Daylight Time),,005_o_f_d_a.png,I,space,1438,1,3,,,8078,VNB,B,0
0,prac,1,0.0,1-Back,0.0,m,Wed Jun 24 2026 10:23:54 GMT-0500 (Central Daylight Time),108563.80000001192,020_y_f_n_a.png,I,None,2006,2,3,2854.9000000059605,105708.90000000596,8078,VNB,B,1
0,prac,1,0.0,1-Back,0.0,m,Wed Jun 24 2026 10:23:54 GMT-0500 (Central Daylight Time),111446.30000001192,007_m_m_h_a.png,I,None,2004,3,3,2873.7000000178814,108572.59999999404,8078,VNB,B,2
1,prac,1,0.0,1-Back,1.0,m,Wed Jun 24 2026 10:23:54 GMT-0500 (Central Daylight Time),113429.5,016_y_m_d_a.png,I,m,1117,4,3,1979.0,111450.5,8078,VNB,B,3
2,prac,1,0.0,1-Back,1.0,m,Wed Jun 24 2026 10:23:54 GMT-0500 (Central Daylight Time),115795.30000001192,005_o_f_n_a.png,I,m,1501,5,3,2361.800000011921,113433.5,8078,VNB,B,4
3,prac,1,1.0,1-Back,1.0,z,Wed Jun 24 2026 10:23:54 GMT-0500 (Central Daylight Time),117961.30000001192,016_y_m_n_a.png,I,z,1290,6,3,2161.9000000059605,115799.40000000596,8078,VNB,B,5
4,prac,1,0.0,1-Back,1.0,m,Wed Jun 24 2026 10:23:54 GMT-0500 (Central Daylight Time),119777.5,004_o_m_h_a.png,I,m,943,7,3,1805.4000000059605,117972.09999999404,8078,VNB,B,6
5,prac,1,0.0,1-Back,1.0,m,Wed Jun 24 2026 10:23:54 GMT-0500 (Central Daylight Time),122193.30000001192,011_m_f_d_a.png,I,m,1542,8,3,2411.4000000059605,119781.90000000596,8078,VNB,B,7
6,prac,1,1.0,1-Back,1.0,z,Wed Jun 24 2026 10:23:54 GMT-0500 (Central Daylight Time),124377.70000001788,020_y_f_d_a.png,I,z,1339,9,3,2180.2000000178814,122197.5,8078,VNB,B,8
7,prac,1,0.0,1-Back,1.0,m,Wed Jun 24 2026 10:23:54 GMT-0500 (Central Daylight Time),126508.70000001788,007_m_m_n_a.png,I,m,1260,10,3,2127.0,124381.70000001788,8078,VNB,B,9
8,prac,1,0.0,1-Back,1.0,m,Wed Jun 24 2026 10:23:54 GMT-0500 (Central Daylight Time),128807.90000000596,005_o_f_h_a.png,I,m,1427,11,3,2291.4000000059605,126516.5,8078,VNB,B,10
9,prac,1,0.0,1-Back,1.0,m,Wed Jun 24 2026 10:23:54 GMT-0500 (Central Daylight Time),131607.0,016_y_m_d_a.png,I,m,1923,12,3,2794.4000000059605,128812.59999999404,8078,VNB,B,11
0,test,1,0.0,1-Back,,,Wed Jun 24 2026 10:23:54 GMT-0500 (Central Daylight Time),131607.0,020_y_f_d_a.png,I,space,798,1,3,2794.4000000059605,128812.59999999404,8078,VNB,B,0
1,test,1,0.0,1-Back,1.0,m,Wed Jun 24 2026 10:23:54 GMT-0500 (Central Daylight Time),141987.0,011_m_f_n_a.png,I,m,1286,2,3,2313.0,139674.0,8078,VNB,B,1
2,test,1,0.0,1-Back,1.0,m,Wed Jun 24 2026 10:23:54 GMT-0500 (Central Daylight Time),143986.30000001192,004_o_m_h_a.png,I,m,971,3,3,1996.5999999940395,141989.70000001788,8078,VNB,B,2
3,test,1,1.0,1-Back,1.0,z,Wed Jun 24 2026 10:23:54 GMT-0500 (Central Daylight Time),145685.59999999404,007_m_m_h_a.png,I,z,667,4,3,1696.3999999761581,143989.20000001788,8078,VNB,B,3
4,test,1,0.0,1-Back,1.0,m,Wed Jun 24 2026 10:23:54 GMT-0500 (Central Daylight Time),147501.80000001192,005_o_f_n_a.png,I,m,792,5,3,1813.300000011921,145688.5,8078,VNB,B,4
4,test,1,0.0,1-Back,0.0,m,Wed Jun 24 2026 10:23:54 GMT-0500 (Central Daylight Time),149634.5,016_y_m_d_a.png,I,z,1112,6,3,2129.9000000059605,147504.59999999404,8078,VNB,B,5
4,test,1,1.0,1-Back,0.0,z,Wed Jun 24 2026 10:23:54 GMT-0500 (Central Daylight Time),152000.59999999404,011_m_f_d_a.png,I,m,1339,7,3,2363.0999999940395,149637.5,8078,VNB,B,6
5,test,1,0.0,1-Back,1.0,m,Wed Jun 24 2026 10:23:54 GMT-0500 (Central Daylight Time),154416.40000000596,020_y_f_h_a.png,I,m,1390,8,3,2412.9000000059605,152003.5,8078,VNB,B,7
6,test,1,0.0,1-Back,1.0,m,Wed Jun 24 2026 10:23:54 GMT-0500 (Central Daylight Time),156332.70000001788,004_o_m_n_a.png,I,m,893,9,3,1913.5,154419.20000001788,8078,VNB,B,8
7,test,1,0.0,1-Back,1.0,m,Wed Jun 24 2026 10:23:54 GMT-0500 (Central Daylight Time),158298.59999999404,016_y_m_h_a.png,I,m,946,10,3,1963.5,156335.09999999404,8078,VNB,B,9
8,test,1,0.0,1-Back,1.0,m,Wed Jun 24 2026 10:23:54 GMT-0500 (Central Daylight Time),160398.0,004_o_m_d_a.png,I,m,1066,11,3,2096.5,158301.5,8078,VNB,B,10
9,test,1,1.0,1-Back,1.0,z,Wed Jun 24 2026 10:23:54 GMT-0500 (Central Daylight Time),162496.90000000596,005_o_f_d_a.png,I,z,1071,12,3,2096.0,160400.90000000596,8078,VNB,B,11
10,test,1,0.0,1-Back,1.0,m,Wed Jun 24 2026 10:23:54 GMT-0500 (Central Daylight Time),164779.80000001192,007_m_m_n_a.png,I,m,1252,13,3,2279.4000000059605,162500.40000000596,8078,VNB,B,12
11,test,1,1.0,1-Back,1.0,z,Wed Jun 24 2026 10:23:54 GMT-0500 (Central Daylight Time),167229.20000001788,020_y_f_n_a.png,I,z,1426,14,3,2446.600000023842,164782.59999999404,8078,VNB,B,13
12,test,1,0.0,1-Back,1.0,m,Wed Jun 24 2026 10:23:54 GMT-0500 (Central Daylight Time),169261.59999999404,011_m_f_h_a.png,I,m,1000,15,3,2029.0,167232.59999999404,8078,VNB,B,14
13,test,1,0.0,1-Back,1.0,m,Wed Jun 24 2026 10:23:54 GMT-0500 (Central Daylight Time),171644.20000001788,007_m_m_d_a.png,I,m,1361,16,3,2379.800000011921,169264.40000000596,8078,VNB,B,15
13,test,1,0.0,1-Back,0.0,m,Wed Jun 24 2026 10:23:54 GMT-0500 (Central Daylight Time),174010.20000001788,016_y_m_n_a.png,I,z,1338,17,3,2363.300000011921,171646.90000000596,8078,VNB,B,16
14,test,1,0.0,1-Back,1.0,m,Wed Jun 24 2026 10:23:54 GMT-0500 (Central Daylight Time),176209.5,005_o_f_h_a.png,I,m,1179,18,3,2196.0999999940395,174013.40000000596,8078,VNB,B,17
0,test,2,0.0,1-Back,,,Wed Jun 24 2026 10:23:54 GMT-0500 (Central Daylight Time),176209.5,016_y_m_n_a.png,I,space,1469,1,3,2196.0999999940395,174013.40000000596,8078,VNB,B,0
1,test,2,0.0,1-Back,1.0,m,Wed Jun 24 2026 10:23:54 GMT-0500 (Central Daylight Time),181607.90000000596,020_y_f_h_a.png,I,m,873,2,3,1896.5,179711.40000000596,8078,VNB,B,1
2,test,2,1.0,1-Back,1.0,m,Wed Jun 24 2026 10:23:54 GMT-0500 (Central Daylight Time),184390.30000001192,004_o_m_n_a.png,I,m,1758,3,3,2779.5,181610.80000001192,8078,VNB,B,2
2,test,2,0.0,1-Back,0.0,m,Wed Jun 24 2026 10:23:54 GMT-0500 (Central Daylight Time),186323.59999999404,011_m_f_d_a.png,I,z,903,4,3,1930.2999999821186,184393.30000001192,8078,VNB,B,3
3,test,2,0.0,1-Back,1.0,z,Wed Jun 24 2026 10:23:54 GMT-0500 (Central Daylight Time),188839.5,007_m_m_d_a.png,I,z,1499,5,3,2513.0,186326.5,8078,VNB,B,4
4,test,2,0.0,1-Back,1.0,m,Wed Jun 24 2026 10:23:54 GMT-0500 (Central Daylight Time),190656.5,016_y_m_h_a.png,I,m,783,6,3,1814.0999999940395,188842.40000000596,8078,VNB,B,5
4,test,2,1.0,1-Back,0.0,z,Wed Jun 24 2026 10:23:54 GMT-0500 (Central Daylight Time),193687.5,005_o_f_h_a.png,I,None,2015,7,3,3028.2999999821186,190659.20000001788,8078,VNB,B,6
5,test,2,0.0,1-Back,1.0,m,Wed Jun 24 2026 10:23:54 GMT-0500 (Central Daylight Time),195503.40000000596,011_m_f_n_a.png,I,m,791,8,3,1812.9000000059605,193690.5,8078,VNB,B,7
6,test,2,0.0,1-Back,1.0,m,Wed Jun 24 2026 10:23:54 GMT-0500 (Central Daylight Time),197453.70000001788,020_y_f_d_a.png,I,m,919,9,3,1947.4000000059605,195506.30000001192,8078,VNB,B,8
7,test,2,0.0,1-Back,1.0,m,Wed Jun 24 2026 10:23:54 GMT-0500 (Central Daylight Time),199718.90000000596,007_m_m_n_a.png,I,m,1233,10,3,2262.4000000059605,197456.5,8078,VNB,B,9
8,test,2,1.0,1-Back,1.0,m,Wed Jun 24 2026 10:23:54 GMT-0500 (Central Daylight Time),201551.5,011_m_f_h_a.png,I,m,800,11,3,1829.5999999940395,199721.90000000596,8078,VNB,B,10
8,test,2,0.0,1-Back,0.0,z,Wed Jun 24 2026 10:23:54 GMT-0500 (Central Daylight Time),203169.30000001192,004_o_m_h_a.png,I,m,591,12,3,1615.0,201554.30000001192,8078,VNB,B,11
8,test,2,0.0,1-Back,0.0,m,Wed Jun 24 2026 10:23:54 GMT-0500 (Central Daylight Time),205317.20000001788,016_y_m_d_a.png,I,z,1117,13,3,2145.100000023842,203172.09999999404,8078,VNB,B,12
8,test,2,0.0,1-Back,0.0,m,Wed Jun 24 2026 10:23:54 GMT-0500 (Central Daylight Time),208349.40000000596,005_o_f_n_a.png,I,None,2015,14,3,3029.5999999940395,205319.80000001192,8078,VNB,B,13
8,test,2,0.0,1-Back,0.0,z,Wed Jun 24 2026 10:23:54 GMT-0500 (Central Daylight Time),210315.5,020_y_f_n_a.png,I,m,944,15,3,1963.2999999821186,208352.20000001788,8078,VNB,B,14
9,test,2,1.0,1-Back,1.0,m,Wed Jun 24 2026 10:23:54 GMT-0500 (Central Daylight Time),212164.90000000596,007_m_m_h_a.png,I,m,819,16,3,1846.4000000059605,210318.5,8078,VNB,B,15
10,test,2,0.0,1-Back,1.0,m,Wed Jun 24 2026 10:23:54 GMT-0500 (Central Daylight Time),214447.70000001788,005_o_f_d_a.png,I,m,1257,17,3,2279.7000000178814,212168.0,8078,VNB,B,16
11,test,2,1.0,1-Back,1.0,z,Wed Jun 24 2026 10:23:54 GMT-0500 (Central Daylight Time),216414.40000000596,004_o_m_d_a.png,I,z,943,18,3,1964.0999999940395,214450.30000001192,8078,VNB,B,17
0,test,3,1.0,1-Back,,,Wed Jun 24 2026 10:23:54 GMT-0500 (Central Daylight Time),216414.40000000596,005_o_f_h_a.png,I,space,1192,1,3,1964.0999999940395,214450.30000001192,8078,VNB,B,0
1,test,3,0.0,1-Back,1.0,m,Wed Jun 24 2026 10:23:54 GMT-0500 (Central Daylight Time),221912.20000001788,011_m_f_d_a.png,I,m,1174,2,3,2196.9000000059605,219715.30000001192,8078,VNB,B,1
2,test,3,1.0,1-Back,1.0,m,Wed Jun 24 2026 10:23:54 GMT-0500 (Central Daylight Time),223994.5,007_m_m_n_a.png,I,m,1062,3,3,2079.4000000059605,221915.09999999404,8078,VNB,B,2
3,test,3,0.0,1-Back,1.0,z,Wed Jun 24 2026 10:23:54 GMT-0500 (Central Daylight Time),225827.40000000596,005_o_f_n_a.png,I,z,812,4,3,1830.0999999940395,223997.30000001192,8078,VNB,B,3
4,test,3,1.0,1-Back,1.0,m,Wed Jun 24 2026 10:23:54 GMT-0500 (Central Daylight Time),228143.20000001788,004_o_m_d_a.png,I,m,1283,5,3,2312.600000023842,225830.59999999404,8078,VNB,B,4
5,test,3,0.0,1-Back,1.0,m,Wed Jun 24 2026 10:23:54 GMT-0500 (Central Daylight Time),230376.59999999404,020_y_f_h_a.png,I,m,1208,6,3,2230.5,228146.09999999404,8078,VNB,B,5
6,test,3,0.0,1-Back,1.0,z,Wed Jun 24 2026 10:23:54 GMT-0500 (Central Daylight Time),232558.80000001192,016_y_m_h_a.png,I,z,1150,7,3,2179.2000000178814,230379.59999999404,8078,VNB,B,6
7,test,3,0.0,1-Back,1.0,m,Wed Jun 24 2026 10:23:54 GMT-0500 (Central Daylight Time),234426.20000001788,011_m_f_n_a.png,I,m,848,8,3,1865.1000000238419,232561.09999999404,8078,VNB,B,7
8,test,3,0.0,1-Back,1.0,m,Wed Jun 24 2026 10:23:54 GMT-0500 (Central Daylight Time),236808.59999999404,020_y_f_d_a.png,I,m,1358,9,3,2379.7999999821186,234428.80000001192,8078,VNB,B,8
8,test,3,1.0,1-Back,0.0,m,Wed Jun 24 2026 10:23:54 GMT-0500 (Central Daylight Time),239306.90000000596,004_o_m_n_a.png,I,z,1479,10,3,2495.300000011921,236811.59999999404,8078,VNB,B,9
9,test,3,0.0,1-Back,1.0,m,Wed Jun 24 2026 10:23:54 GMT-0500 (Central Daylight Time),241472.40000000596,007_m_m_h_a.png,I,m,1139,11,3,2162.5,239309.90000000596,8078,VNB,B,10
10,test,3,0.0,1-Back,1.0,z,Wed Jun 24 2026 10:23:54 GMT-0500 (Central Daylight Time),243458.70000001788,011_m_f_h_a.png,I,z,966,12,3,1983.800000011921,241474.90000000596,8078,VNB,B,11
11,test,3,1.0,1-Back,1.0,m,Wed Jun 24 2026 10:23:54 GMT-0500 (Central Daylight Time),245654.70000001788,005_o_f_d_a.png,I,m,1183,13,3,2193.600000023842,243461.09999999404,8078,VNB,B,12
12,test,3,0.0,1-Back,1.0,z,Wed Jun 24 2026 10:23:54 GMT-0500 (Central Daylight Time),247988.59999999404,007_m_m_d_a.png,I,z,1303,14,3,2331.5,245657.09999999404,8078,VNB,B,13
12,test,3,0.0,1-Back,0.0,m,Wed Jun 24 2026 10:23:54 GMT-0500 (Central Daylight Time),250253.0,016_y_m_n_a.png,I,z,1243,15,3,2261.699999988079,247991.30000001192,8078,VNB,B,14
13,test,3,1.0,1-Back,1.0,m,Wed Jun 24 2026 10:23:54 GMT-0500 (Central Daylight Time),252102.59999999404,004_o_m_h_a.png,I,m,816,16,3,1846.8999999761581,250255.70000001788,8078,VNB,B,15
14,test,3,0.0,1-Back,1.0,m,Wed Jun 24 2026 10:23:54 GMT-0500 (Central Daylight Time),254852.0,016_y_m_d_a.png,I,m,1728,17,3,2746.4000000059605,252105.59999999404,8078,VNB,B,16
15,test,3,1.0,1-Back,1.0,m,Wed Jun 24 2026 10:23:54 GMT-0500 (Central Daylight Time),257351.30000001192,020_y_f_n_a.png,I,m,1483,18,3,2496.300000011921,254855.0,8078,VNB,B,17
0,test,4,1.0,1-Back,,,Wed Jun 24 2026 10:23:54 GMT-0500 (Central Daylight Time),257351.30000001192,007_m_m_d_a.png,I,space,1519,1,3,2496.300000011921,254855.0,8078,VNB,B,0
1,test,4,0.0,1-Back,1.0,z,Wed Jun 24 2026 10:23:54 GMT-0500 (Central Daylight Time),262932.40000000596,004_o_m_d_a.png,I,z,1011,2,3,2030.0,260902.40000000596,8078,VNB,B,1
2,test,4,0.0,1-Back,1.0,m,Wed Jun 24 2026 10:23:54 GMT-0500 (Central Daylight Time),264966.7000000179,016_y_m_h_a.png,I,m,1018,3,3,2031.6000000238419,262935.09999999404,8078,VNB,B,2
3,test,4,0.0,1-Back,1.0,m,Wed Jun 24 2026 10:23:54 GMT-0500 (Central Daylight Time),266981.90000000596,011_m_f_n_a.png,I,m,993,4,3,2012.9000000059605,264969.0,8078,VNB,B,3
4,test,4,1.0,1-Back,1.0,m,Wed Jun 24 2026 10:23:54 GMT-0500 (Central Daylight Time),268847.2000000179,005_o_f_h_a.png,I,m,849,5,3,1862.6000000238419,266984.59999999404,8078,VNB,B,4
5,test,4,0.0,1-Back,1.0,m,Wed Jun 24 2026 10:23:54 GMT-0500 (Central Daylight Time),270863.09999999404,007_m_m_n_a.png,I,m,990,6,3,2013.3999999761581,268849.7000000179,8078,VNB,B,5
6,test,4,0.0,1-Back,1.0,m,Wed Jun 24 2026 10:23:54 GMT-0500 (Central Daylight Time),272880.0,016_y_m_d_a.png,I,m,999,7,3,2014.2999999821186,270865.7000000179,8078,VNB,B,6
7,test,4,1.0,1-Back,1.0,z,Wed Jun 24 2026 10:23:54 GMT-0500 (Central Daylight Time),274945.40000000596,020_y_f_d_a.png,I,z,1038,8,3,2062.9000000059605,272882.5,8078,VNB,B,7
8,test,4,0.0,1-Back,1.0,m,Wed Jun 24 2026 10:23:54 GMT-0500 (Central Daylight Time),277095.59999999404,011_m_f_h_a.png,I,m,1133,9,3,2147.199999988079,274948.40000000596,8078,VNB,B,8
8,test,4,0.0,1-Back,0.0,z,Wed Jun 24 2026 10:23:54 GMT-0500 (Central Daylight Time),279177.2000000179,004_o_m_h_a.png,I,m,1064,10,3,2078.9000000059605,277098.3000000119,8078,VNB,B,9
9,test,4,1.0,1-Back,1.0,m,Wed Jun 24 2026 10:23:54 GMT-0500 (Central Daylight Time),281409.8000000119,005_o_f_n_a.png,I,m,1205,11,3,2229.0999999940395,279180.7000000179,8078,VNB,B,10
9,test,4,0.0,1-Back,0.0,m,Wed Jun 24 2026 10:23:54 GMT-0500 (Central Daylight Time),283392.59999999404,011_m_f_d_a.png,I,z,964,12,3,1979.8999999761581,281412.7000000179,8078,VNB,B,11
10,test,4,0.0,1-Back,1.0,m,Wed Jun 24 2026 10:23:54 GMT-0500 (Central Daylight Time),286258.09999999404,020_y_f_n_a.png,I,m,1845,13,3,2862.899999976158,283395.2000000179,8078,VNB,B,12
10,test,4,0.0,1-Back,0.0,m,Wed Jun 24 2026 10:23:54 GMT-0500 (Central Daylight Time),288774.0,005_o_f_d_a.png,I,z,1483,14,3,2512.2999999821186,286261.7000000179,8078,VNB,B,13
11,test,4,0.0,1-Back,1.0,m,Wed Jun 24 2026 10:23:54 GMT-0500 (Central Daylight Time),290658.8000000119,020_y_f_h_a.png,I,m,855,15,3,1881.300000011921,288777.5,8078,VNB,B,14
11,test,4,1.0,1-Back,0.0,z,Wed Jun 24 2026 10:23:54 GMT-0500 (Central Daylight Time),292905.90000000596,007_m_m_h_a.png,I,m,1220,16,3,2242.300000011921,290663.59999999404,8078,VNB,B,15
12,test,4,0.0,1-Back,1.0,m,Wed Jun 24 2026 10:23:54 GMT-0500 (Central Daylight Time),295005.40000000596,004_o_m_n_a.png,I,m,1067,17,3,2096.300000011921,292909.09999999404,8078,VNB,B,16
13,test,4,1.0,1-Back,1.0,z,Wed Jun 24 2026 10:23:54 GMT-0500 (Central Daylight Time),296888.0,016_y_m_n_a.png,I,z,864,18,3,1879.5,295008.5,8078,VNB,B,17
0,test,5,1.0,1-Back,,,Wed Jun 24 2026 10:23:54 GMT-0500 (Central Daylight Time),296888.0,004_o_m_n_a.png,I,space,1094,1,3,1879.5,295008.5,8078,VNB,B,0
1,test,5,1.0,1-Back,1.0,m,Wed Jun 24 2026 10:23:54 GMT-0500 (Central Daylight Time),301953.09999999404,005_o_f_h_a.png,I,m,930,2,3,1946.5999999940395,300006.5,8078,VNB,B,1
2,test,5,0.0,1-Back,1.0,m,Wed Jun 24 2026 10:23:54 GMT-0500 (Central Daylight Time),303952.5,016_y_m_d_a.png,I,m,972,3,3,1996.7999999821186,301955.7000000179,8078,VNB,B,2
3,test,5,0.0,1-Back,1.0,z,Wed Jun 24 2026 10:23:54 GMT-0500 (Central Daylight Time),306518.7000000179,004_o_m_d_a.png,I,z,1541,4,3,2563.5,303955.2000000179,8078,VNB,B,3
4,test,5,0.0,1-Back,1.0,m,Wed Jun 24 2026 10:23:54 GMT-0500 (Central Daylight Time),308334.7000000179,011_m_f_h_a.png,I,m,792,5,3,1813.1000000238419,306521.59999999404,8078,VNB,B,4
5,test,5,0.0,1-Back,1.0,m,Wed Jun 24 2026 10:23:54 GMT-0500 (Central Daylight Time),310850.7000000179,020_y_f_n_a.png,I,m,1495,6,3,2513.2000000178814,308337.5,8078,VNB,B,5
6,test,5,1.0,1-Back,1.0,z,Wed Jun 24 2026 10:23:54 GMT-0500 (Central Daylight Time),312883.2000000179,005_o_f_n_a.png,I,z,1012,7,3,2029.4000000059605,310853.8000000119,8078,VNB,B,6
6,test,5,0.0,1-Back,0.0,m,Wed Jun 24 2026 10:23:54 GMT-0500 (Central Daylight Time),314816.2000000179,011_m_f_d_a.png,I,z,891,8,3,1930.300000011921,312885.90000000596,8078,VNB,B,7
7,test,5,0.0,1-Back,1.0,m,Wed Jun 24 2026 10:23:54 GMT-0500 (Central Daylight Time),316598.8000000119,016_y_m_h_a.png,I,m,757,9,3,1780.0,314818.8000000119,8078,VNB,B,8
8,test,5,0.0,1-Back,1.0,m,Wed Jun 24 2026 10:23:54 GMT-0500 (Central Daylight Time),319098.0,020_y_f_d_a.png,I,m,1472,10,3,2496.2999999821186,316601.7000000179,8078,VNB,B,9
8,test,5,0.0,1-Back,0.0,m,Wed Jun 24 2026 10:23:54 GMT-0500 (Central Daylight Time),322130.2000000179,007_m_m_n_a.png,I,None,2015,11,3,3029.5,319100.7000000179,8078,VNB,B,10
9,test,5,1.0,1-Back,1.0,z,Wed Jun 24 2026 10:23:54 GMT-0500 (Central Daylight Time),324413.2000000179,011_m_f_n_a.png,I,z,1260,12,3,2280.5,322132.7000000179,8078,VNB,B,11
10,test,5,0.0,1-Back,1.0,m,Wed Jun 24 2026 10:23:54 GMT-0500 (Central Daylight Time),326313.59999999404,004_o_m_h_a.png,I,m,880,13,3,1897.7999999821186,324415.8000000119,8078,VNB,B,12
11,test,5,0.0,1-Back,1.0,z,Wed Jun 24 2026 10:23:54 GMT-0500 (Central Daylight Time),328346.7000000179,007_m_m_h_a.png,I,z,1013,14,3,2030.6000000238419,326316.09999999404,8078,VNB,B,13
12,test,5,1.0,1-Back,1.0,m,Wed Jun 24 2026 10:23:54 GMT-0500 (Central Daylight Time),330112.40000000596,005_o_f_d_a.png,I,m,747,15,3,1763.0,328349.40000000596,8078,VNB,B,14
12,test,5,0.0,1-Back,0.0,m,Wed Jun 24 2026 10:23:54 GMT-0500 (Central Daylight Time),332112.3000000119,016_y_m_n_a.png,I,z,967,16,3,1997.4000000059605,330114.90000000596,8078,VNB,B,15
13,test,5,0.0,1-Back,1.0,m,Wed Jun 24 2026 10:23:54 GMT-0500 (Central Daylight Time),333893.3000000119,020_y_f_h_a.png,I,m,760,17,3,1778.4000000059605,332114.90000000596,8078,VNB,B,16
14,test,5,0.0,1-Back,1.0,m,Wed Jun 24 2026 10:23:54 GMT-0500 (Central Daylight Time),336026.2000000179,007_m_m_d_a.png,I,m,1104,18,3,2130.300000011921,333895.90000000596,8078,VNB,B,17
0,prac,1,0.0,2-Back,,,Wed Jun 24 2026 10:23:54 GMT-0500 (Central Daylight Time),336026.2000000179,011_m_f_n_a.png,I,space,1273,1,3,2130.300000011921,333895.90000000596,8078,VNB,B,0
0,prac,1,0.0,2-Back,,,Wed Jun 24 2026 10:23:54 GMT-0500 (Central Daylight Time),336026.2000000179,005_o_f_h_a.png,I,space,1273,2,3,2130.300000011921,333895.90000000596,8078,VNB,B,0
1,prac,1,0.0,2-Back,1.0,m,Wed Jun 24 2026 10:23:54 GMT-0500 (Central Daylight Time),410819.5,004_o_m_d_a.png,I,m,1569,3,3,2415.199999988079,408404.3000000119,8078,VNB,B,1
1,prac,1,1.0,2-Back,0.0,z,Wed Jun 24 2026 10:23:54 GMT-0500 (Central Daylight Time),413685.09999999404,007_m_m_h_a.png,I,None,2002,4,3,2861.5999999940395,410823.5,8078,VNB,B,2
2,prac,1,0.0,2-Back,1.0,m,Wed Jun 24 2026 10:23:54 GMT-0500 (Central Daylight Time),416351.0,020_y_f_n_a.png,I,m,1817,5,3,2661.7999999821186,413689.2000000179,8078,VNB,B,3
3,prac,1,1.0,2-Back,1.0,z,Wed Jun 24 2026 10:23:54 GMT-0500 (Central Daylight Time),418517.0,004_o_m_h_a.png,I,z,1309,6,3,2158.5,416358.5,8078,VNB,B,4
3,prac,1,1.0,2-Back,0.0,z,Wed Jun 24 2026 10:23:54 GMT-0500 (Central Daylight Time),420283.5,016_y_m_n_a.png,I,m,886,7,3,1762.4000000059605,418521.09999999404,8078,VNB,B,5
3,prac,1,0.0,2-Back,0.0,m,Wed Jun 24 2026 10:23:54 GMT-0500 (Central Daylight Time),423148.8000000119,011_m_f_d_a.png,I,None,2008,8,3,2861.800000011921,420287.0,8078,VNB,B,6
4,prac,1,0.0,2-Back,1.0,m,Wed Jun 24 2026 10:23:54 GMT-0500 (Central Daylight Time),425981.2000000179,005_o_f_d_a.png,I,m,1964,9,3,2827.9000000059605,423153.3000000119,8078,VNB,B,7
4,prac,1,0.0,2-Back,0.0,m,Wed Jun 24 2026 10:23:54 GMT-0500 (Central Daylight Time),427713.90000000596,007_m_m_h_a.png,I,z,957,10,3,1728.5999999940395,425985.3000000119,8078,VNB,B,8
4,prac,1,1.0,2-Back,0.0,z,Wed Jun 24 2026 10:23:54 GMT-0500 (Central Daylight Time),430562.7000000179,020_y_f_d_a.png,I,None,2002,11,3,2844.5,427718.2000000179,8078,VNB,B,9
4,prac,1,0.0,2-Back,0.0,m,Wed Jun 24 2026 10:23:54 GMT-0500 (Central Daylight Time),433229.09999999404,004_o_m_n_a.png,I,z,1812,12,3,2658.7999999821186,430570.3000000119,8078,VNB,B,10
0,test,1,0.0,2-Back,,,Wed Jun 24 2026 10:23:54 GMT-0500 (Central Daylight Time),433229.09999999404,016_y_m_h_a.png,I,space,927,1,3,2658.7999999821186,430570.3000000119,8078,VNB,B,0
0,test,1,0.0,2-Back,,,Wed Jun 24 2026 10:23:54 GMT-0500 (Central Daylight Time),433229.09999999404,005_o_f_n_a.png,I,space,927,2,3,2658.7999999821186,430570.3000000119,8078,VNB,B,0
1,test,1,0.0,2-Back,1.0,z,Wed Jun 24 2026 10:23:54 GMT-0500 (Central Daylight Time),450290.3000000119,004_o_m_h_a.png,I,z,1363,3,3,2380.0,447910.3000000119,8078,VNB,B,1
1,test,1,0.0,2-Back,0.0,m,Wed Jun 24 2026 10:23:54 GMT-0500 (Central Daylight Time),453322.40000000596,011_m_f_d_a.png,I,None,2015,4,3,3029.5999999940395,450292.8000000119,8078,VNB,B,2
1,test,1,1.0,2-Back,0.0,m,Wed Jun 24 2026 10:23:54 GMT-0500 (Central Daylight Time),456356.40000000596,016_y_m_n_a.png,I,None,2017,5,3,3031.5,453324.90000000596,8078,VNB,B,3
1,test,1,0.0,2-Back,0.0,z,Wed Jun 24 2026 10:23:54 GMT-0500 (Central Daylight Time),459387.40000000596,020_y_f_d_a.png,I,None,2015,6,3,3025.300000011921,456362.09999999404,8078,VNB,B,4
1,test,1,0.0,2-Back,0.0,m,Wed Jun 24 2026 10:23:54 GMT-0500 (Central Daylight Time),462419.8000000119,007_m_m_h_a.png,I,None,2016,7,3,3029.5,459390.3000000119,8078,VNB,B,5
2,test,1,1.0,2-Back,1.0,m,Wed Jun 24 2026 10:23:54 GMT-0500 (Central Daylight Time),465036.5,020_y_f_n_a.png,I,m,1595,8,3,2614.2999999821186,462422.2000000179,8078,VNB,B,6
3,test,1,0.0,2-Back,1.0,z,Wed Jun 24 2026 10:23:54 GMT-0500 (Central Daylight Time),467802.90000000596,005_o_f_h_a.png,I,z,1739,9,3,2764.0999999940395,465038.8000000119,8078,VNB,B,7
3,test,1,0.0,2-Back,0.0,m,Wed Jun 24 2026 10:23:54 GMT-0500 (Central Daylight Time),470833.8000000119,004_o_m_d_a.png,I,None,2016,10,3,3028.0999999940395,467805.7000000179,8078,VNB,B,8
3,test,1,1.0,2-Back,0.0,m,Wed Jun 24 2026 10:23:54 GMT-0500 (Central Daylight Time),473117.8000000119,007_m_m_d_a.png,I,z,1260,11,3,2280.9000000059605,470836.90000000596,8078,VNB,B,9
4,test,1,0.0,2-Back,1.0,m,Wed Jun 24 2026 10:23:54 GMT-0500 (Central Daylight Time),474882.5,011_m_f_n_a.png,I,m,746,12,3,1762.0,473120.5,8078,VNB,B,10
4,test,1,0.0,2-Back,0.0,m,Wed Jun 24 2026 10:23:54 GMT-0500 (Central Daylight Time),476998.5,020_y_f_h_a.png,I,z,1092,13,3,2113.199999988079,474885.3000000119,8078,VNB,B,11
4,test,1,0.0,2-Back,0.0,z,Wed Jun 24 2026 10:23:54 GMT-0500 (Central Daylight Time),479031.0,007_m_m_n_a.png,I,m,1000,14,3,2029.2999999821186,477001.7000000179,8078,VNB,B,12
5,test,1,0.0,2-Back,1.0,m,Wed Jun 24 2026 10:23:54 GMT-0500 (Central Daylight Time),481647.2000000179,016_y_m_d_a.png,I,m,1599,15,3,2613.4000000059605,479033.8000000119,8078,VNB,B,13
5,test,1,1.0,2-Back,0.0,m,Wed Jun 24 2026 10:23:54 GMT-0500 (Central Daylight Time),483746.5,011_m_f_h_a.png,I,z,1072,16,3,2096.7999999821186,481649.7000000179,8078,VNB,B,14
5,test,1,0.0,2-Back,0.0,z,Wed Jun 24 2026 10:23:54 GMT-0500 (Central Daylight Time),485679.0,005_o_f_d_a.png,I,m,900,17,3,1929.5,483749.5,8078,VNB,B,15
6,test,1,0.0,2-Back,1.0,m,Wed Jun 24 2026 10:23:54 GMT-0500 (Central Daylight Time),488312.0,004_o_m_n_a.png,I,m,1607,18,3,2630.5,485681.5,8078,VNB,B,16
0,test,2,0.0,2-Back,,,Wed Jun 24 2026 10:23:54 GMT-0500 (Central Daylight Time),488312.0,007_m_m_h_a.png,I,space,1071,1,3,2630.5,485681.5,8078,VNB,B,0
0,test,2,0.0,2-Back,,,Wed Jun 24 2026 10:23:54 GMT-0500 (Central Daylight Time),488312.0,020_y_f_n_a.png,I,space,1071,2,3,2630.5,485681.5,8078,VNB,B,0
1,test,2,1.0,2-Back,1.0,z,Wed Jun 24 2026 10:23:54 GMT-0500 (Central Daylight Time),496842.09999999404,005_o_f_h_a.png,I,z,1229,3,3,2246.0,494596.09999999404,8078,VNB,B,1
1,test,2,0.0,2-Back,0.0,m,Wed Jun 24 2026 10:23:54 GMT-0500 (Central Daylight Time),499541.40000000596,004_o_m_d_a.png,I,z,1668,4,3,2696.5999999940395,496844.8000000119,8078,VNB,B,2
2,test,2,0.0,2-Back,1.0,m,Wed Jun 24 2026 10:23:54 GMT-0500 (Central Daylight Time),501740.90000000596,011_m_f_d_a.png,I,m,1177,5,3,2196.5999999940395,499544.3000000119,8078,VNB,B,3
2,test,2,0.0,2-Back,0.0,m,Wed Jun 24 2026 10:23:54 GMT-0500 (Central Daylight Time),503873.7000000179,016_y_m_h_a.png,I,z,1114,6,3,2130.100000023842,501743.59999999404,8078,VNB,B,4
2,test,2,0.0,2-Back,0.0,m,Wed Jun 24 2026 10:23:54 GMT-0500 (Central Daylight Time),506906.09999999404,005_o_f_n_a.png,I,None,2016,7,3,3029.5999999940395,503876.5,8078,VNB,B,5
3,test,2,1.0,2-Back,1.0,z,Wed Jun 24 2026 10:23:54 GMT-0500 (Central Daylight Time),508988.59999999404,004_o_m_h_a.png,I,z,1061,8,3,2080.0999999940395,506908.5,8078,VNB,B,6
4,test,2,0.0,2-Back,1.0,m,Wed Jun 24 2026 10:23:54 GMT-0500 (Central Daylight Time),510788.40000000596,020_y_f_d_a.png,I,m,778,9,3,1797.300000011921,508991.09999999404,8078,VNB,B,7
4,test,2,0.0,2-Back,0.0,m,Wed Jun 24 2026 10:23:54 GMT-0500 (Central Daylight Time),513153.59999999404,016_y_m_d_a.png,I,z,1338,10,3,2362.699999988079,510790.90000000596,8078,VNB,B,8
4,test,2,0.0,2-Back,0.0,m,Wed Jun 24 2026 10:23:54 GMT-0500 (Central Daylight Time),516019.7000000179,007_m_m_n_a.png,I,z,1844,11,3,2862.800000011921,513156.90000000596,8078,VNB,B,9
4,test,2,0.0,2-Back,0.0,m,Wed Jun 24 2026 10:23:54 GMT-0500 (Central Daylight Time),519051.90000000596,011_m_f_h_a.png,I,None,2016,12,3,3029.5,516022.40000000596,8078,VNB,B,10
5,test,2,1.0,2-Back,1.0,z,Wed Jun 24 2026 10:23:54 GMT-0500 (Central Daylight Time),521618.8000000119,004_o_m_n_a.png,I,z,1538,13,3,2564.300000011921,519054.5,8078,VNB,B,11
6,test,2,0.0,2-Back,1.0,m,Wed Jun 24 2026 10:23:54 GMT-0500 (Central Daylight Time),524484.599999994,005_o_f_d_a.png,I,m,1836,14,3,2863.0999999940395,521621.5,8078,VNB,B,12
6,test,2,0.0,2-Back,0.0,m,Wed Jun 24 2026 10:23:54 GMT-0500 (Central Daylight Time),527516.099999994,020_y_f_h_a.png,I,None,2016,15,3,3028.899999976158,524487.2000000179,8078,VNB,B,13
6,test,2,0.0,2-Back,0.0,z,Wed Jun 24 2026 10:23:54 GMT-0500 (Central Daylight Time),530548.2000000179,007_m_m_d_a.png,I,None,2014,16,3,3029.600000023842,527518.599999994,8078,VNB,B,14
6,test,2,0.0,2-Back,0.0,m,Wed Jun 24 2026 10:23:54 GMT-0500 (Central Daylight Time),532781.099999994,016_y_m_n_a.png,I,z,1201,17,3,2230.399999976158,530550.7000000179,8078,VNB,B,15
6,test,2,1.0,2-Back,0.0,m,Wed Jun 24 2026 10:23:54 GMT-0500 (Central Daylight Time),535813.3000000119,011_m_f_n_a.png,I,None,2015,18,3,3029.5,532783.8000000119,8078,VNB,B,16
0,test,3,1.0,2-Back,,,Wed Jun 24 2026 10:23:54 GMT-0500 (Central Daylight Time),535813.3000000119,004_o_m_n_a.png,I,space,1145,1,3,3029.5,532783.8000000119,8078,VNB,B,0
0,test,3,1.0,2-Back,,,Wed Jun 24 2026 10:23:54 GMT-0500 (Central Daylight Time),535813.3000000119,005_o_f_d_a.png,I,space,1145,2,3,3029.5,532783.8000000119,8078,VNB,B,0
1,test,3,0.0,2-Back,1.0,m,Wed Jun 24 2026 10:23:54 GMT-0500 (Central Daylight Time),544677.2000000179,020_y_f_h_a.png,I,m,1634,3,3,2663.300000011921,542013.900000006,8078,VNB,B,1
2,test,3,0.0,2-Back,1.0,z,Wed Jun 24 2026 10:23:54 GMT-0500 (Central Daylight Time),546676.5,011_m_f_d_a.png,I,z,968,4,3,1996.5,544680.0,8078,VNB,B,2
2,test,3,1.0,2-Back,0.0,m,Wed Jun 24 2026 10:23:54 GMT-0500 (Central Daylight Time),549709.0,016_y_m_n_a.png,I,None,2015,5,3,3030.0,546679.0,8078,VNB,B,3
2,test,3,0.0,2-Back,0.0,m,Wed Jun 24 2026 10:23:54 GMT-0500 (Central Daylight Time),552341.400000006,004_o_m_h_a.png,I,z,1600,6,3,2629.4000000059605,549712.0,8078,VNB,B,4
2,test,3,0.0,2-Back,0.0,z,Wed Jun 24 2026 10:23:54 GMT-0500 (Central Daylight Time),554690.8000000119,020_y_f_n_a.png,I,m,1329,7,3,2346.4000000059605,552344.400000006,8078,VNB,B,5
2,test,3,1.0,2-Back,0.0,m,Wed Jun 24 2026 10:23:54 GMT-0500 (Central Daylight Time),557724.0,007_m_m_d_a.png,I,None,2016,8,3,3030.699999988079,554693.3000000119,8078,VNB,B,6
2,test,3,0.0,2-Back,0.0,m,Wed Jun 24 2026 10:23:54 GMT-0500 (Central Daylight Time),559789.3000000119,016_y_m_d_a.png,I,z,1033,9,3,2062.5,557726.8000000119,8078,VNB,B,7
2,test,3,0.0,2-Back,0.0,m,Wed Jun 24 2026 10:23:54 GMT-0500 (Central Daylight Time),562521.5,005_o_f_h_a.png,I,z,1705,10,3,2729.699999988079,559791.8000000119,8078,VNB,B,8
2,test,3,1.0,2-Back,0.0,m,Wed Jun 24 2026 10:23:54 GMT-0500 (Central Daylight Time),565554.099999994,011_m_f_n_a.png,I,None,2016,11,3,3030.0,562524.099999994,8078,VNB,B,9
2,test,3,1.0,2-Back,0.0,z,Wed Jun 24 2026 10:23:54 GMT-0500 (Central Daylight Time),568553.8000000119,007_m_m_h_a.png,I,m,1972,12,3,2997.300000011921,565556.5,8078,VNB,B,10
2,test,3,0.0,2-Back,0.0,m,Wed Jun 24 2026 10:23:54 GMT-0500 (Central Daylight Time),571102.3000000119,020_y_f_d_a.png,I,z,1525,13,3,2546.0,568556.3000000119,8078,VNB,B,11
2,test,3,0.0,2-Back,0.0,m,Wed Jun 24 2026 10:23:54 GMT-0500 (Central Daylight Time),574134.8000000119,005_o_f_n_a.png,I,None,2016,14,3,3029.9000000059605,571104.900000006,8078,VNB,B,12
3,test,3,0.0,2-Back,1.0,z,Wed Jun 24 2026 10:23:54 GMT-0500 (Central Daylight Time),575950.900000006,004_o_m_d_a.png,I,z,800,15,3,1810.5999999940395,574140.3000000119,8078,VNB,B,13
3,test,3,1.0,2-Back,0.0,m,Wed Jun 24 2026 10:23:54 GMT-0500 (Central Daylight Time),578983.2000000179,011_m_f_h_a.png,I,None,2016,16,3,3030.0,575953.2000000179,8078,VNB,B,14
3,test,3,0.0,2-Back,0.0,m,Wed Jun 24 2026 10:23:54 GMT-0500 (Central Daylight Time),581500.5,007_m_m_n_a.png,I,z,1495,17,3,2514.7999999821186,578985.7000000179,8078,VNB,B,15
4,test,3,0.0,2-Back,1.0,z,Wed Jun 24 2026 10:23:54 GMT-0500 (Central Daylight Time),584149.7000000179,016_y_m_h_a.png,I,z,1626,18,3,2646.600000023842,581503.099999994,8078,VNB,B,16
0,test,4,0.0,2-Back,,,Wed Jun 24 2026 10:23:54 GMT-0500 (Central Daylight Time),584149.7000000179,011_m_f_n_a.png,I,space,1032,1,3,2646.600000023842,581503.099999994,8078,VNB,B,0
0,test,4,0.0,2-Back,,,Wed Jun 24 2026 10:23:54 GMT-0500 (Central Daylight Time),584149.7000000179,004_o_m_n_a.png,I,space,1032,2,3,2646.600000023842,581503.099999994,8078,VNB,B,0
1,test,4,1.0,2-Back,1.0,m,Wed Jun 24 2026 10:23:54 GMT-0500 (Central Daylight Time),593378.7000000179,016_y_m_h_a.png,I,m,1962,3,3,2978.5,590400.2000000179,8078,VNB,B,1
2,test,4,1.0,2-Back,1.0,m,Wed Jun 24 2026 10:23:54 GMT-0500 (Central Daylight Time),596194.400000006,005_o_f_d_a.png,I,m,1788,4,3,2813.0,593381.400000006,8078,VNB,B,2
3,test,4,0.0,2-Back,1.0,z,Wed Jun 24 2026 10:23:54 GMT-0500 (Central Daylight Time),598060.3000000119,004_o_m_h_a.png,I,z,836,5,3,1863.2000000178814,596197.099999994,8078,VNB,B,3
3,test,4,0.0,2-Back,0.0,m,Wed Jun 24 2026 10:23:54 GMT-0500 (Central Daylight Time),601092.8000000119,007_m_m_n_a.png,I,None,2016,6,3,3029.5,598063.3000000119,8078,VNB,B,4
3,test,4,0.0,2-Back,0.0,m,Wed Jun 24 2026 10:23:54 GMT-0500 (Central Daylight Time),604125.3000000119,011_m_f_d_a.png,I,None,2015,7,3,3028.0,601097.3000000119,8078,VNB,B,5
4,test,4,0.0,2-Back,1.0,z,Wed Jun 24 2026 10:23:54 GMT-0500 (Central Daylight Time),607107.7000000179,020_y_f_n_a.png,I,z,1961,8,3,2979.800000011921,604127.900000006,8078,VNB,B,6
4,test,4,1.0,2-Back,0.0,m,Wed Jun 24 2026 10:23:54 GMT-0500 (Central Daylight Time),609206.900000006,005_o_f_h_a.png,I,z,1067,9,3,2096.0999999940395,607110.8000000119,8078,VNB,B,7
5,test,4,0.0,2-Back,1.0,m,Wed Jun 24 2026 10:23:54 GMT-0500 (Central Daylight Time),611639.5,007_m_m_h_a.png,I,m,1407,10,3,2430.0,609209.5,8078,VNB,B,8
5,test,4,0.0,2-Back,0.0,m,Wed Jun 24 2026 10:23:54 GMT-0500 (Central Daylight Time),614672.099999994,020_y_f_d_a.png,I,None,2016,11,3,3030.199999988079,611641.900000006,8078,VNB,B,9
5,test,4,0.0,2-Back,0.0,m,Wed Jun 24 2026 10:23:54 GMT-0500 (Central Daylight Time),617704.3000000119,016_y_m_n_a.png,I,None,2015,12,3,3029.5,614674.8000000119,8078,VNB,B,10
6,test,4,0.0,2-Back,1.0,z,Wed Jun 24 2026 10:23:54 GMT-0500 (Central Daylight Time),620087.0,004_o_m_d_a.png,I,z,1358,13,3,2380.0999999940395,617706.900000006,8078,VNB,B,11
7,test,4,1.0,2-Back,1.0,m,Wed Jun 24 2026 10:23:54 GMT-0500 (Central Daylight Time),622052.7000000179,011_m_f_h_a.png,I,m,943,14,3,1963.2000000178814,620089.5,8078,VNB,B,12
7,test,4,1.0,2-Back,0.0,m,Wed Jun 24 2026 10:23:54 GMT-0500 (Central Daylight Time),624269.099999994,020_y_f_h_a.png,I,z,1184,15,3,2213.399999976158,622055.7000000179,8078,VNB,B,13
8,test,4,0.0,2-Back,1.0,m,Wed Jun 24 2026 10:23:54 GMT-0500 (Central Daylight Time),627201.5,005_o_f_n_a.png,I,m,1905,16,3,2929.699999988079,624271.8000000119,8078,VNB,B,14
9,test,4,0.0,2-Back,1.0,m,Wed Jun 24 2026 10:23:54 GMT-0500 (Central Daylight Time),629767.0,016_y_m_d_a.png,I,m,1549,17,3,2563.0,627204.0,8078,VNB,B,15
10,test,4,1.0,2-Back,1.0,m,Wed Jun 24 2026 10:23:54 GMT-0500 (Central Daylight Time),632732.900000006,007_m_m_d_a.png,I,m,1934,18,3,2963.5,629769.400000006,8078,VNB,B,16
0,test,5,1.0,2-Back,,,Wed Jun 24 2026 10:23:54 GMT-0500 (Central Daylight Time),632732.900000006,020_y_f_d_a.png,I,space,1114,1,3,2963.5,629769.400000006,8078,VNB,B,0
0,test,5,1.0,2-Back,,,Wed Jun 24 2026 10:23:54 GMT-0500 (Central Daylight Time),632732.900000006,005_o_f_h_a.png,I,space,1114,2,3,2963.5,629769.400000006,8078,VNB,B,0
0,test,5,1.0,2-Back,0.0,z,Wed Jun 24 2026 10:23:54 GMT-0500 (Central Daylight Time),642080.099999994,004_o_m_d_a.png,I,None,2015,3,3,3029.899999976158,639050.2000000179,8078,VNB,B,1
0,test,5,1.0,2-Back,0.0,m,Wed Jun 24 2026 10:23:54 GMT-0500 (Central Daylight Time),644378.8000000119,011_m_f_n_a.png,I,z,1269,4,3,2296.0,642082.8000000119,8078,VNB,B,2
0,test,5,0.0,2-Back,0.0,m,Wed Jun 24 2026 10:23:54 GMT-0500 (Central Daylight Time),646661.8000000119,007_m_m_h_a.png,I,z,1250,5,3,2280.0,644381.8000000119,8078,VNB,B,3
0,test,5,0.0,2-Back,0.0,z,Wed Jun 24 2026 10:23:54 GMT-0500 (Central Daylight Time),649695.8000000119,020_y_f_n_a.png,I,None,2017,6,3,3031.5999999940395,646664.2000000179,8078,VNB,B,4
0,test,5,0.0,2-Back,0.0,m,Wed Jun 24 2026 10:23:54 GMT-0500 (Central Daylight Time),652726.7000000179,005_o_f_d_a.png,I,None,2016,7,3,3028.100000023842,649698.599999994,8078,VNB,B,5
1,test,5,0.0,2-Back,1.0,m,Wed Jun 24 2026 10:23:54 GMT-0500 (Central Daylight Time),655259.2000000179,004_o_m_h_a.png,I,m,1510,8,3,2528.2000000178814,652731.0,8078,VNB,B,6
2,test,5,1.0,2-Back,1.0,z,Wed Jun 24 2026 10:23:54 GMT-0500 (Central Daylight Time),657541.900000006,011_m_f_d_a.png,I,z,1250,9,3,2279.800000011921,655262.099999994,8078,VNB,B,7
2,test,5,0.0,2-Back,0.0,m,Wed Jun 24 2026 10:23:54 GMT-0500 (Central Daylight Time),659408.400000006,016_y_m_n_a.png,I,z,848,10,3,1864.0999999940395,657544.3000000119,8078,VNB,B,8
3,test,5,0.0,2-Back,1.0,m,Wed Jun 24 2026 10:23:54 GMT-0500 (Central Daylight Time),661956.900000006,007_m_m_n_a.png,I,m,1527,11,3,2546.0,659410.900000006,8078,VNB,B,9
4,test,5,0.0,2-Back,1.0,m,Wed Jun 24 2026 10:23:54 GMT-0500 (Central Daylight Time),664622.900000006,020_y_f_h_a.png,I,m,1633,12,3,2663.4000000059605,661959.5,8078,VNB,B,10
4,test,5,0.0,2-Back,0.0,m,Wed Jun 24 2026 10:23:54 GMT-0500 (Central Daylight Time),667172.2000000179,016_y_m_d_a.png,I,z,1520,13,3,2546.5,664625.7000000179,8078,VNB,B,11
5,test,5,1.0,2-Back,1.0,z,Wed Jun 24 2026 10:23:54 GMT-0500 (Central Daylight Time),669489.5,011_m_f_h_a.png,I,z,1266,14,3,2314.7999999821186,667174.7000000179,8078,VNB,B,12
5,test,5,0.0,2-Back,0.0,m,Wed Jun 24 2026 10:23:54 GMT-0500 (Central Daylight Time),672520.5,004_o_m_n_a.png,I,None,2016,15,3,3028.2999999821186,669492.2000000179,8078,VNB,B,13
5,test,5,0.0,2-Back,0.0,m,Wed Jun 24 2026 10:23:54 GMT-0500 (Central Daylight Time),675486.2000000179,007_m_m_d_a.png,I,z,1933,16,3,2960.0,672526.2000000179,8078,VNB,B,14
6,test,5,0.0,2-Back,1.0,z,Wed Jun 24 2026 10:23:54 GMT-0500 (Central Daylight Time),677418.8000000119,005_o_f_n_a.png,I,z,904,17,3,1929.5,675489.3000000119,8078,VNB,B,15
7,test,5,1.0,2-Back,1.0,m,Wed Jun 24 2026 10:23:54 GMT-0500 (Central Daylight Time),679702.3000000119,016_y_m_h_a.png,I,m,1250,18,3,2281.0,677421.3000000119,8078,VNB,B,16
