acc_sum,block_c,block_dur,condition,correct,correct_response,countdown,datetime,endtime,project,response,response_time,response_time_test1_response,response_time_test2_response,row_sel,same,session_number,start_end,starttime,stim1,stim2,subject_id,task,task_vers,time_test1,time_test2,trial
1,1,0.0,prac,1,z,30000.0,Fri Apr 03 2026 11:24:53 GMT-0500 (Central Daylight Time),48206.90000000596,O,z,1926,,,3,yes,,3457.9000000059605,44749.0,practrial3.png,practrial3.png,7771,PC,A,,,1
2,1,0.0,prac,1,z,30000.0,Fri Apr 03 2026 11:24:53 GMT-0500 (Central Daylight Time),50740.09999999404,O,z,1017,,,5,yes,,2529.699999988079,48210.40000000596,practrial5.png,practrial5.png,7771,PC,A,,,2
3,1,0.0,prac,1,m,30000.0,Fri Apr 03 2026 11:24:53 GMT-0500 (Central Daylight Time),53023.80000001192,O,m,770,,,2,no,,2278.300000011921,50745.5,practrial2.png,practrial2b.png,7771,PC,A,,,3
3,1,0.0,prac,0,m,30000.0,Fri Apr 03 2026 11:24:53 GMT-0500 (Central Daylight Time),55656.90000000596,O,z,1102,,,6,no,,2627.9000000059605,53029.0,practrial6.png,practrial6b.png,7771,PC,A,,,4
4,1,0.0,prac,1,m,30000.0,Fri Apr 03 2026 11:24:53 GMT-0500 (Central Daylight Time),58487.59999999404,O,m,1293,,,4,no,,2825.5,55662.09999999404,practrial4.png,practrial4b.png,7771,PC,A,,,5
5,1,0.0,prac,1,z,30000.0,Fri Apr 03 2026 11:24:53 GMT-0500 (Central Daylight Time),61437.09999999404,O,z,1416,,,1,yes,,2944.5,58492.59999999404,practrial1.png,practrial1.png,7771,PC,A,,,6
1,1,1.3989999294281006,test,1,z,28601.0000705719,Fri Apr 03 2026 11:24:53 GMT-0500 (Central Daylight Time),76081.30000001192,O,z,1378,1378,,1,yes,,1392.7000000178814,74688.59999999404,test1trial1.png,test1trial1.png,7771,PC,A,70788,,1
2,1,2.450000047683716,test,1,m,27549.999952316284,Fri Apr 03 2026 11:24:53 GMT-0500 (Central Daylight Time),77132.30000001192,O,m,1028,1028,,2,no,,1044.5999999940395,76087.70000001788,test1trial2.png,test1trial2b.png,7771,PC,A,72186,,2
3,1,3.5149998664855957,test,1,z,26485.000133514404,Fri Apr 03 2026 11:24:53 GMT-0500 (Central Daylight Time),78197.30000001192,O,z,1058,1058,,3,yes,,1059.300000011921,77138.0,test1trial3.png,test1trial3.png,7771,PC,A,73237,,3
4,1,4.664999961853027,test,1,m,25335.000038146973,Fri Apr 03 2026 11:24:53 GMT-0500 (Central Daylight Time),79346.5,O,m,1137,1137,,4,no,,1144.5999999940395,78201.90000000596,test1trial4.png,test1trial4b.png,7771,PC,A,74301,,4
5,1,5.747999906539917,test,1,z,24252.000093460083,Fri Apr 03 2026 11:24:53 GMT-0500 (Central Daylight Time),80429.90000000596,O,z,1066,1066,,5,yes,,1077.4000000059605,79352.5,test1trial5.png,test1trial5.png,7771,PC,A,75451,,5
6,1,6.746000051498413,test,1,m,23253.999948501587,Fri Apr 03 2026 11:24:53 GMT-0500 (Central Daylight Time),81428.30000001192,O,m,994,994,,6,no,,995.0999999940395,80433.20000001788,test1trial6.png,test1trial6b.png,7771,PC,A,76532,,6
7,1,7.763000011444092,test,1,z,22236.99998855591,Fri Apr 03 2026 11:24:53 GMT-0500 (Central Daylight Time),82445.0,O,z,1003,1003,,7,yes,,1013.0999999940395,81431.90000000596,test1trial7.png,test1trial7.png,7771,PC,A,77531,,7
7,1,8.930999994277954,test,0,m,21069.000005722046,Fri Apr 03 2026 11:24:53 GMT-0500 (Central Daylight Time),83613.09999999404,O,z,1153,1153,,8,no,,1163.5999999940395,82449.5,test1trial8.png,test1trial8b.png,7771,PC,A,78549,,8
8,1,9.996000051498413,test,1,z,20003.999948501587,Fri Apr 03 2026 11:24:53 GMT-0500 (Central Daylight Time),84678.20000001788,O,z,1049,1049,,9,yes,,1060.2000000178814,83618.0,test1trial9.png,test1trial9.png,7771,PC,A,79717,,9
9,1,10.996000051498413,test,1,m,19003.999948501587,Fri Apr 03 2026 11:24:53 GMT-0500 (Central Daylight Time),85677.80000001192,O,m,990,990,,10,no,,992.5,84685.30000001192,test1trial10.png,test1trial10b.png,7771,PC,A,80785,,10
10,1,11.94599986076355,test,1,z,18054.00013923645,Fri Apr 03 2026 11:24:53 GMT-0500 (Central Daylight Time),86628.30000001192,O,z,927,927,,11,yes,,943.2000000178814,85685.09999999404,test1trial11.png,test1trial11.png,7771,PC,A,81784,,11
11,1,13.02999997138977,test,1,m,16970.00002861023,Fri Apr 03 2026 11:24:53 GMT-0500 (Central Daylight Time),87711.59999999404,O,m,1068,1068,,12,no,,1078.3999999761581,86633.20000001788,test1trial12.png,test1trial12b.png,7771,PC,A,82732,,12
12,1,14.260999917984009,test,1,m,15739.000082015991,Fri Apr 03 2026 11:24:53 GMT-0500 (Central Daylight Time),88943.40000000596,O,m,1221,1221,,13,no,,1224.699999988079,87718.70000001788,test1trial13.png,test1trial13b.png,7771,PC,A,83818,,13
13,1,15.343999862670898,test,1,m,14656.000137329102,Fri Apr 03 2026 11:24:53 GMT-0500 (Central Daylight Time),90026.5,O,m,1071,1071,,14,no,,1078.4000000059605,88948.09999999404,test1trial14.png,test1trial14b.png,7771,PC,A,85047,,14
14,1,16.227999925613403,test,1,z,13772.000074386597,Fri Apr 03 2026 11:24:53 GMT-0500 (Central Daylight Time),90909.90000000596,O,z,875,875,,15,yes,,876.6999999880791,90033.20000001788,test1trial15.png,test1trial15.png,7771,PC,A,86132,,15
15,1,17.378000020980835,test,1,m,12621.999979019165,Fri Apr 03 2026 11:24:53 GMT-0500 (Central Daylight Time),92059.70000001788,O,m,1136,1136,,16,no,,1144.0,90915.70000001788,test1trial16.png,test1trial16b.png,7771,PC,A,87015,,16
16,1,18.3439998626709,test,1,z,11656.000137329102,Fri Apr 03 2026 11:24:53 GMT-0500 (Central Daylight Time),93026.20000001788,O,z,953,953,,17,yes,,960.1000000238419,92066.09999999404,test1trial17.png,test1trial17.png,7771,PC,A,88165,,17
17,1,19.626999855041504,test,1,m,10373.000144958496,Fri Apr 03 2026 11:24:53 GMT-0500 (Central Daylight Time),94308.5,O,m,1261,1261,,18,no,,1278.4000000059605,93030.09999999404,test1trial18.png,test1trial18b.png,7771,PC,A,89129,,18
17,1,20.82699990272522,test,0,m,9173.00009727478,Fri Apr 03 2026 11:24:53 GMT-0500 (Central Daylight Time),95508.5,O,z,1189,1189,,19,no,,1198.0,94310.5,test1trial19.png,test1trial19b.png,7771,PC,A,90409,,19
18,1,21.792999982833862,test,1,z,8207.000017166138,Fri Apr 03 2026 11:24:53 GMT-0500 (Central Daylight Time),96474.40000000596,O,z,946,946,,20,yes,,961.3000000119209,95513.09999999404,test1trial20.png,test1trial20.png,7771,PC,A,91612,,20
19,1,22.756999969482422,test,1,z,7243.000030517578,Fri Apr 03 2026 11:24:53 GMT-0500 (Central Daylight Time),97439.20000001788,O,z,943,943,,21,yes,,957.1000000238419,96482.09999999404,test1trial21.png,test1trial21.png,7771,PC,A,92582,,21
20,1,23.993000030517578,test,1,z,6006.999969482422,Fri Apr 03 2026 11:24:53 GMT-0500 (Central Daylight Time),98674.90000000596,O,z,1226,1226,,22,yes,,1233.699999988079,97441.20000001788,test1trial22.png,test1trial22.png,7771,PC,A,93540,,22
21,1,25.007999897003174,test,1,z,4992.000102996826,Fri Apr 03 2026 11:24:53 GMT-0500 (Central Daylight Time),99689.5,O,z,1004,1004,,23,yes,,1010.5999999940395,98678.90000000596,test1trial23.png,test1trial23.png,7771,PC,A,94778,,23
22,1,26.323999881744385,test,1,z,3676.0001182556152,Fri Apr 03 2026 11:24:53 GMT-0500 (Central Daylight Time),101006.30000001192,O,z,1312,1312,,24,yes,,1314.5,99691.80000001192,test1trial24.png,test1trial24.png,7771,PC,A,95790,,24
23,1,27.508999824523926,test,1,m,2491.000175476074,Fri Apr 03 2026 11:24:53 GMT-0500 (Central Daylight Time),102191.30000001192,O,m,1179,1179,,25,no,,1181.9000000059605,101009.40000000596,test1trial25.png,test1trial25b.png,7771,PC,A,97108,,25
24,1,28.508999824523926,test,1,m,1491.0001754760742,Fri Apr 03 2026 11:24:53 GMT-0500 (Central Daylight Time),103191.0,O,m,984,984,,26,no,,996.1999999880791,102194.80000001192,test1trial26.png,test1trial26b.png,7771,PC,A,98294,,26
25,1,29.723999977111816,test,1,m,276.0000228881836,Fri Apr 03 2026 11:24:53 GMT-0500 (Central Daylight Time),104406.0,O,m,1210,1210,,27,no,,1212.199999988079,103193.80000001192,practrial6.png,practrial6b.png,7771,PC,A,99292,,27
25,1,30.009999990463257,test,0,z,-9.999990463256836,Fri Apr 03 2026 11:24:53 GMT-0500 (Central Daylight Time),104691.5,O,None,282,282,,28,yes,,282.40000000596046,104409.09999999404,practrial1.png,practrial1.png,7771,PC,A,100507,,28
1,2,1.316999912261963,test,1,m,28683.000087738037,Fri Apr 03 2026 11:24:53 GMT-0500 (Central Daylight Time),113604.0,O,m,1297,,1297.0,1,no,,9194.90000000596,104409.09999999404,test2trial1.png,test2trial1b.png,7771,PC,A,,108389.0,1
1,2,2.3989999294281006,test,0,m,27601.0000705719,Fri Apr 03 2026 11:24:53 GMT-0500 (Central Daylight Time),114685.70000001788,O,z,1066,,1066.0,2,no,,10276.600000023842,104409.09999999404,test2trial2.png,test2trial2b.png,7771,PC,A,,109707.0,2
2,2,3.7819998264312744,test,1,z,26218.000173568726,Fri Apr 03 2026 11:24:53 GMT-0500 (Central Daylight Time),116068.70000001788,O,z,1374,,1374.0,3,yes,,11659.600000023842,104409.09999999404,test2trial3.png,test2trial3.png,7771,PC,A,,110786.0,3
3,2,4.74399995803833,test,1,z,25256.00004196167,Fri Apr 03 2026 11:24:53 GMT-0500 (Central Daylight Time),117031.80000001192,O,z,947,,947.0,4,yes,,12622.700000017881,104409.09999999404,test2trial4.png,test2trial4.png,7771,PC,A,,112170.0,4
4,2,5.744999885559082,test,1,z,24255.000114440918,Fri Apr 03 2026 11:24:53 GMT-0500 (Central Daylight Time),118032.09999999404,O,z,985,,985.0,5,yes,,13623.0,104409.09999999404,test2trial5.png,test2trial5.png,7771,PC,A,,113133.0,5
5,2,6.9629998207092285,test,1,z,23037.00017929077,Fri Apr 03 2026 11:24:53 GMT-0500 (Central Daylight Time),119251.0,O,z,1205,,1205.0,6,yes,,14841.90000000596,104409.09999999404,test2trial6.png,test2trial6.png,7771,PC,A,,114138.0,6
6,2,8.230000019073486,test,1,m,21769.999980926514,Fri Apr 03 2026 11:24:53 GMT-0500 (Central Daylight Time),120517.5,O,m,1247,,1247.0,7,no,,16108.40000000596,104409.09999999404,test2trial7.png,test2trial7b.png,7771,PC,A,,115352.0,7
7,2,9.260999917984009,test,1,m,20739.00008201599,Fri Apr 03 2026 11:24:53 GMT-0500 (Central Daylight Time),121548.5,O,m,1025,,1025.0,8,no,,17139.40000000596,104409.09999999404,test2trial8.png,test2trial8b.png,7771,PC,A,,116621.0,8
8,2,10.179999828338623,test,1,z,19820.000171661377,Fri Apr 03 2026 11:24:53 GMT-0500 (Central Daylight Time),122467.30000001192,O,z,901,,901.0,9,yes,,18058.20000001788,104409.09999999404,test2trial9.png,test2trial9.png,7771,PC,A,,117649.0,9
9,2,11.178999900817871,test,1,z,18821.00009918213,Fri Apr 03 2026 11:24:53 GMT-0500 (Central Daylight Time),123466.30000001192,O,z,982,,982.0,10,yes,,19057.20000001788,104409.09999999404,test2trial10.png,test2trial10.png,7771,PC,A,,118569.0,10
10,2,12.027999877929688,test,1,m,17972.000122070312,Fri Apr 03 2026 11:24:53 GMT-0500 (Central Daylight Time),124315.30000001192,O,m,831,,831.0,11,no,,19906.20000001788,104409.09999999404,test2trial11.png,test2trial11b.png,7771,PC,A,,119568.0,11
10,2,13.062999963760376,test,0,m,16937.000036239624,Fri Apr 03 2026 11:24:53 GMT-0500 (Central Daylight Time),125350.30000001192,O,z,1027,,1027.0,12,no,,20941.20000001788,104409.09999999404,test2trial12.png,test2trial12b.png,7771,PC,A,,120420.0,12
11,2,14.060999870300293,test,1,z,15939.000129699707,Fri Apr 03 2026 11:24:53 GMT-0500 (Central Daylight Time),126348.40000000596,O,z,985,,985.0,13,yes,,21939.30000001192,104409.09999999404,test2trial13.png,test2trial13.png,7771,PC,A,,121453.0,13
12,2,14.94599986076355,test,1,m,15054.00013923645,Fri Apr 03 2026 11:24:53 GMT-0500 (Central Daylight Time),127233.70000001788,O,m,870,,870.0,14,no,,22824.600000023842,104409.09999999404,test2trial14.png,test2trial14b.png,7771,PC,A,,122450.0,14
13,2,16.043999910354614,test,1,m,13956.000089645386,Fri Apr 03 2026 11:24:53 GMT-0500 (Central Daylight Time),128331.59999999404,O,m,1078,,1078.0,15,no,,23922.5,104409.09999999404,test2trial15.png,test2trial15b.png,7771,PC,A,,123336.0,15
13,2,17.07699990272522,test,0,m,12923.00009727478,Fri Apr 03 2026 11:24:53 GMT-0500 (Central Daylight Time),129364.5,O,z,1012,,1012.0,16,no,,24955.40000000596,104409.09999999404,test2trial16.png,test2trial16b.png,7771,PC,A,,124434.0,16
14,2,18.39199995994568,test,1,z,11608.000040054321,Fri Apr 03 2026 11:24:53 GMT-0500 (Central Daylight Time),130680.0,O,z,1300,,1300.0,17,yes,,26270.90000000596,104409.09999999404,test2trial17.png,test2trial17.png,7771,PC,A,,125466.0,17
15,2,19.20899987220764,test,1,z,10791.000127792358,Fri Apr 03 2026 11:24:53 GMT-0500 (Central Daylight Time),131496.80000001192,O,z,798,,798.0,18,yes,,27087.70000001788,104409.09999999404,test2trial18.png,test2trial18.png,7771,PC,A,,126783.0,18
16,2,20.075999975204468,test,1,z,9924.000024795532,Fri Apr 03 2026 11:24:53 GMT-0500 (Central Daylight Time),132364.0,O,z,858,,858.0,19,yes,,27954.90000000596,104409.09999999404,test2trial19.png,test2trial19.png,7771,PC,A,,127597.0,19
17,2,21.20899987220764,test,1,z,8791.000127792358,Fri Apr 03 2026 11:24:53 GMT-0500 (Central Daylight Time),133496.09999999404,O,z,1125,,1125.0,20,yes,,29087.0,104409.09999999404,test2trial20.png,test2trial20.png,7771,PC,A,,128466.0,20
18,2,22.30999994277954,test,1,z,7690.000057220459,Fri Apr 03 2026 11:24:53 GMT-0500 (Central Daylight Time),134597.09999999404,O,z,1089,,1089.0,21,yes,,30188.0,104409.09999999404,test2trial21.png,test2trial21.png,7771,PC,A,,129597.0,21
19,2,23.22499990463257,test,1,m,6775.000095367432,Fri Apr 03 2026 11:24:53 GMT-0500 (Central Daylight Time),135512.20000001788,O,m,908,,908.0,22,no,,31103.100000023842,104409.09999999404,test2trial22.png,test2trial22b.png,7771,PC,A,,130699.0,22
19,2,24.72499990463257,test,0,m,5275.000095367432,Fri Apr 03 2026 11:24:53 GMT-0500 (Central Daylight Time),137012.90000000596,O,z,1490,,1490.0,23,no,,32603.80000001192,104409.09999999404,test2trial23.png,test2trial23b.png,7771,PC,A,,131613.0,23
20,2,25.655999898910522,test,1,m,4344.0001010894775,Fri Apr 03 2026 11:24:53 GMT-0500 (Central Daylight Time),137944.0,O,m,924,,924.0,24,no,,33534.90000000596,104409.09999999404,test2trial24.png,test2trial24b.png,7771,PC,A,,133114.0,24
21,2,26.622999906539917,test,1,z,3377.000093460083,Fri Apr 03 2026 11:24:53 GMT-0500 (Central Daylight Time),138910.5,O,z,954,,954.0,25,yes,,34501.40000000596,104409.09999999404,test2trial25.png,test2trial25.png,7771,PC,A,,134045.0,25
21,2,27.906999826431274,test,0,z,2093.0001735687256,Fri Apr 03 2026 11:24:53 GMT-0500 (Central Daylight Time),140194.20000001788,O,m,1274,,1274.0,26,no,,35785.10000002384,104409.09999999404,test2trial26.png,test2trial26b.png,7771,PC,A,,135012.0,26
21,2,29.072999954223633,test,0,z,927.0000457763672,Fri Apr 03 2026 11:24:53 GMT-0500 (Central Daylight Time),141360.90000000596,O,m,1159,,1159.0,27,no,,36951.80000001192,104409.09999999404,test2trial27.png,test2trial27b.png,7771,PC,A,,136296.0,27
21,2,29.954999923706055,test,0,m,45.00007629394531,Fri Apr 03 2026 11:24:53 GMT-0500 (Central Daylight Time),142242.70000001788,O,z,863,,863.0,28,yes,,37833.60000002384,104409.09999999404,practrial5.png,practrial5.png,7771,PC,A,,137463.0,28
21,2,30.00499987602234,test,0,m,-4.999876022338867,Fri Apr 03 2026 11:24:53 GMT-0500 (Central Daylight Time),142292.59999999404,O,None,47,,47.0,29,yes,,37883.5,104409.09999999404,practrial3.png,practrial3.png,7771,PC,A,,138344.0,29
