block_c,block_dur,condition,countdown,datetime,endtime,list,multichar_response,project,response,response_time,session_number,start_end,starttime,subject_id,task,task_vers,trial
,,,,Thu Mar 26 2026 13:26:47 GMT-0500 (Central Daylight Time),,,,I,space,755,2,,,8094,WL,A,
prac,,0,,Thu Mar 26 2026 13:26:47 GMT-0500 (Central Daylight Time),,NA,b,I,b,5844,2,,,8094,WL,A,1.0
prac,,0,,Thu Mar 26 2026 13:26:47 GMT-0500 (Central Daylight Time),,NA,bo,I,o,463,2,,,8094,WL,A,1.0
prac,,0,,Thu Mar 26 2026 13:26:47 GMT-0500 (Central Daylight Time),,NA,boo,I,o,130,2,,,8094,WL,A,1.0
prac,,0,,Thu Mar 26 2026 13:26:47 GMT-0500 (Central Daylight Time),,NA,boos,I,s,548,2,,,8094,WL,A,1.0
prac,,0,,Thu Mar 26 2026 13:26:47 GMT-0500 (Central Daylight Time),,NA,boost,I,t,327,2,,,8094,WL,A,1.0
prac,,0,,Thu Mar 26 2026 13:26:47 GMT-0500 (Central Daylight Time),,NA,boostenter,I,enter,456,2,,,8094,WL,A,1.0
1,1.9820001125335693,learn,58017.99988746643,Thu Mar 26 2026 13:26:47 GMT-0500 (Central Daylight Time),115224.79999995232,A,b,I,b,1966,2,1982.2000000476837,113242.59999990463,8094,WL,A,1.0
1,2.2160000801086426,learn,57783.99991989136,Thu Mar 26 2026 13:26:47 GMT-0500 (Central Daylight Time),115458.09999990463,A,bo,I,o,227,2,2215.5,113242.59999990463,8094,WL,A,1.0
1,2.381999969482422,learn,57618.00003051758,Thu Mar 26 2026 13:26:47 GMT-0500 (Central Daylight Time),115624.59999990463,A,boo,I,o,160,2,2382.0,113242.59999990463,8094,WL,A,1.0
1,2.6480000019073486,learn,57351.99999809265,Thu Mar 26 2026 13:26:47 GMT-0500 (Central Daylight Time),115890.79999995232,A,book,I,k,248,2,2648.2000000476837,113242.59999990463,8094,WL,A,1.0
1,3.4830000400543213,learn,56516.99995994568,Thu Mar 26 2026 13:26:47 GMT-0500 (Central Daylight Time),116725.79999995232,A,bookenter,I,enter,814,2,3483.2000000476837,113242.59999990463,8094,WL,A,1.0
1,4.381999969482422,learn,55618.00003051758,Thu Mar 26 2026 13:26:47 GMT-0500 (Central Daylight Time),117624.29999995232,A,c,I,c,881,2,898.0999999046326,116726.20000004768,8094,WL,A,2.0
1,4.727999925613403,learn,55272.0000743866,Thu Mar 26 2026 13:26:47 GMT-0500 (Central Daylight Time),117971.20000004768,A,ch,I,h,337,2,1245.0,116726.20000004768,8094,WL,A,2.0
1,4.996000051498413,learn,55003.99994850159,Thu Mar 26 2026 13:26:47 GMT-0500 (Central Daylight Time),118238.29999995232,A,chi,I,i,246,2,1512.0999999046326,116726.20000004768,8094,WL,A,2.0
1,5.578999996185303,learn,54421.0000038147,Thu Mar 26 2026 13:26:47 GMT-0500 (Central Daylight Time),118821.70000004768,A,chim,I,m,559,2,2095.5,116726.20000004768,8094,WL,A,2.0
1,5.812000036239624,learn,54187.999963760376,Thu Mar 26 2026 13:26:47 GMT-0500 (Central Daylight Time),119054.59999990463,A,chimn,I,n,206,2,2328.399999856949,116726.20000004768,8094,WL,A,2.0
1,6.495000123977661,learn,53504.99987602234,Thu Mar 26 2026 13:26:47 GMT-0500 (Central Daylight Time),119737.79999995232,A,chimne,I,e,654,2,3011.5999999046326,116726.20000004768,8094,WL,A,2.0
1,6.828999996185303,learn,53171.0000038147,Thu Mar 26 2026 13:26:47 GMT-0500 (Central Daylight Time),120071.59999990463,A,chimney,I,y,307,2,3345.399999856949,116726.20000004768,8094,WL,A,2.0
1,7.812999963760376,learn,52187.000036239624,Thu Mar 26 2026 13:26:47 GMT-0500 (Central Daylight Time),121055.90000009537,A,chimneyenter,I,enter,966,2,4329.700000047684,116726.20000004768,8094,WL,A,2.0
1,8.894999980926514,learn,51105.000019073486,Thu Mar 26 2026 13:26:47 GMT-0500 (Central Daylight Time),122137.5,A,g,I,g,1071,2,1081.0999999046326,121056.40000009537,8094,WL,A,3.0
1,9.09500002861023,learn,50904.99997138977,Thu Mar 26 2026 13:26:47 GMT-0500 (Central Daylight Time),122337.79999995232,A,go,I,o,185,2,1281.3999998569489,121056.40000009537,8094,WL,A,3.0
1,9.312999963760376,learn,50687.000036239624,Thu Mar 26 2026 13:26:47 GMT-0500 (Central Daylight Time),122556.20000004768,A,gol,I,l,208,2,1499.7999999523163,121056.40000009537,8094,WL,A,3.0
1,9.480000019073486,learn,50519.999980926514,Thu Mar 26 2026 13:26:47 GMT-0500 (Central Daylight Time),122723.29999995232,A,gold,I,d,156,2,1666.8999998569489,121056.40000009537,8094,WL,A,3.0
1,9.880000114440918,learn,50119.99988555908,Thu Mar 26 2026 13:26:47 GMT-0500 (Central Daylight Time),123122.29999995232,A,goldenter,I,enter,388,2,2065.899999856949,121056.40000009537,8094,WL,A,3.0
1,10.696000099182129,learn,49303.99990081787,Thu Mar 26 2026 13:26:47 GMT-0500 (Central Daylight Time),123938.59999990463,A,m,I,m,808,2,816.0,123122.59999990463,8094,WL,A,4.0
1,10.94700002670288,learn,49052.99997329712,Thu Mar 26 2026 13:26:47 GMT-0500 (Central Daylight Time),124189.90000009537,A,me,I,e,228,2,1067.3000001907349,123122.59999990463,8094,WL,A,4.0
1,11.296000003814697,learn,48703.9999961853,Thu Mar 26 2026 13:26:47 GMT-0500 (Central Daylight Time),124538.40000009537,A,mea,I,a,329,2,1415.8000001907349,123122.59999990463,8094,WL,A,4.0
1,11.562000036239624,learn,48437.999963760376,Thu Mar 26 2026 13:26:47 GMT-0500 (Central Daylight Time),124805.0,A,mead,I,d,244,2,1682.4000000953674,123122.59999990463,8094,WL,A,4.0
1,11.861999988555908,learn,48138.00001144409,Thu Mar 26 2026 13:26:47 GMT-0500 (Central Daylight Time),125104.90000009537,A,meado,I,o,277,2,1982.3000001907349,123122.59999990463,8094,WL,A,4.0
1,11.997999906539917,learn,48002.00009346008,Thu Mar 26 2026 13:26:47 GMT-0500 (Central Daylight Time),125240.70000004768,A,meadow,I,w,124,2,2118.100000143051,123122.59999990463,8094,WL,A,4.0
1,13.046000003814697,learn,46953.9999961853,Thu Mar 26 2026 13:26:47 GMT-0500 (Central Daylight Time),126288.79999995232,A,meadowenter,I,enter,1026,2,3166.2000000476837,123122.59999990463,8094,WL,A,4.0
1,14.710999965667725,learn,45289.000034332275,Thu Mar 26 2026 13:26:47 GMT-0500 (Central Daylight Time),127954.0,A,r,I,r,1648,2,1664.9000000953674,126289.09999990463,8094,WL,A,5.0
1,15.17799997329712,learn,44822.00002670288,Thu Mar 26 2026 13:26:47 GMT-0500 (Central Daylight Time),128420.59999990463,A,ra,I,a,443,2,2131.5,126289.09999990463,8094,WL,A,5.0
1,15.594000101089478,learn,44405.99989891052,Thu Mar 26 2026 13:26:47 GMT-0500 (Central Daylight Time),128837.0,A,rat,I,t,401,2,2547.9000000953674,126289.09999990463,8094,WL,A,5.0
1,15.710999965667725,learn,44289.000034332275,Thu Mar 26 2026 13:26:47 GMT-0500 (Central Daylight Time),128953.5,A,ratt,I,t,107,2,2664.4000000953674,126289.09999990463,8094,WL,A,5.0
1,15.92799997329712,learn,44072.00002670288,Thu Mar 26 2026 13:26:47 GMT-0500 (Central Daylight Time),129171.0,A,rattl,I,l,205,2,2881.9000000953674,126289.09999990463,8094,WL,A,5.0
1,16.194999933242798,learn,43805.0000667572,Thu Mar 26 2026 13:26:47 GMT-0500 (Central Daylight Time),129437.79999995232,A,rattle,I,e,241,2,3148.7000000476837,126289.09999990463,8094,WL,A,5.0
1,16.55999994277954,learn,43440.00005722046,Thu Mar 26 2026 13:26:47 GMT-0500 (Central Daylight Time),129802.59999990463,A,rattleenter,I,enter,345,2,3513.5,126289.09999990463,8094,WL,A,5.0
1,19.5770001411438,learn,40422.9998588562,Thu Mar 26 2026 13:26:47 GMT-0500 (Central Daylight Time),132819.40000009537,A,h,I,h,3006,2,3016.5,129802.90000009537,8094,WL,A,6.0
1,19.776999950408936,learn,40223.000049591064,Thu Mar 26 2026 13:26:47 GMT-0500 (Central Daylight Time),133019.70000004768,A,ha,I,a,180,2,3216.7999999523163,129802.90000009537,8094,WL,A,6.0
1,20.05999994277954,learn,39940.00005722046,Thu Mar 26 2026 13:26:47 GMT-0500 (Central Daylight Time),133302.90000009537,A,har,I,r,261,2,3500.0,129802.90000009537,8094,WL,A,6.0
1,20.592999935150146,learn,39407.00006484985,Thu Mar 26 2026 13:26:47 GMT-0500 (Central Daylight Time),133835.40000009537,A,harp,I,p,511,2,4032.5,129802.90000009537,8094,WL,A,6.0
1,21.092999935150146,learn,38907.00006484985,Thu Mar 26 2026 13:26:47 GMT-0500 (Central Daylight Time),134335.40000009537,A,harpenter,I,enter,484,2,4532.5,129802.90000009537,8094,WL,A,6.0
1,41.30299997329712,learn,18697.00002670288,Thu Mar 26 2026 13:26:47 GMT-0500 (Central Daylight Time),154545.90000009537,A,w,I,w,20193,2,20210.200000047684,134335.70000004768,8094,WL,A,7.0
1,41.55299997329712,learn,18447.00002670288,Thu Mar 26 2026 13:26:47 GMT-0500 (Central Daylight Time),154796.20000004768,A,wo,I,o,240,2,20460.5,134335.70000004768,8094,WL,A,7.0
1,41.736000061035156,learn,18263.999938964844,Thu Mar 26 2026 13:26:47 GMT-0500 (Central Daylight Time),154978.5,A,woo,I,o,164,2,20642.799999952316,134335.70000004768,8094,WL,A,7.0
1,41.88700008392334,learn,18112.99991607666,Thu Mar 26 2026 13:26:47 GMT-0500 (Central Daylight Time),155130.0,A,wood,I,d,147,2,20794.299999952316,134335.70000004768,8094,WL,A,7.0
1,43.20300006866455,learn,16796.99993133545,Thu Mar 26 2026 13:26:47 GMT-0500 (Central Daylight Time),156446.20000004768,A,woodenter,I,enter,1304,2,22110.5,134335.70000004768,8094,WL,A,7.0
1,47.08500003814697,learn,12914.999961853027,Thu Mar 26 2026 13:26:47 GMT-0500 (Central Daylight Time),160327.40000009537,A,f,I,f,3859,2,3881.0,156446.40000009537,8094,WL,A,8.0
1,47.30200004577637,learn,12697.999954223633,Thu Mar 26 2026 13:26:47 GMT-0500 (Central Daylight Time),160544.40000009537,A,fi,I,i,202,2,4098.0,156446.40000009537,8094,WL,A,8.0
1,47.58400011062622,learn,12415.99988937378,Thu Mar 26 2026 13:26:47 GMT-0500 (Central Daylight Time),160826.79999995232,A,fin,I,n,272,2,4380.399999856949,156446.40000009537,8094,WL,A,8.0
1,47.867000102996826,learn,12132.999897003174,Thu Mar 26 2026 13:26:47 GMT-0500 (Central Daylight Time),161110.09999990463,A,fing,I,g,264,2,4663.699999809265,156446.40000009537,8094,WL,A,8.0
1,48.08500003814697,learn,11914.999961853027,Thu Mar 26 2026 13:26:47 GMT-0500 (Central Daylight Time),161327.59999990463,A,finge,I,e,201,2,4881.199999809265,156446.40000009537,8094,WL,A,8.0
1,48.21799993515015,learn,11782.000064849854,Thu Mar 26 2026 13:26:47 GMT-0500 (Central Daylight Time),161460.5,A,finger,I,r,124,2,5014.099999904633,156446.40000009537,8094,WL,A,8.0
1,48.65000009536743,learn,11349.999904632568,Thu Mar 26 2026 13:26:47 GMT-0500 (Central Daylight Time),161893.20000004768,A,fingerenter,I,enter,412,2,5446.799999952316,156446.40000009537,8094,WL,A,8.0
1,60.015000104904175,learn,-15.000104904174805,Thu Mar 26 2026 13:26:47 GMT-0500 (Central Daylight Time),173257.40000009537,A,None,I,None,11359,2,11363.900000095367,161893.5,8094,WL,A,9.0
2,1.181999921798706,learn,58818.000078201294,Thu Mar 26 2026 13:26:47 GMT-0500 (Central Daylight Time),244500.90000009537,A,g,I,g,1162,2,1181.8000001907349,243319.09999990463,8094,WL,A,1.0
2,1.315999984741211,learn,58684.00001525879,Thu Mar 26 2026 13:26:47 GMT-0500 (Central Daylight Time),244634.20000004768,A,go,I,o,118,2,1315.1000001430511,243319.09999990463,8094,WL,A,1.0
2,1.5299999713897705,learn,58470.00002861023,Thu Mar 26 2026 13:26:47 GMT-0500 (Central Daylight Time),244848.79999995232,A,gol,I,l,197,2,1529.7000000476837,243319.09999990463,8094,WL,A,1.0
2,1.6649999618530273,learn,58335.00003814697,Thu Mar 26 2026 13:26:47 GMT-0500 (Central Daylight Time),244983.40000009537,A,gold,I,d,121,2,1664.3000001907349,243319.09999990463,8094,WL,A,1.0
2,1.997999906539917,learn,58002.00009346008,Thu Mar 26 2026 13:26:47 GMT-0500 (Central Daylight Time),245316.40000009537,A,goldenter,I,enter,322,2,1997.3000001907349,243319.09999990463,8094,WL,A,1.0
2,3.4489998817443848,learn,56551.000118255615,Thu Mar 26 2026 13:26:47 GMT-0500 (Central Daylight Time),246767.20000004768,A,l,I,l,1431,2,1450.7000000476837,245316.5,8094,WL,A,2.0
2,3.6659998893737793,learn,56334.00011062622,Thu Mar 26 2026 13:26:47 GMT-0500 (Central Daylight Time),246984.29999995232,A,lo,I,o,203,2,1667.7999999523163,245316.5,8094,WL,A,2.0
2,3.865000009536743,learn,56134.99999046326,Thu Mar 26 2026 13:26:47 GMT-0500 (Central Daylight Time),247183.0,A,log,I,g,193,2,1866.5,245316.5,8094,WL,A,2.0
2,4.164000034332275,learn,55835.999965667725,Thu Mar 26 2026 13:26:47 GMT-0500 (Central Daylight Time),247482.70000004768,A,logenter,I,enter,281,2,2166.2000000476837,245316.5,8094,WL,A,2.0
2,5.365000009536743,learn,54634.99999046326,Thu Mar 26 2026 13:26:47 GMT-0500 (Central Daylight Time),248683.29999995232,A,b,I,b,1191,2,1200.3999998569489,247482.90000009537,8094,WL,A,3.0
2,5.664000034332275,learn,54335.999965667725,Thu Mar 26 2026 13:26:47 GMT-0500 (Central Daylight Time),248982.59999990463,A,bu,I,u,288,2,1499.6999998092651,247482.90000009537,8094,WL,A,3.0
2,5.963000059127808,learn,54036.99994087219,Thu Mar 26 2026 13:26:47 GMT-0500 (Central Daylight Time),249281.70000004768,A,but,I,t,282,2,1798.7999999523163,247482.90000009537,8094,WL,A,3.0
2,6.098999977111816,learn,53901.00002288818,Thu Mar 26 2026 13:26:47 GMT-0500 (Central Daylight Time),249417.09999990463,A,butt,I,t,115,2,1934.1999998092651,247482.90000009537,8094,WL,A,3.0
2,6.247999906539917,learn,53752.00009346008,Thu Mar 26 2026 13:26:47 GMT-0500 (Central Daylight Time),249566.70000004768,A,butto,I,o,131,2,2083.7999999523163,247482.90000009537,8094,WL,A,3.0
2,6.513000011444092,learn,53486.99998855591,Thu Mar 26 2026 13:26:47 GMT-0500 (Central Daylight Time),249831.79999995232,A,button,I,n,258,2,2348.899999856949,247482.90000009537,8094,WL,A,3.0
2,6.914000034332275,learn,53085.999965667725,Thu Mar 26 2026 13:26:47 GMT-0500 (Central Daylight Time),250232.40000009537,A,buttonenter,I,enter,383,2,2749.5,247482.90000009537,8094,WL,A,3.0
2,7.579999923706055,learn,52420.000076293945,Thu Mar 26 2026 13:26:47 GMT-0500 (Central Daylight Time),250898.90000009537,A,r,I,r,649,2,666.3000001907349,250232.59999990463,8094,WL,A,4.0
2,8.02999997138977,learn,51970.00002861023,Thu Mar 26 2026 13:26:47 GMT-0500 (Central Daylight Time),251348.5,A,ra,I,a,429,2,1115.9000000953674,250232.59999990463,8094,WL,A,4.0
2,8.364000082015991,learn,51635.99991798401,Thu Mar 26 2026 13:26:47 GMT-0500 (Central Daylight Time),251682.5,A,rat,I,t,313,2,1449.9000000953674,250232.59999990463,8094,WL,A,4.0
2,8.499000072479248,learn,51500.99992752075,Thu Mar 26 2026 13:26:47 GMT-0500 (Central Daylight Time),251817.0,A,ratt,I,t,118,2,1584.4000000953674,250232.59999990463,8094,WL,A,4.0
2,8.645999908447266,learn,51354.000091552734,Thu Mar 26 2026 13:26:47 GMT-0500 (Central Daylight Time),251964.59999990463,A,rattl,I,l,134,2,1732.0,250232.59999990463,8094,WL,A,4.0
2,8.845999956130981,learn,51154.00004386902,Thu Mar 26 2026 13:26:47 GMT-0500 (Central Daylight Time),252164.5,A,rattle,I,e,178,2,1931.9000000953674,250232.59999990463,8094,WL,A,4.0
2,9.319000005722046,learn,50680.999994277954,Thu Mar 26 2026 13:26:47 GMT-0500 (Central Daylight Time),252637.20000004768,A,rattleenter,I,enter,451,2,2404.600000143051,250232.59999990463,8094,WL,A,4.0
2,13.111999988555908,learn,46888.00001144409,Thu Mar 26 2026 13:26:47 GMT-0500 (Central Daylight Time),256430.0,A,b,I,b,3775,2,3792.5999999046326,252637.40000009537,8094,WL,A,5.0
2,13.310999870300293,learn,46689.00012969971,Thu Mar 26 2026 13:26:47 GMT-0500 (Central Daylight Time),256629.5,A,bo,I,o,185,2,3992.0999999046326,252637.40000009537,8094,WL,A,5.0
2,13.46399998664856,learn,46536.00001335144,Thu Mar 26 2026 13:26:47 GMT-0500 (Central Daylight Time),256782.29999995232,A,boo,I,o,130,2,4144.899999856949,252637.40000009537,8094,WL,A,5.0
2,13.647000074386597,learn,46352.9999256134,Thu Mar 26 2026 13:26:47 GMT-0500 (Central Daylight Time),256965.5,A,book,I,k,163,2,4328.099999904633,252637.40000009537,8094,WL,A,5.0
2,14.01200008392334,learn,45987.99991607666,Thu Mar 26 2026 13:26:47 GMT-0500 (Central Daylight Time),257330.59999990463,A,bookenter,I,enter,352,2,4693.199999809265,252637.40000009537,8094,WL,A,5.0
2,14.928999900817871,learn,45071.00009918213,Thu Mar 26 2026 13:26:47 GMT-0500 (Central Daylight Time),258247.29999995232,A,c,I,c,896,2,916.3999998569489,257330.90000009537,8094,WL,A,6.0
2,15.144000053405762,learn,44855.99994659424,Thu Mar 26 2026 13:26:47 GMT-0500 (Central Daylight Time),258462.70000004768,A,ch,I,h,208,2,1131.7999999523163,257330.90000009537,8094,WL,A,6.0
2,15.547999858856201,learn,44452.0001411438,Thu Mar 26 2026 13:26:47 GMT-0500 (Central Daylight Time),258866.40000009537,A,chi,I,i,397,2,1535.5,257330.90000009537,8094,WL,A,6.0
2,16.162999868392944,learn,43837.000131607056,Thu Mar 26 2026 13:26:47 GMT-0500 (Central Daylight Time),259481.59999990463,A,chim,I,m,599,2,2150.699999809265,257330.90000009537,8094,WL,A,6.0
2,16.378000020980835,learn,43621.999979019165,Thu Mar 26 2026 13:26:47 GMT-0500 (Central Daylight Time),259696.79999995232,A,chimn,I,n,205,2,2365.899999856949,257330.90000009537,8094,WL,A,6.0
2,16.677000045776367,learn,43322.99995422363,Thu Mar 26 2026 13:26:47 GMT-0500 (Central Daylight Time),259995.29999995232,A,chimne,I,e,288,2,2664.399999856949,257330.90000009537,8094,WL,A,6.0
2,16.97699999809265,learn,43023.00000190735,Thu Mar 26 2026 13:26:47 GMT-0500 (Central Daylight Time),260295.70000004768,A,chimney,I,y,287,2,2964.7999999523163,257330.90000009537,8094,WL,A,6.0
2,17.526999950408936,learn,42473.000049591064,Thu Mar 26 2026 13:26:47 GMT-0500 (Central Daylight Time),260845.29999995232,A,chimneyenter,I,enter,536,2,3514.399999856949,257330.90000009537,8094,WL,A,6.0
2,19.042999982833862,learn,40957.00001716614,Thu Mar 26 2026 13:26:47 GMT-0500 (Central Daylight Time),262361.5,A,r,I,r,1501,2,1515.9000000953674,260845.59999990463,8094,WL,A,7.0
2,19.41100001335144,learn,40588.99998664856,Thu Mar 26 2026 13:26:47 GMT-0500 (Central Daylight Time),262729.09999990463,A,ru,I,u,351,2,1883.5,260845.59999990463,8094,WL,A,7.0
2,19.608999967575073,learn,40391.00003242493,Thu Mar 26 2026 13:26:47 GMT-0500 (Central Daylight Time),262927.7999999523,A,rug,I,g,192,2,2082.2000000476837,260845.59999990463,8094,WL,A,7.0
2,20.009999990463257,learn,39990.00000953674,Thu Mar 26 2026 13:26:47 GMT-0500 (Central Daylight Time),263328.7000000477,A,rugenter,I,enter,385,2,2483.100000143051,260845.59999990463,8094,WL,A,7.0
2,27.256999969482422,learn,32743.000030517578,Thu Mar 26 2026 13:26:47 GMT-0500 (Central Daylight Time),270575.59999990463,A,s,I,s,7242,2,7246.599999904633,263329.0,8094,WL,A,8.0
2,29.374000072479248,learn,30625.999927520752,Thu Mar 26 2026 13:26:47 GMT-0500 (Central Daylight Time),272692.40000009537,A,sa,I,a,2106,2,9363.400000095367,263329.0,8094,WL,A,8.0
2,29.66000008583069,learn,30339.99991416931,Thu Mar 26 2026 13:26:47 GMT-0500 (Central Daylight Time),272978.09999990463,A,sal,I,l,276,2,9649.099999904633,263329.0,8094,WL,A,8.0
2,29.973000049591064,learn,30026.999950408936,Thu Mar 26 2026 13:26:47 GMT-0500 (Central Daylight Time),273291.5,A,salt,I,t,297,2,9962.5,263329.0,8094,WL,A,8.0
2,30.905999898910522,learn,29094.000101089478,Thu Mar 26 2026 13:26:47 GMT-0500 (Central Daylight Time),274224.0,A,saltenter,I,enter,916,2,10895.0,263329.0,8094,WL,A,8.0
2,34.00499987602234,learn,25995.00012397766,Thu Mar 26 2026 13:26:47 GMT-0500 (Central Daylight Time),277323.5,A,f,I,f,3084,2,3099.2000000476837,274224.2999999523,8094,WL,A,9.0
2,34.270999908447266,learn,25729.000091552734,Thu Mar 26 2026 13:26:47 GMT-0500 (Central Daylight Time),277589.7000000477,A,fi,I,i,246,2,3365.4000000953674,274224.2999999523,8094,WL,A,9.0
2,34.5220000743866,learn,25477.999925613403,Thu Mar 26 2026 13:26:47 GMT-0500 (Central Daylight Time),277840.7000000477,A,fin,I,n,235,2,3616.4000000953674,274224.2999999523,8094,WL,A,9.0
2,34.704999923706055,learn,25295.000076293945,Thu Mar 26 2026 13:26:47 GMT-0500 (Central Daylight Time),278023.09999990463,A,fing,I,g,166,2,3798.7999999523163,274224.2999999523,8094,WL,A,9.0
2,34.937999963760376,learn,25062.000036239624,Thu Mar 26 2026 13:26:47 GMT-0500 (Central Daylight Time),278256.5,A,finge,I,e,218,2,4032.2000000476837,274224.2999999523,8094,WL,A,9.0
2,35.07299995422363,learn,24927.000045776367,Thu Mar 26 2026 13:26:47 GMT-0500 (Central Daylight Time),278391.7000000477,A,finger,I,r,130,2,4167.400000095367,274224.2999999523,8094,WL,A,9.0
2,35.704999923706055,learn,24295.000076293945,Thu Mar 26 2026 13:26:47 GMT-0500 (Central Daylight Time),279023.59999990463,A,fingerenter,I,enter,625,2,4799.299999952316,274224.2999999523,8094,WL,A,9.0
2,47.78399991989136,learn,12216.000080108643,Thu Mar 26 2026 13:26:47 GMT-0500 (Central Daylight Time),291102.59999990463,A,m,I,m,12067,2,12078.799999952316,279023.7999999523,8094,WL,A,10.0
2,48.050999879837036,learn,11949.000120162964,Thu Mar 26 2026 13:26:47 GMT-0500 (Central Daylight Time),291369.2000000477,A,me,I,e,248,2,12345.400000095367,279023.7999999523,8094,WL,A,10.0
2,48.33299994468689,learn,11667.00005531311,Thu Mar 26 2026 13:26:47 GMT-0500 (Central Daylight Time),291651.59999990463,A,mea,I,a,263,2,12627.799999952316,279023.7999999523,8094,WL,A,10.0
2,48.81500005722046,learn,11184.999942779541,Thu Mar 26 2026 13:26:47 GMT-0500 (Central Daylight Time),292133.90000009537,A,mead,I,d,467,2,13110.100000143051,279023.7999999523,8094,WL,A,10.0
2,49.09999990463257,learn,10900.000095367432,Thu Mar 26 2026 13:26:47 GMT-0500 (Central Daylight Time),292418.40000009537,A,meado,I,o,276,2,13394.600000143051,279023.7999999523,8094,WL,A,10.0
2,49.31699991226196,learn,10683.000087738037,Thu Mar 26 2026 13:26:47 GMT-0500 (Central Daylight Time),292635.59999990463,A,meadow,I,w,198,2,13611.799999952316,279023.7999999523,8094,WL,A,10.0
2,50.401000022888184,learn,9598.999977111816,Thu Mar 26 2026 13:26:47 GMT-0500 (Central Daylight Time),293719.2999999523,A,meadowenter,I,enter,1080,2,14695.5,279023.7999999523,8094,WL,A,10.0
2,59.1470000743866,learn,852.9999256134033,Thu Mar 26 2026 13:26:47 GMT-0500 (Central Daylight Time),302465.59999990463,A,enter,I,enter,8725,2,8746.099999904633,293719.5,8094,WL,A,11.0
2,60.01200008392334,learn,-12.000083923339844,Thu Mar 26 2026 13:26:47 GMT-0500 (Central Daylight Time),303330.7000000477,A,None,I,None,860,2,864.7000000476837,302466.0,8094,WL,A,12.0
3,1.0829999446868896,learn,58917.00005531311,Thu Mar 26 2026 13:26:47 GMT-0500 (Central Daylight Time),374026.2000000477,A,k,I,k,1063,2,1082.2000000476837,372944.0,8094,WL,A,1.0
3,1.4169998168945312,learn,58583.00018310547,Thu Mar 26 2026 13:26:47 GMT-0500 (Central Daylight Time),374359.7000000477,A,ke,I,e,311,2,1415.7000000476837,372944.0,8094,WL,A,1.0
3,1.7329998016357422,learn,58267.00019836426,Thu Mar 26 2026 13:26:47 GMT-0500 (Central Daylight Time),374675.7000000477,A,key,I,y,299,2,1731.7000000476837,372944.0,8094,WL,A,1.0
3,2.3320000171661377,learn,57667.99998283386,Thu Mar 26 2026 13:26:47 GMT-0500 (Central Daylight Time),375275.2999999523,A,keyenter,I,enter,580,2,2331.2999999523163,372944.0,8094,WL,A,1.0
3,3.25,learn,56750.0,Thu Mar 26 2026 13:26:47 GMT-0500 (Central Daylight Time),376192.90000009537,A,g,I,g,902,2,917.3000001907349,375275.59999990463,8094,WL,A,2.0
3,3.431999921798706,learn,56568.000078201294,Thu Mar 26 2026 13:26:47 GMT-0500 (Central Daylight Time),376375.40000009537,A,go,I,o,177,2,1099.8000001907349,375275.59999990463,8094,WL,A,2.0
3,3.6649999618530273,learn,56335.00003814697,Thu Mar 26 2026 13:26:47 GMT-0500 (Central Daylight Time),376608.2000000477,A,gol,I,l,214,2,1332.6000001430511,375275.59999990463,8094,WL,A,2.0
3,3.8320000171661377,learn,56167.99998283386,Thu Mar 26 2026 13:26:47 GMT-0500 (Central Daylight Time),376774.7999999523,A,gold,I,d,148,2,1499.2000000476837,375275.59999990463,8094,WL,A,2.0
3,4.130999803543091,learn,55869.00019645691,Thu Mar 26 2026 13:26:47 GMT-0500 (Central Daylight Time),377074.59999990463,A,goldenter,I,enter,284,2,1799.0,375275.59999990463,8094,WL,A,2.0
3,4.664999961853027,learn,55335.00003814697,Thu Mar 26 2026 13:26:47 GMT-0500 (Central Daylight Time),377608.2000000477,A,r,I,r,526,2,533.4000000953674,377074.7999999523,8094,WL,A,3.0
3,5.163999795913696,learn,54836.000204086304,Thu Mar 26 2026 13:26:47 GMT-0500 (Central Daylight Time),378107.59999990463,A,ra,I,a,481,2,1032.7999999523163,377074.7999999523,8094,WL,A,3.0
3,5.565999984741211,learn,54434.00001525879,Thu Mar 26 2026 13:26:47 GMT-0500 (Central Daylight Time),378509.2000000477,A,rat,I,t,387,2,1434.4000000953674,377074.7999999523,8094,WL,A,3.0
3,5.730999946594238,learn,54269.00005340576,Thu Mar 26 2026 13:26:47 GMT-0500 (Central Daylight Time),378673.90000009537,A,ratt,I,t,155,2,1599.1000001430511,377074.7999999523,8094,WL,A,3.0
3,5.947999954223633,learn,54052.00004577637,Thu Mar 26 2026 13:26:47 GMT-0500 (Central Daylight Time),378891.59999990463,A,rattl,I,l,206,2,1816.7999999523163,377074.7999999523,8094,WL,A,3.0
3,6.130999803543091,learn,53869.00019645691,Thu Mar 26 2026 13:26:47 GMT-0500 (Central Daylight Time),379074.40000009537,A,rattle,I,e,172,2,1999.6000001430511,377074.7999999523,8094,WL,A,3.0
3,6.5309998989105225,learn,53469.00010108948,Thu Mar 26 2026 13:26:47 GMT-0500 (Central Daylight Time),379473.7999999523,A,rattleenter,I,enter,392,2,2399.0,377074.7999999523,8094,WL,A,3.0
3,7.5309998989105225,learn,52469.00010108948,Thu Mar 26 2026 13:26:47 GMT-0500 (Central Daylight Time),380473.7999999523,A,b,I,b,985,2,999.7000000476837,379474.09999990463,8094,WL,A,4.0
3,7.830999851226807,learn,52169.00014877319,Thu Mar 26 2026 13:26:47 GMT-0500 (Central Daylight Time),380774.5,A,bu,I,u,278,2,1300.4000000953674,379474.09999990463,8094,WL,A,4.0
3,8.11299991607666,learn,51887.00008392334,Thu Mar 26 2026 13:26:47 GMT-0500 (Central Daylight Time),381056.40000009537,A,but,I,t,273,2,1582.3000001907349,379474.09999990463,8094,WL,A,4.0
3,8.263999938964844,learn,51736.000061035156,Thu Mar 26 2026 13:26:47 GMT-0500 (Central Daylight Time),381207.5,A,butt,I,t,136,2,1733.4000000953674,379474.09999990463,8094,WL,A,4.0
3,8.38099980354309,learn,51619.00019645691,Thu Mar 26 2026 13:26:47 GMT-0500 (Central Daylight Time),381324.09999990463,A,butto,I,o,105,2,1850.0,379474.09999990463,8094,WL,A,4.0
3,8.71399998664856,learn,51286.00001335144,Thu Mar 26 2026 13:26:47 GMT-0500 (Central Daylight Time),381656.59999990463,A,button,I,n,322,2,2182.5,379474.09999990463,8094,WL,A,4.0
3,9.080999851226807,learn,50919.00014877319,Thu Mar 26 2026 13:26:47 GMT-0500 (Central Daylight Time),382024.09999990463,A,buttonenter,I,enter,356,2,2550.0,379474.09999990463,8094,WL,A,4.0
3,10.345999956130981,learn,49654.00004386902,Thu Mar 26 2026 13:26:47 GMT-0500 (Central Daylight Time),383289.0,A,t,I,t,1258,2,1264.2000000476837,382024.7999999523,8094,WL,A,5.0
3,10.54699993133545,learn,49453.00006866455,Thu Mar 26 2026 13:26:47 GMT-0500 (Central Daylight Time),383490.09999990463,A,tr,I,r,184,2,1465.2999999523163,382024.7999999523,8094,WL,A,5.0
3,11.013000011444092,learn,48986.99998855591,Thu Mar 26 2026 13:26:47 GMT-0500 (Central Daylight Time),383956.2000000477,A,tra,I,a,453,2,1931.4000000953674,382024.7999999523,8094,WL,A,5.0
3,11.29699993133545,learn,48703.00006866455,Thu Mar 26 2026 13:26:47 GMT-0500 (Central Daylight Time),384240.7000000477,A,trai,I,i,273,2,2215.9000000953674,382024.7999999523,8094,WL,A,5.0
3,11.513000011444092,learn,48486.99998855591,Thu Mar 26 2026 13:26:47 GMT-0500 (Central Daylight Time),384456.2000000477,A,train,I,n,209,2,2431.4000000953674,382024.7999999523,8094,WL,A,5.0
3,11.912999868392944,learn,48087.000131607056,Thu Mar 26 2026 13:26:47 GMT-0500 (Central Daylight Time),384856.09999990463,A,trainenter,I,enter,386,2,2831.2999999523163,382024.7999999523,8094,WL,A,5.0
3,12.811999797821045,learn,47188.000202178955,Thu Mar 26 2026 13:26:47 GMT-0500 (Central Daylight Time),385755.40000009537,A,f,I,f,890,2,899.1000001430511,384856.2999999523,8094,WL,A,6.0
3,13.079999923706055,learn,46920.000076293945,Thu Mar 26 2026 13:26:47 GMT-0500 (Central Daylight Time),386023.40000009537,A,fl,I,l,242,2,1167.1000001430511,384856.2999999523,8094,WL,A,6.0
3,13.27899980545044,learn,46721.00019454956,Thu Mar 26 2026 13:26:47 GMT-0500 (Central Daylight Time),386222.40000009537,A,flo,I,o,177,2,1366.1000001430511,384856.2999999523,8094,WL,A,6.0
3,13.429999828338623,learn,46570.00017166138,Thu Mar 26 2026 13:26:47 GMT-0500 (Central Daylight Time),386373.09999990463,A,flow,I,w,137,2,1516.7999999523163,384856.2999999523,8094,WL,A,6.0
3,13.645999908447266,learn,46354.000091552734,Thu Mar 26 2026 13:26:47 GMT-0500 (Central Daylight Time),386589.09999990463,A,flowe,I,e,192,2,1732.7999999523163,384856.2999999523,8094,WL,A,6.0
3,13.88099980354309,learn,46119.00019645691,Thu Mar 26 2026 13:26:47 GMT-0500 (Central Daylight Time),386824.09999990463,A,flower,I,r,228,2,1967.7999999523163,384856.2999999523,8094,WL,A,6.0
3,14.312999963760376,learn,45687.000036239624,Thu Mar 26 2026 13:26:47 GMT-0500 (Central Daylight Time),387255.90000009537,A,flowerenter,I,enter,415,2,2399.600000143051,384856.2999999523,8094,WL,A,6.0
3,15.044999837875366,learn,44955.000162124634,Thu Mar 26 2026 13:26:47 GMT-0500 (Central Daylight Time),387988.0,A,b,I,b,713,2,731.7999999523163,387256.2000000477,8094,WL,A,7.0
3,15.27899980545044,learn,44721.00019454956,Thu Mar 26 2026 13:26:47 GMT-0500 (Central Daylight Time),388222.0,A,bo,I,o,212,2,965.7999999523163,387256.2000000477,8094,WL,A,7.0
3,15.428999900817871,learn,44571.00009918213,Thu Mar 26 2026 13:26:47 GMT-0500 (Central Daylight Time),388372.2000000477,A,boo,I,o,129,2,1116.0,387256.2000000477,8094,WL,A,7.0
3,15.645999908447266,learn,44354.000091552734,Thu Mar 26 2026 13:26:47 GMT-0500 (Central Daylight Time),388589.2999999523,A,book,I,k,193,2,1333.0999999046326,387256.2000000477,8094,WL,A,7.0
3,15.978999853134155,learn,44021.000146865845,Thu Mar 26 2026 13:26:47 GMT-0500 (Central Daylight Time),388922.59999990463,A,bookenter,I,enter,310,2,1666.3999998569489,387256.2000000477,8094,WL,A,7.0
3,16.546000003814697,learn,43453.9999961853,Thu Mar 26 2026 13:26:47 GMT-0500 (Central Daylight Time),389489.2999999523,A,r,I,r,552,2,566.5,388922.7999999523,8094,WL,A,8.0
3,16.860999822616577,learn,43139.00017738342,Thu Mar 26 2026 13:26:47 GMT-0500 (Central Daylight Time),389804.40000009537,A,ru,I,u,296,2,881.6000001430511,388922.7999999523,8094,WL,A,8.0
3,17.044999837875366,learn,42955.000162124634,Thu Mar 26 2026 13:26:47 GMT-0500 (Central Daylight Time),389988.2999999523,A,rug,I,g,164,2,1065.5,388922.7999999523,8094,WL,A,8.0
3,17.328999996185303,learn,42671.0000038147,Thu Mar 26 2026 13:26:47 GMT-0500 (Central Daylight Time),390271.7000000477,A,rugenter,I,enter,278,2,1348.9000000953674,388922.7999999523,8094,WL,A,8.0
3,26.857999801635742,learn,33142.00019836426,Thu Mar 26 2026 13:26:47 GMT-0500 (Central Daylight Time),399801.40000009537,A,f,I,f,9523,2,9529.400000095367,390272.0,8094,WL,A,9.0
3,27.174999952316284,learn,32825.000047683716,Thu Mar 26 2026 13:26:47 GMT-0500 (Central Daylight Time),400117.7999999523,A,fi,I,i,294,2,9845.799999952316,390272.0,8094,WL,A,9.0
3,27.491999864578247,learn,32508.000135421753,Thu Mar 26 2026 13:26:47 GMT-0500 (Central Daylight Time),400435.09999990463,A,fin,I,n,301,2,10163.099999904633,390272.0,8094,WL,A,9.0
3,27.774999856948853,learn,32225.000143051147,Thu Mar 26 2026 13:26:47 GMT-0500 (Central Daylight Time),400718.40000009537,A,fing,I,g,271,2,10446.400000095367,390272.0,8094,WL,A,9.0
3,28.008999824523926,learn,31991.000175476074,Thu Mar 26 2026 13:26:47 GMT-0500 (Central Daylight Time),400951.90000009537,A,finge,I,e,220,2,10679.900000095367,390272.0,8094,WL,A,9.0
3,28.10699987411499,learn,31893.00012588501,Thu Mar 26 2026 13:26:47 GMT-0500 (Central Daylight Time),401050.2000000477,A,finger,I,r,81,2,10778.200000047684,390272.0,8094,WL,A,9.0
3,28.473999977111816,learn,31526.000022888184,Thu Mar 26 2026 13:26:47 GMT-0500 (Central Daylight Time),401417.40000009537,A,fingerenter,I,enter,360,2,11145.400000095367,390272.0,8094,WL,A,9.0
3,30.455999851226807,learn,29544.000148773193,Thu Mar 26 2026 13:26:47 GMT-0500 (Central Daylight Time),403399.5,A,m,I,m,1976,2,1981.7999999523163,401417.7000000477,8094,WL,A,10.0
3,30.673999786376953,learn,29326.000213623047,Thu Mar 26 2026 13:26:47 GMT-0500 (Central Daylight Time),403617.0,A,me,I,e,210,2,2199.2999999523163,401417.7000000477,8094,WL,A,10.0
3,30.94099998474121,learn,29059.00001525879,Thu Mar 26 2026 13:26:47 GMT-0500 (Central Daylight Time),403884.0,A,mea,I,a,249,2,2466.2999999523163,401417.7000000477,8094,WL,A,10.0
3,31.188999891281128,learn,28811.000108718872,Thu Mar 26 2026 13:26:47 GMT-0500 (Central Daylight Time),404133.7000000477,A,mead,I,d,228,2,2716.0,401417.7000000477,8094,WL,A,10.0
3,31.406999826431274,learn,28593.000173568726,Thu Mar 26 2026 13:26:47 GMT-0500 (Central Daylight Time),404350.40000009537,A,meado,I,o,202,2,2932.7000000476837,401417.7000000477,8094,WL,A,10.0
3,31.5239999294281,learn,28476.0000705719,Thu Mar 26 2026 13:26:47 GMT-0500 (Central Daylight Time),404466.7000000477,A,meadow,I,w,99,2,3049.0,401417.7000000477,8094,WL,A,10.0
3,31.79199981689453,learn,28208.00018310547,Thu Mar 26 2026 13:26:47 GMT-0500 (Central Daylight Time),404735.09999990463,A,meadowenter,I,enter,262,2,3317.399999856949,401417.7000000477,8094,WL,A,10.0
3,40.620999813079834,learn,19379.000186920166,Thu Mar 26 2026 13:26:47 GMT-0500 (Central Daylight Time),413563.7000000477,A,r,I,r,8811,2,8828.400000095367,404735.2999999523,8094,WL,A,11.0
3,40.78699994087219,learn,19213.000059127808,Thu Mar 26 2026 13:26:47 GMT-0500 (Central Daylight Time),413730.40000009537,A,ru,I,u,151,2,8995.100000143051,404735.2999999523,8094,WL,A,11.0
3,40.9210000038147,learn,19078.999996185303,Thu Mar 26 2026 13:26:47 GMT-0500 (Central Daylight Time),413863.90000009537,A,rug,I,g,121,2,9128.600000143051,404735.2999999523,8094,WL,A,11.0
3,41.18599987030029,learn,18814.000129699707,Thu Mar 26 2026 13:26:47 GMT-0500 (Central Daylight Time),414129.2999999523,A,rugenter,I,enter,250,2,9394.0,404735.2999999523,8094,WL,A,11.0
3,41.73599982261658,learn,18264.000177383423,Thu Mar 26 2026 13:26:47 GMT-0500 (Central Daylight Time),414679.0,A,k,I,k,537,2,549.4000000953674,414129.59999990463,8094,WL,A,12.0
3,41.90299987792969,learn,18097.000122070312,Thu Mar 26 2026 13:26:47 GMT-0500 (Central Daylight Time),414846.2000000477,A,ke,I,e,155,2,716.6000001430511,414129.59999990463,8094,WL,A,12.0
3,42.187999963760376,learn,17812.000036239624,Thu Mar 26 2026 13:26:47 GMT-0500 (Central Daylight Time),415130.7999999523,A,key,I,y,274,2,1001.2000000476837,414129.59999990463,8094,WL,A,12.0
3,42.50399994850159,learn,17496.000051498413,Thu Mar 26 2026 13:26:47 GMT-0500 (Central Daylight Time),415446.7999999523,A,keyenter,I,enter,312,2,1317.2000000476837,414129.59999990463,8094,WL,A,12.0
3,50.45099997520447,learn,9549.000024795532,Thu Mar 26 2026 13:26:47 GMT-0500 (Central Daylight Time),423394.40000009537,A,s,I,s,7931,2,7947.300000190735,415447.09999990463,8094,WL,A,13.0
3,50.71599984169006,learn,9284.000158309937,Thu Mar 26 2026 13:26:47 GMT-0500 (Central Daylight Time),423659.7000000477,A,sa,I,a,254,2,8212.600000143051,415447.09999990463,8094,WL,A,13.0
3,50.91699981689453,learn,9083.000183105469,Thu Mar 26 2026 13:26:47 GMT-0500 (Central Daylight Time),423860.59999990463,A,sal,I,l,183,2,8413.5,415447.09999990463,8094,WL,A,13.0
3,51.365999937057495,learn,8634.000062942505,Thu Mar 26 2026 13:26:47 GMT-0500 (Central Daylight Time),424309.59999990463,A,salt,I,t,436,2,8862.5,415447.09999990463,8094,WL,A,13.0
3,51.81599998474121,learn,8184.000015258789,Thu Mar 26 2026 13:26:47 GMT-0500 (Central Daylight Time),424759.7000000477,A,saltenter,I,enter,444,2,9312.600000143051,415447.09999990463,8094,WL,A,13.0
3,57.04899978637695,learn,2951.000213623047,Thu Mar 26 2026 13:26:47 GMT-0500 (Central Daylight Time),429992.2000000477,A,h,I,h,5228,2,5232.200000047684,424760.0,8094,WL,A,14.0
3,57.282999992370605,learn,2717.0000076293945,Thu Mar 26 2026 13:26:47 GMT-0500 (Central Daylight Time),430226.2999999523,A,ha,I,a,228,2,5466.299999952316,424760.0,8094,WL,A,14.0
3,57.6489999294281,learn,2351.0000705718994,Thu Mar 26 2026 13:26:47 GMT-0500 (Central Daylight Time),430592.5,A,har,I,r,346,2,5832.5,424760.0,8094,WL,A,14.0
3,57.88099980354309,learn,2119.000196456909,Thu Mar 26 2026 13:26:47 GMT-0500 (Central Daylight Time),430824.7999999523,A,harp,I,p,216,2,6064.799999952316,424760.0,8094,WL,A,14.0
3,58.264999866485596,learn,1735.0001335144043,Thu Mar 26 2026 13:26:47 GMT-0500 (Central Daylight Time),431208.7000000477,A,harpenter,I,enter,375,2,6448.700000047684,424760.0,8094,WL,A,14.0
3,60.014999866485596,learn,-14.999866485595703,Thu Mar 26 2026 13:26:47 GMT-0500 (Central Daylight Time),432958.5,A,None,I,None,1744,2,1749.5,431209.0,8094,WL,A,15.0
4,0.48200011253356934,learn,59517.99988746643,Thu Mar 26 2026 13:26:47 GMT-0500 (Central Daylight Time),499320.09999990463,A,a,I,a,460,2,481.89999985694885,498838.2000000477,8094,WL,A,1.0
4,1.2980000972747803,learn,58701.99990272522,Thu Mar 26 2026 13:26:47 GMT-0500 (Central Daylight Time),500135.59999990463,A,ap,I,p,803,2,1297.3999998569489,498838.2000000477,8094,WL,A,1.0
4,1.4650001525878906,learn,58534.99984741211,Thu Mar 26 2026 13:26:47 GMT-0500 (Central Daylight Time),500302.7999999523,A,app,I,p,147,2,1464.5999999046326,498838.2000000477,8094,WL,A,1.0
4,1.63100004196167,learn,58368.99995803833,Thu Mar 26 2026 13:26:47 GMT-0500 (Central Daylight Time),500469.2000000477,A,appl,I,l,154,2,1631.0,498838.2000000477,8094,WL,A,1.0
4,1.8650000095367432,learn,58134.99999046326,Thu Mar 26 2026 13:26:47 GMT-0500 (Central Daylight Time),500702.2000000477,A,apple,I,e,214,2,1864.0,498838.2000000477,8094,WL,A,1.0
4,2.246999979019165,learn,57753.000020980835,Thu Mar 26 2026 13:26:47 GMT-0500 (Central Daylight Time),501085.2000000477,A,appleenter,I,enter,362,2,2247.0,498838.2000000477,8094,WL,A,1.0
4,2.9150002002716064,learn,57084.99979972839,Thu Mar 26 2026 13:26:47 GMT-0500 (Central Daylight Time),501752.7000000477,A,c,I,c,660,2,667.2000000476837,501085.5,8094,WL,A,2.0
4,3.246999979019165,learn,56753.000020980835,Thu Mar 26 2026 13:26:47 GMT-0500 (Central Daylight Time),502084.7999999523,A,ch,I,h,322,2,999.2999999523163,501085.5,8094,WL,A,2.0
4,3.4639999866485596,learn,56536.00001335144,Thu Mar 26 2026 13:26:47 GMT-0500 (Central Daylight Time),502301.7000000477,A,chi,I,i,211,2,1216.2000000476837,501085.5,8094,WL,A,2.0
4,3.864000082015991,learn,56135.99991798401,Thu Mar 26 2026 13:26:47 GMT-0500 (Central Daylight Time),502701.5,A,chim,I,m,396,2,1616.0,501085.5,8094,WL,A,2.0
4,4.115000009536743,learn,55884.99999046326,Thu Mar 26 2026 13:26:47 GMT-0500 (Central Daylight Time),502952.7000000477,A,chimn,I,n,245,2,1867.2000000476837,501085.5,8094,WL,A,2.0
4,4.447000026702881,learn,55552.99997329712,Thu Mar 26 2026 13:26:47 GMT-0500 (Central Daylight Time),503284.40000009537,A,chimne,I,e,320,2,2198.9000000953674,501085.5,8094,WL,A,2.0
4,4.696000099182129,learn,55303.99990081787,Thu Mar 26 2026 13:26:47 GMT-0500 (Central Daylight Time),503534.09999990463,A,chimney,I,y,244,2,2448.5999999046326,501085.5,8094,WL,A,2.0
4,5.130000114440918,learn,54869.99988555908,Thu Mar 26 2026 13:26:47 GMT-0500 (Central Daylight Time),503968.2000000477,A,chimneyenter,I,enter,419,2,2882.7000000476837,501085.5,8094,WL,A,2.0
4,5.648000001907349,learn,54351.99999809265,Thu Mar 26 2026 13:26:47 GMT-0500 (Central Daylight Time),504485.2999999523,A,r,I,r,505,2,516.8999998569489,503968.40000009537,8094,WL,A,3.0
4,6.130000114440918,learn,53869.99988555908,Thu Mar 26 2026 13:26:47 GMT-0500 (Central Daylight Time),504968.2000000477,A,ra,I,a,459,2,999.7999999523163,503968.40000009537,8094,WL,A,3.0
4,6.496000051498413,learn,53503.99994850159,Thu Mar 26 2026 13:26:47 GMT-0500 (Central Daylight Time),505334.09999990463,A,rat,I,t,351,2,1365.6999998092651,503968.40000009537,8094,WL,A,3.0
4,6.648000001907349,learn,53351.99999809265,Thu Mar 26 2026 13:26:47 GMT-0500 (Central Daylight Time),505485.2000000477,A,ratt,I,t,131,2,1516.7999999523163,503968.40000009537,8094,WL,A,3.0
4,6.796000003814697,learn,53203.9999961853,Thu Mar 26 2026 13:26:47 GMT-0500 (Central Daylight Time),505633.7000000477,A,rattl,I,l,140,2,1665.2999999523163,503968.40000009537,8094,WL,A,3.0
4,7.046000003814697,learn,52953.9999961853,Thu Mar 26 2026 13:26:47 GMT-0500 (Central Daylight Time),505883.5,A,rattle,I,e,230,2,1915.0999999046326,503968.40000009537,8094,WL,A,3.0
4,7.380000114440918,learn,52619.99988555908,Thu Mar 26 2026 13:26:47 GMT-0500 (Central Daylight Time),506217.59999990463,A,rattleenter,I,enter,323,2,2249.199999809265,503968.40000009537,8094,WL,A,3.0
4,8.180000066757202,learn,51819.9999332428,Thu Mar 26 2026 13:26:47 GMT-0500 (Central Daylight Time),507017.2999999523,A,b,I,b,785,2,799.3999998569489,506217.90000009537,8094,WL,A,4.0
4,9.480000019073486,learn,50519.999980926514,Thu Mar 26 2026 13:26:47 GMT-0500 (Central Daylight Time),508317.40000009537,A,bo,I,o,1278,2,2099.5,506217.90000009537,8094,WL,A,4.0
4,9.629000186920166,learn,50370.999813079834,Thu Mar 26 2026 13:26:47 GMT-0500 (Central Daylight Time),508467.0,A,boo,I,o,131,2,2249.0999999046326,506217.90000009537,8094,WL,A,4.0
4,9.828999996185303,learn,50171.0000038147,Thu Mar 26 2026 13:26:47 GMT-0500 (Central Daylight Time),508666.40000009537,A,book,I,k,183,2,2448.5,506217.90000009537,8094,WL,A,4.0
4,10.11300015449524,learn,49886.99984550476,Thu Mar 26 2026 13:26:47 GMT-0500 (Central Daylight Time),508950.7000000477,A,bookenter,I,enter,272,2,2732.7999999523163,506217.90000009537,8094,WL,A,4.0
4,10.545000076293945,learn,49454.999923706055,Thu Mar 26 2026 13:26:47 GMT-0500 (Central Daylight Time),509382.7000000477,A,f,I,f,426,2,431.7000000476837,508951.0,8094,WL,A,5.0
4,10.779000043869019,learn,49220.99995613098,Thu Mar 26 2026 13:26:47 GMT-0500 (Central Daylight Time),509616.90000009537,A,fl,I,l,229,2,665.9000000953674,508951.0,8094,WL,A,5.0
4,10.996000051498413,learn,49003.99994850159,Thu Mar 26 2026 13:26:47 GMT-0500 (Central Daylight Time),509833.59999990463,A,flo,I,o,200,2,882.5999999046326,508951.0,8094,WL,A,5.0
4,11.11300015449524,learn,48886.99984550476,Thu Mar 26 2026 13:26:47 GMT-0500 (Central Daylight Time),509950.2000000477,A,flow,I,w,105,2,999.2000000476837,508951.0,8094,WL,A,5.0
4,11.328999996185303,learn,48671.0000038147,Thu Mar 26 2026 13:26:47 GMT-0500 (Central Daylight Time),510167.0,A,flowe,I,e,211,2,1216.0,508951.0,8094,WL,A,5.0
4,11.546000003814697,learn,48453.9999961853,Thu Mar 26 2026 13:26:47 GMT-0500 (Central Daylight Time),510383.2000000477,A,flower,I,r,201,2,1432.2000000476837,508951.0,8094,WL,A,5.0
4,11.92799997329712,learn,48072.00002670288,Thu Mar 26 2026 13:26:47 GMT-0500 (Central Daylight Time),510765.40000009537,A,flowerenter,I,enter,371,2,1814.4000000953674,508951.0,8094,WL,A,5.0
4,15.84500002861023,learn,44154.99997138977,Thu Mar 26 2026 13:26:47 GMT-0500 (Central Daylight Time),514682.09999990463,A,s,I,s,3902,2,3916.5,510765.59999990463,8094,WL,A,6.0
4,16.042999982833862,learn,43957.00001716614,Thu Mar 26 2026 13:26:47 GMT-0500 (Central Daylight Time),514880.5,A,sa,I,a,183,2,4114.900000095367,510765.59999990463,8094,WL,A,6.0
4,16.276000022888184,learn,43723.99997711182,Thu Mar 26 2026 13:26:47 GMT-0500 (Central Daylight Time),515113.5,A,sal,I,l,216,2,4347.900000095367,510765.59999990463,8094,WL,A,6.0
4,16.542999982833862,learn,43457.00001716614,Thu Mar 26 2026 13:26:47 GMT-0500 (Central Daylight Time),515380.90000009537,A,salt,I,t,246,2,4615.300000190735,510765.59999990463,8094,WL,A,6.0
4,16.8270001411438,learn,43172.9998588562,Thu Mar 26 2026 13:26:47 GMT-0500 (Central Daylight Time),515664.2999999523,A,saltenter,I,enter,268,2,4898.700000047684,510765.59999990463,8094,WL,A,6.0
4,18.009999990463257,learn,41990.00000953674,Thu Mar 26 2026 13:26:47 GMT-0500 (Central Daylight Time),516847.90000009537,A,m,I,m,1171,2,1183.4000000953674,515664.5,8094,WL,A,7.0
4,18.31000018119812,learn,41689.99981880188,Thu Mar 26 2026 13:26:47 GMT-0500 (Central Daylight Time),517147.40000009537,A,me,I,e,282,2,1482.9000000953674,515664.5,8094,WL,A,7.0
4,18.659000158309937,learn,41340.99984169006,Thu Mar 26 2026 13:26:47 GMT-0500 (Central Daylight Time),517496.7000000477,A,mea,I,a,342,2,1832.2000000476837,515664.5,8094,WL,A,7.0
4,19.14400005340576,learn,40855.99994659424,Thu Mar 26 2026 13:26:47 GMT-0500 (Central Daylight Time),517981.40000009537,A,mead,I,d,463,2,2316.9000000953674,515664.5,8094,WL,A,7.0
4,19.377000093460083,learn,40622.99990653992,Thu Mar 26 2026 13:26:47 GMT-0500 (Central Daylight Time),518214.5,A,meado,I,o,212,2,2550.0,515664.5,8094,WL,A,7.0
4,19.558000087738037,learn,40441.99991226196,Thu Mar 26 2026 13:26:47 GMT-0500 (Central Daylight Time),518395.90000009537,A,meadow,I,w,163,2,2731.4000000953674,515664.5,8094,WL,A,7.0
4,19.975000143051147,learn,40024.99985694885,Thu Mar 26 2026 13:26:47 GMT-0500 (Central Daylight Time),518812.7000000477,A,meadowenter,I,enter,406,2,3148.2000000476837,515664.5,8094,WL,A,7.0
4,21.676000118255615,learn,38323.999881744385,Thu Mar 26 2026 13:26:47 GMT-0500 (Central Daylight Time),520513.90000009537,A,r,I,r,1695,2,1701.0,518812.90000009537,8094,WL,A,8.0
4,21.94099998474121,learn,38059.00001525879,Thu Mar 26 2026 13:26:47 GMT-0500 (Central Daylight Time),520778.7999999523,A,ru,I,u,256,2,1965.8999998569489,518812.90000009537,8094,WL,A,8.0
4,22.142000198364258,learn,37857.99980163574,Thu Mar 26 2026 13:26:47 GMT-0500 (Central Daylight Time),520979.40000009537,A,rug,I,g,191,2,2166.5,518812.90000009537,8094,WL,A,8.0
4,22.45800018310547,learn,37541.99981689453,Thu Mar 26 2026 13:26:47 GMT-0500 (Central Daylight Time),521295.2999999523,A,rugenter,I,enter,302,2,2482.399999856949,518812.90000009537,8094,WL,A,8.0
4,22.94099998474121,learn,37059.00001525879,Thu Mar 26 2026 13:26:47 GMT-0500 (Central Daylight Time),521778.5,A,k,I,k,466,2,482.90000009536743,521295.59999990463,8094,WL,A,9.0
4,23.141000032424927,learn,36858.99996757507,Thu Mar 26 2026 13:26:47 GMT-0500 (Central Daylight Time),521979.0,A,ke,I,e,193,2,683.4000000953674,521295.59999990463,8094,WL,A,9.0
4,23.45800018310547,learn,36541.99981689453,Thu Mar 26 2026 13:26:47 GMT-0500 (Central Daylight Time),522295.7999999523,A,key,I,y,298,2,1000.2000000476837,521295.59999990463,8094,WL,A,9.0
4,23.825000047683716,learn,36174.999952316284,Thu Mar 26 2026 13:26:47 GMT-0500 (Central Daylight Time),522663.0,A,keyenter,I,enter,355,2,1367.4000000953674,521295.59999990463,8094,WL,A,9.0
4,24.325000047683716,learn,35674.999952316284,Thu Mar 26 2026 13:26:47 GMT-0500 (Central Daylight Time),523162.2000000477,A,g,I,g,482,2,499.0,522663.2000000477,8094,WL,A,10.0
4,24.473999977111816,learn,35526.00002288818,Thu Mar 26 2026 13:26:47 GMT-0500 (Central Daylight Time),523311.40000009537,A,go,I,o,136,2,648.2000000476837,522663.2000000477,8094,WL,A,10.0
4,24.707000017166138,learn,35292.99998283386,Thu Mar 26 2026 13:26:47 GMT-0500 (Central Daylight Time),523544.90000009537,A,gol,I,l,218,2,881.7000000476837,522663.2000000477,8094,WL,A,10.0
4,24.85800004005432,learn,35141.99995994568,Thu Mar 26 2026 13:26:47 GMT-0500 (Central Daylight Time),523695.59999990463,A,gold,I,d,130,2,1032.3999998569489,522663.2000000477,8094,WL,A,10.0
4,25.124000072479248,learn,34875.99992752075,Thu Mar 26 2026 13:26:47 GMT-0500 (Central Daylight Time),523961.2000000477,A,goldenter,I,enter,250,2,1298.0,522663.2000000477,8094,WL,A,10.0
4,30.856000185012817,learn,29143.999814987183,Thu Mar 26 2026 13:26:47 GMT-0500 (Central Daylight Time),529693.7000000477,A,s,I,s,5721,2,5732.200000047684,523961.5,8094,WL,A,11.0
4,31.07200002670288,learn,28927.99997329712,Thu Mar 26 2026 13:26:47 GMT-0500 (Central Daylight Time),529909.7999999523,A,sa,I,a,204,2,5948.299999952316,523961.5,8094,WL,A,11.0
4,31.323000192642212,learn,28676.999807357788,Thu Mar 26 2026 13:26:47 GMT-0500 (Central Daylight Time),530161.0999999046,A,sal,I,l,245,2,6199.599999904633,523961.5,8094,WL,A,11.0
4,31.6560001373291,learn,28343.9998626709,Thu Mar 26 2026 13:26:47 GMT-0500 (Central Daylight Time),530493.2000000477,A,salt,I,t,311,2,6531.700000047684,523961.5,8094,WL,A,11.0
4,31.97100019454956,learn,28028.99980545044,Thu Mar 26 2026 13:26:47 GMT-0500 (Central Daylight Time),530808.4000000954,A,saltenter,I,enter,311,2,6846.900000095367,523961.5,8094,WL,A,11.0
4,33.72000002861023,learn,26279.99997138977,Thu Mar 26 2026 13:26:47 GMT-0500 (Central Daylight Time),532558.0999999046,A,h,I,h,1737,2,1749.5,530808.5999999046,8094,WL,A,12.0
4,33.9060001373291,learn,26093.9998626709,Thu Mar 26 2026 13:26:47 GMT-0500 (Central Daylight Time),532744.2000000477,A,ha,I,a,163,2,1935.6000001430511,530808.5999999046,8094,WL,A,12.0
4,34.271000146865845,learn,25728.999853134155,Thu Mar 26 2026 13:26:47 GMT-0500 (Central Daylight Time),533109.0999999046,A,har,I,r,355,2,2300.5,530808.5999999046,8094,WL,A,12.0
4,34.57100009918213,learn,25428.99990081787,Thu Mar 26 2026 13:26:47 GMT-0500 (Central Daylight Time),533409.0,A,harp,I,p,293,2,2600.4000000953674,530808.5999999046,8094,WL,A,12.0
4,34.938000202178955,learn,25061.999797821045,Thu Mar 26 2026 13:26:47 GMT-0500 (Central Daylight Time),533775.4000000954,A,harpenter,I,enter,352,2,2966.800000190735,530808.5999999046,8094,WL,A,12.0
4,36.85199999809265,learn,23148.00000190735,Thu Mar 26 2026 13:26:47 GMT-0500 (Central Daylight Time),535689.7999999523,A,b,I,b,1906,2,1914.0999999046326,533775.7000000477,8094,WL,A,13.0
4,37.12000012397766,learn,22879.99987602234,Thu Mar 26 2026 13:26:47 GMT-0500 (Central Daylight Time),535957.5,A,bu,I,u,253,2,2181.7999999523163,533775.7000000477,8094,WL,A,13.0
4,37.354000091552734,learn,22645.999908447266,Thu Mar 26 2026 13:26:47 GMT-0500 (Central Daylight Time),536191.7000000477,A,but,I,t,229,2,2416.0,533775.7000000477,8094,WL,A,13.0
4,37.50200009346008,learn,22497.999906539917,Thu Mar 26 2026 13:26:47 GMT-0500 (Central Daylight Time),536339.9000000954,A,butt,I,t,126,2,2564.2000000476837,533775.7000000477,8094,WL,A,13.0
4,37.66900014877319,learn,22330.999851226807,Thu Mar 26 2026 13:26:47 GMT-0500 (Central Daylight Time),536506.4000000954,A,butto,I,o,151,2,2730.7000000476837,533775.7000000477,8094,WL,A,13.0
4,37.937000036239624,learn,22062.999963760376,Thu Mar 26 2026 13:26:47 GMT-0500 (Central Daylight Time),536775.2000000477,A,button,I,n,259,2,2999.5,533775.7000000477,8094,WL,A,13.0
4,38.236000061035156,learn,21763.999938964844,Thu Mar 26 2026 13:26:47 GMT-0500 (Central Daylight Time),537074.0,A,buttonenter,I,enter,291,2,3298.2999999523163,533775.7000000477,8094,WL,A,13.0
4,41.68600010871887,learn,18313.999891281128,Thu Mar 26 2026 13:26:47 GMT-0500 (Central Daylight Time),540524.2000000477,A,f,I,f,3441,2,3450.0,537074.2000000477,8094,WL,A,14.0
4,41.88499999046326,learn,18115.000009536743,Thu Mar 26 2026 13:26:47 GMT-0500 (Central Daylight Time),540723.2000000477,A,fi,I,i,191,2,3649.0,537074.2000000477,8094,WL,A,14.0
4,42.20300006866455,learn,17796.99993133545,Thu Mar 26 2026 13:26:47 GMT-0500 (Central Daylight Time),541040.9000000954,A,fin,I,n,311,2,3966.7000000476837,537074.2000000477,8094,WL,A,14.0
4,42.43500018119812,learn,17564.99981880188,Thu Mar 26 2026 13:26:47 GMT-0500 (Central Daylight Time),541273.4000000954,A,fing,I,g,217,2,4199.200000047684,537074.2000000477,8094,WL,A,14.0
4,42.652000188827515,learn,17347.999811172485,Thu Mar 26 2026 13:26:47 GMT-0500 (Central Daylight Time),541489.5999999046,A,finge,I,e,201,2,4415.399999856949,537074.2000000477,8094,WL,A,14.0
4,42.78500008583069,learn,17214.99991416931,Thu Mar 26 2026 13:26:47 GMT-0500 (Central Daylight Time),541622.9000000954,A,finger,I,r,120,2,4548.700000047684,537074.2000000477,8094,WL,A,14.0
4,43.117000102996826,learn,16882.999897003174,Thu Mar 26 2026 13:26:47 GMT-0500 (Central Daylight Time),541954.4000000954,A,fingerenter,I,enter,323,2,4880.200000047684,537074.2000000477,8094,WL,A,14.0
4,47.71600008010864,learn,12283.999919891357,Thu Mar 26 2026 13:26:47 GMT-0500 (Central Daylight Time),546554.0,A,a,I,a,4592,2,4599.299999952316,541954.7000000477,8094,WL,A,15.0
4,47.967000007629395,learn,12032.999992370605,Thu Mar 26 2026 13:26:47 GMT-0500 (Central Daylight Time),546805.0,A,ap,I,p,241,2,4850.299999952316,541954.7000000477,8094,WL,A,15.0
4,48.13199996948242,learn,11868.000030517578,Thu Mar 26 2026 13:26:47 GMT-0500 (Central Daylight Time),546969.7999999523,A,app,I,p,158,2,5015.099999904633,541954.7000000477,8094,WL,A,15.0
4,48.31500005722046,learn,11684.999942779541,Thu Mar 26 2026 13:26:47 GMT-0500 (Central Daylight Time),547152.7000000477,A,appl,I,l,168,2,5198.0,541954.7000000477,8094,WL,A,15.0
4,48.56500005722046,learn,11434.999942779541,Thu Mar 26 2026 13:26:47 GMT-0500 (Central Daylight Time),547402.7000000477,A,apple,I,e,242,2,5448.0,541954.7000000477,8094,WL,A,15.0
4,48.78200006484985,learn,11217.999935150146,Thu Mar 26 2026 13:26:47 GMT-0500 (Central Daylight Time),547619.5999999046,A,appleenter,I,enter,206,2,5664.899999856949,541954.7000000477,8094,WL,A,15.0
5,0.4659998416900635,learn,60000.0,Thu Mar 26 2026 13:26:47 GMT-0500 (Central Daylight Time),612999.4000000954,A,l,I,l,454,2,466.40000009536743,612533.0,8094,WL,A,1.0
5,0.7149999141693115,learn,60000.0,Thu Mar 26 2026 13:26:47 GMT-0500 (Central Daylight Time),613248.5999999046,A,lo,I,o,227,2,715.5999999046326,612533.0,8094,WL,A,1.0
5,0.8819999694824219,learn,60000.0,Thu Mar 26 2026 13:26:47 GMT-0500 (Central Daylight Time),613415.2999999523,A,log,I,g,161,2,882.2999999523163,612533.0,8094,WL,A,1.0
5,1.182999849319458,learn,60000.0,Thu Mar 26 2026 13:26:47 GMT-0500 (Central Daylight Time),613715.9000000954,A,logenter,I,enter,284,2,1182.9000000953674,612533.0,8094,WL,A,1.0
5,2.6480000019073486,learn,60000.0,Thu Mar 26 2026 13:26:47 GMT-0500 (Central Daylight Time),615181.0,A,r,I,r,1445,2,1464.7999999523163,613716.2000000477,8094,WL,A,2.0
5,3.0979998111724854,learn,60000.0,Thu Mar 26 2026 13:26:47 GMT-0500 (Central Daylight Time),615630.7999999523,A,ra,I,a,437,2,1914.5999999046326,613716.2000000477,8094,WL,A,2.0
5,3.56499981880188,learn,60000.0,Thu Mar 26 2026 13:26:47 GMT-0500 (Central Daylight Time),616098.2000000477,A,rat,I,t,452,2,2382.0,613716.2000000477,8094,WL,A,2.0
5,3.7159998416900635,learn,60000.0,Thu Mar 26 2026 13:26:47 GMT-0500 (Central Daylight Time),616249.0999999046,A,ratt,I,t,134,2,2532.899999856949,613716.2000000477,8094,WL,A,2.0
5,3.9149999618530273,learn,60000.0,Thu Mar 26 2026 13:26:47 GMT-0500 (Central Daylight Time),616448.2999999523,A,rattl,I,l,184,2,2732.0999999046326,613716.2000000477,8094,WL,A,2.0
5,4.082000017166138,learn,60000.0,Thu Mar 26 2026 13:26:47 GMT-0500 (Central Daylight Time),616614.7999999523,A,rattle,I,e,162,2,2898.5999999046326,613716.2000000477,8094,WL,A,2.0
5,4.430999994277954,learn,60000.0,Thu Mar 26 2026 13:26:47 GMT-0500 (Central Daylight Time),616963.9000000954,A,rattleenter,I,enter,332,2,3247.7000000476837,613716.2000000477,8094,WL,A,2.0
5,5.062999963760376,learn,60000.0,Thu Mar 26 2026 13:26:47 GMT-0500 (Central Daylight Time),617596.5,A,g,I,g,620,2,632.2999999523163,616964.2000000477,8094,WL,A,3.0
5,5.263999938964844,learn,60000.0,Thu Mar 26 2026 13:26:47 GMT-0500 (Central Daylight Time),617797.5,A,go,I,o,190,2,833.2999999523163,616964.2000000477,8094,WL,A,3.0
5,5.480999946594238,learn,60000.0,Thu Mar 26 2026 13:26:47 GMT-0500 (Central Daylight Time),618014.4000000954,A,gol,I,l,197,2,1050.2000000476837,616964.2000000477,8094,WL,A,3.0
5,5.597999811172485,learn,60000.0,Thu Mar 26 2026 13:26:47 GMT-0500 (Central Daylight Time),618131.5,A,gold,I,d,108,2,1167.2999999523163,616964.2000000477,8094,WL,A,3.0
5,5.880999803543091,learn,60000.0,Thu Mar 26 2026 13:26:47 GMT-0500 (Central Daylight Time),618414.0999999046,A,goldenter,I,enter,279,2,1449.8999998569489,616964.2000000477,8094,WL,A,3.0
5,6.380999803543091,learn,60000.0,Thu Mar 26 2026 13:26:47 GMT-0500 (Central Daylight Time),618914.4000000954,A,a,I,a,484,2,500.10000014305115,618414.2999999523,8094,WL,A,4.0
5,6.680999994277954,learn,60000.0,Thu Mar 26 2026 13:26:47 GMT-0500 (Central Daylight Time),619213.9000000954,A,ap,I,p,286,2,799.6000001430511,618414.2999999523,8094,WL,A,4.0
5,6.846999883651733,learn,60000.0,Thu Mar 26 2026 13:26:47 GMT-0500 (Central Daylight Time),619380.5,A,app,I,p,157,2,966.2000000476837,618414.2999999523,8094,WL,A,4.0
5,7.014999866485596,learn,60000.0,Thu Mar 26 2026 13:26:47 GMT-0500 (Central Daylight Time),619548.0,A,appl,I,l,149,2,1133.7000000476837,618414.2999999523,8094,WL,A,4.0
5,7.179999828338623,learn,60000.0,Thu Mar 26 2026 13:26:47 GMT-0500 (Central Daylight Time),619713.4000000954,A,apple,I,e,158,2,1299.1000001430511,618414.2999999523,8094,WL,A,4.0
5,7.513000011444092,learn,60000.0,Thu Mar 26 2026 13:26:47 GMT-0500 (Central Daylight Time),620046.2999999523,A,appleenter,I,enter,322,2,1632.0,618414.2999999523,8094,WL,A,4.0
5,8.77999997138977,learn,60000.0,Thu Mar 26 2026 13:26:47 GMT-0500 (Central Daylight Time),621313.0999999046,A,r,I,r,1253,2,1266.5,620046.5999999046,8094,WL,A,5.0
5,9.129999876022339,learn,60000.0,Thu Mar 26 2026 13:26:47 GMT-0500 (Central Daylight Time),621662.9000000954,A,ru,I,u,338,2,1616.3000001907349,620046.5999999046,8094,WL,A,5.0
5,9.312999963760376,learn,60000.0,Thu Mar 26 2026 13:26:47 GMT-0500 (Central Daylight Time),621845.9000000954,A,rug,I,g,180,2,1799.3000001907349,620046.5999999046,8094,WL,A,5.0
5,9.611999988555908,learn,60000.0,Thu Mar 26 2026 13:26:47 GMT-0500 (Central Daylight Time),622145.4000000954,A,rugenter,I,enter,293,2,2098.800000190735,620046.5999999046,8094,WL,A,5.0
5,10.628999948501587,learn,60000.0,Thu Mar 26 2026 13:26:47 GMT-0500 (Central Daylight Time),623162.5,A,b,I,b,1010,2,1016.7999999523163,622145.7000000477,8094,WL,A,6.0
5,10.86299991607666,learn,60000.0,Thu Mar 26 2026 13:26:47 GMT-0500 (Central Daylight Time),623396.4000000954,A,bo,I,o,217,2,1250.7000000476837,622145.7000000477,8094,WL,A,6.0
5,11.013000011444092,learn,60000.0,Thu Mar 26 2026 13:26:47 GMT-0500 (Central Daylight Time),623546.0,A,boo,I,o,142,2,1400.2999999523163,622145.7000000477,8094,WL,A,6.0
5,11.211999893188477,learn,60000.0,Thu Mar 26 2026 13:26:47 GMT-0500 (Central Daylight Time),623745.0,A,book,I,k,192,2,1599.2999999523163,622145.7000000477,8094,WL,A,6.0
5,11.494999885559082,learn,60000.0,Thu Mar 26 2026 13:26:47 GMT-0500 (Central Daylight Time),624028.2999999523,A,bookenter,I,enter,265,2,1882.5999999046326,622145.7000000477,8094,WL,A,6.0
5,12.061999797821045,learn,60000.0,Thu Mar 26 2026 13:26:47 GMT-0500 (Central Daylight Time),624595.4000000954,A,m,I,m,559,2,566.9000000953674,624028.5,8094,WL,A,7.0
5,12.263000011444092,learn,60000.0,Thu Mar 26 2026 13:26:47 GMT-0500 (Central Daylight Time),624796.0999999046,A,me,I,e,191,2,767.5999999046326,624028.5,8094,WL,A,7.0
5,12.51199984550476,learn,60000.0,Thu Mar 26 2026 13:26:47 GMT-0500 (Central Daylight Time),625045.5999999046,A,mea,I,a,230,2,1017.0999999046326,624028.5,8094,WL,A,7.0
5,12.744999885559082,learn,60000.0,Thu Mar 26 2026 13:26:47 GMT-0500 (Central Daylight Time),625278.5,A,mead,I,d,213,2,1250.0,624028.5,8094,WL,A,7.0
5,12.978999853134155,learn,60000.0,Thu Mar 26 2026 13:26:47 GMT-0500 (Central Daylight Time),625512.5,A,meado,I,o,220,2,1484.0,624028.5,8094,WL,A,7.0
5,13.095999956130981,learn,60000.0,Thu Mar 26 2026 13:26:47 GMT-0500 (Central Daylight Time),625629.0,A,meadow,I,w,98,2,1600.5,624028.5,8094,WL,A,7.0
5,13.378999948501587,learn,60000.0,Thu Mar 26 2026 13:26:47 GMT-0500 (Central Daylight Time),625912.4000000954,A,meadowenter,I,enter,264,2,1883.9000000953674,624028.5,8094,WL,A,7.0
5,16.461999893188477,learn,60000.0,Thu Mar 26 2026 13:26:47 GMT-0500 (Central Daylight Time),628995.4000000954,A,s,I,s,3075,2,3082.9000000953674,625912.5,8094,WL,A,8.0
5,16.643999814987183,learn,60000.0,Thu Mar 26 2026 13:26:47 GMT-0500 (Central Daylight Time),629177.5,A,sa,I,a,174,2,3265.0,625912.5,8094,WL,A,8.0
5,16.878000020980835,learn,60000.0,Thu Mar 26 2026 13:26:47 GMT-0500 (Central Daylight Time),629411.2000000477,A,sal,I,l,225,2,3498.7000000476837,625912.5,8094,WL,A,8.0
5,17.16100001335144,learn,60000.0,Thu Mar 26 2026 13:26:47 GMT-0500 (Central Daylight Time),629694.5,A,salt,I,t,270,2,3782.0,625912.5,8094,WL,A,8.0
5,17.448999881744385,learn,60000.0,Thu Mar 26 2026 13:26:47 GMT-0500 (Central Daylight Time),629981.9000000954,A,saltenter,I,enter,276,2,4069.4000000953674,625912.5,8094,WL,A,8.0
5,21.125999927520752,learn,60000.0,Thu Mar 26 2026 13:26:47 GMT-0500 (Central Daylight Time),633659.4000000954,A,h,I,h,3661,2,3677.2000000476837,629982.2000000477,8094,WL,A,9.0
5,21.375,learn,60000.0,Thu Mar 26 2026 13:26:47 GMT-0500 (Central Daylight Time),633908.2999999523,A,ha,I,a,238,2,3926.0999999046326,629982.2000000477,8094,WL,A,9.0
5,21.65999984741211,learn,60000.0,Thu Mar 26 2026 13:26:47 GMT-0500 (Central Daylight Time),634192.7999999523,A,har,I,r,282,2,4210.599999904633,629982.2000000477,8094,WL,A,9.0
5,21.95899987220764,learn,60000.0,Thu Mar 26 2026 13:26:47 GMT-0500 (Central Daylight Time),634491.9000000954,A,harp,I,p,289,2,4509.700000047684,629982.2000000477,8094,WL,A,9.0
5,22.30900001525879,learn,60000.0,Thu Mar 26 2026 13:26:47 GMT-0500 (Central Daylight Time),634842.2000000477,A,harpenter,I,enter,343,2,4860.0,629982.2000000477,8094,WL,A,9.0
5,27.156999826431274,learn,60000.0,Thu Mar 26 2026 13:26:47 GMT-0500 (Central Daylight Time),639690.5999999046,A,r,I,r,4833,2,4848.299999952316,634842.2999999523,8094,WL,A,10.0
5,27.45899987220764,learn,60000.0,Thu Mar 26 2026 13:26:47 GMT-0500 (Central Daylight Time),639991.7000000477,A,ru,I,u,288,2,5149.400000095367,634842.2999999523,8094,WL,A,10.0
5,27.656999826431274,learn,60000.0,Thu Mar 26 2026 13:26:47 GMT-0500 (Central Daylight Time),640190.4000000954,A,rug,I,g,187,2,5348.100000143051,634842.2999999523,8094,WL,A,10.0
5,27.990999937057495,learn,60000.0,Thu Mar 26 2026 13:26:47 GMT-0500 (Central Daylight Time),640524.0999999046,A,rugenter,I,enter,324,2,5681.799999952316,634842.2999999523,8094,WL,A,10.0
5,30.655999898910522,learn,60000.0,Thu Mar 26 2026 13:26:47 GMT-0500 (Central Daylight Time),643189.2999999523,A,f,I,f,2654,2,2664.7999999523163,640524.5,8094,WL,A,11.0
5,30.872999906539917,learn,60000.0,Thu Mar 26 2026 13:26:47 GMT-0500 (Central Daylight Time),643405.7999999523,A,fi,I,i,198,2,2881.2999999523163,640524.5,8094,WL,A,11.0
5,31.141000032424927,learn,60000.0,Thu Mar 26 2026 13:26:47 GMT-0500 (Central Daylight Time),643673.7999999523,A,fin,I,n,253,2,3149.2999999523163,640524.5,8094,WL,A,11.0
5,31.289999961853027,learn,60000.0,Thu Mar 26 2026 13:26:47 GMT-0500 (Central Daylight Time),643823.0,A,fing,I,g,135,2,3298.5,640524.5,8094,WL,A,11.0
5,31.50599980354309,learn,60000.0,Thu Mar 26 2026 13:26:47 GMT-0500 (Central Daylight Time),644038.9000000954,A,finge,I,e,204,2,3514.4000000953674,640524.5,8094,WL,A,11.0
5,31.60599994659424,learn,60000.0,Thu Mar 26 2026 13:26:47 GMT-0500 (Central Daylight Time),644139.7000000477,A,finger,I,r,92,2,3615.2000000476837,640524.5,8094,WL,A,11.0
5,31.972999811172485,learn,60000.0,Thu Mar 26 2026 13:26:47 GMT-0500 (Central Daylight Time),644506.4000000954,A,fingerenter,I,enter,359,2,3981.9000000953674,640524.5,8094,WL,A,11.0
5,36.30499982833862,learn,60000.0,Thu Mar 26 2026 13:26:47 GMT-0500 (Central Daylight Time),648838.4000000954,A,b,I,b,4319,2,4331.800000190735,644506.5999999046,8094,WL,A,12.0
5,36.519999980926514,learn,60000.0,Thu Mar 26 2026 13:26:47 GMT-0500 (Central Daylight Time),649053.7000000477,A,bo,I,o,204,2,4547.100000143051,644506.5999999046,8094,WL,A,12.0
5,36.669999837875366,learn,60000.0,Thu Mar 26 2026 13:26:47 GMT-0500 (Central Daylight Time),649203.5999999046,A,boo,I,o,140,2,4697.0,644506.5999999046,8094,WL,A,12.0
5,36.90299987792969,learn,60000.0,Thu Mar 26 2026 13:26:47 GMT-0500 (Central Daylight Time),649436.5,A,book,I,k,214,2,4929.900000095367,644506.5999999046,8094,WL,A,12.0
5,37.1029999256134,learn,60000.0,Thu Mar 26 2026 13:26:47 GMT-0500 (Central Daylight Time),649636.7000000477,A,bookenter,I,enter,190,2,5130.100000143051,644506.5999999046,8094,WL,A,12.0
5,38.23699998855591,learn,60000.0,Thu Mar 26 2026 13:26:47 GMT-0500 (Central Daylight Time),650770.0999999046,A,m,I,m,1118,2,1133.1999998092651,649636.9000000954,8094,WL,A,13.0
5,38.72000002861023,learn,60000.0,Thu Mar 26 2026 13:26:47 GMT-0500 (Central Daylight Time),651253.5999999046,A,me,I,e,465,2,1616.6999998092651,649636.9000000954,8094,WL,A,13.0
5,39.020999908447266,learn,60000.0,Thu Mar 26 2026 13:26:47 GMT-0500 (Central Daylight Time),651553.7999999523,A,mea,I,a,292,2,1916.8999998569489,649636.9000000954,8094,WL,A,13.0
5,39.25399994850159,learn,60000.0,Thu Mar 26 2026 13:26:47 GMT-0500 (Central Daylight Time),651787.5999999046,A,mead,I,d,216,2,2150.699999809265,649636.9000000954,8094,WL,A,13.0
5,39.43599987030029,learn,60000.0,Thu Mar 26 2026 13:26:47 GMT-0500 (Central Daylight Time),651969.5,A,meado,I,o,175,2,2332.5999999046326,649636.9000000954,8094,WL,A,13.0
5,39.50399994850159,learn,60000.0,Thu Mar 26 2026 13:26:47 GMT-0500 (Central Daylight Time),652037.2999999523,A,meadow,I,w,57,2,2400.399999856949,649636.9000000954,8094,WL,A,13.0
5,39.7039999961853,learn,60000.0,Thu Mar 26 2026 13:26:47 GMT-0500 (Central Daylight Time),652237.0999999046,A,meadowenter,I,enter,189,2,2600.199999809265,649636.9000000954,8094,WL,A,13.0
5,46.501999855041504,learn,60000.0,Thu Mar 26 2026 13:26:47 GMT-0500 (Central Daylight Time),659035.0999999046,A,a,I,a,6782,2,6797.899999856949,652237.2000000477,8094,WL,A,14.0
5,46.68400001525879,learn,60000.0,Thu Mar 26 2026 13:26:47 GMT-0500 (Central Daylight Time),659217.7000000477,A,ap,I,p,168,2,6980.5,652237.2000000477,8094,WL,A,14.0
5,46.88499999046326,learn,60000.0,Thu Mar 26 2026 13:26:47 GMT-0500 (Central Daylight Time),659418.4000000954,A,app,I,p,185,2,7181.200000047684,652237.2000000477,8094,WL,A,14.0
5,47.03399991989136,learn,60000.0,Thu Mar 26 2026 13:26:47 GMT-0500 (Central Daylight Time),659567.7000000477,A,appl,I,l,136,2,7330.5,652237.2000000477,8094,WL,A,14.0
5,47.20099997520447,learn,60000.0,Thu Mar 26 2026 13:26:47 GMT-0500 (Central Daylight Time),659734.0999999046,A,apple,I,e,155,2,7496.899999856949,652237.2000000477,8094,WL,A,14.0
5,47.401000022888184,learn,60000.0,Thu Mar 26 2026 13:26:47 GMT-0500 (Central Daylight Time),659934.5999999046,A,appleenter,I,enter,180,2,7697.399999856949,652237.2000000477,8094,WL,A,14.0
5,54.31599998474121,learn,60000.0,Thu Mar 26 2026 13:26:47 GMT-0500 (Central Daylight Time),666849.4000000954,A,s,I,s,6899,2,6914.600000143051,659934.7999999523,8094,WL,A,15.0
5,54.51600003242493,learn,60000.0,Thu Mar 26 2026 13:26:47 GMT-0500 (Central Daylight Time),667049.2000000477,A,sa,I,a,179,2,7114.400000095367,659934.7999999523,8094,WL,A,15.0
5,54.63099980354309,learn,60000.0,Thu Mar 26 2026 13:26:47 GMT-0500 (Central Daylight Time),667164.9000000954,A,sal,I,l,97,2,7230.100000143051,659934.7999999523,8094,WL,A,15.0
5,54.88199996948242,learn,60000.0,Thu Mar 26 2026 13:26:47 GMT-0500 (Central Daylight Time),667415.7999999523,A,salt,I,t,231,2,7481.0,659934.7999999523,8094,WL,A,15.0
5,55.06499981880188,learn,60000.0,Thu Mar 26 2026 13:26:47 GMT-0500 (Central Daylight Time),667598.2999999523,A,saltenter,I,enter,171,2,7663.5,659934.7999999523,8094,WL,A,15.0
6,1.065999984741211,distr,58934.00001525879,Thu Mar 26 2026 13:26:47 GMT-0500 (Central Daylight Time),737625.9000000954,B,c,I,c,1051,2,1065.7000000476837,736560.2000000477,8094,WL,A,1.0
6,1.3659999370574951,distr,58634.000062942505,Thu Mar 26 2026 13:26:47 GMT-0500 (Central Daylight Time),737925.7000000477,B,ch,I,h,281,2,1365.5,736560.2000000477,8094,WL,A,1.0
6,2.2819998264312744,distr,57718.000173568726,Thu Mar 26 2026 13:26:47 GMT-0500 (Central Daylight Time),738841.7000000477,B,cha,I,a,900,2,2281.5,736560.2000000477,8094,WL,A,1.0
6,2.565999984741211,distr,57434.00001525879,Thu Mar 26 2026 13:26:47 GMT-0500 (Central Daylight Time),739125.5,B,chai,I,i,263,2,2565.2999999523163,736560.2000000477,8094,WL,A,1.0
6,2.7659997940063477,distr,57234.00020599365,Thu Mar 26 2026 13:26:47 GMT-0500 (Central Daylight Time),739326.0999999046,B,chair,I,r,198,2,2765.899999856949,736560.2000000477,8094,WL,A,1.0
6,3.0999999046325684,distr,56900.00009536743,Thu Mar 26 2026 13:26:47 GMT-0500 (Central Daylight Time),739659.2000000477,B,chairenter,I,enter,317,2,3099.0,736560.2000000477,8094,WL,A,1.0
6,3.748999834060669,distr,56251.00016593933,Thu Mar 26 2026 13:26:47 GMT-0500 (Central Daylight Time),740309.2000000477,B,b,I,b,631,2,649.7000000476837,739659.5,8094,WL,A,2.0
6,3.998999834060669,distr,56001.00016593933,Thu Mar 26 2026 13:26:47 GMT-0500 (Central Daylight Time),740558.5999999046,B,bo,I,o,238,2,899.0999999046326,739659.5,8094,WL,A,2.0
6,4.365999937057495,distr,55634.000062942505,Thu Mar 26 2026 13:26:47 GMT-0500 (Central Daylight Time),740925.9000000954,B,bow,I,w,356,2,1266.4000000953674,739659.5,8094,WL,A,2.0
6,4.531999826431274,distr,55468.000173568726,Thu Mar 26 2026 13:26:47 GMT-0500 (Central Daylight Time),741091.7000000477,B,bowl,I,l,155,2,1432.2000000476837,739659.5,8094,WL,A,2.0
6,5.081999778747559,distr,54918.00022125244,Thu Mar 26 2026 13:26:47 GMT-0500 (Central Daylight Time),741642.0,B,bowlenter,I,enter,532,2,1982.5,739659.5,8094,WL,A,2.0
6,7.497999906539917,distr,52502.00009346008,Thu Mar 26 2026 13:26:47 GMT-0500 (Central Daylight Time),744057.5999999046,B,s,I,s,2407,2,2415.2999999523163,741642.2999999523,8094,WL,A,3.0
6,7.980999946594238,distr,52019.00005340576,Thu Mar 26 2026 13:26:47 GMT-0500 (Central Daylight Time),744540.7000000477,B,sh,I,h,464,2,2898.4000000953674,741642.2999999523,8094,WL,A,3.0
6,8.430999994277954,distr,51569.000005722046,Thu Mar 26 2026 13:26:47 GMT-0500 (Central Daylight Time),744990.4000000954,B,she,I,e,446,2,3348.100000143051,741642.2999999523,8094,WL,A,3.0
6,8.596999883651733,distr,51403.00011634827,Thu Mar 26 2026 13:26:47 GMT-0500 (Central Daylight Time),745156.7999999523,B,shee,I,e,147,2,3514.5,741642.2999999523,8094,WL,A,3.0
6,8.829999923706055,distr,51170.000076293945,Thu Mar 26 2026 13:26:47 GMT-0500 (Central Daylight Time),745390.0,B,sheep,I,p,230,2,3747.7000000476837,741642.2999999523,8094,WL,A,3.0
6,9.180999994277954,distr,50819.000005722046,Thu Mar 26 2026 13:26:47 GMT-0500 (Central Daylight Time),745740.5,B,sheepenter,I,enter,341,2,4098.200000047684,741642.2999999523,8094,WL,A,3.0
6,16.643999814987183,distr,43356.00018501282,Thu Mar 26 2026 13:26:47 GMT-0500 (Central Daylight Time),753204.0,B,s,I,s,7455,2,7463.299999952316,745740.7000000477,8094,WL,A,4.0
6,16.877999782562256,distr,43122.000217437744,Thu Mar 26 2026 13:26:47 GMT-0500 (Central Daylight Time),753438.0,B,se,I,e,223,2,7697.299999952316,745740.7000000477,8094,WL,A,4.0
6,17.027999877929688,distr,42972.00012207031,Thu Mar 26 2026 13:26:47 GMT-0500 (Central Daylight Time),753587.5999999046,B,see,I,e,133,2,7846.899999856949,745740.7000000477,8094,WL,A,4.0
6,17.277999877929688,distr,42722.00012207031,Thu Mar 26 2026 13:26:47 GMT-0500 (Central Daylight Time),753837.2999999523,B,seed,I,d,239,2,8096.599999904633,745740.7000000477,8094,WL,A,4.0
6,17.8439998626709,distr,42156.0001373291,Thu Mar 26 2026 13:26:47 GMT-0500 (Central Daylight Time),754403.5,B,seedenter,I,enter,558,2,8662.799999952316,745740.7000000477,8094,WL,A,4.0
6,54.8989999294281,distr,5101.000070571899,Thu Mar 26 2026 13:26:47 GMT-0500 (Central Daylight Time),791459.0,B,f,I,f,37040,2,37055.40000009537,754403.5999999046,8094,WL,A,5.0
6,55.29899978637695,distr,4701.000213623047,Thu Mar 26 2026 13:26:47 GMT-0500 (Central Daylight Time),791858.7999999523,B,fo,I,o,383,2,37455.200000047684,754403.5999999046,8094,WL,A,5.0
6,55.698999881744385,distr,4301.000118255615,Thu Mar 26 2026 13:26:47 GMT-0500 (Central Daylight Time),792258.9000000954,B,fou,I,u,392,2,37855.300000190735,754403.5999999046,8094,WL,A,5.0
6,56.098999977111816,distr,3901.0000228881836,Thu Mar 26 2026 13:26:47 GMT-0500 (Central Daylight Time),792658.5999999046,B,four,I,r,383,2,38255.0,754403.5999999046,8094,WL,A,5.0
6,56.49899983406067,distr,3501.000165939331,Thu Mar 26 2026 13:26:47 GMT-0500 (Central Daylight Time),793059.0,B,fourenter,I,enter,384,2,38655.40000009537,754403.5999999046,8094,WL,A,5.0
6,60.013999938964844,distr,-13.99993896484375,Thu Mar 26 2026 13:26:47 GMT-0500 (Central Daylight Time),796574.0,B,None,I,None,3512,2,3514.9000000953674,793059.0999999046,8094,WL,A,6.0
7,8.365000009536743,immed,51634.99999046326,Thu Mar 26 2026 13:26:47 GMT-0500 (Central Daylight Time),815651.4000000954,A,b,I,b,8348,2,8364.100000143051,807287.2999999523,8094,WL,A,1.0
7,8.63099980354309,immed,51369.00019645691,Thu Mar 26 2026 13:26:47 GMT-0500 (Central Daylight Time),815918.0,A,bo,I,o,255,2,8630.700000047684,807287.2999999523,8094,WL,A,1.0
7,8.79699993133545,immed,51203.00006866455,Thu Mar 26 2026 13:26:47 GMT-0500 (Central Daylight Time),816084.2000000477,A,boo,I,o,148,2,8796.900000095367,807287.2999999523,8094,WL,A,1.0
7,8.946999788284302,immed,51053.0002117157,Thu Mar 26 2026 13:26:47 GMT-0500 (Central Daylight Time),816234.0,A,book,I,k,135,2,8946.700000047684,807287.2999999523,8094,WL,A,1.0
7,9.563999891281128,immed,50436.00010871887,Thu Mar 26 2026 13:26:47 GMT-0500 (Central Daylight Time),816850.7000000477,A,bookenter,I,enter,609,2,9563.400000095367,807287.2999999523,8094,WL,A,1.0
7,10.563999891281128,immed,49436.00010871887,Thu Mar 26 2026 13:26:47 GMT-0500 (Central Daylight Time),817850.9000000954,A,m,I,m,983,2,1000.0,816850.9000000954,8094,WL,A,2.0
7,10.797999858856201,immed,49202.0001411438,Thu Mar 26 2026 13:26:47 GMT-0500 (Central Daylight Time),818084.7999999523,A,me,I,e,219,2,1233.8999998569489,816850.9000000954,8094,WL,A,2.0
7,11.263000011444092,immed,48736.99998855591,Thu Mar 26 2026 13:26:47 GMT-0500 (Central Daylight Time),818549.5999999046,A,mea,I,a,451,2,1698.6999998092651,816850.9000000954,8094,WL,A,2.0
7,11.52899980545044,immed,48471.00019454956,Thu Mar 26 2026 13:26:47 GMT-0500 (Central Daylight Time),818815.5,A,mead,I,d,260,2,1964.5999999046326,816850.9000000954,8094,WL,A,2.0
7,11.763999938964844,immed,48236.000061035156,Thu Mar 26 2026 13:26:47 GMT-0500 (Central Daylight Time),819050.4000000954,A,meado,I,o,228,2,2199.5,816850.9000000954,8094,WL,A,2.0
7,11.929999828338623,immed,48070.00017166138,Thu Mar 26 2026 13:26:47 GMT-0500 (Central Daylight Time),819216.5,A,meadow,I,w,160,2,2365.5999999046326,816850.9000000954,8094,WL,A,2.0
7,13.129999876022339,immed,46870.00012397766,Thu Mar 26 2026 13:26:47 GMT-0500 (Central Daylight Time),820416.5999999046,A,meadowenter,I,enter,1187,2,3565.699999809265,816850.9000000954,8094,WL,A,2.0
7,15.162999868392944,immed,44837.000131607056,Thu Mar 26 2026 13:26:47 GMT-0500 (Central Daylight Time),822449.4000000954,A,c,I,c,2016,2,2032.6000001430511,820416.7999999523,8094,WL,A,3.0
7,15.527999877929688,immed,44472.00012207031,Thu Mar 26 2026 13:26:47 GMT-0500 (Central Daylight Time),822815.2999999523,A,ch,I,h,352,2,2398.5,820416.7999999523,8094,WL,A,3.0
7,15.796000003814697,immed,44203.9999961853,Thu Mar 26 2026 13:26:47 GMT-0500 (Central Daylight Time),823083.0999999046,A,chi,I,i,251,2,2666.2999999523163,820416.7999999523,8094,WL,A,3.0
7,16.346999883651733,immed,43653.00011634827,Thu Mar 26 2026 13:26:47 GMT-0500 (Central Daylight Time),823633.4000000954,A,chim,I,m,535,2,3216.600000143051,820416.7999999523,8094,WL,A,3.0
7,16.57799983024597,immed,43422.00016975403,Thu Mar 26 2026 13:26:47 GMT-0500 (Central Daylight Time),823865.0999999046,A,chimn,I,n,217,2,3448.2999999523163,820416.7999999523,8094,WL,A,3.0
7,16.96299982070923,immed,43037.00017929077,Thu Mar 26 2026 13:26:47 GMT-0500 (Central Daylight Time),824249.4000000954,A,chimne,I,e,378,2,3832.600000143051,820416.7999999523,8094,WL,A,3.0
7,17.26099991798401,immed,42739.00008201599,Thu Mar 26 2026 13:26:47 GMT-0500 (Central Daylight Time),824548.2000000477,A,chimney,I,y,281,2,4131.400000095367,820416.7999999523,8094,WL,A,3.0
7,17.711999893188477,immed,42288.00010681152,Thu Mar 26 2026 13:26:47 GMT-0500 (Central Daylight Time),824998.5,A,chimneyenter,I,enter,447,2,4581.700000047684,820416.7999999523,8094,WL,A,3.0
7,18.377999782562256,immed,41622.000217437744,Thu Mar 26 2026 13:26:47 GMT-0500 (Central Daylight Time),825664.7999999523,A,s,I,s,652,2,666.0999999046326,824998.7000000477,8094,WL,A,4.0
7,18.57699990272522,immed,41423.00009727478,Thu Mar 26 2026 13:26:47 GMT-0500 (Central Daylight Time),825864.2999999523,A,sa,I,a,194,2,865.5999999046326,824998.7000000477,8094,WL,A,4.0
7,18.812999963760376,immed,41187.000036239624,Thu Mar 26 2026 13:26:47 GMT-0500 (Central Daylight Time),826100.0,A,sal,I,l,226,2,1101.2999999523163,824998.7000000477,8094,WL,A,4.0
7,19.060999870300293,immed,40939.00012969971,Thu Mar 26 2026 13:26:47 GMT-0500 (Central Daylight Time),826347.7999999523,A,salt,I,t,239,2,1349.0999999046326,824998.7000000477,8094,WL,A,4.0
7,19.34599995613098,immed,40654.00004386902,Thu Mar 26 2026 13:26:47 GMT-0500 (Central Daylight Time),826633.2999999523,A,saltenter,I,enter,271,2,1634.5999999046326,824998.7000000477,8094,WL,A,4.0
7,20.26099991798401,immed,39739.00008201599,Thu Mar 26 2026 13:26:47 GMT-0500 (Central Daylight Time),827547.5,A,h,I,h,898,2,914.0,826633.5,8094,WL,A,5.0
7,20.543999910354614,immed,39456.000089645386,Thu Mar 26 2026 13:26:47 GMT-0500 (Central Daylight Time),827830.7999999523,A,ha,I,a,279,2,1197.2999999523163,826633.5,8094,WL,A,5.0
7,20.82799983024597,immed,39172.00016975403,Thu Mar 26 2026 13:26:47 GMT-0500 (Central Daylight Time),828114.2999999523,A,har,I,r,268,2,1480.7999999523163,826633.5,8094,WL,A,5.0
7,21.07699990272522,immed,38923.00009727478,Thu Mar 26 2026 13:26:47 GMT-0500 (Central Daylight Time),828363.5,A,harp,I,p,233,2,1730.0,826633.5,8094,WL,A,5.0
7,21.592999935150146,immed,38407.00006484985,Thu Mar 26 2026 13:26:47 GMT-0500 (Central Daylight Time),828879.5,A,harpenter,I,enter,504,2,2246.0,826633.5,8094,WL,A,5.0
7,22.292999982833862,immed,37707.00001716614,Thu Mar 26 2026 13:26:47 GMT-0500 (Central Daylight Time),829580.0,A,g,I,g,692,2,700.2999999523163,828879.7000000477,8094,WL,A,6.0
7,22.426999807357788,immed,37573.00019264221,Thu Mar 26 2026 13:26:47 GMT-0500 (Central Daylight Time),829713.7999999523,A,go,I,o,119,2,834.0999999046326,828879.7000000477,8094,WL,A,6.0
7,22.64299988746643,immed,37357.00011253357,Thu Mar 26 2026 13:26:47 GMT-0500 (Central Daylight Time),829929.9000000954,A,gol,I,l,201,2,1050.2000000476837,828879.7000000477,8094,WL,A,6.0
7,22.775999784469604,immed,37224.000215530396,Thu Mar 26 2026 13:26:47 GMT-0500 (Central Daylight Time),830062.9000000954,A,gold,I,d,130,2,1183.2000000476837,828879.7000000477,8094,WL,A,6.0
7,23.07699990272522,immed,36923.00009727478,Thu Mar 26 2026 13:26:47 GMT-0500 (Central Daylight Time),830363.9000000954,A,goldenter,I,enter,292,2,1484.2000000476837,828879.7000000477,8094,WL,A,6.0
7,26.45799994468689,immed,33542.00005531311,Thu Mar 26 2026 13:26:47 GMT-0500 (Central Daylight Time),833745.0,A,r,I,r,3375,2,3381.0,830364.0,8094,WL,A,7.0
7,26.774999856948853,immed,33225.00014305115,Thu Mar 26 2026 13:26:47 GMT-0500 (Central Daylight Time),834062.0,A,ru,I,u,314,2,3698.0,830364.0,8094,WL,A,7.0
7,27.007999897003174,immed,32992.000102996826,Thu Mar 26 2026 13:26:47 GMT-0500 (Central Daylight Time),834294.7999999523,A,rug,I,g,229,2,3930.7999999523163,830364.0,8094,WL,A,7.0
7,27.47499990463257,immed,32525.00009536743,Thu Mar 26 2026 13:26:47 GMT-0500 (Central Daylight Time),834761.5999999046,A,rugenter,I,enter,460,2,4397.599999904633,830364.0,8094,WL,A,7.0
7,28.941999912261963,immed,31058.000087738037,Thu Mar 26 2026 13:26:47 GMT-0500 (Central Daylight Time),836228.9000000954,A,k,I,k,1448,2,1467.0,834761.9000000954,8094,WL,A,8.0
7,29.173999786376953,immed,30826.000213623047,Thu Mar 26 2026 13:26:47 GMT-0500 (Central Daylight Time),836460.4000000954,A,ke,I,e,214,2,1698.5,834761.9000000954,8094,WL,A,8.0
7,29.5239999294281,immed,30476.0000705719,Thu Mar 26 2026 13:26:47 GMT-0500 (Central Daylight Time),836810.9000000954,A,key,I,y,335,2,2049.0,834761.9000000954,8094,WL,A,8.0
7,29.973999977111816,immed,30026.000022888184,Thu Mar 26 2026 13:26:47 GMT-0500 (Central Daylight Time),837260.9000000954,A,keyenter,I,enter,432,2,2499.0,834761.9000000954,8094,WL,A,8.0
7,30.490000009536743,immed,29509.999990463257,Thu Mar 26 2026 13:26:47 GMT-0500 (Central Daylight Time),837776.7999999523,A,g,I,g,502,2,515.5999999046326,837261.2000000477,8094,WL,A,9.0
7,30.68999981880188,immed,29310.00018119812,Thu Mar 26 2026 13:26:47 GMT-0500 (Central Daylight Time),837977.0999999046,A,go,I,o,186,2,715.8999998569489,837261.2000000477,8094,WL,A,9.0
7,30.890999794006348,immed,29109.000205993652,Thu Mar 26 2026 13:26:47 GMT-0500 (Central Daylight Time),838178.5,A,gol,I,l,194,2,917.2999999523163,837261.2000000477,8094,WL,A,9.0
7,31.04099988937378,immed,28959.00011062622,Thu Mar 26 2026 13:26:47 GMT-0500 (Central Daylight Time),838327.7999999523,A,gold,I,d,136,2,1066.5999999046326,837261.2000000477,8094,WL,A,9.0
7,31.340999841690063,immed,28659.000158309937,Thu Mar 26 2026 13:26:47 GMT-0500 (Central Daylight Time),838627.7999999523,A,goldenter,I,enter,291,2,1366.5999999046326,837261.2000000477,8094,WL,A,9.0
7,33.62399983406067,immed,26376.00016593933,Thu Mar 26 2026 13:26:47 GMT-0500 (Central Daylight Time),840911.0,A,r,I,r,2277,2,2282.9000000953674,838628.0999999046,8094,WL,A,10.0
7,34.08899998664856,immed,25911.00001335144,Thu Mar 26 2026 13:26:47 GMT-0500 (Central Daylight Time),841375.7000000477,A,ra,I,a,452,2,2747.600000143051,838628.0999999046,8094,WL,A,10.0
7,34.40599989891052,immed,25594.000101089478,Thu Mar 26 2026 13:26:47 GMT-0500 (Central Daylight Time),841692.9000000954,A,rat,I,t,299,2,3064.800000190735,838628.0999999046,8094,WL,A,10.0
7,34.543999910354614,immed,25456.000089645386,Thu Mar 26 2026 13:26:47 GMT-0500 (Central Daylight Time),841831.5,A,ratt,I,t,121,2,3203.4000000953674,838628.0999999046,8094,WL,A,10.0
7,34.70599985122681,immed,25294.000148773193,Thu Mar 26 2026 13:26:47 GMT-0500 (Central Daylight Time),841992.7000000477,A,rattl,I,l,147,2,3364.600000143051,838628.0999999046,8094,WL,A,10.0
7,34.954999923706055,immed,25045.000076293945,Thu Mar 26 2026 13:26:47 GMT-0500 (Central Daylight Time),842242.2999999523,A,rattle,I,e,234,2,3614.2000000476837,838628.0999999046,8094,WL,A,10.0
7,35.30499982833862,immed,24695.000171661377,Thu Mar 26 2026 13:26:47 GMT-0500 (Central Daylight Time),842591.9000000954,A,rattleenter,I,enter,343,2,3963.800000190735,838628.0999999046,8094,WL,A,10.0
7,41.00399994850159,immed,18996.000051498413,Thu Mar 26 2026 13:26:47 GMT-0500 (Central Daylight Time),848291.2000000477,A,a,I,a,5692,2,5699.200000047684,842592.0,8094,WL,A,11.0
7,41.30299997329712,immed,18697.00002670288,Thu Mar 26 2026 13:26:47 GMT-0500 (Central Daylight Time),848590.5999999046,A,ap,I,p,276,2,5998.599999904633,842592.0,8094,WL,A,11.0
7,41.45299983024597,immed,18547.00016975403,Thu Mar 26 2026 13:26:47 GMT-0500 (Central Daylight Time),848740.2000000477,A,app,I,p,132,2,6148.200000047684,842592.0,8094,WL,A,11.0
7,41.61999988555908,immed,18380.000114440918,Thu Mar 26 2026 13:26:47 GMT-0500 (Central Daylight Time),848907.0999999046,A,appl,I,l,159,2,6315.099999904633,842592.0,8094,WL,A,11.0
7,41.78600001335144,immed,18213.99998664856,Thu Mar 26 2026 13:26:47 GMT-0500 (Central Daylight Time),849073.4000000954,A,apple,I,e,160,2,6481.400000095367,842592.0,8094,WL,A,11.0
7,42.1029999256134,immed,17897.000074386597,Thu Mar 26 2026 13:26:47 GMT-0500 (Central Daylight Time),849390.0,A,appleenter,I,enter,306,2,6798.0,842592.0,8094,WL,A,11.0
7,60.013999938964844,immed,-13.99993896484375,Thu Mar 26 2026 13:26:47 GMT-0500 (Central Daylight Time),867301.2000000477,A,None,I,None,17906,2,17911.0,849390.2000000477,8094,WL,A,12.0
