acc_sum,block,block_c,change,condition,correct,correct_response,datetime,endtime,face,project,response,response_time,row_sel,session_number,start_end,starttime,subject_id,task,task_vers,trial
0,prac,1,,1-Back,,,Thu Jun 04 2026 17:49:58 GMT-0500 (Central Daylight Time),,093_m_f_n_a.png,I,space,3139,1,3,,,8079,NNB,C,0
1,prac,1,0.0,1-Back,1.0,m,Thu Jun 04 2026 17:49:58 GMT-0500 (Central Daylight Time),97165.40000003576,098_y_f_n_a.png,I,m,799,2,3,1656.5,95508.90000003576,8079,NNB,C,1
2,prac,1,1.0,1-Back,1.0,z,Thu Jun 04 2026 17:49:58 GMT-0500 (Central Daylight Time),98683.10000002384,098_y_f_n_a.png,I,z,754,3,3,1514.6000000238419,97168.5,8079,NNB,C,2
3,prac,1,0.0,1-Back,1.0,m,Thu Jun 04 2026 17:49:58 GMT-0500 (Central Daylight Time),100484.20000004768,059_o_m_n_a.png,I,m,951,4,3,1796.0,98688.20000004768,8079,NNB,C,3
4,prac,1,0.0,1-Back,1.0,m,Thu Jun 04 2026 17:49:58 GMT-0500 (Central Daylight Time),102165.60000002384,092_m_m_n_a.png,I,m,823,5,3,1675.699999988079,100489.90000003576,8079,NNB,C,4
5,prac,1,1.0,1-Back,1.0,z,Thu Jun 04 2026 17:49:58 GMT-0500 (Central Daylight Time),103614.90000003576,092_m_m_n_a.png,I,z,661,6,3,1442.800000011921,102172.10000002384,8079,NNB,C,5
6,prac,1,0.0,1-Back,1.0,m,Thu Jun 04 2026 17:49:58 GMT-0500 (Central Daylight Time),105246.90000003576,130_o_f_n_a.png,I,m,753,7,3,1626.699999988079,103620.20000004768,8079,NNB,C,6
7,prac,1,0.0,1-Back,1.0,m,Thu Jun 04 2026 17:49:58 GMT-0500 (Central Daylight Time),107346.30000001192,082_m_m_n_a.png,I,m,1236,8,3,2091.899999976158,105254.40000003576,8079,NNB,C,7
8,prac,1,0.0,1-Back,1.0,m,Thu Jun 04 2026 17:49:58 GMT-0500 (Central Daylight Time),109096.90000003576,093_m_f_n_a.png,I,m,970,9,3,1745.0,107351.90000003576,8079,NNB,C,8
9,prac,1,1.0,1-Back,1.0,z,Thu Jun 04 2026 17:49:58 GMT-0500 (Central Daylight Time),110546.80000001192,093_m_f_n_a.png,I,z,661,10,3,1444.5,109102.30000001192,8079,NNB,C,9
10,prac,1,0.0,1-Back,1.0,m,Thu Jun 04 2026 17:49:58 GMT-0500 (Central Daylight Time),112046.10000002384,059_o_m_n_a.png,I,m,719,11,3,1490.699999988079,110555.40000003576,8079,NNB,C,10
11,prac,1,0.0,1-Back,1.0,m,Thu Jun 04 2026 17:49:58 GMT-0500 (Central Daylight Time),113794.80000001192,028_y_f_n_a.png,I,m,891,12,3,1743.699999988079,112051.10000002384,8079,NNB,C,11
0,test,1,0.0,1-Back,,,Thu Jun 04 2026 17:49:58 GMT-0500 (Central Daylight Time),113794.80000001192,098_y_f_n_a.png,I,space,6547,1,3,1743.699999988079,112051.10000002384,8079,NNB,C,0
1,test,1,0.0,1-Back,1.0,m,Thu Jun 04 2026 17:49:58 GMT-0500 (Central Daylight Time),128307.80000001192,006_m_f_n_a.png,I,m,1257,2,3,2281.599999964237,126026.20000004768,8079,NNB,C,1
2,test,1,0.0,1-Back,1.0,m,Thu Jun 04 2026 17:49:58 GMT-0500 (Central Daylight Time),130238.90000003576,028_y_f_n_a.png,I,m,911,3,3,1923.0,128315.90000003576,8079,NNB,C,2
3,test,1,1.0,1-Back,1.0,z,Thu Jun 04 2026 17:49:58 GMT-0500 (Central Daylight Time),131856.10000002384,028_y_f_n_a.png,I,z,595,4,3,1615.300000011921,130240.80000001192,8079,NNB,C,3
4,test,1,0.0,1-Back,1.0,m,Thu Jun 04 2026 17:49:58 GMT-0500 (Central Daylight Time),133522.70000004768,006_m_f_n_a.png,I,m,650,5,3,1662.9000000357628,131859.80000001192,8079,NNB,C,4
5,test,1,0.0,1-Back,1.0,m,Thu Jun 04 2026 17:49:58 GMT-0500 (Central Daylight Time),135137.90000003576,059_o_m_n_a.png,I,m,584,6,3,1612.9000000357628,133525.0,8079,NNB,C,5
6,test,1,1.0,1-Back,1.0,z,Thu Jun 04 2026 17:49:58 GMT-0500 (Central Daylight Time),136937.40000003576,059_o_m_n_a.png,I,z,767,7,3,1796.300000011921,135141.10000002384,8079,NNB,C,6
7,test,1,0.0,1-Back,1.0,m,Thu Jun 04 2026 17:49:58 GMT-0500 (Central Daylight Time),138736.60000002384,092_m_m_n_a.png,I,m,776,8,3,1794.8999999761581,136941.70000004768,8079,NNB,C,7
8,test,1,0.0,1-Back,1.0,m,Thu Jun 04 2026 17:49:58 GMT-0500 (Central Daylight Time),141168.60000002384,130_o_f_n_a.png,I,m,1401,9,3,2429.0,138739.60000002384,8079,NNB,C,8
9,test,1,0.0,1-Back,1.0,m,Thu Jun 04 2026 17:49:58 GMT-0500 (Central Daylight Time),143134.80000001192,092_m_m_n_a.png,I,m,944,10,3,1962.5,141172.30000001192,8079,NNB,C,9
10,test,1,0.0,1-Back,1.0,m,Thu Jun 04 2026 17:49:58 GMT-0500 (Central Daylight Time),144901.30000001192,057_y_m_n_a.png,I,m,748,11,3,1764.3999999761581,143136.90000003576,8079,NNB,C,10
11,test,1,1.0,1-Back,1.0,z,Thu Jun 04 2026 17:49:58 GMT-0500 (Central Daylight Time),146551.60000002384,057_y_m_n_a.png,I,z,628,12,3,1647.8999999761581,144903.70000004768,8079,NNB,C,11
12,test,1,0.0,1-Back,1.0,m,Thu Jun 04 2026 17:49:58 GMT-0500 (Central Daylight Time),148235.30000001192,030_o_f_n_a.png,I,m,649,13,3,1681.0,146554.30000001192,8079,NNB,C,12
13,test,1,1.0,1-Back,1.0,z,Thu Jun 04 2026 17:49:58 GMT-0500 (Central Daylight Time),150048.80000001192,030_o_f_n_a.png,I,z,783,14,3,1810.5999999642372,148238.20000004768,8079,NNB,C,13
14,test,1,0.0,1-Back,1.0,m,Thu Jun 04 2026 17:49:58 GMT-0500 (Central Daylight Time),151684.90000003576,031_y_m_n_a.png,I,m,608,15,3,1634.1000000238419,150050.80000001192,8079,NNB,C,14
15,test,1,0.0,1-Back,1.0,m,Thu Jun 04 2026 17:49:58 GMT-0500 (Central Daylight Time),153581.80000001192,093_m_f_n_a.png,I,m,871,16,3,1894.0999999642372,151687.70000004768,8079,NNB,C,15
16,test,1,0.0,1-Back,1.0,m,Thu Jun 04 2026 17:49:58 GMT-0500 (Central Daylight Time),155181.90000003576,146_o_m_n_a.png,I,m,568,17,3,1597.0,153584.90000003576,8079,NNB,C,16
17,test,1,0.0,1-Back,1.0,m,Thu Jun 04 2026 17:49:58 GMT-0500 (Central Daylight Time),156948.20000004768,093_m_f_n_a.png,I,m,737,18,3,1762.9000000357628,155185.30000001192,8079,NNB,C,17
0,test,2,0.0,1-Back,,,Thu Jun 04 2026 17:49:58 GMT-0500 (Central Daylight Time),156948.20000004768,092_m_m_n_a.png,I,space,1820,1,3,1762.9000000357628,155185.30000001192,8079,NNB,C,0
1,test,2,0.0,1-Back,1.0,m,Thu Jun 04 2026 17:49:58 GMT-0500 (Central Daylight Time),162495.10000002384,006_m_f_n_a.png,I,m,671,2,3,1697.5,160797.60000002384,8079,NNB,C,1
2,test,2,1.0,1-Back,1.0,z,Thu Jun 04 2026 17:49:58 GMT-0500 (Central Daylight Time),164311.20000004768,006_m_f_n_a.png,I,z,794,3,3,1812.7000000476837,162498.5,8079,NNB,C,2
3,test,2,0.0,1-Back,1.0,m,Thu Jun 04 2026 17:49:58 GMT-0500 (Central Daylight Time),166228.60000002384,092_m_m_n_a.png,I,m,884,4,3,1914.6000000238419,164314.0,8079,NNB,C,3
4,test,2,0.0,1-Back,1.0,m,Thu Jun 04 2026 17:49:58 GMT-0500 (Central Daylight Time),168009.60000002384,057_y_m_n_a.png,I,m,756,5,3,1777.5,166232.10000002384,8079,NNB,C,4
5,test,2,0.0,1-Back,1.0,m,Thu Jun 04 2026 17:49:58 GMT-0500 (Central Daylight Time),169643.0,098_y_f_n_a.png,I,m,608,6,3,1629.3999999761581,168013.60000002384,8079,NNB,C,5
6,test,2,1.0,1-Back,1.0,z,Thu Jun 04 2026 17:49:58 GMT-0500 (Central Daylight Time),171142.20000004768,098_y_f_n_a.png,I,z,479,7,3,1493.5,169648.70000004768,8079,NNB,C,6
7,test,2,0.0,1-Back,1.0,m,Thu Jun 04 2026 17:49:58 GMT-0500 (Central Daylight Time),172942.20000004768,057_y_m_n_a.png,I,m,779,8,3,1794.7000000476837,171147.5,8079,NNB,C,7
8,test,2,0.0,1-Back,1.0,m,Thu Jun 04 2026 17:49:58 GMT-0500 (Central Daylight Time),174707.80000001192,030_o_f_n_a.png,I,m,741,9,3,1761.8999999761581,172945.90000003576,8079,NNB,C,8
9,test,2,0.0,1-Back,1.0,m,Thu Jun 04 2026 17:49:58 GMT-0500 (Central Daylight Time),176292.20000004768,082_m_m_n_a.png,I,m,557,10,3,1582.2000000476837,174710.0,8079,NNB,C,9
10,test,2,1.0,1-Back,1.0,z,Thu Jun 04 2026 17:49:58 GMT-0500 (Central Daylight Time),177856.30000001192,082_m_m_n_a.png,I,z,543,11,3,1560.5999999642372,176295.70000004768,8079,NNB,C,10
11,test,2,0.0,1-Back,1.0,m,Thu Jun 04 2026 17:49:58 GMT-0500 (Central Daylight Time),179673.10000002384,030_o_f_n_a.png,I,m,784,12,3,1813.3999999761581,177859.70000004768,8079,NNB,C,11
12,test,2,0.0,1-Back,1.0,m,Thu Jun 04 2026 17:49:58 GMT-0500 (Central Daylight Time),181323.0,130_o_f_n_a.png,I,m,624,13,3,1644.199999988079,179678.80000001192,8079,NNB,C,12
13,test,2,0.0,1-Back,1.0,m,Thu Jun 04 2026 17:49:58 GMT-0500 (Central Daylight Time),182971.30000001192,059_o_m_n_a.png,I,m,623,14,3,1642.699999988079,181328.60000002384,8079,NNB,C,13
14,test,2,0.0,1-Back,1.0,m,Thu Jun 04 2026 17:49:58 GMT-0500 (Central Daylight Time),184605.20000004768,146_o_m_n_a.png,I,m,605,15,3,1630.7000000476837,182974.5,8079,NNB,C,14
15,test,2,1.0,1-Back,1.0,z,Thu Jun 04 2026 17:49:58 GMT-0500 (Central Daylight Time),186321.5,146_o_m_n_a.png,I,z,694,16,3,1711.699999988079,184609.80000001192,8079,NNB,C,15
16,test,2,0.0,1-Back,1.0,m,Thu Jun 04 2026 17:49:58 GMT-0500 (Central Daylight Time),188036.70000004768,031_y_m_n_a.png,I,m,696,17,3,1710.2000000476837,186326.5,8079,NNB,C,16
17,test,2,1.0,1-Back,1.0,z,Thu Jun 04 2026 17:49:58 GMT-0500 (Central Daylight Time),189719.20000004768,031_y_m_n_a.png,I,z,661,18,3,1677.5,188041.70000004768,8079,NNB,C,17
0,test,3,1.0,1-Back,,,Thu Jun 04 2026 17:49:58 GMT-0500 (Central Daylight Time),189719.20000004768,028_y_f_n_a.png,I,space,1234,1,3,1677.5,188041.70000004768,8079,NNB,C,0
1,test,3,0.0,1-Back,1.0,m,Thu Jun 04 2026 17:49:58 GMT-0500 (Central Daylight Time),194801.40000003576,146_o_m_n_a.png,I,m,726,1,3,1744.1000000238419,193057.30000001192,8079,NNB,C,1
2,test,3,1.0,1-Back,1.0,z,Thu Jun 04 2026 17:49:58 GMT-0500 (Central Daylight Time),196584.60000002384,146_o_m_n_a.png,I,z,752,1,3,1778.300000011921,194806.30000001192,8079,NNB,C,2
3,test,3,0.0,1-Back,1.0,m,Thu Jun 04 2026 17:49:58 GMT-0500 (Central Daylight Time),198334.30000001192,093_m_f_n_a.png,I,m,721,1,3,1744.5999999642372,196589.70000004768,8079,NNB,C,3
4,test,3,1.0,1-Back,1.0,z,Thu Jun 04 2026 17:49:58 GMT-0500 (Central Daylight Time),199951.10000002384,093_m_f_n_a.png,I,z,587,1,3,1614.199999988079,198336.90000003576,8079,NNB,C,4
5,test,3,0.0,1-Back,1.0,m,Thu Jun 04 2026 17:49:58 GMT-0500 (Central Daylight Time),201949.80000001192,030_o_f_n_a.png,I,m,967,1,3,1994.800000011921,199955.0,8079,NNB,C,5
6,test,3,0.0,1-Back,1.0,m,Thu Jun 04 2026 17:49:58 GMT-0500 (Central Daylight Time),203482.30000001192,057_y_m_n_a.png,I,m,509,1,3,1528.0,201954.30000001192,8079,NNB,C,6
7,test,3,0.0,1-Back,1.0,m,Thu Jun 04 2026 17:49:58 GMT-0500 (Central Daylight Time),205333.20000004768,030_o_f_n_a.png,I,m,823,1,3,1847.2000000476837,203486.0,8079,NNB,C,7
8,test,3,0.0,1-Back,1.0,m,Thu Jun 04 2026 17:49:58 GMT-0500 (Central Daylight Time),206981.10000002384,031_y_m_n_a.png,I,m,631,1,3,1643.300000011921,205337.80000001192,8079,NNB,C,8
9,test,3,1.0,1-Back,1.0,z,Thu Jun 04 2026 17:49:58 GMT-0500 (Central Daylight Time),208463.30000001192,031_y_m_n_a.png,I,z,453,1,3,1479.0,206984.30000001192,8079,NNB,C,9
10,test,3,0.0,1-Back,1.0,m,Thu Jun 04 2026 17:49:58 GMT-0500 (Central Daylight Time),210181.10000002384,006_m_f_n_a.png,I,m,691,1,3,1714.6000000238419,208466.5,8079,NNB,C,10
11,test,3,0.0,1-Back,1.0,m,Thu Jun 04 2026 17:49:58 GMT-0500 (Central Daylight Time),211847.5,098_y_f_n_a.png,I,m,645,1,3,1662.5999999642372,210184.90000003576,8079,NNB,C,11
12,test,3,1.0,1-Back,1.0,z,Thu Jun 04 2026 17:49:58 GMT-0500 (Central Daylight Time),213396.40000003576,098_y_f_n_a.png,I,z,517,1,3,1545.699999988079,211850.70000004768,8079,NNB,C,12
13,test,3,0.0,1-Back,1.0,m,Thu Jun 04 2026 17:49:58 GMT-0500 (Central Daylight Time),215077.20000004768,006_m_f_n_a.png,I,m,660,1,3,1677.4000000357628,213399.80000001192,8079,NNB,C,13
14,test,3,0.0,1-Back,1.0,m,Thu Jun 04 2026 17:49:58 GMT-0500 (Central Daylight Time),216745.70000004768,092_m_m_n_a.png,I,m,635,1,3,1666.5,215079.20000004768,8079,NNB,C,14
15,test,3,1.0,1-Back,1.0,z,Thu Jun 04 2026 17:49:58 GMT-0500 (Central Daylight Time),218377.90000003576,092_m_m_n_a.png,I,z,601,1,3,1628.4000000357628,216749.5,8079,NNB,C,15
16,test,3,0.0,1-Back,1.0,m,Thu Jun 04 2026 17:49:58 GMT-0500 (Central Daylight Time),220126.80000001192,130_o_f_n_a.png,I,m,726,1,3,1745.0999999642372,218381.70000004768,8079,NNB,C,16
16,test,3,1.0,1-Back,0.0,z,Thu Jun 04 2026 17:49:58 GMT-0500 (Central Daylight Time),221794.0,130_o_f_n_a.png,I,m,633,1,3,1665.2999999523163,220128.70000004768,8079,NNB,C,17
0,test,4,1.0,1-Back,,,Thu Jun 04 2026 17:49:58 GMT-0500 (Central Daylight Time),221794.0,093_m_f_n_a.png,I,space,1217,1,3,1665.2999999523163,220128.70000004768,8079,NNB,C,0
1,test,4,0.0,1-Back,1.0,m,Thu Jun 04 2026 17:49:58 GMT-0500 (Central Daylight Time),226709.40000003576,146_o_m_n_a.png,I,m,552,2,3,1580.0,225129.40000003576,8079,NNB,C,1
2,test,4,0.0,1-Back,1.0,m,Thu Jun 04 2026 17:49:58 GMT-0500 (Central Daylight Time),228290.80000001192,093_m_f_n_a.png,I,m,549,3,3,1577.8999999761581,226712.90000003576,8079,NNB,C,2
3,test,4,0.0,1-Back,1.0,m,Thu Jun 04 2026 17:49:58 GMT-0500 (Central Daylight Time),230007.90000003576,030_o_f_n_a.png,I,m,685,4,3,1714.1000000238419,228293.80000001192,8079,NNB,C,3
4,test,4,1.0,1-Back,1.0,z,Thu Jun 04 2026 17:49:58 GMT-0500 (Central Daylight Time),231740.80000001192,030_o_f_n_a.png,I,z,701,5,3,1729.5999999642372,230011.20000004768,8079,NNB,C,4
5,test,4,0.0,1-Back,1.0,m,Thu Jun 04 2026 17:49:58 GMT-0500 (Central Daylight Time),233540.5,098_y_f_n_a.png,I,m,772,6,3,1796.699999988079,231743.80000001192,8079,NNB,C,5
6,test,4,0.0,1-Back,1.0,m,Thu Jun 04 2026 17:49:58 GMT-0500 (Central Daylight Time),235238.60000002384,057_y_m_n_a.png,I,m,677,7,3,1695.5,233543.10000002384,8079,NNB,C,6
7,test,4,1.0,1-Back,1.0,z,Thu Jun 04 2026 17:49:58 GMT-0500 (Central Daylight Time),236773.40000003576,057_y_m_n_a.png,I,z,506,8,3,1533.0,235240.40000003576,8079,NNB,C,7
8,test,4,0.0,1-Back,1.0,m,Thu Jun 04 2026 17:49:58 GMT-0500 (Central Daylight Time),238436.70000004768,098_y_f_n_a.png,I,m,636,9,3,1660.800000011921,236775.90000003576,8079,NNB,C,8
9,test,4,0.0,1-Back,1.0,m,Thu Jun 04 2026 17:49:58 GMT-0500 (Central Daylight Time),240055.10000002384,082_m_m_n_a.png,I,m,585,10,3,1615.3999999761581,238439.70000004768,8079,NNB,C,9
10,test,4,1.0,1-Back,1.0,z,Thu Jun 04 2026 17:49:58 GMT-0500 (Central Daylight Time),241521.10000002384,082_m_m_n_a.png,I,z,443,11,3,1462.199999988079,240058.90000003576,8079,NNB,C,10
11,test,4,0.0,1-Back,1.0,m,Thu Jun 04 2026 17:49:58 GMT-0500 (Central Daylight Time),243153.70000004768,130_o_f_n_a.png,I,m,611,12,3,1628.1000000238419,241525.60000002384,8079,NNB,C,11
12,test,4,0.0,1-Back,1.0,m,Thu Jun 04 2026 17:49:58 GMT-0500 (Central Daylight Time),244769.40000003576,059_o_m_n_a.png,I,m,581,13,3,1612.5,243156.90000003576,8079,NNB,C,12
13,test,4,0.0,1-Back,1.0,m,Thu Jun 04 2026 17:49:58 GMT-0500 (Central Daylight Time),246584.80000001192,130_o_f_n_a.png,I,m,790,14,3,1811.199999988079,244773.60000002384,8079,NNB,C,13
14,test,4,0.0,1-Back,1.0,m,Thu Jun 04 2026 17:49:58 GMT-0500 (Central Daylight Time),248168.30000001192,028_y_f_n_a.png,I,m,560,15,3,1580.3999999761581,246587.90000003576,8079,NNB,C,14
15,test,4,1.0,1-Back,1.0,z,Thu Jun 04 2026 17:49:58 GMT-0500 (Central Daylight Time),249884.40000003576,028_y_f_n_a.png,I,z,684,16,3,1713.1000000238419,248171.30000001192,8079,NNB,C,15
16,test,4,0.0,1-Back,1.0,m,Thu Jun 04 2026 17:49:58 GMT-0500 (Central Daylight Time),251532.80000001192,006_m_f_n_a.png,I,m,619,17,3,1645.5,249887.30000001192,8079,NNB,C,16
17,test,4,1.0,1-Back,1.0,z,Thu Jun 04 2026 17:49:58 GMT-0500 (Central Daylight Time),253149.70000004768,006_m_f_n_a.png,I,z,588,18,3,1614.6000000238419,251535.10000002384,8079,NNB,C,17
0,test,5,1.0,1-Back,,,Thu Jun 04 2026 17:49:58 GMT-0500 (Central Daylight Time),253149.70000004768,059_o_m_n_a.png,I,space,1268,1,3,1614.6000000238419,251535.10000002384,8079,NNB,C,0
1,test,5,1.0,1-Back,1.0,z,Thu Jun 04 2026 17:49:58 GMT-0500 (Central Daylight Time),258598.30000001192,059_o_m_n_a.png,I,z,1128,2,3,2145.300000011921,256453.0,8079,NNB,C,1
2,test,5,0.0,1-Back,1.0,m,Thu Jun 04 2026 17:49:58 GMT-0500 (Central Daylight Time),260147.5,098_y_f_n_a.png,I,m,525,3,3,1547.2999999523163,258600.20000004768,8079,NNB,C,2
3,test,5,0.0,1-Back,1.0,m,Thu Jun 04 2026 17:49:58 GMT-0500 (Central Daylight Time),261764.80000001192,057_y_m_n_a.png,I,m,589,4,3,1614.0,260150.80000001192,8079,NNB,C,3
4,test,5,0.0,1-Back,1.0,m,Thu Jun 04 2026 17:49:58 GMT-0500 (Central Daylight Time),263413.0,098_y_f_n_a.png,I,m,619,5,3,1645.699999988079,261767.30000001192,8079,NNB,C,4
5,test,5,0.0,1-Back,1.0,m,Thu Jun 04 2026 17:49:58 GMT-0500 (Central Daylight Time),265046.7000000477,092_m_m_n_a.png,I,m,600,6,3,1630.2000000476837,263416.5,8079,NNB,C,5
6,test,5,1.0,1-Back,1.0,z,Thu Jun 04 2026 17:49:58 GMT-0500 (Central Daylight Time),266645.2000000477,092_m_m_n_a.png,I,z,572,7,3,1594.1000000238419,265051.10000002384,8079,NNB,C,6
7,test,5,0.0,1-Back,1.0,m,Thu Jun 04 2026 17:49:58 GMT-0500 (Central Daylight Time),268345.60000002384,028_y_f_n_a.png,I,m,675,8,3,1698.300000011921,266647.3000000119,8079,NNB,C,7
8,test,5,0.0,1-Back,1.0,m,Thu Jun 04 2026 17:49:58 GMT-0500 (Central Daylight Time),269977.8000000119,031_y_m_n_a.png,I,m,600,9,3,1629.0999999642372,268348.7000000477,8079,NNB,C,8
9,test,5,0.0,1-Back,1.0,m,Thu Jun 04 2026 17:49:58 GMT-0500 (Central Daylight Time),271629.10000002384,028_y_f_n_a.png,I,m,619,10,3,1647.8999999761581,269981.2000000477,8079,NNB,C,9
10,test,5,0.0,1-Back,1.0,m,Thu Jun 04 2026 17:49:58 GMT-0500 (Central Daylight Time),273194.10000002384,130_o_f_n_a.png,I,m,541,11,3,1559.199999988079,271634.90000003576,8079,NNB,C,10
11,test,5,1.0,1-Back,1.0,z,Thu Jun 04 2026 17:49:58 GMT-0500 (Central Daylight Time),274826.7000000477,130_o_f_n_a.png,I,z,600,12,3,1629.9000000357628,273196.8000000119,8079,NNB,C,11
12,test,5,0.0,1-Back,1.0,m,Thu Jun 04 2026 17:49:58 GMT-0500 (Central Daylight Time),276560.10000002384,146_o_m_n_a.png,I,m,705,13,3,1729.800000011921,274830.3000000119,8079,NNB,C,12
13,test,5,0.0,1-Back,1.0,m,Thu Jun 04 2026 17:49:58 GMT-0500 (Central Daylight Time),278258.8000000119,093_m_f_n_a.png,I,m,675,14,3,1695.8999999761581,276562.90000003576,8079,NNB,C,13
14,test,5,1.0,1-Back,1.0,z,Thu Jun 04 2026 17:49:58 GMT-0500 (Central Daylight Time),279876.5,093_m_f_n_a.png,I,z,591,15,3,1611.199999988079,278265.3000000119,8079,NNB,C,14
15,test,5,0.0,1-Back,1.0,m,Thu Jun 04 2026 17:49:58 GMT-0500 (Central Daylight Time),281525.0,146_o_m_n_a.png,I,m,624,16,3,1645.5999999642372,279879.40000003576,8079,NNB,C,15
16,test,5,0.0,1-Back,1.0,m,Thu Jun 04 2026 17:49:58 GMT-0500 (Central Daylight Time),283106.8000000119,006_m_f_n_a.png,I,m,557,17,3,1578.5,281528.3000000119,8079,NNB,C,16
17,test,5,0.0,1-Back,1.0,m,Thu Jun 04 2026 17:49:58 GMT-0500 (Central Daylight Time),284689.90000003576,082_m_m_n_a.png,I,m,558,18,3,1580.800000011921,283109.10000002384,8079,NNB,C,17
0,prac,1,0.0,2-Back,,,Thu Jun 04 2026 17:49:58 GMT-0500 (Central Daylight Time),284689.90000003576,031_y_m_n_a.png,I,space,3832,1,3,1580.800000011921,283109.10000002384,8079,NNB,C,0
0,prac,1,0.0,2-Back,,,Thu Jun 04 2026 17:49:58 GMT-0500 (Central Daylight Time),284689.90000003576,006_m_f_n_a.png,I,space,3832,2,3,1580.800000011921,283109.10000002384,8079,NNB,C,0
1,prac,1,1.0,2-Back,1.0,m,Thu Jun 04 2026 17:49:58 GMT-0500 (Central Daylight Time),377577.90000003576,146_o_m_n_a.png,I,m,1352,3,3,2214.5,375363.40000003576,8079,NNB,C,1
2,prac,1,0.0,2-Back,1.0,m,Thu Jun 04 2026 17:49:58 GMT-0500 (Central Daylight Time),379210.7000000477,130_o_f_n_a.png,I,m,761,4,3,1627.1000000238419,377583.60000002384,8079,NNB,C,2
3,prac,1,0.0,2-Back,1.0,z,Thu Jun 04 2026 17:49:58 GMT-0500 (Central Daylight Time),380778.0,146_o_m_n_a.png,I,z,790,5,3,1557.0,379221.0,8079,NNB,C,3
4,prac,1,1.0,2-Back,1.0,z,Thu Jun 04 2026 17:49:58 GMT-0500 (Central Daylight Time),382559.3000000119,130_o_f_n_a.png,I,z,1019,6,3,1775.300000011921,380784.0,8079,NNB,C,4
4,prac,1,0.0,2-Back,0.0,m,Thu Jun 04 2026 17:49:58 GMT-0500 (Central Daylight Time),385108.0,082_m_m_n_a.png,I,z,1686,7,3,2543.699999988079,382564.3000000119,8079,NNB,C,5
5,prac,1,0.0,2-Back,1.0,m,Thu Jun 04 2026 17:49:58 GMT-0500 (Central Daylight Time),387125.0,059_o_m_n_a.png,I,m,1153,8,3,2011.7999999523163,385113.2000000477,8079,NNB,C,6
6,prac,1,0.0,2-Back,1.0,m,Thu Jun 04 2026 17:49:58 GMT-0500 (Central Daylight Time),388855.90000003576,028_y_f_n_a.png,I,m,872,9,3,1727.4000000357628,387128.5,8079,NNB,C,7
7,prac,1,1.0,2-Back,1.0,z,Thu Jun 04 2026 17:49:58 GMT-0500 (Central Daylight Time),390606.2000000477,059_o_m_n_a.png,I,z,963,10,3,1743.800000011921,388862.40000003576,8079,NNB,C,8
8,prac,1,0.0,2-Back,1.0,m,Thu Jun 04 2026 17:49:58 GMT-0500 (Central Daylight Time),392323.3000000119,098_y_f_n_a.png,I,m,856,11,3,1711.800000011921,390611.5,8079,NNB,C,9
9,prac,1,0.0,2-Back,1.0,m,Thu Jun 04 2026 17:49:58 GMT-0500 (Central Daylight Time),394489.7000000477,082_m_m_n_a.png,I,m,1395,12,3,2161.900000035763,392327.8000000119,8079,NNB,C,10
0,test,1,0.0,2-Back,,,Thu Jun 04 2026 17:49:58 GMT-0500 (Central Daylight Time),394489.7000000477,057_y_m_n_a.png,I,space,3637,1,3,2161.900000035763,392327.8000000119,8079,NNB,C,0
0,test,1,0.0,2-Back,,,Thu Jun 04 2026 17:49:58 GMT-0500 (Central Daylight Time),394489.7000000477,057_y_m_n_a.png,I,space,3637,2,3,2161.900000035763,392327.8000000119,8079,NNB,C,0
1,test,1,0.0,2-Back,1.0,m,Thu Jun 04 2026 17:49:58 GMT-0500 (Central Daylight Time),408916.40000003576,130_o_f_n_a.png,I,m,723,3,3,1747.6000000238419,407168.8000000119,8079,NNB,C,1
2,test,1,0.0,2-Back,1.0,m,Thu Jun 04 2026 17:49:58 GMT-0500 (Central Daylight Time),410715.7000000477,092_m_m_n_a.png,I,m,774,4,3,1793.1000000238419,408922.60000002384,8079,NNB,C,2
3,test,1,1.0,2-Back,1.0,z,Thu Jun 04 2026 17:49:58 GMT-0500 (Central Daylight Time),412332.90000003576,130_o_f_n_a.png,I,z,590,5,3,1612.9000000357628,410720.0,8079,NNB,C,3
4,test,1,0.0,2-Back,1.0,m,Thu Jun 04 2026 17:49:58 GMT-0500 (Central Daylight Time),414015.8000000119,098_y_f_n_a.png,I,m,661,6,3,1678.800000011921,412337.0,8079,NNB,C,4
5,test,1,0.0,2-Back,1.0,m,Thu Jun 04 2026 17:49:58 GMT-0500 (Central Daylight Time),415881.3000000119,092_m_m_n_a.png,I,m,834,7,3,1861.199999988079,414020.10000002384,8079,NNB,C,5
6,test,1,1.0,2-Back,1.0,z,Thu Jun 04 2026 17:49:58 GMT-0500 (Central Daylight Time),417680.40000003576,098_y_f_n_a.png,I,z,776,8,3,1794.300000011921,415886.10000002384,8079,NNB,C,6
7,test,1,0.0,2-Back,1.0,m,Thu Jun 04 2026 17:49:58 GMT-0500 (Central Daylight Time),419513.7000000477,031_y_m_n_a.png,I,m,802,9,3,1828.6000000238419,417685.10000002384,8079,NNB,C,7
8,test,1,0.0,2-Back,1.0,m,Thu Jun 04 2026 17:49:58 GMT-0500 (Central Daylight Time),421412.60000002384,030_o_f_n_a.png,I,m,872,10,3,1895.1000000238419,419517.5,8079,NNB,C,8
9,test,1,1.0,2-Back,1.0,z,Thu Jun 04 2026 17:49:58 GMT-0500 (Central Daylight Time),423044.90000003576,031_y_m_n_a.png,I,z,604,11,3,1628.300000011921,421416.60000002384,8079,NNB,C,9
10,test,1,0.0,2-Back,1.0,m,Thu Jun 04 2026 17:49:58 GMT-0500 (Central Daylight Time),424878.0,006_m_f_n_a.png,I,m,803,12,3,1829.0,423049.0,8079,NNB,C,10
11,test,1,0.0,2-Back,1.0,m,Thu Jun 04 2026 17:49:58 GMT-0500 (Central Daylight Time),426577.3000000119,006_m_f_n_a.png,I,m,668,13,3,1693.3999999761581,424883.90000003576,8079,NNB,C,11
12,test,1,0.0,2-Back,1.0,m,Thu Jun 04 2026 17:49:58 GMT-0500 (Central Daylight Time),428277.7000000477,146_o_m_n_a.png,I,m,680,14,3,1695.0,426582.7000000477,8079,NNB,C,12
13,test,1,0.0,2-Back,1.0,m,Thu Jun 04 2026 17:49:58 GMT-0500 (Central Daylight Time),429927.10000002384,030_o_f_n_a.png,I,m,620,15,3,1645.300000011921,428281.8000000119,8079,NNB,C,13
14,test,1,1.0,2-Back,1.0,z,Thu Jun 04 2026 17:49:58 GMT-0500 (Central Daylight Time),431659.40000003576,146_o_m_n_a.png,I,z,708,16,3,1728.699999988079,429930.7000000477,8079,NNB,C,14
15,test,1,0.0,2-Back,1.0,m,Thu Jun 04 2026 17:49:58 GMT-0500 (Central Daylight Time),433358.5,093_m_f_n_a.png,I,m,669,17,3,1692.7999999523163,431665.7000000477,8079,NNB,C,15
16,test,1,0.0,2-Back,1.0,m,Thu Jun 04 2026 17:49:58 GMT-0500 (Central Daylight Time),434958.2000000477,082_m_m_n_a.png,I,m,579,18,3,1594.6000000238419,433363.60000002384,8079,NNB,C,16
0,test,2,0.0,2-Back,,,Thu Jun 04 2026 17:49:58 GMT-0500 (Central Daylight Time),434958.2000000477,082_m_m_n_a.png,I,space,1619,1,3,1594.6000000238419,433363.60000002384,8079,NNB,C,0
0,test,2,0.0,2-Back,,,Thu Jun 04 2026 17:49:58 GMT-0500 (Central Daylight Time),434958.2000000477,028_y_f_n_a.png,I,space,1619,2,3,1594.6000000238419,433363.60000002384,8079,NNB,C,0
1,test,2,1.0,2-Back,1.0,z,Thu Jun 04 2026 17:49:58 GMT-0500 (Central Daylight Time),443505.2000000477,082_m_m_n_a.png,I,z,775,3,3,1796.2000000476837,441709.0,8079,NNB,C,1
2,test,2,0.0,2-Back,1.0,m,Thu Jun 04 2026 17:49:58 GMT-0500 (Central Daylight Time),445371.3000000119,093_m_f_n_a.png,I,m,833,4,3,1864.0,443507.3000000119,8079,NNB,C,2
3,test,2,0.0,2-Back,1.0,m,Thu Jun 04 2026 17:49:58 GMT-0500 (Central Daylight Time),447620.8000000119,028_y_f_n_a.png,I,m,1231,5,3,2245.699999988079,445375.10000002384,8079,NNB,C,3
4,test,2,0.0,2-Back,1.0,m,Thu Jun 04 2026 17:49:58 GMT-0500 (Central Daylight Time),449471.60000002384,146_o_m_n_a.png,I,m,829,6,3,1848.3999999761581,447623.2000000477,8079,NNB,C,4
5,test,2,0.0,2-Back,1.0,m,Thu Jun 04 2026 17:49:58 GMT-0500 (Central Daylight Time),451552.60000002384,098_y_f_n_a.png,I,m,1058,7,3,2078.0,449474.60000002384,8079,NNB,C,5
6,test,2,1.0,2-Back,1.0,z,Thu Jun 04 2026 17:49:58 GMT-0500 (Central Daylight Time),453369.60000002384,146_o_m_n_a.png,I,z,793,8,3,1811.300000011921,451558.3000000119,8079,NNB,C,6
7,test,2,0.0,2-Back,1.0,m,Thu Jun 04 2026 17:49:58 GMT-0500 (Central Daylight Time),455317.8000000119,031_y_m_n_a.png,I,m,918,9,3,1945.5999999642372,453372.2000000477,8079,NNB,C,7
8,test,2,0.0,2-Back,1.0,m,Thu Jun 04 2026 17:49:58 GMT-0500 (Central Daylight Time),457149.8000000119,031_y_m_n_a.png,I,m,810,10,3,1830.300000011921,455319.5,8079,NNB,C,8
9,test,2,0.0,2-Back,1.0,m,Thu Jun 04 2026 17:49:58 GMT-0500 (Central Daylight Time),459301.10000002384,006_m_f_n_a.png,I,m,1122,11,3,2149.600000023842,457151.5,8079,NNB,C,9
10,test,2,0.0,2-Back,1.0,m,Thu Jun 04 2026 17:49:58 GMT-0500 (Central Daylight Time),461216.3000000119,028_y_f_n_a.png,I,m,884,12,3,1912.699999988079,459303.60000002384,8079,NNB,C,10
11,test,2,1.0,2-Back,1.0,z,Thu Jun 04 2026 17:49:58 GMT-0500 (Central Daylight Time),462734.10000002384,006_m_f_n_a.png,I,z,497,13,3,1514.0,461220.10000002384,8079,NNB,C,11
12,test,2,0.0,2-Back,1.0,m,Thu Jun 04 2026 17:49:58 GMT-0500 (Central Daylight Time),464466.0,059_o_m_n_a.png,I,m,709,14,3,1728.7999999523163,462737.2000000477,8079,NNB,C,12
13,test,2,0.0,2-Back,1.0,m,Thu Jun 04 2026 17:49:58 GMT-0500 (Central Daylight Time),466599.3000000119,059_o_m_n_a.png,I,m,1111,15,3,2129.199999988079,464470.10000002384,8079,NNB,C,13
14,test,2,0.0,2-Back,1.0,m,Thu Jun 04 2026 17:49:58 GMT-0500 (Central Daylight Time),468564.40000003576,030_o_f_n_a.png,I,m,938,16,3,1963.0,466601.40000003576,8079,NNB,C,14
15,test,2,0.0,2-Back,1.0,m,Thu Jun 04 2026 17:49:58 GMT-0500 (Central Daylight Time),470346.0,092_m_m_n_a.png,I,m,755,17,3,1778.8999999761581,468567.10000002384,8079,NNB,C,15
16,test,2,1.0,2-Back,1.0,z,Thu Jun 04 2026 17:49:58 GMT-0500 (Central Daylight Time),471996.60000002384,030_o_f_n_a.png,I,z,621,18,3,1648.300000011921,470348.3000000119,8079,NNB,C,16
0,test,3,1.0,2-Back,,,Thu Jun 04 2026 17:49:58 GMT-0500 (Central Daylight Time),471996.60000002384,057_y_m_n_a.png,I,space,1237,1,3,1648.300000011921,470348.3000000119,8079,NNB,C,0
0,test,3,1.0,2-Back,,,Thu Jun 04 2026 17:49:58 GMT-0500 (Central Daylight Time),471996.60000002384,057_y_m_n_a.png,I,space,1237,2,3,1648.300000011921,470348.3000000119,8079,NNB,C,0
1,test,3,0.0,2-Back,1.0,m,Thu Jun 04 2026 17:49:58 GMT-0500 (Central Daylight Time),480245.60000002384,030_o_f_n_a.png,I,m,834,3,3,1862.300000011921,478383.3000000119,8079,NNB,C,1
2,test,3,0.0,2-Back,1.0,m,Thu Jun 04 2026 17:49:58 GMT-0500 (Central Daylight Time),481961.3000000119,082_m_m_n_a.png,I,m,685,4,3,1713.199999988079,480248.10000002384,8079,NNB,C,2
3,test,3,1.0,2-Back,1.0,z,Thu Jun 04 2026 17:49:58 GMT-0500 (Central Daylight Time),483626.60000002384,030_o_f_n_a.png,I,z,632,5,3,1663.1000000238419,481963.5,8079,NNB,C,3
4,test,3,0.0,2-Back,1.0,m,Thu Jun 04 2026 17:49:58 GMT-0500 (Central Daylight Time),485891.40000003576,031_y_m_n_a.png,I,m,1232,6,3,2261.600000023842,483629.8000000119,8079,NNB,C,4
5,test,3,0.0,2-Back,1.0,m,Thu Jun 04 2026 17:49:58 GMT-0500 (Central Daylight Time),487774.60000002384,082_m_m_n_a.png,I,m,862,7,3,1880.699999988079,485893.90000003576,8079,NNB,C,5
6,test,3,1.0,2-Back,1.0,z,Thu Jun 04 2026 17:49:58 GMT-0500 (Central Daylight Time),489908.0,031_y_m_n_a.png,I,z,1105,8,3,2131.0,487777.0,8079,NNB,C,6
7,test,3,0.0,2-Back,1.0,m,Thu Jun 04 2026 17:49:58 GMT-0500 (Central Daylight Time),491773.5,028_y_f_n_a.png,I,m,845,9,3,1862.5999999642372,489910.90000003576,8079,NNB,C,7
8,test,3,0.0,2-Back,1.0,m,Thu Jun 04 2026 17:49:58 GMT-0500 (Central Daylight Time),493823.10000002384,092_m_m_n_a.png,I,m,1018,10,3,2047.300000011921,491775.8000000119,8079,NNB,C,8
9,test,3,1.0,2-Back,1.0,z,Thu Jun 04 2026 17:49:58 GMT-0500 (Central Daylight Time),495372.8000000119,028_y_f_n_a.png,I,z,532,11,3,1547.0999999642372,493825.7000000477,8079,NNB,C,9
10,test,3,1.0,2-Back,1.0,z,Thu Jun 04 2026 17:49:58 GMT-0500 (Central Daylight Time),497123.2000000477,092_m_m_n_a.png,I,z,733,12,3,1747.800000011921,495375.40000003576,8079,NNB,C,10
11,test,3,0.0,2-Back,1.0,m,Thu Jun 04 2026 17:49:58 GMT-0500 (Central Daylight Time),498823.40000003576,030_o_f_n_a.png,I,m,683,13,3,1698.199999988079,497125.2000000477,8079,NNB,C,11
12,test,3,0.0,2-Back,1.0,m,Thu Jun 04 2026 17:49:58 GMT-0500 (Central Daylight Time),500687.2000000477,093_m_f_n_a.png,I,m,837,14,3,1860.800000011921,498826.40000003576,8079,NNB,C,12
13,test,3,0.0,2-Back,1.0,m,Thu Jun 04 2026 17:49:58 GMT-0500 (Central Daylight Time),502572.40000003576,146_o_m_n_a.png,I,m,858,15,3,1882.699999988079,500689.7000000477,8079,NNB,C,13
13,test,3,1.0,2-Back,0.0,z,Thu Jun 04 2026 17:49:58 GMT-0500 (Central Daylight Time),504736.2000000477,093_m_f_n_a.png,I,m,1133,16,3,2161.600000023842,502574.60000002384,8079,NNB,C,14
14,test,3,0.0,2-Back,1.0,m,Thu Jun 04 2026 17:49:58 GMT-0500 (Central Daylight Time),506734.8000000119,130_o_f_n_a.png,I,m,978,17,3,1995.300000011921,504739.5,8079,NNB,C,15
15,test,3,0.0,2-Back,1.0,m,Thu Jun 04 2026 17:49:58 GMT-0500 (Central Daylight Time),508836.0,130_o_f_n_a.png,I,m,1068,18,3,2099.0,506737.0,8079,NNB,C,16
0,test,4,0.0,2-Back,,,Thu Jun 04 2026 17:49:58 GMT-0500 (Central Daylight Time),508836.0,059_o_m_n_a.png,I,space,1301,1,3,2099.0,506737.0,8079,NNB,C,0
0,test,4,0.0,2-Back,,,Thu Jun 04 2026 17:49:58 GMT-0500 (Central Daylight Time),508836.0,098_y_f_n_a.png,I,space,1301,2,3,2099.0,506737.0,8079,NNB,C,0
1,test,4,1.0,2-Back,1.0,z,Thu Jun 04 2026 17:49:58 GMT-0500 (Central Daylight Time),516867.10000002384,059_o_m_n_a.png,I,z,501,3,3,1530.3999999761581,515336.7000000477,8079,NNB,C,1
2,test,4,1.0,2-Back,1.0,z,Thu Jun 04 2026 17:49:58 GMT-0500 (Central Daylight Time),518715.8000000119,098_y_f_n_a.png,I,z,808,4,3,1844.800000011921,516871.0,8079,NNB,C,2
3,test,4,0.0,2-Back,1.0,m,Thu Jun 04 2026 17:49:58 GMT-0500 (Central Daylight Time),520365.7000000477,030_o_f_n_a.png,I,m,622,5,3,1646.6000000238419,518719.10000002384,8079,NNB,C,3
3,test,4,0.0,2-Back,0.0,m,Thu Jun 04 2026 17:49:58 GMT-0500 (Central Daylight Time),522164.10000002384,030_o_f_n_a.png,I,z,773,6,3,1795.800000011921,520368.3000000119,8079,NNB,C,4
4,test,4,0.0,2-Back,1.0,m,Thu Jun 04 2026 17:49:58 GMT-0500 (Central Daylight Time),524113.7000000477,006_m_f_n_a.png,I,m,916,7,3,1947.300000011921,522166.40000003576,8079,NNB,C,5
5,test,4,0.0,2-Back,1.0,m,Thu Jun 04 2026 17:49:58 GMT-0500 (Central Daylight Time),525863.4000000358,031_y_m_n_a.png,I,m,718,8,3,1746.5,524116.90000003576,8079,NNB,C,6
6,test,4,1.0,2-Back,1.0,z,Thu Jun 04 2026 17:49:58 GMT-0500 (Central Daylight Time),527430.7000000477,006_m_f_n_a.png,I,z,550,9,3,1564.6000000238419,525866.1000000238,8079,NNB,C,7
7,test,4,0.0,2-Back,1.0,m,Thu Jun 04 2026 17:49:58 GMT-0500 (Central Daylight Time),529078.1000000238,092_m_m_n_a.png,I,m,617,10,3,1644.800000011921,527433.3000000119,8079,NNB,C,8
8,test,4,0.0,2-Back,1.0,m,Thu Jun 04 2026 17:49:58 GMT-0500 (Central Daylight Time),530864.4000000358,031_y_m_n_a.png,I,m,765,11,3,1784.5,529079.9000000358,8079,NNB,C,9
9,test,4,0.0,2-Back,1.0,m,Thu Jun 04 2026 17:49:58 GMT-0500 (Central Daylight Time),532662.8000000119,130_o_f_n_a.png,I,m,784,12,3,1793.5,530869.3000000119,8079,NNB,C,10
9,test,4,0.0,2-Back,0.0,m,Thu Jun 04 2026 17:49:58 GMT-0500 (Central Daylight Time),534376.1000000238,057_y_m_n_a.png,I,z,693,13,3,1710.800000011921,532665.3000000119,8079,NNB,C,11
10,test,4,1.0,2-Back,1.0,z,Thu Jun 04 2026 17:49:58 GMT-0500 (Central Daylight Time),536292.7000000477,130_o_f_n_a.png,I,z,890,14,3,1912.6000000238419,534380.1000000238,8079,NNB,C,12
10,test,4,1.0,2-Back,0.0,z,Thu Jun 04 2026 17:49:58 GMT-0500 (Central Daylight Time),538292.4000000358,057_y_m_n_a.png,I,m,973,15,3,1995.9000000357628,536296.5,8079,NNB,C,13
11,test,4,0.0,2-Back,1.0,m,Thu Jun 04 2026 17:49:58 GMT-0500 (Central Daylight Time),540708.8000000119,082_m_m_n_a.png,I,m,1385,16,3,2412.800000011921,538296.0,8079,NNB,C,14
12,test,4,0.0,2-Back,1.0,m,Thu Jun 04 2026 17:49:58 GMT-0500 (Central Daylight Time),542607.6000000238,093_m_f_n_a.png,I,m,878,17,3,1895.1000000238419,540712.5,8079,NNB,C,15
13,test,4,1.0,2-Back,1.0,z,Thu Jun 04 2026 17:49:58 GMT-0500 (Central Daylight Time),544191.1000000238,082_m_m_n_a.png,I,z,562,18,3,1579.3999999761581,542611.7000000477,8079,NNB,C,16
0,test,5,1.0,2-Back,,,Thu Jun 04 2026 17:49:58 GMT-0500 (Central Daylight Time),544191.1000000238,057_y_m_n_a.png,I,space,1139,1,3,1579.3999999761581,542611.7000000477,8079,NNB,C,0
0,test,5,1.0,2-Back,,,Thu Jun 04 2026 17:49:58 GMT-0500 (Central Daylight Time),544191.1000000238,093_m_f_n_a.png,I,space,1139,2,3,1579.3999999761581,542611.7000000477,8079,NNB,C,0
1,test,5,1.0,2-Back,1.0,z,Thu Jun 04 2026 17:49:58 GMT-0500 (Central Daylight Time),551987.4000000358,057_y_m_n_a.png,I,z,568,3,3,1594.5,550392.9000000358,8079,NNB,C,1
2,test,5,1.0,2-Back,1.0,z,Thu Jun 04 2026 17:49:58 GMT-0500 (Central Daylight Time),554020.8000000119,093_m_f_n_a.png,I,z,1007,4,3,2028.5,551992.3000000119,8079,NNB,C,2
3,test,5,0.0,2-Back,1.0,m,Thu Jun 04 2026 17:49:58 GMT-0500 (Central Daylight Time),555753.1000000238,130_o_f_n_a.png,I,m,710,5,3,1726.8999999761581,554026.2000000477,8079,NNB,C,3
4,test,5,0.0,2-Back,1.0,m,Thu Jun 04 2026 17:49:58 GMT-0500 (Central Daylight Time),557853.0,057_y_m_n_a.png,I,m,1073,6,3,2095.2999999523163,555757.7000000477,8079,NNB,C,4
5,test,5,0.0,2-Back,1.0,m,Thu Jun 04 2026 17:49:58 GMT-0500 (Central Daylight Time),559618.0,028_y_f_n_a.png,I,m,733,7,3,1763.2999999523163,557854.7000000477,8079,NNB,C,5
5,test,5,0.0,2-Back,0.0,m,Thu Jun 04 2026 17:49:58 GMT-0500 (Central Daylight Time),561201.7000000477,130_o_f_n_a.png,I,z,559,8,3,1581.300000011921,559620.4000000358,8079,NNB,C,6
6,test,5,1.0,2-Back,1.0,z,Thu Jun 04 2026 17:49:58 GMT-0500 (Central Daylight Time),562984.3000000119,028_y_f_n_a.png,I,z,753,9,3,1779.5,561204.8000000119,8079,NNB,C,7
7,test,5,0.0,2-Back,1.0,m,Thu Jun 04 2026 17:49:58 GMT-0500 (Central Daylight Time),564733.5,146_o_m_n_a.png,I,m,729,10,3,1746.8999999761581,562986.6000000238,8079,NNB,C,8
8,test,5,0.0,2-Back,1.0,m,Thu Jun 04 2026 17:49:58 GMT-0500 (Central Daylight Time),566383.0,006_m_f_n_a.png,I,m,628,11,3,1646.199999988079,564736.8000000119,8079,NNB,C,9
9,test,5,0.0,2-Back,1.0,m,Thu Jun 04 2026 17:49:58 GMT-0500 (Central Daylight Time),568165.5,092_m_m_n_a.png,I,m,762,12,3,1776.0999999642372,566389.4000000358,8079,NNB,C,10
10,test,5,0.0,2-Back,1.0,m,Thu Jun 04 2026 17:49:58 GMT-0500 (Central Daylight Time),570165.6000000238,146_o_m_n_a.png,I,m,972,13,3,1996.6000000238419,568169.0,8079,NNB,C,11
11,test,5,1.0,2-Back,1.0,z,Thu Jun 04 2026 17:49:58 GMT-0500 (Central Daylight Time),571980.6000000238,092_m_m_n_a.png,I,z,787,14,3,1811.3999999761581,570169.2000000477,8079,NNB,C,12
12,test,5,0.0,2-Back,1.0,m,Thu Jun 04 2026 17:49:58 GMT-0500 (Central Daylight Time),573814.7000000477,098_y_f_n_a.png,I,m,802,15,3,1832.1000000238419,571982.6000000238,8079,NNB,C,13
13,test,5,0.0,2-Back,1.0,m,Thu Jun 04 2026 17:49:58 GMT-0500 (Central Daylight Time),575680.0,059_o_m_n_a.png,I,m,842,16,3,1856.199999988079,573823.8000000119,8079,NNB,C,14
14,test,5,0.0,2-Back,1.0,m,Thu Jun 04 2026 17:49:58 GMT-0500 (Central Daylight Time),577447.3000000119,006_m_f_n_a.png,I,m,745,17,3,1765.0,575682.3000000119,8079,NNB,C,15
15,test,5,1.0,2-Back,1.0,z,Thu Jun 04 2026 17:49:58 GMT-0500 (Central Daylight Time),579029.1000000238,059_o_m_n_a.png,I,z,551,18,3,1578.3999999761581,577450.7000000477,8079,NNB,C,16
