acc_sum,block,block_c,condition,correct,correct_response,datetime,endtime,flanker,jitter,project,response,response_test_buffer_response,response_test_target_response,response_time,response_time_test_buffer_response,response_time_test_target_response,row_sel,session_number,start_end,starttime,subject_id,target,task,task_vers,time_test_buffer,time_test_buffer_response,time_test_constants,time_test_flanker,time_test_jitter,time_test_logger,time_test_target,time_test_target_response,time_test_variables,trial
1,prac,1,con,1,z,Mon Jun 08 2026 15:03:03 GMT-0400 (Eastern Daylight Time),88612.5,rage,1000,I,z,,,616,,,15,1,2923.899999976158,85688.60000002384,9088,rage,AF,A,,,,,,,,,,1
2,prac,1,inc,1,z,Mon Jun 08 2026 15:03:03 GMT-0400 (Eastern Daylight Time),91695.60000002384,rock,900,I,z,,,871,,,10,1,3073.100000023842,88622.5,9088,kind,AF,A,,,,,,,,,,2
3,prac,1,inc,1,m,Mon Jun 08 2026 15:03:03 GMT-0400 (Eastern Daylight Time),94662.19999998808,kind,900,I,m,,,765,,,2,1,2955.699999988079,91706.5,9088,rock,AF,A,,,,,,,,,,3
4,prac,1,con,1,m,Mon Jun 08 2026 15:03:03 GMT-0400 (Eastern Daylight Time),97528.80000001192,jacket,800,I,m,,,778,,,5,1,2857.400000035763,94671.39999997616,9088,jacket,AF,A,,,,,,,,,,4
5,prac,1,con,1,z,Mon Jun 08 2026 15:03:03 GMT-0400 (Eastern Daylight Time),100162.30000001192,brutal,800,I,z,,,519,,,13,1,2623.300000011921,97539.0,9088,brutal,AF,A,,,,,,,,,,5
6,prac,1,inc,1,m,Mon Jun 08 2026 15:03:03 GMT-0400 (Eastern Daylight Time),103245.30000001192,brutal,1100,I,m,,,674,,,8,1,3070.300000011921,100175.0,9088,window,AF,A,,,,,,,,,,6
7,prac,1,inc,1,m,Mon Jun 08 2026 15:03:03 GMT-0400 (Eastern Daylight Time),106412.19999998808,hate,1100,I,m,,,760,,,4,1,3157.0,103255.19999998808,9088,film,AF,A,,,,,,,,,,7
8,prac,1,inc,1,z,Mon Jun 08 2026 15:03:03 GMT-0400 (Eastern Daylight Time),110578.89999997616,window,1100,I,z,,,1752,,,16,1,4153.5,106425.39999997616,9088,temper,AF,A,,,,,,,,,,8
9,prac,1,con,1,z,Mon Jun 08 2026 15:03:03 GMT-0400 (Eastern Daylight Time),113512.10000002384,elated,800,I,z,,,828,,,9,1,2923.300000011921,110588.80000001192,9088,elated,AF,A,,,,,,,,,,9
10,prac,1,con,1,m,Mon Jun 08 2026 15:03:03 GMT-0400 (Eastern Daylight Time),116662.19999998808,bell,1000,I,m,,,847,,,3,1,3140.5,113521.69999998808,9088,bell,AF,A,,,,,,,,,,10
11,prac,1,inc,1,z,Mon Jun 08 2026 15:03:03 GMT-0400 (Eastern Daylight Time),119678.89999997616,film,900,I,z,,,806,,,14,1,3005.0,116673.89999997616,9088,hate,AF,A,,,,,,,,,,11
12,prac,1,con,1,m,Mon Jun 08 2026 15:03:03 GMT-0400 (Eastern Daylight Time),122678.80000001192,remote,1000,I,m,,,697,,,7,1,2987.0,119691.80000001192,9088,remote,AF,A,,,,,,,,,,12
13,prac,1,inc,1,m,Mon Jun 08 2026 15:03:03 GMT-0400 (Eastern Daylight Time),125562.19999998808,elated,900,I,m,,,677,,,6,1,2871.199999988079,122691.0,9088,napkin,AF,A,,,,,,,,,,13
14,prac,1,con,1,z,Mon Jun 08 2026 15:03:03 GMT-0400 (Eastern Daylight Time),128562.10000002384,love,1000,I,z,,,685,,,11,1,2988.600000023842,125573.5,9088,love,AF,A,,,,,,,,,,14
15,prac,1,con,1,m,Mon Jun 08 2026 15:03:03 GMT-0400 (Eastern Daylight Time),131262.19999998808,step,800,I,m,,,590,,,1,1,2691.300000011921,128570.89999997616,9088,step,AF,A,,,,,,,,,,15
16,prac,1,inc,1,z,Mon Jun 08 2026 15:03:03 GMT-0400 (Eastern Daylight Time),134462.10000002384,napkin,1100,I,z,,,790,,,12,1,3190.2000000476837,131271.89999997616,9088,friend,AF,A,,,,,,,,,,16
1,test,1,con,1,z,Mon Jun 08 2026 15:03:03 GMT-0400 (Eastern Daylight Time),169795.30000001192,brutal,1000,I,z,z,None,453,253.0,200.0,35,1,1991.6000000238419,167803.69999998808,9088,brutal,AF,A,163580,163580,161855,162864,161855,163846,163380,163380,163846,1
2,test,1,inc,1,z,Mon Jun 08 2026 15:03:03 GMT-0400 (Eastern Daylight Time),172028.69999998808,window,1100,I,z,z,None,593,393.0,200.0,64,1,2224.199999988079,169804.5,9088,temper,AF,A,165680,165680,163856,164964,163856,166080,165480,165480,166080,2
3,test,1,con,1,m,Mon Jun 08 2026 15:03:03 GMT-0400 (Eastern Daylight Time),173911.89999997616,remote,900,I,m,m,None,446,247.0,199.0,114,1,1872.0999999642372,172039.80000001192,9088,remote,AF,A,167714,167714,166091,166997,166091,167963,167514,167514,167963,3
4,test,1,con,1,z,Mon Jun 08 2026 15:03:03 GMT-0400 (Eastern Daylight Time),175711.89999997616,friend,800,I,z,z,None,455,256.0,199.0,25,1,1790.0999999642372,173921.80000001192,9088,friend,AF,A,169497,169497,167973,168780,167973,169763,169297,169297,169763,4
5,test,1,con,1,m,Mon Jun 08 2026 15:03:03 GMT-0400 (Eastern Daylight Time),177645.30000001192,window,900,I,m,m,None,491,292.0,199.0,122,1,1924.1000000238419,175721.19999998808,9088,window,AF,A,171397,171397,169772,170680,169773,171696,171197,171197,171696,5
6,test,1,con,1,m,Mon Jun 08 2026 15:03:03 GMT-0400 (Eastern Daylight Time),179762.0,step,1100,I,m,m,None,472,272.0,200.0,68,1,2107.100000023842,177654.89999997616,9088,step,AF,A,173530,173530,171706,172814,171706,173813,173330,173330,173813,6
7,test,1,inc,1,m,Mon Jun 08 2026 15:03:03 GMT-0400 (Eastern Daylight Time),182111.89999997616,hate,1100,I,m,m,None,705,506.0,199.0,72,1,2339.599999964237,179772.30000001192,9088,step,AF,A,175647,175647,173823,174930,173824,176163,175447,175447,176163,7
8,test,1,inc,1,z,Mon Jun 08 2026 15:03:03 GMT-0400 (Eastern Daylight Time),184162.0,rock,900,I,z,z,None,603,404.0,199.0,14,1,2038.800000011921,182123.19999998808,9088,kind,AF,A,177797,177797,176174,177080,176175,178213,177597,177597,178213,8
9,test,1,con,1,z,Mon Jun 08 2026 15:03:03 GMT-0400 (Eastern Daylight Time),186228.60000002384,rage,1100,I,z,z,None,417,218.0,199.0,52,1,2057.400000035763,184171.19999998808,9088,rage,AF,A,180047,180047,178222,179330,178223,180280,179847,179847,180280,9
10,test,1,con,1,m,Mon Jun 08 2026 15:03:03 GMT-0400 (Eastern Daylight Time),188328.39999997616,step,900,I,m,m,None,663,463.0,200.0,66,1,2091.0,186237.39999997616,9088,step,AF,A,181914,181914,180288,181197,180289,182380,181713,181713,182379,10
11,test,1,inc,1,z,Mon Jun 08 2026 15:03:03 GMT-0400 (Eastern Daylight Time),190645.30000001192,film,1100,I,z,z,None,666,467.0,199.0,48,1,2306.600000023842,188338.69999998808,9088,hate,AF,A,184214,184214,182390,183497,182390,184696,184013,184014,184696,11
12,test,1,con,1,m,Mon Jun 08 2026 15:03:03 GMT-0400 (Eastern Daylight Time),192662.0,bell,800,I,m,m,None,666,467.0,199.0,81,1,2004.5,190657.5,9088,bell,AF,A,186230,186230,184709,185513,184709,186713,186030,186030,186713,12
13,test,1,inc,1,m,Mon Jun 08 2026 15:03:03 GMT-0400 (Eastern Daylight Time),194745.10000002384,brutal,900,I,m,m,None,645,446.0,199.0,102,1,2072.800000011921,192672.30000001192,9088,jacket,AF,A,188347,188347,186723,187630,186724,188796,188147,188147,188796,13
14,test,1,inc,1,m,Mon Jun 08 2026 15:03:03 GMT-0400 (Eastern Daylight Time),196945.30000001192,temper,1000,I,m,m,None,654,454.0,200.0,127,1,2188.300000011921,194757.0,9088,window,AF,A,190530,190531,188808,189813,188809,190996,190330,190330,190996,14
15,test,1,inc,1,z,Mon Jun 08 2026 15:03:03 GMT-0400 (Eastern Daylight Time),199228.60000002384,film,1100,I,z,z,None,644,444.0,200.0,16,1,2273.5,196955.10000002384,9088,kind,AF,A,192830,192830,191006,192113,191007,193280,192630,192630,193280,15
16,test,1,con,1,m,Mon Jun 08 2026 15:03:03 GMT-0400 (Eastern Daylight Time),201311.89999997616,jacket,1000,I,m,m,None,540,340.0,200.0,99,1,2073.7999999523163,199238.10000002384,9088,jacket,AF,A,195014,195014,193289,194297,193290,195363,194813,194813,195363,16
17,test,1,inc,1,m,Mon Jun 08 2026 15:03:03 GMT-0400 (Eastern Daylight Time),203612.0,hate,1100,I,m,m,None,659,460.0,199.0,80,1,2289.699999988079,201322.30000001192,9088,rock,AF,A,197197,197197,195373,196480,195374,197663,196997,196997,197663,17
18,test,1,con,1,z,Mon Jun 08 2026 15:03:03 GMT-0400 (Eastern Daylight Time),205878.39999997616,kind,1000,I,z,z,None,716,517.0,199.0,11,1,2256.099999964237,203622.30000001192,9088,kind,AF,A,199397,199397,197673,198680,197674,199930,199197,199197,199929,18
19,test,1,inc,1,z,Mon Jun 08 2026 15:03:03 GMT-0400 (Eastern Daylight Time),207978.5,napkin,900,I,z,z,None,661,461.0,200.0,38,1,2089.5,205889.0,9088,brutal,AF,A,201563,201564,199940,200847,199940,202030,201363,201363,202029,19
20,test,1,inc,1,m,Mon Jun 08 2026 15:03:03 GMT-0400 (Eastern Daylight Time),210112.0,love,1000,I,m,m,None,589,389.0,200.0,71,1,2121.800000011921,207990.19999998808,9088,step,AF,A,203763,203764,202041,203047,202042,204163,203563,203563,204163,20
21,test,1,con,1,z,Mon Jun 08 2026 15:03:03 GMT-0400 (Eastern Daylight Time),212545.30000001192,elated,1000,I,z,z,None,888,689.0,199.0,3,1,2423.400000035763,210121.89999997616,9088,elated,AF,A,205897,205897,204173,205180,204173,206596,205697,205697,206596,21
22,test,1,con,1,m,Mon Jun 08 2026 15:03:03 GMT-0400 (Eastern Daylight Time),214679.10000002384,remote,1000,I,m,m,None,600,400.0,200.0,115,1,2122.900000035763,212556.19999998808,9088,remote,AF,A,208330,208330,206607,207614,206608,208730,208130,208130,208730,22
23,test,1,con,1,z,Mon Jun 08 2026 15:03:03 GMT-0400 (Eastern Daylight Time),216695.10000002384,temper,1000,I,z,z,None,483,283.0,200.0,59,1,2007.6000000238419,214687.5,9088,temper,AF,A,210463,210463,208739,209747,208739,210746,210263,210263,210746,23
24,test,1,inc,1,z,Mon Jun 08 2026 15:03:03 GMT-0400 (Eastern Daylight Time),218878.60000002384,bell,1000,I,z,z,None,641,441.0,200.0,15,1,2173.800000011921,216704.80000001192,9088,kind,AF,A,212480,212480,210756,211763,210756,212930,212280,212280,212930,24
25,test,1,con,1,m,Mon Jun 08 2026 15:03:03 GMT-0400 (Eastern Daylight Time),221195.19999998808,film,1100,I,m,m,None,677,477.0,200.0,92,1,2307.399999976158,218887.80000001192,9088,film,AF,A,214763,214764,212939,214047,212939,215246,214563,214563,215246,25
26,test,1,con,1,z,Mon Jun 08 2026 15:03:03 GMT-0400 (Eastern Daylight Time),223295.30000001192,kind,1100,I,z,z,None,457,258.0,199.0,12,1,2091.400000035763,221203.89999997616,9088,kind,AF,A,217080,217080,215255,216363,215255,217346,216880,216880,217346,26
27,test,1,con,1,m,Mon Jun 08 2026 15:03:03 GMT-0400 (Eastern Daylight Time),225111.60000002384,step,800,I,m,m,None,480,281.0,199.0,65,1,1807.9000000357628,223303.69999998808,9088,step,AF,A,218880,218880,217355,218163,217355,219163,218680,218680,219163,27
28,test,1,inc,1,m,Mon Jun 08 2026 15:03:03 GMT-0400 (Eastern Daylight Time),227079.0,rage,800,I,m,m,None,632,433.0,199.0,69,1,1958.3999999761581,225120.60000002384,9088,step,AF,A,220697,220697,219172,219980,219172,221130,220497,220497,221130,28
29,test,1,inc,1,m,Mon Jun 08 2026 15:03:03 GMT-0400 (Eastern Daylight Time),228978.5,rage,800,I,m,m,None,554,354.0,200.0,77,1,1889.800000011921,227088.69999998808,9088,rock,AF,A,222663,222663,221140,221947,221140,223030,222463,222463,223030,29
30,test,1,inc,1,z,Mon Jun 08 2026 15:03:03 GMT-0400 (Eastern Daylight Time),231045.19999998808,step,800,I,z,z,None,717,517.0,200.0,53,1,2056.899999976158,228988.30000001192,9088,rage,AF,A,224563,224564,223039,223847,223040,225096,224363,224363,225096,30
31,test,1,inc,1,m,Mon Jun 08 2026 15:03:03 GMT-0400 (Eastern Daylight Time),233111.60000002384,rage,800,I,m,m,None,730,531.0,199.0,85,1,2056.300000011921,231055.30000001192,9088,bell,AF,A,226630,226630,225106,225913,225107,227163,226430,226430,227163,31
32,test,1,inc,1,m,Mon Jun 08 2026 15:03:03 GMT-0400 (Eastern Daylight Time),235345.19999998808,temper,1000,I,m,m,None,688,489.0,199.0,111,1,2224.599999964237,233120.60000002384,9088,napkin,AF,A,228897,228897,227172,228180,227172,229396,228697,228697,229396,32
33,test,1,inc,1,m,Mon Jun 08 2026 15:03:03 GMT-0400 (Eastern Daylight Time),237611.89999997616,friend,1100,I,m,m,None,627,427.0,200.0,104,1,2256.399999976158,235355.5,9088,jacket,AF,A,231230,231230,229407,230513,229407,231663,231030,231030,231663,33
34,test,1,inc,1,z,Mon Jun 08 2026 15:03:03 GMT-0400 (Eastern Daylight Time),239828.60000002384,bell,1000,I,z,z,None,667,468.0,199.0,47,1,2206.400000035763,237622.19999998808,9088,hate,AF,A,233397,233397,231673,232680,231674,233880,233197,233197,233880,34
35,test,1,inc,1,z,Mon Jun 08 2026 15:03:03 GMT-0400 (Eastern Daylight Time),241845.19999998808,step,800,I,z,z,None,666,467.0,199.0,45,1,2005.5,239839.69999998808,9088,hate,AF,A,235414,235414,233891,234697,233891,235896,235214,235214,235896,35
36,test,1,con,1,m,Mon Jun 08 2026 15:03:03 GMT-0400 (Eastern Daylight Time),244011.80000001192,rock,900,I,m,m,None,727,527.0,200.0,74,1,2157.100000023842,241854.69999998808,9088,rock,AF,A,237530,237530,235906,236813,235906,238063,237330,237330,238063,36
37,test,1,con,1,m,Mon Jun 08 2026 15:03:03 GMT-0400 (Eastern Daylight Time),246278.5,napkin,800,I,m,m,None,916,717.0,199.0,105,1,2255.399999976158,244023.10000002384,9088,napkin,AF,A,239597,239597,238074,238880,238075,240330,239397,239397,240329,37
38,test,1,inc,1,z,Mon Jun 08 2026 15:03:03 GMT-0400 (Eastern Daylight Time),248778.5,rock,900,I,z,z,None,1061,861.0,200.0,46,1,2489.199999988079,246289.30000001192,9088,hate,AF,A,241964,241964,240340,241247,240341,242830,241763,241763,242829,38
39,test,1,inc,1,z,Mon Jun 08 2026 15:03:03 GMT-0400 (Eastern Daylight Time),251061.80000001192,window,1100,I,z,z,None,634,434.0,200.0,32,1,2274.600000023842,248787.19999998808,9088,friend,AF,A,244663,244663,242838,243947,242839,245113,244463,244463,245113,39
40,test,1,con,1,z,Mon Jun 08 2026 15:03:03 GMT-0400 (Eastern Daylight Time),252828.5,love,800,I,z,z,None,425,226.0,199.0,17,1,1757.8999999761581,251070.60000002384,9088,love,AF,A,246647,246647,245122,245930,245122,246880,246447,246447,246879,40
41,test,1,con,1,m,Mon Jun 08 2026 15:03:03 GMT-0400 (Eastern Daylight Time),255111.5,window,1100,I,m,m,None,648,448.0,200.0,124,1,2274.100000023842,252837.39999997616,9088,window,AF,A,248713,248713,246888,247997,246889,249163,248513,248513,249163,41
42,test,1,inc,1,m,Mon Jun 08 2026 15:03:03 GMT-0400 (Eastern Daylight Time),257311.80000001192,brutal,900,I,m,m,None,756,557.0,199.0,118,1,2190.600000023842,255121.19999998808,9088,remote,AF,A,250797,250797,249172,250080,249173,251363,250597,250597,251363,42
43,test,1,inc,1,m,Mon Jun 08 2026 15:03:03 GMT-0400 (Eastern Daylight Time),259478.5,love,1000,I,m,m,None,615,416.0,199.0,87,1,2156.0,257322.5,9088,bell,AF,A,253097,253097,251374,252380,251374,253530,252897,252897,253530,43
44,test,1,con,1,m,Mon Jun 08 2026 15:03:03 GMT-0400 (Eastern Daylight Time),261395.10000002384,film,900,I,m,m,None,470,270.0,200.0,90,1,1907.2000000476837,259487.89999997616,9088,film,AF,A,255163,255163,253539,254447,253539,255446,254963,254963,255446,44
45,test,1,inc,1,m,Mon Jun 08 2026 15:03:03 GMT-0400 (Eastern Daylight Time),263678.5,hate,1100,I,m,m,None,640,441.0,199.0,88,1,2272.5,261406.0,9088,bell,AF,A,257280,257280,255457,256563,255457,257730,257080,257080,257730,45
46,test,1,inc,1,z,Mon Jun 08 2026 15:03:03 GMT-0400 (Eastern Daylight Time),265711.8000000119,step,800,I,z,z,None,690,490.0,200.0,21,1,2024.300000011921,263687.5,9088,love,AF,A,259263,259263,257739,258547,257739,259763,259063,259063,259763,46
47,test,1,con,1,z,Mon Jun 08 2026 15:03:03 GMT-0400 (Eastern Daylight Time),267761.8000000119,friend,900,I,z,z,None,604,405.0,199.0,26,1,2041.1000000238419,265720.6999999881,9088,friend,AF,A,261397,261397,259772,260679,259772,261813,261197,261197,261813,47
48,test,1,inc,1,m,Mon Jun 08 2026 15:03:03 GMT-0400 (Eastern Daylight Time),269695.1999999881,rage,800,I,m,m,None,589,390.0,199.0,93,1,1922.300000011921,267772.89999997616,9088,film,AF,A,263347,263347,261824,262630,261824,263746,263147,263147,263746,48
49,test,1,inc,1,z,Mon Jun 08 2026 15:03:03 GMT-0400 (Eastern Daylight Time),271944.89999997616,window,1100,I,z,z,None,612,413.0,199.0,8,1,2241.099999964237,269703.8000000119,9088,elated,AF,A,265580,265580,263755,264863,263755,265996,265380,265380,265996,49
50,test,1,con,1,m,Mon Jun 08 2026 15:03:03 GMT-0400 (Eastern Daylight Time),274178.39999997616,bell,1000,I,m,m,None,686,487.0,199.0,83,1,2222.099999964237,271956.3000000119,9088,bell,AF,A,267730,267730,266007,267013,266008,268230,267530,267530,268229,50
50,test,1,con,0,z,Mon Jun 08 2026 15:03:03 GMT-0400 (Eastern Daylight Time),276045.10000002384,elated,800,I,m,m,None,525,325.0,200.0,1,1,1855.0,274190.10000002384,9088,elated,AF,A,269764,269764,268241,269047,268241,270096,269563,269563,270096,51
51,test,1,con,1,m,Mon Jun 08 2026 15:03:03 GMT-0400 (Eastern Daylight Time),278011.6999999881,bell,900,I,m,m,None,527,328.0,199.0,82,1,1955.199999988079,276056.5,9088,bell,AF,A,271730,271730,270108,271013,270108,272063,271530,271530,272063,52
52,test,1,inc,1,z,Mon Jun 08 2026 15:03:03 GMT-0400 (Eastern Daylight Time),280161.89999997616,jacket,800,I,z,z,None,803,604.0,199.0,29,1,2140.099999964237,278021.8000000119,9088,friend,AF,A,273597,273597,272073,272880,272073,274213,273397,273397,274213,53
53,test,1,con,1,m,Mon Jun 08 2026 15:03:03 GMT-0400 (Eastern Daylight Time),282111.8000000119,rock,800,I,m,m,None,605,406.0,199.0,73,1,1939.699999988079,280172.10000002384,9088,rock,AF,A,275747,275747,274223,275030,274223,276163,275546,275547,276163,54
54,test,1,con,1,z,Mon Jun 08 2026 15:03:03 GMT-0400 (Eastern Daylight Time),284295.10000002384,rage,1000,I,z,z,None,647,448.0,199.0,51,1,2174.100000023842,282121.0,9088,rage,AF,A,277897,277897,276172,277180,276172,278346,277697,277697,278346,55
55,test,1,con,1,z,Mon Jun 08 2026 15:03:03 GMT-0400 (Eastern Daylight Time),286411.8000000119,temper,1100,I,z,z,None,476,277.0,199.0,60,1,2108.800000011921,284303.0,9088,temper,AF,A,280180,280180,278354,279463,278354,280463,279980,279980,280463,56
56,test,1,inc,1,z,Mon Jun 08 2026 15:03:03 GMT-0400 (Eastern Daylight Time),288428.39999997616,jacket,800,I,z,z,None,676,477.0,199.0,5,1,2005.699999988079,286422.6999999881,9088,elated,AF,A,281997,281997,280474,281280,280474,282480,281797,281797,282479,57
57,test,1,inc,1,m,Mon Jun 08 2026 15:03:03 GMT-0400 (Eastern Daylight Time),290528.39999997616,kind,900,I,m,m,None,656,456.0,200.0,70,1,2089.699999988079,288438.6999999881,9088,step,AF,A,284113,284113,282490,283397,282490,284579,283913,283913,284579,58
58,test,1,con,1,m,Mon Jun 08 2026 15:03:03 GMT-0400 (Eastern Daylight Time),292795.0,jacket,1100,I,m,m,None,628,428.0,200.0,100,1,2254.5,290540.5,9088,jacket,AF,A,286413,286413,284592,285697,284592,286846,286213,286213,286846,59
59,test,1,con,1,m,Mon Jun 08 2026 15:03:03 GMT-0400 (Eastern Daylight Time),294811.8000000119,film,1000,I,m,m,None,476,277.0,199.0,91,1,2007.4000000357628,292804.39999997616,9088,film,AF,A,288580,288580,286855,287863,286856,288863,288380,288380,288863,60
60,test,1,inc,1,m,Mon Jun 08 2026 15:03:03 GMT-0400 (Eastern Daylight Time),296945.10000002384,brutal,900,I,m,m,None,687,488.0,199.0,110,1,2124.400000035763,294820.6999999881,9088,napkin,AF,A,290497,290497,288872,289780,288872,290996,290296,290297,290996,61
61,test,1,con,1,z,Mon Jun 08 2026 15:03:03 GMT-0400 (Eastern Daylight Time),299311.8000000119,hate,1100,I,z,z,None,723,524.0,199.0,44,1,2357.0,296954.8000000119,9088,hate,AF,A,292830,292830,291006,292113,291006,293363,292630,292630,293363,62
62,test,1,con,1,z,Mon Jun 08 2026 15:03:03 GMT-0400 (Eastern Daylight Time),301111.5,hate,800,I,z,z,None,463,264.0,199.0,41,1,1790.6000000238419,299320.89999997616,9088,hate,AF,A,294897,294897,293372,294180,293372,295163,294697,294697,295162,63
63,test,1,con,1,z,Mon Jun 08 2026 15:03:03 GMT-0400 (Eastern Daylight Time),302978.5,love,900,I,z,z,None,419,220.0,199.0,18,1,1857.5,301121.0,9088,love,AF,A,296797,296797,295172,296080,295172,297030,296597,296597,297029,64
64,test,1,con,1,m,Mon Jun 08 2026 15:03:03 GMT-0400 (Eastern Daylight Time),305111.5,bell,1100,I,m,m,None,498,298.0,200.0,84,1,2123.899999976158,302987.60000002384,9088,bell,AF,A,298863,298863,297039,298147,297039,299163,298663,298663,299163,65
65,test,1,con,1,m,Mon Jun 08 2026 15:03:03 GMT-0400 (Eastern Daylight Time),307161.6999999881,napkin,1100,I,m,m,None,411,212.0,199.0,108,1,2041.3999999761581,305120.3000000119,9088,napkin,AF,A,300997,300997,299171,300280,299172,301213,300796,300797,301213,66
66,test,1,con,1,m,Mon Jun 08 2026 15:03:03 GMT-0400 (Eastern Daylight Time),309228.39999997616,remote,1100,I,m,m,None,425,226.0,199.0,116,1,2057.199999988079,307171.1999999881,9088,remote,AF,A,303047,303047,301222,302330,301223,303279,302847,302847,303279,67
67,test,1,con,1,z,Mon Jun 08 2026 15:03:03 GMT-0400 (Eastern Daylight Time),311278.39999997616,love,1100,I,z,z,None,409,209.0,200.0,20,1,2040.3999999761581,309238.0,9088,love,AF,A,305113,305113,303289,304397,303289,305329,304913,304913,305329,68
68,test,1,inc,1,m,Mon Jun 08 2026 15:03:03 GMT-0400 (Eastern Daylight Time),313528.1999999881,friend,1100,I,m,m,None,614,414.0,200.0,120,1,2239.099999964237,311289.10000002384,9088,remote,AF,A,307163,307163,305340,306447,305340,307579,306963,306963,307579,69
69,test,1,inc,1,z,Mon Jun 08 2026 15:03:03 GMT-0400 (Eastern Daylight Time),315811.6999999881,rock,900,I,z,z,None,836,636.0,200.0,54,1,2275.699999988079,313536.0,9088,rage,AF,A,309213,309213,307587,308496,307587,309863,309013,309013,309863,70
70,test,1,inc,1,m,Mon Jun 08 2026 15:03:03 GMT-0400 (Eastern Daylight Time),317961.6999999881,friend,1100,I,m,m,None,512,312.0,200.0,128,1,2140.800000011921,315820.89999997616,9088,window,AF,A,311697,311697,309872,310980,309872,312013,311496,311496,312013,71
71,test,1,con,1,m,Mon Jun 08 2026 15:03:03 GMT-0400 (Eastern Daylight Time),319895.0,window,800,I,m,m,None,597,398.0,199.0,121,1,1924.199999988079,317970.8000000119,9088,window,AF,A,313547,313547,312022,312830,312022,313946,313347,313347,313946,72
72,test,1,con,1,z,Mon Jun 08 2026 15:03:03 GMT-0400 (Eastern Daylight Time),321661.6999999881,rage,800,I,z,z,None,425,226.0,199.0,49,1,1759.0999999642372,319902.60000002384,9088,rage,AF,A,315480,315480,313954,314763,313954,315713,315280,315280,315713,73
73,test,1,con,1,m,Mon Jun 08 2026 15:03:03 GMT-0400 (Eastern Daylight Time),323628.39999997616,napkin,1000,I,m,m,None,425,226.0,199.0,107,1,1957.3999999761581,321671.0,9088,napkin,AF,A,317447,317447,315722,316730,315722,317679,317246,317247,317679,74
74,test,1,con,1,z,Mon Jun 08 2026 15:03:03 GMT-0400 (Eastern Daylight Time),325878.3000000119,rage,900,I,z,z,None,801,601.0,200.0,50,1,2241.0,323637.3000000119,9088,rage,AF,A,319313,319313,317688,318596,317689,319929,319113,319113,319929,75
75,test,1,inc,1,m,Mon Jun 08 2026 15:03:03 GMT-0400 (Eastern Daylight Time),328161.8000000119,hate,1100,I,m,m,None,638,438.0,200.0,96,1,2273.199999988079,325888.60000002384,9088,film,AF,A,321763,321763,319940,321047,319940,322213,321563,321563,322213,76
76,test,1,con,1,z,Mon Jun 08 2026 15:03:03 GMT-0400 (Eastern Daylight Time),330161.8000000119,love,1000,I,z,z,None,453,254.0,199.0,19,1,1990.199999988079,328171.60000002384,9088,love,AF,A,323947,323947,322223,323230,322223,324213,323747,323747,324213,77
77,test,1,con,1,m,Mon Jun 08 2026 15:03:03 GMT-0400 (Eastern Daylight Time),332145.10000002384,napkin,900,I,m,m,None,538,339.0,199.0,106,1,1973.300000011921,330171.8000000119,9088,napkin,AF,A,325847,325847,324223,325130,324223,326196,325646,325647,326196,78
78,test,1,inc,1,z,Mon Jun 08 2026 15:03:03 GMT-0400 (Eastern Daylight Time),334411.60000002384,film,1100,I,z,z,None,626,427.0,199.0,24,1,2255.7000000476837,332155.89999997616,9088,love,AF,A,328030,328030,326207,327313,326207,328463,327830,327830,328463,79
79,test,1,con,1,z,Mon Jun 08 2026 15:03:03 GMT-0400 (Eastern Daylight Time),336478.39999997616,friend,1000,I,z,z,None,523,324.0,199.0,27,1,2054.0,334424.39999997616,9088,friend,AF,A,330196,330197,328475,329480,328476,330529,329997,329997,330529,80
80,test,1,inc,1,m,Mon Jun 08 2026 15:03:03 GMT-0400 (Eastern Daylight Time),338461.60000002384,elated,800,I,m,m,None,642,442.0,200.0,125,1,1974.6000000238419,336487.0,9088,window,AF,A,332063,332063,330538,331346,330538,332513,331863,331863,332513,81
81,test,1,inc,1,z,Mon Jun 08 2026 15:03:03 GMT-0400 (Eastern Daylight Time),340861.6999999881,remote,1000,I,z,z,None,857,658.0,199.0,7,1,2390.599999964237,338471.10000002384,9088,elated,AF,A,334246,334247,332522,333530,332522,334913,334047,334047,334913,82
82,test,1,inc,1,z,Mon Jun 08 2026 15:03:03 GMT-0400 (Eastern Daylight Time),343078.39999997616,remote,1000,I,z,z,None,666,467.0,199.0,39,1,2207.5,340870.89999997616,9088,brutal,AF,A,336647,336647,334922,335930,334922,337129,336446,336447,337129,83
83,test,1,con,1,z,Mon Jun 08 2026 15:03:03 GMT-0400 (Eastern Daylight Time),344911.6999999881,brutal,800,I,z,z,None,490,290.0,200.0,33,1,1823.8999999761581,343087.8000000119,9088,brutal,AF,A,338663,338663,337139,337946,337139,338963,338463,338463,338963,84
84,test,1,inc,1,z,Mon Jun 08 2026 15:03:03 GMT-0400 (Eastern Daylight Time),347078.1999999881,bell,1000,I,z,z,None,615,416.0,199.0,55,1,2157.599999964237,344920.60000002384,9088,rage,AF,A,340696,340697,338972,339980,338972,341129,340497,340497,341129,85
85,test,1,inc,1,z,Mon Jun 08 2026 15:03:03 GMT-0400 (Eastern Daylight Time),349161.6999999881,napkin,900,I,z,z,None,646,446.0,200.0,62,1,2074.399999976158,347087.3000000119,9088,temper,AF,A,342763,342763,341138,342046,341139,343213,342563,342563,343213,86
86,test,1,inc,1,m,Mon Jun 08 2026 15:03:03 GMT-0400 (Eastern Daylight Time),351211.6999999881,elated,800,I,m,m,None,709,510.0,199.0,109,1,2041.0999999642372,349170.60000002384,9088,napkin,AF,A,344747,344747,343222,344030,343222,345263,344547,344547,345263,87
87,test,1,inc,1,m,Mon Jun 08 2026 15:03:03 GMT-0400 (Eastern Daylight Time),353428.39999997616,temper,1000,I,m,m,None,667,468.0,199.0,119,1,2205.7999999523163,351222.60000002384,9088,remote,AF,A,346997,346997,345274,346280,345274,347479,346796,346797,347479,88
88,test,1,inc,1,z,Mon Jun 08 2026 15:03:03 GMT-0400 (Eastern Daylight Time),355445.10000002384,jacket,800,I,z,z,None,668,468.0,200.0,37,1,2006.1000000238419,353439.0,9088,brutal,AF,A,349013,349013,347490,348296,347490,349496,348813,348813,349496,89
89,test,1,inc,1,m,Mon Jun 08 2026 15:03:03 GMT-0400 (Eastern Daylight Time),357344.8000000119,elated,800,I,m,m,None,554,355.0,199.0,117,1,1890.199999988079,355454.60000002384,9088,remote,AF,A,351030,351030,349506,350313,349506,351396,350830,350830,351396,90
90,test,1,con,1,m,Mon Jun 08 2026 15:03:03 GMT-0400 (Eastern Daylight Time),359445.0,film,800,I,m,m,None,750,551.0,199.0,89,1,2091.300000011921,357353.6999999881,9088,film,AF,A,352930,352930,351405,352213,351405,353496,352730,352730,353496,91
91,test,1,inc,1,m,Mon Jun 08 2026 15:03:03 GMT-0400 (Eastern Daylight Time),361544.89999997616,temper,1000,I,m,m,None,562,363.0,199.0,103,1,2089.399999976158,359455.5,9088,jacket,AF,A,355230,355230,353507,354513,353507,355596,355030,355030,355596,92
92,test,1,inc,1,z,Mon Jun 08 2026 15:03:03 GMT-0400 (Eastern Daylight Time),363561.60000002384,napkin,900,I,z,z,None,578,379.0,199.0,30,1,2007.6000000238419,361554.0,9088,friend,AF,A,357230,357230,355605,356513,355605,357613,357030,357030,357613,93
93,test,1,inc,1,z,Mon Jun 08 2026 15:03:03 GMT-0400 (Eastern Daylight Time),365728.39999997616,napkin,900,I,z,z,None,723,523.0,200.0,6,1,2155.7999999523163,363572.60000002384,9088,elated,AF,A,359246,359246,357624,358530,357624,359780,359046,359046,359779,94
94,test,1,con,1,z,Mon Jun 08 2026 15:03:03 GMT-0400 (Eastern Daylight Time),367978.3000000119,brutal,1100,I,z,z,None,612,412.0,200.0,36,1,2240.699999988079,365737.60000002384,9088,brutal,AF,A,361613,361613,359789,360896,359789,362029,361413,361413,362029,95
95,test,1,con,1,z,Mon Jun 08 2026 15:03:03 GMT-0400 (Eastern Daylight Time),369911.39999997616,hate,900,I,z,z,None,498,298.0,200.0,42,1,1922.0,367989.39999997616,9088,hate,AF,A,363663,363663,362040,362946,362041,363963,363463,363463,363962,96
96,test,1,con,1,z,Mon Jun 08 2026 15:03:03 GMT-0400 (Eastern Daylight Time),372095.0,elated,1100,I,z,z,None,541,341.0,200.0,4,1,2174.800000011921,369920.1999999881,9088,elated,AF,A,365796,365796,363971,365080,363972,366146,365596,365596,366146,97
97,test,1,inc,1,z,Mon Jun 08 2026 15:03:03 GMT-0400 (Eastern Daylight Time),374295.10000002384,film,1100,I,z,z,None,565,366.0,199.0,56,1,2190.2000000476837,372104.89999997616,9088,rage,AF,A,367980,367980,366156,367263,366156,368346,367780,367780,368346,98
98,test,1,inc,1,z,Mon Jun 08 2026 15:03:03 GMT-0400 (Eastern Daylight Time),376161.6999999881,jacket,800,I,z,z,None,520,321.0,199.0,61,1,1857.800000011921,374303.89999997616,9088,temper,AF,A,369880,369880,368355,369163,368355,370213,369680,369680,370213,99
99,test,1,inc,1,m,Mon Jun 08 2026 15:03:03 GMT-0400 (Eastern Daylight Time),378261.60000002384,kind,900,I,m,m,None,651,451.0,200.0,86,1,2088.800000011921,376172.8000000119,9088,bell,AF,A,371846,371846,370224,371130,370224,372313,371646,371646,372313,100
100,test,1,con,1,m,Mon Jun 08 2026 15:03:03 GMT-0400 (Eastern Daylight Time),380278.60000002384,step,1000,I,m,m,None,483,283.0,200.0,67,1,2007.7000000476837,378270.89999997616,9088,step,AF,A,374046,374046,372322,373330,372322,374330,373846,373846,374330,101
101,test,1,con,1,z,Mon Jun 08 2026 15:03:03 GMT-0400 (Eastern Daylight Time),382078.1999999881,brutal,900,I,z,z,None,358,158.0,200.0,34,1,1790.300000011921,380287.89999997616,9088,brutal,AF,A,375963,375963,374339,375246,374339,376129,375763,375763,376129,102
102,test,1,inc,1,z,Mon Jun 08 2026 15:03:03 GMT-0400 (Eastern Daylight Time),384211.60000002384,window,1100,I,z,z,None,486,286.0,200.0,40,1,2124.300000011921,382087.3000000119,9088,brutal,AF,A,377963,377963,376138,377246,376139,378263,377763,377763,378263,103
103,test,1,inc,1,z,Mon Jun 08 2026 15:03:03 GMT-0400 (Eastern Daylight Time),386428.3000000119,remote,1000,I,z,z,None,677,477.0,200.0,63,1,2208.0,384220.3000000119,9088,temper,AF,A,379996,379996,378271,379280,378272,380479,379796,379796,380479,104
104,test,1,inc,1,m,Mon Jun 08 2026 15:03:03 GMT-0400 (Eastern Daylight Time),388578.3000000119,love,1000,I,m,m,None,604,404.0,200.0,95,1,2139.699999988079,386438.60000002384,9088,film,AF,A,382213,382213,380490,381496,380490,382629,382013,382013,382629,105
105,test,1,inc,1,z,Mon Jun 08 2026 15:03:03 GMT-0400 (Eastern Daylight Time),390778.3000000119,remote,1000,I,z,z,None,661,462.0,199.0,31,1,2190.600000023842,388587.6999999881,9088,friend,AF,A,384363,384363,382639,383646,382639,384829,384163,384163,384829,106
106,test,1,con,1,m,Mon Jun 08 2026 15:03:03 GMT-0400 (Eastern Daylight Time),393194.89999997616,rock,1100,I,m,m,None,778,578.0,200.0,76,1,2407.7999999523163,390787.10000002384,9088,rock,AF,A,386663,386663,384838,385946,384839,387246,386463,386463,387246,107
107,test,1,inc,1,z,Mon Jun 08 2026 15:03:03 GMT-0400 (Eastern Daylight Time),395178.3000000119,rock,900,I,z,z,None,544,345.0,199.0,22,1,1974.1000000238419,393204.1999999881,9088,love,AF,A,388880,388880,387255,388163,387256,389229,388680,388680,389229,108
108,test,1,con,1,z,Mon Jun 08 2026 15:03:03 GMT-0400 (Eastern Daylight Time),397045.0,kind,900,I,z,z,None,418,218.0,200.0,10,1,1858.3999999761581,395186.60000002384,9088,kind,AF,A,390863,390863,389238,390146,389238,391096,390663,390663,391096,109
109,test,1,inc,1,m,Mon Jun 08 2026 15:03:03 GMT-0400 (Eastern Daylight Time),399228.1999999881,friend,1100,I,m,m,None,542,343.0,199.0,112,1,2174.399999976158,397053.8000000119,9088,napkin,AF,A,392930,392930,391105,392213,391105,393279,392730,392730,393279,110
110,test,1,inc,1,m,Mon Jun 08 2026 15:03:03 GMT-0400 (Eastern Daylight Time),401244.89999997616,kind,900,I,m,m,None,575,376.0,199.0,94,1,2006.7999999523163,399238.10000002384,9088,film,AF,A,394913,394913,393289,394196,393289,395296,394713,394713,395296,111
111,test,1,con,1,z,Mon Jun 08 2026 15:03:03 GMT-0400 (Eastern Daylight Time),403078.1999999881,kind,800,I,z,z,None,482,283.0,199.0,9,1,1824.300000011921,401253.89999997616,9088,kind,AF,A,396830,396830,395305,396113,395305,397129,396630,396630,397129,112
112,test,1,con,1,z,Mon Jun 08 2026 15:03:03 GMT-0400 (Eastern Daylight Time),405261.3000000119,hate,1000,I,z,z,None,641,441.0,200.0,43,1,2173.5,403087.8000000119,9088,hate,AF,A,398863,398863,397139,398146,397139,399312,398663,398663,399312,113
113,test,1,inc,1,z,Mon Jun 08 2026 15:03:03 GMT-0400 (Eastern Daylight Time),407194.89999997616,step,800,I,z,z,None,595,395.0,200.0,13,1,1926.5999999642372,405268.3000000119,9088,kind,AF,A,400846,400846,399319,400130,399320,401246,400646,400646,401246,114
114,test,1,inc,1,m,Mon Jun 08 2026 15:03:03 GMT-0400 (Eastern Daylight Time),409211.60000002384,kind,900,I,m,m,None,576,377.0,199.0,78,1,2006.1000000238419,407205.5,9088,rock,AF,A,402880,402880,401257,402163,401257,403263,402680,402680,403263,115
115,test,1,con,1,z,Mon Jun 08 2026 15:03:03 GMT-0400 (Eastern Daylight Time),411094.89999997616,elated,900,I,z,z,None,449,249.0,200.0,2,1,1872.199999988079,409222.6999999881,9088,elated,AF,A,404896,404896,403274,404180,403274,405146,404696,404696,405146,116
116,test,1,con,1,m,Mon Jun 08 2026 15:03:03 GMT-0400 (Eastern Daylight Time),412928.1999999881,remote,800,I,m,m,None,488,289.0,199.0,113,1,1822.8999999761581,411105.3000000119,9088,remote,AF,A,406680,406680,405156,405963,405157,406979,406480,406480,406979,117
117,test,1,inc,1,m,Mon Jun 08 2026 15:03:03 GMT-0400 (Eastern Daylight Time),415261.60000002384,brutal,900,I,m,m,None,891,692.0,199.0,126,1,2324.400000035763,412937.1999999881,9088,window,AF,A,408613,408613,406988,407896,406988,409313,408413,408413,409313,118
118,test,1,inc,1,z,Mon Jun 08 2026 15:03:03 GMT-0400 (Eastern Daylight Time),417478.1999999881,bell,1000,I,z,z,None,666,467.0,199.0,23,1,2207.199999988079,415271.0,9088,love,AF,A,411046,411046,409322,410330,409322,411529,410847,410847,411529,119
119,test,1,con,1,m,Mon Jun 08 2026 15:03:03 GMT-0400 (Eastern Daylight Time),419478.5,jacket,900,I,m,m,None,565,366.0,199.0,98,1,1991.1000000238419,417487.39999997616,9088,jacket,AF,A,413163,413163,411538,412446,411539,413530,412963,412963,413530,120
120,test,1,con,1,z,Mon Jun 08 2026 15:03:03 GMT-0400 (Eastern Daylight Time),421261.60000002384,temper,800,I,z,z,None,441,242.0,199.0,57,1,1773.6000000238419,419488.0,9088,temper,AF,A,415063,415063,413539,414346,413539,415313,414863,414863,415313,121
121,test,1,con,1,m,Mon Jun 08 2026 15:03:03 GMT-0400 (Eastern Daylight Time),423244.89999997616,jacket,800,I,m,m,None,642,442.0,200.0,97,1,1971.699999988079,421273.1999999881,9088,jacket,AF,A,416846,416847,415324,416130,415325,417296,416646,416646,417296,122
122,test,1,con,1,m,Mon Jun 08 2026 15:03:03 GMT-0400 (Eastern Daylight Time),425261.60000002384,window,1000,I,m,m,None,474,275.0,199.0,123,1,2006.9000000357628,423254.6999999881,9088,window,AF,A,419030,419030,417306,418313,417306,419313,418830,418830,419313,123
123,test,1,con,1,z,Mon Jun 08 2026 15:03:03 GMT-0400 (Eastern Daylight Time),427111.3000000119,temper,900,I,z,z,None,415,215.0,200.0,58,1,1840.199999988079,425271.10000002384,9088,temper,AF,A,420946,420946,419322,420230,419322,421162,420746,420746,421162,124
124,test,1,con,1,z,Mon Jun 08 2026 15:03:03 GMT-0400 (Eastern Daylight Time),429161.39999997616,friend,1100,I,z,z,None,413,213.0,200.0,28,1,2039.699999988079,427121.6999999881,9088,friend,AF,A,422996,422996,421173,422280,421173,423213,422796,422796,423212,125
125,test,1,inc,1,m,Mon Jun 08 2026 15:03:03 GMT-0400 (Eastern Daylight Time),431161.5,elated,800,I,m,m,None,663,463.0,200.0,101,1,1990.5,429171.0,9088,jacket,AF,A,424746,424746,423222,424030,423222,425213,424546,424546,425212,126
126,test,1,con,1,m,Mon Jun 08 2026 15:03:03 GMT-0400 (Eastern Daylight Time),433444.8000000119,rock,1000,I,m,m,None,717,518.0,199.0,75,1,2266.5,431178.3000000119,9088,rock,AF,A,426963,426963,425229,426246,425230,427496,426763,426763,427496,127
127,test,1,inc,1,m,Mon Jun 08 2026 15:03:03 GMT-0400 (Eastern Daylight Time),435611.5,love,1000,I,m,m,None,626,427.0,199.0,79,1,2154.600000023842,433456.89999997616,9088,rock,AF,A,429230,429230,427508,428513,427508,429663,429030,429030,429663,128
