acc_sum,block,block_c,condition,correct,correct_response,datetime,endtime,flanker,jitter,project,response,response_test_buffer_response,response_test_target_response,response_time,response_time_test_buffer_response,response_time_test_target_response,row_sel,session_number,start_end,starttime,subject_id,target,task,task_vers,time_test_buffer,time_test_buffer_response,time_test_constants,time_test_flanker,time_test_jitter,time_test_logger,time_test_target,time_test_target_response,time_test_variables,trial
1,prac,1,inc,1,m,Fri May 23 2025 17:18:11 GMT-0500 (Central Daylight Time),117696.70000000298,cherry,900,I,m,,,867,,,10,2,3078.10000000149,114618.60000000149,8021,copper,NF,B,,,,,,,,,,1
2,prac,1,con,1,m,Fri May 23 2025 17:18:11 GMT-0500 (Central Daylight Time),120645.70000000298,zinc,1000,I,m,,,635,,,15,2,2942.5,117703.20000000298,8021,zinc,NF,B,,,,,,,,,,2
3,prac,1,inc,1,z,Fri May 23 2025 17:18:11 GMT-0500 (Central Daylight Time),123811.5,lead,1100,I,z,,,762,,,8,2,3161.0,120650.5,8021,plum,NF,B,,,,,,,,,,3
4,prac,1,con,1,m,Fri May 23 2025 17:18:11 GMT-0500 (Central Daylight Time),126877.20000000298,silver,1000,I,m,,,762,,,11,2,3061.3000000044703,123815.89999999851,8021,silver,NF,B,,,,,,,,,,4
5,prac,1,con,1,z,Fri May 23 2025 17:18:11 GMT-0500 (Central Daylight Time),129743.0,banana,800,I,z,,,760,,,1,2,2861.2999999970198,126881.70000000298,8021,banana,NF,B,,,,,,,,,,5
6,prac,1,inc,1,z,Fri May 23 2025 17:18:11 GMT-0500 (Central Daylight Time),132592.0,iron,900,I,z,,,633,,,6,2,2844.0,129748.0,8021,pear,NF,B,,,,,,,,,,6
7,prac,1,con,1,z,Fri May 23 2025 17:18:11 GMT-0500 (Central Daylight Time),135574.3999999985,kiwi,1000,I,z,,,669,,,7,2,2977.6999999955297,132596.70000000298,8021,kiwi,NF,B,,,,,,,,,,7
7,prac,1,con,0,m,Fri May 23 2025 17:18:11 GMT-0500 (Central Daylight Time),138317.79999999702,bronze,800,I,z,,,598,,,9,2,2738.89999999851,135578.8999999985,8021,bronze,NF,B,,,,,,,,,,8
8,prac,1,inc,1,z,Fri May 23 2025 17:18:11 GMT-0500 (Central Daylight Time),141372.5,cobalt,1100,I,z,,,644,,,4,2,3050.10000000149,138322.3999999985,8021,raisin,NF,B,,,,,,,,,,9
9,prac,1,con,1,z,Fri May 23 2025 17:18:11 GMT-0500 (Central Daylight Time),144238.20000000298,orange,1000,I,z,,,552,,,3,2,2860.60000000149,141377.6000000015,8021,orange,NF,B,,,,,,,,,,10
10,prac,1,inc,1,z,Fri May 23 2025 17:18:11 GMT-0500 (Central Daylight Time),147104.0,copper,900,I,z,,,649,,,2,2,2860.60000000149,144243.3999999985,8021,cherry,NF,B,,,,,,,,,,11
11,prac,1,inc,1,m,Fri May 23 2025 17:18:11 GMT-0500 (Central Daylight Time),150386.3999999985,raisin,1100,I,m,,,881,,,12,2,3275.10000000149,147111.29999999702,8021,cobalt,NF,B,,,,,,,,,,12
12,prac,1,inc,1,m,Fri May 23 2025 17:18:11 GMT-0500 (Central Daylight Time),153385.5,plum,1100,I,m,,,590,,,16,2,2995.10000000149,150390.3999999985,8021,lead,NF,B,,,,,,,,,,13
13,prac,1,con,1,m,Fri May 23 2025 17:18:11 GMT-0500 (Central Daylight Time),156001.3999999985,gold,800,I,m,,,514,,,13,2,2611.5,153389.8999999985,8021,gold,NF,B,,,,,,,,,,14
14,prac,1,con,1,z,Fri May 23 2025 17:18:11 GMT-0500 (Central Daylight Time),158700.20000000298,lime,800,I,z,,,587,,,5,2,2694.5,156005.70000000298,8021,lime,NF,B,,,,,,,,,,15
15,prac,1,inc,1,m,Fri May 23 2025 17:18:11 GMT-0500 (Central Daylight Time),161697.29999999702,pear,900,I,m,,,684,,,14,2,2993.0,158704.29999999702,8021,iron,NF,B,,,,,,,,,,16
1,test,1,inc,1,z,Fri May 23 2025 17:18:11 GMT-0500 (Central Daylight Time),172262.79999999702,bronze,800,I,z,z,None,645,445.0,200.0,21,2,1979.6999999955297,170283.1000000015,8021,orange,NF,B,164913,164913,163383,164197,163384,165363,164713,164713,165363,1
2,test,1,inc,1,m,Fri May 23 2025 17:18:11 GMT-0500 (Central Daylight Time),174462.20000000298,orange,1000,I,m,m,None,653,454.0,199.0,71,2,2195.10000000149,172267.1000000015,8021,bronze,NF,B,167096,167096,165367,166379,165368,167562,166896,166896,167562,2
3,test,1,inc,1,m,Fri May 23 2025 17:18:11 GMT-0500 (Central Daylight Time),176578.1000000015,pear,900,I,m,m,None,674,475.0,199.0,126,2,2111.5,174466.6000000015,8021,lead,NF,B,169195,169195,167567,168479,167567,169678,168995,168996,169678,3
4,test,1,con,1,z,Fri May 23 2025 17:18:11 GMT-0500 (Central Daylight Time),178594.1000000015,pear,900,I,z,z,None,567,367.0,200.0,42,2,2012.0,176582.1000000015,8021,pear,NF,B,171311,171311,169682,170595,169682,171694,171111,171111,171694,4
5,test,1,con,1,m,Fri May 23 2025 17:18:11 GMT-0500 (Central Daylight Time),180960.1000000015,iron,1100,I,m,m,None,719,519.0,200.0,108,2,2360.7000000029802,178599.3999999985,8021,iron,NF,B,173527,173527,171699,172811,171700,174060,173327,173327,174060,5
6,test,1,con,1,m,Fri May 23 2025 17:18:11 GMT-0500 (Central Daylight Time),183142.6000000015,gold,1100,I,m,m,None,545,345.0,200.0,100,2,2177.89999999851,180964.70000000298,8021,gold,NF,B,175893,175893,174065,175177,174065,176243,175693,175693,176243,6
7,test,1,inc,1,m,Fri May 23 2025 17:18:11 GMT-0500 (Central Daylight Time),185092.0,pear,900,I,m,m,None,513,314.0,199.0,110,2,1945.3999999985099,183146.6000000015,8021,iron,NF,B,177876,177876,176247,177159,176247,178192,177676,177676,178192,7
8,test,1,inc,1,m,Fri May 23 2025 17:18:11 GMT-0500 (Central Daylight Time),187324.6000000015,raisin,1100,I,m,m,None,597,397.0,200.0,88,2,2228.39999999851,185096.20000000298,8021,silver,NF,B,180025,180025,178196,179309,178197,180425,179825,179825,180425,8
9,test,1,con,1,z,Fri May 23 2025 17:18:11 GMT-0500 (Central Daylight Time),189290.70000000298,banana,800,I,z,z,None,624,424.0,200.0,1,2,1962.0,187328.70000000298,8021,banana,NF,B,181958,181958,180429,181241,180429,182391,181758,181758,182391,9
10,test,1,inc,1,z,Fri May 23 2025 17:18:11 GMT-0500 (Central Daylight Time),191490.0,cobalt,1100,I,z,z,None,574,375.0,199.0,8,2,2195.5,189294.5,8021,banana,NF,B,184207,184207,182395,183507,182395,184590,184008,184008,184590,10
11,test,1,con,1,z,Fri May 23 2025 17:18:11 GMT-0500 (Central Daylight Time),193572.6000000015,raisin,800,I,z,z,None,747,547.0,200.0,25,2,2078.3000000044703,191494.29999999702,8021,raisin,NF,B,186123,186123,184594,185407,184595,186673,185923,185923,186673,11
12,test,1,con,1,m,Fri May 23 2025 17:18:11 GMT-0500 (Central Daylight Time),195805.29999999702,zinc,1100,I,m,m,None,595,396.0,199.0,116,2,2228.0999999940395,193577.20000000298,8021,zinc,NF,B,188506,188506,186677,187789,186678,188905,188306,188306,188905,12
13,test,1,inc,1,z,Fri May 23 2025 17:18:11 GMT-0500 (Central Daylight Time),198021.29999999702,zinc,1000,I,z,z,None,672,472.0,200.0,39,2,2212.1999999955297,195809.1000000015,8021,lime,NF,B,190638,190638,188909,189922,188909,191121,190438,190438,191121,13
14,test,1,inc,1,m,Fri May 23 2025 17:18:11 GMT-0500 (Central Daylight Time),200320.70000000298,plum,1100,I,m,m,None,652,452.0,200.0,104,2,2295.60000000149,198025.1000000015,8021,gold,NF,B,192954,192954,191125,192238,191126,193421,192754,192754,193421,14
15,test,1,inc,1,z,Fri May 23 2025 17:18:11 GMT-0500 (Central Daylight Time),202653.0,lead,1100,I,z,z,None,687,472.0,215.0,56,2,2328.5,200324.5,8021,kiwi,NF,B,195270,195270,193425,194537,193425,195753,195055,195055,195753,15
16,test,1,inc,1,z,Fri May 23 2025 17:18:11 GMT-0500 (Central Daylight Time),204852.3999999985,zinc,1000,I,z,z,None,664,464.0,200.0,55,2,2195.2999999970198,202657.1000000015,8021,kiwi,NF,B,197486,197486,195757,196770,195757,197952,197286,197286,197952,16
17,test,1,con,1,z,Fri May 23 2025 17:18:11 GMT-0500 (Central Daylight Time),206901.79999999702,kiwi,900,I,z,z,None,603,404.0,199.0,50,2,2045.3999999985099,204856.3999999985,8021,kiwi,NF,B,199586,199586,197956,198869,197957,200002,199386,199386,200002,17
18,test,1,inc,1,z,Fri May 23 2025 17:18:11 GMT-0500 (Central Daylight Time),208944.6000000015,iron,900,I,z,z,None,609,409.0,200.0,62,2,2038.8000000044703,206905.79999999702,8021,plum,NF,B,201635,201635,200006,200918,200006,202045,201435,201435,202045,18
19,test,1,inc,1,z,Fri May 23 2025 17:18:11 GMT-0500 (Central Daylight Time),210867.20000000298,gold,800,I,z,z,None,598,398.0,200.0,61,2,1918.0,208949.20000000298,8021,plum,NF,B,203568,203568,202049,202851,202050,203967,203368,203368,203967,19
20,test,1,inc,1,m,Fri May 23 2025 17:18:11 GMT-0500 (Central Daylight Time),212733.29999999702,banana,800,I,m,m,None,530,330.0,200.0,69,2,1862.0,210871.29999999702,8021,bronze,NF,B,205500,205500,203971,204784,203972,205833,205300,205300,205833,20
21,test,1,con,1,m,Fri May 23 2025 17:18:11 GMT-0500 (Central Daylight Time),214716.0,gold,900,I,m,m,None,538,339.0,199.0,98,2,1978.7999999970198,212737.20000000298,8021,gold,NF,B,207467,207467,205837,206750,205838,207816,207267,207267,207816,21
22,test,1,inc,1,z,Fri May 23 2025 17:18:11 GMT-0500 (Central Daylight Time),216865.5,silver,1000,I,z,z,None,601,401.0,200.0,7,2,2143.89999999851,214721.6000000015,8021,banana,NF,B,209549,209549,207822,208833,207822,209966,209349,209349,209966,22
23,test,1,inc,1,z,Fri May 23 2025 17:18:11 GMT-0500 (Central Daylight Time),219181.20000000298,lead,1100,I,z,z,None,678,479.0,199.0,40,2,2310.2000000029802,216871.0,8021,lime,NF,B,211799,211799,209971,211082,209972,212281,211599,211599,212281,23
24,test,1,con,1,z,Fri May 23 2025 17:18:11 GMT-0500 (Central Daylight Time),221314.3999999985,raisin,1000,I,z,z,None,600,400.0,200.0,27,2,2129.10000000149,219185.29999999702,8021,raisin,NF,B,214014,214014,212285,213298,212286,214414,213814,213814,214414,24
25,test,1,con,1,z,Fri May 23 2025 17:18:11 GMT-0500 (Central Daylight Time),223346.79999999702,plum,900,I,z,z,None,599,399.0,200.0,58,2,2028.7999999970198,221318.0,8021,plum,NF,B,216047,216047,214418,215331,214418,216447,215847,215847,216447,25
26,test,1,inc,1,m,Fri May 23 2025 17:18:11 GMT-0500 (Central Daylight Time),225529.3999999985,orange,1000,I,m,m,None,641,442.0,199.0,95,2,2178.10000000149,223351.29999999702,8021,cobalt,NF,B,218180,218180,216451,217463,216452,218629,217980,217980,218629,26
27,test,1,inc,1,m,Fri May 23 2025 17:18:11 GMT-0500 (Central Daylight Time),227645.3999999985,kiwi,1000,I,m,m,None,578,379.0,199.0,103,2,2112.10000000149,225533.29999999702,8021,gold,NF,B,220363,220363,218633,219646,218634,220746,220163,220163,220745,27
28,test,1,con,1,z,Fri May 23 2025 17:18:11 GMT-0500 (Central Daylight Time),229861.29999999702,plum,1000,I,z,z,None,679,480.0,199.0,59,2,2211.6999999955297,227649.6000000015,8021,plum,NF,B,222478,222478,220750,221762,220750,222961,222279,222279,222961,28
29,test,1,con,1,m,Fri May 23 2025 17:18:11 GMT-0500 (Central Daylight Time),232177.1000000015,silver,1100,I,m,m,None,676,476.0,200.0,84,2,2312.10000000149,229865.0,8021,silver,NF,B,224794,224794,222965,224078,222965,225277,224594,224594,225277,29
30,test,1,con,1,z,Fri May 23 2025 17:18:11 GMT-0500 (Central Daylight Time),234293.29999999702,lime,1000,I,z,z,None,580,380.0,200.0,35,2,2112.39999999851,232180.8999999985,8021,lime,NF,B,227010,227010,225281,226294,225281,227393,226810,226810,227393,30
31,test,1,con,1,m,Fri May 23 2025 17:18:11 GMT-0500 (Central Daylight Time),236375.8999999985,bronze,1100,I,m,m,None,435,236.0,199.0,68,2,2078.6999999955297,234297.20000000298,8021,bronze,NF,B,229226,229226,227397,228510,227398,229476,229027,229027,229476,31
32,test,1,con,1,z,Fri May 23 2025 17:18:11 GMT-0500 (Central Daylight Time),238475.20000000298,raisin,900,I,z,z,None,657,457.0,200.0,26,2,2095.7000000029802,236379.5,8021,raisin,NF,B,231109,231109,229480,230393,229480,231575,230909,230909,231575,32
33,test,1,con,1,z,Fri May 23 2025 17:18:11 GMT-0500 (Central Daylight Time),240791.20000000298,lime,1100,I,z,z,None,668,469.0,199.0,36,2,2312.10000000149,238479.1000000015,8021,lime,NF,B,233408,233409,231579,232692,231579,233891,233209,233209,233891,33
34,test,1,inc,1,z,Fri May 23 2025 17:18:11 GMT-0500 (Central Daylight Time),242857.20000000298,iron,900,I,z,z,None,618,418.0,200.0,38,2,2062.5,240794.70000000298,8021,lime,NF,B,235524,235524,233895,234808,233895,235957,235324,235324,235957,34
35,test,1,con,1,m,Fri May 23 2025 17:18:11 GMT-0500 (Central Daylight Time),244956.5,lead,1000,I,m,m,None,563,364.0,199.0,123,2,2095.7999999970198,242860.70000000298,8021,lead,NF,B,237690,237690,235961,236974,235961,238057,237491,237491,238057,35
36,test,1,inc,1,z,Fri May 23 2025 17:18:11 GMT-0500 (Central Daylight Time),247189.3999999985,lead,1100,I,z,z,None,587,388.0,199.0,64,2,2227.39999999851,244962.0,8021,plum,NF,B,239890,239890,238062,239173,238063,240289,239690,239690,240289,36
37,test,1,con,1,z,Fri May 23 2025 17:18:11 GMT-0500 (Central Daylight Time),249471.79999999702,raisin,1100,I,z,z,None,644,444.0,200.0,28,2,2278.5999999940395,247193.20000000298,8021,raisin,NF,B,242122,242122,240293,241406,240294,242572,241922,241922,242572,37
38,test,1,con,1,m,Fri May 23 2025 17:18:11 GMT-0500 (Central Daylight Time),251454.6000000015,bronze,800,I,m,m,None,637,437.0,200.0,65,2,1979.1000000014901,249475.5,8021,bronze,NF,B,244105,244105,242576,243389,242576,244555,243905,243905,244555,38
39,test,1,con,1,m,Fri May 23 2025 17:18:11 GMT-0500 (Central Daylight Time),253753.79999999702,lead,1100,I,m,m,None,658,459.0,199.0,124,2,2295.39999999851,251458.3999999985,8021,lead,NF,B,246387,246387,244558,245671,244559,246854,246188,246188,246854,39
40,test,1,con,1,m,Fri May 23 2025 17:18:11 GMT-0500 (Central Daylight Time),255653.1000000015,gold,800,I,m,m,None,555,355.0,200.0,97,2,1895.2000000029802,253757.8999999985,8021,gold,NF,B,248387,248387,246858,247670,246858,248753,248187,248187,248753,40
41,test,1,inc,1,z,Fri May 23 2025 17:18:11 GMT-0500 (Central Daylight Time),257652.5,copper,900,I,z,z,None,564,363.0,201.0,14,2,1995.7999999970198,255656.70000000298,8021,cherry,NF,B,250387,250387,248757,249670,248757,250753,250186,250186,250753,41
42,test,1,inc,1,z,Fri May 23 2025 17:18:11 GMT-0500 (Central Daylight Time),259901.79999999702,gold,800,I,z,z,None,904,704.0,200.0,37,2,2245.6999999955297,257656.1000000015,8021,lime,NF,B,252286,252286,250756,251569,250756,253002,252086,252086,253002,42
43,test,1,inc,1,z,Fri May 23 2025 17:18:11 GMT-0500 (Central Daylight Time),261967.79999999702,iron,900,I,z,z,None,627,427.0,200.0,54,2,2062.0,259905.79999999702,8021,kiwi,NF,B,254635,254635,253006,253919,253006,255068,254435,254435,255068,43
44,test,1,inc,1,m,Fri May 23 2025 17:18:11 GMT-0500 (Central Daylight Time),263983.799999997,lime,800,I,m,m,None,677,477.0,200.0,125,2,2012.2999999970198,261971.5,8021,lead,NF,B,256601,256601,255072,255885,255072,257084,256401,256401,257084,44
45,test,1,inc,1,m,Fri May 23 2025 17:18:11 GMT-0500 (Central Daylight Time),266233.299999997,raisin,1100,I,m,m,None,609,409.0,200.0,72,2,2245.89999999851,263987.3999999985,8021,bronze,NF,B,258917,258917,257087,258201,257088,259333,258717,258717,259333,45
46,test,1,inc,1,m,Fri May 23 2025 17:18:11 GMT-0500 (Central Daylight Time),268199.200000003,banana,800,I,m,m,None,627,428.0,199.0,77,2,1962.4000000059605,266236.799999997,8021,copper,NF,B,260866,260866,259337,260150,259337,261299,260667,260667,261299,46
47,test,1,con,1,z,Fri May 23 2025 17:18:11 GMT-0500 (Central Daylight Time),270231.8999999985,orange,900,I,z,z,None,594,394.0,200.0,18,2,2028.6000000014901,268203.299999997,8021,orange,NF,B,262932,262932,261303,262216,261304,263332,262732,262732,263332,47
48,test,1,inc,1,z,Fri May 23 2025 17:18:11 GMT-0500 (Central Daylight Time),272248.299999997,bronze,800,I,z,z,None,668,469.0,199.0,5,2,2012.1999999955297,270236.1000000015,8021,banana,NF,B,264865,264865,263336,264149,263336,265348,264665,264666,265348,48
49,test,1,con,1,m,Fri May 23 2025 17:18:11 GMT-0500 (Central Daylight Time),274647.0,cobalt,1100,I,m,m,None,753,553.0,200.0,92,2,2395.10000000149,272251.8999999985,8021,cobalt,NF,B,267181,267181,265352,266465,265352,267747,266981,266981,267747,49
50,test,1,con,1,m,Fri May 23 2025 17:18:11 GMT-0500 (Central Daylight Time),276763.200000003,bronze,900,I,m,m,None,681,482.0,199.0,66,2,2112.8000000044703,274650.3999999985,8021,bronze,NF,B,269380,269380,267750,268664,267751,269863,269181,269181,269863,50
51,test,1,inc,1,z,Fri May 23 2025 17:18:11 GMT-0500 (Central Daylight Time),278896.299999997,zinc,1000,I,z,z,None,585,386.0,199.0,63,2,2129.1999999955297,276767.1000000015,8021,plum,NF,B,271596,271596,269867,270880,269868,271996,271396,271397,271996,51
52,test,1,inc,1,z,Fri May 23 2025 17:18:11 GMT-0500 (Central Daylight Time),280995.200000003,silver,1000,I,z,z,None,557,357.0,200.0,15,2,2095.0,278900.200000003,8021,cherry,NF,B,273729,273729,272000,273012,272001,274095,273529,273529,274095,52
53,test,1,inc,1,m,Fri May 23 2025 17:18:11 GMT-0500 (Central Daylight Time),283227.8999999985,plum,1100,I,m,m,None,588,389.0,199.0,112,2,2228.89999999851,280999.0,8021,iron,NF,B,275928,275929,274099,275212,274099,276328,275729,275729,276328,53
54,test,1,con,1,m,Fri May 23 2025 17:18:11 GMT-0500 (Central Daylight Time),285510.5,silver,900,I,m,m,None,845,645.0,200.0,82,2,2279.10000000149,283231.3999999985,8021,silver,NF,B,277961,277961,276331,277244,276332,278611,277761,277761,278611,54
55,test,1,con,1,m,Fri May 23 2025 17:18:11 GMT-0500 (Central Daylight Time),287559.799999997,iron,1000,I,m,m,None,509,310.0,199.0,107,2,2045.5,285514.299999997,8021,iron,NF,B,280344,280344,278614,279629,278615,280660,280144,280144,280660,55
56,test,1,con,1,z,Fri May 23 2025 17:18:11 GMT-0500 (Central Daylight Time),289692.5,banana,1100,I,z,z,None,497,297.0,200.0,4,2,2129.2000000029802,287563.299999997,8021,banana,NF,B,282493,282493,280663,281776,280664,282793,282293,282293,282792,56
57,test,1,inc,1,m,Fri May 23 2025 17:18:11 GMT-0500 (Central Daylight Time),291941.700000003,raisin,1100,I,m,m,None,603,404.0,199.0,80,2,2245.5,289696.200000003,8021,copper,NF,B,284626,284626,282796,283909,282796,285042,284426,284426,285042,57
58,test,1,con,1,z,Fri May 23 2025 17:18:11 GMT-0500 (Central Daylight Time),294141.1000000015,pear,1000,I,z,z,None,663,463.0,200.0,43,2,2195.3000000044703,291945.799999997,8021,pear,NF,B,286775,286775,285046,286058,285046,287241,286575,286575,287241,58
59,test,1,con,1,m,Fri May 23 2025 17:18:11 GMT-0500 (Central Daylight Time),296040.700000003,lead,800,I,m,m,None,552,352.0,200.0,121,2,1896.0,294144.700000003,8021,lead,NF,B,288774,288774,287245,288058,287245,289141,288574,288574,289141,59
60,test,1,inc,1,z,Fri May 23 2025 17:18:11 GMT-0500 (Central Daylight Time),298189.8999999985,zinc,1000,I,z,z,None,612,413.0,199.0,47,2,2145.60000000149,296044.299999997,8021,pear,NF,B,290873,290873,289144,290157,289145,291290,290674,290674,291290,60
61,test,1,con,1,z,Fri May 23 2025 17:18:11 GMT-0500 (Central Daylight Time),300372.3999999985,lime,900,I,z,z,None,754,539.0,215.0,34,2,2178.6999999955297,298193.700000003,8021,lime,NF,B,292923,292923,291294,292207,291294,293472,292708,292708,293472,61
62,test,1,inc,1,m,Fri May 23 2025 17:18:11 GMT-0500 (Central Daylight Time),302221.8999999985,banana,800,I,m,m,None,503,304.0,199.0,93,2,1845.5,300376.3999999985,8021,cobalt,NF,B,295006,295006,293476,294289,293477,295322,294806,294806,295322,62
63,test,1,con,1,m,Fri May 23 2025 17:18:11 GMT-0500 (Central Daylight Time),304154.700000003,cobalt,800,I,m,m,None,581,382.0,199.0,89,2,1929.0,302225.700000003,8021,cobalt,NF,B,296872,296872,295326,296166,295326,297255,296672,296672,297255,63
64,test,1,con,1,z,Fri May 23 2025 17:18:11 GMT-0500 (Central Daylight Time),306120.700000003,kiwi,1000,I,z,z,None,425,226.0,199.0,51,2,1962.7000000029802,304158.0,8021,kiwi,NF,B,298988,298988,297258,298271,297258,299221,298788,298788,299221,64
65,test,1,inc,1,m,Fri May 23 2025 17:18:11 GMT-0500 (Central Daylight Time),308170.0,lime,800,I,m,m,None,708,508.0,200.0,109,2,2045.6000000014901,306124.3999999985,8021,iron,NF,B,300754,300754,299224,300037,299225,301270,300554,300554,301270,65
66,test,1,inc,1,m,Fri May 23 2025 17:18:11 GMT-0500 (Central Daylight Time),310219.3999999985,pear,900,I,m,m,None,607,407.0,200.0,102,2,2045.6000000014901,308173.799999997,8021,gold,NF,B,302903,302903,301274,302187,301274,303319,302703,302703,303319,66
67,test,1,con,1,m,Fri May 23 2025 17:18:11 GMT-0500 (Central Daylight Time),312302.1000000015,bronze,1000,I,m,m,None,537,338.0,199.0,67,2,2079.3000000044703,310222.799999997,8021,bronze,NF,B,305052,305052,303323,304336,303323,305402,304853,304853,305402,67
68,test,1,inc,1,m,Fri May 23 2025 17:18:11 GMT-0500 (Central Daylight Time),314601.3999999985,orange,1000,I,m,m,None,751,551.0,200.0,79,2,2295.5,312305.8999999985,8021,copper,NF,B,307135,307135,305406,306419,305406,307701,306935,306935,307701,68
69,test,1,con,1,z,Fri May 23 2025 17:18:11 GMT-0500 (Central Daylight Time),316600.8999999985,plum,800,I,z,z,None,659,460.0,199.0,57,2,1995.6999999955297,314605.200000003,8021,plum,NF,B,309234,309234,307705,308518,307706,309701,309035,309035,309701,69
70,test,1,con,1,z,Fri May 23 2025 17:18:11 GMT-0500 (Central Daylight Time),318933.299999997,plum,1100,I,z,z,None,696,496.0,200.0,60,2,2328.6999999955297,316604.6000000015,8021,plum,NF,B,311534,311534,309705,310817,309705,312033,311334,311334,312033,70
71,test,1,inc,1,m,Fri May 23 2025 17:18:11 GMT-0500 (Central Daylight Time),321115.8999999985,kiwi,1000,I,m,m,None,647,448.0,199.0,127,2,2178.89999999851,318937.0,8021,lead,NF,B,313766,313766,312037,313050,312037,314216,313566,313567,314216,71
72,test,1,inc,1,z,Fri May 23 2025 17:18:11 GMT-0500 (Central Daylight Time),323365.299999997,cobalt,1100,I,z,z,None,604,405.0,199.0,16,2,2245.5999999940395,321119.700000003,8021,cherry,NF,B,316049,316049,314220,315333,314220,316465,315850,315850,316465,72
73,test,1,inc,1,z,Fri May 23 2025 17:18:11 GMT-0500 (Central Daylight Time),325547.8999999985,silver,1000,I,z,z,None,639,440.0,199.0,23,2,2178.6999999955297,323369.200000003,8021,orange,NF,B,318198,318198,316469,317482,316470,318648,317999,317999,318648,73
74,test,1,inc,1,z,Fri May 23 2025 17:18:11 GMT-0500 (Central Daylight Time),327647.3999999985,gold,800,I,z,z,None,761,561.0,200.0,45,2,2095.5,325551.8999999985,8021,pear,NF,B,320181,320181,318652,319465,318652,320747,319981,319981,320747,74
75,test,1,con,1,m,Fri May 23 2025 17:18:11 GMT-0500 (Central Daylight Time),329713.3999999985,copper,900,I,m,m,None,617,418.0,199.0,74,2,2062.60000000149,327650.799999997,8021,copper,NF,B,322380,322380,320751,321664,320751,322813,322181,322181,322813,75
76,test,1,inc,1,m,Fri May 23 2025 17:18:11 GMT-0500 (Central Daylight Time),332062.700000003,raisin,1100,I,m,m,None,703,504.0,199.0,96,2,2345.9000000059605,329716.799999997,8021,cobalt,NF,B,324646,324646,322817,323930,322817,325163,324446,324447,325163,76
77,test,1,con,1,z,Fri May 23 2025 17:18:11 GMT-0500 (Central Daylight Time),334095.1000000015,kiwi,800,I,z,z,None,685,486.0,199.0,49,2,2028.3000000044703,332066.799999997,8021,kiwi,NF,B,326696,326696,325167,325979,325167,327195,326496,326496,327195,77
78,test,1,con,1,z,Fri May 23 2025 17:18:11 GMT-0500 (Central Daylight Time),336311.200000003,kiwi,1100,I,z,z,None,568,369.0,199.0,52,2,2212.2000000029802,334099.0,8021,kiwi,NF,B,329029,329029,327199,328312,327199,329411,328829,328829,329411,78
79,test,1,con,1,z,Fri May 23 2025 17:18:11 GMT-0500 (Central Daylight Time),338243.8999999985,cherry,900,I,z,z,None,497,298.0,199.0,10,2,1929.0,336314.8999999985,8021,cherry,NF,B,331044,331044,329415,330328,329415,331344,330845,330845,331344,79
80,test,1,inc,1,m,Fri May 23 2025 17:18:11 GMT-0500 (Central Daylight Time),340309.8999999985,cherry,900,I,m,m,None,621,421.0,200.0,94,2,2062.39999999851,338247.5,8021,cobalt,NF,B,332977,332977,331348,332260,331348,333410,332777,332777,333410,80
81,test,1,inc,1,m,Fri May 23 2025 17:18:11 GMT-0500 (Central Daylight Time),342525.8999999985,kiwi,1000,I,m,m,None,679,479.0,200.0,119,2,2212.1999999955297,340313.700000003,8021,zinc,NF,B,335143,335143,333414,334427,333414,335626,334943,334943,335626,81
82,test,1,inc,1,z,Fri May 23 2025 17:18:11 GMT-0500 (Central Daylight Time),344658.6000000015,silver,1000,I,z,z,None,599,399.0,200.0,31,2,2129.10000000149,342529.5,8021,raisin,NF,B,337359,337359,335630,336643,335630,337759,337159,337159,337759,82
83,test,1,con,1,m,Fri May 23 2025 17:18:11 GMT-0500 (Central Daylight Time),346641.799999997,cobalt,900,I,m,m,None,541,342.0,199.0,90,2,1979.0999999940395,344662.700000003,8021,cobalt,NF,B,339392,339392,337763,338675,337763,339742,339192,339192,339742,83
84,test,1,inc,1,m,Fri May 23 2025 17:18:11 GMT-0500 (Central Daylight Time),348674.299999997,cherry,900,I,m,m,None,599,400.0,199.0,86,2,2028.0999999940395,346646.200000003,8021,silver,NF,B,341374,341374,339746,340658,339747,341774,341175,341175,341774,84
85,test,1,con,1,m,Fri May 23 2025 17:18:11 GMT-0500 (Central Daylight Time),350906.700000003,iron,900,I,m,m,None,743,541.0,202.0,106,2,2228.0,348678.700000003,8021,iron,NF,B,343457,343457,341779,342691,341779,344007,343255,343255,344007,85
86,test,1,inc,1,z,Fri May 23 2025 17:18:11 GMT-0500 (Central Daylight Time),353189.200000003,cobalt,1100,I,z,z,None,646,446.0,200.0,24,2,2279.0,350910.200000003,8021,orange,NF,B,345840,345840,344010,345123,344011,346289,345640,345640,346289,86
87,test,1,con,1,z,Fri May 23 2025 17:18:11 GMT-0500 (Central Daylight Time),355322.0,cherry,1000,I,z,z,None,592,392.0,200.0,11,2,2129.10000000149,353192.8999999985,8021,cherry,NF,B,348022,348022,346293,347306,346293,348422,347822,347822,348422,87
88,test,1,con,1,z,Fri May 23 2025 17:18:11 GMT-0500 (Central Daylight Time),357404.6000000015,pear,800,I,z,z,None,747,547.0,200.0,41,2,2078.39999999851,355326.200000003,8021,pear,NF,B,349955,349955,348426,349238,348427,350505,349755,349755,350505,88
89,test,1,con,1,z,Fri May 23 2025 17:18:11 GMT-0500 (Central Daylight Time),359537.299999997,cherry,1100,I,z,z,None,483,284.0,199.0,12,2,2129.0999999940395,357408.200000003,8021,cherry,NF,B,352338,352338,350508,351622,350509,352637,352138,352138,352637,89
90,test,1,con,1,z,Fri May 23 2025 17:18:11 GMT-0500 (Central Daylight Time),361770.1000000015,orange,800,I,z,z,None,899,700.0,199.0,17,2,2229.2000000029802,359540.8999999985,8021,orange,NF,B,354170,354170,352641,353454,352641,354870,353971,353971,354870,90
91,test,1,inc,1,z,Fri May 23 2025 17:18:11 GMT-0500 (Central Daylight Time),363852.5,iron,900,I,z,z,None,639,439.0,200.0,46,2,2078.60000000149,361773.8999999985,8021,pear,NF,B,356503,356503,354874,355787,354874,356953,356303,356303,356953,91
92,test,1,inc,1,z,Fri May 23 2025 17:18:11 GMT-0500 (Central Daylight Time),366118.3999999985,lead,1100,I,z,z,None,627,428.0,199.0,48,2,2261.89999999851,363856.5,8021,pear,NF,B,358786,358786,356956,358069,356957,359219,358586,358586,359218,92
93,test,1,inc,1,m,Fri May 23 2025 17:18:11 GMT-0500 (Central Daylight Time),368184.5,lime,800,I,m,m,None,725,526.0,199.0,101,2,2061.89999999851,366122.6000000015,8021,gold,NF,B,360752,360752,359223,360035,359223,361285,360552,360552,361285,93
94,test,1,con,1,m,Fri May 23 2025 17:18:11 GMT-0500 (Central Daylight Time),370167.299999997,zinc,800,I,m,m,None,635,436.0,199.0,113,2,1979.1999999955297,368188.1000000015,8021,zinc,NF,B,362818,362818,361288,362101,361288,363267,362618,362618,363267,94
95,test,1,con,1,z,Fri May 23 2025 17:18:11 GMT-0500 (Central Daylight Time),372116.6000000015,cherry,800,I,z,z,None,629,414.0,215.0,9,2,1945.5,370171.1000000015,8021,cherry,NF,B,364800,364800,363271,364084,363271,365217,364585,364585,365217,95
96,test,1,inc,1,z,Fri May 23 2025 17:18:11 GMT-0500 (Central Daylight Time),374049.5,bronze,800,I,z,z,None,592,327.0,265.0,13,2,1929.3999999985099,372120.1000000015,8021,cherry,NF,B,366815,366815,365220,366033,365220,367150,366550,366550,367150,96
97,test,1,con,1,z,Fri May 23 2025 17:18:11 GMT-0500 (Central Daylight Time),376198.700000003,pear,1100,I,z,z,None,511,312.0,199.0,44,2,2145.5,374053.200000003,8021,pear,NF,B,368982,368982,367153,368266,367154,369299,368783,368783,369299,97
98,test,1,con,1,z,Fri May 23 2025 17:18:11 GMT-0500 (Central Daylight Time),378264.799999997,banana,900,I,z,z,None,617,418.0,199.0,2,2,2062.1999999955297,376202.6000000015,8021,banana,NF,B,370932,370932,369303,370215,369303,371365,370732,370732,371365,98
99,test,1,inc,1,m,Fri May 23 2025 17:18:11 GMT-0500 (Central Daylight Time),380097.3999999985,lime,800,I,m,m,None,484,284.0,200.0,117,2,1828.6000000014901,378268.799999997,8021,zinc,NF,B,372898,372898,371369,372182,371369,373197,372698,372698,373197,99
100,test,1,con,1,m,Fri May 23 2025 17:18:11 GMT-0500 (Central Daylight Time),382113.700000003,gold,1000,I,m,m,None,467,268.0,199.0,99,2,2012.6000000014901,380101.1000000015,8021,gold,NF,B,374930,374930,373201,374214,373202,375214,374731,374731,375214,100
101,test,1,con,1,z,Fri May 23 2025 17:18:11 GMT-0500 (Central Daylight Time),384296.299999997,orange,1100,I,z,z,None,534,335.0,199.0,20,2,2178.89999999851,382117.3999999985,8021,orange,NF,B,377047,377047,375217,376330,375218,377396,376847,376847,377396,101
102,test,1,inc,1,z,Fri May 23 2025 17:18:11 GMT-0500 (Central Daylight Time),386445.5,copper,900,I,z,z,None,712,513.0,199.0,22,2,2145.2999999970198,384300.200000003,8021,orange,NF,B,379029,379029,377400,378313,377401,379546,378830,378830,379546,102
103,test,1,con,1,m,Fri May 23 2025 17:18:11 GMT-0500 (Central Daylight Time),388461.5,silver,800,I,m,m,None,678,479.0,199.0,81,2,2012.2000000029802,386449.299999997,8021,silver,NF,B,381078,381079,379549,380362,379550,381562,380879,380879,381562,103
104,test,1,con,1,m,Fri May 23 2025 17:18:11 GMT-0500 (Central Daylight Time),390527.3999999985,copper,1000,I,m,m,None,527,327.0,200.0,75,2,2062.5,388464.8999999985,8021,copper,NF,B,383295,383295,381565,382578,381565,383627,383095,383095,383627,104
105,test,1,inc,1,m,Fri May 23 2025 17:18:11 GMT-0500 (Central Daylight Time),392793.5,plum,1100,I,m,m,None,617,418.0,199.0,120,2,2262.39999999851,390531.1000000015,8021,zinc,NF,B,385460,385460,383631,384744,383632,385894,385261,385261,385894,105
106,test,1,inc,1,z,Fri May 23 2025 17:18:11 GMT-0500 (Central Daylight Time),395076.1000000015,cobalt,1100,I,z,z,None,646,447.0,199.0,32,2,2279.0,392797.1000000015,8021,raisin,NF,B,387727,387727,385897,387010,385897,388176,387527,387527,388176,106
107,test,1,inc,1,m,Fri May 23 2025 17:18:11 GMT-0500 (Central Daylight Time),397274.8999999985,kiwi,1000,I,m,m,None,666,466.0,200.0,111,2,2195.10000000149,395079.799999997,8021,iron,NF,B,389909,389909,388180,389193,388180,390375,389709,389709,390375,107
108,test,1,inc,1,z,Fri May 23 2025 17:18:11 GMT-0500 (Central Daylight Time),399324.799999997,copper,900,I,z,z,None,613,414.0,199.0,30,2,2045.0999999940395,397279.700000003,8021,raisin,NF,B,392008,392008,390380,391292,390380,392425,391809,391809,392425,108
109,test,1,inc,1,z,Fri May 23 2025 17:18:11 GMT-0500 (Central Daylight Time),401207.5,gold,800,I,z,z,None,535,336.0,199.0,53,2,1879.1000000014901,399328.3999999985,8021,kiwi,NF,B,393958,393958,392428,393241,392429,394308,393758,393758,394308,109
110,test,1,con,1,m,Fri May 23 2025 17:18:11 GMT-0500 (Central Daylight Time),403156.799999997,zinc,1000,I,m,m,None,412,213.0,199.0,115,2,1945.2999999970198,401211.5,8021,zinc,NF,B,396041,396041,394312,395324,394312,396257,395841,395841,396257,110
111,test,1,inc,1,z,Fri May 23 2025 17:18:11 GMT-0500 (Central Daylight Time),405123.0,copper,900,I,z,z,None,531,332.0,199.0,6,2,1962.2000000029802,403160.799999997,8021,banana,NF,B,397890,397890,396261,397174,396261,398223,397690,397691,398223,111
112,test,1,con,1,m,Fri May 23 2025 17:18:11 GMT-0500 (Central Daylight Time),407322.299999997,copper,1100,I,m,m,None,558,358.0,200.0,76,2,2195.89999999851,405126.3999999985,8021,copper,NF,B,400056,400056,398226,399340,398227,400422,399856,399856,400422,112
113,test,1,inc,1,m,Fri May 23 2025 17:18:11 GMT-0500 (Central Daylight Time),409355.299999997,cherry,900,I,m,m,None,599,399.0,200.0,78,2,2029.1999999955297,407326.1000000015,8021,copper,NF,B,402055,402055,400426,401339,400427,402455,401855,401855,402455,113
114,test,1,con,1,z,Fri May 23 2025 17:18:11 GMT-0500 (Central Daylight Time),411437.799999997,banana,1000,I,z,z,None,538,338.0,200.0,3,2,2078.89999999851,409358.8999999985,8021,banana,NF,B,404188,404188,402459,403473,402459,404538,403988,403988,404538,114
115,test,1,con,1,m,Fri May 23 2025 17:18:11 GMT-0500 (Central Daylight Time),413587.0,silver,1000,I,m,m,None,614,415.0,199.0,83,2,2145.7999999970198,411441.200000003,8021,silver,NF,B,406271,406271,404541,405554,404542,406687,406071,406071,406687,115
116,test,1,inc,1,m,Fri May 23 2025 17:18:11 GMT-0500 (Central Daylight Time),415653.1000000015,orange,1000,I,m,m,None,522,322.0,200.0,87,2,2062.3000000044703,413590.799999997,8021,silver,NF,B,408420,408420,406691,407704,406691,408753,408220,408220,408753,116
117,test,1,con,1,m,Fri May 23 2025 17:18:11 GMT-0500 (Central Daylight Time),417819.299999997,copper,800,I,m,m,None,824,624.0,200.0,73,2,2161.5999999940395,415657.700000003,8021,copper,NF,B,410287,410287,408758,409570,408758,410919,410086,410086,410919,117
118,test,1,con,1,z,Fri May 23 2025 17:18:11 GMT-0500 (Central Daylight Time),419702.0,lime,800,I,z,z,None,538,338.0,200.0,33,2,1879.0,417823.0,8021,lime,NF,B,412452,412452,410923,411736,410923,412802,412252,412252,412802,118
119,test,1,inc,1,m,Fri May 23 2025 17:18:11 GMT-0500 (Central Daylight Time),421768.1000000015,pear,900,I,m,m,None,627,427.0,200.0,118,2,2062.39999999851,419705.700000003,8021,zinc,NF,B,414435,414435,412806,413719,412806,414868,414235,414235,414868,119
120,test,1,inc,1,m,Fri May 23 2025 17:18:11 GMT-0500 (Central Daylight Time),423734.1000000015,banana,800,I,m,m,None,621,421.0,200.0,85,2,1962.0,421772.1000000015,8021,silver,NF,B,416401,416401,414872,415685,414872,416834,416201,416201,416834,120
121,test,1,inc,1,m,Fri May 23 2025 17:18:11 GMT-0500 (Central Daylight Time),425800.3999999985,cherry,900,I,m,m,None,628,428.0,200.0,70,2,2062.5,423737.8999999985,8021,bronze,NF,B,418467,418467,416838,417751,416838,418900,418267,418267,418900,121
122,test,1,inc,1,m,Fri May 23 2025 17:18:11 GMT-0500 (Central Daylight Time),428066.1000000015,plum,1100,I,m,m,None,626,426.0,200.0,128,2,2262.10000000149,425804.0,8021,lead,NF,B,420733,420733,418904,420017,418904,421166,420533,420533,421166,122
123,test,1,con,1,m,Fri May 23 2025 17:18:11 GMT-0500 (Central Daylight Time),430082.200000003,lead,900,I,m,m,None,567,367.0,200.0,122,2,2012.0,428070.200000003,8021,lead,NF,B,422799,422799,421170,422083,421170,423182,422599,422599,423182,123
124,test,1,con,1,m,Fri May 23 2025 17:18:11 GMT-0500 (Central Daylight Time),432131.200000003,iron,800,I,m,m,None,715,515.0,200.0,105,2,2045.2000000029802,430086.0,8021,iron,NF,B,424715,424715,423186,423999,423186,425231,424515,424515,425231,124
125,test,1,inc,1,z,Fri May 23 2025 17:18:11 GMT-0500 (Central Daylight Time),434047.3999999985,bronze,800,I,z,z,None,576,377.0,199.0,29,2,1912.7999999970198,432134.6000000015,8021,raisin,NF,B,426765,426765,425235,426048,425235,427147,426565,426565,427147,125
126,test,1,con,1,z,Fri May 23 2025 17:18:11 GMT-0500 (Central Daylight Time),436329.8999999985,orange,1000,I,z,z,None,734,534.0,200.0,19,2,2278.5,434051.3999999985,8021,orange,NF,B,428880,428880,427151,428164,427152,429430,428680,428680,429430,126
127,test,1,con,1,m,Fri May 23 2025 17:18:11 GMT-0500 (Central Daylight Time),438312.700000003,cobalt,1000,I,m,m,None,444,244.0,200.0,91,2,1979.2000000029802,436333.5,8021,cobalt,NF,B,431163,431163,429434,430447,429434,431413,430963,430963,431413,127
128,test,1,con,1,m,Fri May 23 2025 17:18:11 GMT-0500 (Central Daylight Time),440495.299999997,zinc,900,I,m,m,None,736,536.0,200.0,114,2,2179.0,438316.299999997,8021,zinc,NF,B,433046,433046,431416,432330,431417,433596,432846,432846,433595,128
