acc_sum,block,block_c,change,condition,correct,correct_response,datetime,endtime,face,project,response,response_time,row_sel,session_number,start_end,starttime,subject_id,task,task_vers,trial
0,prac,1,,1-Back,,,Mon Apr 13 2026 14:04:15 GMT-0500 (Central Daylight Time),,012_o_f_d_a.png,O,space,3209,1,1,,,7758,VNB,C,0
1,prac,1,0.0,1-Back,1.0,m,Mon Apr 13 2026 14:04:15 GMT-0500 (Central Daylight Time),120537.10000002384,022_y_f_n_a.png,O,m,1611,2,1,2471.0,118066.10000002384,7758,VNB,C,1
2,prac,1,0.0,1-Back,1.0,m,Mon Apr 13 2026 14:04:15 GMT-0500 (Central Daylight Time),122819.90000000596,014_m_m_h_a.png,O,m,1420,3,1,2275.699999988079,120544.20000001788,7758,VNB,C,2
3,prac,1,0.0,1-Back,1.0,m,Mon Apr 13 2026 14:04:15 GMT-0500 (Central Daylight Time),124737.30000001192,025_y_m_d_a.png,O,m,1045,4,1,1904.5999999940395,122832.70000001788,7758,VNB,C,3
4,prac,1,0.0,1-Back,1.0,m,Mon Apr 13 2026 14:04:15 GMT-0500 (Central Daylight Time),126702.90000000596,012_o_f_n_a.png,O,m,1117,5,1,1960.0999999940395,124742.80000001192,7758,VNB,C,4
5,prac,1,1.0,1-Back,1.0,z,Mon Apr 13 2026 14:04:15 GMT-0500 (Central Daylight Time),128685.80000001192,025_y_m_n_a.png,O,z,1120,6,1,1972.0,126713.80000001192,7758,VNB,C,5
6,prac,1,0.0,1-Back,1.0,m,Mon Apr 13 2026 14:04:15 GMT-0500 (Central Daylight Time),130384.5,015_o_m_h_a.png,O,m,834,7,1,1693.3999999761581,128691.10000002384,7758,VNB,C,6
6,prac,1,0.0,1-Back,0.0,m,Mon Apr 13 2026 14:04:15 GMT-0500 (Central Daylight Time),132517.60000002384,019_m_f_d_a.png,O,z,1240,8,1,2121.4000000059605,130396.20000001788,7758,VNB,C,7
7,prac,1,1.0,1-Back,1.0,z,Mon Apr 13 2026 14:04:15 GMT-0500 (Central Daylight Time),134849.90000000596,022_y_f_d_a.png,O,z,1473,9,1,2326.699999988079,132523.20000001788,7758,VNB,C,8
8,prac,1,0.0,1-Back,1.0,m,Mon Apr 13 2026 14:04:15 GMT-0500 (Central Daylight Time),136782.70000001788,014_m_m_n_a.png,O,m,1072,10,1,1922.5999999940395,134860.10000002384,7758,VNB,C,9
9,prac,1,0.0,1-Back,1.0,m,Mon Apr 13 2026 14:04:15 GMT-0500 (Central Daylight Time),138783.60000002384,012_o_f_h_a.png,O,m,1135,11,1,1996.1000000238419,136787.5,7758,VNB,C,10
9,prac,1,0.0,1-Back,0.0,m,Mon Apr 13 2026 14:04:15 GMT-0500 (Central Daylight Time),140565.0,025_y_m_d_a.png,O,z,927,12,1,1772.2999999821186,138792.70000001788,7758,VNB,C,11
0,test,1,0.0,1-Back,,,Mon Apr 13 2026 14:04:15 GMT-0500 (Central Daylight Time),140565.0,022_y_f_d_a.png,O,space,2766,1,1,1772.2999999821186,138792.70000001788,7758,VNB,C,0
1,test,1,0.0,1-Back,1.0,m,Mon Apr 13 2026 14:04:15 GMT-0500 (Central Daylight Time),152843.0,019_m_f_n_a.png,O,m,895,2,1,1902.5999999940395,150940.40000000596,7758,VNB,C,1
2,test,1,0.0,1-Back,1.0,m,Mon Apr 13 2026 14:04:15 GMT-0500 (Central Daylight Time),155026.20000001788,015_o_m_h_a.png,O,m,1150,3,1,2180.5999999940395,152845.60000002384,7758,VNB,C,2
3,test,1,1.0,1-Back,1.0,z,Mon Apr 13 2026 14:04:15 GMT-0500 (Central Daylight Time),157210.0,014_m_m_h_a.png,O,z,1156,4,1,2175.699999988079,155034.30000001192,7758,VNB,C,3
4,test,1,0.0,1-Back,1.0,m,Mon Apr 13 2026 14:04:15 GMT-0500 (Central Daylight Time),158959.10000002384,012_o_f_n_a.png,O,m,719,5,1,1746.0,157213.10000002384,7758,VNB,C,4
4,test,1,0.0,1-Back,0.0,m,Mon Apr 13 2026 14:04:15 GMT-0500 (Central Daylight Time),160891.60000002384,025_y_m_d_a.png,O,z,914,6,1,1922.7000000178814,158968.90000000596,7758,VNB,C,5
4,test,1,1.0,1-Back,0.0,z,Mon Apr 13 2026 14:04:15 GMT-0500 (Central Daylight Time),163073.90000000596,019_m_f_d_a.png,O,m,1156,7,1,2179.0999999940395,160894.80000001192,7758,VNB,C,6
5,test,1,0.0,1-Back,1.0,m,Mon Apr 13 2026 14:04:15 GMT-0500 (Central Daylight Time),165439.20000001788,022_y_f_h_a.png,O,m,1334,8,1,2356.800000011921,163082.40000000596,7758,VNB,C,7
6,test,1,0.0,1-Back,1.0,m,Mon Apr 13 2026 14:04:15 GMT-0500 (Central Daylight Time),167389.30000001192,015_o_m_n_a.png,O,m,928,9,1,1947.5,165441.80000001192,7758,VNB,C,8
7,test,1,0.0,1-Back,1.0,m,Mon Apr 13 2026 14:04:15 GMT-0500 (Central Daylight Time),170171.0,025_y_m_h_a.png,O,m,1761,10,1,2771.5,167399.5,7758,VNB,C,9
8,test,1,0.0,1-Back,1.0,m,Mon Apr 13 2026 14:04:15 GMT-0500 (Central Daylight Time),172170.5,015_o_m_d_a.png,O,m,972,11,1,1996.7999999821186,170173.70000001788,7758,VNB,C,10
8,test,1,1.0,1-Back,0.0,z,Mon Apr 13 2026 14:04:15 GMT-0500 (Central Daylight Time),174486.70000001788,012_o_f_d_a.png,O,m,1293,12,1,2305.0,172181.70000001788,7758,VNB,C,11
9,test,1,0.0,1-Back,1.0,m,Mon Apr 13 2026 14:04:15 GMT-0500 (Central Daylight Time),176735.60000002384,014_m_m_n_a.png,O,m,1217,13,1,2245.800000011921,174489.80000001192,7758,VNB,C,12
10,test,1,1.0,1-Back,1.0,z,Mon Apr 13 2026 14:04:15 GMT-0500 (Central Daylight Time),178851.90000000596,022_y_f_n_a.png,O,z,1088,14,1,2108.9000000059605,176743.0,7758,VNB,C,13
11,test,1,0.0,1-Back,1.0,m,Mon Apr 13 2026 14:04:15 GMT-0500 (Central Daylight Time),180752.5,019_m_f_h_a.png,O,m,875,15,1,1896.3999999761581,178856.10000002384,7758,VNB,C,14
12,test,1,0.0,1-Back,1.0,m,Mon Apr 13 2026 14:04:15 GMT-0500 (Central Daylight Time),182783.90000000596,014_m_m_d_a.png,O,m,1007,16,1,2024.2999999821186,180759.60000002384,7758,VNB,C,15
13,test,1,0.0,1-Back,1.0,m,Mon Apr 13 2026 14:04:15 GMT-0500 (Central Daylight Time),184767.5,025_y_m_n_a.png,O,m,950,17,1,1979.5,182788.0,7758,VNB,C,16
14,test,1,0.0,1-Back,1.0,m,Mon Apr 13 2026 14:04:15 GMT-0500 (Central Daylight Time),186966.20000001788,012_o_f_h_a.png,O,m,1168,18,1,2190.7000000178814,184775.5,7758,VNB,C,17
0,test,2,0.0,1-Back,,,Mon Apr 13 2026 14:04:15 GMT-0500 (Central Daylight Time),186966.20000001788,025_y_m_n_a.png,O,space,1137,1,1,2190.7000000178814,184775.5,7758,VNB,C,0
1,test,2,0.0,1-Back,1.0,m,Mon Apr 13 2026 14:04:15 GMT-0500 (Central Daylight Time),191981.40000000596,022_y_f_h_a.png,O,m,828,2,1,1834.9000000059605,190146.5,7758,VNB,C,1
2,test,2,1.0,1-Back,1.0,m,Mon Apr 13 2026 14:04:15 GMT-0500 (Central Daylight Time),193581.80000001192,015_o_m_n_a.png,O,m,578,3,1,1596.800000011921,191985.0,7758,VNB,C,2
3,test,2,0.0,1-Back,1.0,m,Mon Apr 13 2026 14:04:15 GMT-0500 (Central Daylight Time),195262.5,019_m_f_d_a.png,O,m,659,4,1,1673.0,193589.5,7758,VNB,C,3
4,test,2,0.0,1-Back,1.0,z,Mon Apr 13 2026 14:04:15 GMT-0500 (Central Daylight Time),196980.5,014_m_m_d_a.png,O,z,696,5,1,1715.0999999940395,195265.40000000596,7758,VNB,C,4
5,test,2,0.0,1-Back,1.0,m,Mon Apr 13 2026 14:04:15 GMT-0500 (Central Daylight Time),199028.90000000596,025_y_m_h_a.png,O,m,1020,6,1,2040.0,196988.90000000596,7758,VNB,C,5
6,test,2,1.0,1-Back,1.0,z,Mon Apr 13 2026 14:04:15 GMT-0500 (Central Daylight Time),201511.80000001192,012_o_f_h_a.png,O,z,1452,7,1,2479.4000000059605,199032.40000000596,7758,VNB,C,6
7,test,2,0.0,1-Back,1.0,m,Mon Apr 13 2026 14:04:15 GMT-0500 (Central Daylight Time),203444.10000002384,019_m_f_n_a.png,O,m,904,8,1,1920.6000000238419,201523.5,7758,VNB,C,7
8,test,2,0.0,1-Back,1.0,m,Mon Apr 13 2026 14:04:15 GMT-0500 (Central Daylight Time),205361.80000001192,022_y_f_d_a.png,O,m,886,9,1,1912.0,203449.80000001192,7758,VNB,C,8
9,test,2,0.0,1-Back,1.0,m,Mon Apr 13 2026 14:04:15 GMT-0500 (Central Daylight Time),207509.0,014_m_m_n_a.png,O,m,1127,10,1,2136.0999999940395,205372.90000000596,7758,VNB,C,9
10,test,2,1.0,1-Back,1.0,m,Mon Apr 13 2026 14:04:15 GMT-0500 (Central Daylight Time),209459.30000001192,019_m_f_h_a.png,O,m,930,11,1,1946.9000000059605,207512.40000000596,7758,VNB,C,10
11,test,2,0.0,1-Back,1.0,z,Mon Apr 13 2026 14:04:15 GMT-0500 (Central Daylight Time),211309.0,015_o_m_h_a.png,O,z,821,12,1,1839.5999999940395,209469.40000000596,7758,VNB,C,11
12,test,2,0.0,1-Back,1.0,m,Mon Apr 13 2026 14:04:15 GMT-0500 (Central Daylight Time),213041.60000002384,025_y_m_d_a.png,O,m,704,13,1,1729.2000000178814,211312.40000000596,7758,VNB,C,12
13,test,2,0.0,1-Back,1.0,m,Mon Apr 13 2026 14:04:15 GMT-0500 (Central Daylight Time),215108.30000001192,012_o_f_n_a.png,O,m,1035,14,1,2056.800000011921,213051.5,7758,VNB,C,13
14,test,2,0.0,1-Back,1.0,z,Mon Apr 13 2026 14:04:15 GMT-0500 (Central Daylight Time),217091.60000002384,022_y_f_n_a.png,O,z,966,15,1,1978.7000000178814,215112.90000000596,7758,VNB,C,14
15,test,2,1.0,1-Back,1.0,m,Mon Apr 13 2026 14:04:15 GMT-0500 (Central Daylight Time),219241.5,014_m_m_h_a.png,O,m,1117,16,1,2143.2999999821186,217098.20000001788,7758,VNB,C,15
16,test,2,0.0,1-Back,1.0,m,Mon Apr 13 2026 14:04:15 GMT-0500 (Central Daylight Time),221189.70000001788,012_o_f_d_a.png,O,m,923,17,1,1945.5,219244.20000001788,7758,VNB,C,16
17,test,2,1.0,1-Back,1.0,z,Mon Apr 13 2026 14:04:15 GMT-0500 (Central Daylight Time),222937.60000002384,015_o_m_d_a.png,O,z,721,18,1,1738.9000000059605,221198.70000001788,7758,VNB,C,17
0,test,3,1.0,1-Back,,,Mon Apr 13 2026 14:04:15 GMT-0500 (Central Daylight Time),222937.60000002384,012_o_f_h_a.png,O,space,1335,1,1,1738.9000000059605,221198.70000001788,7758,VNB,C,0
1,test,3,0.0,1-Back,1.0,m,Mon Apr 13 2026 14:04:15 GMT-0500 (Central Daylight Time),228435.90000000596,019_m_f_d_a.png,O,m,1029,2,1,2042.0999999940395,226393.80000001192,7758,VNB,C,1
2,test,3,1.0,1-Back,1.0,m,Mon Apr 13 2026 14:04:15 GMT-0500 (Central Daylight Time),230253.5,014_m_m_n_a.png,O,m,786,3,1,1814.2999999821186,228439.20000001788,7758,VNB,C,2
3,test,3,0.0,1-Back,1.0,z,Mon Apr 13 2026 14:04:15 GMT-0500 (Central Daylight Time),232434.5,012_o_f_n_a.png,O,z,1156,4,1,2171.899999976158,230262.60000002384,7758,VNB,C,3
4,test,3,1.0,1-Back,1.0,m,Mon Apr 13 2026 14:04:15 GMT-0500 (Central Daylight Time),234301.20000001788,015_o_m_d_a.png,O,m,845,5,1,1863.7000000178814,232437.5,7758,VNB,C,4
5,test,3,0.0,1-Back,1.0,m,Mon Apr 13 2026 14:04:15 GMT-0500 (Central Daylight Time),236300.5,022_y_f_h_a.png,O,m,978,6,1,1990.5999999940395,234309.90000000596,7758,VNB,C,5
6,test,3,0.0,1-Back,1.0,z,Mon Apr 13 2026 14:04:15 GMT-0500 (Central Daylight Time),238232.60000002384,025_y_m_h_a.png,O,z,907,7,1,1929.2000000178814,236303.40000000596,7758,VNB,C,6
7,test,3,0.0,1-Back,1.0,m,Mon Apr 13 2026 14:04:15 GMT-0500 (Central Daylight Time),240016.30000001192,019_m_f_n_a.png,O,m,748,8,1,1779.800000011921,238236.5,7758,VNB,C,7
8,test,3,0.0,1-Back,1.0,m,Mon Apr 13 2026 14:04:15 GMT-0500 (Central Daylight Time),242017.20000001788,022_y_f_d_a.png,O,m,967,9,1,1996.9000000059605,240020.30000001192,7758,VNB,C,8
9,test,3,1.0,1-Back,1.0,m,Mon Apr 13 2026 14:04:15 GMT-0500 (Central Daylight Time),243832.20000001788,015_o_m_n_a.png,O,m,784,10,1,1804.0999999940395,242028.10000002384,7758,VNB,C,9
10,test,3,0.0,1-Back,1.0,m,Mon Apr 13 2026 14:04:15 GMT-0500 (Central Daylight Time),245981.40000000596,014_m_m_h_a.png,O,m,1121,11,1,2145.4000000059605,243836.0,7758,VNB,C,10
11,test,3,0.0,1-Back,1.0,z,Mon Apr 13 2026 14:04:15 GMT-0500 (Central Daylight Time),247497.40000000596,019_m_f_h_a.png,O,z,491,12,1,1507.699999988079,245989.70000001788,7758,VNB,C,11
12,test,3,1.0,1-Back,1.0,m,Mon Apr 13 2026 14:04:15 GMT-0500 (Central Daylight Time),249161.70000001788,012_o_f_d_a.png,O,m,646,13,1,1661.4000000059605,247500.30000001192,7758,VNB,C,12
12,test,3,0.0,1-Back,0.0,z,Mon Apr 13 2026 14:04:15 GMT-0500 (Central Daylight Time),251329.10000002384,014_m_m_d_a.png,O,m,1147,14,1,2164.0,249165.10000002384,7758,VNB,C,13
13,test,3,0.0,1-Back,1.0,m,Mon Apr 13 2026 14:04:15 GMT-0500 (Central Daylight Time),253461.5,025_y_m_n_a.png,O,m,1109,15,1,2128.199999988079,251333.30000001192,7758,VNB,C,14
14,test,3,1.0,1-Back,1.0,m,Mon Apr 13 2026 14:04:15 GMT-0500 (Central Daylight Time),255442.60000002384,015_o_m_h_a.png,O,m,951,16,1,1972.0,253470.60000002384,7758,VNB,C,15
15,test,3,0.0,1-Back,1.0,m,Mon Apr 13 2026 14:04:15 GMT-0500 (Central Daylight Time),257676.60000002384,025_y_m_d_a.png,O,m,1204,17,1,2232.300000011921,255444.30000001192,7758,VNB,C,16
16,test,3,1.0,1-Back,1.0,m,Mon Apr 13 2026 14:04:15 GMT-0500 (Central Daylight Time),259980.0,022_y_f_n_a.png,O,m,1270,18,1,2294.899999976158,257685.10000002384,7758,VNB,C,17
0,test,4,1.0,1-Back,,,Mon Apr 13 2026 14:04:15 GMT-0500 (Central Daylight Time),259980.0,014_m_m_d_a.png,O,space,1068,1,1,2294.899999976158,257685.10000002384,7758,VNB,C,0
1,test,4,0.0,1-Back,1.0,z,Mon Apr 13 2026 14:04:15 GMT-0500 (Central Daylight Time),265091.0,015_o_m_d_a.png,O,z,989,2,1,2005.2999999821186,263085.7000000179,7758,VNB,C,1
2,test,4,0.0,1-Back,1.0,m,Mon Apr 13 2026 14:04:15 GMT-0500 (Central Daylight Time),266809.3000000119,025_y_m_h_a.png,O,m,691,3,1,1715.199999988079,265094.10000002384,7758,VNB,C,2
3,test,4,0.0,1-Back,1.0,m,Mon Apr 13 2026 14:04:15 GMT-0500 (Central Daylight Time),268957.7000000179,019_m_f_n_a.png,O,m,1120,4,1,2142.0,266815.7000000179,7758,VNB,C,3
4,test,4,1.0,1-Back,1.0,m,Mon Apr 13 2026 14:04:15 GMT-0500 (Central Daylight Time),270973.8000000119,012_o_f_h_a.png,O,m,996,5,1,2012.699999988079,268961.10000002384,7758,VNB,C,4
5,test,4,0.0,1-Back,1.0,m,Mon Apr 13 2026 14:04:15 GMT-0500 (Central Daylight Time),272771.8000000119,014_m_m_n_a.png,O,m,772,6,1,1792.199999988079,270979.60000002384,7758,VNB,C,5
6,test,4,0.0,1-Back,1.0,m,Mon Apr 13 2026 14:04:15 GMT-0500 (Central Daylight Time),274688.10000002384,025_y_m_d_a.png,O,m,890,7,1,1913.4000000059605,272774.7000000179,7758,VNB,C,6
6,test,4,1.0,1-Back,0.0,z,Mon Apr 13 2026 14:04:15 GMT-0500 (Central Daylight Time),277071.8000000119,022_y_f_d_a.png,O,m,1359,8,1,2376.0,274695.8000000119,7758,VNB,C,7
7,test,4,0.0,1-Back,1.0,m,Mon Apr 13 2026 14:04:15 GMT-0500 (Central Daylight Time),279019.8000000119,019_m_f_h_a.png,O,m,919,9,1,1945.5999999940395,277074.2000000179,7758,VNB,C,8
8,test,4,0.0,1-Back,1.0,z,Mon Apr 13 2026 14:04:15 GMT-0500 (Central Daylight Time),280652.40000000596,015_o_m_h_a.png,O,z,613,10,1,1623.2999999821186,279029.10000002384,7758,VNB,C,9
9,test,4,1.0,1-Back,1.0,m,Mon Apr 13 2026 14:04:15 GMT-0500 (Central Daylight Time),282403.0,012_o_f_n_a.png,O,m,730,11,1,1747.7999999821186,280655.2000000179,7758,VNB,C,10
10,test,4,0.0,1-Back,1.0,m,Mon Apr 13 2026 14:04:15 GMT-0500 (Central Daylight Time),284387.90000000596,019_m_f_d_a.png,O,m,968,12,1,1979.9000000059605,282408.0,7758,VNB,C,11
11,test,4,0.0,1-Back,1.0,m,Mon Apr 13 2026 14:04:15 GMT-0500 (Central Daylight Time),286367.90000000596,022_y_f_n_a.png,O,m,950,13,1,1977.7999999821186,284390.10000002384,7758,VNB,C,12
12,test,4,0.0,1-Back,1.0,m,Mon Apr 13 2026 14:04:15 GMT-0500 (Central Daylight Time),288100.7000000179,012_o_f_d_a.png,O,m,713,14,1,1724.4000000059605,286376.3000000119,7758,VNB,C,13
13,test,4,0.0,1-Back,1.0,m,Mon Apr 13 2026 14:04:15 GMT-0500 (Central Daylight Time),290100.8000000119,022_y_f_h_a.png,O,m,970,15,1,1997.199999988079,288103.60000002384,7758,VNB,C,14
14,test,4,1.0,1-Back,1.0,z,Mon Apr 13 2026 14:04:15 GMT-0500 (Central Daylight Time),291766.90000000596,014_m_m_h_a.png,O,z,636,16,1,1656.0999999940395,290110.8000000119,7758,VNB,C,15
15,test,4,0.0,1-Back,1.0,m,Mon Apr 13 2026 14:04:15 GMT-0500 (Central Daylight Time),293482.90000000596,015_o_m_n_a.png,O,m,690,17,1,1709.699999988079,291773.2000000179,7758,VNB,C,16
16,test,4,1.0,1-Back,1.0,z,Mon Apr 13 2026 14:04:15 GMT-0500 (Central Daylight Time),295417.10000002384,025_y_m_n_a.png,O,z,917,18,1,1929.2000000178814,293487.90000000596,7758,VNB,C,17
0,test,5,1.0,1-Back,,,Mon Apr 13 2026 14:04:15 GMT-0500 (Central Daylight Time),295417.10000002384,015_o_m_n_a.png,O,space,1248,1,1,1929.2000000178814,293487.90000000596,7758,VNB,C,0
1,test,5,1.0,1-Back,1.0,m,Mon Apr 13 2026 14:04:15 GMT-0500 (Central Daylight Time),300680.5,012_o_f_h_a.png,O,m,974,2,1,1986.699999988079,298693.8000000119,7758,VNB,C,1
2,test,5,0.0,1-Back,1.0,m,Mon Apr 13 2026 14:04:15 GMT-0500 (Central Daylight Time),302528.7000000179,025_y_m_d_a.png,O,m,823,3,1,1845.7000000178814,300683.0,7758,VNB,C,2
3,test,5,0.0,1-Back,1.0,z,Mon Apr 13 2026 14:04:15 GMT-0500 (Central Daylight Time),304579.5,015_o_m_d_a.png,O,z,1030,4,1,2043.199999988079,302536.3000000119,7758,VNB,C,3
4,test,5,0.0,1-Back,1.0,m,Mon Apr 13 2026 14:04:15 GMT-0500 (Central Daylight Time),306313.0,019_m_f_h_a.png,O,m,718,5,1,1730.699999988079,304582.3000000119,7758,VNB,C,4
5,test,5,0.0,1-Back,1.0,m,Mon Apr 13 2026 14:04:15 GMT-0500 (Central Daylight Time),308077.40000000596,022_y_f_n_a.png,O,m,745,6,1,1752.5,306324.90000000596,7758,VNB,C,5
6,test,5,1.0,1-Back,1.0,z,Mon Apr 13 2026 14:04:15 GMT-0500 (Central Daylight Time),309859.10000002384,012_o_f_n_a.png,O,z,761,7,1,1778.9000000059605,308080.2000000179,7758,VNB,C,6
7,test,5,0.0,1-Back,1.0,m,Mon Apr 13 2026 14:04:15 GMT-0500 (Central Daylight Time),311627.5,019_m_f_d_a.png,O,m,739,8,1,1761.199999988079,309866.3000000119,7758,VNB,C,7
8,test,5,0.0,1-Back,1.0,m,Mon Apr 13 2026 14:04:15 GMT-0500 (Central Daylight Time),313759.3000000119,025_y_m_h_a.png,O,m,1100,9,1,2129.699999988079,311629.60000002384,7758,VNB,C,8
9,test,5,0.0,1-Back,1.0,m,Mon Apr 13 2026 14:04:15 GMT-0500 (Central Daylight Time),315581.40000000596,022_y_f_d_a.png,O,m,791,10,1,1814.199999988079,313767.2000000179,7758,VNB,C,9
10,test,5,0.0,1-Back,1.0,m,Mon Apr 13 2026 14:04:15 GMT-0500 (Central Daylight Time),317774.90000000596,014_m_m_n_a.png,O,m,1176,11,1,2191.5999999940395,315583.3000000119,7758,VNB,C,10
10,test,5,1.0,1-Back,0.0,z,Mon Apr 13 2026 14:04:15 GMT-0500 (Central Daylight Time),320357.3000000119,019_m_f_n_a.png,O,m,1560,12,1,2572.800000011921,317784.5,7758,VNB,C,11
11,test,5,0.0,1-Back,1.0,m,Mon Apr 13 2026 14:04:15 GMT-0500 (Central Daylight Time),322556.10000002384,015_o_m_h_a.png,O,m,1171,13,1,2195.800000011921,320360.3000000119,7758,VNB,C,12
12,test,5,0.0,1-Back,1.0,z,Mon Apr 13 2026 14:04:15 GMT-0500 (Central Daylight Time),324239.10000002384,014_m_m_h_a.png,O,z,651,14,1,1673.2000000178814,322565.90000000596,7758,VNB,C,13
13,test,5,1.0,1-Back,1.0,m,Mon Apr 13 2026 14:04:15 GMT-0500 (Central Daylight Time),325972.2000000179,012_o_f_d_a.png,O,m,704,15,1,1728.5999999940395,324243.60000002384,7758,VNB,C,14
14,test,5,0.0,1-Back,1.0,m,Mon Apr 13 2026 14:04:15 GMT-0500 (Central Daylight Time),328471.60000002384,025_y_m_n_a.png,O,m,1475,16,1,2489.100000023842,325982.5,7758,VNB,C,15
15,test,5,0.0,1-Back,1.0,m,Mon Apr 13 2026 14:04:15 GMT-0500 (Central Daylight Time),330253.3000000119,022_y_f_h_a.png,O,m,752,17,1,1777.4000000059605,328475.90000000596,7758,VNB,C,16
16,test,5,0.0,1-Back,1.0,m,Mon Apr 13 2026 14:04:15 GMT-0500 (Central Daylight Time),332219.8000000119,014_m_m_d_a.png,O,m,946,18,1,1959.0999999940395,330260.7000000179,7758,VNB,C,17
0,prac,1,0.0,2-Back,,,Mon Apr 13 2026 14:04:15 GMT-0500 (Central Daylight Time),332219.8000000119,019_m_f_n_a.png,O,space,2548,1,1,1959.0999999940395,330260.7000000179,7758,VNB,C,0
0,prac,1,0.0,2-Back,,,Mon Apr 13 2026 14:04:15 GMT-0500 (Central Daylight Time),332219.8000000119,012_o_f_h_a.png,O,space,2548,2,1,1959.0999999940395,330260.7000000179,7758,VNB,C,0
1,prac,1,0.0,2-Back,1.0,m,Mon Apr 13 2026 14:04:15 GMT-0500 (Central Daylight Time),430387.3000000119,015_o_m_d_a.png,O,m,1624,3,1,2491.300000011921,427896.0,7758,VNB,C,1
2,prac,1,1.0,2-Back,1.0,z,Mon Apr 13 2026 14:04:15 GMT-0500 (Central Daylight Time),433122.5,014_m_m_h_a.png,O,z,1881,4,1,2729.0999999940395,430393.40000000596,7758,VNB,C,2
2,prac,1,0.0,2-Back,0.0,m,Mon Apr 13 2026 14:04:15 GMT-0500 (Central Daylight Time),435987.2000000179,022_y_f_n_a.png,O,None,2004,5,1,2859.5,433127.7000000179,7758,VNB,C,3
2,prac,1,1.0,2-Back,0.0,z,Mon Apr 13 2026 14:04:15 GMT-0500 (Central Daylight Time),437671.0,015_o_m_h_a.png,O,m,898,6,1,1671.8999999761581,435999.10000002384,7758,VNB,C,4
3,prac,1,1.0,2-Back,1.0,z,Mon Apr 13 2026 14:04:15 GMT-0500 (Central Daylight Time),440084.3000000119,025_y_m_n_a.png,O,z,1575,7,1,2409.0,437675.3000000119,7758,VNB,C,5
4,prac,1,0.0,2-Back,1.0,m,Mon Apr 13 2026 14:04:15 GMT-0500 (Central Daylight Time),442784.40000000596,019_m_f_d_a.png,O,m,1819,8,1,2690.4000000059605,440094.0,7758,VNB,C,6
4,prac,1,0.0,2-Back,0.0,m,Mon Apr 13 2026 14:04:15 GMT-0500 (Central Daylight Time),445283.7000000179,012_o_f_d_a.png,O,z,1629,9,1,2492.5,442791.2000000179,7758,VNB,C,7
5,prac,1,0.0,2-Back,1.0,m,Mon Apr 13 2026 14:04:15 GMT-0500 (Central Daylight Time),447682.90000000596,014_m_m_h_a.png,O,m,1609,10,1,2387.7999999821186,445295.10000002384,7758,VNB,C,8
6,prac,1,1.0,2-Back,1.0,z,Mon Apr 13 2026 14:04:15 GMT-0500 (Central Daylight Time),449799.0,022_y_f_d_a.png,O,z,1231,11,1,2107.2999999821186,447691.7000000179,7758,VNB,C,9
7,prac,1,0.0,2-Back,1.0,m,Mon Apr 13 2026 14:04:15 GMT-0500 (Central Daylight Time),452350.60000002384,015_o_m_n_a.png,O,m,1683,12,1,2541.0,449809.60000002384,7758,VNB,C,10
0,test,1,0.0,2-Back,,,Mon Apr 13 2026 14:04:15 GMT-0500 (Central Daylight Time),452350.60000002384,025_y_m_h_a.png,O,space,1540,1,1,2541.0,449809.60000002384,7758,VNB,C,0
0,test,1,0.0,2-Back,,,Mon Apr 13 2026 14:04:15 GMT-0500 (Central Daylight Time),452350.60000002384,012_o_f_n_a.png,O,space,1540,2,1,2541.0,449809.60000002384,7758,VNB,C,0
1,test,1,0.0,2-Back,1.0,z,Mon Apr 13 2026 14:04:15 GMT-0500 (Central Daylight Time),466177.0,015_o_m_h_a.png,O,z,624,3,1,1644.8999999761581,464532.10000002384,7758,VNB,C,1
2,test,1,0.0,2-Back,1.0,m,Mon Apr 13 2026 14:04:15 GMT-0500 (Central Daylight Time),468709.2000000179,019_m_f_d_a.png,O,m,1509,4,1,2522.0999999940395,466187.10000002384,7758,VNB,C,2
2,test,1,1.0,2-Back,0.0,m,Mon Apr 13 2026 14:04:15 GMT-0500 (Central Daylight Time),471326.2000000179,025_y_m_n_a.png,O,z,1587,5,1,2615.300000011921,468710.90000000596,7758,VNB,C,3
3,test,1,0.0,2-Back,1.0,z,Mon Apr 13 2026 14:04:15 GMT-0500 (Central Daylight Time),473956.90000000596,022_y_f_d_a.png,O,z,1610,6,1,2621.4000000059605,471335.5,7758,VNB,C,4
4,test,1,0.0,2-Back,1.0,m,Mon Apr 13 2026 14:04:15 GMT-0500 (Central Daylight Time),476140.2000000179,014_m_m_h_a.png,O,m,1163,7,1,2181.5,473958.7000000179,7758,VNB,C,5
4,test,1,1.0,2-Back,0.0,m,Mon Apr 13 2026 14:04:15 GMT-0500 (Central Daylight Time),479038.7000000179,022_y_f_n_a.png,O,z,1874,8,1,2887.800000011921,476150.90000000596,7758,VNB,C,6
4,test,1,0.0,2-Back,0.0,z,Mon Apr 13 2026 14:04:15 GMT-0500 (Central Daylight Time),482056.8000000119,012_o_f_h_a.png,O,None,2001,9,1,3016.300000011921,479040.5,7758,VNB,C,7
5,test,1,0.0,2-Back,1.0,m,Mon Apr 13 2026 14:04:15 GMT-0500 (Central Daylight Time),484420.90000000596,015_o_m_d_a.png,O,m,1335,10,1,2353.9000000059605,482067.0,7758,VNB,C,8
5,test,1,1.0,2-Back,0.0,m,Mon Apr 13 2026 14:04:15 GMT-0500 (Central Daylight Time),487453.8000000119,014_m_m_d_a.png,O,None,2015,11,1,3027.9000000059605,484425.90000000596,7758,VNB,C,9
6,test,1,0.0,2-Back,1.0,m,Mon Apr 13 2026 14:04:15 GMT-0500 (Central Daylight Time),489569.8000000119,019_m_f_n_a.png,O,m,1090,12,1,2103.9000000059605,487465.90000000596,7758,VNB,C,10
7,test,1,0.0,2-Back,1.0,m,Mon Apr 13 2026 14:04:15 GMT-0500 (Central Daylight Time),492102.8000000119,022_y_f_h_a.png,O,m,1511,13,1,2530.0999999940395,489572.7000000179,7758,VNB,C,11
8,test,1,0.0,2-Back,1.0,z,Mon Apr 13 2026 14:04:15 GMT-0500 (Central Daylight Time),494101.3000000119,014_m_m_n_a.png,O,z,968,14,1,1989.300000011921,492112.0,7758,VNB,C,12
9,test,1,0.0,2-Back,1.0,m,Mon Apr 13 2026 14:04:15 GMT-0500 (Central Daylight Time),496284.5,025_y_m_d_a.png,O,m,1163,15,1,2180.199999988079,494104.3000000119,7758,VNB,C,13
9,test,1,1.0,2-Back,0.0,m,Mon Apr 13 2026 14:04:15 GMT-0500 (Central Daylight Time),498967.40000000596,019_m_f_h_a.png,O,z,1658,16,1,2679.5,496287.90000000596,7758,VNB,C,14
9,test,1,0.0,2-Back,0.0,z,Mon Apr 13 2026 14:04:15 GMT-0500 (Central Daylight Time),501633.8000000119,012_o_f_d_a.png,O,m,1649,17,1,2662.800000011921,498971.0,7758,VNB,C,15
9,test,1,0.0,2-Back,0.0,m,Mon Apr 13 2026 14:04:15 GMT-0500 (Central Daylight Time),504665.40000000596,015_o_m_n_a.png,O,None,2015,18,1,3022.5999999940395,501642.8000000119,7758,VNB,C,16
0,test,2,0.0,2-Back,,,Mon Apr 13 2026 14:04:15 GMT-0500 (Central Daylight Time),504665.40000000596,014_m_m_h_a.png,O,space,1086,1,1,3022.5999999940395,501642.8000000119,7758,VNB,C,0
0,test,2,0.0,2-Back,,,Mon Apr 13 2026 14:04:15 GMT-0500 (Central Daylight Time),504665.40000000596,022_y_f_n_a.png,O,space,1086,2,1,3022.5999999940395,501642.8000000119,7758,VNB,C,0
1,test,2,1.0,2-Back,1.0,z,Mon Apr 13 2026 14:04:15 GMT-0500 (Central Daylight Time),513197.2000000179,012_o_f_h_a.png,O,z,1204,3,1,2233.300000011921,510963.90000000596,7758,VNB,C,1
2,test,2,0.0,2-Back,1.0,m,Mon Apr 13 2026 14:04:15 GMT-0500 (Central Daylight Time),515295.0,015_o_m_d_a.png,O,m,1069,4,1,2091.2999999821186,513203.7000000179,7758,VNB,C,2
3,test,2,0.0,2-Back,1.0,m,Mon Apr 13 2026 14:04:15 GMT-0500 (Central Daylight Time),517695.5,019_m_f_d_a.png,O,m,1366,5,1,2396.7999999821186,515298.7000000179,7758,VNB,C,3
3,test,2,0.0,2-Back,0.0,m,Mon Apr 13 2026 14:04:15 GMT-0500 (Central Daylight Time),519842.8000000119,025_y_m_h_a.png,O,z,1129,6,1,2140.699999988079,517702.10000002384,7758,VNB,C,4
3,test,2,0.0,2-Back,0.0,m,Mon Apr 13 2026 14:04:15 GMT-0500 (Central Daylight Time),522458.90000000596,012_o_f_n_a.png,O,z,1596,7,1,2613.5999999940395,519845.3000000119,7758,VNB,C,5
3,test,2,1.0,2-Back,0.0,z,Mon Apr 13 2026 14:04:15 GMT-0500 (Central Daylight Time),524643.3000000119,015_o_m_h_a.png,O,m,1167,8,1,2175.300000011921,522468.0,7758,VNB,C,6
4,test,2,0.0,2-Back,1.0,m,Mon Apr 13 2026 14:04:15 GMT-0500 (Central Daylight Time),527258.5,022_y_f_d_a.png,O,m,1596,9,1,2612.0,524646.5,7758,VNB,C,7
4,test,2,0.0,2-Back,0.0,m,Mon Apr 13 2026 14:04:15 GMT-0500 (Central Daylight Time),529358.3000000119,025_y_m_d_a.png,O,z,1077,10,1,2090.5,527267.8000000119,7758,VNB,C,8
5,test,2,0.0,2-Back,1.0,m,Mon Apr 13 2026 14:04:15 GMT-0500 (Central Daylight Time),532222.900000006,014_m_m_n_a.png,O,m,1841,11,1,2861.699999988079,529361.2000000179,7758,VNB,C,9
5,test,2,0.0,2-Back,0.0,m,Mon Apr 13 2026 14:04:15 GMT-0500 (Central Daylight Time),534556.2000000179,019_m_f_h_a.png,O,z,1306,12,1,2328.0,532228.2000000179,7758,VNB,C,10
6,test,2,1.0,2-Back,1.0,z,Mon Apr 13 2026 14:04:15 GMT-0500 (Central Daylight Time),536922.0,015_o_m_n_a.png,O,z,1341,13,1,2363.0999999940395,534558.900000006,7758,VNB,C,11
7,test,2,0.0,2-Back,1.0,m,Mon Apr 13 2026 14:04:15 GMT-0500 (Central Daylight Time),539771.2000000179,012_o_f_d_a.png,O,m,1830,14,1,2841.0,536930.2000000179,7758,VNB,C,12
8,test,2,0.0,2-Back,1.0,m,Mon Apr 13 2026 14:04:15 GMT-0500 (Central Daylight Time),542252.1000000238,022_y_f_h_a.png,O,m,1450,15,1,2477.9000000059605,539774.2000000179,7758,VNB,C,13
8,test,2,0.0,2-Back,0.0,z,Mon Apr 13 2026 14:04:15 GMT-0500 (Central Daylight Time),544971.0,014_m_m_d_a.png,O,m,1693,16,1,2711.5999999940395,542259.400000006,7758,VNB,C,14
8,test,2,0.0,2-Back,0.0,m,Mon Apr 13 2026 14:04:15 GMT-0500 (Central Daylight Time),548002.2000000179,025_y_m_n_a.png,O,None,2016,17,1,3028.0,544974.2000000179,7758,VNB,C,15
8,test,2,1.0,2-Back,0.0,m,Mon Apr 13 2026 14:04:15 GMT-0500 (Central Daylight Time),550233.1000000238,019_m_f_n_a.png,O,z,1213,18,1,2219.100000023842,548014.0,7758,VNB,C,16
0,test,3,1.0,2-Back,,,Mon Apr 13 2026 14:04:15 GMT-0500 (Central Daylight Time),550233.1000000238,015_o_m_n_a.png,O,space,1005,1,1,2219.100000023842,548014.0,7758,VNB,C,0
0,test,3,1.0,2-Back,,,Mon Apr 13 2026 14:04:15 GMT-0500 (Central Daylight Time),550233.1000000238,012_o_f_d_a.png,O,space,1005,2,1,2219.100000023842,548014.0,7758,VNB,C,0
1,test,3,0.0,2-Back,1.0,m,Mon Apr 13 2026 14:04:15 GMT-0500 (Central Daylight Time),558249.2000000179,022_y_f_h_a.png,O,m,932,3,1,1964.5,556284.7000000179,7758,VNB,C,1
2,test,3,0.0,2-Back,1.0,z,Mon Apr 13 2026 14:04:15 GMT-0500 (Central Daylight Time),560081.5,019_m_f_d_a.png,O,z,800,4,1,1821.5,558260.0,7758,VNB,C,2
3,test,3,1.0,2-Back,1.0,m,Mon Apr 13 2026 14:04:15 GMT-0500 (Central Daylight Time),562582.900000006,025_y_m_n_a.png,O,m,1469,5,1,2497.4000000059605,560085.5,7758,VNB,C,3
4,test,3,0.0,2-Back,1.0,m,Mon Apr 13 2026 14:04:15 GMT-0500 (Central Daylight Time),564811.900000006,015_o_m_h_a.png,O,m,1212,6,1,2220.9000000059605,562591.0,7758,VNB,C,4
5,test,3,0.0,2-Back,1.0,z,Mon Apr 13 2026 14:04:15 GMT-0500 (Central Daylight Time),567227.6000000238,022_y_f_n_a.png,O,z,1386,7,1,2411.100000023842,564816.5,7758,VNB,C,5
5,test,3,1.0,2-Back,0.0,m,Mon Apr 13 2026 14:04:15 GMT-0500 (Central Daylight Time),569927.0,014_m_m_d_a.png,O,z,1674,8,1,2690.0999999940395,567236.900000006,7758,VNB,C,6
6,test,3,0.0,2-Back,1.0,m,Mon Apr 13 2026 14:04:15 GMT-0500 (Central Daylight Time),572213.3000000119,025_y_m_d_a.png,O,m,1265,9,1,2282.4000000059605,569930.900000006,7758,VNB,C,7
7,test,3,0.0,2-Back,1.0,m,Mon Apr 13 2026 14:04:15 GMT-0500 (Central Daylight Time),574375.6000000238,012_o_f_h_a.png,O,m,1141,10,1,2155.4000000059605,572220.2000000179,7758,VNB,C,8
8,test,3,1.0,2-Back,1.0,m,Mon Apr 13 2026 14:04:15 GMT-0500 (Central Daylight Time),577157.8000000119,019_m_f_n_a.png,O,m,1759,11,1,2780.0,574377.8000000119,7758,VNB,C,9
8,test,3,1.0,2-Back,0.0,z,Mon Apr 13 2026 14:04:15 GMT-0500 (Central Daylight Time),579291.1000000238,014_m_m_h_a.png,O,m,1105,12,1,2125.0,577166.1000000238,7758,VNB,C,10
8,test,3,0.0,2-Back,0.0,m,Mon Apr 13 2026 14:04:15 GMT-0500 (Central Daylight Time),581623.7000000179,022_y_f_d_a.png,O,z,1308,13,1,2328.2000000178814,579295.5,7758,VNB,C,11
8,test,3,0.0,2-Back,0.0,m,Mon Apr 13 2026 14:04:15 GMT-0500 (Central Daylight Time),584555.6000000238,012_o_f_n_a.png,O,z,1904,14,1,2922.0,581633.6000000238,7758,VNB,C,12
9,test,3,0.0,2-Back,1.0,z,Mon Apr 13 2026 14:04:15 GMT-0500 (Central Daylight Time),587488.400000006,015_o_m_d_a.png,O,z,1908,15,1,2929.5999999940395,584558.8000000119,7758,VNB,C,13
10,test,3,1.0,2-Back,1.0,m,Mon Apr 13 2026 14:04:15 GMT-0500 (Central Daylight Time),589755.2000000179,019_m_f_h_a.png,O,m,1238,16,1,2256.2000000178814,587499.0,7758,VNB,C,14
11,test,3,0.0,2-Back,1.0,m,Mon Apr 13 2026 14:04:15 GMT-0500 (Central Daylight Time),592538.6000000238,014_m_m_n_a.png,O,m,1758,17,1,2780.100000023842,589758.5,7758,VNB,C,15
12,test,3,0.0,2-Back,1.0,z,Mon Apr 13 2026 14:04:15 GMT-0500 (Central Daylight Time),594054.1000000238,025_y_m_h_a.png,O,z,486,18,1,1507.800000011921,592546.3000000119,7758,VNB,C,16
0,test,4,0.0,2-Back,,,Mon Apr 13 2026 14:04:15 GMT-0500 (Central Daylight Time),594054.1000000238,019_m_f_n_a.png,O,space,1234,1,1,1507.800000011921,592546.3000000119,7758,VNB,C,0
0,test,4,0.0,2-Back,,,Mon Apr 13 2026 14:04:15 GMT-0500 (Central Daylight Time),594054.1000000238,015_o_m_n_a.png,O,space,1234,2,1,1507.800000011921,592546.3000000119,7758,VNB,C,0
1,test,4,1.0,2-Back,1.0,m,Mon Apr 13 2026 14:04:15 GMT-0500 (Central Daylight Time),602666.900000006,025_y_m_h_a.png,O,m,1065,3,1,2076.4000000059605,600590.5,7758,VNB,C,1
2,test,4,1.0,2-Back,1.0,m,Mon Apr 13 2026 14:04:15 GMT-0500 (Central Daylight Time),605016.0,012_o_f_d_a.png,O,m,1317,4,1,2342.0,602674.0,7758,VNB,C,2
3,test,4,0.0,2-Back,1.0,z,Mon Apr 13 2026 14:04:15 GMT-0500 (Central Daylight Time),606765.2000000179,015_o_m_h_a.png,O,z,719,5,1,1747.2000000178814,605018.0,7758,VNB,C,3
3,test,4,0.0,2-Back,0.0,m,Mon Apr 13 2026 14:04:15 GMT-0500 (Central Daylight Time),609797.6000000238,014_m_m_n_a.png,O,None,2014,6,1,3021.600000023842,606776.0,7758,VNB,C,4
3,test,4,0.0,2-Back,0.0,m,Mon Apr 13 2026 14:04:15 GMT-0500 (Central Daylight Time),612648.1000000238,019_m_f_d_a.png,O,z,1817,7,1,2848.800000011921,609799.3000000119,7758,VNB,C,5
4,test,4,0.0,2-Back,1.0,z,Mon Apr 13 2026 14:04:15 GMT-0500 (Central Daylight Time),615329.5,022_y_f_n_a.png,O,z,1655,8,1,2672.7999999821186,612656.7000000179,7758,VNB,C,6
5,test,4,1.0,2-Back,1.0,m,Mon Apr 13 2026 14:04:15 GMT-0500 (Central Daylight Time),617611.7000000179,012_o_f_h_a.png,O,m,1263,9,1,2278.9000000059605,615332.8000000119,7758,VNB,C,7
6,test,4,0.0,2-Back,1.0,m,Mon Apr 13 2026 14:04:15 GMT-0500 (Central Daylight Time),620162.6000000238,014_m_m_h_a.png,O,m,1523,10,1,2545.5,617617.1000000238,7758,VNB,C,8
7,test,4,0.0,2-Back,1.0,m,Mon Apr 13 2026 14:04:15 GMT-0500 (Central Daylight Time),622494.3000000119,022_y_f_d_a.png,O,m,1301,11,1,2329.0999999940395,620165.2000000179,7758,VNB,C,9
8,test,4,0.0,2-Back,1.0,m,Mon Apr 13 2026 14:04:15 GMT-0500 (Central Daylight Time),624526.5,025_y_m_n_a.png,O,m,1008,12,1,2022.3999999761581,622504.1000000238,7758,VNB,C,10
9,test,4,0.0,2-Back,1.0,z,Mon Apr 13 2026 14:04:15 GMT-0500 (Central Daylight Time),626326.2000000179,015_o_m_d_a.png,O,z,768,13,1,1798.0,624528.2000000179,7758,VNB,C,11
10,test,4,1.0,2-Back,1.0,m,Mon Apr 13 2026 14:04:15 GMT-0500 (Central Daylight Time),629008.5,019_m_f_h_a.png,O,m,1658,14,1,2678.7999999821186,626329.7000000179,7758,VNB,C,12
11,test,4,1.0,2-Back,1.0,m,Mon Apr 13 2026 14:04:15 GMT-0500 (Central Daylight Time),631507.6000000238,022_y_f_h_a.png,O,m,1470,15,1,2497.4000000059605,629010.2000000179,7758,VNB,C,13
12,test,4,0.0,2-Back,1.0,m,Mon Apr 13 2026 14:04:15 GMT-0500 (Central Daylight Time),633841.2000000179,012_o_f_n_a.png,O,m,1309,16,1,2326.4000000059605,631514.8000000119,7758,VNB,C,14
13,test,4,0.0,2-Back,1.0,m,Mon Apr 13 2026 14:04:15 GMT-0500 (Central Daylight Time),636023.2000000179,025_y_m_d_a.png,O,m,1152,17,1,2179.4000000059605,633843.8000000119,7758,VNB,C,15
14,test,4,1.0,2-Back,1.0,m,Mon Apr 13 2026 14:04:15 GMT-0500 (Central Daylight Time),638190.1000000238,014_m_m_d_a.png,O,m,1137,18,1,2159.600000023842,636030.5,7758,VNB,C,16
0,test,5,1.0,2-Back,,,Mon Apr 13 2026 14:04:15 GMT-0500 (Central Daylight Time),638190.1000000238,022_y_f_d_a.png,O,space,1001,1,1,2159.600000023842,636030.5,7758,VNB,C,0
0,test,5,1.0,2-Back,,,Mon Apr 13 2026 14:04:15 GMT-0500 (Central Daylight Time),638190.1000000238,012_o_f_h_a.png,O,space,1001,2,1,2159.600000023842,636030.5,7758,VNB,C,0
1,test,5,1.0,2-Back,1.0,z,Mon Apr 13 2026 14:04:15 GMT-0500 (Central Daylight Time),646052.900000006,015_o_m_d_a.png,O,z,609,3,1,1631.2999999821186,644421.6000000238,7758,VNB,C,1
2,test,5,1.0,2-Back,1.0,m,Mon Apr 13 2026 14:04:15 GMT-0500 (Central Daylight Time),648220.6000000238,019_m_f_n_a.png,O,m,1137,4,1,2158.2000000178814,646062.400000006,7758,VNB,C,2
2,test,5,0.0,2-Back,0.0,m,Mon Apr 13 2026 14:04:15 GMT-0500 (Central Daylight Time),650170.0,014_m_m_h_a.png,O,z,919,5,1,1947.199999988079,648222.8000000119,7758,VNB,C,3
3,test,5,0.0,2-Back,1.0,z,Mon Apr 13 2026 14:04:15 GMT-0500 (Central Daylight Time),652635.7000000179,022_y_f_n_a.png,O,z,1438,6,1,2457.7000000178814,650178.0,7758,VNB,C,4
4,test,5,0.0,2-Back,1.0,m,Mon Apr 13 2026 14:04:15 GMT-0500 (Central Daylight Time),654617.900000006,012_o_f_d_a.png,O,m,967,7,1,1979.0999999940395,652638.8000000119,7758,VNB,C,5
4,test,5,0.0,2-Back,0.0,m,Mon Apr 13 2026 14:04:15 GMT-0500 (Central Daylight Time),656834.1000000238,015_o_m_h_a.png,O,z,1174,8,1,2200.0,654634.1000000238,7758,VNB,C,6
4,test,5,1.0,2-Back,0.0,z,Mon Apr 13 2026 14:04:15 GMT-0500 (Central Daylight Time),658748.900000006,019_m_f_d_a.png,O,m,885,9,1,1911.7999999821186,656837.1000000238,7758,VNB,C,7
5,test,5,0.0,2-Back,1.0,m,Mon Apr 13 2026 14:04:15 GMT-0500 (Central Daylight Time),661031.5,025_y_m_n_a.png,O,m,1249,10,1,2270.899999976158,658760.6000000238,7758,VNB,C,8
5,test,5,0.0,2-Back,0.0,m,Mon Apr 13 2026 14:04:15 GMT-0500 (Central Daylight Time),662899.400000006,014_m_m_n_a.png,O,z,850,11,1,1864.5999999940395,661034.8000000119,7758,VNB,C,9
6,test,5,0.0,2-Back,1.0,m,Mon Apr 13 2026 14:04:15 GMT-0500 (Central Daylight Time),664765.1000000238,022_y_f_h_a.png,O,m,844,12,1,1855.7000000178814,662909.400000006,7758,VNB,C,10
6,test,5,0.0,2-Back,0.0,m,Mon Apr 13 2026 14:04:15 GMT-0500 (Central Daylight Time),666913.900000006,025_y_m_d_a.png,O,z,1116,13,1,2146.199999988079,664767.7000000179,7758,VNB,C,11
6,test,5,1.0,2-Back,0.0,z,Mon Apr 13 2026 14:04:15 GMT-0500 (Central Daylight Time),669045.900000006,019_m_f_h_a.png,O,m,1100,14,1,2121.9000000059605,666924.0,7758,VNB,C,12
7,test,5,0.0,2-Back,1.0,m,Mon Apr 13 2026 14:04:15 GMT-0500 (Central Daylight Time),671045.8000000119,015_o_m_n_a.png,O,m,977,15,1,1998.0999999940395,669047.7000000179,7758,VNB,C,13
8,test,5,0.0,2-Back,1.0,m,Mon Apr 13 2026 14:04:15 GMT-0500 (Central Daylight Time),673144.1000000238,014_m_m_d_a.png,O,m,1075,16,1,2090.2000000178814,671053.900000006,7758,VNB,C,14
9,test,5,0.0,2-Back,1.0,z,Mon Apr 13 2026 14:04:15 GMT-0500 (Central Daylight Time),675044.8000000119,012_o_f_n_a.png,O,z,879,17,1,1898.300000011921,673146.5,7758,VNB,C,15
10,test,5,1.0,2-Back,1.0,m,Mon Apr 13 2026 14:04:15 GMT-0500 (Central Daylight Time),677344.3000000119,025_y_m_h_a.png,O,m,1267,18,1,2291.800000011921,675052.5,7758,VNB,C,16
