Q,Q1,Q2,Q3,Q4,acc_sum,block,block_c,correct,correct_response,datetime,endtime,project,response,response_time,row_sel,session_number,squiggle1,squiggle1x,squiggle1y,squiggle2,squiggle2x,squiggle2y,squiggle3,squiggle3x,squiggle3y,squiggle4,squiggle4x,squiggle4y,start_end,starttime,subject_id,target_congruent,task,task_vers,testsquiggle,testsquigglex,testsquiggley,time_practice_delay,time_practice_fixation,time_practice_stimuli,time_practice_study,time_test_delay,time_test_fixation,time_test_stimuli,time_test_study,trial
1,1,0,0,0,1,prac,1,1,z,Tue Nov 25 2025 14:11:45 GMT-0600 (Central Standard Time),158551.40000000596,O,z,1974,1,1,66.bmp,-120,-120,67.bmp,120,-120,68.bmp,-120,120,69.bmp,120,120,10792.800000011921,147758.59999999404,7252,yes,SM,C,66.bmp,-120,-120,148599,142571,150617,144585,,,,,1
3,0,0,1,0,2,prac,1,1,m,Tue Nov 25 2025 14:11:45 GMT-0600 (Central Standard Time),168650.19999998808,O,m,1269,2,1,70.bmp,-120,-120,71.bmp,120,-120,72.bmp,-120,120,73.bmp,120,120,10095.90000000596,158554.29999998212,7252,no,SM,C,73.bmp,-120,120,159394,153367,161411,155379,,,,,2
4,0,0,0,1,2,prac,1,0,m,Tue Nov 25 2025 14:11:45 GMT-0600 (Central Standard Time),179477.90000000596,O,None,2014,3,1,74.bmp,-120,-120,75.bmp,120,-120,76.bmp,-120,120,77.bmp,120,120,10822.600000023842,168655.29999998212,7252,no,SM,C,74.bmp,120,120,169491,163468,171509,165477,,,,,3
2,0,1,0,0,3,prac,1,1,z,Tue Nov 25 2025 14:11:45 GMT-0600 (Central Standard Time),190274.59999999404,O,z,1973,4,1,78.bmp,-120,-120,79.bmp,120,-120,80.bmp,-120,120,81.bmp,120,120,10791.199999988079,179483.40000000596,7252,yes,SM,C,79.bmp,120,-120,180322,174296,182338,176307,,,,,4
3,0,0,1,0,4,prac,1,1,z,Tue Nov 25 2025 14:11:45 GMT-0600 (Central Standard Time),200372.09999999404,O,z,1280,5,1,82.bmp,-120,-120,83.bmp,120,-120,84.bmp,-120,120,85.bmp,120,120,10093.09999999404,190279.0,7252,yes,SM,C,84.bmp,-120,120,191118,185091,193134,187102,,,,,5
1,1,0,0,0,4,prac,1,0,m,Tue Nov 25 2025 14:11:45 GMT-0600 (Central Standard Time),210119.09999999404,O,z,941,6,1,86.bmp,-120,-120,87.bmp,120,-120,88.bmp,-120,120,89.bmp,120,120,9743.300000011921,200375.79999998212,7252,no,SM,C,89.bmp,-120,-120,201215,195188,203217,197201,,,,,6
2,0,1,0,0,4,prac,1,0,m,Tue Nov 25 2025 14:11:45 GMT-0600 (Central Standard Time),220931.79999998212,O,None,2014,7,1,90.bmp,-120,-120,91.bmp,120,-120,92.bmp,-120,120,93.bmp,120,120,10805.399999976158,210126.40000000596,7252,no,SM,C,90.bmp,120,-120,210961,204939,212963,206946,,,,,7
4,0,0,0,1,4,prac,1,0,z,Tue Nov 25 2025 14:11:45 GMT-0600 (Central Standard Time),231760.90000000596,O,None,2013,8,1,94.bmp,-120,-120,95.bmp,120,-120,96.bmp,-120,120,97.bmp,120,120,10822.700000017881,220938.19999998808,7252,yes,SM,C,97.bmp,120,120,221775,215750,223793,217760,,,,,8
4,0,0,0,1,1,test,1,1,m,Tue Nov 25 2025 14:11:45 GMT-0600 (Central Standard Time),248755.59999999404,O,m,1298,1,1,98.bmp,-120,-120,99.bmp,120,-120,100.bmp,-120,120,93.bmp,120,120,9359.800000011921,239395.79999998212,7252,yes,SM,C,100.bmp,120,120,221775,215750,223793,217760,240238.0,234208.0,242253.0,236222.0,1
2,0,1,0,0,1,test,1,0,m,Tue Nov 25 2025 14:11:45 GMT-0600 (Central Standard Time),258818.90000000596,O,None,2015,2,1,51.bmp,-120,-120,52.bmp,120,-120,53.bmp,-120,120,54.bmp,120,120,10057.600000023842,248761.29999998212,7252,yes,SM,C,53.bmp,120,-120,221775,215750,223793,217760,249599.0,243573.0,251616.0,245586.0,2
1,1,0,0,0,2,test,1,1,z,Tue Nov 25 2025 14:11:45 GMT-0600 (Central Standard Time),267765.40000000596,O,z,895,3,1,55.bmp,-120,-120,56.bmp,120,-120,57.bmp,-120,120,58.bmp,120,120,8942.300000011921,258823.09999999404,7252,yes,SM,C,55.bmp,-120,-120,221775,215750,223793,217760,259663.0,253635.0,261680.0,255647.0,3
3,0,0,1,0,3,test,1,1,m,Tue Nov 25 2025 14:11:45 GMT-0600 (Central Standard Time),277180.40000000596,O,m,1365,4,1,59.bmp,-120,-120,60.bmp,120,-120,61.bmp,-120,120,62.bmp,120,120,9411.40000000596,267769.0,7252,yes,SM,C,59.bmp,-120,120,221775,215750,223793,217760,268612.0,262581.0,270627.0,264596.0,4
2,0,1,0,0,4,test,1,1,z,Tue Nov 25 2025 14:11:45 GMT-0600 (Central Standard Time),286493.59999999404,O,z,1272,5,1,63.bmp,-120,-120,64.bmp,120,-120,65.bmp,-120,120,66.bmp,120,120,9309.800000011921,277183.7999999821,7252,yes,SM,C,64.bmp,120,-120,221775,215750,223793,217760,278009.0,271996.0,280023.0,274008.0,5
3,0,0,1,0,5,test,1,1,z,Tue Nov 25 2025 14:11:45 GMT-0600 (Central Standard Time),296507.5,O,z,1959,6,1,67.bmp,-120,-120,68.bmp,120,-120,69.bmp,-120,120,70.bmp,120,120,10012.0,286495.5,7252,yes,SM,C,69.bmp,-120,120,221775,215750,223793,217760,287338.0,281308.0,289354.0,283322.0,6
4,0,0,0,1,6,test,1,1,z,Tue Nov 25 2025 14:11:45 GMT-0600 (Central Standard Time),305720.2999999821,O,z,1161,7,1,71.bmp,-120,-120,72.bmp,120,-120,73.bmp,-120,120,74.bmp,120,120,9210.199999988079,296510.09999999404,7252,yes,SM,C,74.bmp,120,120,221775,215750,223793,217760,297352.0,291322.0,299367.0,293335.0,7
2,0,1,0,0,6,test,1,0,m,Tue Nov 25 2025 14:11:45 GMT-0600 (Central Standard Time),315784.59999999404,O,None,2014,8,1,75.bmp,-120,-120,76.bmp,120,-120,77.bmp,-120,120,78.bmp,120,120,10060.199999988079,305724.40000000596,7252,yes,SM,C,75.bmp,120,-120,221775,215750,223793,217760,306565.0,300537.0,308582.0,302551.0,8
3,0,0,1,0,7,test,1,1,m,Tue Nov 25 2025 14:11:45 GMT-0600 (Central Standard Time),324931.90000000596,O,m,1092,9,1,79.bmp,-120,-120,80.bmp,120,-120,81.bmp,-120,120,82.bmp,120,120,9142.5,315789.40000000596,7252,yes,SM,C,80.bmp,-120,120,221775,215750,223793,217760,316629.0,310601.0,318644.0,312612.0,9
4,0,0,0,1,8,test,1,1,z,Tue Nov 25 2025 14:11:45 GMT-0600 (Central Standard Time),334128.59999999404,O,z,1138,10,1,87.bmp,-120,-120,88.bmp,120,-120,89.bmp,-120,120,90.bmp,120,120,9193.699999988079,324934.90000000596,7252,yes,SM,C,90.bmp,120,120,221775,215750,223793,217760,325775.0,319748.0,327791.0,321760.0,10
3,0,0,1,0,9,test,1,1,z,Tue Nov 25 2025 14:11:45 GMT-0600 (Central Standard Time),344008.40000000596,O,z,1827,11,1,83.bmp,-120,-120,84.bmp,120,-120,85.bmp,-120,120,86.bmp,120,120,9875.300000011921,334133.09999999404,7252,yes,SM,C,85.bmp,-120,120,221775,215750,223793,217760,334973.0,328946.0,336988.0,330957.0,11
2,0,1,0,0,10,test,1,1,m,Tue Nov 25 2025 14:11:45 GMT-0600 (Central Standard Time),353738.59999999404,O,m,1668,12,1,91.bmp,-120,-120,92.bmp,120,-120,93.bmp,-120,120,94.bmp,120,120,9725.699999988079,344012.90000000596,7252,yes,SM,C,91.bmp,120,-120,221775,215750,223793,217760,344853.0,338825.0,346868.0,340836.0,12
3,0,0,1,0,10,test,1,0,m,Tue Nov 25 2025 14:11:45 GMT-0600 (Central Standard Time),363786.09999999404,O,None,2015,13,1,95.bmp,-120,-120,96.bmp,120,-120,97.bmp,-120,120,98.bmp,120,120,10041.90000000596,353744.1999999881,7252,yes,SM,C,96.bmp,-120,120,221775,215750,223793,217760,354568.0,348556.0,356583.0,350567.0,13
1,1,0,0,0,11,test,1,1,z,Tue Nov 25 2025 14:11:45 GMT-0600 (Central Standard Time),372750.7999999821,O,z,928,14,1,99.bmp,-120,-120,100.bmp,120,-120,54.bmp,-120,120,51.bmp,120,120,8959.59999999404,363791.1999999881,7252,yes,SM,C,99.bmp,-120,-120,221775,215750,223793,217760,364629.0,358603.0,366631.0,360614.0,14
4,0,0,0,1,12,test,1,1,m,Tue Nov 25 2025 14:11:45 GMT-0600 (Central Standard Time),382612.59999999404,O,m,1805,15,1,60.bmp,-120,-120,61.bmp,120,-120,62.bmp,-120,120,63.bmp,120,120,9856.199999988079,372756.40000000596,7252,yes,SM,C,61.bmp,120,120,221775,215750,223793,217760,373594.0,367569.0,375609.0,369578.0,15
1,1,0,0,0,13,test,1,1,m,Tue Nov 25 2025 14:11:45 GMT-0600 (Central Standard Time),392027.7999999821,O,m,1358,16,1,52.bmp,-120,-120,53.bmp,120,-120,54.bmp,-120,120,55.bmp,120,120,9411.5,382616.2999999821,7252,yes,SM,C,55.bmp,-120,-120,221775,215750,223793,217760,383458.0,377429.0,385473.0,379442.0,16
3,0,0,1,0,14,test,1,1,m,Tue Nov 25 2025 14:11:45 GMT-0600 (Central Standard Time),401206.09999999404,O,m,1128,17,1,72.bmp,-120,-120,73.bmp,120,-120,74.bmp,-120,120,75.bmp,120,120,9175.59999999404,392030.5,7252,yes,SM,C,72.bmp,-120,120,221775,215750,223793,217760,392871.0,386843.0,394887.0,388855.0,17
1,1,0,0,0,15,test,1,1,z,Tue Nov 25 2025 14:11:45 GMT-0600 (Central Standard Time),410389.0,O,z,1135,18,1,56.bmp,-120,-120,57.bmp,120,-120,58.bmp,-120,120,59.bmp,120,120,9180.700000017881,401208.2999999821,7252,yes,SM,C,56.bmp,-120,-120,221775,215750,223793,217760,402051.0,396020.0,404066.0,398036.0,18
2,0,1,0,0,16,test,1,1,z,Tue Nov 25 2025 14:11:45 GMT-0600 (Central Standard Time),419518.0,O,z,1079,19,1,76.bmp,-120,-120,77.bmp,120,-120,78.bmp,-120,120,79.bmp,120,120,9126.200000017881,410391.7999999821,7252,yes,SM,C,77.bmp,120,-120,221775,215750,223793,217760,411233.0,405204.0,413247.0,407217.0,19
3,0,0,1,0,17,test,1,1,z,Tue Nov 25 2025 14:11:45 GMT-0600 (Central Standard Time),428231.09999999404,O,z,653,20,1,80.bmp,-120,-120,81.bmp,120,-120,82.bmp,-120,120,83.bmp,120,120,8710.699999988079,419520.40000000596,7252,yes,SM,C,82.bmp,-120,120,221775,215750,223793,217760,420362.0,414333.0,422377.0,416348.0,20
1,1,0,0,0,18,test,1,1,m,Tue Nov 25 2025 14:11:45 GMT-0600 (Central Standard Time),437228.1999999881,O,m,937,21,1,64.bmp,-120,-120,65.bmp,120,-120,66.bmp,-120,120,67.bmp,120,120,8994.90000000596,428233.2999999821,7252,yes,SM,C,66.bmp,-120,-120,221775,215750,223793,217760,429075.0,423046.0,431093.0,425060.0,21
4,0,0,0,1,19,test,1,1,z,Tue Nov 25 2025 14:11:45 GMT-0600 (Central Standard Time),446594.09999999404,O,z,1325,22,1,68.bmp,-120,-120,69.bmp,120,-120,70.bmp,-120,120,71.bmp,120,120,9363.800000011921,437230.2999999821,7252,yes,SM,C,71.bmp,120,120,221775,215750,223793,217760,438057.0,432043.0,440074.0,434056.0,22
1,1,0,0,0,20,test,1,1,m,Tue Nov 25 2025 14:11:45 GMT-0600 (Central Standard Time),455440.2999999821,O,m,792,23,1,84.bmp,-120,-120,85.bmp,120,-120,86.bmp,-120,120,87.bmp,120,120,8843.59999999404,446596.6999999881,7252,yes,SM,C,87.bmp,-120,-120,221775,215750,223793,217760,447436.0,441409.0,449454.0,443421.0,23
2,0,1,0,0,21,test,1,1,z,Tue Nov 25 2025 14:11:45 GMT-0600 (Central Standard Time),465037.09999999404,O,z,1550,24,1,92.bmp,-120,-120,93.bmp,120,-120,94.bmp,-120,120,95.bmp,120,120,9594.5,455442.59999999404,7252,yes,SM,C,93.bmp,120,-120,221775,215750,223793,217760,456283.0,450255.0,458299.0,452269.0,24
4,0,0,0,1,22,test,1,1,m,Tue Nov 25 2025 14:11:45 GMT-0600 (Central Standard Time),474667.09999999404,O,m,1574,25,1,96.bmp,-120,-120,97.bmp,120,-120,98.bmp,-120,120,99.bmp,120,120,9625.90000000596,465041.1999999881,7252,yes,SM,C,98.bmp,120,120,221775,215750,223793,217760,465881.0,459853.0,467897.0,461865.0,25
1,1,0,0,0,23,test,1,1,z,Tue Nov 25 2025 14:11:45 GMT-0600 (Central Standard Time),483948.1999999881,O,z,1223,26,1,88.bmp,-120,-120,89.bmp,120,-120,90.bmp,-120,120,91.bmp,120,120,9274.40000000596,474673.7999999821,7252,yes,SM,C,88.bmp,-120,-120,221775,215750,223793,217760,475511.0,469486.0,477529.0,471495.0,26
4,0,0,0,1,23,test,1,0,z,Tue Nov 25 2025 14:11:45 GMT-0600 (Central Standard Time),494011.09999999404,O,None,2015,27,1,100.bmp,-120,-120,61.bmp,120,-120,51.bmp,-120,120,52.bmp,120,120,10055.5,483955.59999999404,7252,yes,SM,C,52.bmp,120,120,221775,215750,223793,217760,484791.0,478768.0,486808.0,480776.0,27
3,0,0,1,0,24,test,1,1,m,Tue Nov 25 2025 14:11:45 GMT-0600 (Central Standard Time),503491.6999999881,O,m,1425,28,1,53.bmp,-120,-120,54.bmp,120,-120,55.bmp,-120,120,56.bmp,120,120,9475.299999982119,494016.40000000596,7252,yes,SM,C,53.bmp,-120,120,221775,215750,223793,217760,494854.0,488829.0,496871.0,490842.0,28
2,0,1,0,0,25,test,1,1,z,Tue Nov 25 2025 14:11:45 GMT-0600 (Central Standard Time),512605.0,O,z,1057,29,1,57.bmp,-120,-120,58.bmp,120,-120,59.bmp,-120,120,60.bmp,120,120,9108.800000011921,503496.1999999881,7252,yes,SM,C,58.bmp,120,-120,221775,215750,223793,217760,504335.0,498308.0,506351.0,500322.0,29
3,0,0,1,0,26,test,1,1,z,Tue Nov 25 2025 14:11:45 GMT-0600 (Central Standard Time),521504.6999999881,O,z,850,30,1,61.bmp,-120,-120,62.bmp,120,-120,63.bmp,-120,120,64.bmp,120,120,8896.5,512608.1999999881,7252,yes,SM,C,63.bmp,-120,120,221775,215750,223793,217760,513450.0,507420.0,515465.0,509434.0,30
1,1,0,0,0,27,test,1,1,z,Tue Nov 25 2025 14:11:45 GMT-0600 (Central Standard Time),530699.099999994,O,z,1141,31,1,65.bmp,-120,-120,66.bmp,120,-120,67.bmp,-120,120,68.bmp,120,120,9187.199999988079,521511.90000000596,7252,yes,SM,C,65.bmp,-120,-120,221775,215750,223793,217760,522345.0,516325.0,524363.0,518330.0,31
2,0,1,0,0,28,test,1,1,m,Tue Nov 25 2025 14:11:45 GMT-0600 (Central Standard Time),539662.7999999821,O,m,911,32,1,69.bmp,-120,-120,70.bmp,120,-120,71.bmp,-120,120,72.bmp,120,120,8961.0,530701.7999999821,7252,yes,SM,C,69.bmp,120,-120,221775,215750,223793,217760,531543.0,525514.0,533560.0,527528.0,32
4,0,0,0,1,29,test,1,1,z,Tue Nov 25 2025 14:11:45 GMT-0600 (Central Standard Time),549511.7999999821,O,z,1799,33,1,81.bmp,-120,-120,82.bmp,120,-120,83.bmp,-120,120,84.bmp,120,120,9846.09999999404,539665.6999999881,7252,yes,SM,C,84.bmp,120,120,221775,215750,223793,217760,540507.0,534478.0,542523.0,536494.0,33
2,0,1,0,0,30,test,1,1,z,Tue Nov 25 2025 14:11:45 GMT-0600 (Central Standard Time),558641.0,O,z,1067,34,1,73.bmp,-120,-120,74.bmp,120,-120,75.bmp,-120,120,76.bmp,120,120,9126.300000011921,549514.6999999881,7252,yes,SM,C,74.bmp,120,-120,221775,215750,223793,217760,550354.0,544327.0,552372.0,546340.0,34
4,0,0,0,1,31,test,1,1,m,Tue Nov 25 2025 14:11:45 GMT-0600 (Central Standard Time),567821.6999999881,O,m,1122,35,1,77.bmp,-120,-120,78.bmp,120,-120,79.bmp,-120,120,80.bmp,120,120,9176.5,558645.1999999881,7252,yes,SM,C,79.bmp,120,120,221775,215750,223793,217760,559484.0,553458.0,561502.0,555469.0,35
3,0,0,1,0,31,test,1,0,m,Tue Nov 25 2025 14:11:45 GMT-0600 (Central Standard Time),576736.1999999881,O,z,864,36,1,85.bmp,-120,-120,86.bmp,120,-120,87.bmp,-120,120,88.bmp,120,120,8912.199999988079,567824.0,7252,yes,SM,C,85.bmp,-120,120,221775,215750,223793,217760,568664.0,562636.0,570680.0,564649.0,36
1,1,0,0,0,31,test,1,0,m,Tue Nov 25 2025 14:11:45 GMT-0600 (Central Standard Time),586149.099999994,O,z,1357,37,1,89.bmp,-120,-120,90.bmp,120,-120,91.bmp,-120,120,92.bmp,120,120,9406.800000011921,576742.2999999821,7252,yes,SM,C,90.bmp,-120,-120,221775,215750,223793,217760,577578.0,571555.0,579594.0,573565.0,37
2,0,1,0,0,32,test,1,1,m,Tue Nov 25 2025 14:11:45 GMT-0600 (Central Standard Time),595161.900000006,O,m,951,38,1,93.bmp,-120,-120,94.bmp,120,-120,95.bmp,-120,120,96.bmp,120,120,9009.600000023842,586152.2999999821,7252,yes,SM,C,95.bmp,120,-120,221775,215750,223793,217760,586992.0,580965.0,589008.0,582977.0,38
4,0,0,0,1,33,test,1,1,z,Tue Nov 25 2025 14:11:45 GMT-0600 (Central Standard Time),604542.0,O,z,1345,39,1,97.bmp,-120,-120,98.bmp,120,-120,99.bmp,-120,120,100.bmp,120,120,9374.90000000596,595167.099999994,7252,yes,SM,C,100.bmp,120,120,221775,215750,223793,217760,596005.0,589979.0,598006.0,591991.0,39
3,0,0,1,0,34,test,1,1,m,Tue Nov 25 2025 14:11:45 GMT-0600 (Central Standard Time),614141.2999999821,O,m,1550,40,1,54.bmp,-120,-120,55.bmp,120,-120,56.bmp,-120,120,57.bmp,120,120,9594.699999988079,604546.599999994,7252,yes,SM,C,55.bmp,-120,120,221775,215750,223793,217760,605386.0,599359.0,607402.0,601371.0,40
1,1,0,0,0,35,test,1,1,z,Tue Nov 25 2025 14:11:45 GMT-0600 (Central Standard Time),623303.2999999821,O,z,1111,41,1,58.bmp,-120,-120,59.bmp,120,-120,60.bmp,-120,120,61.bmp,120,120,9157.899999976158,614145.400000006,7252,yes,SM,C,58.bmp,-120,-120,221775,215750,223793,217760,614983.0,608959.0,617000.0,610968.0,41
4,0,0,0,1,36,test,1,1,z,Tue Nov 25 2025 14:11:45 GMT-0600 (Central Standard Time),632917.900000006,O,z,1557,42,1,62.bmp,-120,-120,63.bmp,120,-120,64.bmp,-120,120,65.bmp,120,120,9612.40000000596,623305.5,7252,yes,SM,C,65.bmp,120,120,221775,215750,223793,217760,624146.0,618118.0,626163.0,620132.0,42
1,1,0,0,0,37,test,1,1,z,Tue Nov 25 2025 14:11:45 GMT-0600 (Central Standard Time),641997.5,O,z,1037,43,1,66.bmp,-120,-120,67.bmp,120,-120,68.bmp,-120,120,69.bmp,120,120,9077.59999999404,632919.900000006,7252,yes,SM,C,66.bmp,-120,-120,221775,215750,223793,217760,633761.0,627732.0,635762.0,629745.0,43
4,0,0,0,1,38,test,1,1,m,Tue Nov 25 2025 14:11:45 GMT-0600 (Central Standard Time),651461.099999994,O,m,1416,44,1,54.bmp,-120,-120,51.bmp,120,-120,52.bmp,-120,120,53.bmp,120,120,9461.199999988079,641999.900000006,7252,yes,SM,C,54.bmp,120,120,221775,215750,223793,217760,642840.0,636812.0,644857.0,638826.0,44
1,1,0,0,0,39,test,1,1,m,Tue Nov 25 2025 14:11:45 GMT-0600 (Central Standard Time),660523.1999999881,O,m,1004,45,1,78.bmp,-120,-120,79.bmp,120,-120,80.bmp,-120,120,81.bmp,120,120,9060.09999999404,651463.099999994,7252,yes,SM,C,81.bmp,-120,-120,221775,215750,223793,217760,652305.0,646275.0,654322.0,648289.0,45
1,1,0,0,0,40,test,1,1,m,Tue Nov 25 2025 14:11:45 GMT-0600 (Central Standard Time),669672.2999999821,O,m,1095,46,1,70.bmp,-120,-120,71.bmp,120,-120,72.bmp,-120,120,73.bmp,120,120,9145.199999988079,660527.099999994,7252,yes,SM,C,71.bmp,-120,-120,221775,215750,223793,217760,661368.0,655339.0,663384.0,657354.0,46
3,0,0,1,0,40,test,1,0,z,Tue Nov 25 2025 14:11:45 GMT-0600 (Central Standard Time),678735.400000006,O,m,1011,47,1,74.bmp,-120,-120,75.bmp,120,-120,76.bmp,-120,120,77.bmp,120,120,9059.800000011921,669675.599999994,7252,yes,SM,C,76.bmp,-120,120,221775,215750,223793,217760,670516.0,664488.0,672533.0,666501.0,47
3,0,0,1,0,41,test,1,1,z,Tue Nov 25 2025 14:11:45 GMT-0600 (Central Standard Time),688383.2999999821,O,z,1589,48,1,90.bmp,-120,-120,91.bmp,120,-120,92.bmp,-120,120,93.bmp,120,120,9644.59999999404,678738.6999999881,7252,yes,SM,C,92.bmp,-120,120,221775,215750,223793,217760,679580.0,673551.0,681595.0,675564.0,48
2,0,1,0,0,41,test,1,0,z,Tue Nov 25 2025 14:11:45 GMT-0600 (Central Standard Time),698445.6999999881,O,None,2014,49,1,86.bmp,-120,-120,87.bmp,120,-120,88.bmp,-120,120,89.bmp,120,120,10059.0,688386.6999999881,7252,yes,SM,C,87.bmp,120,-120,221775,215750,223793,217760,689226.0,683199.0,691244.0,685212.0,49
3,0,0,1,0,42,test,1,1,m,Tue Nov 25 2025 14:11:45 GMT-0600 (Central Standard Time),707925.5,O,m,1429,50,1,82.bmp,-120,-120,83.bmp,120,-120,84.bmp,-120,120,85.bmp,120,120,9475.09999999404,698450.400000006,7252,yes,SM,C,82.bmp,-120,120,221775,215750,223793,217760,699289.0,693263.0,701306.0,695275.0,50
2,0,1,0,0,43,test,1,1,z,Tue Nov 25 2025 14:11:45 GMT-0600 (Central Standard Time),717074.599999994,O,z,1103,51,1,94.bmp,-120,-120,95.bmp,120,-120,96.bmp,-120,120,97.bmp,120,120,9145.800000011921,707928.7999999821,7252,yes,SM,C,95.bmp,120,-120,221775,215750,223793,217760,708758.0,702741.0,710769.0,704755.0,51
4,0,0,0,1,44,test,1,1,m,Tue Nov 25 2025 14:11:45 GMT-0600 (Central Standard Time),726270.0,O,m,1145,52,1,98.bmp,-120,-120,99.bmp,120,-120,100.bmp,-120,120,81.bmp,120,120,9192.300000011921,717077.6999999881,7252,yes,SM,C,98.bmp,120,120,221775,215750,223793,217760,717917.0,711890.0,719934.0,713903.0,52
3,0,0,1,0,45,test,1,1,z,Tue Nov 25 2025 14:11:45 GMT-0600 (Central Standard Time),735901.1999999881,O,z,1581,53,1,51.bmp,-120,-120,52.bmp,120,-120,53.bmp,-120,120,54.bmp,120,120,9629.09999999404,726272.099999994,7252,yes,SM,C,53.bmp,-120,120,221775,215750,223793,217760,727115.0,721084.0,729130.0,723098.0,53
1,1,0,0,0,46,test,1,1,m,Tue Nov 25 2025 14:11:45 GMT-0600 (Central Standard Time),745230.2999999821,O,m,1270,54,1,55.bmp,-120,-120,56.bmp,120,-120,57.bmp,-120,120,58.bmp,120,120,9325.199999988079,735905.099999994,7252,yes,SM,C,57.bmp,-120,-120,221775,215750,223793,217760,736745.0,730717.0,738760.0,732729.0,54
4,0,0,0,1,46,test,1,0,z,Tue Nov 25 2025 14:11:45 GMT-0600 (Central Standard Time),755295.099999994,O,None,2016,55,1,59.bmp,-120,-120,60.bmp,120,-120,61.bmp,-120,120,62.bmp,120,120,10059.5,745235.599999994,7252,yes,SM,C,62.bmp,120,120,221775,215750,223793,217760,746076.0,740048.0,748091.0,742059.0,55
2,0,1,0,0,47,test,1,1,m,Tue Nov 25 2025 14:11:45 GMT-0600 (Central Standard Time),764225.900000006,O,m,868,56,1,63.bmp,-120,-120,64.bmp,120,-120,65.bmp,-120,120,66.bmp,120,120,8927.100000023842,755298.7999999821,7252,yes,SM,C,63.bmp,120,-120,221775,215750,223793,217760,756138.0,750111.0,758154.0,752124.0,56
4,0,0,0,1,48,test,1,1,m,Tue Nov 25 2025 14:11:45 GMT-0600 (Central Standard Time),773055.6999999881,O,m,777,57,1,67.bmp,-120,-120,68.bmp,120,-120,69.bmp,-120,120,70.bmp,120,120,8826.59999999404,764229.099999994,7252,yes,SM,C,68.bmp,120,120,221775,215750,223793,217760,765068.0,759041.0,767086.0,761054.0,57
3,0,0,1,0,49,test,1,1,z,Tue Nov 25 2025 14:11:45 GMT-0600 (Central Standard Time),781920.400000006,O,z,805,58,1,71.bmp,-120,-120,72.bmp,120,-120,73.bmp,-120,120,74.bmp,120,120,8862.100000023842,773058.2999999821,7252,yes,SM,C,73.bmp,-120,120,221775,215750,223793,217760,773901.0,767871.0,775915.0,769883.0,58
2,0,1,0,0,50,test,1,1,m,Tue Nov 25 2025 14:11:45 GMT-0600 (Central Standard Time),791250.099999994,O,m,1277,59,1,75.bmp,-120,-120,76.bmp,120,-120,77.bmp,-120,120,78.bmp,120,120,9326.40000000596,781923.6999999881,7252,yes,SM,C,78.bmp,120,-120,221775,215750,223793,217760,782763.0,776736.0,784779.0,778748.0,59
1,1,0,0,0,51,test,1,1,z,Tue Nov 25 2025 14:11:45 GMT-0600 (Central Standard Time),800446.900000006,O,z,1139,60,1,79.bmp,-120,-120,80.bmp,120,-120,81.bmp,-120,120,82.bmp,120,120,9194.600000023842,791252.2999999821,7252,yes,SM,C,79.bmp,-120,-120,221775,215750,223793,217760,792093.0,786065.0,794109.0,788078.0,60
2,0,1,0,0,52,test,1,1,z,Tue Nov 25 2025 14:11:45 GMT-0600 (Central Standard Time),809393.599999994,O,z,892,61,1,83.bmp,-120,-120,84.bmp,120,-120,85.bmp,-120,120,86.bmp,120,120,8944.09999999404,800449.5,7252,yes,SM,C,84.bmp,120,-120,221775,215750,223793,217760,801291.0,795262.0,803307.0,797276.0,61
4,0,0,0,1,53,test,1,1,z,Tue Nov 25 2025 14:11:45 GMT-0600 (Central Standard Time),818824.6999999881,O,z,1377,62,1,91.bmp,-120,-120,92.bmp,120,-120,93.bmp,-120,120,94.bmp,120,120,9424.40000000596,809400.2999999821,7252,yes,SM,C,94.bmp,120,120,221775,215750,223793,217760,810238.0,804213.0,812254.0,806223.0,62
1,1,0,0,0,53,test,1,0,m,Tue Nov 25 2025 14:11:45 GMT-0600 (Central Standard Time),827821.0,O,z,939,63,1,95.bmp,-120,-120,96.bmp,120,-120,97.bmp,-120,120,98.bmp,120,120,8992.59999999404,818828.400000006,7252,yes,SM,C,95.bmp,-120,120,221775,215750,223793,217760,819668.0,813641.0,821684.0,815653.0,63
2,0,1,0,0,54,test,1,1,z,Tue Nov 25 2025 14:11:45 GMT-0600 (Central Standard Time),837751.400000006,O,z,1870,64,1,99.bmp,-120,-120,100.bmp,120,-120,62.bmp,-120,120,51.bmp,120,120,9926.200000017881,827825.1999999881,7252,yes,SM,C,100.bmp,120,-120,221775,215750,223793,217760,828665.0,822638.0,830681.0,824651.0,64
4,0,0,0,1,55,test,1,1,m,Tue Nov 25 2025 14:11:45 GMT-0600 (Central Standard Time),847299.1999999881,O,m,1499,65,1,52.bmp,-120,-120,53.bmp,120,-120,54.bmp,-120,120,55.bmp,120,120,9543.0,837756.1999999881,7252,yes,SM,C,54.bmp,120,120,221775,215750,223793,217760,838596.0,832568.0,840612.0,834580.0,65
3,0,0,1,0,56,test,1,1,m,Tue Nov 25 2025 14:11:45 GMT-0600 (Central Standard Time),856462.0,O,m,1104,66,1,56.bmp,-120,-120,57.bmp,120,-120,58.bmp,-120,120,59.bmp,120,120,9160.0,847302.0,7252,yes,SM,C,59.bmp,-120,120,221775,215750,223793,217760,848143.0,842114.0,850159.0,844126.0,66
2,0,1,0,0,57,test,1,1,m,Tue Nov 25 2025 14:11:45 GMT-0600 (Central Standard Time),865760.0,O,m,1237,67,1,87.bmp,-120,-120,88.bmp,120,-120,89.bmp,-120,120,90.bmp,120,120,9294.90000000596,856465.099999994,7252,yes,SM,C,89.bmp,120,-120,221775,215750,223793,217760,857306.0,851277.0,859322.0,853291.0,67
3,0,0,1,0,58,test,1,1,z,Tue Nov 25 2025 14:11:45 GMT-0600 (Central Standard Time),875139.5,O,z,1331,68,1,60.bmp,-120,-120,61.bmp,120,-120,62.bmp,-120,120,63.bmp,120,120,9376.59999999404,865762.900000006,7252,yes,SM,C,62.bmp,-120,120,221775,215750,223793,217760,866603.0,860575.0,868620.0,862588.0,68
1,1,0,0,0,59,test,1,1,m,Tue Nov 25 2025 14:11:45 GMT-0600 (Central Standard Time),884587.099999994,O,m,1399,69,1,64.bmp,-120,-120,65.bmp,120,-120,66.bmp,-120,120,67.bmp,120,120,9445.40000000596,875141.6999999881,7252,yes,SM,C,65.bmp,-120,-120,221775,215750,223793,217760,875986.0,869954.0,878000.0,871968.0,69
2,0,1,0,0,60,test,1,1,m,Tue Nov 25 2025 14:11:45 GMT-0600 (Central Standard Time),893750.1999999881,O,m,1104,70,1,68.bmp,-120,-120,69.bmp,120,-120,70.bmp,-120,120,71.bmp,120,120,9160.0,884590.1999999881,7252,yes,SM,C,70.bmp,120,-120,221775,215750,223793,217760,885431.0,879403.0,887447.0,881415.0,70
4,0,0,0,1,61,test,1,1,z,Tue Nov 25 2025 14:11:45 GMT-0600 (Central Standard Time),902980.7999999821,O,z,1172,71,1,72.bmp,-120,-120,73.bmp,120,-120,74.bmp,-120,120,75.bmp,120,120,9227.899999976158,893752.900000006,7252,yes,SM,C,75.bmp,120,120,221775,215750,223793,217760,894594.0,888565.0,896611.0,890578.0,71
1,1,0,0,0,62,test,1,1,z,Tue Nov 25 2025 14:11:45 GMT-0600 (Central Standard Time),912077.6999999881,O,z,1037,72,1,76.bmp,-120,-120,77.bmp,120,-120,78.bmp,-120,120,79.bmp,120,120,9093.40000000596,902984.2999999821,7252,yes,SM,C,76.bmp,-120,-120,221775,215750,223793,217760,903824.0,897796.0,905842.0,899809.0,72
2,0,1,0,0,63,test,1,1,z,Tue Nov 25 2025 14:11:45 GMT-0600 (Central Standard Time),922074.0,O,z,1942,73,1,80.bmp,-120,-120,81.bmp,120,-120,82.bmp,-120,120,83.bmp,120,120,9992.59999999404,912081.400000006,7252,yes,SM,C,81.bmp,120,-120,221775,215750,223793,217760,912920.0,906894.0,914936.0,908907.0,73
4,0,0,0,1,64,test,1,1,m,Tue Nov 25 2025 14:11:45 GMT-0600 (Central Standard Time),931338.2999999821,O,m,1201,74,1,84.bmp,-120,-120,85.bmp,120,-120,86.bmp,-120,120,87.bmp,120,120,9262.699999988079,922075.599999994,7252,yes,SM,C,86.bmp,120,120,221775,215750,223793,217760,922920.0,916888.0,924935.0,918902.0,74
2,0,1,0,0,65,test,1,1,m,Tue Nov 25 2025 14:11:45 GMT-0600 (Central Standard Time),940552.099999994,O,m,1152,75,1,88.bmp,-120,-120,89.bmp,120,-120,90.bmp,-120,120,91.bmp,120,120,9209.09999999404,931343.0,7252,yes,SM,C,91.bmp,120,-120,221775,215750,223793,217760,932184.0,926155.0,934199.0,928167.0,75
1,1,0,0,0,66,test,1,1,z,Tue Nov 25 2025 14:11:45 GMT-0600 (Central Standard Time),949232.7999999821,O,z,626,76,1,92.bmp,-120,-120,93.bmp,120,-120,94.bmp,-120,120,95.bmp,120,120,8675.09999999404,940557.6999999881,7252,yes,SM,C,92.bmp,-120,-120,221775,215750,223793,217760,941396.0,935370.0,943413.0,937381.0,76
3,0,0,1,0,67,test,1,1,z,Tue Nov 25 2025 14:11:45 GMT-0600 (Central Standard Time),958696.0,O,z,1411,77,1,100.bmp,-120,-120,61.bmp,120,-120,51.bmp,-120,120,52.bmp,120,120,9457.90000000596,949238.099999994,7252,yes,SM,C,51.bmp,-120,120,221775,215750,223793,217760,950078.0,944050.0,952092.0,946061.0,77
1,1,0,0,0,68,test,1,1,m,Tue Nov 25 2025 14:11:45 GMT-0600 (Central Standard Time),967959.900000006,O,m,1216,78,1,96.bmp,-120,-120,97.bmp,120,-120,98.bmp,-120,120,99.bmp,120,120,9259.40000000596,958700.5,7252,yes,SM,C,97.bmp,-120,-120,221775,215750,223793,217760,959539.0,953513.0,961543.0,955525.0,78
4,0,0,0,1,69,test,1,1,m,Tue Nov 25 2025 14:11:45 GMT-0600 (Central Standard Time),976973.900000006,O,m,955,79,1,57.bmp,-120,-120,58.bmp,120,-120,59.bmp,-120,120,60.bmp,120,120,9004.5,967969.400000006,7252,yes,SM,C,57.bmp,120,120,221775,215750,223793,217760,968804.0,962782.0,970820.0,964791.0,79
3,0,0,1,0,70,test,1,1,m,Tue Nov 25 2025 14:11:45 GMT-0600 (Central Standard Time),986321.099999994,O,m,1292,80,1,53.bmp,-120,-120,54.bmp,120,-120,55.bmp,-120,120,56.bmp,120,120,9343.800000011921,976977.2999999821,7252,yes,SM,C,56.bmp,-120,120,221775,215750,223793,217760,977817.0,971790.0,979836.0,973802.0,80
