acc_sum,block,block_c,block_cond,con_img,correct,correct_response,datetime,endtime,face,jitter,line,project,response,response_time,row_sel,session_number,start_end,starttime,subject_id,task,task_vers,trial
0,prac,1,A,haborder.png,0,z,Mon Jun 02 2025 09:54:39 GMT-0500 (Central Daylight Time),73236.80000001192,CFD-WF-019-015-A.jpg,1000,solid,O,None,1515,12,1,3299.0,69937.80000001192,7136,ATS,A,1
0,prac,1,A,haborder.png,0,m,Mon Jun 02 2025 09:54:39 GMT-0500 (Central Daylight Time),77035.70000004768,CFD-WF-017-016-HC.jpg,1500,solid,O,None,1516,11,1,7097.900000035763,69937.80000001192,7136,ATS,A,2
0,prac,1,A,haborder.png,0,m,Mon Jun 02 2025 09:54:39 GMT-0500 (Central Daylight Time),80734.5,CFD-WM-004-005-HC.jpg,1400,solid,O,None,1516,7,1,10796.699999988079,69937.80000001192,7136,ATS,A,3
0,prac,1,A,haborder.png,0,m,Mon Jun 02 2025 09:54:39 GMT-0500 (Central Daylight Time),84733.10000002384,CFD-BM-017-052-HC.jpg,1700,solid,O,None,1516,1,1,14795.300000011921,69937.80000001192,7136,ATS,A,4
0,prac,1,A,haborder.png,0,m,Mon Jun 02 2025 09:54:39 GMT-0500 (Central Daylight Time),88532.20000004768,CFD-BM-029-026-HC.jpg,1500,solid,O,None,1516,3,1,18594.400000035763,69937.80000001192,7136,ATS,A,5
0,prac,1,A,haborder.png,0,z,Mon Jun 02 2025 09:54:39 GMT-0500 (Central Daylight Time),92730.70000004768,CFD-WM-013-015-A.jpg,1900,solid,O,None,1516,8,1,22792.900000035763,69937.80000001192,7136,ATS,A,6
0,prac,1,A,haborder.png,0,z,Mon Jun 02 2025 09:54:39 GMT-0500 (Central Daylight Time),96230.0,CFD-BF-039-039-A.jpg,1200,solid,O,None,1515,6,1,26292.19999998808,69937.80000001192,7136,ATS,A,7
0,prac,1,A,haborder.png,0,z,Mon Jun 02 2025 09:54:39 GMT-0500 (Central Daylight Time),100128.70000004768,CFD-BM-005-010-A.jpg,1600,solid,O,None,1516,2,1,30190.900000035763,69937.80000001192,7136,ATS,A,8
0,prac,1,A,haborder.png,0,m,Mon Jun 02 2025 09:54:39 GMT-0500 (Central Daylight Time),104127.10000002384,CFD-WM-006-013-HC.jpg,1700,solid,O,None,1516,9,1,34189.30000001192,69937.80000001192,7136,ATS,A,9
1,prac,1,A,haborder.png,1,z,Mon Jun 02 2025 09:54:39 GMT-0500 (Central Daylight Time),107826.10000002384,CFD-WF-003-014-A.jpg,1600,solid,O,z,1306,10,1,37888.30000001192,69937.80000001192,7136,ATS,A,10
2,prac,1,A,haborder.png,1,z,Mon Jun 02 2025 09:54:39 GMT-0500 (Central Daylight Time),110258.60000002384,CFD-BF-023-013-A.jpg,1000,solid,O,z,647,4,1,40320.80000001192,69937.80000001192,7136,ATS,A,11
3,prac,1,A,haborder.png,1,m,Mon Jun 02 2025 09:54:39 GMT-0500 (Central Daylight Time),113957.60000002384,CFD-BF-028-020-HC.jpg,2000,solid,O,m,911,5,1,44019.80000001192,69937.80000001192,7136,ATS,A,12
1,prac,2,A,haborder.png,1,z,Mon Jun 02 2025 09:54:39 GMT-0500 (Central Daylight Time),122521.20000004768,CFD-BM-005-010-A.jpg,1600,solid,O,z,948,2,1,52583.40000003576,69937.80000001192,7136,ATS,A,1
2,prac,2,A,haborder.png,1,m,Mon Jun 02 2025 09:54:39 GMT-0500 (Central Daylight Time),126103.60000002384,CFD-BF-028-020-HC.jpg,2000,solid,O,m,792,5,1,56165.80000001192,69937.80000001192,7136,ATS,A,2
3,prac,2,A,haborder.png,1,m,Mon Jun 02 2025 09:54:39 GMT-0500 (Central Daylight Time),129302.60000002384,CFD-BM-029-026-HC.jpg,1500,solid,O,m,910,3,1,59364.80000001192,69937.80000001192,7136,ATS,A,3
4,prac,2,A,haborder.png,1,m,Mon Jun 02 2025 09:54:39 GMT-0500 (Central Daylight Time),132285.10000002384,CFD-WM-004-005-HC.jpg,1400,solid,O,m,787,7,1,62347.30000001192,69937.80000001192,7136,ATS,A,4
5,prac,2,A,haborder.png,1,m,Mon Jun 02 2025 09:54:39 GMT-0500 (Central Daylight Time),135284.0,CFD-WF-017-016-HC.jpg,1500,solid,O,m,704,11,1,65346.19999998808,69937.80000001192,7136,ATS,A,5
6,prac,2,A,haborder.png,1,z,Mon Jun 02 2025 09:54:39 GMT-0500 (Central Daylight Time),137866.60000002384,CFD-BF-023-013-A.jpg,1000,solid,O,z,789,4,1,67928.80000001192,69937.80000001192,7136,ATS,A,6
7,prac,2,A,haborder.png,1,z,Mon Jun 02 2025 09:54:39 GMT-0500 (Central Daylight Time),140665.80000001192,CFD-BF-039-039-A.jpg,1200,solid,O,z,806,6,1,70728.0,69937.80000001192,7136,ATS,A,7
8,prac,2,A,haborder.png,1,z,Mon Jun 02 2025 09:54:39 GMT-0500 (Central Daylight Time),143781.30000001192,CFD-WF-003-014-A.jpg,1600,solid,O,z,720,10,1,73843.5,69937.80000001192,7136,ATS,A,8
9,prac,2,A,haborder.png,1,z,Mon Jun 02 2025 09:54:39 GMT-0500 (Central Daylight Time),147246.90000003576,CFD-WM-013-015-A.jpg,1900,solid,O,z,768,8,1,77309.10000002384,69937.80000001192,7136,ATS,A,9
10,prac,2,A,haborder.png,1,m,Mon Jun 02 2025 09:54:39 GMT-0500 (Central Daylight Time),150513.20000004768,CFD-WM-006-013-HC.jpg,1700,solid,O,m,782,9,1,80575.40000003576,69937.80000001192,7136,ATS,A,10
11,prac,2,A,haborder.png,1,z,Mon Jun 02 2025 09:54:39 GMT-0500 (Central Daylight Time),153045.0,CFD-WF-019-015-A.jpg,1000,solid,O,z,745,12,1,83107.19999998808,69937.80000001192,7136,ATS,A,11
12,prac,2,A,haborder.png,1,m,Mon Jun 02 2025 09:54:39 GMT-0500 (Central Daylight Time),156394.0,CFD-BM-017-052-HC.jpg,1700,solid,O,m,864,1,1,86456.19999998808,69937.80000001192,7136,ATS,A,12
1,prac,1,B,mfborder.png,1,m,Mon Jun 02 2025 09:54:39 GMT-0500 (Central Daylight Time),190100.10000002384,CFD-WM-006-013-HC.jpg,1600,dash,O,m,937,10,1,3332.199999988079,186767.90000003576,7136,ATS,A,1
2,prac,1,B,mfborder.png,1,m,Mon Jun 02 2025 09:54:39 GMT-0500 (Central Daylight Time),193232.5,CFD-BM-029-026-HC.jpg,1700,dash,O,m,649,1,1,6464.599999964237,186767.90000003576,7136,ATS,A,2
3,prac,1,B,mfborder.png,1,z,Mon Jun 02 2025 09:54:39 GMT-0500 (Central Daylight Time),196648.20000004768,CFD-WF-002-008-HC.jpg,1900,dash,O,z,717,8,1,9880.300000011921,186767.90000003576,7136,ATS,A,3
4,prac,1,B,mfborder.png,1,m,Mon Jun 02 2025 09:54:39 GMT-0500 (Central Daylight Time),199963.70000004768,CFD-WM-013-015-A.jpg,1700,dash,O,m,821,9,1,13195.800000011921,186767.90000003576,7136,ATS,A,4
5,prac,1,B,mfborder.png,1,z,Mon Jun 02 2025 09:54:39 GMT-0500 (Central Daylight Time),202712.90000003576,CFD-WF-017-016-HC.jpg,1000,dash,O,z,957,12,1,15945.0,186767.90000003576,7136,ATS,A,5
6,prac,1,B,mfborder.png,1,m,Mon Jun 02 2025 09:54:39 GMT-0500 (Central Daylight Time),205628.60000002384,CFD-WM-019-013-A.jpg,1200,dash,O,m,946,6,1,18860.69999998808,186767.90000003576,7136,ATS,A,6
7,prac,1,B,mfborder.png,1,z,Mon Jun 02 2025 09:54:39 GMT-0500 (Central Daylight Time),208661.0,CFD-BF-028-020-HC.jpg,1400,dash,O,z,837,7,1,21893.099999964237,186767.90000003576,7136,ATS,A,7
8,prac,1,B,mfborder.png,1,z,Mon Jun 02 2025 09:54:39 GMT-0500 (Central Daylight Time),212093.30000001192,CFD-BF-010-005-HC.jpg,1500,dash,O,z,1144,3,1,25325.399999976158,186767.90000003576,7136,ATS,A,8
9,prac,1,B,mfborder.png,1,z,Mon Jun 02 2025 09:54:39 GMT-0500 (Central Daylight Time),215425.5,CFD-WF-003-014-A.jpg,1500,dash,O,z,1040,11,1,28657.599999964237,186767.90000003576,7136,ATS,A,9
10,prac,1,B,mfborder.png,1,m,Mon Jun 02 2025 09:54:39 GMT-0500 (Central Daylight Time),218658.10000002384,CFD-BM-010-019-A.jpg,1600,dash,O,m,840,2,1,31890.19999998808,186767.90000003576,7136,ATS,A,10
11,prac,1,B,mfborder.png,1,z,Mon Jun 02 2025 09:54:39 GMT-0500 (Central Daylight Time),221240.20000004768,CFD-BF-023-013-A.jpg,1000,dash,O,z,783,4,1,34472.30000001192,186767.90000003576,7136,ATS,A,11
12,prac,1,B,mfborder.png,1,m,Mon Jun 02 2025 09:54:39 GMT-0500 (Central Daylight Time),224939.20000004768,CFD-BM-005-010-A.jpg,2000,dash,O,m,905,5,1,38171.30000001192,186767.90000003576,7136,ATS,A,12
1,test,1,A,haborder.png,1,z,Mon Jun 02 2025 09:54:39 GMT-0500 (Central Daylight Time),245299.40000003576,CFD-BF-023-013-A.jpg,1000,solid,O,z,1056,4,1,2082.600000023842,243216.80000001192,7136,ATS,A,1
2,test,1,A,haborder.png,1,z,Mon Jun 02 2025 09:54:39 GMT-0500 (Central Daylight Time),247632.10000002384,CFD-BM-005-010-A.jpg,1600,solid,O,z,701,2,1,4415.300000011921,243216.80000001192,7136,ATS,A,2
3,test,1,A,haborder.png,1,m,Mon Jun 02 2025 09:54:39 GMT-0500 (Central Daylight Time),249981.30000001192,CFD-WM-006-013-HC.jpg,1700,solid,O,m,621,9,1,6764.5,243216.80000001192,7136,ATS,A,3
4,test,1,A,haborder.png,1,z,Mon Jun 02 2025 09:54:39 GMT-0500 (Central Daylight Time),253130.30000001192,CFD-WM-013-015-A.jpg,1900,solid,O,z,1090,8,1,9913.5,243216.80000001192,7136,ATS,A,4
5,test,1,A,haborder.png,1,m,Mon Jun 02 2025 09:54:39 GMT-0500 (Central Daylight Time),255429.70000004768,CFD-WF-017-016-HC.jpg,1500,solid,O,m,779,11,1,12212.900000035763,243216.80000001192,7136,ATS,A,5
6,test,1,A,haborder.png,1,m,Mon Jun 02 2025 09:54:39 GMT-0500 (Central Daylight Time),257928.90000003576,CFD-BM-017-052-HC.jpg,1700,solid,O,m,768,1,1,14712.100000023842,243216.80000001192,7136,ATS,A,6
7,test,1,A,haborder.png,1,m,Mon Jun 02 2025 09:54:39 GMT-0500 (Central Daylight Time),260094.80000001192,CFD-BM-029-026-HC.jpg,1500,solid,O,m,645,3,1,16878.0,243216.80000001192,7136,ATS,A,7
8,test,1,A,haborder.png,1,m,Mon Jun 02 2025 09:54:39 GMT-0500 (Central Daylight Time),262710.7000000477,CFD-BF-028-020-HC.jpg,2000,solid,O,m,587,5,1,19493.900000035763,243216.80000001192,7136,ATS,A,8
9,test,1,A,haborder.png,1,m,Mon Jun 02 2025 09:54:39 GMT-0500 (Central Daylight Time),265076.5,CFD-BM-017-052-HC.jpg,1700,solid,O,m,647,1,1,21859.69999998808,243216.80000001192,7136,ATS,A,9
10,test,1,A,haborder.png,1,m,Mon Jun 02 2025 09:54:39 GMT-0500 (Central Daylight Time),267292.5,CFD-WM-006-013-HC.jpg,1700,solid,O,m,497,9,1,24075.69999998808,243216.80000001192,7136,ATS,A,10
11,test,1,A,haborder.png,1,z,Mon Jun 02 2025 09:54:39 GMT-0500 (Central Daylight Time),269724.90000003576,CFD-WF-003-014-A.jpg,1600,solid,O,z,813,10,1,26508.100000023842,243216.80000001192,7136,ATS,A,11
12,test,1,A,haborder.png,1,z,Mon Jun 02 2025 09:54:39 GMT-0500 (Central Daylight Time),271607.90000003576,CFD-BF-039-039-A.jpg,1200,solid,O,z,660,6,1,28391.100000023842,243216.80000001192,7136,ATS,A,12
13,test,1,A,haborder.png,1,z,Mon Jun 02 2025 09:54:39 GMT-0500 (Central Daylight Time),273257.60000002384,CFD-BF-023-013-A.jpg,1000,solid,O,z,617,4,1,30040.80000001192,243216.80000001192,7136,ATS,A,13
14,test,1,A,haborder.png,1,m,Mon Jun 02 2025 09:54:39 GMT-0500 (Central Daylight Time),275603.60000002384,CFD-BM-029-026-HC.jpg,1500,solid,O,m,692,3,1,32386.80000001192,243216.80000001192,7136,ATS,A,14
15,test,1,A,haborder.png,1,z,Mon Jun 02 2025 09:54:39 GMT-0500 (Central Daylight Time),277572.60000002384,CFD-WF-019-015-A.jpg,1000,solid,O,z,946,12,1,34355.80000001192,243216.80000001192,7136,ATS,A,15
16,test,1,A,haborder.png,1,z,Mon Jun 02 2025 09:54:39 GMT-0500 (Central Daylight Time),280305.40000003576,CFD-WM-013-015-A.jpg,1900,solid,O,z,801,8,1,37088.60000002384,243216.80000001192,7136,ATS,A,16
17,test,1,A,haborder.png,1,z,Mon Jun 02 2025 09:54:39 GMT-0500 (Central Daylight Time),281987.8000000119,CFD-WF-019-015-A.jpg,1000,solid,O,z,661,12,1,38771.0,243216.80000001192,7136,ATS,A,17
18,test,1,A,haborder.png,1,m,Mon Jun 02 2025 09:54:39 GMT-0500 (Central Daylight Time),284020.5,CFD-WF-017-016-HC.jpg,1500,solid,O,m,513,11,1,40803.69999998808,243216.80000001192,7136,ATS,A,18
19,test,1,A,haborder.png,1,m,Mon Jun 02 2025 09:54:39 GMT-0500 (Central Daylight Time),286103.3000000119,CFD-WM-004-005-HC.jpg,1400,solid,O,m,653,7,1,42886.5,243216.80000001192,7136,ATS,A,19
20,test,1,A,haborder.png,1,m,Mon Jun 02 2025 09:54:39 GMT-0500 (Central Daylight Time),288719.0,CFD-BF-028-020-HC.jpg,2000,solid,O,m,594,5,1,45502.19999998808,243216.80000001192,7136,ATS,A,20
21,test,1,A,haborder.png,1,z,Mon Jun 02 2025 09:54:39 GMT-0500 (Central Daylight Time),291585.2000000477,CFD-WF-003-014-A.jpg,1600,solid,O,z,1234,10,1,48368.40000003576,243216.80000001192,7136,ATS,A,21
22,test,1,A,haborder.png,1,m,Mon Jun 02 2025 09:54:39 GMT-0500 (Central Daylight Time),293767.40000003576,CFD-WM-004-005-HC.jpg,1400,solid,O,m,752,7,1,50550.60000002384,243216.80000001192,7136,ATS,A,22
23,test,1,A,haborder.png,1,z,Mon Jun 02 2025 09:54:39 GMT-0500 (Central Daylight Time),296133.2000000477,CFD-BM-005-010-A.jpg,1600,solid,O,z,738,2,1,52916.40000003576,243216.80000001192,7136,ATS,A,23
24,test,1,A,haborder.png,1,z,Mon Jun 02 2025 09:54:39 GMT-0500 (Central Daylight Time),298083.90000003576,CFD-BF-039-039-A.jpg,1200,solid,O,z,732,6,1,54867.10000002384,243216.80000001192,7136,ATS,A,24
0,test,1,B,mfborder.png,0,z,Mon Jun 02 2025 09:54:39 GMT-0500 (Central Daylight Time),316177.2000000477,CFD-WF-003-014-A.jpg,1500,dash,O,None,1512,11,1,3032.300000011921,313144.90000003576,7136,ATS,A,1
1,test,1,B,mfborder.png,1,m,Mon Jun 02 2025 09:54:39 GMT-0500 (Central Daylight Time),318660.0,CFD-BM-029-026-HC.jpg,1700,dash,O,m,752,1,1,5515.099999964237,313144.90000003576,7136,ATS,A,2
2,test,1,B,mfborder.png,1,m,Mon Jun 02 2025 09:54:39 GMT-0500 (Central Daylight Time),320959.0,CFD-WM-006-013-HC.jpg,1600,dash,O,m,670,10,1,7814.099999964237,313144.90000003576,7136,ATS,A,3
3,test,1,B,mfborder.png,1,z,Mon Jun 02 2025 09:54:39 GMT-0500 (Central Daylight Time),323458.2000000477,CFD-WF-002-008-HC.jpg,1900,dash,O,z,574,8,1,10313.300000011921,313144.90000003576,7136,ATS,A,4
4,test,1,B,mfborder.png,1,m,Mon Jun 02 2025 09:54:39 GMT-0500 (Central Daylight Time),325741.0,CFD-WM-013-015-A.jpg,1700,dash,O,m,555,9,1,12596.099999964237,313144.90000003576,7136,ATS,A,5
5,test,1,B,mfborder.png,1,m,Mon Jun 02 2025 09:54:39 GMT-0500 (Central Daylight Time),328007.0,CFD-BM-029-026-HC.jpg,1700,dash,O,m,544,1,1,14862.099999964237,313144.90000003576,7136,ATS,A,6
6,test,1,B,mfborder.png,1,m,Mon Jun 02 2025 09:54:39 GMT-0500 (Central Daylight Time),330639.3000000119,CFD-BM-005-010-A.jpg,2000,dash,O,m,603,5,1,17494.399999976158,313144.90000003576,7136,ATS,A,7
7,test,1,B,mfborder.png,1,z,Mon Jun 02 2025 09:54:39 GMT-0500 (Central Daylight Time),332455.2000000477,CFD-BF-023-013-A.jpg,1000,dash,O,z,786,4,1,19310.30000001192,313144.90000003576,7136,ATS,A,8
8,test,1,B,mfborder.png,1,m,Mon Jun 02 2025 09:54:39 GMT-0500 (Central Daylight Time),334404.7000000477,CFD-WM-019-013-A.jpg,1200,dash,O,m,722,6,1,21259.80000001192,313144.90000003576,7136,ATS,A,9
9,test,1,B,mfborder.png,1,m,Mon Jun 02 2025 09:54:39 GMT-0500 (Central Daylight Time),336520.8000000119,CFD-WM-019-013-A.jpg,1200,dash,O,m,889,6,1,23375.899999976158,313144.90000003576,7136,ATS,A,10
10,test,1,B,mfborder.png,1,m,Mon Jun 02 2025 09:54:39 GMT-0500 (Central Daylight Time),339136.7000000477,CFD-BM-005-010-A.jpg,2000,dash,O,m,592,5,1,25991.80000001192,313144.90000003576,7136,ATS,A,11
11,test,1,B,mfborder.png,1,z,Mon Jun 02 2025 09:54:39 GMT-0500 (Central Daylight Time),341319.5,CFD-BF-010-005-HC.jpg,1500,dash,O,z,661,3,1,28174.599999964237,313144.90000003576,7136,ATS,A,12
12,test,1,B,mfborder.png,1,m,Mon Jun 02 2025 09:54:39 GMT-0500 (Central Daylight Time),343685.10000002384,CFD-BM-010-019-A.jpg,1600,dash,O,m,746,2,1,30540.19999998808,313144.90000003576,7136,ATS,A,13
13,test,1,B,mfborder.png,1,z,Mon Jun 02 2025 09:54:39 GMT-0500 (Central Daylight Time),345650.8000000119,CFD-WF-017-016-HC.jpg,1000,dash,O,z,939,12,1,32505.899999976158,313144.90000003576,7136,ATS,A,14
14,test,1,B,mfborder.png,1,z,Mon Jun 02 2025 09:54:39 GMT-0500 (Central Daylight Time),347370.5,CFD-BF-023-013-A.jpg,1000,dash,O,z,686,4,1,34225.59999996424,313144.90000003576,7136,ATS,A,15
15,test,1,B,mfborder.png,1,m,Mon Jun 02 2025 09:54:39 GMT-0500 (Central Daylight Time),349866.60000002384,CFD-WM-006-013-HC.jpg,1600,dash,O,m,874,10,1,36721.69999998808,313144.90000003576,7136,ATS,A,16
16,test,1,B,mfborder.png,1,z,Mon Jun 02 2025 09:54:39 GMT-0500 (Central Daylight Time),352149.2000000477,CFD-WF-003-014-A.jpg,1500,dash,O,z,762,11,1,39004.30000001192,313144.90000003576,7136,ATS,A,17
17,test,1,B,mfborder.png,1,z,Mon Jun 02 2025 09:54:39 GMT-0500 (Central Daylight Time),354748.40000003576,CFD-WF-002-008-HC.jpg,1900,dash,O,z,672,8,1,41603.5,313144.90000003576,7136,ATS,A,18
18,test,1,B,mfborder.png,1,z,Mon Jun 02 2025 09:54:39 GMT-0500 (Central Daylight Time),357264.3000000119,CFD-BF-010-005-HC.jpg,1500,dash,O,z,981,3,1,44119.39999997616,313144.90000003576,7136,ATS,A,19
18,test,1,B,mfborder.png,0,z,Mon Jun 02 2025 09:54:39 GMT-0500 (Central Daylight Time),360196.90000003576,CFD-BF-028-020-HC.jpg,1400,dash,O,None,1516,7,1,47052.0,313144.90000003576,7136,ATS,A,20
19,test,1,B,mfborder.png,1,m,Mon Jun 02 2025 09:54:39 GMT-0500 (Central Daylight Time),362445.90000003576,CFD-BM-010-019-A.jpg,1600,dash,O,m,625,2,1,49301.0,313144.90000003576,7136,ATS,A,21
20,test,1,B,mfborder.png,1,z,Mon Jun 02 2025 09:54:39 GMT-0500 (Central Daylight Time),364478.60000002384,CFD-BF-028-020-HC.jpg,1400,dash,O,z,611,7,1,51333.69999998808,313144.90000003576,7136,ATS,A,22
21,test,1,B,mfborder.png,1,z,Mon Jun 02 2025 09:54:39 GMT-0500 (Central Daylight Time),366094.8000000119,CFD-WF-017-016-HC.jpg,1000,dash,O,z,594,12,1,52949.89999997616,313144.90000003576,7136,ATS,A,23
22,test,1,B,mfborder.png,1,m,Mon Jun 02 2025 09:54:39 GMT-0500 (Central Daylight Time),368310.8000000119,CFD-WM-013-015-A.jpg,1700,dash,O,m,494,9,1,55165.89999997616,313144.90000003576,7136,ATS,A,24
0,prac,1,C,haborder.png,0,m,Mon Jun 02 2025 09:54:39 GMT-0500 (Central Daylight Time),416925.90000003576,CFD-BM-029-026-HC.jpg,1500,solid,O,None,1515,10,1,3795.800000011921,413130.10000002384,7136,ATS,A,1
1,prac,1,C,mfborder.png,1,z,Mon Jun 02 2025 09:54:39 GMT-0500 (Central Daylight Time),420544.5,CFD-WF-019-015-A.jpg,1500,solid,O,z,1317,2,1,7414.399999976158,413130.10000002384,7136,ATS,A,2
2,prac,1,C,haborder.png,1,m,Mon Jun 02 2025 09:54:39 GMT-0500 (Central Daylight Time),423543.90000003576,CFD-WM-004-005-HC.jpg,1400,solid,O,m,801,12,1,10413.800000011921,413130.10000002384,7136,ATS,A,3
2,prac,1,C,mfborder.png,0,m,Mon Jun 02 2025 09:54:39 GMT-0500 (Central Daylight Time),427325.8000000119,CFD-BM-017-052-HC.jpg,2000,solid,O,z,986,4,1,14195.699999988079,413130.10000002384,7136,ATS,A,4
3,prac,1,C,haborder.png,1,z,Mon Jun 02 2025 09:54:39 GMT-0500 (Central Daylight Time),431274.5,CFD-BF-039-039-A.jpg,1700,solid,O,z,1456,8,1,18144.399999976158,413130.10000002384,7136,ATS,A,5
4,prac,1,C,haborder.png,1,m,Mon Jun 02 2025 09:54:39 GMT-0500 (Central Daylight Time),433990.3000000119,CFD-WM-004-005-HC.jpg,1000,dash,O,m,927,11,1,20860.19999998808,413130.10000002384,7136,ATS,A,6
5,prac,1,C,haborder.png,1,z,Mon Jun 02 2025 09:54:39 GMT-0500 (Central Daylight Time),437705.8000000119,CFD-BF-023-013-A.jpg,1900,dash,O,z,1031,7,1,24575.69999998808,413130.10000002384,7136,ATS,A,7
5,prac,1,C,mfborder.png,0,z,Mon Jun 02 2025 09:54:39 GMT-0500 (Central Daylight Time),441221.10000002384,CFD-WF-017-016-HC.jpg,1600,dash,O,m,998,1,1,28091.0,413130.10000002384,7136,ATS,A,8
6,prac,1,C,haborder.png,1,z,Mon Jun 02 2025 09:54:39 GMT-0500 (Central Daylight Time),444370.3000000119,CFD-WF-003-014-A.jpg,1600,dash,O,z,756,9,1,31240.19999998808,413130.10000002384,7136,ATS,A,9
7,prac,1,C,mfborder.png,1,z,Mon Jun 02 2025 09:54:39 GMT-0500 (Central Daylight Time),446836.2000000477,CFD-BF-028-020-HC.jpg,1000,dash,O,z,671,3,1,33706.10000002384,413130.10000002384,7136,ATS,A,10
8,prac,1,C,mfborder.png,1,m,Mon Jun 02 2025 09:54:39 GMT-0500 (Central Daylight Time),449535.3000000119,CFD-BM-005-010-A.jpg,1200,dash,O,m,709,5,1,36405.19999998808,413130.10000002384,7136,ATS,A,11
8,prac,1,C,mfborder.png,0,m,Mon Jun 02 2025 09:54:39 GMT-0500 (Central Daylight Time),453167.5,CFD-WM-013-015-A.jpg,1700,solid,O,z,1142,6,1,40037.39999997616,413130.10000002384,7136,ATS,A,12
0,prac,2,C,mfborder.png,0,m,Mon Jun 02 2025 09:54:39 GMT-0500 (Central Daylight Time),461798.2000000477,CFD-WM-013-015-A.jpg,1700,solid,O,None,1516,6,1,48668.10000002384,413130.10000002384,7136,ATS,A,1
1,prac,2,C,haborder.png,1,m,Mon Jun 02 2025 09:54:39 GMT-0500 (Central Daylight Time),464897.2000000477,CFD-WM-004-005-HC.jpg,1000,dash,O,m,1301,11,1,51767.10000002384,413130.10000002384,7136,ATS,A,2
2,prac,2,C,haborder.png,1,z,Mon Jun 02 2025 09:54:39 GMT-0500 (Central Daylight Time),468362.8000000119,CFD-BF-023-013-A.jpg,1900,dash,O,z,780,7,1,55232.69999998808,413130.10000002384,7136,ATS,A,3
3,prac,2,C,mfborder.png,1,m,Mon Jun 02 2025 09:54:39 GMT-0500 (Central Daylight Time),471161.8000000119,CFD-BM-005-010-A.jpg,1200,dash,O,m,814,5,1,58031.69999998808,413130.10000002384,7136,ATS,A,4
4,prac,2,C,haborder.png,1,z,Mon Jun 02 2025 09:54:39 GMT-0500 (Central Daylight Time),474377.5,CFD-BF-039-039-A.jpg,1700,solid,O,z,731,8,1,61247.39999997616,413130.10000002384,7136,ATS,A,5
5,prac,2,C,haborder.png,1,z,Mon Jun 02 2025 09:54:39 GMT-0500 (Central Daylight Time),477426.60000002384,CFD-WF-003-014-A.jpg,1600,dash,O,z,656,9,1,64296.5,413130.10000002384,7136,ATS,A,6
5,prac,2,C,mfborder.png,0,z,Mon Jun 02 2025 09:54:39 GMT-0500 (Central Daylight Time),480492.40000003576,CFD-WF-019-015-A.jpg,1500,solid,O,m,779,2,1,67362.30000001192,413130.10000002384,7136,ATS,A,7
6,prac,2,C,mfborder.png,1,z,Mon Jun 02 2025 09:54:39 GMT-0500 (Central Daylight Time),483024.90000003576,CFD-BF-028-020-HC.jpg,1000,dash,O,z,749,3,1,69894.80000001192,413130.10000002384,7136,ATS,A,8
6,prac,2,C,mfborder.png,0,m,Mon Jun 02 2025 09:54:39 GMT-0500 (Central Daylight Time),487440.90000003576,CFD-BM-017-052-HC.jpg,2000,solid,O,None,1516,4,1,74310.80000001192,413130.10000002384,7136,ATS,A,9
7,prac,2,C,haborder.png,1,m,Mon Jun 02 2025 09:54:39 GMT-0500 (Central Daylight Time),490189.0,CFD-WM-004-005-HC.jpg,1400,solid,O,m,561,12,1,77058.89999997616,413130.10000002384,7136,ATS,A,10
8,prac,2,C,haborder.png,1,m,Mon Jun 02 2025 09:54:39 GMT-0500 (Central Daylight Time),493254.8000000119,CFD-BM-029-026-HC.jpg,1500,solid,O,m,768,10,1,80124.69999998808,413130.10000002384,7136,ATS,A,11
9,prac,2,C,mfborder.png,1,z,Mon Jun 02 2025 09:54:39 GMT-0500 (Central Daylight Time),496354.0,CFD-WF-017-016-HC.jpg,1600,dash,O,z,707,1,1,83223.89999997616,413130.10000002384,7136,ATS,A,12
0,test,1,C,haborder.png,0,z,Mon Jun 02 2025 09:54:39 GMT-0500 (Central Daylight Time),523845.2000000477,CFD-WM-013-015-A.jpg,1400,solid,O,None,1512,7,1,2932.300000011921,520912.90000003576,7136,ATS,A,1
0,test,1,C,mfborder.png,0,m,Mon Jun 02 2025 09:54:39 GMT-0500 (Central Daylight Time),526377.8000000119,CFD-WM-006-013-HC.jpg,1000,dash,O,None,1512,4,1,5464.899999976158,520912.90000003576,7136,ATS,A,2
1,test,1,C,mfborder.png,1,z,Mon Jun 02 2025 09:54:39 GMT-0500 (Central Daylight Time),528910.3000000119,CFD-BF-010-005-HC.jpg,1700,dash,O,z,804,1,1,7997.399999976158,520912.90000003576,7136,ATS,A,3
1,test,1,C,haborder.png,0,z,Mon Jun 02 2025 09:54:39 GMT-0500 (Central Daylight Time),532142.9000000358,CFD-BM-010-019-A.jpg,1700,solid,O,None,1516,9,1,11230.0,520912.90000003576,7136,ATS,A,4
1,test,1,C,haborder.png,0,m,Mon Jun 02 2025 09:54:39 GMT-0500 (Central Daylight Time),534874.8000000119,CFD-BF-028-020-HC.jpg,1600,solid,O,z,1115,10,1,13961.899999976158,520912.90000003576,7136,ATS,A,5
1,test,1,C,haborder.png,0,z,Mon Jun 02 2025 09:54:39 GMT-0500 (Central Daylight Time),537774.1000000238,CFD-BM-005-010-A.jpg,1900,solid,O,m,970,8,1,16861.19999998808,520912.90000003576,7136,ATS,A,6
1,test,1,C,mfborder.png,0,m,Mon Jun 02 2025 09:54:39 GMT-0500 (Central Daylight Time),540706.9000000358,CFD-WM-019-013-A.jpg,2000,dash,O,z,899,5,1,19794.0,520912.90000003576,7136,ATS,A,7
1,test,1,C,haborder.png,0,m,Mon Jun 02 2025 09:54:39 GMT-0500 (Central Daylight Time),543239.2000000477,CFD-WF-017-016-HC.jpg,1000,solid,O,None,1516,12,1,22326.30000001192,520912.90000003576,7136,ATS,A,8
1,test,1,C,haborder.png,0,z,Mon Jun 02 2025 09:54:39 GMT-0500 (Central Daylight Time),546254.9000000358,CFD-BM-010-019-A.jpg,1700,solid,O,m,1286,9,1,25342.0,520912.90000003576,7136,ATS,A,9
1,test,1,C,mfborder.png,0,m,Mon Jun 02 2025 09:54:39 GMT-0500 (Central Daylight Time),548587.3000000119,CFD-BM-029-026-HC.jpg,1200,dash,O,z,1105,6,1,27674.399999976158,520912.90000003576,7136,ATS,A,10
1,test,1,C,haborder.png,0,m,Mon Jun 02 2025 09:54:39 GMT-0500 (Central Daylight Time),551619.7000000477,CFD-WF-002-008-HC.jpg,1500,solid,O,None,1516,11,1,30706.80000001192,520912.90000003576,7136,ATS,A,11
1,test,1,C,haborder.png,0,z,Mon Jun 02 2025 09:54:39 GMT-0500 (Central Daylight Time),554552.2000000477,CFD-WM-013-015-A.jpg,1400,solid,O,None,1515,7,1,33639.30000001192,520912.90000003576,7136,ATS,A,12
1,test,1,C,haborder.png,0,m,Mon Jun 02 2025 09:54:39 GMT-0500 (Central Daylight Time),557101.4000000358,CFD-BF-028-020-HC.jpg,1600,solid,O,z,929,10,1,36188.5,520912.90000003576,7136,ATS,A,13
2,test,1,C,mfborder.png,1,m,Mon Jun 02 2025 09:54:39 GMT-0500 (Central Daylight Time),559117.4000000358,CFD-WM-006-013-HC.jpg,1000,dash,O,m,891,4,1,38204.5,520912.90000003576,7136,ATS,A,14
3,test,1,C,mfborder.png,1,z,Mon Jun 02 2025 09:54:39 GMT-0500 (Central Daylight Time),561933.2000000477,CFD-BF-010-005-HC.jpg,1700,dash,O,z,1088,1,1,41020.30000001192,520912.90000003576,7136,ATS,A,15
3,test,1,C,haborder.png,0,z,Mon Jun 02 2025 09:54:39 GMT-0500 (Central Daylight Time),565048.9000000358,CFD-BM-005-010-A.jpg,1900,solid,O,m,1184,8,1,44136.0,520912.90000003576,7136,ATS,A,16
4,test,1,C,mfborder.png,1,m,Mon Jun 02 2025 09:54:39 GMT-0500 (Central Daylight Time),567398.2000000477,CFD-BM-029-026-HC.jpg,1200,dash,O,m,1120,6,1,46485.30000001192,520912.90000003576,7136,ATS,A,17
5,test,1,C,mfborder.png,1,z,Mon Jun 02 2025 09:54:39 GMT-0500 (Central Daylight Time),569514.3000000119,CFD-WF-003-014-A.jpg,1500,dash,O,z,591,3,1,48601.39999997616,520912.90000003576,7136,ATS,A,18
6,test,1,C,mfborder.png,1,z,Mon Jun 02 2025 09:54:39 GMT-0500 (Central Daylight Time),572396.5,CFD-BF-023-013-A.jpg,1600,dash,O,z,1262,2,1,51483.59999996424,520912.90000003576,7136,ATS,A,19
7,test,1,C,mfborder.png,1,z,Mon Jun 02 2025 09:54:39 GMT-0500 (Central Daylight Time),575062.7000000477,CFD-BF-023-013-A.jpg,1600,dash,O,z,1037,2,1,54149.80000001192,520912.90000003576,7136,ATS,A,20
8,test,1,C,haborder.png,1,m,Mon Jun 02 2025 09:54:39 GMT-0500 (Central Daylight Time),576978.8000000119,CFD-WF-017-016-HC.jpg,1000,solid,O,m,890,12,1,56065.89999997616,520912.90000003576,7136,ATS,A,21
9,test,1,C,mfborder.png,1,z,Mon Jun 02 2025 09:54:39 GMT-0500 (Central Daylight Time),579411.3000000119,CFD-WF-003-014-A.jpg,1500,dash,O,z,915,3,1,58498.39999997616,520912.90000003576,7136,ATS,A,22
9,test,1,C,mfborder.png,0,m,Mon Jun 02 2025 09:54:39 GMT-0500 (Central Daylight Time),582326.7000000477,CFD-WM-019-013-A.jpg,2000,dash,O,z,886,5,1,61413.80000001192,520912.90000003576,7136,ATS,A,23
10,test,1,C,haborder.png,1,m,Mon Jun 02 2025 09:54:39 GMT-0500 (Central Daylight Time),584942.7000000477,CFD-WF-002-008-HC.jpg,1500,solid,O,m,1087,11,1,64029.80000001192,520912.90000003576,7136,ATS,A,24
0,test,2,C,mfborder.png,0,z,Mon Jun 02 2025 09:54:39 GMT-0500 (Central Daylight Time),607985.7000000477,CFD-WF-019-015-A.jpg,1600,dash,O,None,1512,2,1,3132.400000035763,604853.3000000119,7136,ATS,A,1
0,test,2,C,haborder.png,0,z,Mon Jun 02 2025 09:54:39 GMT-0500 (Central Daylight Time),610867.9000000358,CFD-WF-003-014-A.jpg,1700,solid,O,m,1160,9,1,6014.600000023842,604853.3000000119,7136,ATS,A,2
0,test,2,C,mfborder.png,0,m,Mon Jun 02 2025 09:54:39 GMT-0500 (Central Daylight Time),612883.9000000358,CFD-BM-017-052-HC.jpg,1000,dash,O,z,990,4,1,8030.600000023842,604853.3000000119,7136,ATS,A,3
1,test,2,C,haborder.png,1,m,Mon Jun 02 2025 09:54:39 GMT-0500 (Central Daylight Time),615149.9000000358,CFD-WM-004-005-HC.jpg,1000,solid,O,m,1237,12,1,10296.600000023842,604853.3000000119,7136,ATS,A,4
1,test,2,C,mfborder.png,0,z,Mon Jun 02 2025 09:54:39 GMT-0500 (Central Daylight Time),618382.2000000477,CFD-WF-017-016-HC.jpg,1700,dash,O,None,1512,1,1,13528.900000035763,604853.3000000119,7136,ATS,A,5
2,test,2,C,mfborder.png,1,m,Mon Jun 02 2025 09:54:39 GMT-0500 (Central Daylight Time),621497.8000000119,CFD-BM-005-010-A.jpg,2000,dash,O,m,1090,5,1,16644.5,604853.3000000119,7136,ATS,A,6
3,test,2,C,haborder.png,1,m,Mon Jun 02 2025 09:54:39 GMT-0500 (Central Daylight Time),624396.6000000238,CFD-BM-029-026-HC.jpg,1600,solid,O,m,1267,10,1,19543.30000001192,604853.3000000119,7136,ATS,A,7
4,test,2,C,haborder.png,1,m,Mon Jun 02 2025 09:54:39 GMT-0500 (Central Daylight Time),626596.4000000358,CFD-WM-004-005-HC.jpg,1500,solid,O,m,680,11,1,21743.100000023842,604853.3000000119,7136,ATS,A,8
5,test,2,C,haborder.png,1,m,Mon Jun 02 2025 09:54:39 GMT-0500 (Central Daylight Time),628777.9000000358,CFD-WM-004-005-HC.jpg,1000,solid,O,m,1165,12,1,23924.600000023842,604853.3000000119,7136,ATS,A,9
5,test,2,C,mfborder.png,0,m,Mon Jun 02 2025 09:54:39 GMT-0500 (Central Daylight Time),631528.2000000477,CFD-BM-005-010-A.jpg,2000,dash,O,z,718,5,1,26674.900000035763,604853.3000000119,7136,ATS,A,10
6,test,2,C,mfborder.png,1,z,Mon Jun 02 2025 09:54:39 GMT-0500 (Central Daylight Time),634310.6000000238,CFD-BF-028-020-HC.jpg,1500,dash,O,z,1253,3,1,29457.30000001192,604853.3000000119,7136,ATS,A,11
7,test,2,C,mfborder.png,1,m,Mon Jun 02 2025 09:54:39 GMT-0500 (Central Daylight Time),636476.6000000238,CFD-WM-013-015-A.jpg,1200,dash,O,m,947,6,1,31623.30000001192,604853.3000000119,7136,ATS,A,12
7,test,2,C,mfborder.png,0,z,Mon Jun 02 2025 09:54:39 GMT-0500 (Central Daylight Time),639209.1000000238,CFD-WF-019-015-A.jpg,1600,dash,O,m,1100,2,1,34355.80000001192,604853.3000000119,7136,ATS,A,13
8,test,2,C,mfborder.png,1,m,Mon Jun 02 2025 09:54:39 GMT-0500 (Central Daylight Time),641145.1000000238,CFD-WM-013-015-A.jpg,1200,dash,O,m,704,6,1,36291.80000001192,604853.3000000119,7136,ATS,A,14
8,test,2,C,haborder.png,0,z,Mon Jun 02 2025 09:54:39 GMT-0500 (Central Daylight Time),644074.1000000238,CFD-BF-023-013-A.jpg,1400,solid,O,None,1516,7,1,39220.80000001192,604853.3000000119,7136,ATS,A,15
8,test,2,C,mfborder.png,0,z,Mon Jun 02 2025 09:54:39 GMT-0500 (Central Daylight Time),646740.2000000477,CFD-BF-028-020-HC.jpg,1500,dash,O,m,1139,3,1,41886.90000003576,604853.3000000119,7136,ATS,A,16
9,test,2,C,haborder.png,1,m,Mon Jun 02 2025 09:54:39 GMT-0500 (Central Daylight Time),649039.1000000238,CFD-WM-004-005-HC.jpg,1500,solid,O,m,769,11,1,44185.80000001192,604853.3000000119,7136,ATS,A,17
10,test,2,C,haborder.png,1,z,Mon Jun 02 2025 09:54:39 GMT-0500 (Central Daylight Time),651838.4000000358,CFD-WF-003-014-A.jpg,1700,solid,O,z,1070,9,1,46985.10000002384,604853.3000000119,7136,ATS,A,18
11,test,2,C,haborder.png,1,z,Mon Jun 02 2025 09:54:39 GMT-0500 (Central Daylight Time),654570.8000000119,CFD-BF-039-039-A.jpg,1900,solid,O,z,815,8,1,49717.5,604853.3000000119,7136,ATS,A,19
12,test,2,C,haborder.png,1,z,Mon Jun 02 2025 09:54:39 GMT-0500 (Central Daylight Time),656886.7000000477,CFD-BF-023-013-A.jpg,1400,solid,O,z,884,7,1,52033.40000003576,604853.3000000119,7136,ATS,A,20
12,test,2,C,haborder.png,0,z,Mon Jun 02 2025 09:54:39 GMT-0500 (Central Daylight Time),659702.1000000238,CFD-BF-039-039-A.jpg,1900,solid,O,m,894,8,1,54848.80000001192,604853.3000000119,7136,ATS,A,21
13,test,2,C,mfborder.png,1,z,Mon Jun 02 2025 09:54:39 GMT-0500 (Central Daylight Time),662585.1000000238,CFD-WF-017-016-HC.jpg,1700,dash,O,z,1159,1,1,57731.80000001192,604853.3000000119,7136,ATS,A,22
13,test,2,C,haborder.png,0,m,Mon Jun 02 2025 09:54:39 GMT-0500 (Central Daylight Time),665167.6000000238,CFD-BM-029-026-HC.jpg,1600,solid,O,z,948,10,1,60314.30000001192,604853.3000000119,7136,ATS,A,23
14,test,2,C,mfborder.png,1,m,Mon Jun 02 2025 09:54:39 GMT-0500 (Central Daylight Time),667017.0,CFD-BM-017-052-HC.jpg,1000,dash,O,m,816,4,1,62163.69999998808,604853.3000000119,7136,ATS,A,24
0,test,3,C,mfborder.png,0,m,Mon Jun 02 2025 09:54:39 GMT-0500 (Central Daylight Time),681362.5,CFD-WM-019-013-A.jpg,2000,dash,O,None,1511,5,1,3532.199999988079,677830.3000000119,7136,ATS,A,1
0,test,3,C,mfborder.png,0,z,Mon Jun 02 2025 09:54:39 GMT-0500 (Central Daylight Time),684594.5,CFD-BF-010-005-HC.jpg,1700,dash,O,None,1510,1,1,6764.199999988079,677830.3000000119,7136,ATS,A,2
0,test,3,C,mfborder.png,0,m,Mon Jun 02 2025 09:54:39 GMT-0500 (Central Daylight Time),687127.4000000358,CFD-WM-006-013-HC.jpg,1000,dash,O,None,1515,4,1,9297.100000023842,677830.3000000119,7136,ATS,A,3
1,test,3,C,mfborder.png,1,m,Mon Jun 02 2025 09:54:39 GMT-0500 (Central Daylight Time),688776.8000000119,CFD-WM-006-013-HC.jpg,1000,dash,O,m,618,4,1,10946.5,677830.3000000119,7136,ATS,A,4
1,test,3,C,haborder.png,0,z,Mon Jun 02 2025 09:54:39 GMT-0500 (Central Daylight Time),691710.4000000358,CFD-WM-013-015-A.jpg,1400,solid,O,None,1516,7,1,13880.100000023842,677830.3000000119,7136,ATS,A,5
1,test,3,C,haborder.png,0,m,Mon Jun 02 2025 09:54:39 GMT-0500 (Central Daylight Time),693791.7000000477,CFD-WF-017-016-HC.jpg,1000,solid,O,z,1056,12,1,15961.400000035763,677830.3000000119,7136,ATS,A,6
1,test,3,C,mfborder.png,0,z,Mon Jun 02 2025 09:54:39 GMT-0500 (Central Daylight Time),697024.1000000238,CFD-BF-010-005-HC.jpg,1700,dash,O,None,1515,1,1,19193.80000001192,677830.3000000119,7136,ATS,A,7
1,test,3,C,haborder.png,0,m,Mon Jun 02 2025 09:54:39 GMT-0500 (Central Daylight Time),699652.6000000238,CFD-WF-002-008-HC.jpg,1500,solid,O,z,988,11,1,21822.30000001192,677830.3000000119,7136,ATS,A,8
2,test,3,C,mfborder.png,1,m,Mon Jun 02 2025 09:54:39 GMT-0500 (Central Daylight Time),701939.4000000358,CFD-BM-029-026-HC.jpg,1200,dash,O,m,1056,6,1,24109.100000023842,677830.3000000119,7136,ATS,A,9
3,test,3,C,mfborder.png,1,m,Mon Jun 02 2025 09:54:39 GMT-0500 (Central Daylight Time),703938.4000000358,CFD-BM-029-026-HC.jpg,1200,dash,O,m,782,6,1,26108.100000023842,677830.3000000119,7136,ATS,A,10
4,test,3,C,mfborder.png,1,m,Mon Jun 02 2025 09:54:39 GMT-0500 (Central Daylight Time),706572.3000000119,CFD-WM-019-013-A.jpg,2000,dash,O,m,615,5,1,28742.0,677830.3000000119,7136,ATS,A,11
4,test,3,C,haborder.png,0,m,Mon Jun 02 2025 09:54:39 GMT-0500 (Central Daylight Time),708720.5,CFD-WF-002-008-HC.jpg,1500,solid,O,z,618,11,1,30890.19999998808,677830.3000000119,7136,ATS,A,12
4,test,3,C,mfborder.png,0,z,Mon Jun 02 2025 09:54:39 GMT-0500 (Central Daylight Time),711069.8000000119,CFD-WF-003-014-A.jpg,1500,dash,O,m,816,3,1,33239.5,677830.3000000119,7136,ATS,A,13
4,test,3,C,mfborder.png,0,z,Mon Jun 02 2025 09:54:39 GMT-0500 (Central Daylight Time),713056.0,CFD-WF-003-014-A.jpg,1500,dash,O,m,456,3,1,35225.69999998808,677830.3000000119,7136,ATS,A,14
4,test,3,C,haborder.png,0,m,Mon Jun 02 2025 09:54:39 GMT-0500 (Central Daylight Time),715268.7000000477,CFD-BF-028-020-HC.jpg,1600,solid,O,z,589,10,1,37438.40000003576,677830.3000000119,7136,ATS,A,15
4,test,3,C,haborder.png,0,m,Mon Jun 02 2025 09:54:39 GMT-0500 (Central Daylight Time),718084.3000000119,CFD-BF-028-020-HC.jpg,1600,solid,O,z,1189,10,1,40254.0,677830.3000000119,7136,ATS,A,16
4,test,3,C,haborder.png,0,z,Mon Jun 02 2025 09:54:39 GMT-0500 (Central Daylight Time),720950.1000000238,CFD-BM-005-010-A.jpg,1900,solid,O,m,937,8,1,43119.80000001192,677830.3000000119,7136,ATS,A,17
4,test,3,C,haborder.png,0,z,Mon Jun 02 2025 09:54:39 GMT-0500 (Central Daylight Time),722866.2000000477,CFD-WM-013-015-A.jpg,1400,solid,O,m,500,7,1,45035.90000003576,677830.3000000119,7136,ATS,A,18
4,test,3,C,haborder.png,0,z,Mon Jun 02 2025 09:54:39 GMT-0500 (Central Daylight Time),726298.1000000238,CFD-BM-005-010-A.jpg,1900,solid,O,None,1515,8,1,48467.80000001192,677830.3000000119,7136,ATS,A,19
4,test,3,C,haborder.png,0,z,Mon Jun 02 2025 09:54:39 GMT-0500 (Central Daylight Time),728697.8000000119,CFD-BM-010-019-A.jpg,1700,solid,O,m,682,9,1,50867.5,677830.3000000119,7136,ATS,A,20
5,test,3,C,mfborder.png,1,z,Mon Jun 02 2025 09:54:39 GMT-0500 (Central Daylight Time),730713.4000000358,CFD-BF-023-013-A.jpg,1600,dash,O,z,391,2,1,52883.10000002384,677830.3000000119,7136,ATS,A,21
5,test,3,C,haborder.png,0,m,Mon Jun 02 2025 09:54:39 GMT-0500 (Central Daylight Time),732213.0,CFD-WF-017-016-HC.jpg,1000,solid,O,z,471,12,1,54382.69999998808,677830.3000000119,7136,ATS,A,22
5,test,3,C,haborder.png,0,z,Mon Jun 02 2025 09:54:39 GMT-0500 (Central Daylight Time),734178.9000000358,CFD-BM-010-019-A.jpg,1700,solid,O,m,249,9,1,56348.60000002384,677830.3000000119,7136,ATS,A,23
5,test,3,C,mfborder.png,0,z,Mon Jun 02 2025 09:54:39 GMT-0500 (Central Daylight Time),736294.9000000358,CFD-BF-023-013-A.jpg,1600,dash,O,m,485,2,1,58464.60000002384,677830.3000000119,7136,ATS,A,24
1,test,4,C,mfborder.png,1,z,Mon Jun 02 2025 09:54:39 GMT-0500 (Central Daylight Time),742593.1000000238,CFD-BF-028-020-HC.jpg,1500,dash,O,z,896,3,1,2432.699999988079,740160.4000000358,7136,ATS,A,1
2,test,4,C,haborder.png,1,z,Mon Jun 02 2025 09:54:39 GMT-0500 (Central Daylight Time),745558.8000000119,CFD-BF-039-039-A.jpg,1900,solid,O,z,1032,8,1,5398.399999976158,740160.4000000358,7136,ATS,A,2
3,test,4,C,mfborder.png,1,m,Mon Jun 02 2025 09:54:39 GMT-0500 (Central Daylight Time),747707.9000000358,CFD-BM-017-052-HC.jpg,1000,dash,O,m,1099,4,1,7547.5,740160.4000000358,7136,ATS,A,3
4,test,4,C,haborder.png,1,m,Mon Jun 02 2025 09:54:39 GMT-0500 (Central Daylight Time),749807.4000000358,CFD-WM-004-005-HC.jpg,1000,solid,O,m,1068,12,1,9647.0,740160.4000000358,7136,ATS,A,4
4,test,4,C,haborder.png,0,m,Mon Jun 02 2025 09:54:39 GMT-0500 (Central Daylight Time),752939.7000000477,CFD-BM-029-026-HC.jpg,1600,solid,O,None,1516,10,1,12779.300000011921,740160.4000000358,7136,ATS,A,5
5,test,4,C,mfborder.png,1,m,Mon Jun 02 2025 09:54:39 GMT-0500 (Central Daylight Time),754689.2000000477,CFD-WM-013-015-A.jpg,1200,dash,O,m,525,6,1,14528.800000011921,740160.4000000358,7136,ATS,A,6
5,test,4,C,mfborder.png,0,z,Mon Jun 02 2025 09:54:39 GMT-0500 (Central Daylight Time),756388.7000000477,CFD-WF-019-015-A.jpg,1600,dash,O,m,71,2,1,16228.300000011921,740160.4000000358,7136,ATS,A,7
5,test,4,C,haborder.png,0,z,Mon Jun 02 2025 09:54:39 GMT-0500 (Central Daylight Time),757854.9000000358,CFD-BF-023-013-A.jpg,1400,solid,O,m,44,7,1,17694.5,740160.4000000358,7136,ATS,A,8
6,test,4,C,haborder.png,1,m,Mon Jun 02 2025 09:54:39 GMT-0500 (Central Daylight Time),760170.7000000477,CFD-BM-029-026-HC.jpg,1600,solid,O,m,697,10,1,20010.30000001192,740160.4000000358,7136,ATS,A,9
6,test,4,C,mfborder.png,0,z,Mon Jun 02 2025 09:54:39 GMT-0500 (Central Daylight Time),763036.7000000477,CFD-WF-017-016-HC.jpg,1700,dash,O,m,1146,1,1,22876.30000001192,740160.4000000358,7136,ATS,A,10
7,test,4,C,haborder.png,1,z,Mon Jun 02 2025 09:54:39 GMT-0500 (Central Daylight Time),765585.7000000477,CFD-WF-003-014-A.jpg,1700,solid,O,z,824,9,1,25425.30000001192,740160.4000000358,7136,ATS,A,11
8,test,4,C,haborder.png,1,m,Mon Jun 02 2025 09:54:39 GMT-0500 (Central Daylight Time),767518.4000000358,CFD-WM-004-005-HC.jpg,1500,solid,O,m,412,11,1,27358.0,740160.4000000358,7136,ATS,A,12
9,test,4,C,haborder.png,1,m,Mon Jun 02 2025 09:54:39 GMT-0500 (Central Daylight Time),769534.5,CFD-WM-004-005-HC.jpg,1500,solid,O,m,494,11,1,29374.099999964237,740160.4000000358,7136,ATS,A,13
9,test,4,C,mfborder.png,0,m,Mon Jun 02 2025 09:54:39 GMT-0500 (Central Daylight Time),771383.8000000119,CFD-BM-017-052-HC.jpg,1000,dash,O,z,822,4,1,31223.399999976158,740160.4000000358,7136,ATS,A,14
10,test,4,C,haborder.png,1,z,Mon Jun 02 2025 09:54:39 GMT-0500 (Central Daylight Time),773966.5,CFD-WF-003-014-A.jpg,1700,solid,O,z,852,9,1,33806.09999996424,740160.4000000358,7136,ATS,A,15
11,test,4,C,haborder.png,1,z,Mon Jun 02 2025 09:54:39 GMT-0500 (Central Daylight Time),776132.5,CFD-BF-023-013-A.jpg,1400,solid,O,z,747,7,1,35972.09999996424,740160.4000000358,7136,ATS,A,16
11,test,4,C,mfborder.png,0,z,Mon Jun 02 2025 09:54:39 GMT-0500 (Central Daylight Time),778498.5,CFD-BF-028-020-HC.jpg,1500,dash,O,m,841,3,1,38338.09999996424,740160.4000000358,7136,ATS,A,17
12,test,4,C,mfborder.png,1,m,Mon Jun 02 2025 09:54:39 GMT-0500 (Central Daylight Time),780664.3000000119,CFD-WM-013-015-A.jpg,1200,dash,O,m,934,6,1,40503.89999997616,740160.4000000358,7136,ATS,A,18
13,test,4,C,haborder.png,1,m,Mon Jun 02 2025 09:54:39 GMT-0500 (Central Daylight Time),782797.0,CFD-WM-004-005-HC.jpg,1000,solid,O,m,1105,12,1,42636.59999996424,740160.4000000358,7136,ATS,A,19
14,test,4,C,mfborder.png,1,z,Mon Jun 02 2025 09:54:39 GMT-0500 (Central Daylight Time),785779.4000000358,CFD-WF-017-016-HC.jpg,1700,dash,O,z,1255,1,1,45619.0,740160.4000000358,7136,ATS,A,20
14,test,4,C,mfborder.png,0,z,Mon Jun 02 2025 09:54:39 GMT-0500 (Central Daylight Time),788911.9000000358,CFD-WF-019-015-A.jpg,1600,dash,O,None,1516,2,1,48751.5,740160.4000000358,7136,ATS,A,21
15,test,4,C,mfborder.png,1,m,Mon Jun 02 2025 09:54:39 GMT-0500 (Central Daylight Time),791860.9000000358,CFD-BM-005-010-A.jpg,2000,dash,O,m,928,5,1,51700.5,740160.4000000358,7136,ATS,A,22
15,test,4,C,haborder.png,0,z,Mon Jun 02 2025 09:54:39 GMT-0500 (Central Daylight Time),794976.7000000477,CFD-BF-039-039-A.jpg,1900,solid,O,m,1089,8,1,54816.30000001192,740160.4000000358,7136,ATS,A,23
16,test,4,C,mfborder.png,1,m,Mon Jun 02 2025 09:54:39 GMT-0500 (Central Daylight Time),798092.4000000358,CFD-BM-005-010-A.jpg,2000,dash,O,m,1097,5,1,57932.0,740160.4000000358,7136,ATS,A,24
