acc_sum,block,block_c,condition,correct,correct_response,datetime,endtime,flanker,jitter,project,response,response_test_buffer_response,response_test_target_response,response_time,response_time_test_buffer_response,response_time_test_target_response,row_sel,session_number,start_end,starttime,subject_id,target,task,task_vers,time_test_buffer,time_test_buffer_response,time_test_constants,time_test_flanker,time_test_jitter,time_test_logger,time_test_target,time_test_target_response,time_test_variables,trial
1,prac,1,inc,1,m,Mon Aug 05 2024 14:36:59 GMT-0500 (Central Daylight Time),145848.69999998808,kind,900,O,m,,,531,,,2,1,2726.5,143122.19999998808,7006,rock,AF,B,,,,,,,,,,1
2,prac,1,con,1,m,Mon Aug 05 2024 14:36:59 GMT-0500 (Central Daylight Time),148381.19999998808,step,800,O,m,,,419,,,1,1,2527.2999999821186,145853.90000000596,7006,step,AF,B,,,,,,,,,,2
3,prac,1,inc,1,z,Mon Aug 05 2024 14:36:59 GMT-0500 (Central Daylight Time),151063.59999999404,rock,900,O,z,,,476,,,10,1,2678.0999999940395,148385.5,7006,kind,AF,B,,,,,,,,,,3
4,prac,1,inc,1,z,Mon Aug 05 2024 14:36:59 GMT-0500 (Central Daylight Time),153995.90000000596,window,1100,O,z,,,528,,,16,1,2928.2000000178814,151067.69999998808,7006,temper,AF,B,,,,,,,,,,4
5,prac,1,con,1,m,Mon Aug 05 2024 14:36:59 GMT-0500 (Central Daylight Time),156695.09999999404,remote,1000,O,m,,,393,,,7,1,2694.699999988079,154000.40000000596,7006,remote,AF,B,,,,,,,,,,5
6,prac,1,inc,1,z,Mon Aug 05 2024 14:36:59 GMT-0500 (Central Daylight Time),159427.29999998212,film,900,O,z,,,522,,,14,1,2727.5999999940395,156699.69999998808,7006,hate,AF,B,,,,,,,,,,6
7,prac,1,inc,1,m,Mon Aug 05 2024 14:36:59 GMT-0500 (Central Daylight Time),162218.19999998808,elated,900,O,m,,,540,,,6,1,2786.7999999821186,159431.40000000596,7006,napkin,AF,B,,,,,,,,,,7
8,prac,1,con,1,m,Mon Aug 05 2024 14:36:59 GMT-0500 (Central Daylight Time),165159.29999998212,bell,1000,O,m,,,635,,,3,1,2936.7999999821186,162222.5,7006,bell,AF,B,,,,,,,,,,8
9,prac,1,inc,1,m,Mon Aug 05 2024 14:36:59 GMT-0500 (Central Daylight Time),168041.79999998212,brutal,1100,O,m,,,482,,,8,1,2877.7999999821186,165164.0,7006,window,AF,B,,,,,,,,,,9
10,prac,1,con,1,m,Mon Aug 05 2024 14:36:59 GMT-0500 (Central Daylight Time),170607.40000000596,jacket,800,O,m,,,450,,,5,1,2561.100000023842,168046.29999998212,7006,jacket,AF,B,,,,,,,,,,10
11,prac,1,inc,1,z,Mon Aug 05 2024 14:36:59 GMT-0500 (Central Daylight Time),173473.40000000596,napkin,1100,O,z,,,465,,,12,1,2861.0,170612.40000000596,7006,friend,AF,B,,,,,,,,,,11
12,prac,1,con,1,z,Mon Aug 05 2024 14:36:59 GMT-0500 (Central Daylight Time),176190.09999999404,rage,1000,O,z,,,412,,,15,1,2712.4000000059605,173477.69999998808,7006,rage,AF,B,,,,,,,,,,12
13,prac,1,inc,1,m,Mon Aug 05 2024 14:36:59 GMT-0500 (Central Daylight Time),179104.79999998212,hate,1100,O,m,,,500,,,4,1,2910.699999988079,176194.09999999404,7006,film,AF,B,,,,,,,,,,13
14,prac,1,con,1,z,Mon Aug 05 2024 14:36:59 GMT-0500 (Central Daylight Time),181620.59999999404,brutal,800,O,z,,,403,,,13,1,2511.699999988079,179108.90000000596,7006,brutal,AF,B,,,,,,,,,,14
15,prac,1,con,1,z,Mon Aug 05 2024 14:36:59 GMT-0500 (Central Daylight Time),184286.69999998808,love,1000,O,z,,,351,,,11,1,2661.7999999821186,181624.90000000596,7006,love,AF,B,,,,,,,,,,15
16,prac,1,con,1,z,Mon Aug 05 2024 14:36:59 GMT-0500 (Central Daylight Time),186818.90000000596,elated,800,O,z,,,391,,,9,1,2528.0,184290.90000000596,7006,elated,AF,B,,,,,,,,,,16
1,test,1,con,1,m,Mon Aug 05 2024 14:36:59 GMT-0500 (Central Daylight Time),231838.19999998808,window,800,O,m,m,None,444,245.0,199.0,121,1,1779.2999999821186,230058.90000000596,7006,window,AF,B,228370,228370,226840,227653,226840,228619,228170,228170,228619,1
2,test,1,inc,1,z,Mon Aug 05 2024 14:36:59 GMT-0500 (Central Daylight Time),233737.59999999404,napkin,900,O,z,z,None,384,184.0,200.0,62,1,1895.300000011921,231842.29999998212,7006,temper,AF,B,230319,230319,228623,229613,228624,230519,230119,230119,230518,2
3,test,1,con,1,m,Mon Aug 05 2024 14:36:59 GMT-0500 (Central Daylight Time),235686.90000000596,film,900,O,m,m,None,511,311.0,200.0,90,1,1945.0,233741.90000000596,7006,film,AF,B,232152,232152,230523,231435,230523,232468,231952,231952,232468,3
4,test,1,inc,1,z,Mon Aug 05 2024 14:36:59 GMT-0500 (Central Daylight Time),237519.59999999404,napkin,900,O,z,z,None,386,186.0,200.0,30,1,1828.5999999940395,235691.0,7006,friend,AF,B,234101,234101,232472,233385,232472,234301,233901,233901,234301,4
5,test,1,con,1,z,Mon Aug 05 2024 14:36:59 GMT-0500 (Central Daylight Time),239402.40000000596,kind,1000,O,z,z,None,340,141.0,199.0,11,1,1878.6000000238419,237523.79999998212,7006,kind,AF,B,236034,236034,234305,235318,234305,236184,235834,235834,236183,5
6,test,1,con,1,z,Mon Aug 05 2024 14:36:59 GMT-0500 (Central Daylight Time),241185.09999999404,brutal,900,O,z,z,None,341,142.0,199.0,34,1,1778.800000011921,239406.29999998212,7006,brutal,AF,B,237817,237817,236187,237100,236188,237966,237617,237617,237966,6
7,test,1,inc,1,m,Mon Aug 05 2024 14:36:59 GMT-0500 (Central Daylight Time),243218.09999999404,hate,1100,O,m,m,None,391,192.0,199.0,96,1,2029.0999999940395,241189.0,7006,film,AF,B,239799,239799,237970,239083,237970,239999,239600,239600,239999,7
8,test,1,con,1,m,Mon Aug 05 2024 14:36:59 GMT-0500 (Central Daylight Time),245050.79999998212,jacket,900,O,m,m,None,391,191.0,200.0,98,1,1828.7999999821186,243222.0,7006,jacket,AF,B,241632,241632,240003,240916,240003,241832,241432,241432,241832,8
9,test,1,con,1,z,Mon Aug 05 2024 14:36:59 GMT-0500 (Central Daylight Time),246750.19999998808,rage,800,O,z,z,None,354,154.0,200.0,49,1,1695.5,245054.69999998808,7006,rage,AF,B,243365,243365,241836,242648,241836,243531,243165,243165,243531,9
10,test,1,con,1,z,Mon Aug 05 2024 14:36:59 GMT-0500 (Central Daylight Time),248483.0,hate,800,O,z,z,None,391,191.0,200.0,41,1,1728.9000000059605,246754.09999999404,7006,hate,AF,B,245064,245064,243535,244348,243535,245264,244864,244864,245264,10
11,test,1,con,1,m,Mon Aug 05 2024 14:36:59 GMT-0500 (Central Daylight Time),250282.5,rock,800,O,m,m,None,450,250.0,200.0,73,1,1795.2000000178814,248487.29999998212,7006,rock,AF,B,246797,246797,245268,246081,245269,247064,246597,246597,247064,11
12,test,1,con,1,m,Mon Aug 05 2024 14:36:59 GMT-0500 (Central Daylight Time),251998.5,jacket,800,O,m,m,None,369,170.0,199.0,97,1,1711.9000000059605,250286.59999999404,7006,jacket,AF,B,248596,248597,247068,247880,247068,248780,248397,248397,248779,12
13,test,1,inc,1,z,Mon Aug 05 2024 14:36:59 GMT-0500 (Central Daylight Time),254064.5,window,1100,O,z,z,None,425,226.0,199.0,40,1,2062.300000011921,252002.19999998808,7006,brutal,AF,B,250613,250613,248783,249896,248783,250846,250412,250413,250845,13
14,test,1,con,1,z,Mon Aug 05 2024 14:36:59 GMT-0500 (Central Daylight Time),255930.5,love,1000,O,z,z,None,323,124.0,199.0,19,1,1862.0999999940395,254068.40000000596,7006,love,AF,B,252579,252579,250849,251862,250850,252712,252379,252379,252712,14
15,test,1,con,1,z,Mon Aug 05 2024 14:36:59 GMT-0500 (Central Daylight Time),257746.59999999404,rage,900,O,z,z,None,381,182.0,199.0,50,1,1812.300000011921,255934.29999998212,7006,rage,AF,B,254345,254345,252715,253628,252716,254528,254145,254145,254528,15
16,test,1,con,1,z,Mon Aug 05 2024 14:36:59 GMT-0500 (Central Daylight Time),259729.40000000596,rage,1100,O,z,z,None,334,134.0,200.0,52,1,1979.1000000238419,257750.29999998212,7006,rage,AF,B,256361,256361,254531,255644,254532,256510,256161,256161,256510,16
17,test,1,con,1,m,Mon Aug 05 2024 14:36:59 GMT-0500 (Central Daylight Time),261629.0,rock,1000,O,m,m,None,364,164.0,200.0,75,1,1895.9000000059605,259733.09999999404,7006,rock,AF,B,258243,258243,256514,257527,256514,258410,258043,258043,258410,17
18,test,1,inc,1,z,Mon Aug 05 2024 14:36:59 GMT-0500 (Central Daylight Time),263611.90000000596,bell,1000,O,z,z,None,440,240.0,200.0,23,1,1979.1000000238419,261632.79999998212,7006,love,AF,B,260143,260143,258414,259426,258414,260393,259943,259943,260393,18
19,test,1,inc,1,m,Mon Aug 05 2024 14:36:59 GMT-0500 (Central Daylight Time),265460.90000000596,elated,800,O,m,m,None,505,305.0,200.0,125,1,1844.5,263616.40000000596,7006,window,AF,B,261926,261926,260397,261209,260398,262242,261726,261726,262242,19
20,test,1,con,1,z,Mon Aug 05 2024 14:36:59 GMT-0500 (Central Daylight Time),267127.0,elated,800,O,z,z,None,328,128.0,200.0,1,1,1661.5999999940395,265465.40000000596,7006,elated,AF,B,263775,263775,262246,263059,262247,263908,263575,263575,263908,20
21,test,1,con,1,m,Mon Aug 05 2024 14:36:59 GMT-0500 (Central Daylight Time),268809.90000000596,bell,800,O,m,m,None,342,142.0,200.0,81,1,1679.1000000238419,267130.7999999821,7006,bell,AF,B,265441,265441,263912,264725,263912,265591,265241,265241,265591,21
22,test,1,inc,1,z,Mon Aug 05 2024 14:36:59 GMT-0500 (Central Daylight Time),270875.90000000596,film,1100,O,z,z,None,431,231.0,200.0,56,1,2060.0,268815.90000000596,7006,rage,AF,B,267424,267424,265597,266708,265597,267657,267224,267224,267657,22
23,test,1,con,1,z,Mon Aug 05 2024 14:36:59 GMT-0500 (Central Daylight Time),272592.09999999404,temper,800,O,z,z,None,369,169.0,200.0,57,1,1711.9000000059605,270880.1999999881,7006,temper,AF,B,269190,269190,267661,268474,267661,269373,268990,268990,269373,23
24,test,1,inc,1,z,Mon Aug 05 2024 14:36:59 GMT-0500 (Central Daylight Time),274391.5,jacket,800,O,z,z,None,461,261.0,200.0,37,1,1795.5999999940395,272595.90000000596,7006,brutal,AF,B,270906,270906,269377,270190,269377,271173,270706,270706,271173,24
25,test,1,inc,1,m,Mon Aug 05 2024 14:36:59 GMT-0500 (Central Daylight Time),276640.7999999821,friend,1100,O,m,m,None,608,409.0,199.0,104,1,2245.199999988079,274395.59999999404,7006,jacket,AF,B,273006,273006,271177,272289,271177,273422,272806,272806,273422,25
26,test,1,con,1,m,Mon Aug 05 2024 14:36:59 GMT-0500 (Central Daylight Time),278723.5,film,1000,O,m,m,None,539,340.0,199.0,91,1,2078.7000000178814,276644.7999999821,7006,film,AF,B,275155,275155,273426,274438,273426,275505,274955,274955,275505,26
27,test,1,con,1,z,Mon Aug 05 2024 14:36:59 GMT-0500 (Central Daylight Time),280473.0,love,900,O,z,z,None,300,101.0,199.0,18,1,1745.5999999940395,278727.40000000596,7006,love,AF,B,277138,277138,275508,276421,275509,277254,276938,276938,277254,27
28,test,1,inc,1,z,Mon Aug 05 2024 14:36:59 GMT-0500 (Central Daylight Time),282455.5,rock,900,O,z,z,None,535,336.0,199.0,14,1,1978.7000000178814,280476.7999999821,7006,kind,AF,B,278887,278887,277258,278170,277258,279237,278687,278687,279237,28
29,test,1,inc,1,z,Mon Aug 05 2024 14:36:59 GMT-0500 (Central Daylight Time),284271.6999999881,napkin,900,O,z,z,None,377,177.0,200.0,38,1,1812.5,282459.1999999881,7006,brutal,AF,B,280870,280870,279240,280153,279240,281053,280669,280669,281053,29
30,test,1,inc,1,m,Mon Aug 05 2024 14:36:59 GMT-0500 (Central Daylight Time),286170.90000000596,elated,800,O,m,m,None,565,365.0,200.0,117,1,1894.0,284276.90000000596,7006,remote,AF,B,282586,282586,281058,281869,281058,282952,282386,282386,282952,30
31,test,1,inc,1,z,Mon Aug 05 2024 14:36:59 GMT-0500 (Central Daylight Time),287986.90000000596,rock,900,O,z,z,None,374,174.0,200.0,22,1,1812.2000000178814,286174.6999999881,7006,love,AF,B,284585,284585,282956,283868,282956,284768,284385,284385,284768,31
32,test,1,inc,1,m,Mon Aug 05 2024 14:36:59 GMT-0500 (Central Daylight Time),290020.0,temper,1000,O,m,m,None,498,298.0,200.0,111,1,2029.2000000178814,287990.7999999821,7006,napkin,AF,B,286501,286501,284772,285785,284772,286801,286301,286301,286801,32
33,test,1,con,1,m,Mon Aug 05 2024 14:36:59 GMT-0500 (Central Daylight Time),291919.1999999881,remote,900,O,m,m,None,461,261.0,200.0,114,1,1895.4000000059605,290023.7999999821,7006,remote,AF,B,288434,288434,286805,287717,286805,288700,288234,288234,288700,33
34,test,1,con,1,m,Mon Aug 05 2024 14:36:59 GMT-0500 (Central Daylight Time),293818.5,window,1000,O,m,m,None,364,165.0,199.0,123,1,1895.5,291923.0,7006,window,AF,B,290434,290434,288704,289717,288704,290600,290233,290234,290600,34
35,test,1,con,1,m,Mon Aug 05 2024 14:36:59 GMT-0500 (Central Daylight Time),295834.6999999881,film,1100,O,m,m,None,381,182.0,199.0,92,1,2012.5999999940395,293822.09999999404,7006,film,AF,B,292433,292433,290603,291716,290604,292616,292233,292233,292616,35
35,test,1,con,0,z,Mon Aug 05 2024 14:36:59 GMT-0500 (Central Daylight Time),297834.09999999404,elated,1000,O,m,m,None,458,257.0,201.0,3,1,1995.9000000059605,295838.1999999881,7006,elated,AF,B,294350,294350,292619,293632,292619,294615,294149,294149,294615,36
36,test,1,con,1,z,Mon Aug 05 2024 14:36:59 GMT-0500 (Central Daylight Time),299900.2999999821,temper,1100,O,z,z,None,423,223.0,200.0,60,1,2062.699999988079,297837.59999999404,7006,temper,AF,B,296448,296448,294619,295732,294619,296681,296248,296248,296681,37
37,test,1,con,1,z,Mon Aug 05 2024 14:36:59 GMT-0500 (Central Daylight Time),301816.0,brutal,1000,O,z,z,None,377,177.0,200.0,35,1,1912.0,299904.0,7006,brutal,AF,B,298414,298414,296685,297698,296685,298597,298214,298214,298597,38
38,test,1,inc,1,z,Mon Aug 05 2024 14:36:59 GMT-0500 (Central Daylight Time),303832.40000000596,rock,900,O,z,z,None,472,269.0,203.0,46,1,2012.7000000178814,301819.6999999881,7006,hate,AF,B,300330,300330,298601,299514,298601,300613,300127,300127,300613,39
39,test,1,inc,1,z,Mon Aug 05 2024 14:36:59 GMT-0500 (Central Daylight Time),305598.2999999821,step,800,O,z,z,None,427,228.0,199.0,13,1,1761.699999988079,303836.59999999404,7006,kind,AF,B,302147,302147,300618,301430,300618,302379,301947,301947,302379,40
40,test,1,con,1,m,Mon Aug 05 2024 14:36:59 GMT-0500 (Central Daylight Time),307314.6999999881,step,800,O,m,m,None,366,167.0,199.0,65,1,1713.0,305601.6999999881,7006,step,AF,B,303912,303912,302383,303196,302383,304096,303713,303713,304096,41
41,test,1,inc,1,m,Mon Aug 05 2024 14:36:59 GMT-0500 (Central Daylight Time),309380.59999999404,love,1000,O,m,m,None,521,322.0,199.0,79,1,2062.0999999940395,307318.5,7006,rock,AF,B,305829,305829,304099,305112,304100,306162,305629,305629,306162,42
42,test,1,inc,1,m,Mon Aug 05 2024 14:36:59 GMT-0500 (Central Daylight Time),311463.2999999821,temper,1000,O,m,m,None,535,336.0,199.0,127,1,2079.0999999940395,309384.1999999881,7006,window,AF,B,307895,307895,306165,307178,306166,308244,307695,307695,308244,43
43,test,1,inc,1,m,Mon Aug 05 2024 14:36:59 GMT-0500 (Central Daylight Time),313562.2999999821,love,1000,O,m,m,None,557,358.0,199.0,95,1,2094.899999976158,311467.40000000596,7006,film,AF,B,309977,309977,308248,309261,308249,310344,309778,309778,310343,44
44,test,1,con,1,z,Mon Aug 05 2024 14:36:59 GMT-0500 (Central Daylight Time),315478.6999999881,love,800,O,z,z,None,578,378.0,200.0,17,1,1912.5,313566.1999999881,7006,love,AF,B,311877,311877,310347,311160,310347,312260,311677,311677,312260,45
45,test,1,inc,1,z,Mon Aug 05 2024 14:36:59 GMT-0500 (Central Daylight Time),317561.40000000596,film,1100,O,z,z,None,441,242.0,199.0,24,1,2079.100000023842,315482.2999999821,7006,love,AF,B,314093,314093,312263,313376,312264,314343,313893,313893,314342,46
46,test,1,inc,1,m,Mon Aug 05 2024 14:36:59 GMT-0500 (Central Daylight Time),319310.7999999821,rage,800,O,m,m,None,411,211.0,200.0,77,1,1745.5999999940395,317565.1999999881,7006,rock,AF,B,315876,315876,314346,315159,314347,316092,315675,315675,316092,47
47,test,1,inc,1,z,Mon Aug 05 2024 14:36:59 GMT-0500 (Central Daylight Time),321243.1999999881,bell,1000,O,z,z,None,398,198.0,200.0,55,1,1928.9000000059605,319314.2999999821,7006,rage,AF,B,317825,317825,316095,317108,316096,318024,317625,317625,318024,48
48,test,1,inc,1,z,Mon Aug 05 2024 14:36:59 GMT-0500 (Central Daylight Time),323142.7999999821,jacket,800,O,z,z,None,560,361.0,199.0,61,1,1895.8999999761581,321246.90000000596,7006,temper,AF,B,319557,319558,318028,318841,318028,319924,319358,319358,319924,49
49,test,1,con,1,z,Mon Aug 05 2024 14:36:59 GMT-0500 (Central Daylight Time),324942.2999999821,kind,900,O,z,z,None,362,162.0,200.0,10,1,1795.5999999940395,323146.6999999881,7006,kind,AF,B,321557,321557,319928,320841,319928,321723,321357,321357,321723,50
50,test,1,inc,1,z,Mon Aug 05 2024 14:36:59 GMT-0500 (Central Daylight Time),326725.2999999821,jacket,800,O,z,z,None,446,246.0,200.0,5,1,1779.2999999821186,324946.0,7006,elated,AF,B,323257,323257,321727,322540,321727,323506,323056,323056,323506,51
51,test,1,inc,1,z,Mon Aug 05 2024 14:36:59 GMT-0500 (Central Daylight Time),328841.0,window,1100,O,z,z,None,476,276.0,200.0,32,1,2112.0999999940395,326728.90000000596,7006,friend,AF,B,325339,325339,323510,324623,323510,325622,325139,325139,325622,52
52,test,1,inc,1,m,Mon Aug 05 2024 14:36:59 GMT-0500 (Central Daylight Time),330624.0,kind,900,O,m,m,None,344,144.0,200.0,86,1,1779.2000000178814,328844.7999999821,7006,bell,AF,B,327255,327255,325626,326539,325626,327405,327055,327055,327405,53
53,test,1,inc,1,z,Mon Aug 05 2024 14:36:59 GMT-0500 (Central Daylight Time),332823.2999999821,window,1100,O,z,z,None,553,353.0,200.0,8,1,2195.0999999940395,330628.1999999881,7006,elated,AF,B,329238,329238,327409,328521,327409,329604,329038,329038,329604,54
54,test,1,con,1,z,Mon Aug 05 2024 14:36:59 GMT-0500 (Central Daylight Time),334989.09999999404,hate,1000,O,z,z,None,629,429.0,200.0,43,1,2161.9000000059605,332827.1999999881,7006,hate,AF,B,331337,331338,329608,330621,329608,331770,331137,331137,331770,55
55,test,1,inc,1,m,Mon Aug 05 2024 14:36:59 GMT-0500 (Central Daylight Time),336888.5,kind,900,O,m,m,None,452,252.0,200.0,94,1,1895.5999999940395,334992.90000000596,7006,film,AF,B,333403,333403,331774,332687,331774,333670,333203,333203,333670,56
56,test,1,con,1,z,Mon Aug 05 2024 14:36:59 GMT-0500 (Central Daylight Time),338871.2999999821,hate,1100,O,z,z,None,336,136.0,200.0,44,1,1979.0,336892.2999999821,7006,hate,AF,B,335503,335503,333673,334786,333674,335652,335303,335303,335652,57
57,test,1,inc,1,m,Mon Aug 05 2024 14:36:59 GMT-0500 (Central Daylight Time),340737.2999999821,brutal,900,O,m,m,None,417,217.0,200.0,102,1,1862.0999999940395,338875.1999999881,7006,jacket,AF,B,337286,337286,335656,336569,335657,337518,337085,337085,337518,58
58,test,1,con,1,m,Mon Aug 05 2024 14:36:59 GMT-0500 (Central Daylight Time),342686.5,napkin,1000,O,m,m,None,403,203.0,200.0,107,1,1945.300000011921,340741.1999999881,7006,napkin,AF,B,339252,339252,337522,338536,337523,339468,339051,339051,339468,59
58,test,1,con,0,z,Mon Aug 05 2024 14:36:59 GMT-0500 (Central Daylight Time),344419.5,brutal,800,O,m,m,None,390,190.0,200.0,33,1,1729.4000000059605,342690.09999999404,7006,brutal,AF,B,341001,341001,339471,340285,339471,341201,340801,340801,341201,60
59,test,1,con,1,m,Mon Aug 05 2024 14:36:59 GMT-0500 (Central Daylight Time),346385.59999999404,remote,1100,O,m,m,None,324,124.0,200.0,116,1,1962.300000011921,344423.2999999821,7006,remote,AF,B,343035,343035,341204,342318,341204,343167,342834,342834,343167,61
60,test,1,con,1,m,Mon Aug 05 2024 14:36:59 GMT-0500 (Central Daylight Time),348268.09999999404,window,900,O,m,m,None,438,239.0,199.0,122,1,1878.300000011921,346389.7999999821,7006,window,AF,B,344800,344800,343171,344083,343171,345049,344600,344600,345049,62
61,test,1,con,1,z,Mon Aug 05 2024 14:36:59 GMT-0500 (Central Daylight Time),350084.5,friend,900,O,z,z,None,380,181.0,199.0,26,1,1812.5999999940395,348271.90000000596,7006,friend,AF,B,346682,346682,345053,345966,345053,346866,346483,346483,346865,63
62,test,1,con,1,z,Mon Aug 05 2024 14:36:59 GMT-0500 (Central Daylight Time),352084.09999999404,elated,1100,O,z,z,None,356,156.0,200.0,4,1,1995.800000011921,350088.2999999821,7006,elated,AF,B,348699,348699,346869,347982,346870,348865,348498,348498,348865,64
63,test,1,inc,1,m,Mon Aug 05 2024 14:36:59 GMT-0500 (Central Daylight Time),354233.0,friend,1100,O,m,m,None,500,301.0,199.0,128,1,2145.2000000178814,352087.7999999821,7006,window,AF,B,350698,350698,348869,349981,348869,351014,350498,350498,351014,65
64,test,1,con,1,m,Mon Aug 05 2024 14:36:59 GMT-0500 (Central Daylight Time),356282.59999999404,rock,1100,O,m,m,None,408,208.0,200.0,76,1,2045.699999988079,354236.90000000596,7006,rock,AF,B,352847,352847,351018,352131,351018,353064,352647,352647,353064,66
65,test,1,inc,1,m,Mon Aug 05 2024 14:36:59 GMT-0500 (Central Daylight Time),358181.90000000596,rage,800,O,m,m,None,578,379.0,199.0,93,1,1895.6000000238419,356286.2999999821,7006,film,AF,B,354580,354580,353067,353880,353067,354963,354381,354381,354963,67
65,test,1,con,0,z,Mon Aug 05 2024 14:36:59 GMT-0500 (Central Daylight Time),359931.5,kind,800,O,m,m,None,407,207.0,200.0,9,1,1745.9000000059605,358185.59999999404,7006,kind,AF,B,356496,356496,354967,355780,354967,356713,356296,356296,356713,68
66,test,1,inc,1,m,Mon Aug 05 2024 14:36:59 GMT-0500 (Central Daylight Time),362114.0,hate,1100,O,m,m,None,549,349.0,200.0,88,1,2178.5,359935.5,7006,bell,AF,B,358546,358546,356716,357829,356717,358895,358345,358345,358895,69
67,test,1,con,1,m,Mon Aug 05 2024 14:36:59 GMT-0500 (Central Daylight Time),364180.0,step,1000,O,m,m,None,539,340.0,199.0,67,1,2062.4000000059605,362117.59999999404,7006,step,AF,B,360611,360611,358899,359911,358899,360961,360412,360412,360961,70
68,test,1,inc,1,m,Mon Aug 05 2024 14:36:59 GMT-0500 (Central Daylight Time),366179.1999999881,love,1000,O,m,m,None,465,265.0,200.0,71,1,1995.199999988079,364184.0,7006,step,AF,B,362694,362694,360965,361978,360965,362960,362494,362494,362960,71
69,test,1,con,1,m,Mon Aug 05 2024 14:36:59 GMT-0500 (Central Daylight Time),368012.2999999821,rock,900,O,m,m,None,396,197.0,199.0,74,1,1829.5999999940395,366182.6999999881,7006,rock,AF,B,364594,364594,362964,363877,362964,364793,364394,364394,364793,72
70,test,1,con,1,z,Mon Aug 05 2024 14:36:59 GMT-0500 (Central Daylight Time),369894.90000000596,temper,1000,O,z,z,None,345,145.0,200.0,59,1,1878.9000000059605,368016.0,7006,temper,AF,B,366526,366526,364797,365810,364797,366676,366326,366326,366676,73
71,test,1,con,1,m,Mon Aug 05 2024 14:36:59 GMT-0500 (Central Daylight Time),371861.0,napkin,900,O,m,m,None,522,322.0,200.0,106,1,1962.300000011921,369898.6999999881,7006,napkin,AF,B,368309,368309,366680,367593,366680,368642,368109,368109,368642,74
72,test,1,inc,1,z,Mon Aug 05 2024 14:36:59 GMT-0500 (Central Daylight Time),373810.2999999821,rock,900,O,z,z,None,508,308.0,200.0,54,1,1945.5,371864.7999999821,7006,rage,AF,B,370275,370275,368646,369558,368646,370591,370075,370075,370591,75
73,test,1,con,1,m,Mon Aug 05 2024 14:36:59 GMT-0500 (Central Daylight Time),375609.90000000596,remote,800,O,m,m,None,450,251.0,199.0,113,1,1795.800000011921,373814.09999999404,7006,remote,AF,B,372124,372124,370595,371408,370595,372391,371925,371925,372391,76
74,test,1,inc,1,m,Mon Aug 05 2024 14:36:59 GMT-0500 (Central Daylight Time),377692.5,hate,1100,O,m,m,None,438,239.0,199.0,72,1,2078.9000000059605,375613.59999999404,7006,step,AF,B,374224,374224,372395,373507,372395,374474,374024,374024,374473,77
75,test,1,inc,1,z,Mon Aug 05 2024 14:36:59 GMT-0500 (Central Daylight Time),379725.1999999881,film,1100,O,z,z,None,396,197.0,199.0,48,1,2029.0,377696.1999999881,7006,hate,AF,B,376306,376306,374477,375590,374477,376506,376106,376107,376506,78
76,test,1,con,1,z,Mon Aug 05 2024 14:36:59 GMT-0500 (Central Daylight Time),381624.5,friend,800,O,z,z,None,560,360.0,200.0,25,1,1895.7000000178814,379728.7999999821,7006,friend,AF,B,378039,378039,376510,377323,376510,378406,377839,377839,378405,79
77,test,1,con,1,m,Mon Aug 05 2024 14:36:59 GMT-0500 (Central Daylight Time),383723.90000000596,jacket,1100,O,m,m,None,456,257.0,199.0,100,1,2095.7000000178814,381628.1999999881,7006,jacket,AF,B,380238,380238,378409,379522,378410,380505,380039,380039,380505,80
78,test,1,con,1,m,Mon Aug 05 2024 14:36:59 GMT-0500 (Central Daylight Time),385756.5,bell,1100,O,m,m,None,389,189.0,200.0,84,1,2028.9000000059605,383727.59999999404,7006,bell,AF,B,382338,382338,380509,381621,380509,382538,382138,382138,382537,81
79,test,1,inc,1,m,Mon Aug 05 2024 14:36:59 GMT-0500 (Central Daylight Time),387672.59999999404,brutal,900,O,m,m,None,476,277.0,199.0,110,1,1912.5,385760.09999999404,7006,napkin,AF,B,384170,384170,382541,383454,382541,384454,383971,383971,384454,82
79,test,1,inc,0,z,Mon Aug 05 2024 14:36:59 GMT-0500 (Central Daylight Time),389722.09999999404,remote,1000,O,m,m,None,499,300.0,199.0,39,1,2045.9000000059605,387676.1999999881,7006,brutal,AF,B,386187,386187,384457,385470,384458,386503,385987,385987,386503,83
79,test,1,inc,0,m,Mon Aug 05 2024 14:36:59 GMT-0500 (Central Daylight Time),393054.40000000596,rage,800,O,None,None,None,1799,1799.0,200.0,85,1,3327.9000000059605,389726.5,7006,bell,AF,B,388036,388036,386508,387320,386508,389835,387836,387836,389835,84
80,test,1,inc,1,m,Mon Aug 05 2024 14:36:59 GMT-0500 (Central Daylight Time),394987.0,kind,900,O,m,m,None,489,289.0,200.0,78,1,1928.800000011921,393058.1999999881,7006,rock,AF,B,391470,391470,389839,390752,389839,391768,391269,391269,391768,85
81,test,1,inc,1,z,Mon Aug 05 2024 14:36:59 GMT-0500 (Central Daylight Time),396986.59999999404,remote,1000,O,z,z,None,450,250.0,200.0,31,1,1995.699999988079,394990.90000000596,7006,friend,AF,B,393501,393501,391772,392785,391772,393768,393301,393301,393768,86
82,test,1,con,1,z,Mon Aug 05 2024 14:36:59 GMT-0500 (Central Daylight Time),399069.1999999881,love,1100,O,z,z,None,437,238.0,199.0,20,1,2078.9000000059605,396990.2999999821,7006,love,AF,B,395601,395601,393771,394884,393771,395850,395401,395401,395850,87
83,test,1,con,1,m,Mon Aug 05 2024 14:36:59 GMT-0500 (Central Daylight Time),401118.2999999821,window,1100,O,m,m,None,404,204.0,200.0,124,1,2045.2999999821186,399073.0,7006,window,AF,B,397683,397683,395854,396967,395854,397899,397483,397483,397899,88
84,test,1,inc,1,z,Mon Aug 05 2024 14:36:59 GMT-0500 (Central Daylight Time),402868.1999999881,step,800,O,z,z,None,405,190.0,215.0,45,1,1746.0999999940395,401122.09999999404,7006,hate,AF,B,399449,399449,397903,398716,397903,399649,399234,399234,399649,89
85,test,1,con,1,m,Mon Aug 05 2024 14:36:59 GMT-0500 (Central Daylight Time),404917.2999999821,remote,1000,O,m,m,None,513,313.0,200.0,115,1,2045.5999999940395,402871.6999999881,7006,remote,AF,B,401382,401382,399653,400665,399653,401698,401182,401182,401698,90
86,test,1,con,1,m,Mon Aug 05 2024 14:36:59 GMT-0500 (Central Daylight Time),406716.6999999881,step,900,O,m,m,None,355,156.0,199.0,66,1,1795.699999988079,404921.0,7006,step,AF,B,403331,403331,401702,402615,401702,403498,403132,403132,403498,91
87,test,1,inc,1,z,Mon Aug 05 2024 14:36:59 GMT-0500 (Central Daylight Time),408549.59999999404,step,800,O,z,z,None,487,288.0,199.0,53,1,1829.4000000059605,406720.1999999881,7006,rage,AF,B,405031,405031,403501,404314,403501,405331,404831,404831,405331,92
88,test,1,inc,1,z,Mon Aug 05 2024 14:36:59 GMT-0500 (Central Daylight Time),410548.7999999821,remote,1000,O,z,z,None,462,263.0,199.0,63,1,1995.699999988079,408553.09999999404,7006,temper,AF,B,407064,407064,405334,406347,405334,407330,406864,406864,407330,93
89,test,1,con,1,m,Mon Aug 05 2024 14:36:59 GMT-0500 (Central Daylight Time),412281.90000000596,film,800,O,m,m,None,383,184.0,199.0,89,1,1729.7000000178814,410552.1999999881,7006,film,AF,B,408863,408863,407333,408147,407334,409063,408663,408663,409063,94
90,test,1,inc,1,z,Mon Aug 05 2024 14:36:59 GMT-0500 (Central Daylight Time),414330.90000000596,bell,1000,O,z,z,None,514,315.0,199.0,47,1,2045.300000011921,412285.59999999404,7006,hate,AF,B,410796,410796,409067,410079,409067,411112,410596,410596,411112,95
91,test,1,inc,1,m,Mon Aug 05 2024 14:36:59 GMT-0500 (Central Daylight Time),416430.40000000596,hate,1100,O,m,m,None,462,262.0,200.0,80,1,2095.9000000059605,414334.5,7006,rock,AF,B,412945,412945,411116,412229,411116,413211,412745,412745,413211,96
91,test,1,con,0,z,Mon Aug 05 2024 14:36:59 GMT-0500 (Central Daylight Time),418546.40000000596,kind,1100,O,m,m,None,467,267.0,200.0,12,1,2112.300000011921,416434.09999999404,7006,kind,AF,B,415044,415044,413215,414328,413216,415328,414844,414844,415327,97
92,test,1,con,1,z,Mon Aug 05 2024 14:36:59 GMT-0500 (Central Daylight Time),420462.40000000596,friend,1000,O,z,z,None,370,170.0,200.0,27,1,1912.4000000059605,418550.0,7006,friend,AF,B,417060,417061,415331,416344,415331,417243,416860,416860,417243,98
93,test,1,con,1,m,Mon Aug 05 2024 14:36:59 GMT-0500 (Central Daylight Time),422328.40000000596,bell,900,O,m,m,None,435,235.0,200.0,82,1,1862.300000011921,420466.09999999404,7006,bell,AF,B,418860,418860,417247,418150,417247,419109,418660,418660,419109,99
94,test,1,con,1,z,Mon Aug 05 2024 14:36:59 GMT-0500 (Central Daylight Time),424194.40000000596,rage,1000,O,z,z,None,323,123.0,200.0,51,1,1862.1000000238419,422332.2999999821,7006,rage,AF,B,420844,420844,419113,420126,419114,420976,420643,420643,420975,100
95,test,1,inc,1,z,Mon Aug 05 2024 14:36:59 GMT-0500 (Central Daylight Time),426443.7999999821,film,1100,O,z,z,None,606,407.0,199.0,16,1,2245.699999988079,424198.09999999404,7006,kind,AF,B,422808,422808,420979,422092,420979,423225,422609,422609,423225,101
96,test,1,inc,1,m,Mon Aug 05 2024 14:36:59 GMT-0500 (Central Daylight Time),428443.40000000596,love,1000,O,m,m,None,458,258.0,200.0,87,1,1995.7000000178814,426447.6999999881,7006,bell,AF,B,424958,424958,423229,424241,423229,425224,424758,424758,425224,102
97,test,1,inc,1,z,Mon Aug 05 2024 14:36:59 GMT-0500 (Central Daylight Time),430409.5,bell,1000,O,z,z,None,426,226.0,200.0,15,1,1962.4000000059605,428447.09999999404,7006,kind,AF,B,426957,426957,425228,426241,425228,427191,426757,426757,427190,103
98,test,1,inc,1,m,Mon Aug 05 2024 14:36:59 GMT-0500 (Central Daylight Time),432392.0,brutal,900,O,m,m,None,544,344.0,200.0,118,1,1978.800000011921,430413.1999999881,7006,remote,AF,B,428823,428823,427194,428107,427194,429173,428623,428623,429173,104
99,test,1,con,1,m,Mon Aug 05 2024 14:36:59 GMT-0500 (Central Daylight Time),434474.40000000596,jacket,1000,O,m,m,None,549,349.0,200.0,99,1,2078.800000011921,432395.59999999404,7006,jacket,AF,B,430906,430906,429177,430190,429177,431255,430706,430706,431255,105
100,test,1,inc,1,z,Mon Aug 05 2024 14:36:59 GMT-0500 (Central Daylight Time),436607.59999999404,window,1100,O,z,z,None,494,293.0,201.0,64,1,2129.800000011921,434477.7999999821,7006,temper,AF,B,433090,433090,431259,432372,431259,433389,432889,432889,433389,106
101,test,1,inc,1,m,Mon Aug 05 2024 14:36:59 GMT-0500 (Central Daylight Time),438690.09999999404,friend,1100,O,m,m,None,433,233.0,200.0,112,1,2078.699999988079,436611.40000000596,7006,napkin,AF,B,435222,435222,433392,434505,433393,435471,435021,435021,435471,107
102,test,1,con,1,m,Mon Aug 05 2024 14:36:59 GMT-0500 (Central Daylight Time),440772.6999999881,step,1100,O,m,m,None,439,239.0,200.0,68,1,2078.5999999940395,438694.09999999404,7006,step,AF,B,437304,437304,435475,436588,435475,437554,437104,437104,437554,108
103,test,1,inc,1,z,Mon Aug 05 2024 14:36:59 GMT-0500 (Central Daylight Time),442505.5,jacket,800,O,z,z,None,392,192.0,200.0,29,1,1728.7000000178814,440776.7999999821,7006,friend,AF,B,439087,439087,437558,438370,437558,439287,438887,438887,439286,109
104,test,1,inc,1,m,Mon Aug 05 2024 14:36:59 GMT-0500 (Central Daylight Time),444371.40000000596,kind,900,O,m,m,None,422,223.0,199.0,70,1,1861.9000000059605,442509.5,7006,step,AF,B,440920,440920,439291,440203,439291,441152,440720,440720,441152,110
105,test,1,con,1,m,Mon Aug 05 2024 14:36:59 GMT-0500 (Central Daylight Time),446537.40000000596,napkin,1100,O,m,m,None,516,317.0,199.0,108,1,2161.9000000059605,444375.5,7006,napkin,AF,B,442986,442986,441157,442269,441157,443319,442786,442786,443318,111
106,test,1,inc,1,z,Mon Aug 05 2024 14:36:59 GMT-0500 (Central Daylight Time),448470.2999999821,remote,1000,O,z,z,None,411,212.0,199.0,7,1,1929.199999988079,446541.09999999404,7006,elated,AF,B,445035,445035,443322,444335,443322,445251,444836,444836,445251,112
107,test,1,inc,1,m,Mon Aug 05 2024 14:36:59 GMT-0500 (Central Daylight Time),450269.6999999881,rage,800,O,m,m,None,461,261.0,200.0,69,1,1795.7999999821186,448473.90000000596,7006,step,AF,B,446785,446786,445255,446068,445255,447051,446585,446585,447051,113
108,test,1,con,1,z,Mon Aug 05 2024 14:36:59 GMT-0500 (Central Daylight Time),452302.40000000596,friend,1100,O,z,z,None,395,195.0,200.0,28,1,2029.1000000238419,450273.2999999821,7006,friend,AF,B,448884,448884,447054,448167,447055,449083,448684,448684,449083,114
109,test,1,inc,1,z,Mon Aug 05 2024 14:36:59 GMT-0500 (Central Daylight Time),454018.2999999821,step,800,O,z,z,None,374,175.0,199.0,21,1,1712.0999999940395,452306.1999999881,7006,love,AF,B,450616,450616,449087,449900,449087,450799,450417,450417,450799,115
110,test,1,inc,1,m,Mon Aug 05 2024 14:36:59 GMT-0500 (Central Daylight Time),455751.40000000596,elated,800,O,m,m,None,393,194.0,199.0,109,1,1729.300000011921,454022.09999999404,7006,napkin,AF,B,452333,452333,450803,451616,450803,452532,452133,452133,452532,116
110,test,1,inc,0,m,Mon Aug 05 2024 14:36:59 GMT-0500 (Central Daylight Time),457834.1999999881,temper,1000,O,z,z,None,533,334.0,199.0,103,1,2079.0999999940395,455755.09999999404,7006,jacket,AF,B,454265,454265,452536,453549,452536,454615,454066,454066,454615,117
111,test,1,con,1,z,Mon Aug 05 2024 14:36:59 GMT-0500 (Central Daylight Time),459666.5,elated,900,O,z,z,None,399,199.0,200.0,2,1,1828.7000000178814,457837.7999999821,7006,elated,AF,B,456248,456248,454619,455532,454619,456448,456048,456048,456448,118
112,test,1,con,1,z,Mon Aug 05 2024 14:36:59 GMT-0500 (Central Daylight Time),461516.1999999881,hate,900,O,z,z,None,405,206.0,199.0,42,1,1846.199999988079,459670.0,7006,hate,AF,B,458081,458081,456451,457365,456451,458297,457881,457881,458297,119
113,test,1,con,1,m,Mon Aug 05 2024 14:36:59 GMT-0500 (Central Daylight Time),463365.5,napkin,800,O,m,m,None,511,296.0,215.0,105,1,1845.7000000178814,461519.7999999821,7006,napkin,AF,B,459847,459847,458301,459114,458301,460147,459632,459632,460147,120
114,test,1,inc,1,m,Mon Aug 05 2024 14:36:59 GMT-0500 (Central Daylight Time),465465.0,temper,1000,O,m,m,None,550,351.0,199.0,119,1,2095.800000011921,463369.1999999881,7006,remote,AF,B,461880,461880,460150,461163,460150,462246,461680,461680,462246,121
114,test,1,con,0,z,Mon Aug 05 2024 14:36:59 GMT-0500 (Central Daylight Time),467347.6999999881,temper,900,O,m,m,None,448,248.0,200.0,58,1,1878.9000000059605,465468.7999999821,7006,temper,AF,B,463879,463879,462250,463165,462250,464129,463679,463679,464129,122
115,test,1,inc,1,z,Mon Aug 05 2024 14:36:59 GMT-0500 (Central Daylight Time),469347.0,napkin,900,O,z,z,None,507,307.0,200.0,6,1,1995.5,467351.5,7006,elated,AF,B,465812,465812,464132,465104,464133,466128,465612,465612,466128,123
116,test,1,inc,1,m,Mon Aug 05 2024 14:36:59 GMT-0500 (Central Daylight Time),471246.2999999821,brutal,900,O,m,m,None,462,262.0,200.0,126,1,1895.699999988079,469350.59999999404,7006,window,AF,B,467761,467761,466132,467045,466132,468027,467561,467561,468027,124
117,test,1,inc,1,m,Mon Aug 05 2024 14:36:59 GMT-0500 (Central Daylight Time),473445.5,friend,1100,O,m,m,None,563,363.0,200.0,120,1,2195.5,471250.0,7006,remote,AF,B,469861,469861,468031,469144,468031,470227,469660,469660,470227,125
117,test,1,con,0,m,Mon Aug 05 2024 14:36:59 GMT-0500 (Central Daylight Time),475412.0,bell,1000,O,z,z,None,431,231.0,200.0,83,1,1963.0,473449.0,7006,bell,AF,B,471960,471960,470230,471243,470230,472193,471760,471760,472193,126
118,test,1,inc,1,m,Mon Aug 05 2024 14:36:59 GMT-0500 (Central Daylight Time),477194.7999999821,elated,800,O,m,m,None,434,234.0,200.0,101,1,1779.199999988079,475415.59999999404,7006,jacket,AF,B,473726,473726,472197,473009,472197,473976,473526,473526,473976,127
119,test,1,con,1,z,Mon Aug 05 2024 14:36:59 GMT-0500 (Central Daylight Time),479477.2999999821,brutal,1100,O,z,z,None,637,438.0,199.0,36,1,2278.899999976158,477198.40000000596,7006,brutal,AF,B,475809,475809,473979,475092,473980,476258,475609,475609,476258,128
