acc_sum,block,block_c,change,condition,correct,correct_response,datetime,endtime,face,project,response,response_time,row_sel,session_number,start_end,starttime,subject_id,task,task_vers,trial
0,prac,1,,1-Back,,,Mon May 11 2026 10:34:37 GMT-0500 (Central Daylight Time),,097_m_f_n_a.png,O,space,12532,1,1,,,7795,NNB,B,0
1,prac,1,0.0,1-Back,1.0,m,Mon May 11 2026 10:34:37 GMT-0500 (Central Daylight Time),192619.0,152_y_f_n_a.png,O,m,1136,2,1,1988.6000000238419,190630.39999997616,7795,NNB,B,1
2,prac,1,1.0,1-Back,1.0,z,Mon May 11 2026 10:34:37 GMT-0500 (Central Daylight Time),194368.79999995232,152_y_f_n_a.png,O,z,961,3,1,1744.0,192624.79999995232,7795,NNB,B,2
3,prac,1,0.0,1-Back,1.0,m,Mon May 11 2026 10:34:37 GMT-0500 (Central Daylight Time),196084.59999996424,176_o_m_n_a.png,O,m,857,4,1,1709.300000011921,194375.29999995232,7795,NNB,B,3
4,prac,1,0.0,1-Back,1.0,m,Mon May 11 2026 10:34:37 GMT-0500 (Central Daylight Time),197833.89999997616,126_m_m_n_a.png,O,m,961,5,1,1743.3999999761581,196090.5,7795,NNB,B,4
5,prac,1,1.0,1-Back,1.0,z,Mon May 11 2026 10:34:37 GMT-0500 (Central Daylight Time),199450.0,126_m_m_n_a.png,O,z,827,6,1,1610.5,197839.5,7795,NNB,B,5
6,prac,1,0.0,1-Back,1.0,m,Mon May 11 2026 10:34:37 GMT-0500 (Central Daylight Time),201382.89999997616,086_o_f_n_a.png,O,m,1058,7,1,1926.8999999761581,199456.0,7795,NNB,B,6
7,prac,1,0.0,1-Back,1.0,m,Mon May 11 2026 10:34:37 GMT-0500 (Central Daylight Time),203116.19999998808,178_m_m_n_a.png,O,m,901,8,1,1726.199999988079,201390.0,7795,NNB,B,7
8,prac,1,0.0,1-Back,1.0,m,Mon May 11 2026 10:34:37 GMT-0500 (Central Daylight Time),204865.69999998808,097_m_f_n_a.png,O,m,981,9,1,1740.9000000357628,203124.79999995232,7795,NNB,B,8
9,prac,1,1.0,1-Back,1.0,z,Mon May 11 2026 10:34:37 GMT-0500 (Central Daylight Time),206648.0,097_m_f_n_a.png,O,z,997,10,1,1777.4000000357628,204870.59999996424,7795,NNB,B,9
10,prac,1,0.0,1-Back,1.0,m,Mon May 11 2026 10:34:37 GMT-0500 (Central Daylight Time),208280.0,176_o_m_n_a.png,O,m,842,11,1,1624.7000000476837,206655.29999995232,7795,NNB,B,10
11,prac,1,0.0,1-Back,1.0,m,Mon May 11 2026 10:34:37 GMT-0500 (Central Daylight Time),210097.29999995232,173_y_f_n_a.png,O,m,965,12,1,1809.699999988079,208287.59999996424,7795,NNB,B,11
0,test,1,0.0,1-Back,,,Mon May 11 2026 10:34:37 GMT-0500 (Central Daylight Time),210097.29999995232,152_y_f_n_a.png,O,space,9664,1,1,1809.699999988079,208287.59999996424,7795,NNB,B,0
1,test,1,0.0,1-Back,1.0,m,Mon May 11 2026 10:34:37 GMT-0500 (Central Daylight Time),236672.19999998808,029_m_f_n_a.png,O,m,870,2,1,1897.4000000357628,234774.79999995232,7795,NNB,B,1
2,test,1,0.0,1-Back,1.0,m,Mon May 11 2026 10:34:37 GMT-0500 (Central Daylight Time),238437.09999996424,173_y_f_n_a.png,O,m,738,3,1,1762.699999988079,236674.39999997616,7795,NNB,B,2
3,test,1,1.0,1-Back,1.0,z,Mon May 11 2026 10:34:37 GMT-0500 (Central Daylight Time),240153.69999998808,173_y_f_n_a.png,O,z,693,4,1,1714.699999988079,238439.0,7795,NNB,B,3
4,test,1,0.0,1-Back,1.0,m,Mon May 11 2026 10:34:37 GMT-0500 (Central Daylight Time),242003.19999998808,029_m_f_n_a.png,O,m,817,5,1,1847.5,240155.69999998808,7795,NNB,B,4
5,test,1,0.0,1-Back,1.0,m,Mon May 11 2026 10:34:37 GMT-0500 (Central Daylight Time),244518.69999998808,176_o_m_n_a.png,O,m,1494,6,1,2513.0,242005.69999998808,7795,NNB,B,5
6,test,1,1.0,1-Back,1.0,z,Mon May 11 2026 10:34:37 GMT-0500 (Central Daylight Time),246368.19999998808,176_o_m_n_a.png,O,z,818,7,1,1847.199999988079,244521.0,7795,NNB,B,6
7,test,1,0.0,1-Back,1.0,m,Mon May 11 2026 10:34:37 GMT-0500 (Central Daylight Time),248501.09999996424,126_m_m_n_a.png,O,m,1105,8,1,2130.699999988079,246370.39999997616,7795,NNB,B,7
8,test,1,0.0,1-Back,1.0,m,Mon May 11 2026 10:34:37 GMT-0500 (Central Daylight Time),250667.19999998808,086_o_f_n_a.png,O,m,1134,9,1,2164.0,248503.19999998808,7795,NNB,B,8
9,test,1,0.0,1-Back,1.0,m,Mon May 11 2026 10:34:37 GMT-0500 (Central Daylight Time),252633.29999995232,126_m_m_n_a.png,O,m,933,10,1,1963.5,250669.79999995232,7795,NNB,B,9
10,test,1,0.0,1-Back,1.0,m,Mon May 11 2026 10:34:37 GMT-0500 (Central Daylight Time),254666.79999995232,153_y_m_n_a.png,O,m,1008,11,1,2031.5,252635.29999995232,7795,NNB,B,10
11,test,1,1.0,1-Back,1.0,z,Mon May 11 2026 10:34:37 GMT-0500 (Central Daylight Time),256514.59999996424,153_y_m_n_a.png,O,z,822,12,1,1845.800000011921,254668.79999995232,7795,NNB,B,11
12,test,1,0.0,1-Back,1.0,m,Mon May 11 2026 10:34:37 GMT-0500 (Central Daylight Time),258431.19999998808,110_o_f_n_a.png,O,m,887,13,1,1914.5,256516.69999998808,7795,NNB,B,12
13,test,1,1.0,1-Back,1.0,z,Mon May 11 2026 10:34:37 GMT-0500 (Central Daylight Time),260247.69999998808,110_o_f_n_a.png,O,z,786,14,1,1814.800000011921,258432.89999997616,7795,NNB,B,13
14,test,1,0.0,1-Back,1.0,m,Mon May 11 2026 10:34:37 GMT-0500 (Central Daylight Time),262079.89999997616,013_y_m_n_a.png,O,m,811,15,1,1830.5,260249.39999997616,7795,NNB,B,14
15,test,1,0.0,1-Back,1.0,m,Mon May 11 2026 10:34:37 GMT-0500 (Central Daylight Time),264312.5,097_m_f_n_a.png,O,m,1201,16,1,2230.900000035763,262081.59999996424,7795,NNB,B,15
16,test,1,0.0,1-Back,1.0,m,Mon May 11 2026 10:34:37 GMT-0500 (Central Daylight Time),266329.2999999523,065_o_m_n_a.png,O,m,994,17,1,2014.699999988079,264314.59999996424,7795,NNB,B,16
17,test,1,0.0,1-Back,1.0,m,Mon May 11 2026 10:34:37 GMT-0500 (Central Daylight Time),268494.1999999881,097_m_f_n_a.png,O,m,1135,18,1,2163.100000023842,266331.09999996424,7795,NNB,B,17
0,test,2,0.0,1-Back,,,Mon May 11 2026 10:34:37 GMT-0500 (Central Daylight Time),268494.1999999881,126_m_m_n_a.png,O,space,5931,1,1,2163.100000023842,266331.09999996424,7795,NNB,B,0
1,test,2,0.0,1-Back,1.0,m,Mon May 11 2026 10:34:37 GMT-0500 (Central Daylight Time),278507.5,029_m_f_n_a.png,O,m,1033,2,1,2061.300000011921,276446.1999999881,7795,NNB,B,1
2,test,2,1.0,1-Back,1.0,z,Mon May 11 2026 10:34:37 GMT-0500 (Central Daylight Time),280324.39999997616,029_m_f_n_a.png,O,z,790,3,1,1814.699999988079,278509.6999999881,7795,NNB,B,2
3,test,2,0.0,1-Back,1.0,m,Mon May 11 2026 10:34:37 GMT-0500 (Central Daylight Time),282040.1999999881,126_m_m_n_a.png,O,m,694,4,1,1713.699999988079,280326.5,7795,NNB,B,3
4,test,2,0.0,1-Back,1.0,m,Mon May 11 2026 10:34:37 GMT-0500 (Central Daylight Time),283939.89999997616,153_y_m_n_a.png,O,m,874,5,1,1897.6000000238419,282042.2999999523,7795,NNB,B,4
5,test,2,0.0,1-Back,1.0,m,Mon May 11 2026 10:34:37 GMT-0500 (Central Daylight Time),285672.1999999881,152_y_f_n_a.png,O,m,709,6,1,1730.199999988079,283942.0,7795,NNB,B,5
6,test,2,1.0,1-Back,1.0,z,Mon May 11 2026 10:34:37 GMT-0500 (Central Daylight Time),287422.1999999881,152_y_f_n_a.png,O,z,729,7,1,1748.0,285674.1999999881,7795,NNB,B,6
7,test,2,0.0,1-Back,1.0,m,Mon May 11 2026 10:34:37 GMT-0500 (Central Daylight Time),289154.5,153_y_m_n_a.png,O,m,708,8,1,1730.300000011921,287424.1999999881,7795,NNB,B,7
8,test,2,0.0,1-Back,1.0,m,Mon May 11 2026 10:34:37 GMT-0500 (Central Daylight Time),290920.89999997616,110_o_f_n_a.png,O,m,735,9,1,1764.6000000238419,289156.2999999523,7795,NNB,B,8
9,test,2,0.0,1-Back,1.0,m,Mon May 11 2026 10:34:37 GMT-0500 (Central Daylight Time),292753.5,178_m_m_n_a.png,O,m,801,10,1,1831.0,290922.5,7795,NNB,B,9
10,test,2,1.0,1-Back,1.0,z,Mon May 11 2026 10:34:37 GMT-0500 (Central Daylight Time),294552.6999999881,178_m_m_n_a.png,O,z,767,11,1,1797.0,292755.6999999881,7795,NNB,B,10
11,test,2,0.0,1-Back,1.0,m,Mon May 11 2026 10:34:37 GMT-0500 (Central Daylight Time),296403.09999996424,110_o_f_n_a.png,O,m,825,12,1,1848.699999988079,294554.39999997616,7795,NNB,B,11
12,test,2,0.0,1-Back,1.0,m,Mon May 11 2026 10:34:37 GMT-0500 (Central Daylight Time),298152.59999996424,086_o_f_n_a.png,O,m,727,13,1,1747.5,296405.09999996424,7795,NNB,B,12
13,test,2,0.0,1-Back,1.0,m,Mon May 11 2026 10:34:37 GMT-0500 (Central Daylight Time),299968.5,176_o_m_n_a.png,O,m,794,14,1,1813.9000000357628,298154.59999996424,7795,NNB,B,13
14,test,2,0.0,1-Back,1.0,m,Mon May 11 2026 10:34:37 GMT-0500 (Central Daylight Time),301850.6999999881,065_o_m_n_a.png,O,m,850,15,1,1879.9000000357628,299970.7999999523,7795,NNB,B,14
15,test,2,1.0,1-Back,1.0,z,Mon May 11 2026 10:34:37 GMT-0500 (Central Daylight Time),303650.59999996424,065_o_m_n_a.png,O,z,767,16,1,1798.0999999642372,301852.5,7795,NNB,B,15
16,test,2,0.0,1-Back,1.0,m,Mon May 11 2026 10:34:37 GMT-0500 (Central Daylight Time),305366.59999996424,013_y_m_n_a.png,O,m,695,17,1,1714.0,303652.59999996424,7795,NNB,B,16
17,test,2,1.0,1-Back,1.0,z,Mon May 11 2026 10:34:37 GMT-0500 (Central Daylight Time),307100.0,013_y_m_n_a.png,O,z,701,18,1,1731.6000000238419,305368.39999997616,7795,NNB,B,17
0,test,3,1.0,1-Back,,,Mon May 11 2026 10:34:37 GMT-0500 (Central Daylight Time),307100.0,173_y_f_n_a.png,O,space,3854,1,1,1731.6000000238419,305368.39999997616,7795,NNB,B,0
1,test,3,0.0,1-Back,1.0,m,Mon May 11 2026 10:34:37 GMT-0500 (Central Daylight Time),314913.0,065_o_m_n_a.png,O,m,834,1,1,1861.1000000238419,313051.89999997616,7795,NNB,B,1
2,test,3,1.0,1-Back,1.0,z,Mon May 11 2026 10:34:37 GMT-0500 (Central Daylight Time),316580.09999996424,065_o_m_n_a.png,O,z,641,1,1,1665.0999999642372,314915.0,7795,NNB,B,2
3,test,3,0.0,1-Back,1.0,m,Mon May 11 2026 10:34:37 GMT-0500 (Central Daylight Time),318345.6999999881,097_m_f_n_a.png,O,m,741,1,1,1763.800000011921,316581.89999997616,7795,NNB,B,3
3,test,3,1.0,1-Back,0.0,z,Mon May 11 2026 10:34:37 GMT-0500 (Central Daylight Time),320012.2999999523,097_m_f_n_a.png,O,m,641,1,1,1664.3999999761581,318347.89999997616,7795,NNB,B,4
4,test,3,0.0,1-Back,1.0,m,Mon May 11 2026 10:34:37 GMT-0500 (Central Daylight Time),321995.09999996424,110_o_f_n_a.png,O,m,959,1,1,1980.800000011921,320014.2999999523,7795,NNB,B,5
5,test,3,0.0,1-Back,1.0,m,Mon May 11 2026 10:34:37 GMT-0500 (Central Daylight Time),323927.59999996424,153_y_m_n_a.png,O,m,904,1,1,1930.3999999761581,321997.1999999881,7795,NNB,B,6
6,test,3,0.0,1-Back,1.0,m,Mon May 11 2026 10:34:37 GMT-0500 (Central Daylight Time),325960.39999997616,110_o_f_n_a.png,O,m,1003,1,1,2030.6000000238419,323929.7999999523,7795,NNB,B,7
7,test,3,0.0,1-Back,1.0,m,Mon May 11 2026 10:34:37 GMT-0500 (Central Daylight Time),327876.5,013_y_m_n_a.png,O,m,889,1,1,1913.4000000357628,325963.09999996424,7795,NNB,B,8
8,test,3,1.0,1-Back,1.0,z,Mon May 11 2026 10:34:37 GMT-0500 (Central Daylight Time),329592.0,013_y_m_n_a.png,O,z,694,1,1,1713.6000000238419,327878.39999997616,7795,NNB,B,9
9,test,3,0.0,1-Back,1.0,m,Mon May 11 2026 10:34:37 GMT-0500 (Central Daylight Time),331275.0,029_m_f_n_a.png,O,m,651,1,1,1681.1000000238419,329593.89999997616,7795,NNB,B,10
10,test,3,0.0,1-Back,1.0,m,Mon May 11 2026 10:34:37 GMT-0500 (Central Daylight Time),333274.5,152_y_f_n_a.png,O,m,967,1,1,1997.4000000357628,331277.09999996424,7795,NNB,B,11
11,test,3,1.0,1-Back,1.0,z,Mon May 11 2026 10:34:37 GMT-0500 (Central Daylight Time),334956.5,152_y_f_n_a.png,O,z,656,1,1,1680.300000011921,333276.1999999881,7795,NNB,B,12
12,test,3,0.0,1-Back,1.0,m,Mon May 11 2026 10:34:37 GMT-0500 (Central Daylight Time),336723.39999997616,029_m_f_n_a.png,O,m,733,1,1,1765.300000011921,334958.09999996424,7795,NNB,B,13
13,test,3,0.0,1-Back,1.0,m,Mon May 11 2026 10:34:37 GMT-0500 (Central Daylight Time),338489.2999999523,126_m_m_n_a.png,O,m,743,1,1,1764.0999999642372,336725.1999999881,7795,NNB,B,14
14,test,3,1.0,1-Back,1.0,z,Mon May 11 2026 10:34:37 GMT-0500 (Central Daylight Time),340221.1999999881,126_m_m_n_a.png,O,z,704,1,1,1730.1000000238419,338491.09999996424,7795,NNB,B,15
15,test,3,0.0,1-Back,1.0,m,Mon May 11 2026 10:34:37 GMT-0500 (Central Daylight Time),341988.0,086_o_f_n_a.png,O,m,734,1,1,1765.0,340223.0,7795,NNB,B,16
16,test,3,1.0,1-Back,1.0,z,Mon May 11 2026 10:34:37 GMT-0500 (Central Daylight Time),343820.89999997616,086_o_f_n_a.png,O,z,806,1,1,1831.0,341989.89999997616,7795,NNB,B,17
0,test,4,1.0,1-Back,,,Mon May 11 2026 10:34:37 GMT-0500 (Central Daylight Time),343820.89999997616,097_m_f_n_a.png,O,space,2429,1,1,1831.0,341989.89999997616,7795,NNB,B,0
1,test,4,0.0,1-Back,1.0,m,Mon May 11 2026 10:34:37 GMT-0500 (Central Daylight Time),350318.0,065_o_m_n_a.png,O,m,961,2,1,1979.0,348339.0,7795,NNB,B,1
2,test,4,0.0,1-Back,1.0,m,Mon May 11 2026 10:34:37 GMT-0500 (Central Daylight Time),351917.2999999523,097_m_f_n_a.png,O,m,579,3,1,1597.5,350319.7999999523,7795,NNB,B,2
3,test,4,0.0,1-Back,1.0,m,Mon May 11 2026 10:34:37 GMT-0500 (Central Daylight Time),353802.39999997616,110_o_f_n_a.png,O,m,853,4,1,1883.300000011921,351919.09999996424,7795,NNB,B,3
4,test,4,1.0,1-Back,1.0,z,Mon May 11 2026 10:34:37 GMT-0500 (Central Daylight Time),355500.59999996424,110_o_f_n_a.png,O,z,672,5,1,1695.8999999761581,353804.6999999881,7795,NNB,B,4
5,test,4,0.0,1-Back,1.0,m,Mon May 11 2026 10:34:37 GMT-0500 (Central Daylight Time),357284.0,152_y_f_n_a.png,O,m,758,6,1,1781.300000011921,355502.6999999881,7795,NNB,B,5
6,test,4,0.0,1-Back,1.0,m,Mon May 11 2026 10:34:37 GMT-0500 (Central Daylight Time),359116.5,153_y_m_n_a.png,O,m,801,7,1,1829.9000000357628,357286.59999996424,7795,NNB,B,6
7,test,4,1.0,1-Back,1.0,z,Mon May 11 2026 10:34:37 GMT-0500 (Central Daylight Time),360898.7999999523,153_y_m_n_a.png,O,z,751,8,1,1780.2999999523163,359118.5,7795,NNB,B,7
8,test,4,0.0,1-Back,1.0,m,Mon May 11 2026 10:34:37 GMT-0500 (Central Daylight Time),362597.7999999523,152_y_f_n_a.png,O,m,679,9,1,1697.199999988079,360900.59999996424,7795,NNB,B,8
9,test,4,0.0,1-Back,1.0,m,Mon May 11 2026 10:34:37 GMT-0500 (Central Daylight Time),364363.89999997616,178_m_m_n_a.png,O,m,739,10,1,1764.300000011921,362599.59999996424,7795,NNB,B,9
10,test,4,1.0,1-Back,1.0,z,Mon May 11 2026 10:34:37 GMT-0500 (Central Daylight Time),366180.6999999881,178_m_m_n_a.png,O,z,784,11,1,1815.0,364365.6999999881,7795,NNB,B,10
11,test,4,0.0,1-Back,1.0,m,Mon May 11 2026 10:34:37 GMT-0500 (Central Daylight Time),368080.39999997616,086_o_f_n_a.png,O,m,878,12,1,1897.0,366183.39999997616,7795,NNB,B,11
12,test,4,0.0,1-Back,1.0,m,Mon May 11 2026 10:34:37 GMT-0500 (Central Daylight Time),370078.39999997616,176_o_m_n_a.png,O,m,977,13,1,1995.699999988079,368082.6999999881,7795,NNB,B,12
13,test,4,0.0,1-Back,1.0,m,Mon May 11 2026 10:34:37 GMT-0500 (Central Daylight Time),372112.09999996424,086_o_f_n_a.png,O,m,1011,14,1,2031.5,370080.59999996424,7795,NNB,B,13
14,test,4,0.0,1-Back,1.0,m,Mon May 11 2026 10:34:37 GMT-0500 (Central Daylight Time),374161.1999999881,173_y_f_n_a.png,O,m,1018,15,1,2047.1000000238419,372114.09999996424,7795,NNB,B,14
15,test,4,1.0,1-Back,1.0,z,Mon May 11 2026 10:34:37 GMT-0500 (Central Daylight Time),375894.2999999523,173_y_f_n_a.png,O,z,713,16,1,1731.3999999761581,374162.89999997616,7795,NNB,B,15
16,test,4,0.0,1-Back,1.0,m,Mon May 11 2026 10:34:37 GMT-0500 (Central Daylight Time),377677.09999996424,029_m_f_n_a.png,O,m,752,17,1,1780.800000011921,375896.2999999523,7795,NNB,B,16
17,test,4,1.0,1-Back,1.0,z,Mon May 11 2026 10:34:37 GMT-0500 (Central Daylight Time),379460.09999996424,029_m_f_n_a.png,O,z,767,18,1,1781.199999988079,377678.89999997616,7795,NNB,B,17
0,test,5,1.0,1-Back,,,Mon May 11 2026 10:34:37 GMT-0500 (Central Daylight Time),379460.09999996424,176_o_m_n_a.png,O,space,2158,1,1,1781.199999988079,377678.89999997616,7795,NNB,B,0
1,test,5,1.0,1-Back,1.0,z,Mon May 11 2026 10:34:37 GMT-0500 (Central Daylight Time),385774.5,176_o_m_n_a.png,O,z,1105,2,1,2129.0,383645.5,7795,NNB,B,1
2,test,5,0.0,1-Back,1.0,m,Mon May 11 2026 10:34:37 GMT-0500 (Central Daylight Time),387723.5,152_y_f_n_a.png,O,m,923,3,1,1947.0,385776.5,7795,NNB,B,2
3,test,5,0.0,1-Back,1.0,m,Mon May 11 2026 10:34:37 GMT-0500 (Central Daylight Time),389490.6999999881,153_y_m_n_a.png,O,m,736,4,1,1765.5,387725.1999999881,7795,NNB,B,3
4,test,5,0.0,1-Back,1.0,m,Mon May 11 2026 10:34:37 GMT-0500 (Central Daylight Time),391139.1999999881,152_y_f_n_a.png,O,m,623,5,1,1645.4000000357628,389493.7999999523,7795,NNB,B,4
5,test,5,0.0,1-Back,1.0,m,Mon May 11 2026 10:34:37 GMT-0500 (Central Daylight Time),393221.0,126_m_m_n_a.png,O,m,1054,6,1,2080.100000023842,391140.89999997616,7795,NNB,B,5
6,test,5,1.0,1-Back,1.0,z,Mon May 11 2026 10:34:37 GMT-0500 (Central Daylight Time),394837.89999997616,126_m_m_n_a.png,O,z,588,7,1,1615.1000000238419,393222.7999999523,7795,NNB,B,6
7,test,5,0.0,1-Back,1.0,m,Mon May 11 2026 10:34:37 GMT-0500 (Central Daylight Time),396537.0,173_y_f_n_a.png,O,m,667,8,1,1697.1000000238419,394839.89999997616,7795,NNB,B,7
8,test,5,0.0,1-Back,1.0,m,Mon May 11 2026 10:34:37 GMT-0500 (Central Daylight Time),398319.5,013_y_m_n_a.png,O,m,760,9,1,1780.9000000357628,396538.59999996424,7795,NNB,B,8
9,test,5,0.0,1-Back,1.0,m,Mon May 11 2026 10:34:37 GMT-0500 (Central Daylight Time),400220.39999997616,173_y_f_n_a.png,O,m,874,10,1,1899.1000000238419,398321.2999999523,7795,NNB,B,9
10,test,5,0.0,1-Back,1.0,m,Mon May 11 2026 10:34:37 GMT-0500 (Central Daylight Time),402185.0,086_o_f_n_a.png,O,m,934,11,1,1963.0,400222.0,7795,NNB,B,10
11,test,5,1.0,1-Back,1.0,z,Mon May 11 2026 10:34:37 GMT-0500 (Central Daylight Time),403852.39999997616,086_o_f_n_a.png,O,z,640,12,1,1665.699999988079,402186.6999999881,7795,NNB,B,11
12,test,5,0.0,1-Back,1.0,m,Mon May 11 2026 10:34:37 GMT-0500 (Central Daylight Time),405701.1999999881,065_o_m_n_a.png,O,m,822,13,1,1847.0,403854.1999999881,7795,NNB,B,12
12,test,5,0.0,1-Back,0.0,m,Mon May 11 2026 10:34:37 GMT-0500 (Central Daylight Time),407433.2999999523,097_m_f_n_a.png,O,z,701,14,1,1730.3999999761581,405702.89999997616,7795,NNB,B,13
12,test,5,1.0,1-Back,0.0,z,Mon May 11 2026 10:34:37 GMT-0500 (Central Daylight Time),409483.39999997616,097_m_f_n_a.png,O,m,1018,15,1,2048.399999976158,407435.0,7795,NNB,B,14
13,test,5,0.0,1-Back,1.0,m,Mon May 11 2026 10:34:37 GMT-0500 (Central Daylight Time),411399.2999999523,065_o_m_n_a.png,O,m,895,16,1,1914.0999999642372,409485.1999999881,7795,NNB,B,15
14,test,5,0.0,1-Back,1.0,m,Mon May 11 2026 10:34:37 GMT-0500 (Central Daylight Time),413298.2999999523,029_m_f_n_a.png,O,m,876,17,1,1897.0999999642372,411401.1999999881,7795,NNB,B,16
15,test,5,0.0,1-Back,1.0,m,Mon May 11 2026 10:34:37 GMT-0500 (Central Daylight Time),415165.2999999523,178_m_m_n_a.png,O,m,848,18,1,1865.3999999761581,413299.89999997616,7795,NNB,B,17
0,prac,1,0.0,2-Back,,,Mon May 11 2026 10:34:37 GMT-0500 (Central Daylight Time),415165.2999999523,013_y_m_n_a.png,O,space,10261,1,1,1865.3999999761581,413299.89999997616,7795,NNB,B,0
0,prac,1,0.0,2-Back,,,Mon May 11 2026 10:34:37 GMT-0500 (Central Daylight Time),415165.2999999523,029_m_f_n_a.png,O,space,10261,2,1,1865.3999999761581,413299.89999997616,7795,NNB,B,0
0,prac,1,1.0,2-Back,0.0,m,Mon May 11 2026 10:34:37 GMT-0500 (Central Daylight Time),594143.5999999642,065_o_m_n_a.png,O,None,2006,3,1,2859.0,591284.5999999642,7795,NNB,B,1
0,prac,1,0.0,2-Back,0.0,m,Mon May 11 2026 10:34:37 GMT-0500 (Central Daylight Time),597024.7999999523,086_o_f_n_a.png,O,None,2016,4,1,2871.5,594153.2999999523,7795,NNB,B,2
1,prac,1,0.0,2-Back,1.0,z,Mon May 11 2026 10:34:37 GMT-0500 (Central Daylight Time),599023.8999999762,065_o_m_n_a.png,O,z,1214,5,1,1987.3999999761581,597036.5,7795,NNB,B,3
2,prac,1,1.0,2-Back,1.0,z,Mon May 11 2026 10:34:37 GMT-0500 (Central Daylight Time),601241.5999999642,086_o_f_n_a.png,O,z,1442,6,1,2209.0,599032.5999999642,7795,NNB,B,4
3,prac,1,0.0,2-Back,1.0,m,Mon May 11 2026 10:34:37 GMT-0500 (Central Daylight Time),603257.8999999762,178_m_m_n_a.png,O,m,1147,7,1,2009.699999988079,601248.1999999881,7795,NNB,B,5
4,prac,1,0.0,2-Back,1.0,m,Mon May 11 2026 10:34:37 GMT-0500 (Central Daylight Time),605771.1999999881,176_o_m_n_a.png,O,m,1655,8,1,2504.199999988079,603267.0,7795,NNB,B,6
5,prac,1,0.0,2-Back,1.0,m,Mon May 11 2026 10:34:37 GMT-0500 (Central Daylight Time),608437.7999999523,173_y_f_n_a.png,O,m,1807,9,1,2659.599999964237,605778.1999999881,7795,NNB,B,7
6,prac,1,1.0,2-Back,1.0,z,Mon May 11 2026 10:34:37 GMT-0500 (Central Daylight Time),610303.7999999523,176_o_m_n_a.png,O,z,1086,10,1,1858.699999988079,608445.0999999642,7795,NNB,B,8
7,prac,1,0.0,2-Back,1.0,m,Mon May 11 2026 10:34:37 GMT-0500 (Central Daylight Time),612670.0,152_y_f_n_a.png,O,m,1510,11,1,2357.300000011921,610312.6999999881,7795,NNB,B,9
7,prac,1,0.0,2-Back,0.0,m,Mon May 11 2026 10:34:37 GMT-0500 (Central Daylight Time),614901.5999999642,178_m_m_n_a.png,O,z,1445,12,1,2222.699999988079,612678.8999999762,7795,NNB,B,10
0,test,1,0.0,2-Back,,,Mon May 11 2026 10:34:37 GMT-0500 (Central Daylight Time),614901.5999999642,153_y_m_n_a.png,O,space,14674,1,1,2222.699999988079,612678.8999999762,7795,NNB,B,0
0,test,1,0.0,2-Back,,,Mon May 11 2026 10:34:37 GMT-0500 (Central Daylight Time),614901.5999999642,153_y_m_n_a.png,O,space,14674,2,1,2222.699999988079,612678.8999999762,7795,NNB,B,0
0,test,1,0.0,2-Back,0.0,m,Mon May 11 2026 10:34:37 GMT-0500 (Central Daylight Time),662821.0999999642,086_o_f_n_a.png,O,None,2015,3,1,3025.0,659796.0999999642,7795,NNB,B,1
1,test,1,0.0,2-Back,1.0,m,Mon May 11 2026 10:34:37 GMT-0500 (Central Daylight Time),665187.7999999523,126_m_m_n_a.png,O,m,1345,4,1,2362.199999988079,662825.5999999642,7795,NNB,B,2
2,test,1,1.0,2-Back,1.0,z,Mon May 11 2026 10:34:37 GMT-0500 (Central Daylight Time),667418.3999999762,086_o_f_n_a.png,O,z,1209,5,1,2227.899999976158,665190.5,7795,NNB,B,3
3,test,1,0.0,2-Back,1.0,m,Mon May 11 2026 10:34:37 GMT-0500 (Central Daylight Time),669736.0999999642,152_y_f_n_a.png,O,m,1290,6,1,2314.800000011921,667421.2999999523,7795,NNB,B,4
3,test,1,0.0,2-Back,0.0,m,Mon May 11 2026 10:34:37 GMT-0500 (Central Daylight Time),671916.5,126_m_m_n_a.png,O,z,1155,7,1,2178.400000035763,669738.0999999642,7795,NNB,B,5
4,test,1,1.0,2-Back,1.0,z,Mon May 11 2026 10:34:37 GMT-0500 (Central Daylight Time),673998.7999999523,152_y_f_n_a.png,O,z,1061,8,1,2080.5,671918.2999999523,7795,NNB,B,6
5,test,1,0.0,2-Back,1.0,m,Mon May 11 2026 10:34:37 GMT-0500 (Central Daylight Time),676350.6999999881,013_y_m_n_a.png,O,m,1334,9,1,2349.699999988079,674001.0,7795,NNB,B,7
6,test,1,0.0,2-Back,1.0,m,Mon May 11 2026 10:34:37 GMT-0500 (Central Daylight Time),678698.3999999762,110_o_f_n_a.png,O,m,1325,10,1,2344.699999988079,676353.6999999881,7795,NNB,B,8
7,test,1,1.0,2-Back,1.0,z,Mon May 11 2026 10:34:37 GMT-0500 (Central Daylight Time),680749.3999999762,013_y_m_n_a.png,O,z,1016,11,1,2048.699999988079,678700.6999999881,7795,NNB,B,9
8,test,1,0.0,2-Back,1.0,m,Mon May 11 2026 10:34:37 GMT-0500 (Central Daylight Time),682964.1999999881,029_m_f_n_a.png,O,m,1183,12,1,2211.5,680752.6999999881,7795,NNB,B,10
9,test,1,0.0,2-Back,1.0,m,Mon May 11 2026 10:34:37 GMT-0500 (Central Daylight Time),685445.8999999762,029_m_f_n_a.png,O,m,1465,13,1,2478.399999976158,682967.5,7795,NNB,B,11
10,test,1,0.0,2-Back,1.0,m,Mon May 11 2026 10:34:37 GMT-0500 (Central Daylight Time),687614.6999999881,065_o_m_n_a.png,O,m,1137,14,1,2164.900000035763,685449.7999999523,7795,NNB,B,12
11,test,1,0.0,2-Back,1.0,m,Mon May 11 2026 10:34:37 GMT-0500 (Central Daylight Time),689828.2999999523,110_o_f_n_a.png,O,m,1191,15,1,2210.599999964237,687617.6999999881,7795,NNB,B,13
12,test,1,1.0,2-Back,1.0,z,Mon May 11 2026 10:34:37 GMT-0500 (Central Daylight Time),691793.3999999762,065_o_m_n_a.png,O,z,941,16,1,1962.800000011921,689830.5999999642,7795,NNB,B,14
13,test,1,0.0,2-Back,1.0,m,Mon May 11 2026 10:34:37 GMT-0500 (Central Daylight Time),693961.3999999762,097_m_f_n_a.png,O,m,1139,17,1,2166.0,691795.3999999762,7795,NNB,B,15
14,test,1,0.0,2-Back,1.0,m,Mon May 11 2026 10:34:37 GMT-0500 (Central Daylight Time),696176.8999999762,178_m_m_n_a.png,O,m,1195,18,1,2212.899999976158,693964.0,7795,NNB,B,16
0,test,2,0.0,2-Back,,,Mon May 11 2026 10:34:37 GMT-0500 (Central Daylight Time),696176.8999999762,178_m_m_n_a.png,O,space,4691,1,1,2212.899999976158,693964.0,7795,NNB,B,0
0,test,2,0.0,2-Back,,,Mon May 11 2026 10:34:37 GMT-0500 (Central Daylight Time),696176.8999999762,173_y_f_n_a.png,O,space,4691,2,1,2212.899999976158,693964.0,7795,NNB,B,0
0,test,2,1.0,2-Back,0.0,z,Mon May 11 2026 10:34:37 GMT-0500 (Central Daylight Time),708273.3999999762,178_m_m_n_a.png,O,m,1268,3,1,2294.5,705978.8999999762,7795,NNB,B,1
1,test,2,0.0,2-Back,1.0,m,Mon May 11 2026 10:34:37 GMT-0500 (Central Daylight Time),710488.3999999762,097_m_f_n_a.png,O,m,1187,4,1,2212.300000011921,708276.0999999642,7795,NNB,B,2
1,test,2,0.0,2-Back,0.0,m,Mon May 11 2026 10:34:37 GMT-0500 (Central Daylight Time),712920.0999999642,173_y_f_n_a.png,O,z,1410,5,1,2429.0,710491.0999999642,7795,NNB,B,3
2,test,2,0.0,2-Back,1.0,m,Mon May 11 2026 10:34:37 GMT-0500 (Central Daylight Time),714886.3999999762,065_o_m_n_a.png,O,m,945,6,1,1964.199999988079,712922.1999999881,7795,NNB,B,4
3,test,2,0.0,2-Back,1.0,m,Mon May 11 2026 10:34:37 GMT-0500 (Central Daylight Time),716835.7999999523,152_y_f_n_a.png,O,m,918,7,1,1946.5999999642372,714889.1999999881,7795,NNB,B,5
4,test,2,1.0,2-Back,1.0,z,Mon May 11 2026 10:34:37 GMT-0500 (Central Daylight Time),718601.5999999642,065_o_m_n_a.png,O,z,741,8,1,1760.699999988079,716840.8999999762,7795,NNB,B,6
5,test,2,0.0,2-Back,1.0,m,Mon May 11 2026 10:34:37 GMT-0500 (Central Daylight Time),720601.0999999642,013_y_m_n_a.png,O,m,977,9,1,1993.699999988079,718607.3999999762,7795,NNB,B,7
6,test,2,0.0,2-Back,1.0,m,Mon May 11 2026 10:34:37 GMT-0500 (Central Daylight Time),723350.2999999523,013_y_m_n_a.png,O,m,1729,10,1,2743.199999988079,720607.0999999642,7795,NNB,B,8
7,test,2,0.0,2-Back,1.0,m,Mon May 11 2026 10:34:37 GMT-0500 (Central Daylight Time),725733.7999999523,029_m_f_n_a.png,O,m,1358,11,1,2380.0,723353.7999999523,7795,NNB,B,9
7,test,2,0.0,2-Back,0.0,m,Mon May 11 2026 10:34:37 GMT-0500 (Central Daylight Time),727798.7999999523,173_y_f_n_a.png,O,z,1036,12,1,2060.099999964237,725738.6999999881,7795,NNB,B,10
8,test,2,1.0,2-Back,1.0,z,Mon May 11 2026 10:34:37 GMT-0500 (Central Daylight Time),730031.7999999523,029_m_f_n_a.png,O,z,1213,13,1,2227.899999976158,727803.8999999762,7795,NNB,B,11
9,test,2,0.0,2-Back,1.0,m,Mon May 11 2026 10:34:37 GMT-0500 (Central Daylight Time),732180.5999999642,176_o_m_n_a.png,O,m,1118,14,1,2143.300000011921,730037.2999999523,7795,NNB,B,12
10,test,2,0.0,2-Back,1.0,m,Mon May 11 2026 10:34:37 GMT-0500 (Central Daylight Time),734397.5999999642,176_o_m_n_a.png,O,m,1189,15,1,2210.199999988079,732187.3999999762,7795,NNB,B,13
11,test,2,0.0,2-Back,1.0,m,Mon May 11 2026 10:34:37 GMT-0500 (Central Daylight Time),736662.6999999881,110_o_f_n_a.png,O,m,1238,16,1,2262.800000011921,734399.8999999762,7795,NNB,B,14
12,test,2,0.0,2-Back,1.0,m,Mon May 11 2026 10:34:37 GMT-0500 (Central Daylight Time),738845.5999999642,126_m_m_n_a.png,O,m,1164,17,1,2176.5,736669.0999999642,7795,NNB,B,15
13,test,2,1.0,2-Back,1.0,z,Mon May 11 2026 10:34:37 GMT-0500 (Central Daylight Time),740711.6999999881,110_o_f_n_a.png,O,z,844,18,1,1862.1000000238419,738849.5999999642,7795,NNB,B,16
0,test,3,1.0,2-Back,,,Mon May 11 2026 10:34:37 GMT-0500 (Central Daylight Time),740711.6999999881,153_y_m_n_a.png,O,space,4083,1,1,1862.1000000238419,738849.5999999642,7795,NNB,B,0
0,test,3,1.0,2-Back,,,Mon May 11 2026 10:34:37 GMT-0500 (Central Daylight Time),740711.6999999881,153_y_m_n_a.png,O,space,4083,2,1,1862.1000000238419,738849.5999999642,7795,NNB,B,0
1,test,3,0.0,2-Back,1.0,m,Mon May 11 2026 10:34:37 GMT-0500 (Central Daylight Time),751908.0,110_o_f_n_a.png,O,m,959,3,1,1976.300000011921,749931.6999999881,7795,NNB,B,1
2,test,3,0.0,2-Back,1.0,m,Mon May 11 2026 10:34:37 GMT-0500 (Central Daylight Time),753857.3999999762,178_m_m_n_a.png,O,m,918,4,1,1944.6000000238419,751912.7999999523,7795,NNB,B,2
3,test,3,1.0,2-Back,1.0,z,Mon May 11 2026 10:34:37 GMT-0500 (Central Daylight Time),755940.3999999762,110_o_f_n_a.png,O,z,1051,5,1,2080.0,753860.3999999762,7795,NNB,B,3
3,test,3,0.0,2-Back,0.0,m,Mon May 11 2026 10:34:37 GMT-0500 (Central Daylight Time),757906.0999999642,013_y_m_n_a.png,O,z,941,6,1,1962.699999988079,755943.3999999762,7795,NNB,B,4
4,test,3,0.0,2-Back,1.0,m,Mon May 11 2026 10:34:37 GMT-0500 (Central Daylight Time),760722.2999999523,178_m_m_n_a.png,O,m,1784,7,1,2813.099999964237,757909.1999999881,7795,NNB,B,5
5,test,3,1.0,2-Back,1.0,z,Mon May 11 2026 10:34:37 GMT-0500 (Central Daylight Time),762671.7999999523,013_y_m_n_a.png,O,z,922,8,1,1946.5,760725.2999999523,7795,NNB,B,6
6,test,3,0.0,2-Back,1.0,m,Mon May 11 2026 10:34:37 GMT-0500 (Central Daylight Time),764936.2999999523,173_y_f_n_a.png,O,m,1243,9,1,2261.7999999523163,762674.5,7795,NNB,B,7
7,test,3,0.0,2-Back,1.0,m,Mon May 11 2026 10:34:37 GMT-0500 (Central Daylight Time),767254.0,126_m_m_n_a.png,O,m,1291,10,1,2315.800000011921,764938.1999999881,7795,NNB,B,8
8,test,3,1.0,2-Back,1.0,z,Mon May 11 2026 10:34:37 GMT-0500 (Central Daylight Time),769219.3999999762,173_y_f_n_a.png,O,z,934,11,1,1962.5,767256.8999999762,7795,NNB,B,9
9,test,3,1.0,2-Back,1.0,z,Mon May 11 2026 10:34:37 GMT-0500 (Central Daylight Time),771535.1999999881,126_m_m_n_a.png,O,z,1287,12,1,2314.100000023842,769221.0999999642,7795,NNB,B,10
10,test,3,0.0,2-Back,1.0,m,Mon May 11 2026 10:34:37 GMT-0500 (Central Daylight Time),773834.8999999762,110_o_f_n_a.png,O,m,1275,13,1,2296.199999988079,771538.6999999881,7795,NNB,B,11
11,test,3,0.0,2-Back,1.0,m,Mon May 11 2026 10:34:37 GMT-0500 (Central Daylight Time),776151.2999999523,097_m_f_n_a.png,O,m,1285,14,1,2313.399999976158,773837.8999999762,7795,NNB,B,12
12,test,3,0.0,2-Back,1.0,m,Mon May 11 2026 10:34:37 GMT-0500 (Central Daylight Time),778450.5,065_o_m_n_a.png,O,m,1290,15,1,2297.5,776153.0,7795,NNB,B,13
13,test,3,1.0,2-Back,1.0,z,Mon May 11 2026 10:34:37 GMT-0500 (Central Daylight Time),780417.1999999881,097_m_f_n_a.png,O,z,938,16,1,1964.800000011921,778452.3999999762,7795,NNB,B,14
14,test,3,0.0,2-Back,1.0,m,Mon May 11 2026 10:34:37 GMT-0500 (Central Daylight Time),783367.6999999881,086_o_f_n_a.png,O,m,1924,17,1,2947.0,780420.6999999881,7795,NNB,B,15
15,test,3,0.0,2-Back,1.0,m,Mon May 11 2026 10:34:37 GMT-0500 (Central Daylight Time),785714.2999999523,086_o_f_n_a.png,O,m,1316,18,1,2343.7999999523163,783370.5,7795,NNB,B,16
0,test,4,0.0,2-Back,,,Mon May 11 2026 10:34:37 GMT-0500 (Central Daylight Time),785714.2999999523,176_o_m_n_a.png,O,space,2968,1,1,2343.7999999523163,783370.5,7795,NNB,B,0
0,test,4,0.0,2-Back,,,Mon May 11 2026 10:34:37 GMT-0500 (Central Daylight Time),785714.2999999523,152_y_f_n_a.png,O,space,2968,2,1,2343.7999999523163,783370.5,7795,NNB,B,0
0,test,4,1.0,2-Back,0.0,z,Mon May 11 2026 10:34:37 GMT-0500 (Central Daylight Time),796295.0,176_o_m_n_a.png,O,m,1384,3,1,2408.600000023842,793886.3999999762,7795,NNB,B,1
1,test,4,1.0,2-Back,1.0,z,Mon May 11 2026 10:34:37 GMT-0500 (Central Daylight Time),798393.0999999642,152_y_f_n_a.png,O,z,1076,4,1,2095.300000011921,796297.7999999523,7795,NNB,B,2
2,test,4,0.0,2-Back,1.0,m,Mon May 11 2026 10:34:37 GMT-0500 (Central Daylight Time),800460.7999999523,110_o_f_n_a.png,O,m,1035,5,1,2064.2999999523163,798396.5,7795,NNB,B,3
3,test,4,0.0,2-Back,1.0,m,Mon May 11 2026 10:34:37 GMT-0500 (Central Daylight Time),802476.0,110_o_f_n_a.png,O,m,984,6,1,2013.0,800463.0,7795,NNB,B,4
4,test,4,0.0,2-Back,1.0,m,Mon May 11 2026 10:34:37 GMT-0500 (Central Daylight Time),804591.5,029_m_f_n_a.png,O,m,1086,7,1,2112.300000011921,802479.1999999881,7795,NNB,B,5
5,test,4,0.0,2-Back,1.0,m,Mon May 11 2026 10:34:37 GMT-0500 (Central Daylight Time),806874.5,013_y_m_n_a.png,O,m,1249,8,1,2277.300000011921,804597.1999999881,7795,NNB,B,6
6,test,4,1.0,2-Back,1.0,z,Mon May 11 2026 10:34:37 GMT-0500 (Central Daylight Time),808773.6999999881,029_m_f_n_a.png,O,z,869,9,1,1895.9000000357628,806877.7999999523,7795,NNB,B,7
7,test,4,0.0,2-Back,1.0,m,Mon May 11 2026 10:34:37 GMT-0500 (Central Daylight Time),811055.5999999642,126_m_m_n_a.png,O,m,1253,10,1,2279.199999988079,808776.3999999762,7795,NNB,B,8
7,test,4,0.0,2-Back,0.0,m,Mon May 11 2026 10:34:37 GMT-0500 (Central Daylight Time),813121.5999999642,013_y_m_n_a.png,O,z,1040,11,1,2063.0,811058.5999999642,7795,NNB,B,9
8,test,4,0.0,2-Back,1.0,m,Mon May 11 2026 10:34:37 GMT-0500 (Central Daylight Time),815304.7999999523,086_o_f_n_a.png,O,m,1160,12,1,2181.099999964237,813123.6999999881,7795,NNB,B,10
9,test,4,0.0,2-Back,1.0,m,Mon May 11 2026 10:34:37 GMT-0500 (Central Daylight Time),817437.5,153_y_m_n_a.png,O,m,1102,13,1,2130.7000000476837,815306.7999999523,7795,NNB,B,11
10,test,4,1.0,2-Back,1.0,z,Mon May 11 2026 10:34:37 GMT-0500 (Central Daylight Time),819304.5,086_o_f_n_a.png,O,z,836,14,1,1863.2000000476837,817441.2999999523,7795,NNB,B,12
11,test,4,1.0,2-Back,1.0,z,Mon May 11 2026 10:34:37 GMT-0500 (Central Daylight Time),821286.6999999881,153_y_m_n_a.png,O,z,955,15,1,1980.1000000238419,819306.5999999642,7795,NNB,B,13
12,test,4,0.0,2-Back,1.0,m,Mon May 11 2026 10:34:37 GMT-0500 (Central Daylight Time),823318.1999999881,178_m_m_n_a.png,O,m,1013,16,1,2028.300000011921,821289.8999999762,7795,NNB,B,14
13,test,4,0.0,2-Back,1.0,m,Mon May 11 2026 10:34:37 GMT-0500 (Central Daylight Time),825252.5,097_m_f_n_a.png,O,m,899,17,1,1931.7000000476837,823320.7999999523,7795,NNB,B,15
14,test,4,1.0,2-Back,1.0,z,Mon May 11 2026 10:34:37 GMT-0500 (Central Daylight Time),827134.1999999881,178_m_m_n_a.png,O,z,854,18,1,1878.1000000238419,825256.0999999642,7795,NNB,B,16
0,test,5,1.0,2-Back,,,Mon May 11 2026 10:34:37 GMT-0500 (Central Daylight Time),827134.1999999881,153_y_m_n_a.png,O,space,2341,1,1,1878.1000000238419,825256.0999999642,7795,NNB,B,0
0,test,5,1.0,2-Back,,,Mon May 11 2026 10:34:37 GMT-0500 (Central Daylight Time),827134.1999999881,097_m_f_n_a.png,O,space,2341,2,1,1878.1000000238419,825256.0999999642,7795,NNB,B,0
1,test,5,1.0,2-Back,1.0,z,Mon May 11 2026 10:34:37 GMT-0500 (Central Daylight Time),836631.3999999762,153_y_m_n_a.png,O,z,1081,3,1,2091.100000023842,834540.2999999523,7795,NNB,B,1
2,test,5,1.0,2-Back,1.0,z,Mon May 11 2026 10:34:37 GMT-0500 (Central Daylight Time),838730.7999999523,097_m_f_n_a.png,O,z,1069,4,1,2096.0,836634.7999999523,7795,NNB,B,2
3,test,5,0.0,2-Back,1.0,m,Mon May 11 2026 10:34:37 GMT-0500 (Central Daylight Time),840897.0,086_o_f_n_a.png,O,m,1144,5,1,2162.0,838735.0,7795,NNB,B,3
3,test,5,0.0,2-Back,0.0,m,Mon May 11 2026 10:34:37 GMT-0500 (Central Daylight Time),842946.7999999523,153_y_m_n_a.png,O,z,1026,6,1,2047.699999988079,840899.0999999642,7795,NNB,B,4
4,test,5,0.0,2-Back,1.0,m,Mon May 11 2026 10:34:37 GMT-0500 (Central Daylight Time),844862.0999999642,173_y_f_n_a.png,O,m,889,7,1,1912.0999999642372,842950.0,7795,NNB,B,5
4,test,5,0.0,2-Back,0.0,m,Mon May 11 2026 10:34:37 GMT-0500 (Central Daylight Time),846727.6999999881,086_o_f_n_a.png,O,z,838,8,1,1861.199999988079,844866.5,7795,NNB,B,6
5,test,5,1.0,2-Back,1.0,z,Mon May 11 2026 10:34:37 GMT-0500 (Central Daylight Time),848727.0999999642,173_y_f_n_a.png,O,z,979,9,1,1994.800000011921,846732.2999999523,7795,NNB,B,7
6,test,5,0.0,2-Back,1.0,m,Mon May 11 2026 10:34:37 GMT-0500 (Central Daylight Time),850593.0,065_o_m_n_a.png,O,m,835,10,1,1860.9000000357628,848732.0999999642,7795,NNB,B,8
7,test,5,0.0,2-Back,1.0,m,Mon May 11 2026 10:34:37 GMT-0500 (Central Daylight Time),852692.3999999762,029_m_f_n_a.png,O,m,1068,11,1,2094.600000023842,850597.7999999523,7795,NNB,B,9
8,test,5,0.0,2-Back,1.0,m,Mon May 11 2026 10:34:37 GMT-0500 (Central Daylight Time),854775.6999999881,126_m_m_n_a.png,O,m,1062,12,1,2079.0,852696.6999999881,7795,NNB,B,10
8,test,5,0.0,2-Back,0.0,m,Mon May 11 2026 10:34:37 GMT-0500 (Central Daylight Time),856656.5999999642,065_o_m_n_a.png,O,z,849,13,1,1877.3999999761581,854779.1999999881,7795,NNB,B,11
9,test,5,1.0,2-Back,1.0,z,Mon May 11 2026 10:34:37 GMT-0500 (Central Daylight Time),858807.0,126_m_m_n_a.png,O,z,1121,14,1,2148.5,856658.5,7795,NNB,B,12
10,test,5,0.0,2-Back,1.0,m,Mon May 11 2026 10:34:37 GMT-0500 (Central Daylight Time),860991.0,152_y_f_n_a.png,O,m,1167,15,1,2179.100000023842,858811.8999999762,7795,NNB,B,13
11,test,5,0.0,2-Back,1.0,m,Mon May 11 2026 10:34:37 GMT-0500 (Central Daylight Time),863239.5999999642,176_o_m_n_a.png,O,m,1220,16,1,2244.099999964237,860995.5,7795,NNB,B,14
12,test,5,0.0,2-Back,1.0,m,Mon May 11 2026 10:34:37 GMT-0500 (Central Daylight Time),865405.0,029_m_f_n_a.png,O,m,1139,17,1,2161.400000035763,863243.5999999642,7795,NNB,B,15
13,test,5,1.0,2-Back,1.0,z,Mon May 11 2026 10:34:37 GMT-0500 (Central Daylight Time),867287.2999999523,176_o_m_n_a.png,O,z,853,18,1,1876.5999999642372,865410.6999999881,7795,NNB,B,16
