acc_sum,block,block_c,block_cond,con_img,correct,correct_response,datetime,endtime,face,jitter,line,project,response,response_time,row_sel,session_number,start_end,starttime,subject_id,task,task_vers,trial
1,prac,1,A,haborder.png,1,m,Mon Aug 04 2025 16:37:50 GMT-0500 (Central Daylight Time),52712.59999990463,CFD-WF-011-006-HC.jpg,1500,solid,O,m,1032,11,1,3315.5999999046326,49397.0,7192,ATS,B,1
2,prac,1,A,haborder.png,1,z,Mon Aug 04 2025 16:37:50 GMT-0500 (Central Daylight Time),56028.09999990463,CFD-WM-009-009-A.jpg,1900,solid,O,z,630,8,1,6631.099999904633,49397.0,7192,ATS,B,2
3,prac,1,A,haborder.png,1,z,Mon Aug 04 2025 16:37:50 GMT-0500 (Central Daylight Time),58494.89999985695,CFD-WF-013-015-A.jpg,1000,solid,O,z,682,12,1,9097.899999856949,49397.0,7192,ATS,B,3
4,prac,1,A,haborder.png,1,z,Mon Aug 04 2025 16:37:50 GMT-0500 (Central Daylight Time),61111.09999990463,CFD-BF-051-043-A.jpg,1000,solid,O,z,819,4,1,11714.099999904633,49397.0,7192,ATS,B,4
5,prac,1,A,haborder.png,1,m,Mon Aug 04 2025 16:37:50 GMT-0500 (Central Daylight Time),64443.59999990463,CFD-BM-020-024-HC.jpg,1500,solid,O,m,1056,3,1,15046.599999904633,49397.0,7192,ATS,B,5
6,prac,1,A,haborder.png,1,m,Mon Aug 04 2025 16:37:50 GMT-0500 (Central Daylight Time),67707.59999990463,CFD-WM-012-007-HC.jpg,1700,solid,O,m,774,9,1,18310.599999904633,49397.0,7192,ATS,B,6
7,prac,1,A,haborder.png,1,m,Mon Aug 04 2025 16:37:50 GMT-0500 (Central Daylight Time),70542.09999990463,CFD-WM-011-006-HC.jpg,1400,solid,O,m,639,7,1,21145.099999904633,49397.0,7192,ATS,B,7
7,prac,1,A,haborder.png,0,z,Mon Aug 04 2025 16:37:50 GMT-0500 (Central Daylight Time),74439.19999980927,CFD-WF-026-008-A.jpg,1600,solid,O,None,1517,10,1,25042.199999809265,49397.0,7192,ATS,B,8
8,prac,1,A,haborder.png,1,m,Mon Aug 04 2025 16:37:50 GMT-0500 (Central Daylight Time),78222.79999995232,CFD-BM-015-017-HC.jpg,1700,solid,O,m,1311,1,1,28825.799999952316,49397.0,7192,ATS,B,9
9,prac,1,A,haborder.png,1,m,Mon Aug 04 2025 16:37:50 GMT-0500 (Central Daylight Time),81771.0,CFD-BF-035-007-HC.jpg,2000,solid,O,m,773,5,1,32374.0,49397.0,7192,ATS,B,10
10,prac,1,A,haborder.png,1,z,Mon Aug 04 2025 16:37:50 GMT-0500 (Central Daylight Time),84320.09999990463,CFD-BF-050-012-A.jpg,1200,solid,O,z,552,6,1,34923.09999990463,49397.0,7192,ATS,B,11
11,prac,1,A,haborder.png,1,z,Mon Aug 04 2025 16:37:50 GMT-0500 (Central Daylight Time),87386.39999985695,CFD-BM-037-041-A.jpg,1600,solid,O,z,682,2,1,37989.39999985695,49397.0,7192,ATS,B,12
1,prac,1,B,mfborder.png,1,z,Mon Aug 04 2025 16:37:50 GMT-0500 (Central Daylight Time),107312.5,CFD-WF-027-007-HC.jpg,1900,dash,O,z,718,8,1,3398.5,103914.0,7192,ATS,B,1
2,prac,1,B,mfborder.png,1,m,Mon Aug 04 2025 16:37:50 GMT-0500 (Central Daylight Time),110912.09999990463,CFD-BM-041-048-A.jpg,1600,dash,O,m,1210,2,1,6998.099999904633,103914.0,7192,ATS,B,2
2,prac,1,B,mfborder.png,0,z,Mon Aug 04 2025 16:37:50 GMT-0500 (Central Daylight Time),114610.0,CFD-BF-035-007-HC.jpg,1400,dash,O,None,1515,7,1,10696.0,103914.0,7192,ATS,B,3
3,prac,1,B,mfborder.png,1,z,Mon Aug 04 2025 16:37:50 GMT-0500 (Central Daylight Time),116977.69999980927,CFD-WF-011-006-HC.jpg,1000,dash,O,z,575,12,1,13063.699999809265,103914.0,7192,ATS,B,4
4,prac,1,B,mfborder.png,1,m,Mon Aug 04 2025 16:37:50 GMT-0500 (Central Daylight Time),119673.0,CFD-WM-037-060-A.jpg,1200,dash,O,m,696,6,1,15759.0,103914.0,7192,ATS,B,5
5,prac,1,B,mfborder.png,1,m,Mon Aug 04 2025 16:37:50 GMT-0500 (Central Daylight Time),123123.5,CFD-BM-020-024-HC.jpg,1700,dash,O,m,949,1,1,19209.5,103914.0,7192,ATS,B,6
6,prac,1,B,mfborder.png,1,z,Mon Aug 04 2025 16:37:50 GMT-0500 (Central Daylight Time),126055.5,CFD-BF-027-013-HC.jpg,1500,dash,O,z,633,3,1,22141.5,103914.0,7192,ATS,B,7
7,prac,1,B,mfborder.png,1,m,Mon Aug 04 2025 16:37:50 GMT-0500 (Central Daylight Time),129138.09999990463,CFD-WM-009-009-A.jpg,1700,dash,O,m,583,9,1,25224.099999904633,103914.0,7192,ATS,B,8
8,prac,1,B,mfborder.png,1,z,Mon Aug 04 2025 16:37:50 GMT-0500 (Central Daylight Time),132238.89999985695,CFD-WF-026-008-A.jpg,1500,dash,O,z,827,11,1,28324.89999985695,103914.0,7192,ATS,B,9
9,prac,1,B,mfborder.png,1,m,Mon Aug 04 2025 16:37:50 GMT-0500 (Central Daylight Time),135603.39999985695,CFD-BM-037-041-A.jpg,2000,dash,O,m,582,5,1,31689.39999985695,103914.0,7192,ATS,B,10
9,prac,1,B,mfborder.png,0,z,Mon Aug 04 2025 16:37:50 GMT-0500 (Central Daylight Time),138069.0,CFD-BF-051-043-A.jpg,1000,dash,O,m,652,4,1,34155.0,103914.0,7192,ATS,B,11
10,prac,1,B,mfborder.png,1,m,Mon Aug 04 2025 16:37:50 GMT-0500 (Central Daylight Time),141052.89999985695,CFD-WM-012-007-HC.jpg,1600,dash,O,m,599,10,1,37138.89999985695,103914.0,7192,ATS,B,12
1,test,1,A,haborder.png,1,m,Mon Aug 04 2025 16:37:50 GMT-0500 (Central Daylight Time),157447.39999985695,CFD-WM-011-006-HC.jpg,1400,solid,O,m,791,7,1,2233.0,155214.39999985695,7192,ATS,B,1
2,test,1,A,haborder.png,1,z,Mon Aug 04 2025 16:37:50 GMT-0500 (Central Daylight Time),159112.0,CFD-BF-051-043-A.jpg,1000,solid,O,z,636,4,1,3897.600000143051,155214.39999985695,7192,ATS,B,2
3,test,1,A,haborder.png,1,m,Mon Aug 04 2025 16:37:50 GMT-0500 (Central Daylight Time),161744.59999990463,CFD-BM-015-017-HC.jpg,1700,solid,O,m,901,1,1,6530.200000047684,155214.39999985695,7192,ATS,B,3
4,test,1,A,haborder.png,1,z,Mon Aug 04 2025 16:37:50 GMT-0500 (Central Daylight Time),163577.79999995232,CFD-BF-050-012-A.jpg,1200,solid,O,z,609,6,1,8363.400000095367,155214.39999985695,7192,ATS,B,4
5,test,1,A,haborder.png,1,m,Mon Aug 04 2025 16:37:50 GMT-0500 (Central Daylight Time),166310.5,CFD-BF-035-007-HC.jpg,2000,solid,O,m,705,5,1,11096.100000143051,155214.39999985695,7192,ATS,B,5
6,test,1,A,haborder.png,1,m,Mon Aug 04 2025 16:37:50 GMT-0500 (Central Daylight Time),168792.59999990463,CFD-BM-020-024-HC.jpg,1500,solid,O,m,960,3,1,13578.200000047684,155214.39999985695,7192,ATS,B,6
7,test,1,A,haborder.png,1,m,Mon Aug 04 2025 16:37:50 GMT-0500 (Central Daylight Time),170693.0,CFD-WM-011-006-HC.jpg,1400,solid,O,m,482,7,1,15478.600000143051,155214.39999985695,7192,ATS,B,7
8,test,1,A,haborder.png,1,m,Mon Aug 04 2025 16:37:50 GMT-0500 (Central Daylight Time),173140.69999980927,CFD-BM-015-017-HC.jpg,1700,solid,O,m,730,1,1,17926.299999952316,155214.39999985695,7192,ATS,B,8
9,test,1,A,haborder.png,1,z,Mon Aug 04 2025 16:37:50 GMT-0500 (Central Daylight Time),175441.19999980927,CFD-WF-026-008-A.jpg,1600,solid,O,z,669,10,1,20226.799999952316,155214.39999985695,7192,ATS,B,9
10,test,1,A,haborder.png,1,m,Mon Aug 04 2025 16:37:50 GMT-0500 (Central Daylight Time),177756.69999980927,CFD-WM-012-007-HC.jpg,1700,solid,O,m,590,9,1,22542.299999952316,155214.39999985695,7192,ATS,B,10
11,test,1,A,haborder.png,1,z,Mon Aug 04 2025 16:37:50 GMT-0500 (Central Daylight Time),180023.89999985695,CFD-BM-037-041-A.jpg,1600,solid,O,z,649,2,1,24809.5,155214.39999985695,7192,ATS,B,11
12,test,1,A,haborder.png,1,m,Mon Aug 04 2025 16:37:50 GMT-0500 (Central Daylight Time),182571.59999990463,CFD-WM-012-007-HC.jpg,1700,solid,O,m,823,9,1,27357.200000047684,155214.39999985695,7192,ATS,B,12
13,test,1,A,haborder.png,1,m,Mon Aug 04 2025 16:37:50 GMT-0500 (Central Daylight Time),185438.89999985695,CFD-WF-011-006-HC.jpg,1500,solid,O,m,1349,11,1,30224.5,155214.39999985695,7192,ATS,B,13
14,test,1,A,haborder.png,1,z,Mon Aug 04 2025 16:37:50 GMT-0500 (Central Daylight Time),187720.5,CFD-WF-026-008-A.jpg,1600,solid,O,z,653,10,1,32506.10000014305,155214.39999985695,7192,ATS,B,14
15,test,1,A,haborder.png,1,z,Mon Aug 04 2025 16:37:50 GMT-0500 (Central Daylight Time),190585.59999990463,CFD-WM-009-009-A.jpg,1900,solid,O,z,933,8,1,35371.200000047684,155214.39999985695,7192,ATS,B,15
16,test,1,A,haborder.png,1,z,Mon Aug 04 2025 16:37:50 GMT-0500 (Central Daylight Time),192419.5,CFD-WF-013-015-A.jpg,1000,solid,O,z,801,12,1,37205.10000014305,155214.39999985695,7192,ATS,B,16
17,test,1,A,haborder.png,1,z,Mon Aug 04 2025 16:37:50 GMT-0500 (Central Daylight Time),194249.89999985695,CFD-BF-050-012-A.jpg,1200,solid,O,z,605,6,1,39035.5,155214.39999985695,7192,ATS,B,17
18,test,1,A,haborder.png,1,z,Mon Aug 04 2025 16:37:50 GMT-0500 (Central Daylight Time),195781.59999990463,CFD-WF-013-015-A.jpg,1000,solid,O,z,512,12,1,40567.200000047684,155214.39999985695,7192,ATS,B,18
19,test,1,A,haborder.png,1,m,Mon Aug 04 2025 16:37:50 GMT-0500 (Central Daylight Time),198581.29999995232,CFD-BF-035-007-HC.jpg,2000,solid,O,m,771,5,1,43366.90000009537,155214.39999985695,7192,ATS,B,19
20,test,1,A,haborder.png,1,m,Mon Aug 04 2025 16:37:50 GMT-0500 (Central Daylight Time),200749.29999995232,CFD-WF-011-006-HC.jpg,1500,solid,O,m,649,11,1,45534.90000009537,155214.39999985695,7192,ATS,B,20
21,test,1,A,haborder.png,1,m,Mon Aug 04 2025 16:37:50 GMT-0500 (Central Daylight Time),202947.39999985695,CFD-BM-020-024-HC.jpg,1500,solid,O,m,672,3,1,47733.0,155214.39999985695,7192,ATS,B,21
22,test,1,A,haborder.png,1,z,Mon Aug 04 2025 16:37:50 GMT-0500 (Central Daylight Time),204695.5,CFD-BF-051-043-A.jpg,1000,solid,O,z,727,4,1,49481.10000014305,155214.39999985695,7192,ATS,B,22
22,test,1,A,haborder.png,0,z,Mon Aug 04 2025 16:37:50 GMT-0500 (Central Daylight Time),207495.29999995232,CFD-WM-009-009-A.jpg,1900,solid,O,m,877,8,1,52280.90000009537,155214.39999985695,7192,ATS,B,23
23,test,1,A,haborder.png,1,z,Mon Aug 04 2025 16:37:50 GMT-0500 (Central Daylight Time),209912.19999980927,CFD-BM-037-041-A.jpg,1600,solid,O,z,786,2,1,54697.799999952316,155214.39999985695,7192,ATS,B,24
1,test,1,B,mfborder.png,1,m,Mon Aug 04 2025 16:37:50 GMT-0500 (Central Daylight Time),223656.29999995232,CFD-BM-020-024-HC.jpg,1700,dash,O,m,727,1,1,2448.0,221208.29999995232,7192,ATS,B,1
2,test,1,B,mfborder.png,1,m,Mon Aug 04 2025 16:37:50 GMT-0500 (Central Daylight Time),226355.69999980927,CFD-BM-037-041-A.jpg,2000,dash,O,m,673,5,1,5147.399999856949,221208.29999995232,7192,ATS,B,2
3,test,1,B,mfborder.png,1,z,Mon Aug 04 2025 16:37:50 GMT-0500 (Central Daylight Time),228471.5,CFD-WF-026-008-A.jpg,1500,dash,O,z,585,11,1,7263.200000047684,221208.29999995232,7192,ATS,B,3
4,test,1,B,mfborder.png,1,m,Mon Aug 04 2025 16:37:50 GMT-0500 (Central Daylight Time),230705.5,CFD-WM-012-007-HC.jpg,1600,dash,O,m,609,10,1,9497.200000047684,221208.29999995232,7192,ATS,B,4
5,test,1,B,mfborder.png,1,z,Mon Aug 04 2025 16:37:50 GMT-0500 (Central Daylight Time),232959.59999990463,CFD-BF-027-013-HC.jpg,1500,dash,O,z,724,3,1,11751.299999952316,221208.29999995232,7192,ATS,B,5
6,test,1,B,mfborder.png,1,m,Mon Aug 04 2025 16:37:50 GMT-0500 (Central Daylight Time),235119.39999985695,CFD-BM-041-048-A.jpg,1600,dash,O,m,532,2,1,13911.099999904633,221208.29999995232,7192,ATS,B,6
7,test,1,B,mfborder.png,1,z,Mon Aug 04 2025 16:37:50 GMT-0500 (Central Daylight Time),237686.89999985695,CFD-WF-027-007-HC.jpg,1900,dash,O,z,637,8,1,16478.599999904633,221208.29999995232,7192,ATS,B,7
8,test,1,B,mfborder.png,1,m,Mon Aug 04 2025 16:37:50 GMT-0500 (Central Daylight Time),239936.0,CFD-BM-020-024-HC.jpg,1700,dash,O,m,526,1,1,18727.700000047684,221208.29999995232,7192,ATS,B,8
9,test,1,B,mfborder.png,1,m,Mon Aug 04 2025 16:37:50 GMT-0500 (Central Daylight Time),241752.29999995232,CFD-WM-037-060-A.jpg,1200,dash,O,m,593,6,1,20544.0,221208.29999995232,7192,ATS,B,9
10,test,1,B,mfborder.png,1,z,Mon Aug 04 2025 16:37:50 GMT-0500 (Central Daylight Time),243785.5,CFD-BF-027-013-HC.jpg,1500,dash,O,z,510,3,1,22577.200000047684,221208.29999995232,7192,ATS,B,10
11,test,1,B,mfborder.png,1,z,Mon Aug 04 2025 16:37:50 GMT-0500 (Central Daylight Time),245335.29999995232,CFD-WF-011-006-HC.jpg,1000,dash,O,z,530,12,1,24127.0,221208.29999995232,7192,ATS,B,11
12,test,1,B,mfborder.png,1,z,Mon Aug 04 2025 16:37:50 GMT-0500 (Central Daylight Time),246885.09999990463,CFD-BF-051-043-A.jpg,1000,dash,O,z,536,4,1,25676.799999952316,221208.29999995232,7192,ATS,B,12
13,test,1,B,mfborder.png,1,z,Mon Aug 04 2025 16:37:50 GMT-0500 (Central Daylight Time),249085.39999985695,CFD-BF-035-007-HC.jpg,1400,dash,O,z,782,7,1,27877.099999904633,221208.29999995232,7192,ATS,B,13
14,test,1,B,mfborder.png,1,z,Mon Aug 04 2025 16:37:50 GMT-0500 (Central Daylight Time),251116.5,CFD-WF-011-006-HC.jpg,1000,dash,O,z,1005,12,1,29908.200000047684,221208.29999995232,7192,ATS,B,14
15,test,1,B,mfborder.png,1,z,Mon Aug 04 2025 16:37:50 GMT-0500 (Central Daylight Time),253848.29999995232,CFD-WF-027-007-HC.jpg,1900,dash,O,z,810,8,1,32640.0,221208.29999995232,7192,ATS,B,15
16,test,1,B,mfborder.png,1,m,Mon Aug 04 2025 16:37:50 GMT-0500 (Central Daylight Time),256512.59999990463,CFD-BM-037-041-A.jpg,2000,dash,O,m,635,5,1,35304.299999952316,221208.29999995232,7192,ATS,B,16
16,test,1,B,mfborder.png,0,z,Mon Aug 04 2025 16:37:50 GMT-0500 (Central Daylight Time),258695.5,CFD-BF-035-007-HC.jpg,1400,dash,O,m,759,7,1,37487.200000047684,221208.29999995232,7192,ATS,B,17
17,test,1,B,mfborder.png,1,m,Mon Aug 04 2025 16:37:50 GMT-0500 (Central Daylight Time),261044.89999985695,CFD-BM-041-048-A.jpg,1600,dash,O,m,722,2,1,39836.59999990463,221208.29999995232,7192,ATS,B,18
18,test,1,B,mfborder.png,1,m,Mon Aug 04 2025 16:37:50 GMT-0500 (Central Daylight Time),262896.09999990463,CFD-WM-037-060-A.jpg,1200,dash,O,m,626,6,1,41687.799999952316,221208.29999995232,7192,ATS,B,19
19,test,1,B,mfborder.png,1,m,Mon Aug 04 2025 16:37:50 GMT-0500 (Central Daylight Time),265211.89999985695,CFD-WM-009-009-A.jpg,1700,dash,O,m,589,9,1,44003.59999990463,221208.29999995232,7192,ATS,B,20
20,test,1,B,mfborder.png,1,m,Mon Aug 04 2025 16:37:50 GMT-0500 (Central Daylight Time),267561.7999999523,CFD-WM-012-007-HC.jpg,1600,dash,O,m,727,10,1,46353.5,221208.29999995232,7192,ATS,B,21
21,test,1,B,mfborder.png,1,z,Mon Aug 04 2025 16:37:50 GMT-0500 (Central Daylight Time),269396.59999990463,CFD-BF-051-043-A.jpg,1000,dash,O,z,809,4,1,48188.299999952316,221208.29999995232,7192,ATS,B,22
22,test,1,B,mfborder.png,1,m,Mon Aug 04 2025 16:37:50 GMT-0500 (Central Daylight Time),271627.59999990463,CFD-WM-009-009-A.jpg,1700,dash,O,m,508,9,1,50419.299999952316,221208.29999995232,7192,ATS,B,23
23,test,1,B,mfborder.png,1,z,Mon Aug 04 2025 16:37:50 GMT-0500 (Central Daylight Time),273760.0,CFD-WF-026-008-A.jpg,1500,dash,O,z,614,11,1,52551.700000047684,221208.29999995232,7192,ATS,B,24
0,5,1,C,mfborder.png,0,m,Mon Aug 04 2025 16:37:50 GMT-0500 (Central Daylight Time),299084.2999999523,CFD-BM-037-041-A.jpg,1200,dash,O,None,1515,prac,1,3500.0,295584.2999999523,7192,ATS,B,1
1,9,1,C,haborder.png,1,z,Mon Aug 04 2025 16:37:50 GMT-0500 (Central Daylight Time),302250.7999999523,CFD-WF-026-008-A.jpg,1600,dash,O,z,784,prac,1,6666.5,295584.2999999523,7192,ATS,B,2
2,12,1,C,haborder.png,1,m,Mon Aug 04 2025 16:37:50 GMT-0500 (Central Daylight Time),305765.69999980927,CFD-WM-011-006-HC.jpg,1400,solid,O,m,1329,prac,1,10181.399999856949,295584.2999999523,7192,ATS,B,3
3,10,1,C,haborder.png,1,m,Mon Aug 04 2025 16:37:50 GMT-0500 (Central Daylight Time),309082.89999985695,CFD-BM-020-024-HC.jpg,1500,solid,O,m,1016,prac,1,13498.599999904633,295584.2999999523,7192,ATS,B,4
4,3,1,C,mfborder.png,1,z,Mon Aug 04 2025 16:37:50 GMT-0500 (Central Daylight Time),311961.7999999523,CFD-BF-035-007-HC.jpg,1000,dash,O,z,1091,prac,1,16377.5,295584.2999999523,7192,ATS,B,5
5,8,1,C,haborder.png,1,z,Mon Aug 04 2025 16:37:50 GMT-0500 (Central Daylight Time),315611.39999985695,CFD-BF-050-012-A.jpg,1700,solid,O,z,1155,prac,1,20027.099999904633,295584.2999999523,7192,ATS,B,6
6,11,1,C,haborder.png,1,m,Mon Aug 04 2025 16:37:50 GMT-0500 (Central Daylight Time),318228.89999985695,CFD-WM-011-006-HC.jpg,1000,dash,O,m,824,prac,1,22644.599999904633,295584.2999999523,7192,ATS,B,7
7,2,1,C,mfborder.png,1,z,Mon Aug 04 2025 16:37:50 GMT-0500 (Central Daylight Time),321278.0,CFD-WF-013-015-A.jpg,1500,solid,O,z,763,prac,1,25693.700000047684,295584.2999999523,7192,ATS,B,8
8,6,1,C,mfborder.png,1,m,Mon Aug 04 2025 16:37:50 GMT-0500 (Central Daylight Time),324359.2999999523,CFD-WM-009-009-A.jpg,1700,solid,O,m,595,prac,1,28775.0,295584.2999999523,7192,ATS,B,9
9,1,1,C,mfborder.png,1,z,Mon Aug 04 2025 16:37:50 GMT-0500 (Central Daylight Time),327575.7999999523,CFD-WF-011-006-HC.jpg,1600,dash,O,z,818,prac,1,31991.5,295584.2999999523,7192,ATS,B,10
10,4,1,C,mfborder.png,1,m,Mon Aug 04 2025 16:37:50 GMT-0500 (Central Daylight Time),331274.19999980927,CFD-BM-015-017-HC.jpg,2000,solid,O,m,908,prac,1,35689.89999985695,295584.2999999523,7192,ATS,B,11
11,7,1,C,haborder.png,1,z,Mon Aug 04 2025 16:37:50 GMT-0500 (Central Daylight Time),334723.69999980927,CFD-BF-051-043-A.jpg,1900,dash,O,z,757,prac,1,39139.39999985695,295584.2999999523,7192,ATS,B,12
1,test,1,C,mfborder.png,1,z,Mon Aug 04 2025 16:37:50 GMT-0500 (Central Daylight Time),348735.09999990463,CFD-WF-026-008-A.jpg,1500,dash,O,z,896,3,1,2415.2999999523163,346319.7999999523,7192,ATS,B,1
1,test,1,C,mfborder.png,0,z,Mon Aug 04 2025 16:37:50 GMT-0500 (Central Daylight Time),351869.89999985695,CFD-BF-027-013-HC.jpg,1700,dash,O,m,1414,1,1,5550.099999904633,346319.7999999523,7192,ATS,B,2
1,test,1,C,mfborder.png,0,z,Mon Aug 04 2025 16:37:50 GMT-0500 (Central Daylight Time),355099.39999985695,CFD-BF-027-013-HC.jpg,1700,dash,O,None,1514,1,1,8779.599999904633,346319.7999999523,7192,ATS,B,3
2,test,1,C,mfborder.png,1,m,Mon Aug 04 2025 16:37:50 GMT-0500 (Central Daylight Time),356798.69999980927,CFD-WM-012-007-HC.jpg,1000,dash,O,m,679,4,1,10478.899999856949,346319.7999999523,7192,ATS,B,4
2,test,1,C,haborder.png,0,m,Mon Aug 04 2025 16:37:50 GMT-0500 (Central Daylight Time),359415.09999990463,CFD-WF-027-007-HC.jpg,1500,solid,O,z,1085,11,1,13095.299999952316,346319.7999999523,7192,ATS,B,5
3,test,1,C,mfborder.png,1,m,Mon Aug 04 2025 16:37:50 GMT-0500 (Central Daylight Time),361532.2999999523,CFD-WM-012-007-HC.jpg,1000,dash,O,m,1100,4,1,15212.5,346319.7999999523,7192,ATS,B,6
3,test,1,C,haborder.png,0,m,Mon Aug 04 2025 16:37:50 GMT-0500 (Central Daylight Time),363463.5,CFD-WF-011-006-HC.jpg,1000,solid,O,z,902,12,1,17143.700000047684,346319.7999999523,7192,ATS,B,7
3,test,1,C,haborder.png,0,z,Mon Aug 04 2025 16:37:50 GMT-0500 (Central Daylight Time),366896.59999990463,CFD-BM-037-041-A.jpg,1900,solid,O,None,1515,8,1,20576.799999952316,346319.7999999523,7192,ATS,B,8
4,test,1,C,haborder.png,1,m,Mon Aug 04 2025 16:37:50 GMT-0500 (Central Daylight Time),368979.09999990463,CFD-WF-011-006-HC.jpg,1000,solid,O,m,1052,12,1,22659.299999952316,346319.7999999523,7192,ATS,B,9
5,test,1,C,haborder.png,1,z,Mon Aug 04 2025 16:37:50 GMT-0500 (Central Daylight Time),371812.69999980927,CFD-BM-037-041-A.jpg,1900,solid,O,z,909,8,1,25492.89999985695,346319.7999999523,7192,ATS,B,10
6,test,1,C,mfborder.png,1,z,Mon Aug 04 2025 16:37:50 GMT-0500 (Central Daylight Time),374426.89999985695,CFD-BF-051-043-A.jpg,1600,dash,O,z,983,2,1,28107.099999904633,346319.7999999523,7192,ATS,B,11
7,test,1,C,haborder.png,1,m,Mon Aug 04 2025 16:37:50 GMT-0500 (Central Daylight Time),377525.69999980927,CFD-BF-035-007-HC.jpg,1600,solid,O,m,1478,10,1,31205.89999985695,346319.7999999523,7192,ATS,B,12
8,test,1,C,haborder.png,1,z,Mon Aug 04 2025 16:37:50 GMT-0500 (Central Daylight Time),379958.59999990463,CFD-WM-009-009-A.jpg,1400,solid,O,z,1013,7,1,33638.799999952316,346319.7999999523,7192,ATS,B,13
9,test,1,C,haborder.png,1,z,Mon Aug 04 2025 16:37:50 GMT-0500 (Central Daylight Time),382625.19999980927,CFD-BM-041-048-A.jpg,1700,solid,O,z,936,9,1,36305.39999985695,346319.7999999523,7192,ATS,B,14
10,test,1,C,haborder.png,1,z,Mon Aug 04 2025 16:37:50 GMT-0500 (Central Daylight Time),384724.5,CFD-WM-009-009-A.jpg,1400,solid,O,z,682,7,1,38404.700000047684,346319.7999999523,7192,ATS,B,15
11,test,1,C,mfborder.png,1,m,Mon Aug 04 2025 16:37:50 GMT-0500 (Central Daylight Time),387640.09999990463,CFD-WM-037-060-A.jpg,2000,dash,O,m,895,5,1,41320.299999952316,346319.7999999523,7192,ATS,B,16
12,test,1,C,mfborder.png,1,m,Mon Aug 04 2025 16:37:50 GMT-0500 (Central Daylight Time),389689.19999980927,CFD-BM-020-024-HC.jpg,1200,dash,O,m,817,6,1,43369.39999985695,346319.7999999523,7192,ATS,B,17
13,test,1,C,mfborder.png,1,m,Mon Aug 04 2025 16:37:50 GMT-0500 (Central Daylight Time),392304.5,CFD-WM-037-060-A.jpg,2000,dash,O,m,592,5,1,45984.700000047684,346319.7999999523,7192,ATS,B,18
14,test,1,C,mfborder.png,1,m,Mon Aug 04 2025 16:37:50 GMT-0500 (Central Daylight Time),394188.69999980927,CFD-BM-020-024-HC.jpg,1200,dash,O,m,650,6,1,47868.89999985695,346319.7999999523,7192,ATS,B,19
14,test,1,C,haborder.png,0,m,Mon Aug 04 2025 16:37:50 GMT-0500 (Central Daylight Time),397006.69999980927,CFD-WF-027-007-HC.jpg,1500,solid,O,z,1290,11,1,50686.89999985695,346319.7999999523,7192,ATS,B,20
14,test,1,C,mfborder.png,0,z,Mon Aug 04 2025 16:37:50 GMT-0500 (Central Daylight Time),400119.09999990463,CFD-BF-051-043-A.jpg,1600,dash,O,m,1486,2,1,53799.299999952316,346319.7999999523,7192,ATS,B,21
15,test,1,C,haborder.png,1,z,Mon Aug 04 2025 16:37:50 GMT-0500 (Central Daylight Time),403334.7999999523,CFD-BM-041-048-A.jpg,1700,solid,O,z,1487,9,1,57015.0,346319.7999999523,7192,ATS,B,22
15,test,1,C,mfborder.png,0,z,Mon Aug 04 2025 16:37:50 GMT-0500 (Central Daylight Time),406367.2999999523,CFD-WF-026-008-A.jpg,1500,dash,O,None,1515,3,1,60047.5,346319.7999999523,7192,ATS,B,23
16,test,1,C,haborder.png,1,m,Mon Aug 04 2025 16:37:50 GMT-0500 (Central Daylight Time),409148.5,CFD-BF-035-007-HC.jpg,1600,solid,O,m,1147,10,1,62828.700000047684,346319.7999999523,7192,ATS,B,24
0,test,2,C,haborder.png,0,z,Mon Aug 04 2025 16:37:50 GMT-0500 (Central Daylight Time),414332.2999999523,CFD-BF-050-012-A.jpg,1900,solid,O,None,1517,8,1,3432.9000000953674,410899.39999985695,7192,ATS,B,1
1,test,2,C,haborder.png,1,m,Mon Aug 04 2025 16:37:50 GMT-0500 (Central Daylight Time),416614.69999980927,CFD-WM-011-006-HC.jpg,1500,solid,O,m,765,11,1,5715.299999952316,410899.39999985695,7192,ATS,B,2
2,test,2,C,haborder.png,1,z,Mon Aug 04 2025 16:37:50 GMT-0500 (Central Daylight Time),418931.39999985695,CFD-WF-026-008-A.jpg,1700,solid,O,z,601,9,1,8032.0,410899.39999985695,7192,ATS,B,3
2,test,2,C,mfborder.png,0,z,Mon Aug 04 2025 16:37:50 GMT-0500 (Central Daylight Time),421962.69999980927,CFD-BF-035-007-HC.jpg,1500,dash,O,None,1516,3,1,11063.299999952316,410899.39999985695,7192,ATS,B,4
3,test,2,C,mfborder.png,1,m,Mon Aug 04 2025 16:37:50 GMT-0500 (Central Daylight Time),424710.19999980927,CFD-BM-037-041-A.jpg,2000,dash,O,m,729,5,1,13810.799999952316,410899.39999985695,7192,ATS,B,5
4,test,2,C,mfborder.png,1,z,Mon Aug 04 2025 16:37:50 GMT-0500 (Central Daylight Time),427145.0,CFD-WF-011-006-HC.jpg,1700,dash,O,z,706,1,1,16245.600000143051,410899.39999985695,7192,ATS,B,6
5,test,2,C,haborder.png,1,m,Mon Aug 04 2025 16:37:50 GMT-0500 (Central Daylight Time),429159.89999985695,CFD-WM-011-006-HC.jpg,1000,solid,O,m,988,12,1,18260.5,410899.39999985695,7192,ATS,B,7
6,test,2,C,haborder.png,1,z,Mon Aug 04 2025 16:37:50 GMT-0500 (Central Daylight Time),431891.89999985695,CFD-WF-026-008-A.jpg,1700,solid,O,z,1015,9,1,20992.5,410899.39999985695,7192,ATS,B,8
7,test,2,C,mfborder.png,1,m,Mon Aug 04 2025 16:37:50 GMT-0500 (Central Daylight Time),434157.09999990463,CFD-BM-015-017-HC.jpg,1000,dash,O,m,1233,4,1,23257.700000047684,410899.39999985695,7192,ATS,B,9
7,test,2,C,mfborder.png,0,z,Mon Aug 04 2025 16:37:50 GMT-0500 (Central Daylight Time),436557.7999999523,CFD-BF-035-007-HC.jpg,1500,dash,O,m,873,3,1,25658.400000095367,410899.39999985695,7192,ATS,B,10
8,test,2,C,mfborder.png,1,m,Mon Aug 04 2025 16:37:50 GMT-0500 (Central Daylight Time),438454.2999999523,CFD-WM-009-009-A.jpg,1200,dash,O,m,675,6,1,27554.900000095367,410899.39999985695,7192,ATS,B,11
9,test,2,C,haborder.png,1,z,Mon Aug 04 2025 16:37:50 GMT-0500 (Central Daylight Time),440956.0,CFD-BF-051-043-A.jpg,1400,solid,O,z,1073,7,1,30056.60000014305,410899.39999985695,7192,ATS,B,12
10,test,2,C,haborder.png,1,z,Mon Aug 04 2025 16:37:50 GMT-0500 (Central Daylight Time),443839.0,CFD-BF-050-012-A.jpg,1900,solid,O,z,956,8,1,32939.60000014305,410899.39999985695,7192,ATS,B,13
11,test,2,C,mfborder.png,1,m,Mon Aug 04 2025 16:37:50 GMT-0500 (Central Daylight Time),446155.2999999523,CFD-BM-015-017-HC.jpg,1000,dash,O,m,1284,4,1,35255.90000009537,410899.39999985695,7192,ATS,B,14
12,test,2,C,mfborder.png,1,z,Mon Aug 04 2025 16:37:50 GMT-0500 (Central Daylight Time),448987.2999999523,CFD-WF-013-015-A.jpg,1600,dash,O,z,1208,2,1,38087.90000009537,410899.39999985695,7192,ATS,B,15
13,test,2,C,haborder.png,1,m,Mon Aug 04 2025 16:37:50 GMT-0500 (Central Daylight Time),451402.09999990463,CFD-WM-011-006-HC.jpg,1500,solid,O,m,884,11,1,40502.700000047684,410899.39999985695,7192,ATS,B,16
14,test,2,C,haborder.png,1,z,Mon Aug 04 2025 16:37:50 GMT-0500 (Central Daylight Time),453485.2999999523,CFD-BF-051-043-A.jpg,1400,solid,O,z,656,7,1,42585.90000009537,410899.39999985695,7192,ATS,B,17
15,test,2,C,mfborder.png,1,z,Mon Aug 04 2025 16:37:50 GMT-0500 (Central Daylight Time),456201.0,CFD-WF-011-006-HC.jpg,1700,dash,O,z,994,1,1,45301.60000014305,410899.39999985695,7192,ATS,B,18
16,test,2,C,mfborder.png,1,m,Mon Aug 04 2025 16:37:50 GMT-0500 (Central Daylight Time),459265.5,CFD-BM-037-041-A.jpg,2000,dash,O,m,1033,5,1,48366.10000014305,410899.39999985695,7192,ATS,B,19
17,test,2,C,mfborder.png,1,m,Mon Aug 04 2025 16:37:50 GMT-0500 (Central Daylight Time),461466.59999990463,CFD-WM-009-009-A.jpg,1200,dash,O,m,971,6,1,50567.200000047684,410899.39999985695,7192,ATS,B,20
18,test,2,C,haborder.png,1,m,Mon Aug 04 2025 16:37:50 GMT-0500 (Central Daylight Time),463364.09999990463,CFD-WM-011-006-HC.jpg,1000,solid,O,m,873,12,1,52464.700000047684,410899.39999985695,7192,ATS,B,21
19,test,2,C,mfborder.png,1,z,Mon Aug 04 2025 16:37:50 GMT-0500 (Central Daylight Time),465831.19999980927,CFD-WF-013-015-A.jpg,1600,dash,O,z,845,2,1,54931.799999952316,410899.39999985695,7192,ATS,B,22
20,test,2,C,haborder.png,1,m,Mon Aug 04 2025 16:37:50 GMT-0500 (Central Daylight Time),468084.09999990463,CFD-BM-020-024-HC.jpg,1600,solid,O,m,626,10,1,57184.700000047684,410899.39999985695,7192,ATS,B,23
21,test,2,C,haborder.png,1,m,Mon Aug 04 2025 16:37:50 GMT-0500 (Central Daylight Time),470246.89999985695,CFD-BM-020-024-HC.jpg,1600,solid,O,m,538,10,1,59347.5,410899.39999985695,7192,ATS,B,24
1,test,3,C,haborder.png,1,m,Mon Aug 04 2025 16:37:50 GMT-0500 (Central Daylight Time),474579.89999985695,CFD-BF-035-007-HC.jpg,1600,solid,O,m,1300,10,1,2917.0999999046326,471662.7999999523,7192,ATS,B,1
2,test,3,C,haborder.png,1,m,Mon Aug 04 2025 16:37:50 GMT-0500 (Central Daylight Time),476676.69999980927,CFD-BF-035-007-HC.jpg,1600,solid,O,m,479,10,1,5013.899999856949,471662.7999999523,7192,ATS,B,2
3,test,3,C,mfborder.png,1,z,Mon Aug 04 2025 16:37:50 GMT-0500 (Central Daylight Time),479044.2999999523,CFD-BF-051-043-A.jpg,1600,dash,O,z,737,2,1,7381.5,471662.7999999523,7192,ATS,B,3
4,test,3,C,mfborder.png,1,z,Mon Aug 04 2025 16:37:50 GMT-0500 (Central Daylight Time),481541.7999999523,CFD-BF-027-013-HC.jpg,1700,dash,O,z,767,1,1,9879.0,471662.7999999523,7192,ATS,B,4
5,test,3,C,haborder.png,1,m,Mon Aug 04 2025 16:37:50 GMT-0500 (Central Daylight Time),483542.5,CFD-WF-011-006-HC.jpg,1000,solid,O,m,971,12,1,11879.700000047684,471662.7999999523,7192,ATS,B,5
6,test,3,C,haborder.png,1,z,Mon Aug 04 2025 16:37:50 GMT-0500 (Central Daylight Time),485709.89999985695,CFD-WM-009-009-A.jpg,1400,solid,O,z,750,7,1,14047.099999904633,471662.7999999523,7192,ATS,B,6
7,test,3,C,mfborder.png,1,m,Mon Aug 04 2025 16:37:50 GMT-0500 (Central Daylight Time),488705.59999990463,CFD-WM-037-060-A.jpg,2000,dash,O,m,966,5,1,17042.799999952316,471662.7999999523,7192,ATS,B,7
7,test,3,C,haborder.png,0,m,Mon Aug 04 2025 16:37:50 GMT-0500 (Central Daylight Time),491092.2999999523,CFD-WF-027-007-HC.jpg,1500,solid,O,z,858,11,1,19429.5,471662.7999999523,7192,ATS,B,8
8,test,3,C,mfborder.png,1,z,Mon Aug 04 2025 16:37:50 GMT-0500 (Central Daylight Time),494006.09999990463,CFD-BF-051-043-A.jpg,1600,dash,O,z,1287,2,1,22343.299999952316,471662.7999999523,7192,ATS,B,9
8,test,3,C,mfborder.png,0,m,Mon Aug 04 2025 16:37:50 GMT-0500 (Central Daylight Time),497539.2999999523,CFD-WM-037-060-A.jpg,2000,dash,O,None,1516,5,1,25876.5,471662.7999999523,7192,ATS,B,10
8,test,3,C,mfborder.png,0,m,Mon Aug 04 2025 16:37:50 GMT-0500 (Central Daylight Time),500270.09999990463,CFD-BM-020-024-HC.jpg,1200,dash,O,None,1514,6,1,28607.299999952316,471662.7999999523,7192,ATS,B,11
8,test,3,C,mfborder.png,0,z,Mon Aug 04 2025 16:37:50 GMT-0500 (Central Daylight Time),502670.69999980927,CFD-WF-026-008-A.jpg,1500,dash,O,m,871,3,1,31007.89999985695,471662.7999999523,7192,ATS,B,12
9,test,3,C,haborder.png,1,z,Mon Aug 04 2025 16:37:50 GMT-0500 (Central Daylight Time),505068.2999999523,CFD-WM-009-009-A.jpg,1400,solid,O,z,981,7,1,33405.5,471662.7999999523,7192,ATS,B,13
10,test,3,C,haborder.png,1,m,Mon Aug 04 2025 16:37:50 GMT-0500 (Central Daylight Time),507652.09999990463,CFD-WF-027-007-HC.jpg,1500,solid,O,m,1049,11,1,35989.299999952316,471662.7999999523,7192,ATS,B,14
11,test,3,C,mfborder.png,1,z,Mon Aug 04 2025 16:37:50 GMT-0500 (Central Daylight Time),510333.89999985695,CFD-BF-027-013-HC.jpg,1700,dash,O,z,955,1,1,38671.09999990463,471662.7999999523,7192,ATS,B,15
12,test,3,C,haborder.png,1,z,Mon Aug 04 2025 16:37:50 GMT-0500 (Central Daylight Time),513316.59999990463,CFD-BM-037-041-A.jpg,1900,solid,O,z,1057,8,1,41653.799999952316,471662.7999999523,7192,ATS,B,16
13,test,3,C,mfborder.png,1,m,Mon Aug 04 2025 16:37:50 GMT-0500 (Central Daylight Time),515049.39999985695,CFD-WM-012-007-HC.jpg,1000,dash,O,m,701,4,1,43386.59999990463,471662.7999999523,7192,ATS,B,17
14,test,3,C,mfborder.png,1,m,Mon Aug 04 2025 16:37:50 GMT-0500 (Central Daylight Time),516699.0,CFD-WM-012-007-HC.jpg,1000,dash,O,m,616,4,1,45036.200000047684,471662.7999999523,7192,ATS,B,18
15,test,3,C,mfborder.png,1,m,Mon Aug 04 2025 16:37:50 GMT-0500 (Central Daylight Time),518515.19999980927,CFD-BM-020-024-HC.jpg,1200,dash,O,m,585,6,1,46852.39999985695,471662.7999999523,7192,ATS,B,19
16,test,3,C,mfborder.png,1,z,Mon Aug 04 2025 16:37:50 GMT-0500 (Central Daylight Time),520880.09999990463,CFD-WF-026-008-A.jpg,1500,dash,O,z,845,3,1,49217.299999952316,471662.7999999523,7192,ATS,B,20
16,test,3,C,haborder.png,0,z,Mon Aug 04 2025 16:37:50 GMT-0500 (Central Daylight Time),524114.0,CFD-BM-041-048-A.jpg,1700,solid,O,None,1517,9,1,52451.200000047684,471662.7999999523,7192,ATS,B,21
16,test,3,C,haborder.png,0,m,Mon Aug 04 2025 16:37:50 GMT-0500 (Central Daylight Time),526412.7999999523,CFD-WF-011-006-HC.jpg,1000,solid,O,z,1266,12,1,54750.0,471662.7999999523,7192,ATS,B,22
16,test,3,C,haborder.png,0,z,Mon Aug 04 2025 16:37:50 GMT-0500 (Central Daylight Time),529645.5,CFD-BM-041-048-A.jpg,1700,solid,O,None,1516,9,1,57982.700000047684,471662.7999999523,7192,ATS,B,23
17,test,3,C,haborder.png,1,z,Mon Aug 04 2025 16:37:50 GMT-0500 (Central Daylight Time),532376.5999999046,CFD-BM-037-041-A.jpg,1900,solid,O,z,800,8,1,60713.799999952316,471662.7999999523,7192,ATS,B,24
0,test,4,C,mfborder.png,0,m,Mon Aug 04 2025 16:37:50 GMT-0500 (Central Daylight Time),536775.2999999523,CFD-BM-015-017-HC.jpg,1000,dash,O,None,1515,4,1,2531.2999999523163,534244.0,7192,ATS,B,1
1,test,4,C,haborder.png,1,m,Mon Aug 04 2025 16:37:50 GMT-0500 (Central Daylight Time),539557.0999999046,CFD-BM-020-024-HC.jpg,1600,solid,O,m,1163,10,1,5313.099999904633,534244.0,7192,ATS,B,2
2,test,4,C,mfborder.png,1,m,Mon Aug 04 2025 16:37:50 GMT-0500 (Central Daylight Time),541590.1999998093,CFD-BM-015-017-HC.jpg,1000,dash,O,m,1014,4,1,7346.199999809265,534244.0,7192,ATS,B,3
3,test,4,C,haborder.png,1,m,Mon Aug 04 2025 16:37:50 GMT-0500 (Central Daylight Time),543490.399999857,CFD-WM-011-006-HC.jpg,1000,solid,O,m,876,12,1,9246.399999856949,534244.0,7192,ATS,B,4
4,test,4,C,mfborder.png,1,m,Mon Aug 04 2025 16:37:50 GMT-0500 (Central Daylight Time),545340.6999998093,CFD-WM-009-009-A.jpg,1200,dash,O,m,633,6,1,11096.699999809265,534244.0,7192,ATS,B,5
5,test,4,C,haborder.png,1,z,Mon Aug 04 2025 16:37:50 GMT-0500 (Central Daylight Time),548255.5999999046,CFD-BF-050-012-A.jpg,1900,solid,O,z,987,8,1,14011.599999904633,534244.0,7192,ATS,B,6
5,test,4,C,mfborder.png,0,z,Mon Aug 04 2025 16:37:50 GMT-0500 (Central Daylight Time),550855.0999999046,CFD-BF-035-007-HC.jpg,1500,dash,O,m,1065,3,1,16611.099999904633,534244.0,7192,ATS,B,7
6,test,4,C,haborder.png,1,z,Mon Aug 04 2025 16:37:50 GMT-0500 (Central Daylight Time),553655.399999857,CFD-BF-050-012-A.jpg,1900,solid,O,z,864,8,1,19411.39999985695,534244.0,7192,ATS,B,8
7,test,4,C,haborder.png,1,z,Mon Aug 04 2025 16:37:50 GMT-0500 (Central Daylight Time),555636.5999999046,CFD-BF-051-043-A.jpg,1400,solid,O,z,558,7,1,21392.599999904633,534244.0,7192,ATS,B,9
8,test,4,C,mfborder.png,1,z,Mon Aug 04 2025 16:37:50 GMT-0500 (Central Daylight Time),558368.1999998093,CFD-WF-011-006-HC.jpg,1700,dash,O,z,1010,1,1,24124.199999809265,534244.0,7192,ATS,B,10
9,test,4,C,mfborder.png,1,m,Mon Aug 04 2025 16:37:50 GMT-0500 (Central Daylight Time),561033.7999999523,CFD-BM-037-041-A.jpg,2000,dash,O,m,640,5,1,26789.799999952316,534244.0,7192,ATS,B,11
10,test,4,C,mfborder.png,1,z,Mon Aug 04 2025 16:37:50 GMT-0500 (Central Daylight Time),563283.6999998093,CFD-WF-013-015-A.jpg,1600,dash,O,z,615,2,1,29039.699999809265,534244.0,7192,ATS,B,12
11,test,4,C,haborder.png,1,m,Mon Aug 04 2025 16:37:50 GMT-0500 (Central Daylight Time),565798.7999999523,CFD-WM-011-006-HC.jpg,1500,solid,O,m,986,11,1,31554.799999952316,534244.0,7192,ATS,B,13
12,test,4,C,haborder.png,1,m,Mon Aug 04 2025 16:37:50 GMT-0500 (Central Daylight Time),567464.899999857,CFD-WM-011-006-HC.jpg,1000,solid,O,m,643,12,1,33220.89999985695,534244.0,7192,ATS,B,14
13,test,4,C,mfborder.png,1,z,Mon Aug 04 2025 16:37:50 GMT-0500 (Central Daylight Time),569997.6999998093,CFD-WF-013-015-A.jpg,1600,dash,O,z,915,2,1,35753.699999809265,534244.0,7192,ATS,B,15
14,test,4,C,haborder.png,1,z,Mon Aug 04 2025 16:37:50 GMT-0500 (Central Daylight Time),572348.0,CFD-BF-051-043-A.jpg,1400,solid,O,z,917,7,1,38104.0,534244.0,7192,ATS,B,16
15,test,4,C,mfborder.png,1,m,Mon Aug 04 2025 16:37:50 GMT-0500 (Central Daylight Time),575412.5999999046,CFD-BM-037-041-A.jpg,2000,dash,O,m,1039,5,1,41168.59999990463,534244.0,7192,ATS,B,17
16,test,4,C,haborder.png,1,m,Mon Aug 04 2025 16:37:50 GMT-0500 (Central Daylight Time),577797.0999999046,CFD-BM-020-024-HC.jpg,1600,solid,O,m,767,10,1,43553.09999990463,534244.0,7192,ATS,B,18
17,test,4,C,haborder.png,1,z,Mon Aug 04 2025 16:37:50 GMT-0500 (Central Daylight Time),580562.0999999046,CFD-WF-026-008-A.jpg,1700,solid,O,z,1034,9,1,46318.09999990463,534244.0,7192,ATS,B,19
17,test,4,C,mfborder.png,0,z,Mon Aug 04 2025 16:37:50 GMT-0500 (Central Daylight Time),582910.1999998093,CFD-BF-035-007-HC.jpg,1500,dash,O,m,812,3,1,48666.199999809265,534244.0,7192,ATS,B,20
18,test,4,C,haborder.png,1,z,Mon Aug 04 2025 16:37:50 GMT-0500 (Central Daylight Time),585425.7999999523,CFD-WF-026-008-A.jpg,1700,solid,O,z,783,9,1,51181.799999952316,534244.0,7192,ATS,B,21
19,test,4,C,mfborder.png,1,m,Mon Aug 04 2025 16:37:50 GMT-0500 (Central Daylight Time),587710.5,CFD-WM-009-009-A.jpg,1200,dash,O,m,1066,6,1,53466.5,534244.0,7192,ATS,B,22
20,test,4,C,haborder.png,1,m,Mon Aug 04 2025 16:37:50 GMT-0500 (Central Daylight Time),589858.1999998093,CFD-WM-011-006-HC.jpg,1500,solid,O,m,625,11,1,55614.199999809265,534244.0,7192,ATS,B,23
21,test,4,C,mfborder.png,1,z,Mon Aug 04 2025 16:37:50 GMT-0500 (Central Daylight Time),592391.0,CFD-WF-011-006-HC.jpg,1700,dash,O,z,805,1,1,58147.0,534244.0,7192,ATS,B,24
