acc_sum,block,block_c,block_cond,con_img,correct,correct_response,datetime,endtime,face,jitter,line,project,response,response_time,row_sel,session_number,start_end,starttime,subject_id,task,task_vers,trial
1,prac,1,A,haborder.png,1,z,Wed Nov 05 2025 15:57:04 GMT-0500 (Eastern Standard Time),221595.19999992847,CFD-WF-026-008-A.jpg,1600,solid,I,z,1400,10,1,3783.5999999046326,217811.60000002384,9029,ATS,B,1
2,prac,1,A,haborder.png,1,m,Wed Nov 05 2025 15:57:04 GMT-0500 (Eastern Standard Time),224761.5,CFD-WM-012-007-HC.jpg,1700,solid,I,m,661,9,1,6949.899999976158,217811.60000002384,9029,ATS,B,2
3,prac,1,A,haborder.png,1,z,Wed Nov 05 2025 15:57:04 GMT-0500 (Eastern Standard Time),227744.69999992847,CFD-BM-037-041-A.jpg,1600,solid,I,z,561,2,1,9933.099999904633,217811.60000002384,9029,ATS,B,3
4,prac,1,A,haborder.png,1,m,Wed Nov 05 2025 15:57:04 GMT-0500 (Eastern Standard Time),230628.10000002384,CFD-WM-011-006-HC.jpg,1400,solid,I,m,673,7,1,12816.5,217811.60000002384,9029,ATS,B,4
5,prac,1,A,haborder.png,1,m,Wed Nov 05 2025 15:57:04 GMT-0500 (Eastern Standard Time),234194.79999995232,CFD-BF-035-007-HC.jpg,2000,solid,I,m,757,5,1,16383.199999928474,217811.60000002384,9029,ATS,B,5
6,prac,1,A,haborder.png,1,z,Wed Nov 05 2025 15:57:04 GMT-0500 (Eastern Standard Time),236878.0,CFD-BF-050-012-A.jpg,1200,solid,I,z,680,6,1,19066.399999976158,217811.60000002384,9029,ATS,B,6
7,prac,1,A,haborder.png,1,z,Wed Nov 05 2025 15:57:04 GMT-0500 (Eastern Standard Time),239278.0,CFD-BF-051-043-A.jpg,1000,solid,I,z,613,4,1,21466.399999976158,217811.60000002384,9029,ATS,B,7
8,prac,1,A,haborder.png,1,m,Wed Nov 05 2025 15:57:04 GMT-0500 (Eastern Standard Time),242194.79999995232,CFD-WF-011-006-HC.jpg,1500,solid,I,m,625,11,1,24383.199999928474,217811.60000002384,9029,ATS,B,8
9,prac,1,A,haborder.png,1,m,Wed Nov 05 2025 15:57:04 GMT-0500 (Eastern Standard Time),245428.19999992847,CFD-BM-015-017-HC.jpg,1700,solid,I,m,740,1,1,27616.599999904633,217811.60000002384,9029,ATS,B,9
10,prac,1,A,haborder.png,1,z,Wed Nov 05 2025 15:57:04 GMT-0500 (Eastern Standard Time),248528.0,CFD-WF-013-015-A.jpg,1000,solid,I,z,1310,12,1,30716.399999976158,217811.60000002384,9029,ATS,B,10
11,prac,1,A,haborder.png,1,z,Wed Nov 05 2025 15:57:04 GMT-0500 (Eastern Standard Time),252061.29999995232,CFD-WM-009-009-A.jpg,1900,solid,I,z,845,8,1,34249.699999928474,217811.60000002384,9029,ATS,B,11
12,prac,1,A,haborder.png,1,m,Wed Nov 05 2025 15:57:04 GMT-0500 (Eastern Standard Time),255027.89999997616,CFD-BM-020-024-HC.jpg,1500,solid,I,m,674,3,1,37216.299999952316,217811.60000002384,9029,ATS,B,12
1,prac,1,B,mfborder.png,1,z,Wed Nov 05 2025 15:57:04 GMT-0500 (Eastern Standard Time),334144.60000002384,CFD-BF-027-013-HC.jpg,1500,dash,I,z,810,3,1,3099.600000023842,331045.0,9029,ATS,B,1
2,prac,1,B,mfborder.png,1,z,Wed Nov 05 2025 15:57:04 GMT-0500 (Eastern Standard Time),337094.6999999285,CFD-WF-026-008-A.jpg,1500,dash,I,z,653,11,1,6049.699999928474,331045.0,9029,ATS,B,2
3,prac,1,B,mfborder.png,1,m,Wed Nov 05 2025 15:57:04 GMT-0500 (Eastern Standard Time),340194.5,CFD-WM-009-009-A.jpg,1700,dash,I,m,608,9,1,9149.5,331045.0,9029,ATS,B,3
4,prac,1,B,mfborder.png,1,m,Wed Nov 05 2025 15:57:04 GMT-0500 (Eastern Standard Time),343561.2999999523,CFD-BM-037-041-A.jpg,2000,dash,I,m,583,5,1,12516.299999952316,331045.0,9029,ATS,B,4
5,prac,1,B,mfborder.png,1,z,Wed Nov 05 2025 15:57:04 GMT-0500 (Eastern Standard Time),346310.89999997616,CFD-WF-011-006-HC.jpg,1000,dash,I,z,936,12,1,15265.899999976158,331045.0,9029,ATS,B,5
6,prac,1,B,mfborder.png,1,m,Wed Nov 05 2025 15:57:04 GMT-0500 (Eastern Standard Time),349361.1999999285,CFD-BM-020-024-HC.jpg,1700,dash,I,m,559,1,1,18316.199999928474,331045.0,9029,ATS,B,6
7,prac,1,B,mfborder.png,1,z,Wed Nov 05 2025 15:57:04 GMT-0500 (Eastern Standard Time),352927.39999997616,CFD-WF-027-007-HC.jpg,1900,dash,I,z,877,8,1,21882.399999976158,331045.0,9029,ATS,B,7
8,prac,1,B,mfborder.png,1,m,Wed Nov 05 2025 15:57:04 GMT-0500 (Eastern Standard Time),356061.10000002384,CFD-WM-012-007-HC.jpg,1600,dash,I,m,747,10,1,25016.100000023842,331045.0,9029,ATS,B,8
9,prac,1,B,mfborder.png,1,m,Wed Nov 05 2025 15:57:04 GMT-0500 (Eastern Standard Time),358977.6999999285,CFD-WM-037-060-A.jpg,1200,dash,I,m,908,6,1,27932.699999928474,331045.0,9029,ATS,B,9
10,prac,1,B,mfborder.png,1,z,Wed Nov 05 2025 15:57:04 GMT-0500 (Eastern Standard Time),361561.1999999285,CFD-BF-051-043-A.jpg,1000,dash,I,z,785,4,1,30516.199999928474,331045.0,9029,ATS,B,10
11,prac,1,B,mfborder.png,1,z,Wed Nov 05 2025 15:57:04 GMT-0500 (Eastern Standard Time),364794.5,CFD-BF-035-007-HC.jpg,1400,dash,I,z,1016,7,1,33749.5,331045.0,9029,ATS,B,11
12,prac,1,B,mfborder.png,1,m,Wed Nov 05 2025 15:57:04 GMT-0500 (Eastern Standard Time),367794.10000002384,CFD-BM-041-048-A.jpg,1600,dash,I,m,602,2,1,36749.10000002384,331045.0,9029,ATS,B,12
1,test,1,A,haborder.png,1,m,Wed Nov 05 2025 15:57:04 GMT-0500 (Eastern Standard Time),393560.60000002384,CFD-BM-015-017-HC.jpg,1700,solid,I,m,668,1,1,2399.8000000715256,391160.7999999523,9029,ATS,B,1
2,test,1,A,haborder.png,1,m,Wed Nov 05 2025 15:57:04 GMT-0500 (Eastern Standard Time),395677.39999997616,CFD-BM-020-024-HC.jpg,1500,solid,I,m,598,3,1,4516.600000023842,391160.7999999523,9029,ATS,B,2
3,test,1,A,haborder.png,1,m,Wed Nov 05 2025 15:57:04 GMT-0500 (Eastern Standard Time),398010.89999997616,CFD-WM-012-007-HC.jpg,1700,solid,I,m,600,9,1,6850.100000023842,391160.7999999523,9029,ATS,B,3
4,test,1,A,haborder.png,1,z,Wed Nov 05 2025 15:57:04 GMT-0500 (Eastern Standard Time),399627.2999999523,CFD-BF-051-043-A.jpg,1000,solid,I,z,567,4,1,8466.5,391160.7999999523,9029,ATS,B,4
5,test,1,A,haborder.png,1,z,Wed Nov 05 2025 15:57:04 GMT-0500 (Eastern Standard Time),401360.60000002384,CFD-BF-051-043-A.jpg,1000,solid,I,z,710,4,1,10199.800000071526,391160.7999999523,9029,ATS,B,5
6,test,1,A,haborder.png,1,z,Wed Nov 05 2025 15:57:04 GMT-0500 (Eastern Standard Time),403611.0,CFD-WF-026-008-A.jpg,1600,solid,I,z,617,10,1,12450.200000047684,391160.7999999523,9029,ATS,B,6
7,test,1,A,haborder.png,1,m,Wed Nov 05 2025 15:57:04 GMT-0500 (Eastern Standard Time),405677.5,CFD-WF-011-006-HC.jpg,1500,solid,I,m,547,11,1,14516.700000047684,391160.7999999523,9029,ATS,B,7
8,test,1,A,haborder.png,1,z,Wed Nov 05 2025 15:57:04 GMT-0500 (Eastern Standard Time),408127.6999999285,CFD-BM-037-041-A.jpg,1600,solid,I,z,812,2,1,16966.899999976158,391160.7999999523,9029,ATS,B,8
8,test,1,A,haborder.png,0,z,Wed Nov 05 2025 15:57:04 GMT-0500 (Eastern Standard Time),410594.1999999285,CFD-WM-009-009-A.jpg,1900,solid,I,m,542,8,1,19433.399999976158,391160.7999999523,9029,ATS,B,9
9,test,1,A,haborder.png,1,z,Wed Nov 05 2025 15:57:04 GMT-0500 (Eastern Standard Time),413077.5,CFD-BM-037-041-A.jpg,1600,solid,I,z,856,2,1,21916.700000047684,391160.7999999523,9029,ATS,B,10
10,test,1,A,haborder.png,1,m,Wed Nov 05 2025 15:57:04 GMT-0500 (Eastern Standard Time),415827.60000002384,CFD-BF-035-007-HC.jpg,2000,solid,I,m,708,5,1,24666.800000071526,391160.7999999523,9029,ATS,B,11
11,test,1,A,haborder.png,1,m,Wed Nov 05 2025 15:57:04 GMT-0500 (Eastern Standard Time),417910.89999997616,CFD-WF-011-006-HC.jpg,1500,solid,I,m,555,11,1,26750.100000023842,391160.7999999523,9029,ATS,B,12
12,test,1,A,haborder.png,1,z,Wed Nov 05 2025 15:57:04 GMT-0500 (Eastern Standard Time),420277.60000002384,CFD-WF-026-008-A.jpg,1600,solid,I,z,740,10,1,29116.800000071526,391160.7999999523,9029,ATS,B,13
13,test,1,A,haborder.png,1,m,Wed Nov 05 2025 15:57:04 GMT-0500 (Eastern Standard Time),422977.39999997616,CFD-BF-035-007-HC.jpg,2000,solid,I,m,663,5,1,31816.600000023842,391160.7999999523,9029,ATS,B,14
14,test,1,A,haborder.png,1,m,Wed Nov 05 2025 15:57:04 GMT-0500 (Eastern Standard Time),425494.39999997616,CFD-BM-015-017-HC.jpg,1700,solid,I,m,789,1,1,34333.60000002384,391160.7999999523,9029,ATS,B,15
15,test,1,A,haborder.png,1,m,Wed Nov 05 2025 15:57:04 GMT-0500 (Eastern Standard Time),427677.39999997616,CFD-BM-020-024-HC.jpg,1500,solid,I,m,664,3,1,36516.60000002384,391160.7999999523,9029,ATS,B,16
16,test,1,A,haborder.png,1,m,Wed Nov 05 2025 15:57:04 GMT-0500 (Eastern Standard Time),430227.39999997616,CFD-WM-012-007-HC.jpg,1700,solid,I,m,823,9,1,39066.60000002384,391160.7999999523,9029,ATS,B,17
17,test,1,A,haborder.png,1,z,Wed Nov 05 2025 15:57:04 GMT-0500 (Eastern Standard Time),432594.0,CFD-WF-013-015-A.jpg,1000,solid,I,z,1343,12,1,41433.200000047684,391160.7999999523,9029,ATS,B,18
18,test,1,A,haborder.png,1,z,Wed Nov 05 2025 15:57:04 GMT-0500 (Eastern Standard Time),434460.7999999523,CFD-WF-013-015-A.jpg,1000,solid,I,z,848,12,1,43300.0,391160.7999999523,9029,ATS,B,19
19,test,1,A,haborder.png,1,m,Wed Nov 05 2025 15:57:04 GMT-0500 (Eastern Standard Time),436644.1999999285,CFD-WM-011-006-HC.jpg,1400,solid,I,m,724,7,1,45483.39999997616,391160.7999999523,9029,ATS,B,20
20,test,1,A,haborder.png,1,z,Wed Nov 05 2025 15:57:04 GMT-0500 (Eastern Standard Time),439710.5,CFD-WM-009-009-A.jpg,1900,solid,I,z,1146,8,1,48549.700000047684,391160.7999999523,9029,ATS,B,21
21,test,1,A,haborder.png,1,z,Wed Nov 05 2025 15:57:04 GMT-0500 (Eastern Standard Time),441927.39999997616,CFD-BF-050-012-A.jpg,1200,solid,I,z,988,6,1,50766.60000002384,391160.7999999523,9029,ATS,B,22
22,test,1,A,haborder.png,1,m,Wed Nov 05 2025 15:57:04 GMT-0500 (Eastern Standard Time),444077.39999997616,CFD-WM-011-006-HC.jpg,1400,solid,I,m,730,7,1,52916.60000002384,391160.7999999523,9029,ATS,B,23
23,test,1,A,haborder.png,1,z,Wed Nov 05 2025 15:57:04 GMT-0500 (Eastern Standard Time),446210.6999999285,CFD-BF-050-012-A.jpg,1200,solid,I,z,909,6,1,55049.89999997616,391160.7999999523,9029,ATS,B,24
1,test,1,B,mfborder.png,1,m,Wed Nov 05 2025 15:57:04 GMT-0500 (Eastern Standard Time),473110.7999999523,CFD-WM-012-007-HC.jpg,1600,dash,I,m,888,10,1,2516.1999999284744,470594.60000002384,9029,ATS,B,1
2,test,1,B,mfborder.png,1,m,Wed Nov 05 2025 15:57:04 GMT-0500 (Eastern Standard Time),475777.2999999523,CFD-BM-037-041-A.jpg,2000,dash,I,m,644,5,1,5182.699999928474,470594.60000002384,9029,ATS,B,2
3,test,1,B,mfborder.png,1,m,Wed Nov 05 2025 15:57:04 GMT-0500 (Eastern Standard Time),478010.5,CFD-WM-012-007-HC.jpg,1600,dash,I,m,600,10,1,7415.899999976158,470594.60000002384,9029,ATS,B,3
4,test,1,B,mfborder.png,1,z,Wed Nov 05 2025 15:57:04 GMT-0500 (Eastern Standard Time),480110.7999999523,CFD-BF-035-007-HC.jpg,1400,dash,I,z,680,7,1,9516.199999928474,470594.60000002384,9029,ATS,B,4
5,test,1,B,mfborder.png,1,z,Wed Nov 05 2025 15:57:04 GMT-0500 (Eastern Standard Time),481794.1999999285,CFD-WF-011-006-HC.jpg,1000,dash,I,z,660,12,1,11199.599999904633,470594.60000002384,9029,ATS,B,5
6,test,1,B,mfborder.png,1,z,Wed Nov 05 2025 15:57:04 GMT-0500 (Eastern Standard Time),484177.5,CFD-BF-035-007-HC.jpg,1400,dash,I,z,961,7,1,13582.899999976158,470594.60000002384,9029,ATS,B,6
7,test,1,B,mfborder.png,1,z,Wed Nov 05 2025 15:57:04 GMT-0500 (Eastern Standard Time),486460.60000002384,CFD-WF-026-008-A.jpg,1500,dash,I,z,765,11,1,15866.0,470594.60000002384,9029,ATS,B,7
8,test,1,B,mfborder.png,1,z,Wed Nov 05 2025 15:57:04 GMT-0500 (Eastern Standard Time),488194.10000002384,CFD-BF-051-043-A.jpg,1000,dash,I,z,710,4,1,17599.5,470594.60000002384,9029,ATS,B,8
9,test,1,B,mfborder.png,1,m,Wed Nov 05 2025 15:57:04 GMT-0500 (Eastern Standard Time),490260.7999999523,CFD-WM-037-060-A.jpg,1200,dash,I,m,840,6,1,19666.199999928474,470594.60000002384,9029,ATS,B,9
10,test,1,B,mfborder.png,1,m,Wed Nov 05 2025 15:57:04 GMT-0500 (Eastern Standard Time),492527.2999999523,CFD-BM-041-048-A.jpg,1600,dash,I,m,646,2,1,21932.699999928474,470594.60000002384,9029,ATS,B,10
11,test,1,B,mfborder.png,1,z,Wed Nov 05 2025 15:57:04 GMT-0500 (Eastern Standard Time),494260.2999999523,CFD-WF-011-006-HC.jpg,1000,dash,I,z,689,12,1,23665.699999928474,470594.60000002384,9029,ATS,B,11
12,test,1,B,mfborder.png,1,m,Wed Nov 05 2025 15:57:04 GMT-0500 (Eastern Standard Time),496827.39999997616,CFD-BM-041-048-A.jpg,1600,dash,I,m,932,2,1,26232.799999952316,470594.60000002384,9029,ATS,B,12
13,test,1,B,mfborder.png,1,m,Wed Nov 05 2025 15:57:04 GMT-0500 (Eastern Standard Time),498827.39999997616,CFD-WM-037-060-A.jpg,1200,dash,I,m,768,6,1,28232.799999952316,470594.60000002384,9029,ATS,B,13
14,test,1,B,mfborder.png,1,m,Wed Nov 05 2025 15:57:04 GMT-0500 (Eastern Standard Time),501244.5,CFD-WM-009-009-A.jpg,1700,dash,I,m,699,9,1,30649.899999976158,470594.60000002384,9029,ATS,B,14
15,test,1,B,mfborder.png,1,z,Wed Nov 05 2025 15:57:04 GMT-0500 (Eastern Standard Time),503527.5,CFD-BF-027-013-HC.jpg,1500,dash,I,z,738,3,1,32932.89999997616,470594.60000002384,9029,ATS,B,15
16,test,1,B,mfborder.png,1,z,Wed Nov 05 2025 15:57:04 GMT-0500 (Eastern Standard Time),505860.89999997616,CFD-WF-026-008-A.jpg,1500,dash,I,z,807,11,1,35266.299999952316,470594.60000002384,9029,ATS,B,16
17,test,1,B,mfborder.png,1,z,Wed Nov 05 2025 15:57:04 GMT-0500 (Eastern Standard Time),507677.1999999285,CFD-BF-051-043-A.jpg,1000,dash,I,z,796,4,1,37082.59999990463,470594.60000002384,9029,ATS,B,17
18,test,1,B,mfborder.png,1,m,Wed Nov 05 2025 15:57:04 GMT-0500 (Eastern Standard Time),510110.7999999523,CFD-BM-020-024-HC.jpg,1700,dash,I,m,713,1,1,39516.199999928474,470594.60000002384,9029,ATS,B,18
19,test,1,B,mfborder.png,1,m,Wed Nov 05 2025 15:57:04 GMT-0500 (Eastern Standard Time),512394.0,CFD-BM-020-024-HC.jpg,1700,dash,I,m,534,1,1,41799.39999997616,470594.60000002384,9029,ATS,B,19
20,test,1,B,mfborder.png,1,z,Wed Nov 05 2025 15:57:04 GMT-0500 (Eastern Standard Time),514677.5,CFD-BF-027-013-HC.jpg,1500,dash,I,z,756,3,1,44082.89999997616,470594.60000002384,9029,ATS,B,20
21,test,1,B,mfborder.png,1,m,Wed Nov 05 2025 15:57:04 GMT-0500 (Eastern Standard Time),517494.10000002384,CFD-BM-037-041-A.jpg,2000,dash,I,m,788,5,1,46899.5,470594.60000002384,9029,ATS,B,21
22,test,1,B,mfborder.png,1,z,Wed Nov 05 2025 15:57:04 GMT-0500 (Eastern Standard Time),520144.10000002384,CFD-WF-027-007-HC.jpg,1900,dash,I,z,728,8,1,49549.5,470594.60000002384,9029,ATS,B,22
23,test,1,B,mfborder.png,1,z,Wed Nov 05 2025 15:57:04 GMT-0500 (Eastern Standard Time),522660.6999999285,CFD-WF-027-007-HC.jpg,1900,dash,I,z,589,8,1,52066.09999990463,470594.60000002384,9029,ATS,B,23
24,test,1,B,mfborder.png,1,m,Wed Nov 05 2025 15:57:04 GMT-0500 (Eastern Standard Time),525110.7999999523,CFD-WM-009-009-A.jpg,1700,dash,I,m,705,9,1,54516.199999928474,470594.60000002384,9029,ATS,B,24
1,12,1,C,haborder.png,1,m,Wed Nov 05 2025 15:57:04 GMT-0500 (Eastern Standard Time),569160.8999999762,CFD-WM-011-006-HC.jpg,1400,solid,I,m,1051,prac,1,3266.7999999523163,565894.1000000238,9029,ATS,B,1
1,4,1,C,mfborder.png,0,m,Wed Nov 05 2025 15:57:04 GMT-0500 (Eastern Standard Time),573460.6000000238,CFD-BM-015-017-HC.jpg,2000,solid,I,None,1516,prac,1,7566.5,565894.1000000238,9029,ATS,B,2
1,6,1,C,mfborder.png,0,m,Wed Nov 05 2025 15:57:04 GMT-0500 (Eastern Standard Time),577477.2999999523,CFD-WM-009-009-A.jpg,1700,solid,I,None,1518,prac,1,11583.199999928474,565894.1000000238,9029,ATS,B,3
2,10,1,C,haborder.png,1,m,Wed Nov 05 2025 15:57:04 GMT-0500 (Eastern Standard Time),580660.7999999523,CFD-BM-020-024-HC.jpg,1500,solid,I,m,873,prac,1,14766.699999928474,565894.1000000238,9029,ATS,B,4
3,11,1,C,haborder.png,1,m,Wed Nov 05 2025 15:57:04 GMT-0500 (Eastern Standard Time),583344.1999999285,CFD-WM-011-006-HC.jpg,1000,dash,I,m,894,prac,1,17450.099999904633,565894.1000000238,9029,ATS,B,5
3,7,1,C,haborder.png,0,z,Wed Nov 05 2025 15:57:04 GMT-0500 (Eastern Standard Time),587560.2999999523,CFD-BF-051-043-A.jpg,1900,dash,I,None,1515,prac,1,21666.199999928474,565894.1000000238,9029,ATS,B,6
4,1,1,C,mfborder.png,1,z,Wed Nov 05 2025 15:57:04 GMT-0500 (Eastern Standard Time),591044.0,CFD-WF-011-006-HC.jpg,1600,dash,I,z,1090,prac,1,25149.899999976158,565894.1000000238,9029,ATS,B,7
5,8,1,C,haborder.png,1,z,Wed Nov 05 2025 15:57:04 GMT-0500 (Eastern Standard Time),594710.7999999523,CFD-BF-050-012-A.jpg,1700,solid,I,z,1153,prac,1,28816.699999928474,565894.1000000238,9029,ATS,B,8
6,9,1,C,haborder.png,1,z,Wed Nov 05 2025 15:57:04 GMT-0500 (Eastern Standard Time),597944.1000000238,CFD-WF-026-008-A.jpg,1600,dash,I,z,819,prac,1,32050.0,565894.1000000238,9029,ATS,B,9
7,5,1,C,mfborder.png,1,m,Wed Nov 05 2025 15:57:04 GMT-0500 (Eastern Standard Time),600910.6000000238,CFD-BM-037-041-A.jpg,1200,dash,I,m,961,prac,1,35016.5,565894.1000000238,9029,ATS,B,10
8,3,1,C,mfborder.png,1,z,Wed Nov 05 2025 15:57:04 GMT-0500 (Eastern Standard Time),603510.6999999285,CFD-BF-035-007-HC.jpg,1000,dash,I,z,788,prac,1,37616.59999990463,565894.1000000238,9029,ATS,B,11
9,2,1,C,mfborder.png,1,z,Wed Nov 05 2025 15:57:04 GMT-0500 (Eastern Standard Time),606743.8999999762,CFD-WF-013-015-A.jpg,1500,solid,I,z,918,prac,1,40849.799999952316,565894.1000000238,9029,ATS,B,12
1,test,1,C,mfborder.png,1,m,Wed Nov 05 2025 15:57:04 GMT-0500 (Eastern Standard Time),646293.8999999762,CFD-BM-020-024-HC.jpg,1200,dash,I,m,773,6,1,1999.5,644294.3999999762,9029,ATS,B,1
2,test,1,C,mfborder.png,1,m,Wed Nov 05 2025 15:57:04 GMT-0500 (Eastern Standard Time),648277.1000000238,CFD-BM-020-024-HC.jpg,1200,dash,I,m,756,6,1,3982.7000000476837,644294.3999999762,9029,ATS,B,2
3,test,1,C,mfborder.png,1,z,Wed Nov 05 2025 15:57:04 GMT-0500 (Eastern Standard Time),651210.6000000238,CFD-BF-027-013-HC.jpg,1700,dash,I,z,1184,1,1,6916.200000047684,644294.3999999762,9029,ATS,B,3
3,test,1,C,haborder.png,0,m,Wed Nov 05 2025 15:57:04 GMT-0500 (Eastern Standard Time),654343.6000000238,CFD-BF-035-007-HC.jpg,1600,solid,I,None,1515,10,1,10049.200000047684,644294.3999999762,9029,ATS,B,4
4,test,1,C,mfborder.png,1,z,Wed Nov 05 2025 15:57:04 GMT-0500 (Eastern Standard Time),656843.6000000238,CFD-BF-051-043-A.jpg,1600,dash,I,z,866,2,1,12549.200000047684,644294.3999999762,9029,ATS,B,5
5,test,1,C,mfborder.png,1,m,Wed Nov 05 2025 15:57:04 GMT-0500 (Eastern Standard Time),659910.5,CFD-WM-037-060-A.jpg,2000,dash,I,m,1038,5,1,15616.100000023842,644294.3999999762,9029,ATS,B,6
6,test,1,C,mfborder.png,1,m,Wed Nov 05 2025 15:57:04 GMT-0500 (Eastern Standard Time),661827.0,CFD-WM-012-007-HC.jpg,1000,dash,I,m,891,4,1,17532.600000023842,644294.3999999762,9029,ATS,B,7
7,test,1,C,haborder.png,1,z,Wed Nov 05 2025 15:57:04 GMT-0500 (Eastern Standard Time),664493.6999999285,CFD-WM-009-009-A.jpg,1400,solid,I,z,1230,7,1,20199.299999952316,644294.3999999762,9029,ATS,B,8
8,test,1,C,haborder.png,1,z,Wed Nov 05 2025 15:57:04 GMT-0500 (Eastern Standard Time),667627.0,CFD-BM-041-048-A.jpg,1700,solid,I,z,1401,9,1,23332.600000023842,644294.3999999762,9029,ATS,B,9
8,test,1,C,haborder.png,0,m,Wed Nov 05 2025 15:57:04 GMT-0500 (Eastern Standard Time),670760.5,CFD-BF-035-007-HC.jpg,1600,solid,I,None,1516,10,1,26466.100000023842,644294.3999999762,9029,ATS,B,10
9,test,1,C,mfborder.png,1,z,Wed Nov 05 2025 15:57:04 GMT-0500 (Eastern Standard Time),673244.3999999762,CFD-WF-026-008-A.jpg,1500,dash,I,z,966,3,1,28950.0,644294.3999999762,9029,ATS,B,11
10,test,1,C,mfborder.png,1,z,Wed Nov 05 2025 15:57:04 GMT-0500 (Eastern Standard Time),675727.1000000238,CFD-BF-051-043-A.jpg,1600,dash,I,z,862,2,1,31432.700000047684,644294.3999999762,9029,ATS,B,12
11,test,1,C,mfborder.png,1,z,Wed Nov 05 2025 15:57:04 GMT-0500 (Eastern Standard Time),677960.5,CFD-WF-026-008-A.jpg,1500,dash,I,z,704,3,1,33666.10000002384,644294.3999999762,9029,ATS,B,13
12,test,1,C,mfborder.png,1,z,Wed Nov 05 2025 15:57:04 GMT-0500 (Eastern Standard Time),681043.6000000238,CFD-BF-027-013-HC.jpg,1700,dash,I,z,1357,1,1,36749.200000047684,644294.3999999762,9029,ATS,B,14
13,test,1,C,mfborder.png,1,m,Wed Nov 05 2025 15:57:04 GMT-0500 (Eastern Standard Time),683943.7999999523,CFD-WM-037-060-A.jpg,2000,dash,I,m,870,5,1,39649.39999997616,644294.3999999762,9029,ATS,B,15
13,test,1,C,haborder.png,0,m,Wed Nov 05 2025 15:57:04 GMT-0500 (Eastern Standard Time),686277.0,CFD-WF-011-006-HC.jpg,1000,solid,I,z,1305,12,1,41982.60000002384,644294.3999999762,9029,ATS,B,16
13,test,1,C,haborder.png,0,z,Wed Nov 05 2025 15:57:04 GMT-0500 (Eastern Standard Time),689510.3999999762,CFD-BM-041-048-A.jpg,1700,solid,I,None,1516,9,1,45216.0,644294.3999999762,9029,ATS,B,17
14,test,1,C,haborder.png,1,m,Wed Nov 05 2025 15:57:04 GMT-0500 (Eastern Standard Time),691627.1000000238,CFD-WF-011-006-HC.jpg,1000,solid,I,m,1084,12,1,47332.700000047684,644294.3999999762,9029,ATS,B,18
15,test,1,C,haborder.png,1,m,Wed Nov 05 2025 15:57:04 GMT-0500 (Eastern Standard Time),693993.7999999523,CFD-WF-027-007-HC.jpg,1500,solid,I,m,835,11,1,49699.39999997616,644294.3999999762,9029,ATS,B,19
16,test,1,C,mfborder.png,1,m,Wed Nov 05 2025 15:57:04 GMT-0500 (Eastern Standard Time),696010.1999999285,CFD-WM-012-007-HC.jpg,1000,dash,I,m,967,4,1,51715.799999952316,644294.3999999762,9029,ATS,B,20
17,test,1,C,haborder.png,1,z,Wed Nov 05 2025 15:57:04 GMT-0500 (Eastern Standard Time),698360.2999999523,CFD-WM-009-009-A.jpg,1400,solid,I,z,919,7,1,54065.89999997616,644294.3999999762,9029,ATS,B,21
18,test,1,C,haborder.png,1,z,Wed Nov 05 2025 15:57:04 GMT-0500 (Eastern Standard Time),701210.5,CFD-BM-037-041-A.jpg,1900,solid,I,z,901,8,1,56916.10000002384,644294.3999999762,9029,ATS,B,22
19,test,1,C,haborder.png,1,z,Wed Nov 05 2025 15:57:04 GMT-0500 (Eastern Standard Time),703893.7999999523,CFD-BM-037-041-A.jpg,1900,solid,I,z,756,8,1,59599.39999997616,644294.3999999762,9029,ATS,B,23
20,test,1,C,haborder.png,1,m,Wed Nov 05 2025 15:57:04 GMT-0500 (Eastern Standard Time),706576.7999999523,CFD-WF-027-007-HC.jpg,1500,solid,I,m,1160,11,1,62282.39999997616,644294.3999999762,9029,ATS,B,24
1,test,2,C,mfborder.png,1,z,Wed Nov 05 2025 15:57:04 GMT-0500 (Eastern Standard Time),723493.8999999762,CFD-WF-013-015-A.jpg,1600,dash,I,z,956,2,1,2583.7999999523163,720910.1000000238,9029,ATS,B,1
2,test,2,C,haborder.png,1,m,Wed Nov 05 2025 15:57:04 GMT-0500 (Eastern Standard Time),725410.3999999762,CFD-WM-011-006-HC.jpg,1000,solid,I,m,892,12,1,4500.299999952316,720910.1000000238,9029,ATS,B,2
3,test,2,C,haborder.png,1,m,Wed Nov 05 2025 15:57:04 GMT-0500 (Eastern Standard Time),727577.1000000238,CFD-WM-011-006-HC.jpg,1000,solid,I,m,1119,12,1,6667.0,720910.1000000238,9029,ATS,B,3
4,test,2,C,haborder.png,1,z,Wed Nov 05 2025 15:57:04 GMT-0500 (Eastern Standard Time),730443.5,CFD-BF-050-012-A.jpg,1900,solid,I,z,933,8,1,9533.399999976158,720910.1000000238,9029,ATS,B,4
5,test,2,C,haborder.png,1,z,Wed Nov 05 2025 15:57:04 GMT-0500 (Eastern Standard Time),732676.8999999762,CFD-BF-051-043-A.jpg,1400,solid,I,z,807,7,1,11766.799999952316,720910.1000000238,9029,ATS,B,5
6,test,2,C,mfborder.png,1,m,Wed Nov 05 2025 15:57:04 GMT-0500 (Eastern Standard Time),735493.6000000238,CFD-BM-037-041-A.jpg,2000,dash,I,m,789,5,1,14583.5,720910.1000000238,9029,ATS,B,6
7,test,2,C,haborder.png,1,m,Wed Nov 05 2025 15:57:04 GMT-0500 (Eastern Standard Time),738043.6000000238,CFD-BM-020-024-HC.jpg,1600,solid,I,m,917,10,1,17133.5,720910.1000000238,9029,ATS,B,7
8,test,2,C,mfborder.png,1,z,Wed Nov 05 2025 15:57:04 GMT-0500 (Eastern Standard Time),740793.6000000238,CFD-WF-011-006-HC.jpg,1700,dash,I,z,1002,1,1,19883.5,720910.1000000238,9029,ATS,B,8
9,test,2,C,haborder.png,1,z,Wed Nov 05 2025 15:57:04 GMT-0500 (Eastern Standard Time),743660.1999999285,CFD-WF-026-008-A.jpg,1700,solid,I,z,1148,9,1,22750.099999904633,720910.1000000238,9029,ATS,B,9
10,test,2,C,mfborder.png,1,z,Wed Nov 05 2025 15:57:04 GMT-0500 (Eastern Standard Time),746610.2999999523,CFD-WF-013-015-A.jpg,1600,dash,I,z,1325,2,1,25700.199999928474,720910.1000000238,9029,ATS,B,10
11,test,2,C,mfborder.png,1,m,Wed Nov 05 2025 15:57:04 GMT-0500 (Eastern Standard Time),748493.6000000238,CFD-BM-015-017-HC.jpg,1000,dash,I,m,864,4,1,27583.5,720910.1000000238,9029,ATS,B,11
12,test,2,C,mfborder.png,1,z,Wed Nov 05 2025 15:57:04 GMT-0500 (Eastern Standard Time),751476.8999999762,CFD-BF-035-007-HC.jpg,1500,dash,I,z,1457,3,1,30566.799999952316,720910.1000000238,9029,ATS,B,12
13,test,2,C,mfborder.png,1,z,Wed Nov 05 2025 15:57:04 GMT-0500 (Eastern Standard Time),753726.7999999523,CFD-BF-035-007-HC.jpg,1500,dash,I,z,729,3,1,32816.699999928474,720910.1000000238,9029,ATS,B,13
14,test,2,C,haborder.png,1,m,Wed Nov 05 2025 15:57:04 GMT-0500 (Eastern Standard Time),756043.6000000238,CFD-WM-011-006-HC.jpg,1500,solid,I,m,783,11,1,35133.5,720910.1000000238,9029,ATS,B,14
15,test,2,C,haborder.png,1,m,Wed Nov 05 2025 15:57:04 GMT-0500 (Eastern Standard Time),758260.0,CFD-WM-011-006-HC.jpg,1500,solid,I,m,690,11,1,37349.89999997616,720910.1000000238,9029,ATS,B,15
16,test,2,C,mfborder.png,1,z,Wed Nov 05 2025 15:57:04 GMT-0500 (Eastern Standard Time),760726.7999999523,CFD-WF-011-006-HC.jpg,1700,dash,I,z,738,1,1,39816.699999928474,720910.1000000238,9029,ATS,B,16
17,test,2,C,mfborder.png,1,m,Wed Nov 05 2025 15:57:04 GMT-0500 (Eastern Standard Time),763526.8999999762,CFD-BM-037-041-A.jpg,2000,dash,I,m,754,5,1,42616.799999952316,720910.1000000238,9029,ATS,B,17
18,test,2,C,mfborder.png,1,m,Wed Nov 05 2025 15:57:04 GMT-0500 (Eastern Standard Time),765476.8999999762,CFD-WM-009-009-A.jpg,1200,dash,I,m,724,6,1,44566.799999952316,720910.1000000238,9029,ATS,B,18
19,test,2,C,haborder.png,1,z,Wed Nov 05 2025 15:57:04 GMT-0500 (Eastern Standard Time),768026.7999999523,CFD-WF-026-008-A.jpg,1700,solid,I,z,817,9,1,47116.699999928474,720910.1000000238,9029,ATS,B,19
20,test,2,C,haborder.png,1,m,Wed Nov 05 2025 15:57:04 GMT-0500 (Eastern Standard Time),770593.1000000238,CFD-BM-020-024-HC.jpg,1600,solid,I,m,925,10,1,49683.0,720910.1000000238,9029,ATS,B,20
21,test,2,C,mfborder.png,1,m,Wed Nov 05 2025 15:57:04 GMT-0500 (Eastern Standard Time),772443.1000000238,CFD-BM-015-017-HC.jpg,1000,dash,I,m,831,4,1,51533.0,720910.1000000238,9029,ATS,B,21
22,test,2,C,mfborder.png,1,m,Wed Nov 05 2025 15:57:04 GMT-0500 (Eastern Standard Time),774326.7999999523,CFD-WM-009-009-A.jpg,1200,dash,I,m,655,6,1,53416.699999928474,720910.1000000238,9029,ATS,B,22
23,test,2,C,haborder.png,1,z,Wed Nov 05 2025 15:57:04 GMT-0500 (Eastern Standard Time),776610.1999999285,CFD-BF-051-043-A.jpg,1400,solid,I,z,859,7,1,55700.09999990463,720910.1000000238,9029,ATS,B,23
24,test,2,C,haborder.png,1,z,Wed Nov 05 2025 15:57:04 GMT-0500 (Eastern Standard Time),779343.6999999285,CFD-BF-050-012-A.jpg,1900,solid,I,z,795,8,1,58433.59999990463,720910.1000000238,9029,ATS,B,24
0,test,3,C,haborder.png,0,m,Wed Nov 05 2025 15:57:04 GMT-0500 (Eastern Standard Time),791976.6999999285,CFD-BF-035-007-HC.jpg,1600,solid,I,z,836,10,1,2466.0999999046326,789510.6000000238,9029,ATS,B,1
1,test,3,C,mfborder.png,1,m,Wed Nov 05 2025 15:57:04 GMT-0500 (Eastern Standard Time),793776.8999999762,CFD-WM-012-007-HC.jpg,1000,dash,I,m,777,4,1,4266.299999952316,789510.6000000238,9029,ATS,B,2
2,test,3,C,haborder.png,1,m,Wed Nov 05 2025 15:57:04 GMT-0500 (Eastern Standard Time),795627.6999999285,CFD-WF-011-006-HC.jpg,1000,solid,I,m,817,12,1,6117.099999904633,789510.6000000238,9029,ATS,B,3
3,test,3,C,mfborder.png,1,m,Wed Nov 05 2025 15:57:04 GMT-0500 (Eastern Standard Time),797726.6000000238,CFD-WM-012-007-HC.jpg,1000,dash,I,m,1080,4,1,8216.0,789510.6000000238,9029,ATS,B,4
3,test,3,C,haborder.png,0,z,Wed Nov 05 2025 15:57:04 GMT-0500 (Eastern Standard Time),800476.6999999285,CFD-WM-009-009-A.jpg,1400,solid,I,m,1331,7,1,10966.099999904633,789510.6000000238,9029,ATS,B,5
4,test,3,C,haborder.png,1,z,Wed Nov 05 2025 15:57:04 GMT-0500 (Eastern Standard Time),803193.6000000238,CFD-BM-041-048-A.jpg,1700,solid,I,z,985,9,1,13683.0,789510.6000000238,9029,ATS,B,6
5,test,3,C,haborder.png,1,m,Wed Nov 05 2025 15:57:04 GMT-0500 (Eastern Standard Time),805960.1000000238,CFD-WF-027-007-HC.jpg,1500,solid,I,m,1220,11,1,16449.5,789510.6000000238,9029,ATS,B,7
6,test,3,C,mfborder.png,1,m,Wed Nov 05 2025 15:57:04 GMT-0500 (Eastern Standard Time),808843.5,CFD-WM-037-060-A.jpg,2000,dash,I,m,850,5,1,19332.899999976158,789510.6000000238,9029,ATS,B,8
6,test,3,C,mfborder.png,0,z,Wed Nov 05 2025 15:57:04 GMT-0500 (Eastern Standard Time),812110.1999999285,CFD-BF-027-013-HC.jpg,1700,dash,I,None,1516,1,1,22599.599999904633,789510.6000000238,9029,ATS,B,9
7,test,3,C,haborder.png,1,m,Wed Nov 05 2025 15:57:04 GMT-0500 (Eastern Standard Time),814510.6999999285,CFD-WF-027-007-HC.jpg,1500,solid,I,m,882,11,1,25000.099999904633,789510.6000000238,9029,ATS,B,10
8,test,3,C,mfborder.png,1,z,Wed Nov 05 2025 15:57:04 GMT-0500 (Eastern Standard Time),816743.5,CFD-WF-026-008-A.jpg,1500,dash,I,z,704,3,1,27232.899999976158,789510.6000000238,9029,ATS,B,11
8,test,3,C,haborder.png,0,z,Wed Nov 05 2025 15:57:04 GMT-0500 (Eastern Standard Time),819560.1000000238,CFD-BM-041-048-A.jpg,1700,solid,I,m,1086,9,1,30049.5,789510.6000000238,9029,ATS,B,12
9,test,3,C,mfborder.png,1,z,Wed Nov 05 2025 15:57:04 GMT-0500 (Eastern Standard Time),822476.7999999523,CFD-BF-027-013-HC.jpg,1700,dash,I,z,1198,1,1,32966.199999928474,789510.6000000238,9029,ATS,B,13
10,test,3,C,haborder.png,1,z,Wed Nov 05 2025 15:57:04 GMT-0500 (Eastern Standard Time),825393.2999999523,CFD-BM-037-041-A.jpg,1900,solid,I,z,976,8,1,35882.699999928474,789510.6000000238,9029,ATS,B,14
11,test,3,C,haborder.png,1,z,Wed Nov 05 2025 15:57:04 GMT-0500 (Eastern Standard Time),827993.3999999762,CFD-WM-009-009-A.jpg,1400,solid,I,z,1168,7,1,38482.799999952316,789510.6000000238,9029,ATS,B,15
11,test,3,C,haborder.png,0,m,Wed Nov 05 2025 15:57:04 GMT-0500 (Eastern Standard Time),830943.3999999762,CFD-BF-035-007-HC.jpg,1600,solid,I,z,1328,10,1,41432.799999952316,789510.6000000238,9029,ATS,B,16
12,test,3,C,mfborder.png,1,z,Wed Nov 05 2025 15:57:04 GMT-0500 (Eastern Standard Time),833693.1000000238,CFD-BF-051-043-A.jpg,1600,dash,I,z,1114,2,1,44182.5,789510.6000000238,9029,ATS,B,17
13,test,3,C,mfborder.png,1,m,Wed Nov 05 2025 15:57:04 GMT-0500 (Eastern Standard Time),835659.8999999762,CFD-BM-020-024-HC.jpg,1200,dash,I,m,749,6,1,46149.299999952316,789510.6000000238,9029,ATS,B,18
14,test,3,C,haborder.png,1,z,Wed Nov 05 2025 15:57:04 GMT-0500 (Eastern Standard Time),838510.1999999285,CFD-BM-037-041-A.jpg,1900,solid,I,z,930,8,1,48999.59999990463,789510.6000000238,9029,ATS,B,19
15,test,3,C,mfborder.png,1,z,Wed Nov 05 2025 15:57:04 GMT-0500 (Eastern Standard Time),841110.1000000238,CFD-BF-051-043-A.jpg,1600,dash,I,z,972,2,1,51599.5,789510.6000000238,9029,ATS,B,20
16,test,3,C,mfborder.png,1,m,Wed Nov 05 2025 15:57:04 GMT-0500 (Eastern Standard Time),844076.6000000238,CFD-WM-037-060-A.jpg,2000,dash,I,m,931,5,1,54566.0,789510.6000000238,9029,ATS,B,21
16,test,3,C,haborder.png,0,m,Wed Nov 05 2025 15:57:04 GMT-0500 (Eastern Standard Time),845860.1000000238,CFD-WF-011-006-HC.jpg,1000,solid,I,z,757,12,1,56349.5,789510.6000000238,9029,ATS,B,22
17,test,3,C,mfborder.png,1,m,Wed Nov 05 2025 15:57:04 GMT-0500 (Eastern Standard Time),848094.5,CFD-BM-020-024-HC.jpg,1200,dash,I,m,1013,6,1,58583.89999997616,789510.6000000238,9029,ATS,B,23
18,test,3,C,mfborder.png,1,z,Wed Nov 05 2025 15:57:04 GMT-0500 (Eastern Standard Time),850593.5,CFD-WF-026-008-A.jpg,1500,dash,I,z,976,3,1,61082.89999997616,789510.6000000238,9029,ATS,B,24
0,test,4,C,mfborder.png,0,z,Wed Nov 05 2025 15:57:04 GMT-0500 (Eastern Standard Time),863293.6999999285,CFD-BF-035-007-HC.jpg,1500,dash,I,None,1516,3,1,3033.5999999046326,860260.1000000238,9029,ATS,B,1
1,test,4,C,mfborder.png,1,m,Wed Nov 05 2025 15:57:04 GMT-0500 (Eastern Standard Time),865110.1000000238,CFD-BM-015-017-HC.jpg,1000,dash,I,m,788,4,1,4850.0,860260.1000000238,9029,ATS,B,2
2,test,4,C,mfborder.png,1,z,Wed Nov 05 2025 15:57:04 GMT-0500 (Eastern Standard Time),867759.8999999762,CFD-WF-011-006-HC.jpg,1700,dash,I,z,927,1,1,7499.799999952316,860260.1000000238,9029,ATS,B,3
3,test,4,C,mfborder.png,1,m,Wed Nov 05 2025 15:57:04 GMT-0500 (Eastern Standard Time),869626.6000000238,CFD-BM-015-017-HC.jpg,1000,dash,I,m,834,4,1,9366.5,860260.1000000238,9029,ATS,B,4
4,test,4,C,haborder.png,1,m,Wed Nov 05 2025 15:57:04 GMT-0500 (Eastern Standard Time),872259.7999999523,CFD-WM-011-006-HC.jpg,1500,solid,I,m,1089,11,1,11999.699999928474,860260.1000000238,9029,ATS,B,5
5,test,4,C,mfborder.png,1,m,Wed Nov 05 2025 15:57:04 GMT-0500 (Eastern Standard Time),874793.1999999285,CFD-WM-009-009-A.jpg,1200,dash,I,m,1302,6,1,14533.099999904633,860260.1000000238,9029,ATS,B,6
6,test,4,C,mfborder.png,1,m,Wed Nov 05 2025 15:57:04 GMT-0500 (Eastern Standard Time),876826.6000000238,CFD-WM-009-009-A.jpg,1200,dash,I,m,801,6,1,16566.5,860260.1000000238,9029,ATS,B,7
7,test,4,C,haborder.png,1,m,Wed Nov 05 2025 15:57:04 GMT-0500 (Eastern Standard Time),878759.8999999762,CFD-WM-011-006-HC.jpg,1000,solid,I,m,887,12,1,18499.799999952316,860260.1000000238,9029,ATS,B,8
8,test,4,C,mfborder.png,1,m,Wed Nov 05 2025 15:57:04 GMT-0500 (Eastern Standard Time),881810.0,CFD-BM-037-041-A.jpg,2000,dash,I,m,1026,5,1,21549.899999976158,860260.1000000238,9029,ATS,B,9
9,test,4,C,haborder.png,1,z,Wed Nov 05 2025 15:57:04 GMT-0500 (Eastern Standard Time),884293.3999999762,CFD-WF-026-008-A.jpg,1700,solid,I,z,756,9,1,24033.299999952316,860260.1000000238,9029,ATS,B,10
10,test,4,C,haborder.png,1,m,Wed Nov 05 2025 15:57:04 GMT-0500 (Eastern Standard Time),886126.1000000238,CFD-WM-011-006-HC.jpg,1000,solid,I,m,812,12,1,25866.0,860260.1000000238,9029,ATS,B,11
11,test,4,C,haborder.png,1,z,Wed Nov 05 2025 15:57:04 GMT-0500 (Eastern Standard Time),888559.6000000238,CFD-BF-051-043-A.jpg,1400,solid,I,z,1011,7,1,28299.5,860260.1000000238,9029,ATS,B,12
12,test,4,C,haborder.png,1,z,Wed Nov 05 2025 15:57:04 GMT-0500 (Eastern Standard Time),891376.6999999285,CFD-BF-050-012-A.jpg,1900,solid,I,z,894,8,1,31116.599999904633,860260.1000000238,9029,ATS,B,13
13,test,4,C,haborder.png,1,z,Wed Nov 05 2025 15:57:04 GMT-0500 (Eastern Standard Time),893810.0,CFD-WF-026-008-A.jpg,1700,solid,I,z,710,9,1,33549.89999997616,860260.1000000238,9029,ATS,B,14
14,test,4,C,haborder.png,1,z,Wed Nov 05 2025 15:57:04 GMT-0500 (Eastern Standard Time),896526.6999999285,CFD-BF-050-012-A.jpg,1900,solid,I,z,796,8,1,36266.59999990463,860260.1000000238,9029,ATS,B,15
14,test,4,C,mfborder.png,0,z,Wed Nov 05 2025 15:57:04 GMT-0500 (Eastern Standard Time),899561.0,CFD-BF-035-007-HC.jpg,1500,dash,I,None,1517,3,1,39300.89999997616,860260.1000000238,9029,ATS,B,16
15,test,4,C,mfborder.png,1,m,Wed Nov 05 2025 15:57:04 GMT-0500 (Eastern Standard Time),902359.8999999762,CFD-BM-037-041-A.jpg,2000,dash,I,m,770,5,1,42099.799999952316,860260.1000000238,9029,ATS,B,17
16,test,4,C,haborder.png,1,m,Wed Nov 05 2025 15:57:04 GMT-0500 (Eastern Standard Time),904459.6999999285,CFD-WM-011-006-HC.jpg,1500,solid,I,m,582,11,1,44199.59999990463,860260.1000000238,9029,ATS,B,18
17,test,4,C,haborder.png,1,m,Wed Nov 05 2025 15:57:04 GMT-0500 (Eastern Standard Time),906726.6000000238,CFD-BM-020-024-HC.jpg,1600,solid,I,m,638,10,1,46466.5,860260.1000000238,9029,ATS,B,19
18,test,4,C,mfborder.png,1,z,Wed Nov 05 2025 15:57:04 GMT-0500 (Eastern Standard Time),909143.1999999285,CFD-WF-011-006-HC.jpg,1700,dash,I,z,686,1,1,48883.09999990463,860260.1000000238,9029,ATS,B,20
19,test,4,C,mfborder.png,1,z,Wed Nov 05 2025 15:57:04 GMT-0500 (Eastern Standard Time),911393.2999999523,CFD-WF-013-015-A.jpg,1600,dash,I,z,626,2,1,51133.199999928474,860260.1000000238,9029,ATS,B,21
20,test,4,C,mfborder.png,1,z,Wed Nov 05 2025 15:57:04 GMT-0500 (Eastern Standard Time),913659.7999999523,CFD-WF-013-015-A.jpg,1600,dash,I,z,632,2,1,53399.699999928474,860260.1000000238,9029,ATS,B,22
20,test,4,C,haborder.png,0,z,Wed Nov 05 2025 15:57:04 GMT-0500 (Eastern Standard Time),915810.0,CFD-BF-051-043-A.jpg,1400,solid,I,m,726,7,1,55549.89999997616,860260.1000000238,9029,ATS,B,23
21,test,4,C,haborder.png,1,m,Wed Nov 05 2025 15:57:04 GMT-0500 (Eastern Standard Time),918210.0,CFD-BM-020-024-HC.jpg,1600,solid,I,m,776,10,1,57949.89999997616,860260.1000000238,9029,ATS,B,24
