acc_sum,block,block_c,block_cond,con_img,correct,correct_response,datetime,endtime,face,jitter,line,project,response,response_time,row_sel,session_number,start_end,starttime,subject_id,task,task_vers,trial
1,prac,1,A,haborder.png,1,m,Tue Mar 10 2026 09:42:14 GMT-0500 (Central Daylight Time),68252.69999998808,CFD-WM-006-013-HC.jpg,1700,solid,O,m,810,9,1,3299.5,64953.19999998808,7750,ATS,A,1
2,prac,1,A,haborder.png,1,z,Tue Mar 10 2026 09:42:14 GMT-0500 (Central Daylight Time),71202.29999995232,CFD-BM-005-010-A.jpg,1600,solid,O,z,565,2,1,6249.099999964237,64953.19999998808,7750,ATS,A,2
3,prac,1,A,haborder.png,1,m,Tue Mar 10 2026 09:42:14 GMT-0500 (Central Daylight Time),74784.89999997616,CFD-BM-017-052-HC.jpg,1700,solid,O,m,1092,1,1,9831.699999988079,64953.19999998808,7750,ATS,A,3
4,prac,1,A,haborder.png,1,m,Tue Mar 10 2026 09:42:14 GMT-0500 (Central Daylight Time),77649.59999996424,CFD-WM-004-005-HC.jpg,1400,solid,O,m,672,7,1,12696.399999976158,64953.19999998808,7750,ATS,A,4
5,prac,1,A,haborder.png,1,z,Tue Mar 10 2026 09:42:14 GMT-0500 (Central Daylight Time),80115.19999998808,CFD-BF-023-013-A.jpg,1000,solid,O,z,671,4,1,15162.0,64953.19999998808,7750,ATS,A,5
6,prac,1,A,haborder.png,1,m,Tue Mar 10 2026 09:42:14 GMT-0500 (Central Daylight Time),83615.09999996424,CFD-BF-028-020-HC.jpg,2000,solid,O,m,710,5,1,18661.899999976158,64953.19999998808,7750,ATS,A,6
6,prac,1,A,haborder.png,0,z,Tue Mar 10 2026 09:42:14 GMT-0500 (Central Daylight Time),86897.19999998808,CFD-WM-013-015-A.jpg,1900,solid,O,m,598,8,1,21944.0,64953.19999998808,7750,ATS,A,7
7,prac,1,A,haborder.png,1,z,Tue Mar 10 2026 09:42:14 GMT-0500 (Central Daylight Time),89479.09999996424,CFD-WF-019-015-A.jpg,1000,solid,O,z,784,12,1,24525.899999976158,64953.19999998808,7750,ATS,A,8
8,prac,1,A,haborder.png,1,z,Tue Mar 10 2026 09:42:14 GMT-0500 (Central Daylight Time),92578.69999998808,CFD-WF-003-014-A.jpg,1600,solid,O,z,722,10,1,27625.5,64953.19999998808,7750,ATS,A,9
9,prac,1,A,haborder.png,1,m,Tue Mar 10 2026 09:42:14 GMT-0500 (Central Daylight Time),95777.69999998808,CFD-WF-017-016-HC.jpg,1500,solid,O,m,908,11,1,30824.5,64953.19999998808,7750,ATS,A,10
10,prac,1,A,haborder.png,1,z,Tue Mar 10 2026 09:42:14 GMT-0500 (Central Daylight Time),98526.89999997616,CFD-BF-039-039-A.jpg,1200,solid,O,z,760,6,1,33573.69999998808,64953.19999998808,7750,ATS,A,11
10,prac,1,A,haborder.png,0,m,Tue Mar 10 2026 09:42:14 GMT-0500 (Central Daylight Time),102325.29999995232,CFD-BM-029-026-HC.jpg,1500,solid,O,None,1516,3,1,37372.09999996424,64953.19999998808,7750,ATS,A,12
1,prac,1,B,mfborder.png,1,z,Tue Mar 10 2026 09:42:14 GMT-0500 (Central Daylight Time),131716.69999998808,CFD-BF-010-005-HC.jpg,1500,dash,O,z,571,3,1,2865.100000023842,128851.59999996424,7750,ATS,A,1
2,prac,1,B,mfborder.png,1,m,Tue Mar 10 2026 09:42:14 GMT-0500 (Central Daylight Time),134731.79999995232,CFD-WM-013-015-A.jpg,1700,dash,O,m,516,9,1,5880.199999988079,128851.59999996424,7750,ATS,A,2
3,prac,1,B,mfborder.png,1,m,Tue Mar 10 2026 09:42:14 GMT-0500 (Central Daylight Time),138297.39999997616,CFD-BM-029-026-HC.jpg,1700,dash,O,m,1074,1,1,9445.800000011921,128851.59999996424,7750,ATS,A,3
4,prac,1,B,mfborder.png,1,m,Tue Mar 10 2026 09:42:14 GMT-0500 (Central Daylight Time),141596.5,CFD-BM-005-010-A.jpg,2000,dash,O,m,512,5,1,12744.900000035763,128851.59999996424,7750,ATS,A,4
5,prac,1,B,mfborder.png,1,z,Tue Mar 10 2026 09:42:14 GMT-0500 (Central Daylight Time),144728.5,CFD-WF-002-008-HC.jpg,1900,dash,O,z,433,8,1,15876.900000035763,128851.59999996424,7750,ATS,A,5
6,prac,1,B,mfborder.png,1,z,Tue Mar 10 2026 09:42:14 GMT-0500 (Central Daylight Time),147162.0,CFD-BF-023-013-A.jpg,1000,dash,O,z,642,4,1,18310.400000035763,128851.59999996424,7750,ATS,A,6
7,prac,1,B,mfborder.png,1,m,Tue Mar 10 2026 09:42:14 GMT-0500 (Central Daylight Time),150862.5,CFD-WM-006-013-HC.jpg,1600,dash,O,m,1319,10,1,22010.900000035763,128851.59999996424,7750,ATS,A,7
8,prac,1,B,mfborder.png,1,z,Tue Mar 10 2026 09:42:14 GMT-0500 (Central Daylight Time),153878.79999995232,CFD-BF-028-020-HC.jpg,1400,dash,O,z,816,7,1,25027.19999998808,128851.59999996424,7750,ATS,A,8
9,prac,1,B,mfborder.png,1,z,Tue Mar 10 2026 09:42:14 GMT-0500 (Central Daylight Time),157426.09999996424,CFD-WF-003-014-A.jpg,1500,dash,O,z,1257,11,1,28574.5,128851.59999996424,7750,ATS,A,9
10,prac,1,B,mfborder.png,1,m,Tue Mar 10 2026 09:42:14 GMT-0500 (Central Daylight Time),160273.29999995232,CFD-WM-019-013-A.jpg,1200,dash,O,m,846,6,1,31421.69999998808,128851.59999996424,7750,ATS,A,10
11,prac,1,B,mfborder.png,1,z,Tue Mar 10 2026 09:42:14 GMT-0500 (Central Daylight Time),163188.79999995232,CFD-WF-017-016-HC.jpg,1000,dash,O,z,1120,12,1,34337.19999998808,128851.59999996424,7750,ATS,A,11
12,prac,1,B,mfborder.png,1,m,Tue Mar 10 2026 09:42:14 GMT-0500 (Central Daylight Time),166539.39999997616,CFD-BM-010-019-A.jpg,1600,dash,O,m,969,2,1,37687.80000001192,128851.59999996424,7750,ATS,A,12
1,test,1,A,haborder.png,1,z,Tue Mar 10 2026 09:42:14 GMT-0500 (Central Daylight Time),196383.39999997616,CFD-WM-013-015-A.jpg,1900,solid,O,z,686,8,1,2617.800000011921,193765.59999996424,7750,ATS,A,1
2,test,1,A,haborder.png,1,z,Tue Mar 10 2026 09:42:14 GMT-0500 (Central Daylight Time),198627.39999997616,CFD-WF-003-014-A.jpg,1600,solid,O,z,631,10,1,4861.800000011921,193765.59999996424,7750,ATS,A,2
3,test,1,A,haborder.png,1,z,Tue Mar 10 2026 09:42:14 GMT-0500 (Central Daylight Time),200959.29999995232,CFD-BM-005-010-A.jpg,1600,solid,O,z,700,2,1,7193.699999988079,193765.59999996424,7750,ATS,A,3
4,test,1,A,haborder.png,1,z,Tue Mar 10 2026 09:42:14 GMT-0500 (Central Daylight Time),202744.29999995232,CFD-BF-039-039-A.jpg,1200,solid,O,z,559,6,1,8978.699999988079,193765.59999996424,7750,ATS,A,4
5,test,1,A,haborder.png,1,m,Tue Mar 10 2026 09:42:14 GMT-0500 (Central Daylight Time),204957.89999997616,CFD-BM-017-052-HC.jpg,1700,solid,O,m,487,1,1,11192.300000011921,193765.59999996424,7750,ATS,A,5
6,test,1,A,haborder.png,1,m,Tue Mar 10 2026 09:42:14 GMT-0500 (Central Daylight Time),206991.19999998808,CFD-WF-017-016-HC.jpg,1500,solid,O,m,502,11,1,13225.600000023842,193765.59999996424,7750,ATS,A,6
7,test,1,A,haborder.png,1,z,Tue Mar 10 2026 09:42:14 GMT-0500 (Central Daylight Time),208808.39999997616,CFD-WF-019-015-A.jpg,1000,solid,O,z,795,12,1,15042.800000011921,193765.59999996424,7750,ATS,A,7
8,test,1,A,haborder.png,1,m,Tue Mar 10 2026 09:42:14 GMT-0500 (Central Daylight Time),211823.19999998808,CFD-BF-028-020-HC.jpg,2000,solid,O,m,985,5,1,18057.600000023842,193765.59999996424,7750,ATS,A,8
9,test,1,A,haborder.png,1,z,Tue Mar 10 2026 09:42:14 GMT-0500 (Central Daylight Time),213505.59999996424,CFD-BF-023-013-A.jpg,1000,solid,O,z,657,4,1,19740.0,193765.59999996424,7750,ATS,A,9
10,test,1,A,haborder.png,1,z,Tue Mar 10 2026 09:42:14 GMT-0500 (Central Daylight Time),215974.0,CFD-BM-005-010-A.jpg,1600,solid,O,z,848,2,1,22208.400000035763,193765.59999996424,7750,ATS,A,10
11,test,1,A,haborder.png,1,m,Tue Mar 10 2026 09:42:14 GMT-0500 (Central Daylight Time),218071.5,CFD-BM-029-026-HC.jpg,1500,solid,O,m,566,3,1,24305.900000035763,193765.59999996424,7750,ATS,A,11
12,test,1,A,haborder.png,1,m,Tue Mar 10 2026 09:42:14 GMT-0500 (Central Daylight Time),220504.0,CFD-WF-017-016-HC.jpg,1500,solid,O,m,901,11,1,26738.400000035763,193765.59999996424,7750,ATS,A,12
13,test,1,A,haborder.png,1,m,Tue Mar 10 2026 09:42:14 GMT-0500 (Central Daylight Time),222804.39999997616,CFD-WM-006-013-HC.jpg,1700,solid,O,m,583,9,1,29038.80000001192,193765.59999996424,7750,ATS,A,13
14,test,1,A,haborder.png,1,m,Tue Mar 10 2026 09:42:14 GMT-0500 (Central Daylight Time),225253.09999996424,CFD-WM-006-013-HC.jpg,1700,solid,O,m,734,9,1,31487.5,193765.59999996424,7750,ATS,A,14
15,test,1,A,haborder.png,1,m,Tue Mar 10 2026 09:42:14 GMT-0500 (Central Daylight Time),228017.89999997616,CFD-BF-028-020-HC.jpg,2000,solid,O,m,733,5,1,34252.30000001192,193765.59999996424,7750,ATS,A,15
16,test,1,A,haborder.png,1,m,Tue Mar 10 2026 09:42:14 GMT-0500 (Central Daylight Time),230102.29999995232,CFD-BM-029-026-HC.jpg,1500,solid,O,m,564,3,1,36336.69999998808,193765.59999996424,7750,ATS,A,16
17,test,1,A,haborder.png,1,z,Tue Mar 10 2026 09:42:14 GMT-0500 (Central Daylight Time),232333.39999997616,CFD-WF-003-014-A.jpg,1600,solid,O,z,612,10,1,38567.80000001192,193765.59999996424,7750,ATS,A,17
18,test,1,A,haborder.png,1,z,Tue Mar 10 2026 09:42:14 GMT-0500 (Central Daylight Time),234066.0,CFD-WF-019-015-A.jpg,1000,solid,O,z,699,12,1,40300.40000003576,193765.59999996424,7750,ATS,A,18
19,test,1,A,haborder.png,1,m,Tue Mar 10 2026 09:42:14 GMT-0500 (Central Daylight Time),236301.0,CFD-WM-004-005-HC.jpg,1400,solid,O,m,815,7,1,42535.40000003576,193765.59999996424,7750,ATS,A,19
20,test,1,A,haborder.png,1,m,Tue Mar 10 2026 09:42:14 GMT-0500 (Central Daylight Time),238266.5,CFD-WM-004-005-HC.jpg,1400,solid,O,m,543,7,1,44500.90000003576,193765.59999996424,7750,ATS,A,20
21,test,1,A,haborder.png,1,z,Tue Mar 10 2026 09:42:14 GMT-0500 (Central Daylight Time),239998.89999997616,CFD-BF-023-013-A.jpg,1000,solid,O,z,704,4,1,46233.30000001192,193765.59999996424,7750,ATS,A,21
22,test,1,A,haborder.png,1,z,Tue Mar 10 2026 09:42:14 GMT-0500 (Central Daylight Time),241682.69999998808,CFD-BF-039-039-A.jpg,1200,solid,O,z,468,6,1,47917.10000002384,193765.59999996424,7750,ATS,A,22
23,test,1,A,haborder.png,1,m,Tue Mar 10 2026 09:42:14 GMT-0500 (Central Daylight Time),244147.19999998808,CFD-BM-017-052-HC.jpg,1700,solid,O,m,740,1,1,50381.60000002384,193765.59999996424,7750,ATS,A,23
24,test,1,A,haborder.png,1,z,Tue Mar 10 2026 09:42:14 GMT-0500 (Central Daylight Time),246878.79999995232,CFD-WM-013-015-A.jpg,1900,solid,O,z,804,8,1,53113.19999998808,193765.59999996424,7750,ATS,A,24
1,test,1,B,mfborder.png,1,z,Tue Mar 10 2026 09:42:14 GMT-0500 (Central Daylight Time),255761.69999998808,CFD-BF-010-005-HC.jpg,1500,dash,O,z,751,3,1,2285.100000023842,253476.59999996424,7750,ATS,A,1
2,test,1,B,mfborder.png,1,m,Tue Mar 10 2026 09:42:14 GMT-0500 (Central Daylight Time),258276.29999995232,CFD-BM-005-010-A.jpg,2000,dash,O,m,500,5,1,4799.699999988079,253476.59999996424,7750,ATS,A,2
3,test,1,B,mfborder.png,1,m,Tue Mar 10 2026 09:42:14 GMT-0500 (Central Daylight Time),260574.59999996424,CFD-WM-006-013-HC.jpg,1600,dash,O,m,679,10,1,7098.0,253476.59999996424,7750,ATS,A,3
4,test,1,B,mfborder.png,1,z,Tue Mar 10 2026 09:42:14 GMT-0500 (Central Daylight Time),263056.89999997616,CFD-WF-002-008-HC.jpg,1900,dash,O,z,551,8,1,9580.300000011921,253476.59999996424,7750,ATS,A,4
5,test,1,B,mfborder.png,1,z,Tue Mar 10 2026 09:42:14 GMT-0500 (Central Daylight Time),264740.5,CFD-WF-017-016-HC.jpg,1000,dash,O,z,656,12,1,11263.900000035763,253476.59999996424,7750,ATS,A,5
6,test,1,B,mfborder.png,1,m,Tue Mar 10 2026 09:42:14 GMT-0500 (Central Daylight Time),267089.09999996424,CFD-BM-010-019-A.jpg,1600,dash,O,m,725,2,1,13612.5,253476.59999996424,7750,ATS,A,6
7,test,1,B,mfborder.png,1,m,Tue Mar 10 2026 09:42:14 GMT-0500 (Central Daylight Time),269289.1999999881,CFD-WM-013-015-A.jpg,1700,dash,O,m,475,9,1,15812.600000023842,253476.59999996424,7750,ATS,A,7
8,test,1,B,mfborder.png,1,z,Tue Mar 10 2026 09:42:14 GMT-0500 (Central Daylight Time),271388.39999997616,CFD-WF-003-014-A.jpg,1500,dash,O,z,566,11,1,17911.80000001192,253476.59999996424,7750,ATS,A,8
9,test,1,B,mfborder.png,1,m,Tue Mar 10 2026 09:42:14 GMT-0500 (Central Daylight Time),273693.5,CFD-BM-029-026-HC.jpg,1700,dash,O,m,588,1,1,20216.900000035763,253476.59999996424,7750,ATS,A,9
10,test,1,B,mfborder.png,1,m,Tue Mar 10 2026 09:42:14 GMT-0500 (Central Daylight Time),275969.59999996424,CFD-BM-029-026-HC.jpg,1700,dash,O,m,549,1,1,22493.0,253476.59999996424,7750,ATS,A,10
11,test,1,B,mfborder.png,1,m,Tue Mar 10 2026 09:42:14 GMT-0500 (Central Daylight Time),278002.2999999523,CFD-BM-010-019-A.jpg,1600,dash,O,m,401,2,1,24525.69999998808,253476.59999996424,7750,ATS,A,11
12,test,1,B,mfborder.png,1,z,Tue Mar 10 2026 09:42:14 GMT-0500 (Central Daylight Time),279585.39999997616,CFD-BF-023-013-A.jpg,1000,dash,O,z,558,4,1,26108.80000001192,253476.59999996424,7750,ATS,A,12
13,test,1,B,mfborder.png,1,z,Tue Mar 10 2026 09:42:14 GMT-0500 (Central Daylight Time),281550.89999997616,CFD-BF-028-020-HC.jpg,1400,dash,O,z,536,7,1,28074.30000001192,253476.59999996424,7750,ATS,A,13
14,test,1,B,mfborder.png,1,z,Tue Mar 10 2026 09:42:14 GMT-0500 (Central Daylight Time),283168.7999999523,CFD-WF-017-016-HC.jpg,1000,dash,O,z,586,12,1,29692.19999998808,253476.59999996424,7750,ATS,A,14
15,test,1,B,mfborder.png,1,z,Tue Mar 10 2026 09:42:14 GMT-0500 (Central Daylight Time),285216.89999997616,CFD-BF-028-020-HC.jpg,1400,dash,O,z,617,7,1,31740.30000001192,253476.59999996424,7750,ATS,A,15
16,test,1,B,mfborder.png,1,z,Tue Mar 10 2026 09:42:14 GMT-0500 (Central Daylight Time),286767.1999999881,CFD-BF-023-013-A.jpg,1000,dash,O,z,528,4,1,33290.60000002384,253476.59999996424,7750,ATS,A,16
17,test,1,B,mfborder.png,1,m,Tue Mar 10 2026 09:42:14 GMT-0500 (Central Daylight Time),288415.39999997616,CFD-WM-019-013-A.jpg,1200,dash,O,m,419,6,1,34938.80000001192,253476.59999996424,7750,ATS,A,17
18,test,1,B,mfborder.png,1,z,Tue Mar 10 2026 09:42:14 GMT-0500 (Central Daylight Time),290431.59999996424,CFD-BF-010-005-HC.jpg,1500,dash,O,z,485,3,1,36955.0,253476.59999996424,7750,ATS,A,18
19,test,1,B,mfborder.png,1,z,Tue Mar 10 2026 09:42:14 GMT-0500 (Central Daylight Time),292464.7999999523,CFD-WF-003-014-A.jpg,1500,dash,O,z,509,11,1,38988.19999998808,253476.59999996424,7750,ATS,A,19
20,test,1,B,mfborder.png,1,m,Tue Mar 10 2026 09:42:14 GMT-0500 (Central Daylight Time),295013.1999999881,CFD-BM-005-010-A.jpg,2000,dash,O,m,519,5,1,41536.60000002384,253476.59999996424,7750,ATS,A,20
21,test,1,B,mfborder.png,1,z,Tue Mar 10 2026 09:42:14 GMT-0500 (Central Daylight Time),297513.59999996424,CFD-WF-002-008-HC.jpg,1900,dash,O,z,566,8,1,44037.0,253476.59999996424,7750,ATS,A,21
22,test,1,B,mfborder.png,1,m,Tue Mar 10 2026 09:42:14 GMT-0500 (Central Daylight Time),299895.89999997616,CFD-WM-006-013-HC.jpg,1600,dash,O,m,760,10,1,46419.30000001192,253476.59999996424,7750,ATS,A,22
23,test,1,B,mfborder.png,1,m,Tue Mar 10 2026 09:42:14 GMT-0500 (Central Daylight Time),302244.6999999881,CFD-WM-013-015-A.jpg,1700,dash,O,m,632,9,1,48768.10000002384,253476.59999996424,7750,ATS,A,23
24,test,1,B,mfborder.png,1,m,Tue Mar 10 2026 09:42:14 GMT-0500 (Central Daylight Time),304093.7999999523,CFD-WM-019-013-A.jpg,1200,dash,O,m,627,6,1,50617.19999998808,253476.59999996424,7750,ATS,A,24
0,prac,1,C,haborder.png,0,z,Tue Mar 10 2026 09:42:14 GMT-0500 (Central Daylight Time),348964.59999996424,CFD-WF-003-014-A.jpg,1600,dash,O,None,1516,9,1,3899.300000011921,345065.2999999523,7750,ATS,A,1
1,prac,1,C,haborder.png,1,m,Tue Mar 10 2026 09:42:14 GMT-0500 (Central Daylight Time),352179.39999997616,CFD-WM-004-005-HC.jpg,1000,dash,O,m,1433,11,1,7114.100000023842,345065.2999999523,7750,ATS,A,2
2,prac,1,C,mfborder.png,1,m,Tue Mar 10 2026 09:42:14 GMT-0500 (Central Daylight Time),355377.59999996424,CFD-BM-005-010-A.jpg,1200,dash,O,m,1201,5,1,10312.300000011921,345065.2999999523,7750,ATS,A,3
3,prac,1,C,mfborder.png,1,m,Tue Mar 10 2026 09:42:14 GMT-0500 (Central Daylight Time),359242.59999996424,CFD-BM-017-052-HC.jpg,2000,solid,O,m,1071,4,1,14177.300000011921,345065.2999999523,7750,ATS,A,4
3,prac,1,C,haborder.png,0,m,Tue Mar 10 2026 09:42:14 GMT-0500 (Central Daylight Time),363042.2999999523,CFD-BM-029-026-HC.jpg,1500,solid,O,None,1514,10,1,17977.0,345065.2999999523,7750,ATS,A,5
4,prac,1,C,mfborder.png,1,z,Tue Mar 10 2026 09:42:14 GMT-0500 (Central Daylight Time),366858.7999999523,CFD-WF-017-016-HC.jpg,1600,dash,O,z,1432,1,1,21793.5,345065.2999999523,7750,ATS,A,6
4,prac,1,C,haborder.png,0,z,Tue Mar 10 2026 09:42:14 GMT-0500 (Central Daylight Time),370791.0,CFD-BF-023-013-A.jpg,1900,dash,O,m,1245,7,1,25725.700000047684,345065.2999999523,7750,ATS,A,7
4,prac,1,C,haborder.png,0,m,Tue Mar 10 2026 09:42:14 GMT-0500 (Central Daylight Time),374488.59999996424,CFD-WM-004-005-HC.jpg,1400,solid,O,None,1516,12,1,29423.30000001192,345065.2999999523,7750,ATS,A,8
5,prac,1,C,mfborder.png,1,z,Tue Mar 10 2026 09:42:14 GMT-0500 (Central Daylight Time),376872.1999999881,CFD-BF-028-020-HC.jpg,1000,dash,O,z,584,3,1,31806.900000035763,345065.2999999523,7750,ATS,A,9
6,prac,1,C,mfborder.png,1,m,Tue Mar 10 2026 09:42:14 GMT-0500 (Central Daylight Time),380221.2999999523,CFD-WM-013-015-A.jpg,1700,solid,O,m,878,6,1,35156.0,345065.2999999523,7750,ATS,A,10
7,prac,1,C,mfborder.png,1,z,Tue Mar 10 2026 09:42:14 GMT-0500 (Central Daylight Time),383571.1999999881,CFD-WF-019-015-A.jpg,1500,solid,O,z,1069,2,1,38505.90000003576,345065.2999999523,7750,ATS,A,11
7,prac,1,C,haborder.png,0,z,Tue Mar 10 2026 09:42:14 GMT-0500 (Central Daylight Time),386951.59999996424,CFD-BF-039-039-A.jpg,1700,solid,O,m,884,8,1,41886.30000001192,345065.2999999523,7750,ATS,A,12
1,prac,2,C,mfborder.png,1,m,Tue Mar 10 2026 09:42:14 GMT-0500 (Central Daylight Time),395449.89999997616,CFD-WM-013-015-A.jpg,1700,solid,O,m,1340,6,1,50384.60000002384,345065.2999999523,7750,ATS,A,1
2,prac,2,C,mfborder.png,1,z,Tue Mar 10 2026 09:42:14 GMT-0500 (Central Daylight Time),398764.7999999523,CFD-WF-019-015-A.jpg,1500,solid,O,z,1020,2,1,53699.5,345065.2999999523,7750,ATS,A,2
3,prac,2,C,mfborder.png,1,z,Tue Mar 10 2026 09:42:14 GMT-0500 (Central Daylight Time),401796.0,CFD-BF-028-020-HC.jpg,1000,dash,O,z,1237,3,1,56730.700000047684,345065.2999999523,7750,ATS,A,3
4,prac,2,C,haborder.png,1,m,Tue Mar 10 2026 09:42:14 GMT-0500 (Central Daylight Time),404745.09999996424,CFD-WM-004-005-HC.jpg,1000,dash,O,m,1165,11,1,59679.80000001192,345065.2999999523,7750,ATS,A,4
5,prac,2,C,haborder.png,1,z,Tue Mar 10 2026 09:42:14 GMT-0500 (Central Daylight Time),407795.59999996424,CFD-WF-003-014-A.jpg,1600,dash,O,z,673,9,1,62730.30000001192,345065.2999999523,7750,ATS,A,5
6,prac,2,C,haborder.png,1,z,Tue Mar 10 2026 09:42:14 GMT-0500 (Central Daylight Time),411493.6999999881,CFD-BF-023-013-A.jpg,1900,dash,O,z,1012,7,1,66428.40000003576,345065.2999999523,7750,ATS,A,6
7,prac,2,C,mfborder.png,1,m,Tue Mar 10 2026 09:42:14 GMT-0500 (Central Daylight Time),415476.09999996424,CFD-BM-017-052-HC.jpg,2000,solid,O,m,1204,4,1,70410.80000001192,345065.2999999523,7750,ATS,A,7
8,prac,2,C,mfborder.png,1,z,Tue Mar 10 2026 09:42:14 GMT-0500 (Central Daylight Time),418608.39999997616,CFD-WF-017-016-HC.jpg,1600,dash,O,z,742,1,1,73543.10000002384,345065.2999999523,7750,ATS,A,8
8,prac,2,C,haborder.png,0,m,Tue Mar 10 2026 09:42:14 GMT-0500 (Central Daylight Time),422290.59999996424,CFD-WM-004-005-HC.jpg,1400,solid,O,None,1516,12,1,77225.30000001192,345065.2999999523,7750,ATS,A,9
9,prac,2,C,haborder.png,1,z,Tue Mar 10 2026 09:42:14 GMT-0500 (Central Daylight Time),425890.0,CFD-BF-039-039-A.jpg,1700,solid,O,z,1108,8,1,80824.70000004768,345065.2999999523,7750,ATS,A,10
10,prac,2,C,haborder.png,1,m,Tue Mar 10 2026 09:42:14 GMT-0500 (Central Daylight Time),429388.0,CFD-BM-029-026-HC.jpg,1500,solid,O,m,1198,10,1,84322.70000004768,345065.2999999523,7750,ATS,A,11
11,prac,2,C,mfborder.png,1,m,Tue Mar 10 2026 09:42:14 GMT-0500 (Central Daylight Time),432370.1999999881,CFD-BM-005-010-A.jpg,1200,dash,O,m,989,5,1,87304.90000003576,345065.2999999523,7750,ATS,A,12
1,test,1,C,haborder.png,1,z,Tue Mar 10 2026 09:42:14 GMT-0500 (Central Daylight Time),462136.2999999523,CFD-BM-005-010-A.jpg,1900,solid,O,z,1094,8,1,3024.899999976158,459111.39999997616,7750,ATS,A,1
2,test,1,C,haborder.png,1,z,Tue Mar 10 2026 09:42:14 GMT-0500 (Central Daylight Time),464444.0,CFD-WM-013-015-A.jpg,1400,solid,O,z,883,7,1,5332.600000023842,459111.39999997616,7750,ATS,A,2
3,test,1,C,haborder.png,1,m,Tue Mar 10 2026 09:42:14 GMT-0500 (Central Daylight Time),466243.2999999523,CFD-WF-017-016-HC.jpg,1000,solid,O,m,782,12,1,7131.899999976158,459111.39999997616,7750,ATS,A,3
4,test,1,C,haborder.png,1,m,Tue Mar 10 2026 09:42:14 GMT-0500 (Central Daylight Time),468942.0,CFD-BF-028-020-HC.jpg,1600,solid,O,m,1078,10,1,9830.600000023842,459111.39999997616,7750,ATS,A,4
5,test,1,C,mfborder.png,1,z,Tue Mar 10 2026 09:42:14 GMT-0500 (Central Daylight Time),471389.59999996424,CFD-BF-010-005-HC.jpg,1700,dash,O,z,727,1,1,12278.199999988079,459111.39999997616,7750,ATS,A,5
5,test,1,C,haborder.png,0,m,Tue Mar 10 2026 09:42:14 GMT-0500 (Central Daylight Time),474423.89999997616,CFD-WF-002-008-HC.jpg,1500,solid,O,None,1517,11,1,15312.5,459111.39999997616,7750,ATS,A,6
5,test,1,C,haborder.png,0,z,Tue Mar 10 2026 09:42:14 GMT-0500 (Central Daylight Time),476672.6999999881,CFD-WM-013-015-A.jpg,1400,solid,O,m,826,7,1,17561.30000001192,459111.39999997616,7750,ATS,A,7
6,test,1,C,mfborder.png,1,m,Tue Mar 10 2026 09:42:14 GMT-0500 (Central Daylight Time),478405.5,CFD-WM-006-013-HC.jpg,1000,dash,O,m,717,4,1,19294.100000023842,459111.39999997616,7750,ATS,A,8
7,test,1,C,haborder.png,1,z,Tue Mar 10 2026 09:42:14 GMT-0500 (Central Daylight Time),481304.2999999523,CFD-BM-005-010-A.jpg,1900,solid,O,z,976,8,1,22192.899999976158,459111.39999997616,7750,ATS,A,9
8,test,1,C,mfborder.png,1,m,Tue Mar 10 2026 09:42:14 GMT-0500 (Central Daylight Time),483187.0,CFD-BM-029-026-HC.jpg,1200,dash,O,m,664,6,1,24075.600000023842,459111.39999997616,7750,ATS,A,10
9,test,1,C,mfborder.png,1,m,Tue Mar 10 2026 09:42:14 GMT-0500 (Central Daylight Time),486604.1999999881,CFD-WM-019-013-A.jpg,2000,dash,O,m,1401,5,1,27492.80000001192,459111.39999997616,7750,ATS,A,11
9,test,1,C,haborder.png,0,m,Tue Mar 10 2026 09:42:14 GMT-0500 (Central Daylight Time),488951.6999999881,CFD-WF-002-008-HC.jpg,1500,solid,O,z,818,11,1,29840.30000001192,459111.39999997616,7750,ATS,A,12
10,test,1,C,mfborder.png,1,z,Tue Mar 10 2026 09:42:14 GMT-0500 (Central Daylight Time),491168.0,CFD-WF-003-014-A.jpg,1500,dash,O,z,685,3,1,32056.600000023842,459111.39999997616,7750,ATS,A,13
11,test,1,C,haborder.png,1,z,Tue Mar 10 2026 09:42:14 GMT-0500 (Central Daylight Time),493783.59999996424,CFD-BM-010-019-A.jpg,1700,solid,O,z,887,9,1,34672.19999998808,459111.39999997616,7750,ATS,A,14
12,test,1,C,haborder.png,1,z,Tue Mar 10 2026 09:42:14 GMT-0500 (Central Daylight Time),496382.89999997616,CFD-BM-010-019-A.jpg,1700,solid,O,z,868,9,1,37271.5,459111.39999997616,7750,ATS,A,15
13,test,1,C,mfborder.png,1,z,Tue Mar 10 2026 09:42:14 GMT-0500 (Central Daylight Time),498682.39999997616,CFD-BF-023-013-A.jpg,1600,dash,O,z,675,2,1,39571.0,459111.39999997616,7750,ATS,A,16
14,test,1,C,haborder.png,1,m,Tue Mar 10 2026 09:42:14 GMT-0500 (Central Daylight Time),500915.5,CFD-WF-017-016-HC.jpg,1000,solid,O,m,1207,12,1,41804.10000002384,459111.39999997616,7750,ATS,A,17
15,test,1,C,mfborder.png,1,m,Tue Mar 10 2026 09:42:14 GMT-0500 (Central Daylight Time),503563.39999997616,CFD-WM-019-013-A.jpg,2000,dash,O,m,619,5,1,44452.0,459111.39999997616,7750,ATS,A,18
16,test,1,C,mfborder.png,1,z,Tue Mar 10 2026 09:42:14 GMT-0500 (Central Daylight Time),505879.7999999523,CFD-WF-003-014-A.jpg,1500,dash,O,z,790,3,1,46768.39999997616,459111.39999997616,7750,ATS,A,19
17,test,1,C,mfborder.png,1,z,Tue Mar 10 2026 09:42:14 GMT-0500 (Central Daylight Time),508680.1999999881,CFD-BF-023-013-A.jpg,1600,dash,O,z,1178,2,1,49568.80000001192,459111.39999997616,7750,ATS,A,20
18,test,1,C,haborder.png,1,m,Tue Mar 10 2026 09:42:14 GMT-0500 (Central Daylight Time),511429.59999996424,CFD-BF-028-020-HC.jpg,1600,solid,O,m,1131,10,1,52318.19999998808,459111.39999997616,7750,ATS,A,21
19,test,1,C,mfborder.png,1,z,Tue Mar 10 2026 09:42:14 GMT-0500 (Central Daylight Time),513929.09999996424,CFD-BF-010-005-HC.jpg,1700,dash,O,z,768,1,1,54817.69999998808,459111.39999997616,7750,ATS,A,22
20,test,1,C,mfborder.png,1,m,Tue Mar 10 2026 09:42:14 GMT-0500 (Central Daylight Time),516060.1999999881,CFD-WM-006-013-HC.jpg,1000,dash,O,m,1113,4,1,56948.80000001192,459111.39999997616,7750,ATS,A,23
21,test,1,C,mfborder.png,1,m,Tue Mar 10 2026 09:42:14 GMT-0500 (Central Daylight Time),518043.7999999523,CFD-BM-029-026-HC.jpg,1200,dash,O,m,764,6,1,58932.39999997616,459111.39999997616,7750,ATS,A,24
0,test,2,C,haborder.png,0,z,Tue Mar 10 2026 09:42:14 GMT-0500 (Central Daylight Time),525791.0999999642,CFD-WF-003-014-A.jpg,1700,solid,O,None,1515,9,1,3233.099999964237,522558.0,7750,ATS,A,1
1,test,2,C,mfborder.png,1,m,Tue Mar 10 2026 09:42:14 GMT-0500 (Central Daylight Time),528738.6999999881,CFD-BM-005-010-A.jpg,2000,dash,O,m,918,5,1,6180.699999988079,522558.0,7750,ATS,A,2
2,test,2,C,mfborder.png,1,z,Tue Mar 10 2026 09:42:14 GMT-0500 (Central Daylight Time),531139.1999999881,CFD-WF-017-016-HC.jpg,1700,dash,O,z,666,1,1,8581.199999988079,522558.0,7750,ATS,A,3
2,test,2,C,mfborder.png,0,z,Tue Mar 10 2026 09:42:14 GMT-0500 (Central Daylight Time),534138.3999999762,CFD-WF-019-015-A.jpg,1600,dash,O,m,1372,2,1,11580.399999976158,522558.0,7750,ATS,A,4
2,test,2,C,haborder.png,0,m,Tue Mar 10 2026 09:42:14 GMT-0500 (Central Daylight Time),536670.0,CFD-WM-004-005-HC.jpg,1000,solid,O,None,1514,12,1,14112.0,522558.0,7750,ATS,A,5
2,test,2,C,haborder.png,0,z,Tue Mar 10 2026 09:42:14 GMT-0500 (Central Daylight Time),539801.5999999642,CFD-WF-003-014-A.jpg,1700,solid,O,m,1409,9,1,17243.599999964237,522558.0,7750,ATS,A,6
3,test,2,C,haborder.png,1,z,Tue Mar 10 2026 09:42:14 GMT-0500 (Central Daylight Time),542033.6999999881,CFD-BF-023-013-A.jpg,1400,solid,O,z,812,7,1,19475.69999998808,522558.0,7750,ATS,A,7
3,test,2,C,haborder.png,0,m,Tue Mar 10 2026 09:42:14 GMT-0500 (Central Daylight Time),545167.6999999881,CFD-BM-029-026-HC.jpg,1600,solid,O,None,1515,10,1,22609.69999998808,522558.0,7750,ATS,A,8
4,test,2,C,mfborder.png,1,z,Tue Mar 10 2026 09:42:14 GMT-0500 (Central Daylight Time),547367.0,CFD-BF-028-020-HC.jpg,1500,dash,O,z,669,3,1,24809.0,522558.0,7750,ATS,A,9
5,test,2,C,haborder.png,1,m,Tue Mar 10 2026 09:42:14 GMT-0500 (Central Daylight Time),549965.5999999642,CFD-WM-004-005-HC.jpg,1500,solid,O,m,1070,11,1,27407.599999964237,522558.0,7750,ATS,A,10
6,test,2,C,mfborder.png,1,m,Tue Mar 10 2026 09:42:14 GMT-0500 (Central Daylight Time),552066.2999999523,CFD-WM-013-015-A.jpg,1200,dash,O,m,867,6,1,29508.299999952316,522558.0,7750,ATS,A,11
7,test,2,C,haborder.png,1,z,Tue Mar 10 2026 09:42:14 GMT-0500 (Central Daylight Time),554281.0999999642,CFD-BF-023-013-A.jpg,1400,solid,O,z,793,7,1,31723.099999964237,522558.0,7750,ATS,A,12
8,test,2,C,haborder.png,1,m,Tue Mar 10 2026 09:42:14 GMT-0500 (Central Daylight Time),557013.6999999881,CFD-BM-029-026-HC.jpg,1600,solid,O,m,1105,10,1,34455.69999998808,522558.0,7750,ATS,A,13
9,test,2,C,mfborder.png,1,m,Tue Mar 10 2026 09:42:14 GMT-0500 (Central Daylight Time),559879.1999999881,CFD-BM-005-010-A.jpg,2000,dash,O,m,843,5,1,37321.19999998808,522558.0,7750,ATS,A,14
10,test,2,C,mfborder.png,1,m,Tue Mar 10 2026 09:42:14 GMT-0500 (Central Daylight Time),561745.5,CFD-WM-013-015-A.jpg,1200,dash,O,m,641,6,1,39187.5,522558.0,7750,ATS,A,15
11,test,2,C,mfborder.png,1,z,Tue Mar 10 2026 09:42:14 GMT-0500 (Central Daylight Time),564128.1999999881,CFD-WF-019-015-A.jpg,1600,dash,O,z,759,2,1,41570.19999998808,522558.0,7750,ATS,A,16
12,test,2,C,mfborder.png,1,z,Tue Mar 10 2026 09:42:14 GMT-0500 (Central Daylight Time),566344.0999999642,CFD-BF-028-020-HC.jpg,1500,dash,O,z,692,3,1,43786.09999996424,522558.0,7750,ATS,A,17
13,test,2,C,mfborder.png,1,z,Tue Mar 10 2026 09:42:14 GMT-0500 (Central Daylight Time),568777.7999999523,CFD-WF-017-016-HC.jpg,1700,dash,O,z,700,1,1,46219.799999952316,522558.0,7750,ATS,A,18
14,test,2,C,mfborder.png,1,m,Tue Mar 10 2026 09:42:14 GMT-0500 (Central Daylight Time),570692.3999999762,CFD-BM-017-052-HC.jpg,1000,dash,O,m,899,4,1,48134.39999997616,522558.0,7750,ATS,A,19
14,test,2,C,haborder.png,0,z,Tue Mar 10 2026 09:42:14 GMT-0500 (Central Daylight Time),574125.0,CFD-BF-039-039-A.jpg,1900,solid,O,None,1514,8,1,51567.0,522558.0,7750,ATS,A,20
15,test,2,C,haborder.png,1,z,Tue Mar 10 2026 09:42:14 GMT-0500 (Central Daylight Time),576691.6999999881,CFD-BF-039-039-A.jpg,1900,solid,O,z,648,8,1,54133.69999998808,522558.0,7750,ATS,A,21
16,test,2,C,haborder.png,1,m,Tue Mar 10 2026 09:42:14 GMT-0500 (Central Daylight Time),578723.8999999762,CFD-WM-004-005-HC.jpg,1000,solid,O,m,1006,12,1,56165.89999997616,522558.0,7750,ATS,A,22
17,test,2,C,mfborder.png,1,m,Tue Mar 10 2026 09:42:14 GMT-0500 (Central Daylight Time),580423.7999999523,CFD-BM-017-052-HC.jpg,1000,dash,O,m,668,4,1,57865.799999952316,522558.0,7750,ATS,A,23
18,test,2,C,haborder.png,1,m,Tue Mar 10 2026 09:42:14 GMT-0500 (Central Daylight Time),582723.0,CFD-WM-004-005-HC.jpg,1500,solid,O,m,766,11,1,60165.0,522558.0,7750,ATS,A,24
1,test,3,C,mfborder.png,1,z,Tue Mar 10 2026 09:42:14 GMT-0500 (Central Daylight Time),589836.3999999762,CFD-BF-023-013-A.jpg,1600,dash,O,z,1248,2,1,2864.699999988079,586971.6999999881,7750,ATS,A,1
2,test,3,C,haborder.png,1,z,Tue Mar 10 2026 09:42:14 GMT-0500 (Central Daylight Time),592835.6999999881,CFD-BM-010-019-A.jpg,1700,solid,O,z,1273,9,1,5864.0,586971.6999999881,7750,ATS,A,2
3,test,3,C,haborder.png,1,m,Tue Mar 10 2026 09:42:14 GMT-0500 (Central Daylight Time),595368.7999999523,CFD-BF-028-020-HC.jpg,1600,solid,O,m,901,10,1,8397.099999964237,586971.6999999881,7750,ATS,A,3
4,test,3,C,haborder.png,1,m,Tue Mar 10 2026 09:42:14 GMT-0500 (Central Daylight Time),597568.3999999762,CFD-BF-028-020-HC.jpg,1600,solid,O,m,576,10,1,10596.699999988079,586971.6999999881,7750,ATS,A,4
5,test,3,C,haborder.png,1,m,Tue Mar 10 2026 09:42:14 GMT-0500 (Central Daylight Time),600183.3999999762,CFD-WF-002-008-HC.jpg,1500,solid,O,m,1085,11,1,13211.699999988079,586971.6999999881,7750,ATS,A,5
6,test,3,C,mfborder.png,1,m,Tue Mar 10 2026 09:42:14 GMT-0500 (Central Daylight Time),602232.3999999762,CFD-BM-029-026-HC.jpg,1200,dash,O,m,825,6,1,15260.699999988079,586971.6999999881,7750,ATS,A,6
7,test,3,C,mfborder.png,1,z,Tue Mar 10 2026 09:42:14 GMT-0500 (Central Daylight Time),604615.5999999642,CFD-WF-003-014-A.jpg,1500,dash,O,z,873,3,1,17643.899999976158,586971.6999999881,7750,ATS,A,7
8,test,3,C,mfborder.png,1,m,Tue Mar 10 2026 09:42:14 GMT-0500 (Central Daylight Time),606765.5999999642,CFD-WM-006-013-HC.jpg,1000,dash,O,m,1131,4,1,19793.899999976158,586971.6999999881,7750,ATS,A,8
9,test,3,C,haborder.png,1,z,Tue Mar 10 2026 09:42:14 GMT-0500 (Central Daylight Time),609680.1999999881,CFD-BM-005-010-A.jpg,1900,solid,O,z,984,8,1,22708.5,586971.6999999881,7750,ATS,A,9
10,test,3,C,mfborder.png,1,z,Tue Mar 10 2026 09:42:14 GMT-0500 (Central Daylight Time),612095.7999999523,CFD-WF-003-014-A.jpg,1500,dash,O,z,895,3,1,25124.099999964237,586971.6999999881,7750,ATS,A,10
10,test,3,C,haborder.png,0,z,Tue Mar 10 2026 09:42:14 GMT-0500 (Central Daylight Time),614228.5999999642,CFD-WM-013-015-A.jpg,1400,solid,O,m,706,7,1,27256.899999976158,586971.6999999881,7750,ATS,A,11
11,test,3,C,haborder.png,1,m,Tue Mar 10 2026 09:42:14 GMT-0500 (Central Daylight Time),616478.0999999642,CFD-WF-017-016-HC.jpg,1000,solid,O,m,1231,12,1,29506.399999976158,586971.6999999881,7750,ATS,A,12
12,test,3,C,mfborder.png,1,m,Tue Mar 10 2026 09:42:14 GMT-0500 (Central Daylight Time),619793.3999999762,CFD-WM-019-013-A.jpg,2000,dash,O,m,1290,5,1,32821.69999998808,586971.6999999881,7750,ATS,A,13
12,test,3,C,haborder.png,0,m,Tue Mar 10 2026 09:42:14 GMT-0500 (Central Daylight Time),622327.5999999642,CFD-WF-017-016-HC.jpg,1000,solid,O,None,1514,12,1,35355.89999997616,586971.6999999881,7750,ATS,A,14
13,test,3,C,mfborder.png,1,m,Tue Mar 10 2026 09:42:14 GMT-0500 (Central Daylight Time),624309.5,CFD-WM-006-013-HC.jpg,1000,dash,O,m,965,4,1,37337.80000001192,586971.6999999881,7750,ATS,A,15
14,test,3,C,haborder.png,1,z,Tue Mar 10 2026 09:42:14 GMT-0500 (Central Daylight Time),626558.2999999523,CFD-WM-013-015-A.jpg,1400,solid,O,z,820,7,1,39586.59999996424,586971.6999999881,7750,ATS,A,16
15,test,3,C,mfborder.png,1,m,Tue Mar 10 2026 09:42:14 GMT-0500 (Central Daylight Time),628572.7999999523,CFD-BM-029-026-HC.jpg,1200,dash,O,m,795,6,1,41601.09999996424,586971.6999999881,7750,ATS,A,17
16,test,3,C,mfborder.png,1,z,Tue Mar 10 2026 09:42:14 GMT-0500 (Central Daylight Time),631573.0999999642,CFD-BF-010-005-HC.jpg,1700,dash,O,z,1280,1,1,44601.39999997616,586971.6999999881,7750,ATS,A,18
17,test,3,C,mfborder.png,1,z,Tue Mar 10 2026 09:42:14 GMT-0500 (Central Daylight Time),633889.5,CFD-BF-023-013-A.jpg,1600,dash,O,z,693,2,1,46917.80000001192,586971.6999999881,7750,ATS,A,19
18,test,3,C,haborder.png,1,m,Tue Mar 10 2026 09:42:14 GMT-0500 (Central Daylight Time),636404.8999999762,CFD-WF-002-008-HC.jpg,1500,solid,O,m,995,11,1,49433.19999998808,586971.6999999881,7750,ATS,A,20
19,test,3,C,haborder.png,1,z,Tue Mar 10 2026 09:42:14 GMT-0500 (Central Daylight Time),639137.0999999642,CFD-BM-005-010-A.jpg,1900,solid,O,z,801,8,1,52165.39999997616,586971.6999999881,7750,ATS,A,21
20,test,3,C,haborder.png,1,z,Tue Mar 10 2026 09:42:14 GMT-0500 (Central Daylight Time),641736.5,CFD-BM-010-019-A.jpg,1700,solid,O,z,868,9,1,54764.80000001192,586971.6999999881,7750,ATS,A,22
21,test,3,C,mfborder.png,1,z,Tue Mar 10 2026 09:42:14 GMT-0500 (Central Daylight Time),644353.7999999523,CFD-BF-010-005-HC.jpg,1700,dash,O,z,894,1,1,57382.09999996424,586971.6999999881,7750,ATS,A,23
22,test,3,C,mfborder.png,1,m,Tue Mar 10 2026 09:42:14 GMT-0500 (Central Daylight Time),647034.5999999642,CFD-WM-019-013-A.jpg,2000,dash,O,m,658,5,1,60062.89999997616,586971.6999999881,7750,ATS,A,24
1,test,4,C,haborder.png,1,z,Tue Mar 10 2026 09:42:14 GMT-0500 (Central Daylight Time),653165.3999999762,CFD-WF-003-014-A.jpg,1700,solid,O,z,1244,9,1,2964.800000011921,650200.5999999642,7750,ATS,A,1
2,test,4,C,haborder.png,1,z,Tue Mar 10 2026 09:42:14 GMT-0500 (Central Daylight Time),655283.1999999881,CFD-BF-023-013-A.jpg,1400,solid,O,z,699,7,1,5082.600000023842,650200.5999999642,7750,ATS,A,2
2,test,4,C,haborder.png,0,m,Tue Mar 10 2026 09:42:14 GMT-0500 (Central Daylight Time),658415.5,CFD-BM-029-026-HC.jpg,1600,solid,O,None,1515,10,1,8214.900000035763,650200.5999999642,7750,ATS,A,3
3,test,4,C,mfborder.png,1,m,Tue Mar 10 2026 09:42:14 GMT-0500 (Central Daylight Time),661047.6999999881,CFD-BM-005-010-A.jpg,2000,dash,O,m,603,5,1,10847.100000023842,650200.5999999642,7750,ATS,A,4
4,test,4,C,mfborder.png,1,m,Tue Mar 10 2026 09:42:14 GMT-0500 (Central Daylight Time),663679.3999999762,CFD-BM-005-010-A.jpg,2000,dash,O,m,612,5,1,13478.800000011921,650200.5999999642,7750,ATS,A,5
5,test,4,C,mfborder.png,1,z,Tue Mar 10 2026 09:42:14 GMT-0500 (Central Daylight Time),666261.5,CFD-WF-019-015-A.jpg,1600,dash,O,z,961,2,1,16060.900000035763,650200.5999999642,7750,ATS,A,6
6,test,4,C,mfborder.png,1,z,Tue Mar 10 2026 09:42:14 GMT-0500 (Central Daylight Time),668395.5999999642,CFD-WF-019-015-A.jpg,1600,dash,O,z,516,2,1,18195.0,650200.5999999642,7750,ATS,A,7
7,test,4,C,haborder.png,1,m,Tue Mar 10 2026 09:42:14 GMT-0500 (Central Daylight Time),671093.2999999523,CFD-WM-004-005-HC.jpg,1500,solid,O,m,1178,11,1,20892.69999998808,650200.5999999642,7750,ATS,A,8
8,test,4,C,mfborder.png,1,z,Tue Mar 10 2026 09:42:14 GMT-0500 (Central Daylight Time),673276.7999999523,CFD-BF-028-020-HC.jpg,1500,dash,O,z,662,3,1,23076.19999998808,650200.5999999642,7750,ATS,A,9
9,test,4,C,haborder.png,1,m,Tue Mar 10 2026 09:42:14 GMT-0500 (Central Daylight Time),675010.0,CFD-WM-004-005-HC.jpg,1000,solid,O,m,722,12,1,24809.400000035763,650200.5999999642,7750,ATS,A,10
10,test,4,C,haborder.png,1,z,Tue Mar 10 2026 09:42:14 GMT-0500 (Central Daylight Time),677791.8999999762,CFD-WF-003-014-A.jpg,1700,solid,O,z,1051,9,1,27591.30000001192,650200.5999999642,7750,ATS,A,11
11,test,4,C,mfborder.png,1,m,Tue Mar 10 2026 09:42:14 GMT-0500 (Central Daylight Time),679891.5999999642,CFD-WM-013-015-A.jpg,1200,dash,O,m,873,6,1,29691.0,650200.5999999642,7750,ATS,A,12
12,test,4,C,haborder.png,1,z,Tue Mar 10 2026 09:42:14 GMT-0500 (Central Daylight Time),682773.5,CFD-BF-039-039-A.jpg,1900,solid,O,z,955,8,1,32572.900000035763,650200.5999999642,7750,ATS,A,13
13,test,4,C,mfborder.png,1,z,Tue Mar 10 2026 09:42:14 GMT-0500 (Central Daylight Time),685022.7999999523,CFD-WF-017-016-HC.jpg,1700,dash,O,z,528,1,1,34822.19999998808,650200.5999999642,7750,ATS,A,14
14,test,4,C,mfborder.png,1,z,Tue Mar 10 2026 09:42:14 GMT-0500 (Central Daylight Time),687172.5,CFD-BF-028-020-HC.jpg,1500,dash,O,z,624,3,1,36971.90000003576,650200.5999999642,7750,ATS,A,15
15,test,4,C,mfborder.png,1,m,Tue Mar 10 2026 09:42:14 GMT-0500 (Central Daylight Time),689156.7999999523,CFD-BM-017-052-HC.jpg,1000,dash,O,m,966,4,1,38956.19999998808,650200.5999999642,7750,ATS,A,16
16,test,4,C,haborder.png,1,z,Tue Mar 10 2026 09:42:14 GMT-0500 (Central Daylight Time),691304.0,CFD-BF-023-013-A.jpg,1400,solid,O,z,717,7,1,41103.40000003576,650200.5999999642,7750,ATS,A,17
17,test,4,C,haborder.png,1,m,Tue Mar 10 2026 09:42:14 GMT-0500 (Central Daylight Time),693636.2999999523,CFD-WM-004-005-HC.jpg,1000,solid,O,m,1304,12,1,43435.69999998808,650200.5999999642,7750,ATS,A,18
18,test,4,C,haborder.png,1,m,Tue Mar 10 2026 09:42:14 GMT-0500 (Central Daylight Time),696085.6999999881,CFD-BM-029-026-HC.jpg,1600,solid,O,m,829,10,1,45885.10000002384,650200.5999999642,7750,ATS,A,19
19,test,4,C,haborder.png,1,m,Tue Mar 10 2026 09:42:14 GMT-0500 (Central Daylight Time),698235.1999999881,CFD-WM-004-005-HC.jpg,1500,solid,O,m,622,11,1,48034.60000002384,650200.5999999642,7750,ATS,A,20
20,test,4,C,mfborder.png,1,m,Tue Mar 10 2026 09:42:14 GMT-0500 (Central Daylight Time),699917.8999999762,CFD-BM-017-052-HC.jpg,1000,dash,O,m,661,4,1,49717.30000001192,650200.5999999642,7750,ATS,A,21
21,test,4,C,mfborder.png,1,z,Tue Mar 10 2026 09:42:14 GMT-0500 (Central Daylight Time),702151.0,CFD-WF-017-016-HC.jpg,1700,dash,O,z,503,1,1,51950.40000003576,650200.5999999642,7750,ATS,A,22
22,test,4,C,mfborder.png,1,m,Tue Mar 10 2026 09:42:14 GMT-0500 (Central Daylight Time),704150.3999999762,CFD-WM-013-015-A.jpg,1200,dash,O,m,769,6,1,53949.80000001192,650200.5999999642,7750,ATS,A,23
23,test,4,C,haborder.png,1,z,Tue Mar 10 2026 09:42:14 GMT-0500 (Central Daylight Time),706816.8999999762,CFD-BF-039-039-A.jpg,1900,solid,O,z,737,8,1,56616.30000001192,650200.5999999642,7750,ATS,A,24
