acc_sum,block,block_c,change,condition,correct,correct_response,datetime,endtime,face,project,response,response_time,row_sel,session_number,start_end,starttime,subject_id,task,task_vers,trial
0,prac,1,,1-Back,,,Thu Jan 22 2026 08:50:55 GMT-0600 (Central Standard Time),,050_m_f_n_a.png,I,space,17970,1,1,,,8093,NNB,A,0
1,prac,1,0.0,1-Back,1.0,m,Thu Jan 22 2026 08:50:55 GMT-0600 (Central Standard Time),187888.10000002384,063_y_f_n_a.png,I,m,1579,2,1,2387.4000000953674,185500.69999992847,8093,NNB,A,1
2,prac,1,1.0,1-Back,1.0,z,Thu Jan 22 2026 08:50:55 GMT-0600 (Central Standard Time),189987.5,063_y_f_n_a.png,I,z,1325,3,1,2090.7000000476837,187896.79999995232,8093,NNB,A,2
3,prac,1,0.0,1-Back,1.0,m,Thu Jan 22 2026 08:50:55 GMT-0600 (Central Standard Time),192003.29999995232,053_o_m_n_a.png,I,m,1202,4,1,2006.6999999284744,189996.60000002384,8093,NNB,A,3
4,prac,1,0.0,1-Back,1.0,m,Thu Jan 22 2026 08:50:55 GMT-0600 (Central Standard Time),194002.69999992847,058_m_m_n_a.png,I,m,1186,5,1,1989.6999999284744,192013.0,8093,NNB,A,4
5,prac,1,1.0,1-Back,1.0,z,Thu Jan 22 2026 08:50:55 GMT-0600 (Central Standard Time),195718.89999997616,058_m_m_n_a.png,I,z,933,6,1,1706.8999999761581,194012.0,8093,NNB,A,5
6,prac,1,0.0,1-Back,1.0,m,Thu Jan 22 2026 08:50:55 GMT-0600 (Central Standard Time),197551.89999997616,047_o_f_n_a.png,I,m,990,7,1,1823.1000000238419,195728.79999995232,8093,NNB,A,6
7,prac,1,0.0,1-Back,1.0,m,Thu Jan 22 2026 08:50:55 GMT-0600 (Central Standard Time),199217.79999995232,045_m_m_n_a.png,I,m,856,8,1,1656.6999999284744,197561.10000002384,8093,NNB,A,7
8,prac,1,0.0,1-Back,1.0,m,Thu Jan 22 2026 08:50:55 GMT-0600 (Central Standard Time),200867.0,050_m_f_n_a.png,I,m,869,9,1,1640.0,199227.0,8093,NNB,A,8
9,prac,1,1.0,1-Back,1.0,z,Thu Jan 22 2026 08:50:55 GMT-0600 (Central Standard Time),202433.60000002384,050_m_f_n_a.png,I,z,788,10,1,1556.9000000953674,200876.69999992847,8093,NNB,A,9
10,prac,1,0.0,1-Back,1.0,m,Thu Jan 22 2026 08:50:55 GMT-0600 (Central Standard Time),204049.60000002384,053_o_m_n_a.png,I,m,830,11,1,1607.2000000476837,202442.39999997616,8093,NNB,A,10
11,prac,1,0.0,1-Back,1.0,m,Thu Jan 22 2026 08:50:55 GMT-0600 (Central Standard Time),205749.19999992847,010_y_f_n_a.png,I,m,857,12,1,1690.1999999284744,204059.0,8093,NNB,A,11
0,test,1,0.0,1-Back,,,Thu Jan 22 2026 08:50:55 GMT-0600 (Central Standard Time),205749.19999992847,063_y_f_n_a.png,I,space,21537,1,1,1690.1999999284744,204059.0,8093,NNB,A,0
1,test,1,0.0,1-Back,1.0,m,Thu Jan 22 2026 08:50:55 GMT-0600 (Central Standard Time),238972.19999992847,043_m_f_n_a.png,I,m,1146,2,1,2157.6999999284744,236814.5,8093,NNB,A,1
2,test,1,0.0,1-Back,1.0,m,Thu Jan 22 2026 08:50:55 GMT-0600 (Central Standard Time),241071.29999995232,010_y_f_n_a.png,I,m,1075,3,1,2091.100000023842,238980.19999992847,8093,NNB,A,2
3,test,1,1.0,1-Back,1.0,z,Thu Jan 22 2026 08:50:55 GMT-0600 (Central Standard Time),242970.89999997616,010_y_f_n_a.png,I,z,873,4,1,1891.7000000476837,241079.19999992847,8093,NNB,A,3
4,test,1,0.0,1-Back,1.0,m,Thu Jan 22 2026 08:50:55 GMT-0600 (Central Standard Time),245769.60000002384,043_m_f_n_a.png,I,m,1781,5,1,2788.0,242981.60000002384,8093,NNB,A,4
5,test,1,0.0,1-Back,1.0,m,Thu Jan 22 2026 08:50:55 GMT-0600 (Central Standard Time),247702.39999997616,053_o_m_n_a.png,I,m,909,6,1,1924.2000000476837,245778.19999992847,8093,NNB,A,5
6,test,1,1.0,1-Back,1.0,z,Thu Jan 22 2026 08:50:55 GMT-0600 (Central Standard Time),249435.5,053_o_m_n_a.png,I,z,706,7,1,1724.7000000476837,247710.79999995232,8093,NNB,A,6
7,test,1,0.0,1-Back,1.0,m,Thu Jan 22 2026 08:50:55 GMT-0600 (Central Standard Time),251534.69999992847,058_m_m_n_a.png,I,m,1076,8,1,2091.5,249443.19999992847,8093,NNB,A,7
8,test,1,0.0,1-Back,1.0,m,Thu Jan 22 2026 08:50:55 GMT-0600 (Central Standard Time),253467.69999992847,047_o_f_n_a.png,I,m,912,9,1,1925.2999999523163,251542.39999997616,8093,NNB,A,8
9,test,1,0.0,1-Back,1.0,m,Thu Jan 22 2026 08:50:55 GMT-0600 (Central Standard Time),255550.29999995232,058_m_m_n_a.png,I,m,1053,10,1,2075.2999999523163,253475.0,8093,NNB,A,9
10,test,1,0.0,1-Back,1.0,m,Thu Jan 22 2026 08:50:55 GMT-0600 (Central Standard Time),257366.29999995232,041_y_m_n_a.png,I,m,786,11,1,1808.6999999284744,255557.60000002384,8093,NNB,A,10
11,test,1,1.0,1-Back,1.0,z,Thu Jan 22 2026 08:50:55 GMT-0600 (Central Standard Time),258899.10000002384,041_y_m_n_a.png,I,z,506,12,1,1524.8000000715256,257374.29999995232,8093,NNB,A,11
12,test,1,0.0,1-Back,1.0,m,Thu Jan 22 2026 08:50:55 GMT-0600 (Central Standard Time),260932.10000002384,044_o_f_n_a.png,I,m,953,13,1,2025.2000000476837,258906.89999997616,8093,NNB,A,12
13,test,1,1.0,1-Back,1.0,z,Thu Jan 22 2026 08:50:55 GMT-0600 (Central Standard Time),262697.89999997616,044_o_f_n_a.png,I,z,748,14,1,1757.7999999523163,260940.10000002384,8093,NNB,A,13
14,test,1,0.0,1-Back,1.0,m,Thu Jan 22 2026 08:50:55 GMT-0600 (Central Standard Time),264547.60000002384,008_y_m_n_a.png,I,m,829,15,1,1842.2000000476837,262705.39999997616,8093,NNB,A,14
15,test,1,0.0,1-Back,1.0,m,Thu Jan 22 2026 08:50:55 GMT-0600 (Central Standard Time),266396.7999999523,050_m_f_n_a.png,I,m,829,16,1,1841.6999999284744,264555.10000002384,8093,NNB,A,15
16,test,1,0.0,1-Back,1.0,m,Thu Jan 22 2026 08:50:55 GMT-0600 (Central Standard Time),268196.2999999523,046_o_m_n_a.png,I,m,780,17,1,1791.8999999761581,266404.39999997616,8093,NNB,A,16
17,test,1,0.0,1-Back,1.0,m,Thu Jan 22 2026 08:50:55 GMT-0600 (Central Standard Time),270062.2999999523,050_m_f_n_a.png,I,m,836,18,1,1858.1999999284744,268204.10000002384,8093,NNB,A,17
0,test,2,0.0,1-Back,,,Thu Jan 22 2026 08:50:55 GMT-0600 (Central Standard Time),270062.2999999523,058_m_m_n_a.png,I,space,1818,1,1,1858.1999999284744,268204.10000002384,8093,NNB,A,0
1,test,2,0.0,1-Back,1.0,m,Thu Jan 22 2026 08:50:55 GMT-0600 (Central Standard Time),275827.39999997616,043_m_f_n_a.png,I,m,888,2,1,1908.0,273919.39999997616,8093,NNB,A,1
2,test,2,1.0,1-Back,1.0,z,Thu Jan 22 2026 08:50:55 GMT-0600 (Central Standard Time),277526.7999999523,043_m_f_n_a.png,I,z,677,3,1,1691.5,275835.2999999523,8093,NNB,A,2
3,test,2,0.0,1-Back,1.0,m,Thu Jan 22 2026 08:50:55 GMT-0600 (Central Standard Time),279542.60000002384,058_m_m_n_a.png,I,m,985,4,1,2008.4000000953674,277534.1999999285,8093,NNB,A,3
4,test,2,0.0,1-Back,1.0,m,Thu Jan 22 2026 08:50:55 GMT-0600 (Central Standard Time),281442.10000002384,041_y_m_n_a.png,I,m,881,5,1,1891.9000000953674,279550.1999999285,8093,NNB,A,4
5,test,2,0.0,1-Back,1.0,m,Thu Jan 22 2026 08:50:55 GMT-0600 (Central Standard Time),283108.2999999523,063_y_f_n_a.png,I,m,645,6,1,1658.1999999284744,281450.10000002384,8093,NNB,A,5
6,test,2,1.0,1-Back,1.0,z,Thu Jan 22 2026 08:50:55 GMT-0600 (Central Standard Time),284858.7999999523,063_y_f_n_a.png,I,z,731,7,1,1743.0,283115.7999999523,8093,NNB,A,6
7,test,2,0.0,1-Back,1.0,m,Thu Jan 22 2026 08:50:55 GMT-0600 (Central Standard Time),286973.60000002384,041_y_m_n_a.png,I,m,1086,8,1,2106.4000000953674,284867.1999999285,8093,NNB,A,7
8,test,2,0.0,1-Back,1.0,m,Thu Jan 22 2026 08:50:55 GMT-0600 (Central Standard Time),288756.6999999285,044_o_f_n_a.png,I,m,755,9,1,1775.2999999523163,286981.39999997616,8093,NNB,A,8
9,test,2,0.0,1-Back,1.0,m,Thu Jan 22 2026 08:50:55 GMT-0600 (Central Standard Time),290372.60000002384,045_m_m_n_a.png,I,m,587,10,1,1605.4000000953674,288767.1999999285,8093,NNB,A,9
10,test,2,1.0,1-Back,1.0,z,Thu Jan 22 2026 08:50:55 GMT-0600 (Central Standard Time),291988.7999999523,045_m_m_n_a.png,I,z,588,11,1,1607.8999999761581,290380.89999997616,8093,NNB,A,10
11,test,2,0.0,1-Back,1.0,m,Thu Jan 22 2026 08:50:55 GMT-0600 (Central Standard Time),293688.39999997616,044_o_f_n_a.png,I,m,667,12,1,1691.6000000238419,291996.7999999523,8093,NNB,A,11
12,test,2,0.0,1-Back,1.0,m,Thu Jan 22 2026 08:50:55 GMT-0600 (Central Standard Time),295487.60000002384,047_o_f_n_a.png,I,m,767,13,1,1791.3000000715256,293696.2999999523,8093,NNB,A,12
13,test,2,0.0,1-Back,1.0,m,Thu Jan 22 2026 08:50:55 GMT-0600 (Central Standard Time),297220.5,053_o_m_n_a.png,I,m,705,14,1,1724.8999999761581,295495.60000002384,8093,NNB,A,13
14,test,2,0.0,1-Back,1.0,m,Thu Jan 22 2026 08:50:55 GMT-0600 (Central Standard Time),298903.2999999523,046_o_m_n_a.png,I,m,651,15,1,1675.0,297228.2999999523,8093,NNB,A,14
15,test,2,1.0,1-Back,1.0,z,Thu Jan 22 2026 08:50:55 GMT-0600 (Central Standard Time),300669.39999997616,046_o_m_n_a.png,I,z,744,16,1,1758.0,298911.39999997616,8093,NNB,A,15
16,test,2,0.0,1-Back,1.0,m,Thu Jan 22 2026 08:50:55 GMT-0600 (Central Standard Time),302385.60000002384,008_y_m_n_a.png,I,m,690,17,1,1708.5,300677.10000002384,8093,NNB,A,16
17,test,2,1.0,1-Back,1.0,z,Thu Jan 22 2026 08:50:55 GMT-0600 (Central Standard Time),304151.7999999523,008_y_m_n_a.png,I,z,743,18,1,1758.6000000238419,302393.1999999285,8093,NNB,A,17
0,test,3,1.0,1-Back,,,Thu Jan 22 2026 08:50:55 GMT-0600 (Central Standard Time),304151.7999999523,010_y_f_n_a.png,I,space,2113,1,1,1758.6000000238419,302393.1999999285,8093,NNB,A,0
1,test,3,0.0,1-Back,1.0,m,Thu Jan 22 2026 08:50:55 GMT-0600 (Central Standard Time),309950.10000002384,046_o_m_n_a.png,I,m,569,2,1,1590.5,308359.60000002384,8093,NNB,A,1
2,test,3,1.0,1-Back,1.0,z,Thu Jan 22 2026 08:50:55 GMT-0600 (Central Standard Time),311715.89999997616,046_o_m_n_a.png,I,z,745,3,1,1757.6000000238419,309958.2999999523,8093,NNB,A,2
3,test,3,0.0,1-Back,1.0,m,Thu Jan 22 2026 08:50:55 GMT-0600 (Central Standard Time),313515.60000002384,050_m_f_n_a.png,I,m,781,4,1,1791.0,311724.60000002384,8093,NNB,A,3
4,test,3,1.0,1-Back,1.0,z,Thu Jan 22 2026 08:50:55 GMT-0600 (Central Standard Time),315398.1999999285,050_m_f_n_a.png,I,z,860,5,1,1874.0999999046326,313524.10000002384,8093,NNB,A,4
5,test,3,0.0,1-Back,1.0,m,Thu Jan 22 2026 08:50:55 GMT-0600 (Central Standard Time),317280.7999999523,044_o_f_n_a.png,I,m,858,6,1,1874.1999999284744,315406.60000002384,8093,NNB,A,5
6,test,3,0.0,1-Back,1.0,m,Thu Jan 22 2026 08:50:55 GMT-0600 (Central Standard Time),319146.7999999523,041_y_m_n_a.png,I,m,839,7,1,1858.0,317288.7999999523,8093,NNB,A,6
7,test,3,0.0,1-Back,1.0,m,Thu Jan 22 2026 08:50:55 GMT-0600 (Central Standard Time),320879.89999997616,044_o_f_n_a.png,I,m,709,8,1,1725.1000000238419,319154.7999999523,8093,NNB,A,7
8,test,3,0.0,1-Back,1.0,m,Thu Jan 22 2026 08:50:55 GMT-0600 (Central Standard Time),322496.10000002384,008_y_m_n_a.png,I,m,584,9,1,1608.5,320887.60000002384,8093,NNB,A,8
9,test,3,1.0,1-Back,1.0,z,Thu Jan 22 2026 08:50:55 GMT-0600 (Central Standard Time),324128.6999999285,008_y_m_n_a.png,I,z,608,10,1,1624.0999999046326,322504.60000002384,8093,NNB,A,9
10,test,3,0.0,1-Back,1.0,m,Thu Jan 22 2026 08:50:55 GMT-0600 (Central Standard Time),326044.6999999285,043_m_f_n_a.png,I,m,895,11,1,1907.5,324137.1999999285,8093,NNB,A,10
11,test,3,0.0,1-Back,1.0,m,Thu Jan 22 2026 08:50:55 GMT-0600 (Central Standard Time),327777.2999999523,063_y_f_n_a.png,I,m,715,12,1,1724.6000000238419,326052.6999999285,8093,NNB,A,11
12,test,3,1.0,1-Back,1.0,z,Thu Jan 22 2026 08:50:55 GMT-0600 (Central Standard Time),329493.6999999285,063_y_f_n_a.png,I,z,686,13,1,1708.3999999761581,327785.2999999523,8093,NNB,A,12
13,test,3,0.0,1-Back,1.0,m,Thu Jan 22 2026 08:50:55 GMT-0600 (Central Standard Time),331376.5,043_m_f_n_a.png,I,m,857,14,1,1874.8000000715256,329501.6999999285,8093,NNB,A,13
14,test,3,0.0,1-Back,1.0,m,Thu Jan 22 2026 08:50:55 GMT-0600 (Central Standard Time),333075.89999997616,058_m_m_n_a.png,I,m,680,15,1,1691.5,331384.39999997616,8093,NNB,A,14
15,test,3,1.0,1-Back,1.0,z,Thu Jan 22 2026 08:50:55 GMT-0600 (Central Standard Time),334758.5,058_m_m_n_a.png,I,z,652,16,1,1674.6000000238419,333083.89999997616,8093,NNB,A,15
16,test,3,0.0,1-Back,1.0,m,Thu Jan 22 2026 08:50:55 GMT-0600 (Central Standard Time),336624.5,047_o_f_n_a.png,I,m,841,17,1,1856.8000000715256,334767.6999999285,8093,NNB,A,16
17,test,3,1.0,1-Back,1.0,z,Thu Jan 22 2026 08:50:55 GMT-0600 (Central Standard Time),339256.89999997616,047_o_f_n_a.png,I,z,1615,18,1,2624.2000000476837,336632.6999999285,8093,NNB,A,17
0,test,4,1.0,1-Back,,,Thu Jan 22 2026 08:50:55 GMT-0600 (Central Standard Time),339256.89999997616,050_m_f_n_a.png,I,space,1728,1,1,2624.2000000476837,336632.6999999285,8093,NNB,A,0
1,test,4,0.0,1-Back,1.0,m,Thu Jan 22 2026 08:50:55 GMT-0600 (Central Standard Time),345105.5,046_o_m_n_a.png,I,m,1073,2,1,2091.2000000476837,343014.2999999523,8093,NNB,A,1
2,test,4,0.0,1-Back,1.0,m,Thu Jan 22 2026 08:50:55 GMT-0600 (Central Standard Time),347021.7999999523,050_m_f_n_a.png,I,m,895,3,1,1908.1999999284744,345113.60000002384,8093,NNB,A,2
3,test,4,0.0,1-Back,1.0,m,Thu Jan 22 2026 08:50:55 GMT-0600 (Central Standard Time),348820.89999997616,044_o_f_n_a.png,I,m,778,4,1,1791.5,347029.39999997616,8093,NNB,A,3
4,test,4,1.0,1-Back,1.0,z,Thu Jan 22 2026 08:50:55 GMT-0600 (Central Standard Time),350487.1999999285,044_o_f_n_a.png,I,z,643,5,1,1658.3999999761581,348828.7999999523,8093,NNB,A,4
5,test,4,0.0,1-Back,1.0,m,Thu Jan 22 2026 08:50:55 GMT-0600 (Central Standard Time),352569.89999997616,063_y_f_n_a.png,I,m,1057,6,1,2074.7000000476837,350495.1999999285,8093,NNB,A,5
6,test,4,0.0,1-Back,1.0,m,Thu Jan 22 2026 08:50:55 GMT-0600 (Central Standard Time),354260.1999999285,041_y_m_n_a.png,I,m,673,7,1,1683.0,352577.1999999285,8093,NNB,A,6
7,test,4,1.0,1-Back,1.0,z,Thu Jan 22 2026 08:50:55 GMT-0600 (Central Standard Time),356068.7999999523,041_y_m_n_a.png,I,z,770,8,1,1800.3999999761581,354268.39999997616,8093,NNB,A,7
8,test,4,0.0,1-Back,1.0,m,Thu Jan 22 2026 08:50:55 GMT-0600 (Central Standard Time),358034.6999999285,063_y_f_n_a.png,I,m,938,9,1,1954.5,356080.1999999285,8093,NNB,A,8
9,test,4,0.0,1-Back,1.0,m,Thu Jan 22 2026 08:50:55 GMT-0600 (Central Standard Time),359884.39999997616,045_m_m_n_a.png,I,m,829,10,1,1841.6000000238419,358042.7999999523,8093,NNB,A,9
10,test,4,1.0,1-Back,1.0,z,Thu Jan 22 2026 08:50:55 GMT-0600 (Central Standard Time),361450.39999997616,045_m_m_n_a.png,I,z,540,11,1,1558.3999999761581,359892.0,8093,NNB,A,10
11,test,4,0.0,1-Back,1.0,m,Thu Jan 22 2026 08:50:55 GMT-0600 (Central Standard Time),363183.1999999285,047_o_f_n_a.png,I,m,701,12,1,1724.8999999761581,361458.2999999523,8093,NNB,A,11
12,test,4,0.0,1-Back,1.0,m,Thu Jan 22 2026 08:50:55 GMT-0600 (Central Standard Time),365016.0,053_o_m_n_a.png,I,m,809,13,1,1824.8999999761581,363191.10000002384,8093,NNB,A,12
13,test,4,0.0,1-Back,1.0,m,Thu Jan 22 2026 08:50:55 GMT-0600 (Central Standard Time),366748.6999999285,047_o_f_n_a.png,I,m,704,14,1,1723.5,365025.1999999285,8093,NNB,A,13
14,test,4,0.0,1-Back,1.0,m,Thu Jan 22 2026 08:50:55 GMT-0600 (Central Standard Time),368481.5,010_y_f_n_a.png,I,m,708,15,1,1724.8999999761581,366756.60000002384,8093,NNB,A,14
15,test,4,1.0,1-Back,1.0,z,Thu Jan 22 2026 08:50:55 GMT-0600 (Central Standard Time),370514.2999999523,010_y_f_n_a.png,I,z,1006,16,1,2023.8999999761581,368490.39999997616,8093,NNB,A,15
16,test,4,0.0,1-Back,1.0,m,Thu Jan 22 2026 08:50:55 GMT-0600 (Central Standard Time),372330.6999999285,043_m_f_n_a.png,I,m,790,17,1,1808.1999999284744,370522.5,8093,NNB,A,16
17,test,4,1.0,1-Back,1.0,z,Thu Jan 22 2026 08:50:55 GMT-0600 (Central Standard Time),374879.89999997616,043_m_f_n_a.png,I,z,1517,18,1,2541.100000023842,372338.7999999523,8093,NNB,A,17
0,test,5,1.0,1-Back,,,Thu Jan 22 2026 08:50:55 GMT-0600 (Central Standard Time),374879.89999997616,053_o_m_n_a.png,I,space,2177,1,1,2541.100000023842,372338.7999999523,8093,NNB,A,0
1,test,5,1.0,1-Back,1.0,z,Thu Jan 22 2026 08:50:55 GMT-0600 (Central Standard Time),380727.60000002384,053_o_m_n_a.png,I,z,625,2,1,1641.1000000238419,379086.5,8093,NNB,A,1
2,test,5,0.0,1-Back,1.0,m,Thu Jan 22 2026 08:50:55 GMT-0600 (Central Standard Time),382461.0,063_y_f_n_a.png,I,m,705,3,1,1725.6000000238419,380735.39999997616,8093,NNB,A,2
3,test,5,0.0,1-Back,1.0,m,Thu Jan 22 2026 08:50:55 GMT-0600 (Central Standard Time),384126.5,041_y_m_n_a.png,I,m,643,4,1,1657.1000000238419,382469.39999997616,8093,NNB,A,3
4,test,5,0.0,1-Back,1.0,m,Thu Jan 22 2026 08:50:55 GMT-0600 (Central Standard Time),386042.5,063_y_f_n_a.png,I,m,897,5,1,1907.5,384135.0,8093,NNB,A,4
5,test,5,0.0,1-Back,1.0,m,Thu Jan 22 2026 08:50:55 GMT-0600 (Central Standard Time),387709.0,058_m_m_n_a.png,I,m,638,6,1,1658.5,386050.5,8093,NNB,A,5
6,test,5,1.0,1-Back,1.0,z,Thu Jan 22 2026 08:50:55 GMT-0600 (Central Standard Time),389424.89999997616,058_m_m_n_a.png,I,z,692,7,1,1707.7999999523163,387717.10000002384,8093,NNB,A,6
7,test,5,0.0,1-Back,1.0,m,Thu Jan 22 2026 08:50:55 GMT-0600 (Central Standard Time),391474.0,010_y_f_n_a.png,I,m,1032,8,1,2041.1000000238419,389432.89999997616,8093,NNB,A,7
8,test,5,0.0,1-Back,1.0,m,Thu Jan 22 2026 08:50:55 GMT-0600 (Central Standard Time),394023.2999999523,008_y_m_n_a.png,I,m,1525,9,1,2540.899999976158,391482.39999997616,8093,NNB,A,8
9,test,5,0.0,1-Back,1.0,m,Thu Jan 22 2026 08:50:55 GMT-0600 (Central Standard Time),395939.60000002384,010_y_f_n_a.png,I,m,888,10,1,1907.0,394032.60000002384,8093,NNB,A,9
10,test,5,0.0,1-Back,1.0,m,Thu Jan 22 2026 08:50:55 GMT-0600 (Central Standard Time),397639.0,047_o_f_n_a.png,I,m,668,11,1,1690.8999999761581,395948.10000002384,8093,NNB,A,10
10,test,5,1.0,1-Back,0.0,z,Thu Jan 22 2026 08:50:55 GMT-0600 (Central Standard Time),399288.1999999285,047_o_f_n_a.png,I,m,616,12,1,1640.3999999761581,397647.7999999523,8093,NNB,A,11
11,test,5,0.0,1-Back,1.0,m,Thu Jan 22 2026 08:50:55 GMT-0600 (Central Standard Time),400937.7999999523,046_o_m_n_a.png,I,m,632,13,1,1641.1999999284744,399296.60000002384,8093,NNB,A,12
12,test,5,0.0,1-Back,1.0,m,Thu Jan 22 2026 08:50:55 GMT-0600 (Central Standard Time),402604.10000002384,050_m_f_n_a.png,I,m,639,14,1,1658.5,400945.60000002384,8093,NNB,A,13
12,test,5,1.0,1-Back,0.0,z,Thu Jan 22 2026 08:50:55 GMT-0600 (Central Standard Time),404820.1999999285,050_m_f_n_a.png,I,m,1195,15,1,2207.6999999284744,402612.5,8093,NNB,A,14
13,test,5,0.0,1-Back,1.0,m,Thu Jan 22 2026 08:50:55 GMT-0600 (Central Standard Time),406486.1999999285,046_o_m_n_a.png,I,m,644,16,1,1657.5,404828.6999999285,8093,NNB,A,15
14,test,5,0.0,1-Back,1.0,m,Thu Jan 22 2026 08:50:55 GMT-0600 (Central Standard Time),408169.2999999523,043_m_f_n_a.png,I,m,650,17,1,1674.6000000238419,406494.6999999285,8093,NNB,A,16
15,test,5,0.0,1-Back,1.0,m,Thu Jan 22 2026 08:50:55 GMT-0600 (Central Standard Time),409718.7999999523,045_m_m_n_a.png,I,m,519,18,1,1541.0,408177.7999999523,8093,NNB,A,17
0,prac,1,0.0,2-Back,,,Thu Jan 22 2026 08:50:55 GMT-0600 (Central Standard Time),409718.7999999523,008_y_m_n_a.png,I,space,7580,1,1,1541.0,408177.7999999523,8093,NNB,A,0
0,prac,1,0.0,2-Back,,,Thu Jan 22 2026 08:50:55 GMT-0600 (Central Standard Time),409718.7999999523,043_m_f_n_a.png,I,space,7580,2,1,1541.0,408177.7999999523,8093,NNB,A,0
1,prac,1,1.0,2-Back,1.0,m,Thu Jan 22 2026 08:50:55 GMT-0600 (Central Standard Time),616887.3999999762,046_o_m_n_a.png,I,m,1514,3,1,2320.7000000476837,614566.6999999285,8093,NNB,A,1
2,prac,1,0.0,2-Back,1.0,m,Thu Jan 22 2026 08:50:55 GMT-0600 (Central Standard Time),619103.2999999523,047_o_f_n_a.png,I,m,1381,4,1,2206.1999999284744,616897.1000000238,8093,NNB,A,2
3,prac,1,0.0,2-Back,1.0,z,Thu Jan 22 2026 08:50:55 GMT-0600 (Central Standard Time),621252.1999999285,046_o_m_n_a.png,I,z,1359,5,1,2139.5999999046326,619112.6000000238,8093,NNB,A,3
4,prac,1,1.0,2-Back,1.0,z,Thu Jan 22 2026 08:50:55 GMT-0600 (Central Standard Time),623768.1999999285,047_o_f_n_a.png,I,z,1730,6,1,2506.5,621261.6999999285,8093,NNB,A,4
5,prac,1,0.0,2-Back,1.0,m,Thu Jan 22 2026 08:50:55 GMT-0600 (Central Standard Time),625468.1999999285,045_m_m_n_a.png,I,m,895,7,1,1690.5,623777.6999999285,8093,NNB,A,5
6,prac,1,0.0,2-Back,1.0,m,Thu Jan 22 2026 08:50:55 GMT-0600 (Central Standard Time),627434.0,053_o_m_n_a.png,I,m,1154,8,1,1956.6000000238419,625477.3999999762,8093,NNB,A,6
7,prac,1,0.0,2-Back,1.0,m,Thu Jan 22 2026 08:50:55 GMT-0600 (Central Standard Time),629500.1999999285,010_y_f_n_a.png,I,m,1224,9,1,2056.6999999284744,627443.5,8093,NNB,A,7
8,prac,1,1.0,2-Back,1.0,z,Thu Jan 22 2026 08:50:55 GMT-0600 (Central Standard Time),631599.1999999285,053_o_m_n_a.png,I,z,1322,10,1,2089.7999999523163,629509.3999999762,8093,NNB,A,8
9,prac,1,0.0,2-Back,1.0,m,Thu Jan 22 2026 08:50:55 GMT-0600 (Central Standard Time),633332.1000000238,063_y_f_n_a.png,I,m,919,11,1,1723.4000000953674,631608.6999999285,8093,NNB,A,9
10,prac,1,0.0,2-Back,1.0,m,Thu Jan 22 2026 08:50:55 GMT-0600 (Central Standard Time),635548.2999999523,045_m_m_n_a.png,I,m,1426,12,1,2206.6999999284744,633341.6000000238,8093,NNB,A,10
0,test,1,0.0,2-Back,,,Thu Jan 22 2026 08:50:55 GMT-0600 (Central Standard Time),635548.2999999523,041_y_m_n_a.png,I,space,9252,1,1,2206.6999999284744,633341.6000000238,8093,NNB,A,0
0,test,1,0.0,2-Back,,,Thu Jan 22 2026 08:50:55 GMT-0600 (Central Standard Time),635548.2999999523,041_y_m_n_a.png,I,space,9252,2,1,2206.6999999284744,633341.6000000238,8093,NNB,A,0
1,test,1,0.0,2-Back,1.0,m,Thu Jan 22 2026 08:50:55 GMT-0600 (Central Standard Time),663689.3999999762,047_o_f_n_a.png,I,m,1423,3,1,2440.5,661248.8999999762,8093,NNB,A,1
2,test,1,0.0,2-Back,1.0,m,Thu Jan 22 2026 08:50:55 GMT-0600 (Central Standard Time),665622.1999999285,058_m_m_n_a.png,I,m,903,4,1,1924.8999999761581,663697.2999999523,8093,NNB,A,2
3,test,1,1.0,2-Back,1.0,z,Thu Jan 22 2026 08:50:55 GMT-0600 (Central Standard Time),667489.1999999285,047_o_f_n_a.png,I,z,834,5,1,1858.8999999761581,665630.2999999523,8093,NNB,A,3
4,test,1,0.0,2-Back,1.0,m,Thu Jan 22 2026 08:50:55 GMT-0600 (Central Standard Time),669504.0,063_y_f_n_a.png,I,m,983,6,1,2006.3000000715256,667497.6999999285,8093,NNB,A,4
4,test,1,0.0,2-Back,0.0,m,Thu Jan 22 2026 08:50:55 GMT-0600 (Central Standard Time),671686.6000000238,058_m_m_n_a.png,I,z,1159,7,1,2173.2000000476837,669513.3999999762,8093,NNB,A,5
5,test,1,1.0,2-Back,1.0,z,Thu Jan 22 2026 08:50:55 GMT-0600 (Central Standard Time),674186.0,063_y_f_n_a.png,I,z,1474,8,1,2491.2000000476837,671694.7999999523,8093,NNB,A,6
6,test,1,0.0,2-Back,1.0,m,Thu Jan 22 2026 08:50:55 GMT-0600 (Central Standard Time),676385.1999999285,008_y_m_n_a.png,I,m,1174,9,1,2191.2999999523163,674193.8999999762,8093,NNB,A,7
7,test,1,0.0,2-Back,1.0,m,Thu Jan 22 2026 08:50:55 GMT-0600 (Central Standard Time),678317.7999999523,044_o_f_n_a.png,I,m,910,10,1,1924.7999999523163,676393.0,8093,NNB,A,8
8,test,1,1.0,2-Back,1.0,z,Thu Jan 22 2026 08:50:55 GMT-0600 (Central Standard Time),680684.0,008_y_m_n_a.png,I,z,1346,11,1,2358.5,678325.5,8093,NNB,A,9
9,test,1,0.0,2-Back,1.0,m,Thu Jan 22 2026 08:50:55 GMT-0600 (Central Standard Time),682616.7999999523,043_m_f_n_a.png,I,m,908,12,1,1924.7999999523163,680692.0,8093,NNB,A,10
9,test,1,0.0,2-Back,0.0,m,Thu Jan 22 2026 08:50:55 GMT-0600 (Central Standard Time),685583.6000000238,043_m_f_n_a.png,I,z,1944,13,1,2958.600000023842,682625.0,8093,NNB,A,11
10,test,1,0.0,2-Back,1.0,m,Thu Jan 22 2026 08:50:55 GMT-0600 (Central Standard Time),687465.2999999523,046_o_m_n_a.png,I,m,866,14,1,1873.5,685591.7999999523,8093,NNB,A,12
11,test,1,0.0,2-Back,1.0,m,Thu Jan 22 2026 08:50:55 GMT-0600 (Central Standard Time),689914.1999999285,044_o_f_n_a.png,I,m,1431,15,1,2440.7999999523163,687473.3999999762,8093,NNB,A,13
11,test,1,1.0,2-Back,0.0,z,Thu Jan 22 2026 08:50:55 GMT-0600 (Central Standard Time),692013.7999999523,046_o_m_n_a.png,I,m,1070,16,1,2090.899999976158,689922.8999999762,8093,NNB,A,14
12,test,1,0.0,2-Back,1.0,m,Thu Jan 22 2026 08:50:55 GMT-0600 (Central Standard Time),693979.6999999285,050_m_f_n_a.png,I,m,947,17,1,1957.5999999046326,692022.1000000238,8093,NNB,A,15
13,test,1,0.0,2-Back,1.0,m,Thu Jan 22 2026 08:50:55 GMT-0600 (Central Standard Time),696112.5,045_m_m_n_a.png,I,m,1116,18,1,2124.3000000715256,693988.1999999285,8093,NNB,A,16
0,test,2,0.0,2-Back,,,Thu Jan 22 2026 08:50:55 GMT-0600 (Central Standard Time),696112.5,045_m_m_n_a.png,I,space,1768,1,1,2124.3000000715256,693988.1999999285,8093,NNB,A,0
0,test,2,0.0,2-Back,,,Thu Jan 22 2026 08:50:55 GMT-0600 (Central Standard Time),696112.5,010_y_f_n_a.png,I,space,1768,2,1,2124.3000000715256,693988.1999999285,8093,NNB,A,0
1,test,2,1.0,2-Back,1.0,z,Thu Jan 22 2026 08:50:55 GMT-0600 (Central Standard Time),704610.8999999762,045_m_m_n_a.png,I,z,598,3,1,1609.1000000238419,703001.7999999523,8093,NNB,A,1
2,test,2,0.0,2-Back,1.0,m,Thu Jan 22 2026 08:50:55 GMT-0600 (Central Standard Time),706459.1999999285,050_m_f_n_a.png,I,m,823,4,1,1840.2999999523163,704618.8999999762,8093,NNB,A,2
2,test,2,0.0,2-Back,0.0,m,Thu Jan 22 2026 08:50:55 GMT-0600 (Central Standard Time),709041.7999999523,010_y_f_n_a.png,I,z,1556,5,1,2574.100000023842,706467.6999999285,8093,NNB,A,3
3,test,2,0.0,2-Back,1.0,m,Thu Jan 22 2026 08:50:55 GMT-0600 (Central Standard Time),711307.6000000238,046_o_m_n_a.png,I,m,1238,6,1,2257.100000023842,709050.5,8093,NNB,A,4
4,test,2,0.0,2-Back,1.0,m,Thu Jan 22 2026 08:50:55 GMT-0600 (Central Standard Time),713456.8999999762,063_y_f_n_a.png,I,m,1132,7,1,2137.100000023842,711319.7999999523,8093,NNB,A,5
5,test,2,1.0,2-Back,1.0,z,Thu Jan 22 2026 08:50:55 GMT-0600 (Central Standard Time),715522.6000000238,046_o_m_n_a.png,I,z,1048,8,1,2057.100000023842,713465.5,8093,NNB,A,6
6,test,2,0.0,2-Back,1.0,m,Thu Jan 22 2026 08:50:55 GMT-0600 (Central Standard Time),717505.6999999285,008_y_m_n_a.png,I,m,964,9,1,1974.5999999046326,715531.1000000238,8093,NNB,A,7
6,test,2,0.0,2-Back,0.0,m,Thu Jan 22 2026 08:50:55 GMT-0600 (Central Standard Time),719755.1999999285,008_y_m_n_a.png,I,z,1231,10,1,2241.399999976158,717513.7999999523,8093,NNB,A,8
7,test,2,0.0,2-Back,1.0,m,Thu Jan 22 2026 08:50:55 GMT-0600 (Central Standard Time),721771.3999999762,043_m_f_n_a.png,I,m,989,11,1,2007.7000000476837,719763.6999999285,8093,NNB,A,9
7,test,2,0.0,2-Back,0.0,m,Thu Jan 22 2026 08:50:55 GMT-0600 (Central Standard Time),724803.3999999762,010_y_f_n_a.png,I,None,2016,12,1,3022.899999976158,721780.5,8093,NNB,A,10
7,test,2,1.0,2-Back,0.0,z,Thu Jan 22 2026 08:50:55 GMT-0600 (Central Standard Time),726852.6000000238,043_m_f_n_a.png,I,m,1020,13,1,2040.4000000953674,724812.1999999285,8093,NNB,A,11
8,test,2,0.0,2-Back,1.0,m,Thu Jan 22 2026 08:50:55 GMT-0600 (Central Standard Time),728668.8999999762,053_o_m_n_a.png,I,m,787,14,1,1807.5,726861.3999999762,8093,NNB,A,12
8,test,2,0.0,2-Back,0.0,m,Thu Jan 22 2026 08:50:55 GMT-0600 (Central Standard Time),730751.5,053_o_m_n_a.png,I,z,1060,15,1,2074.0,728677.5,8093,NNB,A,13
9,test,2,0.0,2-Back,1.0,m,Thu Jan 22 2026 08:50:55 GMT-0600 (Central Standard Time),732701.0,044_o_f_n_a.png,I,m,929,16,1,1940.3000000715256,730760.6999999285,8093,NNB,A,14
10,test,2,0.0,2-Back,1.0,m,Thu Jan 22 2026 08:50:55 GMT-0600 (Central Standard Time),734700.2999999523,058_m_m_n_a.png,I,m,979,17,1,1991.1000000238419,732709.1999999285,8093,NNB,A,15
11,test,2,1.0,2-Back,1.0,z,Thu Jan 22 2026 08:50:55 GMT-0600 (Central Standard Time),736749.6999999285,044_o_f_n_a.png,I,z,1028,18,1,2040.2999999523163,734709.3999999762,8093,NNB,A,16
0,test,3,1.0,2-Back,,,Thu Jan 22 2026 08:50:55 GMT-0600 (Central Standard Time),736749.6999999285,041_y_m_n_a.png,I,space,1611,1,1,2040.2999999523163,734709.3999999762,8093,NNB,A,0
0,test,3,1.0,2-Back,,,Thu Jan 22 2026 08:50:55 GMT-0600 (Central Standard Time),736749.6999999285,041_y_m_n_a.png,I,space,1611,2,1,2040.2999999523163,734709.3999999762,8093,NNB,A,0
1,test,3,0.0,2-Back,1.0,m,Thu Jan 22 2026 08:50:55 GMT-0600 (Central Standard Time),745663.6000000238,044_o_f_n_a.png,I,m,1192,3,1,2207.4000000953674,743456.1999999285,8093,NNB,A,1
2,test,3,0.0,2-Back,1.0,m,Thu Jan 22 2026 08:50:55 GMT-0600 (Central Standard Time),747962.7999999523,045_m_m_n_a.png,I,m,1272,4,1,2290.600000023842,745672.1999999285,8093,NNB,A,2
3,test,3,1.0,2-Back,1.0,z,Thu Jan 22 2026 08:50:55 GMT-0600 (Central Standard Time),749729.0,044_o_f_n_a.png,I,z,734,5,1,1758.0,747971.0,8093,NNB,A,3
4,test,3,0.0,2-Back,1.0,m,Thu Jan 22 2026 08:50:55 GMT-0600 (Central Standard Time),751711.5,008_y_m_n_a.png,I,m,950,6,1,1974.3999999761581,749737.1000000238,8093,NNB,A,4
5,test,3,0.0,2-Back,1.0,m,Thu Jan 22 2026 08:50:55 GMT-0600 (Central Standard Time),753894.3999999762,045_m_m_n_a.png,I,m,1160,7,1,2174.5,751719.8999999762,8093,NNB,A,5
5,test,3,1.0,2-Back,0.0,z,Thu Jan 22 2026 08:50:55 GMT-0600 (Central Standard Time),756460.2999999523,008_y_m_n_a.png,I,m,1546,8,1,2556.899999976158,753903.3999999762,8093,NNB,A,6
6,test,3,0.0,2-Back,1.0,m,Thu Jan 22 2026 08:50:55 GMT-0600 (Central Standard Time),758376.3999999762,010_y_f_n_a.png,I,m,891,9,1,1908.0,756468.3999999762,8093,NNB,A,7
7,test,3,0.0,2-Back,1.0,m,Thu Jan 22 2026 08:50:55 GMT-0600 (Central Standard Time),760225.3999999762,058_m_m_n_a.png,I,m,832,10,1,1840.5,758384.8999999762,8093,NNB,A,8
8,test,3,1.0,2-Back,1.0,z,Thu Jan 22 2026 08:50:55 GMT-0600 (Central Standard Time),762308.8999999762,010_y_f_n_a.png,I,z,1055,11,1,2075.2999999523163,760233.6000000238,8093,NNB,A,9
8,test,3,1.0,2-Back,0.0,z,Thu Jan 22 2026 08:50:55 GMT-0600 (Central Standard Time),764174.5,058_m_m_n_a.png,I,m,844,12,1,1856.8999999761581,762317.6000000238,8093,NNB,A,10
9,test,3,0.0,2-Back,1.0,m,Thu Jan 22 2026 08:50:55 GMT-0600 (Central Standard Time),766040.8999999762,044_o_f_n_a.png,I,m,842,13,1,1857.7999999523163,764183.1000000238,8093,NNB,A,11
10,test,3,0.0,2-Back,1.0,m,Thu Jan 22 2026 08:50:55 GMT-0600 (Central Standard Time),767923.1000000238,050_m_f_n_a.png,I,m,864,14,1,1874.4000000953674,766048.6999999285,8093,NNB,A,12
11,test,3,0.0,2-Back,1.0,m,Thu Jan 22 2026 08:50:55 GMT-0600 (Central Standard Time),769622.3999999762,046_o_m_n_a.png,I,m,676,15,1,1690.2999999523163,767932.1000000238,8093,NNB,A,13
11,test,3,1.0,2-Back,0.0,z,Thu Jan 22 2026 08:50:55 GMT-0600 (Central Standard Time),772238.5,050_m_f_n_a.png,I,m,1593,16,1,2606.2000000476837,769632.2999999523,8093,NNB,A,14
12,test,3,0.0,2-Back,1.0,m,Thu Jan 22 2026 08:50:55 GMT-0600 (Central Standard Time),773937.8999999762,047_o_f_n_a.png,I,m,682,17,1,1691.2999999523163,772246.6000000238,8093,NNB,A,15
12,test,3,0.0,2-Back,0.0,m,Thu Jan 22 2026 08:50:55 GMT-0600 (Central Standard Time),775804.3999999762,047_o_f_n_a.png,I,z,846,18,1,1857.7000000476837,773946.6999999285,8093,NNB,A,16
0,test,4,0.0,2-Back,,,Thu Jan 22 2026 08:50:55 GMT-0600 (Central Standard Time),775804.3999999762,053_o_m_n_a.png,I,space,1451,1,1,1857.7000000476837,773946.6999999285,8093,NNB,A,0
0,test,4,0.0,2-Back,,,Thu Jan 22 2026 08:50:55 GMT-0600 (Central Standard Time),775804.3999999762,063_y_f_n_a.png,I,space,1451,2,1,1857.7000000476837,773946.6999999285,8093,NNB,A,0
1,test,4,1.0,2-Back,1.0,z,Thu Jan 22 2026 08:50:55 GMT-0600 (Central Standard Time),784051.6999999285,053_o_m_n_a.png,I,z,647,3,1,1657.0,782394.6999999285,8093,NNB,A,1
2,test,4,1.0,2-Back,1.0,z,Thu Jan 22 2026 08:50:55 GMT-0600 (Central Standard Time),786950.7999999523,063_y_f_n_a.png,I,z,1877,4,1,2890.7999999523163,784060.0,8093,NNB,A,2
3,test,4,0.0,2-Back,1.0,m,Thu Jan 22 2026 08:50:55 GMT-0600 (Central Standard Time),789083.3999999762,044_o_f_n_a.png,I,m,1112,5,1,2124.100000023842,786959.2999999523,8093,NNB,A,3
4,test,4,0.0,2-Back,1.0,m,Thu Jan 22 2026 08:50:55 GMT-0600 (Central Standard Time),791699.0,044_o_f_n_a.png,I,m,1589,6,1,2606.0,789093.0,8093,NNB,A,4
5,test,4,0.0,2-Back,1.0,m,Thu Jan 22 2026 08:50:55 GMT-0600 (Central Standard Time),793931.7999999523,043_m_f_n_a.png,I,m,1213,7,1,2224.399999976158,791707.3999999762,8093,NNB,A,5
6,test,4,0.0,2-Back,1.0,m,Thu Jan 22 2026 08:50:55 GMT-0600 (Central Standard Time),795764.6999999285,008_y_m_n_a.png,I,m,805,8,1,1824.0999999046326,793940.6000000238,8093,NNB,A,6
7,test,4,1.0,2-Back,1.0,z,Thu Jan 22 2026 08:50:55 GMT-0600 (Central Standard Time),797647.3999999762,043_m_f_n_a.png,I,z,852,9,1,1873.8999999761581,795773.5,8093,NNB,A,7
8,test,4,0.0,2-Back,1.0,m,Thu Jan 22 2026 08:50:55 GMT-0600 (Central Standard Time),799596.7999999523,058_m_m_n_a.png,I,m,929,10,1,1940.5,797656.2999999523,8093,NNB,A,8
8,test,4,0.0,2-Back,0.0,m,Thu Jan 22 2026 08:50:55 GMT-0600 (Central Standard Time),802629.2999999523,008_y_m_n_a.png,I,None,2016,11,1,3024.1999999284744,799605.1000000238,8093,NNB,A,9
9,test,4,0.0,2-Back,1.0,m,Thu Jan 22 2026 08:50:55 GMT-0600 (Central Standard Time),804678.6999999285,047_o_f_n_a.png,I,m,1018,12,1,2041.1999999284744,802637.5,8093,NNB,A,10
10,test,4,0.0,2-Back,1.0,m,Thu Jan 22 2026 08:50:55 GMT-0600 (Central Standard Time),806377.6999999285,041_y_m_n_a.png,I,m,682,13,1,1689.8999999761581,804687.7999999523,8093,NNB,A,11
11,test,4,1.0,2-Back,1.0,z,Thu Jan 22 2026 08:50:55 GMT-0600 (Central Standard Time),808227.3999999762,047_o_f_n_a.png,I,z,822,14,1,1841.3999999761581,806386.0,8093,NNB,A,12
11,test,4,1.0,2-Back,0.0,z,Thu Jan 22 2026 08:50:55 GMT-0600 (Central Standard Time),810309.8999999762,041_y_m_n_a.png,I,m,1052,15,1,2073.600000023842,808236.2999999523,8093,NNB,A,13
12,test,4,0.0,2-Back,1.0,m,Thu Jan 22 2026 08:50:55 GMT-0600 (Central Standard Time),812209.6999999285,045_m_m_n_a.png,I,m,874,16,1,1891.3999999761581,810318.2999999523,8093,NNB,A,14
13,test,4,0.0,2-Back,1.0,m,Thu Jan 22 2026 08:50:55 GMT-0600 (Central Standard Time),814258.6999999285,050_m_f_n_a.png,I,m,1024,17,1,2040.5999999046326,812218.1000000238,8093,NNB,A,15
13,test,4,1.0,2-Back,0.0,z,Thu Jan 22 2026 08:50:55 GMT-0600 (Central Standard Time),816591.6000000238,045_m_m_n_a.png,I,m,1301,18,1,2324.100000023842,814267.5,8093,NNB,A,16
0,test,5,1.0,2-Back,,,Thu Jan 22 2026 08:50:55 GMT-0600 (Central Standard Time),816591.6000000238,041_y_m_n_a.png,I,space,2169,1,1,2324.100000023842,814267.5,8093,NNB,A,0
0,test,5,1.0,2-Back,,,Thu Jan 22 2026 08:50:55 GMT-0600 (Central Standard Time),816591.6000000238,050_m_f_n_a.png,I,space,2169,2,1,2324.100000023842,814267.5,8093,NNB,A,0
1,test,5,1.0,2-Back,1.0,z,Thu Jan 22 2026 08:50:55 GMT-0600 (Central Standard Time),825422.0,041_y_m_n_a.png,I,z,569,3,1,1590.1000000238419,823831.8999999762,8093,NNB,A,1
2,test,5,1.0,2-Back,1.0,z,Thu Jan 22 2026 08:50:55 GMT-0600 (Central Standard Time),827737.6999999285,050_m_f_n_a.png,I,z,1298,4,1,2307.0,825430.6999999285,8093,NNB,A,2
3,test,5,0.0,2-Back,1.0,m,Thu Jan 22 2026 08:50:55 GMT-0600 (Central Standard Time),829588.7999999523,047_o_f_n_a.png,I,m,830,5,1,1842.7999999523163,827746.0,8093,NNB,A,3
4,test,5,0.0,2-Back,1.0,m,Thu Jan 22 2026 08:50:55 GMT-0600 (Central Standard Time),831653.3999999762,041_y_m_n_a.png,I,m,1045,6,1,2056.100000023842,829597.2999999523,8093,NNB,A,4
5,test,5,0.0,2-Back,1.0,m,Thu Jan 22 2026 08:50:55 GMT-0600 (Central Standard Time),833887.1000000238,010_y_f_n_a.png,I,m,1211,7,1,2225.3000000715256,831661.7999999523,8093,NNB,A,5
6,test,5,0.0,2-Back,1.0,m,Thu Jan 22 2026 08:50:55 GMT-0600 (Central Standard Time),836401.6999999285,047_o_f_n_a.png,I,m,1489,8,1,2506.0999999046326,833895.6000000238,8093,NNB,A,6
6,test,5,1.0,2-Back,0.0,z,Thu Jan 22 2026 08:50:55 GMT-0600 (Central Standard Time),839434.2999999523,010_y_f_n_a.png,I,None,2016,9,1,3023.5,836410.7999999523,8093,NNB,A,7
7,test,5,0.0,2-Back,1.0,m,Thu Jan 22 2026 08:50:55 GMT-0600 (Central Standard Time),841484.7999999523,046_o_m_n_a.png,I,m,1030,10,1,2042.1999999284744,839442.6000000238,8093,NNB,A,8
8,test,5,0.0,2-Back,1.0,m,Thu Jan 22 2026 08:50:55 GMT-0600 (Central Standard Time),843049.6999999285,043_m_f_n_a.png,I,m,549,11,1,1556.5999999046326,841493.1000000238,8093,NNB,A,9
9,test,5,0.0,2-Back,1.0,m,Thu Jan 22 2026 08:50:55 GMT-0600 (Central Standard Time),844682.8999999762,058_m_m_n_a.png,I,m,607,12,1,1624.6000000238419,843058.2999999523,8093,NNB,A,10
10,test,5,0.0,2-Back,1.0,m,Thu Jan 22 2026 08:50:55 GMT-0600 (Central Standard Time),846465.2999999523,046_o_m_n_a.png,I,m,766,13,1,1774.0,844691.2999999523,8093,NNB,A,11
10,test,5,1.0,2-Back,0.0,z,Thu Jan 22 2026 08:50:55 GMT-0600 (Central Standard Time),848181.2999999523,058_m_m_n_a.png,I,m,694,14,1,1707.6999999284744,846473.6000000238,8093,NNB,A,12
11,test,5,0.0,2-Back,1.0,m,Thu Jan 22 2026 08:50:55 GMT-0600 (Central Standard Time),849747.8999999762,063_y_f_n_a.png,I,m,539,15,1,1555.7000000476837,848192.1999999285,8093,NNB,A,13
12,test,5,0.0,2-Back,1.0,m,Thu Jan 22 2026 08:50:55 GMT-0600 (Central Standard Time),851313.8999999762,053_o_m_n_a.png,I,m,541,16,1,1557.2000000476837,849756.6999999285,8093,NNB,A,14
13,test,5,0.0,2-Back,1.0,m,Thu Jan 22 2026 08:50:55 GMT-0600 (Central Standard Time),852846.8999999762,043_m_f_n_a.png,I,m,503,17,1,1524.3999999761581,851322.5,8093,NNB,A,15
13,test,5,1.0,2-Back,0.0,z,Thu Jan 22 2026 08:50:55 GMT-0600 (Central Standard Time),854512.8999999762,053_o_m_n_a.png,I,m,642,18,1,1657.5,852855.3999999762,8093,NNB,A,16
