acc_sum,block,block_c,block_cond,con_img,correct,correct_response,datetime,endtime,face,jitter,line,project,response,response_time,row_sel,session_number,start_end,starttime,subject_id,task,task_vers,trial
1,prac,1,A,haborder.png,1,z,Mon Dec 01 2025 11:08:28 GMT-0500 (Eastern Standard Time),93771.09999990463,CFD-BF-031-020-A.jpg,1000,solid,I,z,1422,4,1,3233.2000000476837,90537.89999985695,9038,ATS,C,1
1,prac,1,A,haborder.png,0,z,Mon Dec 01 2025 11:08:28 GMT-0500 (Eastern Standard Time),97604.59999990463,CFD-WM-036-018-A.jpg,1900,solid,I,m,1128,8,1,7066.700000047684,90537.89999985695,9038,ATS,C,2
2,prac,1,A,haborder.png,1,m,Mon Dec 01 2025 11:08:28 GMT-0500 (Eastern Standard Time),101037.89999985695,CFD-WM-035-036-HC.jpg,1700,solid,I,m,919,9,1,10500.0,90537.89999985695,9038,ATS,C,3
3,prac,1,A,haborder.png,1,z,Mon Dec 01 2025 11:08:28 GMT-0500 (Eastern Standard Time),103587.79999995232,CFD-WF-023-013-A.jpg,1000,solid,I,z,746,12,1,13049.900000095367,90537.89999985695,9038,ATS,C,4
4,prac,1,A,haborder.png,1,m,Mon Dec 01 2025 11:08:28 GMT-0500 (Eastern Standard Time),107038.0,CFD-BM-034-035-HC.jpg,1700,solid,I,m,936,1,1,16500.10000014305,90537.89999985695,9038,ATS,C,5
5,prac,1,A,haborder.png,1,m,Mon Dec 01 2025 11:08:28 GMT-0500 (Eastern Standard Time),110371.39999985695,CFD-BM-022-004-HC.jpg,1500,solid,I,m,1029,3,1,19833.5,90537.89999985695,9038,ATS,C,6
6,prac,1,A,haborder.png,1,m,Mon Dec 01 2025 11:08:28 GMT-0500 (Eastern Standard Time),113471.39999985695,CFD-WM-028-005-HC.jpg,1400,solid,I,m,884,7,1,22933.5,90537.89999985695,9038,ATS,C,7
7,prac,1,A,haborder.png,1,m,Mon Dec 01 2025 11:08:28 GMT-0500 (Eastern Standard Time),116604.59999990463,CFD-WF-013-009-HC.jpg,1500,solid,I,m,821,11,1,26066.700000047684,90537.89999985695,9038,ATS,C,8
8,prac,1,A,haborder.png,1,m,Mon Dec 01 2025 11:08:28 GMT-0500 (Eastern Standard Time),120254.69999980927,CFD-BF-019-004-HC.jpg,2000,solid,I,m,834,5,1,29716.799999952316,90537.89999985695,9038,ATS,C,9
9,prac,1,A,haborder.png,1,z,Mon Dec 01 2025 11:08:28 GMT-0500 (Eastern Standard Time),123238.0,CFD-BM-043-014-A.jpg,1600,solid,I,z,577,2,1,32700.10000014305,90537.89999985695,9038,ATS,C,10
10,prac,1,A,haborder.png,1,z,Mon Dec 01 2025 11:08:28 GMT-0500 (Eastern Standard Time),126438.09999990463,CFD-WF-037-016-A.jpg,1600,solid,I,z,794,10,1,35900.200000047684,90537.89999985695,9038,ATS,C,11
11,prac,1,A,haborder.png,1,z,Mon Dec 01 2025 11:08:28 GMT-0500 (Eastern Standard Time),129071.5,CFD-BF-002-018-A.jpg,1200,solid,I,z,618,6,1,38533.60000014305,90537.89999985695,9038,ATS,C,12
1,prac,1,B,mfborder.png,1,z,Mon Dec 01 2025 11:08:28 GMT-0500 (Eastern Standard Time),169921.29999995232,CFD-WF-013-009-HC.jpg,1000,12,I,z,883,dash,1,2700.0,167221.29999995232,9038,ATS,C,1
2,prac,1,B,mfborder.png,1,m,Mon Dec 01 2025 11:08:28 GMT-0500 (Eastern Standard Time),172921.29999995232,CFD-WM-034-040-A.jpg,1200,6,I,m,990,dash,1,5700.0,167221.29999995232,9038,ATS,C,2
3,prac,1,B,mfborder.png,1,m,Mon Dec 01 2025 11:08:28 GMT-0500 (Eastern Standard Time),176921.19999980927,CFD-WM-036-018-A.jpg,1700,9,I,m,1490,dash,1,9699.899999856949,167221.29999995232,9038,ATS,C,3
4,prac,1,B,mfborder.png,1,m,Mon Dec 01 2025 11:08:28 GMT-0500 (Eastern Standard Time),180154.5,CFD-WM-035-036-HC.jpg,1600,10,I,m,823,dash,1,12933.200000047684,167221.29999995232,9038,ATS,C,4
5,prac,1,B,mfborder.png,1,m,Mon Dec 01 2025 11:08:28 GMT-0500 (Eastern Standard Time),184054.5,CFD-BM-043-014-A.jpg,2000,5,I,m,1093,dash,1,16833.200000047684,167221.29999995232,9038,ATS,C,5
6,prac,1,B,mfborder.png,1,m,Mon Dec 01 2025 11:08:28 GMT-0500 (Eastern Standard Time),187404.09999990463,CFD-BM-021-026-A.jpg,1600,2,I,m,937,dash,1,20182.799999952316,167221.29999995232,9038,ATS,C,6
7,prac,1,B,mfborder.png,1,z,Mon Dec 01 2025 11:08:28 GMT-0500 (Eastern Standard Time),190987.89999985695,CFD-WF-037-016-A.jpg,1500,11,I,z,1271,dash,1,23766.599999904633,167221.29999995232,9038,ATS,C,7
8,prac,1,B,mfborder.png,1,z,Mon Dec 01 2025 11:08:28 GMT-0500 (Eastern Standard Time),194121.19999980927,CFD-BF-019-004-HC.jpg,1400,7,I,z,923,dash,1,26899.89999985695,167221.29999995232,9038,ATS,C,8
9,prac,1,B,mfborder.png,1,z,Mon Dec 01 2025 11:08:28 GMT-0500 (Eastern Standard Time),197754.59999990463,CFD-BF-042-031-HC.jpg,1500,3,I,z,1323,dash,1,30533.299999952316,167221.29999995232,9038,ATS,C,9
10,prac,1,B,mfborder.png,1,m,Mon Dec 01 2025 11:08:28 GMT-0500 (Eastern Standard Time),201337.89999985695,CFD-BM-022-004-HC.jpg,1700,1,I,m,1073,dash,1,34116.59999990463,167221.29999995232,9038,ATS,C,10
11,prac,1,B,mfborder.png,1,z,Mon Dec 01 2025 11:08:28 GMT-0500 (Eastern Standard Time),204821.19999980927,CFD-WF-001-010-HC.jpg,1900,8,I,z,777,dash,1,37599.89999985695,167221.29999995232,9038,ATS,C,11
12,prac,1,B,mfborder.png,1,z,Mon Dec 01 2025 11:08:28 GMT-0500 (Eastern Standard Time),207721.19999980927,CFD-BF-031-020-A.jpg,1000,4,I,z,1090,dash,1,40499.89999985695,167221.29999995232,9038,ATS,C,12
1,test,1,A,haborder.png,1,z,Mon Dec 01 2025 11:08:28 GMT-0500 (Eastern Standard Time),230954.39999985695,CFD-WF-023-013-A.jpg,1000,solid,I,z,607,12,1,1633.3999998569489,229321.0,9038,ATS,C,1
2,test,1,A,haborder.png,1,m,Mon Dec 01 2025 11:08:28 GMT-0500 (Eastern Standard Time),233337.09999990463,CFD-BM-034-035-HC.jpg,1700,solid,I,m,640,1,1,4016.0999999046326,229321.0,9038,ATS,C,2
3,test,1,A,haborder.png,1,m,Mon Dec 01 2025 11:08:28 GMT-0500 (Eastern Standard Time),236238.19999980927,CFD-BF-019-004-HC.jpg,2000,solid,I,m,881,5,1,6917.199999809265,229321.0,9038,ATS,C,3
4,test,1,A,haborder.png,1,z,Mon Dec 01 2025 11:08:28 GMT-0500 (Eastern Standard Time),238187.69999980927,CFD-BF-002-018-A.jpg,1200,solid,I,z,722,6,1,8866.699999809265,229321.0,9038,ATS,C,4
5,test,1,A,haborder.png,1,m,Mon Dec 01 2025 11:08:28 GMT-0500 (Eastern Standard Time),240671.0,CFD-BM-022-004-HC.jpg,1500,solid,I,m,953,3,1,11350.0,229321.0,9038,ATS,C,5
6,test,1,A,haborder.png,1,m,Mon Dec 01 2025 11:08:28 GMT-0500 (Eastern Standard Time),242854.29999995232,CFD-BM-022-004-HC.jpg,1500,solid,I,m,644,3,1,13533.299999952316,229321.0,9038,ATS,C,6
7,test,1,A,haborder.png,1,m,Mon Dec 01 2025 11:08:28 GMT-0500 (Eastern Standard Time),245704.39999985695,CFD-BF-019-004-HC.jpg,2000,solid,I,m,825,5,1,16383.399999856949,229321.0,9038,ATS,C,7
8,test,1,A,haborder.png,1,z,Mon Dec 01 2025 11:08:28 GMT-0500 (Eastern Standard Time),247271.09999990463,CFD-BF-031-020-A.jpg,1000,solid,I,z,543,4,1,17950.099999904633,229321.0,9038,ATS,C,8
9,test,1,A,haborder.png,1,z,Mon Dec 01 2025 11:08:28 GMT-0500 (Eastern Standard Time),249554.0,CFD-WF-037-016-A.jpg,1600,solid,I,z,666,10,1,20233.0,229321.0,9038,ATS,C,9
10,test,1,A,haborder.png,1,z,Mon Dec 01 2025 11:08:28 GMT-0500 (Eastern Standard Time),251954.39999985695,CFD-WF-037-016-A.jpg,1600,solid,I,z,782,10,1,22633.39999985695,229321.0,9038,ATS,C,10
11,test,1,A,haborder.png,1,z,Mon Dec 01 2025 11:08:28 GMT-0500 (Eastern Standard Time),253820.89999985695,CFD-BF-002-018-A.jpg,1200,solid,I,z,637,6,1,24499.89999985695,229321.0,9038,ATS,C,11
12,test,1,A,haborder.png,1,z,Mon Dec 01 2025 11:08:28 GMT-0500 (Eastern Standard Time),256171.0,CFD-BM-043-014-A.jpg,1600,solid,I,z,723,2,1,26850.0,229321.0,9038,ATS,C,12
13,test,1,A,haborder.png,1,m,Mon Dec 01 2025 11:08:28 GMT-0500 (Eastern Standard Time),258354.19999980927,CFD-WF-013-009-HC.jpg,1500,solid,I,m,665,11,1,29033.199999809265,229321.0,9038,ATS,C,13
14,test,1,A,haborder.png,1,m,Mon Dec 01 2025 11:08:28 GMT-0500 (Eastern Standard Time),260854.29999995232,CFD-WM-035-036-HC.jpg,1700,solid,I,m,777,9,1,31533.299999952316,229321.0,9038,ATS,C,14
15,test,1,A,haborder.png,1,m,Mon Dec 01 2025 11:08:28 GMT-0500 (Eastern Standard Time),263121.0,CFD-WF-013-009-HC.jpg,1500,solid,I,m,734,11,1,33800.0,229321.0,9038,ATS,C,15
16,test,1,A,haborder.png,1,m,Mon Dec 01 2025 11:08:28 GMT-0500 (Eastern Standard Time),265421.0,CFD-WM-028-005-HC.jpg,1400,solid,I,m,871,7,1,36100.0,229321.0,9038,ATS,C,16
17,test,1,A,haborder.png,1,z,Mon Dec 01 2025 11:08:28 GMT-0500 (Eastern Standard Time),267054.39999985695,CFD-WF-023-013-A.jpg,1000,solid,I,z,585,12,1,37733.39999985695,229321.0,9038,ATS,C,17
18,test,1,A,haborder.png,1,z,Mon Dec 01 2025 11:08:28 GMT-0500 (Eastern Standard Time),269754.2999999523,CFD-WM-036-018-A.jpg,1900,solid,I,z,773,8,1,40433.299999952316,229321.0,9038,ATS,C,18
19,test,1,A,haborder.png,1,m,Mon Dec 01 2025 11:08:28 GMT-0500 (Eastern Standard Time),271737.59999990463,CFD-WM-028-005-HC.jpg,1400,solid,I,m,557,7,1,42416.59999990463,229321.0,9038,ATS,C,19
20,test,1,A,haborder.png,1,z,Mon Dec 01 2025 11:08:28 GMT-0500 (Eastern Standard Time),274420.89999985695,CFD-WM-036-018-A.jpg,1900,solid,I,z,730,8,1,45099.89999985695,229321.0,9038,ATS,C,20
21,test,1,A,haborder.png,1,z,Mon Dec 01 2025 11:08:28 GMT-0500 (Eastern Standard Time),276237.59999990463,CFD-BF-031-020-A.jpg,1000,solid,I,z,787,4,1,46916.59999990463,229321.0,9038,ATS,C,21
22,test,1,A,haborder.png,1,m,Mon Dec 01 2025 11:08:28 GMT-0500 (Eastern Standard Time),278820.89999985695,CFD-WM-035-036-HC.jpg,1700,solid,I,m,845,9,1,49499.89999985695,229321.0,9038,ATS,C,22
23,test,1,A,haborder.png,1,z,Mon Dec 01 2025 11:08:28 GMT-0500 (Eastern Standard Time),281220.89999985695,CFD-BM-043-014-A.jpg,1600,solid,I,z,779,2,1,51899.89999985695,229321.0,9038,ATS,C,23
24,test,1,A,haborder.png,1,m,Mon Dec 01 2025 11:08:28 GMT-0500 (Eastern Standard Time),283987.2999999523,CFD-BM-034-035-HC.jpg,1700,solid,I,m,1047,1,1,54666.299999952316,229321.0,9038,ATS,C,24
1,test,1,B,mfborder.png,1,m,Mon Dec 01 2025 11:08:28 GMT-0500 (Eastern Standard Time),301521.0,CFD-WM-034-040-A.jpg,1200,dash,I,m,566,6,1,1800.1000001430511,299720.89999985695,9038,ATS,C,1
2,test,1,B,mfborder.png,1,m,Mon Dec 01 2025 11:08:28 GMT-0500 (Eastern Standard Time),303787.59999990463,CFD-WM-036-018-A.jpg,1700,dash,I,m,538,9,1,4066.7000000476837,299720.89999985695,9038,ATS,C,2
3,test,1,B,mfborder.png,1,m,Mon Dec 01 2025 11:08:28 GMT-0500 (Eastern Standard Time),306054.09999990463,CFD-BM-022-004-HC.jpg,1700,dash,I,m,543,1,1,6333.200000047684,299720.89999985695,9038,ATS,C,3
4,test,1,B,mfborder.png,1,m,Mon Dec 01 2025 11:08:28 GMT-0500 (Eastern Standard Time),308371.0,CFD-WM-035-036-HC.jpg,1600,dash,I,m,682,10,1,8650.100000143051,299720.89999985695,9038,ATS,C,4
5,test,1,B,mfborder.png,1,m,Mon Dec 01 2025 11:08:28 GMT-0500 (Eastern Standard Time),310971.0,CFD-BM-043-014-A.jpg,2000,dash,I,m,557,5,1,11250.100000143051,299720.89999985695,9038,ATS,C,5
6,test,1,B,mfborder.png,1,z,Mon Dec 01 2025 11:08:28 GMT-0500 (Eastern Standard Time),313421.0,CFD-BF-042-031-HC.jpg,1500,dash,I,z,920,3,1,13700.100000143051,299720.89999985695,9038,ATS,C,6
7,test,1,B,mfborder.png,1,z,Mon Dec 01 2025 11:08:28 GMT-0500 (Eastern Standard Time),316220.89999985695,CFD-WF-001-010-HC.jpg,1900,dash,I,z,871,8,1,16500.0,299720.89999985695,9038,ATS,C,7
8,test,1,B,mfborder.png,1,z,Mon Dec 01 2025 11:08:28 GMT-0500 (Eastern Standard Time),318621.0,CFD-BF-019-004-HC.jpg,1400,dash,I,z,954,7,1,18900.10000014305,299720.89999985695,9038,ATS,C,8
9,test,1,B,mfborder.png,1,m,Mon Dec 01 2025 11:08:28 GMT-0500 (Eastern Standard Time),321154.2999999523,CFD-WM-036-018-A.jpg,1700,dash,I,m,800,9,1,21433.400000095367,299720.89999985695,9038,ATS,C,9
10,test,1,B,mfborder.png,1,m,Mon Dec 01 2025 11:08:28 GMT-0500 (Eastern Standard Time),324070.89999985695,CFD-BM-021-026-A.jpg,1600,dash,I,m,1294,2,1,24350.0,299720.89999985695,9038,ATS,C,10
11,test,1,B,mfborder.png,1,m,Mon Dec 01 2025 11:08:28 GMT-0500 (Eastern Standard Time),327537.69999980927,CFD-BM-043-014-A.jpg,2000,dash,I,m,1449,5,1,27816.799999952316,299720.89999985695,9038,ATS,C,11
12,test,1,B,mfborder.png,1,m,Mon Dec 01 2025 11:08:28 GMT-0500 (Eastern Standard Time),329821.0,CFD-BM-021-026-A.jpg,1600,dash,I,m,637,2,1,30100.10000014305,299720.89999985695,9038,ATS,C,12
13,test,1,B,mfborder.png,1,z,Mon Dec 01 2025 11:08:28 GMT-0500 (Eastern Standard Time),331554.09999990463,CFD-WF-013-009-HC.jpg,1000,dash,I,z,700,12,1,31833.200000047684,299720.89999985695,9038,ATS,C,13
14,test,1,B,mfborder.png,1,m,Mon Dec 01 2025 11:08:28 GMT-0500 (Eastern Standard Time),334154.19999980927,CFD-BM-022-004-HC.jpg,1700,dash,I,m,856,1,1,34433.299999952316,299720.89999985695,9038,ATS,C,14
15,test,1,B,mfborder.png,1,m,Mon Dec 01 2025 11:08:28 GMT-0500 (Eastern Standard Time),336237.59999990463,CFD-WM-034-040-A.jpg,1200,dash,I,m,837,6,1,36516.700000047684,299720.89999985695,9038,ATS,C,15
16,test,1,B,mfborder.png,1,z,Mon Dec 01 2025 11:08:28 GMT-0500 (Eastern Standard Time),339004.19999980927,CFD-WF-001-010-HC.jpg,1900,dash,I,z,838,8,1,39283.299999952316,299720.89999985695,9038,ATS,C,16
17,test,1,B,mfborder.png,1,m,Mon Dec 01 2025 11:08:28 GMT-0500 (Eastern Standard Time),341220.89999985695,CFD-WM-035-036-HC.jpg,1600,dash,I,m,584,10,1,41500.0,299720.89999985695,9038,ATS,C,17
18,test,1,B,mfborder.png,1,z,Mon Dec 01 2025 11:08:28 GMT-0500 (Eastern Standard Time),342870.89999985695,CFD-WF-013-009-HC.jpg,1000,dash,I,z,611,12,1,43150.0,299720.89999985695,9038,ATS,C,18
19,test,1,B,mfborder.png,1,z,Mon Dec 01 2025 11:08:28 GMT-0500 (Eastern Standard Time),344904.19999980927,CFD-BF-019-004-HC.jpg,1400,dash,I,z,608,7,1,45183.299999952316,299720.89999985695,9038,ATS,C,19
20,test,1,B,mfborder.png,1,z,Mon Dec 01 2025 11:08:28 GMT-0500 (Eastern Standard Time),347054.19999980927,CFD-WF-037-016-A.jpg,1500,dash,I,z,619,11,1,47333.299999952316,299720.89999985695,9038,ATS,C,20
21,test,1,B,mfborder.png,1,z,Mon Dec 01 2025 11:08:28 GMT-0500 (Eastern Standard Time),349437.59999990463,CFD-BF-042-031-HC.jpg,1500,dash,I,z,837,3,1,49716.700000047684,299720.89999985695,9038,ATS,C,21
22,test,1,B,mfborder.png,1,z,Mon Dec 01 2025 11:08:28 GMT-0500 (Eastern Standard Time),351087.5,CFD-BF-031-020-A.jpg,1000,dash,I,z,601,4,1,51366.60000014305,299720.89999985695,9038,ATS,C,22
23,test,1,B,mfborder.png,1,z,Mon Dec 01 2025 11:08:28 GMT-0500 (Eastern Standard Time),352820.7999999523,CFD-BF-031-020-A.jpg,1000,dash,I,z,712,4,1,53099.90000009537,299720.89999985695,9038,ATS,C,23
24,test,1,B,mfborder.png,1,z,Mon Dec 01 2025 11:08:28 GMT-0500 (Eastern Standard Time),354854.09999990463,CFD-WF-037-016-A.jpg,1500,dash,I,z,512,11,1,55133.200000047684,299720.89999985695,9038,ATS,C,24
1,prac,1,C,haborder.png,1,z,Mon Dec 01 2025 11:08:28 GMT-0500 (Eastern Standard Time),416137.69999980927,CFD-WF-037-016-A.jpg,1600,dash,I,z,1323,11,1,3733.5,412404.19999980927,9038,ATS,C,1
2,prac,1,C,mfborder.png,1,m,Mon Dec 01 2025 11:08:28 GMT-0500 (Eastern Standard Time),419820.89999985695,CFD-BM-034-035-HC.jpg,2000,solid,I,m,870,11,1,7416.700000047684,412404.19999980927,9038,ATS,C,2
3,prac,1,C,mfborder.png,1,z,Mon Dec 01 2025 11:08:28 GMT-0500 (Eastern Standard Time),423187.59999990463,CFD-WF-013-009-HC.jpg,1600,dash,I,z,963,11,1,10783.400000095367,412404.19999980927,9038,ATS,C,3
4,prac,1,C,mfborder.png,1,m,Mon Dec 01 2025 11:08:28 GMT-0500 (Eastern Standard Time),426137.39999985695,CFD-BM-043-014-A.jpg,1200,dash,I,m,940,11,1,13733.200000047684,412404.19999980927,9038,ATS,C,4
5,prac,1,C,mfborder.png,1,m,Mon Dec 01 2025 11:08:28 GMT-0500 (Eastern Standard Time),429771.0,CFD-WM-036-018-A.jpg,1700,solid,I,m,1122,11,1,17366.800000190735,412404.19999980927,9038,ATS,C,5
6,prac,1,C,mfborder.png,1,z,Mon Dec 01 2025 11:08:28 GMT-0500 (Eastern Standard Time),432504.19999980927,CFD-BF-019-004-HC.jpg,1000,dash,I,z,924,11,1,20100.0,412404.19999980927,9038,ATS,C,6
7,prac,1,C,mfborder.png,1,z,Mon Dec 01 2025 11:08:28 GMT-0500 (Eastern Standard Time),436020.7999999523,CFD-WF-023-013-A.jpg,1500,solid,I,z,1212,11,1,23616.60000014305,412404.19999980927,9038,ATS,C,7
8,prac,1,C,haborder.png,1,m,Mon Dec 01 2025 11:08:28 GMT-0500 (Eastern Standard Time),439620.89999985695,CFD-BM-022-004-HC.jpg,1500,solid,I,m,1294,11,1,27216.700000047684,412404.19999980927,9038,ATS,C,8
9,prac,1,C,haborder.png,1,m,Mon Dec 01 2025 11:08:28 GMT-0500 (Eastern Standard Time),442754.19999980927,CFD-WM-028-005-HC.jpg,1400,solid,I,m,931,11,1,30350.0,412404.19999980927,9038,ATS,C,9
10,prac,1,C,haborder.png,1,z,Mon Dec 01 2025 11:08:28 GMT-0500 (Eastern Standard Time),445904.19999980927,CFD-BF-002-018-A.jpg,1700,solid,I,z,633,11,1,33500.0,412404.19999980927,9038,ATS,C,10
11,prac,1,C,haborder.png,1,z,Mon Dec 01 2025 11:08:28 GMT-0500 (Eastern Standard Time),449220.89999985695,CFD-BF-031-020-A.jpg,1900,dash,I,z,611,11,1,36816.700000047684,412404.19999980927,9038,ATS,C,11
12,prac,1,C,haborder.png,1,m,Mon Dec 01 2025 11:08:28 GMT-0500 (Eastern Standard Time),451904.09999990463,CFD-WM-028-005-HC.jpg,1000,dash,I,m,866,11,1,39499.90000009537,412404.19999980927,9038,ATS,C,12
0,test,1,C,haborder.png,0,m,Mon Dec 01 2025 11:08:28 GMT-0500 (Eastern Standard Time),486803.89999985695,CFD-WF-001-010-HC.jpg,1500,solid,I,None,1516,11,1,3033.0999999046326,483770.7999999523,9038,ATS,C,1
1,test,1,C,mfborder.png,1,m,Mon Dec 01 2025 11:08:28 GMT-0500 (Eastern Standard Time),488753.7999999523,CFD-WM-035-036-HC.jpg,1000,dash,I,m,915,4,1,4983.0,483770.7999999523,9038,ATS,C,2
2,test,1,C,haborder.png,1,z,Mon Dec 01 2025 11:08:28 GMT-0500 (Eastern Standard Time),491270.69999980927,CFD-BM-021-026-A.jpg,1700,solid,I,z,794,9,1,7499.899999856949,483770.7999999523,9038,ATS,C,3
3,test,1,C,haborder.png,1,m,Mon Dec 01 2025 11:08:28 GMT-0500 (Eastern Standard Time),493287.39999985695,CFD-WF-013-009-HC.jpg,1000,solid,I,m,993,12,1,9516.599999904633,483770.7999999523,9038,ATS,C,4
4,test,1,C,haborder.png,1,m,Mon Dec 01 2025 11:08:28 GMT-0500 (Eastern Standard Time),496237.2999999523,CFD-BF-019-004-HC.jpg,1600,solid,I,m,1305,10,1,12466.5,483770.7999999523,9038,ATS,C,5
4,test,1,C,haborder.png,0,z,Mon Dec 01 2025 11:08:28 GMT-0500 (Eastern Standard Time),498337.5,CFD-WM-036-018-A.jpg,1400,solid,I,m,682,7,1,14566.700000047684,483770.7999999523,9038,ATS,C,6
4,test,1,C,mfborder.png,0,m,Mon Dec 01 2025 11:08:28 GMT-0500 (Eastern Standard Time),501320.69999980927,CFD-WM-034-040-A.jpg,2000,dash,I,z,942,5,1,17549.89999985695,483770.7999999523,9038,ATS,C,7
4,test,1,C,mfborder.png,0,z,Mon Dec 01 2025 11:08:28 GMT-0500 (Eastern Standard Time),504370.7999999523,CFD-WF-037-016-A.jpg,1500,dash,I,None,1517,3,1,20600.0,483770.7999999523,9038,ATS,C,8
4,test,1,C,haborder.png,0,z,Mon Dec 01 2025 11:08:28 GMT-0500 (Eastern Standard Time),507420.69999980927,CFD-BM-043-014-A.jpg,1900,solid,I,m,1122,8,1,23649.89999985695,483770.7999999523,9038,ATS,C,9
4,test,1,C,mfborder.png,0,m,Mon Dec 01 2025 11:08:28 GMT-0500 (Eastern Standard Time),509620.69999980927,CFD-BM-022-004-HC.jpg,1200,dash,I,z,962,6,1,25849.89999985695,483770.7999999523,9038,ATS,C,10
4,test,1,C,mfborder.png,0,z,Mon Dec 01 2025 11:08:28 GMT-0500 (Eastern Standard Time),512754.0,CFD-BF-031-020-A.jpg,1600,dash,I,None,1517,2,1,28983.200000047684,483770.7999999523,9038,ATS,C,11
5,test,1,C,mfborder.png,1,z,Mon Dec 01 2025 11:08:28 GMT-0500 (Eastern Standard Time),515037.2999999523,CFD-BF-042-031-HC.jpg,1700,dash,I,z,554,1,1,31266.5,483770.7999999523,9038,ATS,C,12
6,test,1,C,mfborder.png,1,m,Mon Dec 01 2025 11:08:28 GMT-0500 (Eastern Standard Time),517654.0,CFD-WM-034-040-A.jpg,2000,dash,I,m,578,5,1,33883.200000047684,483770.7999999523,9038,ATS,C,13
6,test,1,C,haborder.png,0,m,Mon Dec 01 2025 11:08:28 GMT-0500 (Eastern Standard Time),520787.39999985695,CFD-BF-019-004-HC.jpg,1600,solid,I,None,1516,10,1,37016.59999990463,483770.7999999523,9038,ATS,C,14
7,test,1,C,mfborder.png,1,z,Mon Dec 01 2025 11:08:28 GMT-0500 (Eastern Standard Time),523270.69999980927,CFD-WF-037-016-A.jpg,1500,dash,I,z,961,3,1,39499.89999985695,483770.7999999523,9038,ATS,C,15
7,test,1,C,mfborder.png,0,z,Mon Dec 01 2025 11:08:28 GMT-0500 (Eastern Standard Time),525537.0999999046,CFD-BF-042-031-HC.jpg,1700,dash,I,m,516,1,1,41766.299999952316,483770.7999999523,9038,ATS,C,16
7,test,1,C,mfborder.png,0,z,Mon Dec 01 2025 11:08:28 GMT-0500 (Eastern Standard Time),527603.899999857,CFD-BF-031-020-A.jpg,1600,dash,I,m,446,2,1,43833.09999990463,483770.7999999523,9038,ATS,C,17
7,test,1,C,haborder.png,0,z,Mon Dec 01 2025 11:08:28 GMT-0500 (Eastern Standard Time),529870.6999998093,CFD-WM-036-018-A.jpg,1400,solid,I,m,836,7,1,46099.89999985695,483770.7999999523,9038,ATS,C,18
7,test,1,C,mfborder.png,0,m,Mon Dec 01 2025 11:08:28 GMT-0500 (Eastern Standard Time),531720.5999999046,CFD-BM-022-004-HC.jpg,1200,dash,I,z,625,6,1,47949.799999952316,483770.7999999523,9038,ATS,C,19
7,test,1,C,haborder.png,0,z,Mon Dec 01 2025 11:08:28 GMT-0500 (Eastern Standard Time),534254.0999999046,CFD-BM-043-014-A.jpg,1900,solid,I,m,586,8,1,50483.299999952316,483770.7999999523,9038,ATS,C,20
8,test,1,C,haborder.png,1,m,Mon Dec 01 2025 11:08:28 GMT-0500 (Eastern Standard Time),536370.399999857,CFD-WF-013-009-HC.jpg,1000,solid,I,m,1098,12,1,52599.59999990463,483770.7999999523,9038,ATS,C,21
9,test,1,C,haborder.png,1,m,Mon Dec 01 2025 11:08:28 GMT-0500 (Eastern Standard Time),538803.899999857,CFD-WF-001-010-HC.jpg,1500,solid,I,m,913,11,1,55033.09999990463,483770.7999999523,9038,ATS,C,22
9,test,1,C,mfborder.png,0,m,Mon Dec 01 2025 11:08:28 GMT-0500 (Eastern Standard Time),541353.6999998093,CFD-WM-035-036-HC.jpg,1000,dash,I,None,1517,4,1,57582.89999985695,483770.7999999523,9038,ATS,C,23
9,test,1,C,haborder.png,0,z,Mon Dec 01 2025 11:08:28 GMT-0500 (Eastern Standard Time),544587.399999857,CFD-BM-021-026-A.jpg,1700,solid,I,None,1516,9,1,60816.59999990463,483770.7999999523,9038,ATS,C,24
1,test,2,C,mfborder.png,1,m,Mon Dec 01 2025 11:08:28 GMT-0500 (Eastern Standard Time),593386.899999857,CFD-BM-034-035-HC.jpg,1000,dash,I,m,855,4,1,1883.0,591503.899999857,9038,ATS,C,1
2,test,2,C,mfborder.png,1,m,Mon Dec 01 2025 11:08:28 GMT-0500 (Eastern Standard Time),595104.0,CFD-BM-034-035-HC.jpg,1000,dash,I,m,684,4,1,3600.100000143051,591503.899999857,9038,ATS,C,2
3,test,2,C,haborder.png,1,z,Mon Dec 01 2025 11:08:28 GMT-0500 (Eastern Standard Time),598203.899999857,CFD-BF-002-018-A.jpg,1900,solid,I,z,1172,8,1,6700.0,591503.899999857,9038,ATS,C,3
4,test,2,C,mfborder.png,1,z,Mon Dec 01 2025 11:08:28 GMT-0500 (Eastern Standard Time),600753.5999999046,CFD-BF-019-004-HC.jpg,1500,dash,I,z,1015,3,1,9249.700000047684,591503.899999857,9038,ATS,C,4
5,test,2,C,mfborder.png,1,m,Mon Dec 01 2025 11:08:28 GMT-0500 (Eastern Standard Time),603520.6999998093,CFD-BM-043-014-A.jpg,2000,dash,I,m,734,5,1,12016.799999952316,591503.899999857,9038,ATS,C,5
6,test,2,C,mfborder.png,1,m,Mon Dec 01 2025 11:08:28 GMT-0500 (Eastern Standard Time),606553.899999857,CFD-BM-043-014-A.jpg,2000,dash,I,m,1007,5,1,15050.0,591503.899999857,9038,ATS,C,6
7,test,2,C,haborder.png,1,m,Mon Dec 01 2025 11:08:28 GMT-0500 (Eastern Standard Time),609453.899999857,CFD-WM-028-005-HC.jpg,1500,solid,I,m,1370,11,1,17950.0,591503.899999857,9038,ATS,C,7
8,test,2,C,mfborder.png,1,z,Mon Dec 01 2025 11:08:28 GMT-0500 (Eastern Standard Time),612487.0999999046,CFD-WF-013-009-HC.jpg,1700,dash,I,z,1293,1,1,20983.200000047684,591503.899999857,9038,ATS,C,8
9,test,2,C,mfborder.png,1,m,Mon Dec 01 2025 11:08:28 GMT-0500 (Eastern Standard Time),614470.5,CFD-WM-036-018-A.jpg,1200,dash,I,m,761,6,1,22966.60000014305,591503.899999857,9038,ATS,C,9
10,test,2,C,haborder.png,1,m,Mon Dec 01 2025 11:08:28 GMT-0500 (Eastern Standard Time),616353.6999998093,CFD-WM-028-005-HC.jpg,1000,solid,I,m,848,12,1,24849.799999952316,591503.899999857,9038,ATS,C,10
11,test,2,C,haborder.png,1,z,Mon Dec 01 2025 11:08:28 GMT-0500 (Eastern Standard Time),618537.0999999046,CFD-BF-031-020-A.jpg,1400,solid,I,z,758,7,1,27033.200000047684,591503.899999857,9038,ATS,C,11
12,test,2,C,haborder.png,1,z,Mon Dec 01 2025 11:08:28 GMT-0500 (Eastern Standard Time),621153.899999857,CFD-BF-002-018-A.jpg,1900,solid,I,z,666,8,1,29650.0,591503.899999857,9038,ATS,C,12
12,test,2,C,mfborder.png,0,z,Mon Dec 01 2025 11:08:28 GMT-0500 (Eastern Standard Time),624120.5,CFD-WF-013-009-HC.jpg,1700,dash,I,m,1242,1,1,32616.60000014305,591503.899999857,9038,ATS,C,13
13,test,2,C,mfborder.png,1,z,Mon Dec 01 2025 11:08:28 GMT-0500 (Eastern Standard Time),626887.1999998093,CFD-WF-023-013-A.jpg,1600,dash,I,z,1127,2,1,35383.299999952316,591503.899999857,9038,ATS,C,14
14,test,2,C,haborder.png,1,m,Mon Dec 01 2025 11:08:28 GMT-0500 (Eastern Standard Time),629387.1999998093,CFD-WM-028-005-HC.jpg,1500,solid,I,m,973,11,1,37883.299999952316,591503.899999857,9038,ATS,C,15
15,test,2,C,mfborder.png,1,m,Mon Dec 01 2025 11:08:28 GMT-0500 (Eastern Standard Time),631987.0,CFD-WM-036-018-A.jpg,1200,dash,I,m,1381,6,1,40483.10000014305,591503.899999857,9038,ATS,C,16
16,test,2,C,mfborder.png,1,z,Mon Dec 01 2025 11:08:28 GMT-0500 (Eastern Standard Time),634887.1999998093,CFD-WF-023-013-A.jpg,1600,dash,I,z,1277,2,1,43383.299999952316,591503.899999857,9038,ATS,C,17
17,test,2,C,mfborder.png,1,z,Mon Dec 01 2025 11:08:28 GMT-0500 (Eastern Standard Time),637387.1999998093,CFD-BF-019-004-HC.jpg,1500,dash,I,z,973,3,1,45883.299999952316,591503.899999857,9038,ATS,C,18
17,test,2,C,haborder.png,0,z,Mon Dec 01 2025 11:08:28 GMT-0500 (Eastern Standard Time),640620.6999998093,CFD-WF-037-016-A.jpg,1700,solid,I,None,1517,9,1,49116.799999952316,591503.899999857,9038,ATS,C,19
17,test,2,C,haborder.png,0,z,Mon Dec 01 2025 11:08:28 GMT-0500 (Eastern Standard Time),643103.899999857,CFD-WF-037-016-A.jpg,1700,solid,I,m,751,9,1,51600.0,591503.899999857,9038,ATS,C,20
17,test,2,C,haborder.png,0,m,Mon Dec 01 2025 11:08:28 GMT-0500 (Eastern Standard Time),645653.899999857,CFD-WM-028-005-HC.jpg,1000,solid,I,None,1516,12,1,54150.0,591503.899999857,9038,ATS,C,21
18,test,2,C,haborder.png,1,m,Mon Dec 01 2025 11:08:28 GMT-0500 (Eastern Standard Time),648003.5,CFD-BM-022-004-HC.jpg,1600,solid,I,m,731,10,1,56499.60000014305,591503.899999857,9038,ATS,C,22
19,test,2,C,haborder.png,1,m,Mon Dec 01 2025 11:08:28 GMT-0500 (Eastern Standard Time),650287.1999998093,CFD-BM-022-004-HC.jpg,1600,solid,I,m,652,10,1,58783.299999952316,591503.899999857,9038,ATS,C,23
19,test,2,C,haborder.png,0,z,Mon Dec 01 2025 11:08:28 GMT-0500 (Eastern Standard Time),652270.5,CFD-BF-031-020-A.jpg,1400,solid,I,m,553,7,1,60766.60000014305,591503.899999857,9038,ATS,C,24
1,test,3,C,mfborder.png,1,z,Mon Dec 01 2025 11:08:28 GMT-0500 (Eastern Standard Time),675003.899999857,CFD-BF-031-020-A.jpg,1600,dash,I,z,1005,2,1,2633.2000000476837,672370.6999998093,9038,ATS,C,1
2,test,3,C,mfborder.png,1,z,Mon Dec 01 2025 11:08:28 GMT-0500 (Eastern Standard Time),677220.399999857,CFD-WF-037-016-A.jpg,1500,dash,I,z,679,3,1,4849.700000047684,672370.6999998093,9038,ATS,C,2
3,test,3,C,haborder.png,1,m,Mon Dec 01 2025 11:08:28 GMT-0500 (Eastern Standard Time),679003.7999999523,CFD-WF-013-009-HC.jpg,1000,solid,I,m,755,12,1,6633.100000143051,672370.6999998093,9038,ATS,C,3
3,test,3,C,mfborder.png,0,m,Mon Dec 01 2025 11:08:28 GMT-0500 (Eastern Standard Time),681253.6999998093,CFD-WM-035-036-HC.jpg,1000,dash,I,z,1212,4,1,8883.0,672370.6999998093,9038,ATS,C,4
4,test,3,C,mfborder.png,1,m,Mon Dec 01 2025 11:08:28 GMT-0500 (Eastern Standard Time),684187.1999998093,CFD-WM-034-040-A.jpg,2000,dash,I,m,889,5,1,11816.5,672370.6999998093,9038,ATS,C,5
5,test,3,C,mfborder.png,1,z,Mon Dec 01 2025 11:08:28 GMT-0500 (Eastern Standard Time),686553.7999999523,CFD-BF-031-020-A.jpg,1600,dash,I,z,741,2,1,14183.100000143051,672370.6999998093,9038,ATS,C,6
6,test,3,C,haborder.png,1,m,Mon Dec 01 2025 11:08:28 GMT-0500 (Eastern Standard Time),688903.899999857,CFD-WF-001-010-HC.jpg,1500,solid,I,m,809,11,1,16533.200000047684,672370.6999998093,9038,ATS,C,7
7,test,3,C,haborder.png,1,z,Mon Dec 01 2025 11:08:28 GMT-0500 (Eastern Standard Time),691670.5,CFD-BM-043-014-A.jpg,1900,solid,I,z,827,8,1,19299.800000190735,672370.6999998093,9038,ATS,C,8
8,test,3,C,haborder.png,1,m,Mon Dec 01 2025 11:08:28 GMT-0500 (Eastern Standard Time),693953.5999999046,CFD-WF-001-010-HC.jpg,1500,solid,I,m,765,11,1,21582.900000095367,672370.6999998093,9038,ATS,C,9
8,test,3,C,haborder.png,0,z,Mon Dec 01 2025 11:08:28 GMT-0500 (Eastern Standard Time),696453.6999998093,CFD-BM-021-026-A.jpg,1700,solid,I,m,761,9,1,24083.0,672370.6999998093,9038,ATS,C,10
8,test,3,C,haborder.png,0,z,Mon Dec 01 2025 11:08:28 GMT-0500 (Eastern Standard Time),699387.2999999523,CFD-WM-036-018-A.jpg,1400,solid,I,None,1516,7,1,27016.60000014305,672370.6999998093,9038,ATS,C,11
8,test,3,C,mfborder.png,0,z,Mon Dec 01 2025 11:08:28 GMT-0500 (Eastern Standard Time),702420.5,CFD-WF-037-016-A.jpg,1500,dash,I,None,1515,3,1,30049.800000190735,672370.6999998093,9038,ATS,C,12
9,test,3,C,mfborder.png,1,m,Mon Dec 01 2025 11:08:28 GMT-0500 (Eastern Standard Time),704387.0999999046,CFD-BM-022-004-HC.jpg,1200,dash,I,m,735,6,1,32016.400000095367,672370.6999998093,9038,ATS,C,13
10,test,3,C,mfborder.png,1,z,Mon Dec 01 2025 11:08:28 GMT-0500 (Eastern Standard Time),706753.7999999523,CFD-BF-042-031-HC.jpg,1700,dash,I,z,649,1,1,34383.10000014305,672370.6999998093,9038,ATS,C,14
11,test,3,C,haborder.png,1,m,Mon Dec 01 2025 11:08:28 GMT-0500 (Eastern Standard Time),709403.6999998093,CFD-BF-019-004-HC.jpg,1600,solid,I,m,1005,10,1,37033.0,672370.6999998093,9038,ATS,C,15
12,test,3,C,mfborder.png,1,m,Mon Dec 01 2025 11:08:28 GMT-0500 (Eastern Standard Time),711620.399999857,CFD-BM-022-004-HC.jpg,1200,dash,I,m,979,6,1,39249.700000047684,672370.6999998093,9038,ATS,C,16
13,test,3,C,mfborder.png,1,m,Mon Dec 01 2025 11:08:28 GMT-0500 (Eastern Standard Time),714403.6999998093,CFD-WM-034-040-A.jpg,2000,dash,I,m,763,5,1,42033.0,672370.6999998093,9038,ATS,C,17
14,test,3,C,mfborder.png,1,m,Mon Dec 01 2025 11:08:28 GMT-0500 (Eastern Standard Time),716187.0999999046,CFD-WM-035-036-HC.jpg,1000,dash,I,m,756,4,1,43816.40000009537,672370.6999998093,9038,ATS,C,18
15,test,3,C,haborder.png,1,m,Mon Dec 01 2025 11:08:28 GMT-0500 (Eastern Standard Time),718187.1999998093,CFD-WF-013-009-HC.jpg,1000,solid,I,m,956,12,1,45816.5,672370.6999998093,9038,ATS,C,19
15,test,3,C,haborder.png,0,z,Mon Dec 01 2025 11:08:28 GMT-0500 (Eastern Standard Time),720970.399999857,CFD-BM-043-014-A.jpg,1900,solid,I,m,857,8,1,48599.700000047684,672370.6999998093,9038,ATS,C,20
15,test,3,C,haborder.png,0,m,Mon Dec 01 2025 11:08:28 GMT-0500 (Eastern Standard Time),723220.2999999523,CFD-BF-019-004-HC.jpg,1600,solid,I,z,613,10,1,50849.60000014305,672370.6999998093,9038,ATS,C,21
15,test,3,C,mfborder.png,0,z,Mon Dec 01 2025 11:08:28 GMT-0500 (Eastern Standard Time),726454.0999999046,CFD-BF-042-031-HC.jpg,1700,dash,I,None,1516,1,1,54083.40000009537,672370.6999998093,9038,ATS,C,22
15,test,3,C,haborder.png,0,z,Mon Dec 01 2025 11:08:28 GMT-0500 (Eastern Standard Time),729387.0999999046,CFD-WM-036-018-A.jpg,1400,solid,I,None,1516,7,1,57016.40000009537,672370.6999998093,9038,ATS,C,23
15,test,3,C,haborder.png,0,z,Mon Dec 01 2025 11:08:28 GMT-0500 (Eastern Standard Time),732637.1999998093,CFD-BM-021-026-A.jpg,1700,solid,I,None,1516,9,1,60266.5,672370.6999998093,9038,ATS,C,24
1,test,4,C,mfborder.png,1,m,Mon Dec 01 2025 11:08:28 GMT-0500 (Eastern Standard Time),746037.2999999523,CFD-BM-043-014-A.jpg,2000,dash,I,m,862,5,1,2883.4000000953674,743153.899999857,9038,ATS,C,1
2,test,4,C,haborder.png,1,m,Mon Dec 01 2025 11:08:28 GMT-0500 (Eastern Standard Time),748570.1999998093,CFD-WM-028-005-HC.jpg,1500,solid,I,m,1007,11,1,5416.299999952316,743153.899999857,9038,ATS,C,2
3,test,4,C,mfborder.png,1,z,Mon Dec 01 2025 11:08:28 GMT-0500 (Eastern Standard Time),751203.7999999523,CFD-WF-013-009-HC.jpg,1700,dash,I,z,897,1,1,8049.900000095367,743153.899999857,9038,ATS,C,3
4,test,4,C,mfborder.png,1,z,Mon Dec 01 2025 11:08:28 GMT-0500 (Eastern Standard Time),754420.399999857,CFD-WF-013-009-HC.jpg,1700,dash,I,z,1496,1,1,11266.5,743153.899999857,9038,ATS,C,4
4,test,4,C,haborder.png,0,z,Mon Dec 01 2025 11:08:28 GMT-0500 (Eastern Standard Time),757137.2999999523,CFD-BF-031-020-A.jpg,1400,solid,I,m,1299,7,1,13983.400000095367,743153.899999857,9038,ATS,C,5
5,test,4,C,mfborder.png,1,m,Mon Dec 01 2025 11:08:28 GMT-0500 (Eastern Standard Time),758920.2999999523,CFD-BM-034-035-HC.jpg,1000,dash,I,m,759,4,1,15766.400000095367,743153.899999857,9038,ATS,C,6
6,test,4,C,mfborder.png,1,z,Mon Dec 01 2025 11:08:28 GMT-0500 (Eastern Standard Time),761653.5999999046,CFD-WF-023-013-A.jpg,1600,dash,I,z,1095,2,1,18499.700000047684,743153.899999857,9038,ATS,C,7
7,test,4,C,mfborder.png,1,m,Mon Dec 01 2025 11:08:28 GMT-0500 (Eastern Standard Time),763787.0999999046,CFD-WM-036-018-A.jpg,1200,dash,I,m,906,6,1,20633.200000047684,743153.899999857,9038,ATS,C,8
8,test,4,C,mfborder.png,1,z,Mon Dec 01 2025 11:08:28 GMT-0500 (Eastern Standard Time),766320.399999857,CFD-WF-023-013-A.jpg,1600,dash,I,z,901,2,1,23166.5,743153.899999857,9038,ATS,C,9
9,test,4,C,haborder.png,1,m,Mon Dec 01 2025 11:08:28 GMT-0500 (Eastern Standard Time),768803.6999998093,CFD-WM-028-005-HC.jpg,1500,solid,I,m,947,11,1,25649.799999952316,743153.899999857,9038,ATS,C,10
10,test,4,C,mfborder.png,1,z,Mon Dec 01 2025 11:08:28 GMT-0500 (Eastern Standard Time),771053.5999999046,CFD-BF-019-004-HC.jpg,1500,dash,I,z,720,3,1,27899.700000047684,743153.899999857,9038,ATS,C,11
11,test,4,C,haborder.png,1,m,Mon Dec 01 2025 11:08:28 GMT-0500 (Eastern Standard Time),772887.0999999046,CFD-WM-028-005-HC.jpg,1000,solid,I,m,793,12,1,29733.200000047684,743153.899999857,9038,ATS,C,12
12,test,4,C,haborder.png,1,m,Mon Dec 01 2025 11:08:28 GMT-0500 (Eastern Standard Time),775737.0,CFD-BM-022-004-HC.jpg,1600,solid,I,m,1225,10,1,32583.10000014305,743153.899999857,9038,ATS,C,13
13,test,4,C,mfborder.png,1,z,Mon Dec 01 2025 11:08:28 GMT-0500 (Eastern Standard Time),778153.6999998093,CFD-BF-019-004-HC.jpg,1500,dash,I,z,874,3,1,34999.799999952316,743153.899999857,9038,ATS,C,14
13,test,4,C,haborder.png,0,z,Mon Dec 01 2025 11:08:28 GMT-0500 (Eastern Standard Time),780953.6999998093,CFD-BF-031-020-A.jpg,1400,solid,I,m,1374,7,1,37799.799999952316,743153.899999857,9038,ATS,C,15
14,test,4,C,mfborder.png,1,m,Mon Dec 01 2025 11:08:28 GMT-0500 (Eastern Standard Time),784087.0,CFD-BM-043-014-A.jpg,2000,dash,I,m,1093,5,1,40933.10000014305,743153.899999857,9038,ATS,C,16
15,test,4,C,mfborder.png,1,m,Mon Dec 01 2025 11:08:28 GMT-0500 (Eastern Standard Time),785937.399999857,CFD-WM-036-018-A.jpg,1200,dash,I,m,633,6,1,42783.5,743153.899999857,9038,ATS,C,17
16,test,4,C,haborder.png,1,z,Mon Dec 01 2025 11:08:28 GMT-0500 (Eastern Standard Time),788828.7999999523,CFD-BF-002-018-A.jpg,1900,solid,I,z,963,8,1,45674.90000009537,743153.899999857,9038,ATS,C,18
16,test,4,C,haborder.png,0,m,Mon Dec 01 2025 11:08:28 GMT-0500 (Eastern Standard Time),791953.899999857,CFD-BM-022-004-HC.jpg,1600,solid,I,None,1516,10,1,48800.0,743153.899999857,9038,ATS,C,19
17,test,4,C,haborder.png,1,z,Mon Dec 01 2025 11:08:28 GMT-0500 (Eastern Standard Time),794670.399999857,CFD-BF-002-018-A.jpg,1900,solid,I,z,769,8,1,51516.5,743153.899999857,9038,ATS,C,20
18,test,4,C,haborder.png,1,z,Mon Dec 01 2025 11:08:28 GMT-0500 (Eastern Standard Time),797220.2999999523,CFD-WF-037-016-A.jpg,1700,solid,I,z,829,9,1,54066.40000009537,743153.899999857,9038,ATS,C,21
19,test,4,C,mfborder.png,1,m,Mon Dec 01 2025 11:08:28 GMT-0500 (Eastern Standard Time),799303.6999998093,CFD-BM-034-035-HC.jpg,1000,dash,I,m,1059,4,1,56149.799999952316,743153.899999857,9038,ATS,C,22
20,test,4,C,haborder.png,1,m,Mon Dec 01 2025 11:08:28 GMT-0500 (Eastern Standard Time),801136.6999998093,CFD-WM-028-005-HC.jpg,1000,solid,I,m,800,12,1,57982.799999952316,743153.899999857,9038,ATS,C,23
21,test,4,C,haborder.png,1,z,Mon Dec 01 2025 11:08:28 GMT-0500 (Eastern Standard Time),803620.2999999523,CFD-WF-037-016-A.jpg,1700,solid,I,z,763,9,1,60466.40000009537,743153.899999857,9038,ATS,C,24
