acc_sum,block,block_c,condition,correct,correct_response,datetime,endtime,flanker,jitter,project,response,response_test_buffer_response,response_test_target_response,response_time,response_time_test_buffer_response,response_time_test_target_response,row_sel,session_number,start_end,starttime,subject_id,target,task,task_vers,time_test_buffer,time_test_buffer_response,time_test_constants,time_test_flanker,time_test_jitter,time_test_logger,time_test_target,time_test_target_response,time_test_variables,trial
0,prac,1,con,0,z,Tue Apr 21 2026 17:24:56 GMT-0500 (Central Daylight Time),119695.5,love,1000,I,None,,,1799,,,11,3,5061.5999999940395,114633.90000000596,8076,love,AF,A,,,,,,,,,,1
1,prac,1,con,1,z,Tue Apr 21 2026 17:24:56 GMT-0500 (Central Daylight Time),122960.09999999404,brutal,800,I,z,,,1132,,,13,3,3258.5999999940395,119701.5,8076,brutal,AF,A,,,,,,,,,,2
2,prac,1,inc,1,m,Tue Apr 21 2026 17:24:56 GMT-0500 (Central Daylight Time),125759.30000001192,elated,900,I,m,,,583,,,6,3,2794.7000000178814,122964.59999999404,8076,napkin,AF,A,,,,,,,,,,3
3,prac,1,inc,1,z,Tue Apr 21 2026 17:24:56 GMT-0500 (Central Daylight Time),128591.59999999404,rock,900,I,z,,,624,,,10,3,2827.899999976158,125763.70000001788,8076,kind,AF,A,,,,,,,,,,4
4,prac,1,inc,1,z,Tue Apr 21 2026 17:24:56 GMT-0500 (Central Daylight Time),131390.80000001192,film,900,I,z,,,591,,,14,3,2794.5999999940395,128596.20000001788,8076,hate,AF,A,,,,,,,,,,5
5,prac,1,inc,1,z,Tue Apr 21 2026 17:24:56 GMT-0500 (Central Daylight Time),134439.80000001192,napkin,1100,I,z,,,648,,,12,3,3044.5,131395.30000001192,8076,friend,AF,A,,,,,,,,,,6
6,prac,1,con,1,m,Tue Apr 21 2026 17:24:56 GMT-0500 (Central Daylight Time),137605.40000000596,remote,1000,I,m,,,852,,,7,3,3160.5999999940395,134444.80000001192,8076,remote,AF,A,,,,,,,,,,7
7,prac,1,inc,1,m,Tue Apr 21 2026 17:24:56 GMT-0500 (Central Daylight Time),140604.30000001192,brutal,1100,I,m,,,587,,,8,3,2994.2000000178814,137610.09999999404,8076,window,AF,A,,,,,,,,,,8
8,prac,1,con,1,m,Tue Apr 21 2026 17:24:56 GMT-0500 (Central Daylight Time),143988.09999999404,bell,1000,I,m,,,1023,,,3,3,3379.199999988079,140608.90000000596,8076,bell,AF,A,,,,,,,,,,9
9,prac,1,inc,1,m,Tue Apr 21 2026 17:24:56 GMT-0500 (Central Daylight Time),147102.40000000596,hate,1100,I,m,,,709,,,4,3,3109.5,143992.90000000596,8076,film,AF,A,,,,,,,,,,10
10,prac,1,con,1,m,Tue Apr 21 2026 17:24:56 GMT-0500 (Central Daylight Time),149718.09999999404,step,800,I,m,,,509,,,1,3,2610.899999976158,147107.20000001788,8076,step,AF,A,,,,,,,,,,11
11,prac,1,con,1,z,Tue Apr 21 2026 17:24:56 GMT-0500 (Central Daylight Time),152584.20000001788,elated,800,I,z,,,749,,,9,3,2862.0,149722.20000001788,8076,elated,AF,A,,,,,,,,,,12
12,prac,1,con,1,z,Tue Apr 21 2026 17:24:56 GMT-0500 (Central Daylight Time),155299.80000001192,rage,1000,I,z,,,404,,,15,3,2711.2000000178814,152588.59999999404,8076,rage,AF,A,,,,,,,,,,13
13,prac,1,inc,1,z,Tue Apr 21 2026 17:24:56 GMT-0500 (Central Daylight Time),158398.70000001788,window,1100,I,z,,,692,,,16,3,3094.7000000178814,155304.0,8076,temper,AF,A,,,,,,,,,,14
14,prac,1,inc,1,m,Tue Apr 21 2026 17:24:56 GMT-0500 (Central Daylight Time),161231.20000001788,kind,900,I,m,,,617,,,2,3,2828.4000000059605,158402.80000001192,8076,rock,AF,A,,,,,,,,,,15
15,prac,1,con,1,m,Tue Apr 21 2026 17:24:56 GMT-0500 (Central Daylight Time),163780.59999999404,jacket,800,I,m,,,437,,,5,3,2545.5,161235.09999999404,8076,jacket,AF,A,,,,,,,,,,16
1,test,1,con,1,z,Tue Apr 21 2026 17:24:56 GMT-0500 (Central Daylight Time),181058.20000001788,friend,1100,I,z,z,None,465,265.0,200.0,28,3,2095.800000011921,178962.40000000596,8076,friend,AF,A,178110,178110,176280,177394,176281,178376,177910,177910,178376,1
2,test,1,con,1,z,Tue Apr 21 2026 17:24:56 GMT-0500 (Central Daylight Time),182924.59999999404,elated,900,I,z,z,None,420,221.0,199.0,2,3,1861.5,181063.09999999404,8076,elated,AF,A,180010,180010,178381,179293,178381,180243,179810,179810,180243,2
3,test,1,con,1,m,Tue Apr 21 2026 17:24:56 GMT-0500 (Central Daylight Time),184907.20000001788,rock,1000,I,m,m,None,438,239.0,199.0,75,3,1978.4000000059605,182928.80000001192,8076,rock,AF,A,181976,181976,180247,181259,180247,182225,181776,181776,182225,3
4,test,1,con,1,m,Tue Apr 21 2026 17:24:56 GMT-0500 (Central Daylight Time),186873.09999999404,jacket,1000,I,m,m,None,433,233.0,200.0,99,3,1961.8999999761581,184911.20000001788,8076,jacket,AF,A,183958,183958,182229,183242,182230,184191,183758,183758,184191,4
5,test,1,inc,1,m,Tue Apr 21 2026 17:24:56 GMT-0500 (Central Daylight Time),188855.80000001192,rage,800,I,m,m,None,641,441.0,200.0,77,3,1978.5999999940395,186877.20000001788,8076,rock,AF,A,185726,185726,184195,185008,184196,186174,185525,185525,186174,5
6,test,1,inc,1,z,Tue Apr 21 2026 17:24:56 GMT-0500 (Central Daylight Time),191281.20000001788,film,1100,I,z,z,None,645,446.0,199.0,16,3,2421.300000011921,188859.90000000596,8076,kind,AF,A,188007,188007,186178,187291,186178,188599,187808,187808,188599,6
7,test,1,inc,1,m,Tue Apr 21 2026 17:24:56 GMT-0500 (Central Daylight Time),193272.30000001192,brutal,900,I,m,m,None,560,360.0,200.0,110,3,1986.800000011921,191285.5,8076,napkin,AF,A,190223,190223,188603,189507,188604,190590,190023,190023,190590,7
8,test,1,con,1,z,Tue Apr 21 2026 17:24:56 GMT-0500 (Central Daylight Time),195203.90000000596,kind,800,I,z,z,None,595,396.0,199.0,9,3,1927.199999988079,193276.70000001788,8076,kind,AF,A,192123,192123,190595,191406,190595,192522,191922,191923,192522,8
9,test,1,inc,1,z,Tue Apr 21 2026 17:24:56 GMT-0500 (Central Daylight Time),197203.30000001192,step,800,I,z,z,None,656,456.0,200.0,45,3,1995.5,195207.80000001192,8076,hate,AF,A,194055,194055,192526,193339,192526,194521,193855,193855,194521,9
10,test,1,con,1,m,Tue Apr 21 2026 17:24:56 GMT-0500 (Central Daylight Time),199169.20000001788,window,900,I,m,m,None,531,332.0,199.0,122,3,1961.800000011921,197207.40000000596,8076,window,AF,A,196155,196155,194525,195438,194526,196487,195955,195955,196487,10
11,test,1,con,1,m,Tue Apr 21 2026 17:24:56 GMT-0500 (Central Daylight Time),201068.80000001192,bell,900,I,m,m,None,454,254.0,200.0,82,3,1895.4000000059605,199173.40000000596,8076,bell,AF,A,198121,198121,196491,197404,196492,198387,197920,197920,198387,11
12,test,1,con,1,m,Tue Apr 21 2026 17:24:56 GMT-0500 (Central Daylight Time),203318.20000001788,remote,1000,I,m,m,None,703,503.0,200.0,115,3,2245.4000000059605,201072.80000001192,8076,remote,AF,A,200120,200120,198391,199403,198391,200636,199920,199920,200636,12
13,test,1,inc,1,z,Tue Apr 21 2026 17:24:56 GMT-0500 (Central Daylight Time),205417.70000001788,rock,900,I,z,z,None,666,466.0,200.0,54,3,2095.0,203322.70000001788,8076,rage,AF,A,202269,202270,200641,201553,200641,202736,202069,202069,202736,13
14,test,1,inc,1,z,Tue Apr 21 2026 17:24:56 GMT-0500 (Central Daylight Time),207266.80000001192,step,800,I,z,z,None,505,306.0,199.0,21,3,1845.2000000178814,205421.59999999404,8076,love,AF,A,204269,204269,202740,203552,202740,204585,204069,204069,204585,14
15,test,1,con,1,z,Tue Apr 21 2026 17:24:56 GMT-0500 (Central Daylight Time),209415.90000000596,hate,1000,I,z,z,None,609,409.0,200.0,43,3,2145.4000000059605,207270.5,8076,hate,AF,A,206318,206318,204589,205601,204589,206734,206118,206118,206734,15
16,test,1,inc,1,z,Tue Apr 21 2026 17:24:56 GMT-0500 (Central Daylight Time),211498.90000000596,bell,1000,I,z,z,None,540,341.0,199.0,15,3,2078.4000000059605,209420.5,8076,kind,AF,A,208467,208467,206739,207751,206739,208817,208267,208268,208817,16
17,test,1,con,1,z,Tue Apr 21 2026 17:24:56 GMT-0500 (Central Daylight Time),213681.5,love,1100,I,z,z,None,541,341.0,200.0,20,3,2178.699999988079,211502.80000001192,8076,love,AF,A,210650,210650,208821,209934,208821,211000,210450,210450,211000,17
18,test,1,con,1,z,Tue Apr 21 2026 17:24:56 GMT-0500 (Central Daylight Time),215614.30000001192,hate,800,I,z,z,None,586,386.0,200.0,41,3,1928.7000000178814,213685.59999999404,8076,hate,AF,A,212533,212533,211004,211816,211004,212932,212333,212333,212932,18
19,test,1,con,1,m,Tue Apr 21 2026 17:24:56 GMT-0500 (Central Daylight Time),217813.5,rock,1100,I,m,m,None,561,361.0,200.0,76,3,2195.4000000059605,215618.09999999404,8076,rock,AF,A,214765,214766,212936,214049,212936,215132,214565,214565,215132,19
19,test,1,con,0,z,Tue Apr 21 2026 17:24:56 GMT-0500 (Central Daylight Time),219829.80000001192,love,1000,I,m,m,None,470,271.0,199.0,19,3,2012.4000000059605,217817.40000000596,8076,love,AF,A,216865,216865,215135,216148,215136,217148,216665,216665,217148,20
20,test,1,con,1,z,Tue Apr 21 2026 17:24:56 GMT-0500 (Central Daylight Time),222028.90000000596,kind,1100,I,z,z,None,554,354.0,200.0,12,3,2195.0,219833.90000000596,8076,kind,AF,A,218981,218981,217152,218264,217152,219347,218781,218781,219347,21
21,test,1,inc,1,m,Tue Apr 21 2026 17:24:56 GMT-0500 (Central Daylight Time),224345.0,friend,1100,I,m,m,None,675,475.0,200.0,104,3,2311.0999999940395,222033.90000000596,8076,jacket,AF,A,221180,221180,219352,220464,219352,221663,220980,220980,221663,22
22,test,1,inc,1,m,Tue Apr 21 2026 17:24:56 GMT-0500 (Central Daylight Time),226477.5,hate,1100,I,m,m,None,494,295.0,199.0,80,3,2128.5,224349.0,8076,rock,AF,A,223496,223496,221667,222780,221667,223796,223296,223296,223796,23
23,test,1,inc,1,z,Tue Apr 21 2026 17:24:56 GMT-0500 (Central Daylight Time),228860.0,remote,1000,I,z,z,None,846,647.0,199.0,39,3,2378.4000000059605,226481.59999999404,8076,brutal,AF,A,225528,225528,223800,224812,223800,226178,225329,225329,226178,24
24,test,1,con,1,z,Tue Apr 21 2026 17:24:56 GMT-0500 (Central Daylight Time),230909.59999999404,kind,1000,I,z,z,None,503,304.0,199.0,11,3,2046.0,228863.59999999404,8076,kind,AF,A,227911,227911,226182,227196,226182,228228,227711,227711,228228,25
25,test,1,inc,1,m,Tue Apr 21 2026 17:24:56 GMT-0500 (Central Daylight Time),232942.0,kind,900,I,m,m,None,585,386.0,199.0,78,3,2028.5,230913.5,8076,rock,AF,A,229861,229861,228232,229145,228232,230260,229661,229661,230260,26
26,test,1,inc,1,z,Tue Apr 21 2026 17:24:56 GMT-0500 (Central Daylight Time),235175.0,window,1100,I,z,z,None,595,395.0,200.0,8,3,2229.4000000059605,232945.59999999404,8076,elated,AF,A,232093,232093,230264,231377,230264,232493,231893,231893,232493,27
27,test,1,inc,1,z,Tue Apr 21 2026 17:24:56 GMT-0500 (Central Daylight Time),237290.80000001192,remote,1000,I,z,z,None,581,381.0,200.0,31,3,2111.7000000178814,235179.09999999404,8076,friend,AF,A,234226,234226,232497,233510,232497,234609,234026,234026,234609,28
28,test,1,inc,1,z,Tue Apr 21 2026 17:24:56 GMT-0500 (Central Daylight Time),239356.80000001192,napkin,900,I,z,z,None,571,371.0,200.0,6,3,2062.2000000178814,237294.59999999404,8076,elated,AF,A,236292,236292,234613,235588,234613,236675,236092,236092,236675,29
29,test,1,con,1,z,Tue Apr 21 2026 17:24:56 GMT-0500 (Central Daylight Time),241639.5,rage,1000,I,z,z,None,734,534.0,200.0,51,3,2278.7999999821186,239360.70000001788,8076,rage,AF,A,238408,238408,236679,237691,236679,238958,238208,238208,238958,30
30,test,1,con,1,m,Tue Apr 21 2026 17:24:56 GMT-0500 (Central Daylight Time),243888.90000000596,jacket,1100,I,m,m,None,623,408.0,215.0,100,3,2244.800000011921,241644.09999999404,8076,jacket,AF,A,240791,240791,238962,240074,238962,241207,240575,240575,241207,31
31,test,1,inc,1,z,Tue Apr 21 2026 17:24:56 GMT-0500 (Central Daylight Time),246071.5,window,1100,I,z,z,None,542,343.0,199.0,32,3,2178.7999999821186,243892.70000001788,8076,friend,AF,A,243040,243040,241211,242323,241211,243390,242840,242840,243389,32
32,test,1,con,1,z,Tue Apr 21 2026 17:24:56 GMT-0500 (Central Daylight Time),248120.59999999404,rage,900,I,z,z,None,616,417.0,199.0,50,3,2045.0999999940395,246075.5,8076,rage,AF,A,245006,245006,243394,244306,243394,245439,244807,244807,245439,33
33,test,1,con,1,m,Tue Apr 21 2026 17:24:56 GMT-0500 (Central Daylight Time),250203.40000000596,window,1100,I,m,m,None,447,246.0,201.0,124,3,2079.300000011921,248124.09999999404,8076,window,AF,A,247273,247273,245442,246555,245442,247522,247072,247072,247521,34
34,test,1,inc,1,m,Tue Apr 21 2026 17:24:56 GMT-0500 (Central Daylight Time),252052.90000000596,elated,800,I,m,m,None,512,313.0,199.0,109,3,1845.5,250207.40000000596,8076,napkin,AF,A,249054,249054,247525,248338,247526,249371,248855,248855,249371,35
35,test,1,inc,1,z,Tue Apr 21 2026 17:24:56 GMT-0500 (Central Daylight Time),254235.59999999404,jacket,800,I,z,z,None,839,639.0,200.0,61,3,2179.0999999940395,252056.5,8076,temper,AF,A,250904,250904,249374,250188,249375,251554,250704,250704,251554,36
36,test,1,con,1,m,Tue Apr 21 2026 17:24:56 GMT-0500 (Central Daylight Time),256384.80000001192,jacket,800,I,m,m,None,800,601.0,199.0,97,3,2145.5,254239.30000001192,8076,jacket,AF,A,253086,253086,251557,252371,251558,253703,252887,252887,253703,37
37,test,1,con,1,m,Tue Apr 21 2026 17:24:56 GMT-0500 (Central Daylight Time),258318.59999999404,remote,900,I,m,m,None,495,295.0,200.0,114,3,1929.7999999821186,256388.80000001192,8076,remote,AF,A,255336,255336,253707,254619,253707,255637,255136,255136,255637,38
38,test,1,con,1,z,Tue Apr 21 2026 17:24:56 GMT-0500 (Central Daylight Time),260333.80000001192,hate,900,I,z,z,None,569,370.0,199.0,42,3,2011.5999999940395,258322.20000001788,8076,hate,AF,A,257269,257269,255640,256552,255640,257652,257069,257069,257652,39
39,test,1,inc,1,z,Tue Apr 21 2026 17:24:56 GMT-0500 (Central Daylight Time),262482.90000000596,rock,900,I,z,z,None,640,435.0,205.0,14,3,2145.0999999940395,260337.80000001192,8076,kind,AF,A,259356,259356,257656,258568,257656,259801,259149,259149,259801,40
40,test,1,inc,1,z,Tue Apr 21 2026 17:24:56 GMT-0500 (Central Daylight Time),264532.5,napkin,900,I,z,z,None,613,413.0,200.0,62,3,2044.7999999821186,262487.7000000179,8076,temper,AF,A,261434,261434,259806,260718,259806,261851,261234,261234,261850,41
41,test,1,inc,1,z,Tue Apr 21 2026 17:24:56 GMT-0500 (Central Daylight Time),266598.5,remote,1000,I,z,z,None,521,321.0,200.0,7,3,2062.0,264536.5,8076,elated,AF,A,263583,263583,261855,262867,261855,263917,263383,263383,263917,42
42,test,1,con,1,m,Tue Apr 21 2026 17:24:56 GMT-0500 (Central Daylight Time),268664.40000000596,napkin,1000,I,m,m,None,541,326.0,215.0,107,3,2062.0,266602.40000000596,8076,napkin,AF,A,265649,265649,263920,264933,263921,265982,265434,265434,265982,43
43,test,1,con,1,z,Tue Apr 21 2026 17:24:56 GMT-0500 (Central Daylight Time),271146.8000000119,friend,1000,I,z,z,None,948,748.0,200.0,27,3,2479.0,268667.8000000119,8076,friend,AF,A,267715,267715,265986,267000,265986,268465,267515,267515,268465,44
44,test,1,inc,1,z,Tue Apr 21 2026 17:24:56 GMT-0500 (Central Daylight Time),273396.09999999404,film,1100,I,z,z,None,613,413.0,200.0,48,3,2245.5999999940395,271150.5,8076,hate,AF,A,270298,270298,268469,269582,268469,270714,270098,270098,270714,45
45,test,1,inc,1,m,Tue Apr 21 2026 17:24:56 GMT-0500 (Central Daylight Time),275662.0,friend,1100,I,m,m,None,628,428.0,200.0,112,3,2262.2999999821186,273399.7000000179,8076,napkin,AF,A,272547,272547,270718,271831,270718,272980,272347,272347,272980,46
46,test,1,inc,1,z,Tue Apr 21 2026 17:24:56 GMT-0500 (Central Daylight Time),277844.8000000119,film,1100,I,z,z,None,547,347.0,200.0,24,3,2179.0,275665.8000000119,8076,love,AF,A,274813,274813,272984,274097,272984,275163,274613,274613,275163,47
47,test,1,con,1,z,Tue Apr 21 2026 17:24:56 GMT-0500 (Central Daylight Time),279977.59999999404,brutal,900,I,z,z,None,691,492.0,199.0,34,3,2129.0999999940395,277848.5,8076,brutal,AF,A,276796,276796,275167,276079,275167,277296,276596,276596,277296,48
48,test,1,inc,1,z,Tue Apr 21 2026 17:24:56 GMT-0500 (Central Daylight Time),282076.90000000596,jacket,800,I,z,z,None,755,555.0,200.0,29,3,2095.800000011921,279981.09999999404,8076,friend,AF,A,278828,278828,277299,278112,277299,279395,278628,278628,279395,49
49,test,1,con,1,z,Tue Apr 21 2026 17:24:56 GMT-0500 (Central Daylight Time),284293.0,brutal,1000,I,z,z,None,671,471.0,200.0,35,3,2212.5,282080.5,8076,brutal,AF,A,281128,281128,279399,280411,279399,281611,280928,280928,281611,50
50,test,1,con,1,m,Tue Apr 21 2026 17:24:56 GMT-0500 (Central Daylight Time),286492.2000000179,window,1000,I,m,m,None,522,322.0,200.0,123,3,2195.5,284296.7000000179,8076,window,AF,A,283477,283477,281615,282764,281615,283810,283277,283277,283810,51
51,test,1,con,1,m,Tue Apr 21 2026 17:24:56 GMT-0500 (Central Daylight Time),288608.59999999404,step,1100,I,m,m,None,468,268.0,200.0,68,3,2112.699999988079,286495.90000000596,8076,step,AF,A,285643,285643,283814,284927,283814,285927,285443,285443,285927,52
52,test,1,con,1,m,Tue Apr 21 2026 17:24:56 GMT-0500 (Central Daylight Time),290490.40000000596,napkin,900,I,m,m,None,448,248.0,200.0,106,3,1877.800000011921,288612.59999999404,8076,napkin,AF,A,287559,287559,285931,286844,285931,287808,287359,287359,287808,53
53,test,1,inc,1,m,Tue Apr 21 2026 17:24:56 GMT-0500 (Central Daylight Time),292590.3000000119,temper,1000,I,m,m,None,562,362.0,200.0,103,3,2096.300000011921,290494.0,8076,jacket,AF,A,289542,289542,287812,288825,287812,289908,289342,289342,289908,54
54,test,1,inc,1,z,Tue Apr 21 2026 17:24:56 GMT-0500 (Central Daylight Time),294706.2000000179,bell,1000,I,z,z,None,574,373.0,201.0,47,3,2112.100000023842,292594.09999999404,8076,hate,AF,A,291642,291642,289912,290925,289912,292024,291441,291441,292024,55
55,test,1,inc,1,z,Tue Apr 21 2026 17:24:56 GMT-0500 (Central Daylight Time),296706.09999999404,jacket,800,I,z,z,None,658,458.0,200.0,37,3,1996.0,294710.09999999404,8076,brutal,AF,A,293557,293557,292028,292841,292028,294024,293357,293357,294024,56
56,test,1,inc,1,m,Tue Apr 21 2026 17:24:56 GMT-0500 (Central Daylight Time),299021.3000000119,friend,1100,I,m,m,None,686,487.0,199.0,120,3,2311.5,296709.8000000119,8076,remote,AF,A,295840,295840,294028,295140,294028,296339,295641,295641,296339,57
57,test,1,inc,1,m,Tue Apr 21 2026 17:24:56 GMT-0500 (Central Daylight Time),301304.09999999404,temper,1000,I,m,m,None,741,542.0,199.0,119,3,2278.899999976158,299025.2000000179,8076,remote,AF,A,298073,298073,296343,297357,296344,298622,297873,297873,298622,58
58,test,1,inc,1,m,Tue Apr 21 2026 17:24:56 GMT-0500 (Central Daylight Time),303587.59999999404,hate,1100,I,m,m,None,664,465.0,199.0,96,3,2279.7999999821186,301307.8000000119,8076,film,AF,A,300438,300438,298626,299738,298626,300906,300239,300239,300906,59
59,test,1,inc,1,m,Tue Apr 21 2026 17:24:56 GMT-0500 (Central Daylight Time),305502.90000000596,brutal,900,I,m,m,None,469,269.0,200.0,102,3,1911.300000011921,303591.59999999404,8076,jacket,AF,A,302538,302538,300910,301821,300910,302821,302338,302338,302821,60
60,test,1,inc,1,z,Tue Apr 21 2026 17:24:56 GMT-0500 (Central Daylight Time),307752.09999999404,window,1100,I,z,z,None,601,400.0,201.0,40,3,2245.399999976158,305506.7000000179,8076,brutal,AF,A,304655,304655,302825,303937,302825,305070,304454,304454,305070,61
61,test,1,con,1,m,Tue Apr 21 2026 17:24:56 GMT-0500 (Central Daylight Time),309868.2000000179,rock,800,I,m,m,None,714,505.0,209.0,73,3,2111.9000000059605,307756.3000000119,8076,rock,AF,A,306670,306670,305074,305888,305075,307186,306461,306461,307186,62
62,test,1,inc,1,z,Tue Apr 21 2026 17:24:56 GMT-0500 (Central Daylight Time),311950.8000000119,bell,1000,I,z,z,None,544,344.0,200.0,55,3,2078.800000011921,309872.0,8076,rage,AF,A,308919,308919,307190,308203,307190,309269,308719,308719,309269,63
63,test,1,con,1,z,Tue Apr 21 2026 17:24:56 GMT-0500 (Central Daylight Time),313967.09999999404,kind,900,I,z,z,None,577,377.0,200.0,10,3,2012.5999999940395,311954.5,8076,kind,AF,A,310902,310902,309273,310185,309273,311285,310702,310702,311285,64
64,test,1,inc,1,z,Tue Apr 21 2026 17:24:56 GMT-0500 (Central Daylight Time),316065.90000000596,remote,1000,I,z,z,None,564,365.0,199.0,63,3,2095.0,313970.90000000596,8076,temper,AF,A,313018,313018,311289,312301,311289,313384,312818,312818,313384,65
65,test,1,inc,1,m,Tue Apr 21 2026 17:24:56 GMT-0500 (Central Daylight Time),318015.5,rage,800,I,m,m,None,602,402.0,200.0,69,3,1946.0999999940395,316069.40000000596,8076,step,AF,A,314917,314917,313387,314202,313388,315334,314717,314717,315334,66
66,test,1,inc,1,z,Tue Apr 21 2026 17:24:56 GMT-0500 (Central Daylight Time),320065.0,napkin,900,I,z,z,None,600,400.0,200.0,38,3,2045.9000000059605,318019.09999999404,8076,brutal,AF,A,316966,316967,315337,316251,315337,317383,316766,316766,317383,67
67,test,1,inc,1,z,Tue Apr 21 2026 17:24:56 GMT-0500 (Central Daylight Time),322547.09999999404,napkin,900,I,z,z,None,1046,846.0,200.0,30,3,2478.0,320069.09999999404,8076,friend,AF,A,319016,319016,317387,318300,317387,319865,318816,318816,319865,68
68,test,1,con,1,m,Tue Apr 21 2026 17:24:56 GMT-0500 (Central Daylight Time),324596.7000000179,bell,800,I,m,m,None,704,504.0,200.0,81,3,2045.5,322551.2000000179,8076,bell,AF,A,321399,321399,319869,320682,319870,321915,321198,321198,321915,69
69,test,1,inc,1,m,Tue Apr 21 2026 17:24:56 GMT-0500 (Central Daylight Time),326629.5,kind,900,I,m,m,None,595,395.0,200.0,70,3,2029.2999999821186,324600.2000000179,8076,step,AF,A,323548,323548,321918,322831,321919,323948,323348,323348,323948,70
70,test,1,con,1,m,Tue Apr 21 2026 17:24:56 GMT-0500 (Central Daylight Time),328628.59999999404,napkin,800,I,m,m,None,653,454.0,199.0,105,3,1995.5,326633.09999999404,8076,napkin,AF,A,325481,325481,323951,324764,323951,325947,325281,325281,325947,71
71,test,1,con,1,m,Tue Apr 21 2026 17:24:56 GMT-0500 (Central Daylight Time),330961.0,remote,1100,I,m,m,None,682,483.0,199.0,116,3,2327.7999999821186,328633.2000000179,8076,remote,AF,A,327780,327780,325951,327064,325952,328279,327580,327580,328279,72
72,test,1,inc,1,m,Tue Apr 21 2026 17:24:56 GMT-0500 (Central Daylight Time),333177.3000000119,love,1000,I,m,m,None,611,408.0,203.0,79,3,2212.0999999940395,330965.2000000179,8076,rock,AF,A,330079,330079,328283,329296,328284,330496,329876,329876,330495,73
73,test,1,inc,1,m,Tue Apr 21 2026 17:24:56 GMT-0500 (Central Daylight Time),335193.2000000179,brutal,900,I,m,m,None,566,367.0,199.0,126,3,2012.2000000178814,333181.0,8076,window,AF,A,332128,332128,330499,331412,330499,332511,331929,331929,332511,74
74,test,1,inc,1,m,Tue Apr 21 2026 17:24:56 GMT-0500 (Central Daylight Time),337076.3000000119,elated,800,I,m,m,None,546,346.0,200.0,101,3,1879.5,335196.8000000119,8076,jacket,AF,A,334045,334045,332515,333328,332515,334394,333844,333844,334394,75
75,test,1,inc,1,m,Tue Apr 21 2026 17:24:56 GMT-0500 (Central Daylight Time),338958.90000000596,elated,800,I,m,m,None,536,336.0,200.0,125,3,1878.9000000059605,337080.0,8076,window,AF,A,335927,335927,334398,335211,334398,336277,335727,335727,336277,76
76,test,1,inc,1,m,Tue Apr 21 2026 17:24:56 GMT-0500 (Central Daylight Time),340841.40000000596,rage,800,I,m,m,None,548,349.0,199.0,85,3,1878.699999988079,338962.7000000179,8076,bell,AF,A,337810,337810,336281,337094,336281,338159,337611,337611,338159,77
77,test,1,con,1,m,Tue Apr 21 2026 17:24:56 GMT-0500 (Central Daylight Time),342824.5,jacket,900,I,m,m,None,533,334.0,199.0,98,3,1979.699999988079,340844.8000000119,8076,jacket,AF,A,339793,339793,338163,339076,338163,340143,339593,339593,340143,78
78,test,1,con,1,z,Tue Apr 21 2026 17:24:56 GMT-0500 (Central Daylight Time),344690.5,friend,900,I,z,z,None,431,231.0,200.0,26,3,1862.0999999940395,342828.40000000596,8076,friend,AF,A,341776,341776,340146,341059,340147,342009,341575,341575,342009,79
79,test,1,con,1,z,Tue Apr 21 2026 17:24:56 GMT-0500 (Central Daylight Time),347123.2000000179,temper,1100,I,z,z,None,790,590.0,200.0,60,3,2429.0,344694.2000000179,8076,temper,AF,A,343841,343841,342012,343125,342012,344441,343641,343641,344441,80
80,test,1,con,1,z,Tue Apr 21 2026 17:24:56 GMT-0500 (Central Daylight Time),349172.40000000596,elated,1100,I,z,z,None,405,205.0,200.0,4,3,2045.800000011921,347126.59999999404,8076,elated,AF,A,346274,346274,344445,345558,344445,346490,346074,346074,346490,81
81,test,1,inc,1,m,Tue Apr 21 2026 17:24:56 GMT-0500 (Central Daylight Time),351021.7000000179,elated,800,I,m,m,None,511,311.0,200.0,117,3,1845.7000000178814,349176.0,8076,remote,AF,A,348024,348024,346494,347307,346494,348340,347823,347823,348340,82
82,test,1,inc,1,m,Tue Apr 21 2026 17:24:56 GMT-0500 (Central Daylight Time),353037.7000000179,love,1000,I,m,m,None,478,278.0,200.0,87,3,2012.1000000238419,351025.59999999404,8076,bell,AF,A,350073,350073,348344,349357,348344,350356,349873,349873,350356,83
83,test,1,con,1,m,Tue Apr 21 2026 17:24:56 GMT-0500 (Central Daylight Time),354937.3000000119,film,900,I,m,m,None,466,266.0,200.0,90,3,1895.7000000178814,353041.59999999404,8076,film,AF,A,351989,351989,350360,351273,350360,352255,351789,351789,352255,84
84,test,1,con,1,m,Tue Apr 21 2026 17:24:56 GMT-0500 (Central Daylight Time),356986.7000000179,film,1100,I,m,m,None,415,215.0,200.0,92,3,2045.9000000059605,354940.8000000119,8076,film,AF,A,354088,354088,352259,353372,352259,354305,353888,353888,354305,85
85,test,1,inc,1,z,Tue Apr 21 2026 17:24:56 GMT-0500 (Central Daylight Time),358886.09999999404,step,800,I,z,z,None,561,361.0,200.0,13,3,1895.8999999761581,356990.2000000179,8076,kind,AF,A,355838,355838,354308,355122,354309,356204,355637,355638,356204,86
86,test,1,con,1,z,Tue Apr 21 2026 17:24:56 GMT-0500 (Central Daylight Time),361151.8000000119,elated,1000,I,z,z,None,717,517.0,200.0,3,3,2262.0999999940395,358889.7000000179,8076,elated,AF,A,357937,357937,356208,357221,356208,358470,357737,357737,358470,87
87,test,1,con,1,m,Tue Apr 21 2026 17:24:56 GMT-0500 (Central Daylight Time),363468.0,rock,900,I,m,m,None,881,681.0,200.0,74,3,2312.5,361155.5,8076,rock,AF,A,360103,360103,358474,359387,358474,360786,359903,359903,360786,88
88,test,1,inc,1,m,Tue Apr 21 2026 17:24:56 GMT-0500 (Central Daylight Time),365483.90000000596,love,1000,I,m,m,None,480,280.0,200.0,71,3,2011.699999988079,363472.2000000179,8076,step,AF,A,362519,362519,360790,361802,360790,362802,362319,362319,362802,89
89,test,1,inc,1,m,Tue Apr 21 2026 17:24:56 GMT-0500 (Central Daylight Time),367550.09999999404,kind,900,I,m,m,None,628,428.0,200.0,86,3,2062.0,365488.09999999404,8076,bell,AF,A,364435,364435,362806,363719,362806,364868,364235,364235,364868,90
90,test,1,inc,1,m,Tue Apr 21 2026 17:24:56 GMT-0500 (Central Daylight Time),369382.8000000119,rage,800,I,m,m,None,494,294.0,200.0,93,3,1829.0,367553.8000000119,8076,film,AF,A,366401,366401,364872,365685,364872,366701,366201,366201,366701,91
91,test,1,con,1,z,Tue Apr 21 2026 17:24:56 GMT-0500 (Central Daylight Time),371482.0,brutal,1100,I,z,z,None,465,265.0,200.0,36,3,2095.5999999940395,369386.40000000596,8076,brutal,AF,A,368534,368534,366704,367817,366705,368800,368334,368334,368800,92
92,test,1,con,1,m,Tue Apr 21 2026 17:24:56 GMT-0500 (Central Daylight Time),373764.8000000119,step,1000,I,m,m,None,746,546.0,200.0,67,3,2279.4000000059605,371485.40000000596,8076,step,AF,A,370533,370533,368803,369817,368804,371083,370333,370333,371083,93
93,test,1,con,1,m,Tue Apr 21 2026 17:24:56 GMT-0500 (Central Daylight Time),375647.3000000119,remote,800,I,m,m,None,543,343.0,200.0,113,3,1878.7000000178814,373768.59999999404,8076,remote,AF,A,372616,372616,371087,371899,371087,372965,372416,372416,372965,94
94,test,1,inc,1,z,Tue Apr 21 2026 17:24:56 GMT-0500 (Central Daylight Time),377930.09999999404,film,1100,I,z,z,None,640,440.0,200.0,56,3,2279.2999999821186,375650.8000000119,8076,rage,AF,A,374798,374799,372969,374082,372969,375248,374598,374598,375248,95
95,test,1,con,1,z,Tue Apr 21 2026 17:24:56 GMT-0500 (Central Daylight Time),380048.40000000596,temper,1000,I,z,z,None,578,265.0,313.0,59,3,2114.5999999940395,377933.8000000119,8076,temper,AF,A,377094,377094,375252,376265,375252,377367,376781,376781,377366,96
96,test,1,inc,1,m,Tue Apr 21 2026 17:24:56 GMT-0500 (Central Daylight Time),382179.5,brutal,900,I,m,m,None,698,498.0,200.0,118,3,2127.4000000059605,380052.09999999404,8076,remote,AF,A,378997,378997,377370,378281,377370,379498,378797,378797,379498,97
97,test,1,con,1,z,Tue Apr 21 2026 17:24:56 GMT-0500 (Central Daylight Time),383977.90000000596,elated,800,I,z,z,None,465,266.0,199.0,1,3,1794.5999999940395,382183.3000000119,8076,elated,AF,A,381030,381030,379501,380313,379502,381296,380830,380830,381296,98
98,test,1,con,1,m,Tue Apr 21 2026 17:24:56 GMT-0500 (Central Daylight Time),385761.09999999404,window,800,I,m,m,None,433,234.0,199.0,121,3,1779.2999999821186,383981.8000000119,8076,window,AF,A,382829,382829,381300,382113,381300,383079,382630,382630,383079,99
99,test,1,inc,1,m,Tue Apr 21 2026 17:24:56 GMT-0500 (Central Daylight Time),388010.2000000179,friend,1100,I,m,m,None,615,415.0,200.0,128,3,2245.5,385764.7000000179,8076,window,AF,A,384912,384912,383083,384195,383083,385328,384712,384712,385328,100
99,test,1,con,0,z,Tue Apr 21 2026 17:24:56 GMT-0500 (Central Daylight Time),389809.5,temper,800,I,m,m,None,464,265.0,199.0,57,3,1795.699999988079,388013.8000000119,8076,temper,AF,A,386862,386862,385332,386145,385332,387128,386661,386662,387128,101
100,test,1,con,1,z,Tue Apr 21 2026 17:24:56 GMT-0500 (Central Daylight Time),391958.8000000119,temper,900,I,z,z,None,710,510.0,200.0,58,3,2145.9000000059605,389812.90000000596,8076,temper,AF,A,388761,388761,387131,388044,387131,389277,388561,388561,389277,102
101,test,1,con,1,m,Tue Apr 21 2026 17:24:56 GMT-0500 (Central Daylight Time),394458.40000000596,bell,1100,I,m,m,None,857,657.0,200.0,84,3,2495.9000000059605,391962.5,8076,bell,AF,A,391110,391110,389281,390394,389281,391776,390910,390910,391776,103
102,test,1,inc,1,z,Tue Apr 21 2026 17:24:56 GMT-0500 (Central Daylight Time),396424.3000000119,rock,900,I,z,z,None,526,326.0,200.0,22,3,1962.300000011921,394462.0,8076,love,AF,A,393409,393409,391780,392693,391780,393742,393209,393209,393742,104
103,test,1,con,1,m,Tue Apr 21 2026 17:24:56 GMT-0500 (Central Daylight Time),398640.3000000119,film,1000,I,m,m,None,675,476.0,199.0,91,3,2212.2000000178814,396428.09999999404,8076,film,AF,A,395475,395475,393746,394759,393746,395958,395276,395276,395958,105
104,test,1,con,1,m,Tue Apr 21 2026 17:24:56 GMT-0500 (Central Daylight Time),400572.90000000596,step,900,I,m,m,None,496,296.0,200.0,66,3,1928.800000011921,398644.09999999404,8076,step,AF,A,397591,397591,395962,396875,395962,397891,397391,397391,397891,106
105,test,1,con,1,z,Tue Apr 21 2026 17:24:56 GMT-0500 (Central Daylight Time),402539.2000000179,rage,800,I,z,z,None,623,423.0,200.0,49,3,1962.7000000178814,400576.5,8076,rage,AF,A,399424,399424,397895,398708,397895,399857,399224,399224,399857,107
106,test,1,con,1,m,Tue Apr 21 2026 17:24:56 GMT-0500 (Central Daylight Time),404905.0,napkin,1100,I,m,m,None,717,517.0,200.0,108,3,2362.199999988079,402542.8000000119,8076,napkin,AF,A,401690,401690,399861,400973,399861,402223,401490,401490,402223,108
107,test,1,inc,1,m,Tue Apr 21 2026 17:24:56 GMT-0500 (Central Daylight Time),407087.8000000119,love,1000,I,m,m,None,635,435.0,200.0,95,3,2178.5999999940395,404909.2000000179,8076,film,AF,A,403956,403956,402227,403239,402227,404406,403756,403756,404406,109
108,test,1,con,1,z,Tue Apr 21 2026 17:24:56 GMT-0500 (Central Daylight Time),409071.40000000596,love,800,I,z,z,None,635,436.0,199.0,17,3,1979.300000011921,407092.09999999404,8076,love,AF,A,405939,405939,404410,405222,404411,406389,405739,405739,406389,110
109,test,1,con,1,z,Tue Apr 21 2026 17:24:56 GMT-0500 (Central Daylight Time),411036.2000000179,love,900,I,z,z,None,522,322.0,200.0,18,3,1960.800000011921,409075.40000000596,8076,love,AF,A,408021,408021,406393,407305,406394,408354,407821,407821,408354,111
110,test,1,inc,1,m,Tue Apr 21 2026 17:24:56 GMT-0500 (Central Daylight Time),413335.7000000179,hate,1100,I,m,m,None,652,452.0,200.0,72,3,2295.800000011921,411039.90000000596,8076,step,AF,A,410187,410187,408358,409471,408358,410654,409987,409987,410654,112
111,test,1,con,1,z,Tue Apr 21 2026 17:24:56 GMT-0500 (Central Daylight Time),415668.2000000179,hate,1100,I,z,z,None,688,489.0,199.0,44,3,2328.9000000059605,413339.3000000119,8076,hate,AF,A,412487,412487,410657,411770,410658,412986,412287,412287,412986,113
112,test,1,con,1,z,Tue Apr 21 2026 17:24:56 GMT-0500 (Central Daylight Time),417484.3000000119,brutal,800,I,z,z,None,470,271.0,199.0,33,3,1812.300000011921,415672.0,8076,brutal,AF,A,414519,414520,412990,413803,412990,414802,414320,414320,414802,114
113,test,1,con,1,z,Tue Apr 21 2026 17:24:56 GMT-0500 (Central Daylight Time),419233.59999999404,friend,800,I,z,z,None,415,215.0,200.0,25,3,1745.5,417488.09999999404,8076,friend,AF,A,416336,416336,414806,415619,414806,416552,416136,416136,416552,115
114,test,1,inc,1,m,Tue Apr 21 2026 17:24:56 GMT-0500 (Central Daylight Time),421199.8000000119,kind,900,I,m,m,None,526,326.0,200.0,94,3,1962.800000011921,419237.0,8076,film,AF,A,418185,418185,416555,417468,416555,418518,417985,417985,418518,116
115,test,1,con,1,m,Tue Apr 21 2026 17:24:56 GMT-0500 (Central Daylight Time),423582.5,bell,1000,I,m,m,None,836,636.0,200.0,83,3,2379.199999988079,421203.3000000119,8076,bell,AF,A,420251,420251,418521,419536,418522,420901,420051,420051,420901,117
116,test,1,inc,1,z,Tue Apr 21 2026 17:24:56 GMT-0500 (Central Daylight Time),425498.09999999404,step,800,I,z,z,None,580,381.0,199.0,53,3,1912.0999999940395,423586.0,8076,rage,AF,A,422434,422434,420904,421717,420904,422816,422234,422234,422816,118
117,test,1,inc,1,z,Tue Apr 21 2026 17:24:56 GMT-0500 (Central Daylight Time),427797.90000000596,window,1100,I,z,z,None,652,437.0,215.0,64,3,2295.9000000059605,425502.0,8076,temper,AF,A,424666,424666,422820,423933,422820,425116,424451,424451,425116,119
118,test,1,con,1,m,Tue Apr 21 2026 17:24:56 GMT-0500 (Central Daylight Time),429597.09999999404,film,800,I,m,m,None,462,261.0,201.0,89,3,1795.5,427801.59999999404,8076,film,AF,A,426650,426650,425120,425932,425120,426915,426449,426449,426915,120
119,test,1,inc,1,z,Tue Apr 21 2026 17:24:56 GMT-0500 (Central Daylight Time),431513.3000000119,rock,900,I,z,z,None,467,267.0,200.0,46,3,1912.5,429600.8000000119,8076,hate,AF,A,428548,428548,426919,427832,426919,428831,428348,428348,428831,121
120,test,1,con,1,m,Tue Apr 21 2026 17:24:56 GMT-0500 (Central Daylight Time),433279.3000000119,step,800,I,m,m,None,427,227.0,200.0,65,3,1762.5,431516.8000000119,8076,step,AF,A,430364,430364,428835,429648,428835,430597,430164,430164,430597,122
121,test,1,con,1,z,Tue Apr 21 2026 17:24:56 GMT-0500 (Central Daylight Time),435812.0,rage,1100,I,z,z,None,887,688.0,199.0,52,3,2529.0999999940395,433282.90000000596,8076,rage,AF,A,432430,432431,430601,431714,430601,433130,432231,432231,433130,123
122,test,1,inc,1,m,Tue Apr 21 2026 17:24:56 GMT-0500 (Central Daylight Time),437794.8000000119,temper,1000,I,m,m,None,440,240.0,200.0,111,3,1979.0,435815.8000000119,8076,napkin,AF,A,434863,434863,433134,434146,433134,435113,434663,434663,435113,124
123,test,1,inc,1,z,Tue Apr 21 2026 17:24:56 GMT-0500 (Central Daylight Time),439860.90000000596,bell,1000,I,z,z,None,520,321.0,199.0,23,3,2062.4000000059605,437798.5,8076,love,AF,A,436846,436846,435117,436129,435117,437179,436646,436646,437179,125
124,test,1,inc,1,m,Tue Apr 21 2026 17:24:56 GMT-0500 (Central Daylight Time),441893.40000000596,temper,1000,I,m,m,None,486,287.0,199.0,127,3,2028.5999999940395,439864.8000000119,8076,window,AF,A,438911,438912,437183,438195,437183,439211,438712,438712,439211,126
125,test,1,inc,1,z,Tue Apr 21 2026 17:24:56 GMT-0500 (Central Daylight Time),443793.40000000596,jacket,800,I,z,z,None,550,351.0,199.0,5,3,1895.9000000059605,441897.5,8076,elated,AF,A,440744,440744,439216,440028,439216,441111,440545,440545,441111,127
126,test,1,inc,1,m,Tue Apr 21 2026 17:24:56 GMT-0500 (Central Daylight Time),446108.7000000179,hate,1100,I,m,m,None,679,479.0,200.0,88,3,2311.9000000059605,443796.8000000119,8076,bell,AF,A,442944,442944,441115,442227,441115,443427,442744,442744,443427,128
