acc_sum,block,block_c,change,condition,correct,correct_response,datetime,endtime,face,project,response,response_time,row_sel,session_number,start_end,starttime,subject_id,task,task_vers,trial
0,prac,1,,1-Back,,,Wed Mar 25 2026 10:10:03 GMT-0500 (Central Daylight Time),,012_o_f_d_a.png,O,space,9591,1,1,,,7786,VNB,C,0
0,prac,1,0.0,1-Back,0.0,m,Wed Mar 25 2026 10:10:03 GMT-0500 (Central Daylight Time),200972.59999990463,022_y_f_n_a.png,O,None,2011,2,1,2873.5999999046326,198099.0,7786,VNB,C,1
1,prac,1,0.0,1-Back,1.0,m,Wed Mar 25 2026 10:10:03 GMT-0500 (Central Daylight Time),203071.39999985695,014_m_m_h_a.png,O,m,1254,3,1,2094.0,200977.39999985695,7786,VNB,C,2
1,prac,1,0.0,1-Back,0.0,m,Wed Mar 25 2026 10:10:03 GMT-0500 (Central Daylight Time),204735.79999995232,025_y_m_d_a.png,O,z,815,4,1,1654.2999999523163,203081.5,7786,VNB,C,3
2,prac,1,0.0,1-Back,1.0,m,Wed Mar 25 2026 10:10:03 GMT-0500 (Central Daylight Time),206769.69999980927,012_o_f_n_a.png,O,m,1172,5,1,2030.8999998569489,204738.79999995232,7786,VNB,C,4
3,prac,1,1.0,1-Back,1.0,z,Wed Mar 25 2026 10:10:03 GMT-0500 (Central Daylight Time),208919.19999980927,025_y_m_n_a.png,O,z,1287,6,1,2137.5999999046326,206781.59999990463,7786,VNB,C,5
4,prac,1,0.0,1-Back,1.0,m,Wed Mar 25 2026 10:10:03 GMT-0500 (Central Daylight Time),210669.19999980927,015_o_m_h_a.png,O,m,886,7,1,1743.3999998569489,208925.79999995232,7786,VNB,C,6
4,prac,1,0.0,1-Back,0.0,m,Wed Mar 25 2026 10:10:03 GMT-0500 (Central Daylight Time),212417.09999990463,019_m_f_d_a.png,O,z,862,8,1,1738.0,210679.09999990463,7786,VNB,C,7
4,prac,1,1.0,1-Back,0.0,z,Wed Mar 25 2026 10:10:03 GMT-0500 (Central Daylight Time),215267.79999995232,022_y_f_d_a.png,O,None,2006,9,1,2846.0,212421.79999995232,7786,VNB,C,8
5,prac,1,0.0,1-Back,1.0,m,Wed Mar 25 2026 10:10:03 GMT-0500 (Central Daylight Time),217682.89999985695,014_m_m_n_a.png,O,m,1562,10,1,2404.7000000476837,215278.19999980927,7786,VNB,C,9
6,prac,1,0.0,1-Back,1.0,m,Wed Mar 25 2026 10:10:03 GMT-0500 (Central Daylight Time),219699.39999985695,012_o_f_h_a.png,O,m,1161,11,1,2011.3999998569489,217688.0,7786,VNB,C,10
6,prac,1,0.0,1-Back,0.0,m,Wed Mar 25 2026 10:10:03 GMT-0500 (Central Daylight Time),221764.19999980927,025_y_m_d_a.png,O,z,1203,12,1,2055.399999856949,219708.79999995232,7786,VNB,C,11
0,prac,2,0.0,1-Back,,,Wed Mar 25 2026 10:10:03 GMT-0500 (Central Daylight Time),221764.19999980927,012_o_f_d_a.png,O,a,3744,1,1,2055.399999856949,219708.79999995232,7786,VNB,C,0
1,prac,2,0.0,1-Back,1.0,m,Wed Mar 25 2026 10:10:03 GMT-0500 (Central Daylight Time),230511.39999985695,022_y_f_n_a.png,O,m,1085,2,1,1946.2999999523163,228565.09999990463,7786,VNB,C,1
2,prac,2,0.0,1-Back,1.0,m,Wed Mar 25 2026 10:10:03 GMT-0500 (Central Daylight Time),232527.79999995232,014_m_m_h_a.png,O,m,1176,3,1,2003.9000000953674,230523.89999985695,7786,VNB,C,2
2,prac,2,0.0,1-Back,0.0,m,Wed Mar 25 2026 10:10:03 GMT-0500 (Central Daylight Time),234592.89999985695,025_y_m_d_a.png,O,z,1285,4,1,2058.5,232534.39999985695,7786,VNB,C,3
3,prac,2,0.0,1-Back,1.0,m,Wed Mar 25 2026 10:10:03 GMT-0500 (Central Daylight Time),236776.09999990463,012_o_f_n_a.png,O,m,1311,5,1,2172.0999999046326,234604.0,7786,VNB,C,4
4,prac,2,1.0,1-Back,1.0,z,Wed Mar 25 2026 10:10:03 GMT-0500 (Central Daylight Time),238961.5,025_y_m_n_a.png,O,z,1337,6,1,2178.7000000476837,236782.79999995232,7786,VNB,C,5
5,prac,2,0.0,1-Back,1.0,m,Wed Mar 25 2026 10:10:03 GMT-0500 (Central Daylight Time),240508.09999990463,015_o_m_h_a.png,O,m,671,7,1,1533.0999999046326,238975.0,7786,VNB,C,6
5,prac,2,0.0,1-Back,0.0,m,Wed Mar 25 2026 10:10:03 GMT-0500 (Central Daylight Time),242240.79999995232,019_m_f_d_a.png,O,z,865,8,1,1726.0,240514.79999995232,7786,VNB,C,7
5,prac,2,1.0,1-Back,0.0,z,Wed Mar 25 2026 10:10:03 GMT-0500 (Central Daylight Time),244260.29999995232,022_y_f_d_a.png,O,m,1138,9,1,2008.5,242251.79999995232,7786,VNB,C,8
6,prac,2,0.0,1-Back,1.0,m,Wed Mar 25 2026 10:10:03 GMT-0500 (Central Daylight Time),246739.39999985695,014_m_m_n_a.png,O,m,1631,10,1,2475.899999856949,244263.5,7786,VNB,C,9
7,prac,2,0.0,1-Back,1.0,m,Wed Mar 25 2026 10:10:03 GMT-0500 (Central Daylight Time),249021.89999985695,012_o_f_h_a.png,O,m,1410,11,1,2273.2999999523163,246748.59999990463,7786,VNB,C,10
8,prac,2,0.0,1-Back,1.0,m,Wed Mar 25 2026 10:10:03 GMT-0500 (Central Daylight Time),251039.0,025_y_m_d_a.png,O,m,1181,12,1,2010.6000001430511,249028.39999985695,7786,VNB,C,11
0,prac,3,0.0,1-Back,,,Wed Mar 25 2026 10:10:03 GMT-0500 (Central Daylight Time),251039.0,012_o_f_d_a.png,O,a,3363,1,1,2010.6000001430511,249028.39999985695,7786,VNB,C,0
1,prac,3,0.0,1-Back,1.0,m,Wed Mar 25 2026 10:10:03 GMT-0500 (Central Daylight Time),259936.59999990463,022_y_f_n_a.png,O,m,1633,2,1,2477.9000000953674,257458.69999980927,7786,VNB,C,1
2,prac,3,0.0,1-Back,1.0,m,Wed Mar 25 2026 10:10:03 GMT-0500 (Central Daylight Time),261637.0,014_m_m_h_a.png,O,m,855,3,1,1690.8000001907349,259946.19999980927,7786,VNB,C,2
3,prac,3,0.0,1-Back,1.0,m,Wed Mar 25 2026 10:10:03 GMT-0500 (Central Daylight Time),263503.89999985695,025_y_m_d_a.png,O,m,1106,4,1,1862.2999999523163,261641.59999990463,7786,VNB,C,3
4,prac,3,0.0,1-Back,1.0,m,Wed Mar 25 2026 10:10:03 GMT-0500 (Central Daylight Time),265882.59999990463,012_o_f_n_a.png,O,m,1518,5,1,2374.0,263508.59999990463,7786,VNB,C,4
5,prac,3,1.0,1-Back,1.0,z,Wed Mar 25 2026 10:10:03 GMT-0500 (Central Daylight Time),268266.5,025_y_m_n_a.png,O,z,1545,6,1,2379.600000143051,265886.89999985695,7786,VNB,C,5
6,prac,3,0.0,1-Back,1.0,m,Wed Mar 25 2026 10:10:03 GMT-0500 (Central Daylight Time),270098.89999985695,015_o_m_h_a.png,O,m,950,7,1,1822.3999998569489,268276.5,7786,VNB,C,6
7,prac,3,0.0,1-Back,1.0,m,Wed Mar 25 2026 10:10:03 GMT-0500 (Central Daylight Time),272181.5,019_m_f_d_a.png,O,m,1211,8,1,2077.5,270104.0,7786,VNB,C,7
8,prac,3,1.0,1-Back,1.0,z,Wed Mar 25 2026 10:10:03 GMT-0500 (Central Daylight Time),274264.0,022_y_f_d_a.png,O,z,1196,9,1,2071.600000143051,272192.39999985695,7786,VNB,C,8
9,prac,3,0.0,1-Back,1.0,m,Wed Mar 25 2026 10:10:03 GMT-0500 (Central Daylight Time),276664.89999985695,014_m_m_n_a.png,O,m,1560,10,1,2394.5999999046326,274270.2999999523,7786,VNB,C,9
10,prac,3,0.0,1-Back,1.0,m,Wed Mar 25 2026 10:10:03 GMT-0500 (Central Daylight Time),278547.69999980927,012_o_f_h_a.png,O,m,1024,11,1,1871.0999999046326,276676.59999990463,7786,VNB,C,10
11,prac,3,0.0,1-Back,1.0,m,Wed Mar 25 2026 10:10:03 GMT-0500 (Central Daylight Time),280312.0,025_y_m_d_a.png,O,m,911,12,1,1759.1000001430511,278552.89999985695,7786,VNB,C,11
0,test,1,0.0,1-Back,,,Wed Mar 25 2026 10:10:03 GMT-0500 (Central Daylight Time),280312.0,022_y_f_d_a.png,O,space,8130,1,1,1759.1000001430511,278552.89999985695,7786,VNB,C,0
1,test,1,0.0,1-Back,1.0,m,Wed Mar 25 2026 10:10:03 GMT-0500 (Central Daylight Time),303771.39999985695,019_m_f_n_a.png,O,m,1126,2,1,2144.5999999046326,301626.7999999523,7786,VNB,C,1
2,test,1,0.0,1-Back,1.0,m,Wed Mar 25 2026 10:10:03 GMT-0500 (Central Daylight Time),305937.7999999523,015_o_m_h_a.png,O,m,1142,3,1,2157.2999999523163,303780.5,7786,VNB,C,2
3,test,1,1.0,1-Back,1.0,z,Wed Mar 25 2026 10:10:03 GMT-0500 (Central Daylight Time),307885.59999990463,014_m_m_h_a.png,O,z,927,4,1,1945.9000000953674,305939.69999980927,7786,VNB,C,3
4,test,1,0.0,1-Back,1.0,m,Wed Mar 25 2026 10:10:03 GMT-0500 (Central Daylight Time),309837.09999990463,012_o_f_n_a.png,O,m,918,5,1,1947.2999999523163,307889.7999999523,7786,VNB,C,4
4,test,1,0.0,1-Back,0.0,m,Wed Mar 25 2026 10:10:03 GMT-0500 (Central Daylight Time),312003.09999990463,025_y_m_d_a.png,O,z,1134,6,1,2162.5999999046326,309840.5,7786,VNB,C,5
5,test,1,1.0,1-Back,1.0,z,Wed Mar 25 2026 10:10:03 GMT-0500 (Central Daylight Time),314618.7999999523,019_m_f_d_a.png,O,z,1590,7,1,2605.7999999523163,312013.0,7786,VNB,C,6
6,test,1,0.0,1-Back,1.0,m,Wed Mar 25 2026 10:10:03 GMT-0500 (Central Daylight Time),316433.89999985695,022_y_f_h_a.png,O,m,784,8,1,1813.0,314620.89999985695,7786,VNB,C,7
7,test,1,0.0,1-Back,1.0,m,Wed Mar 25 2026 10:10:03 GMT-0500 (Central Daylight Time),318934.09999990463,015_o_m_n_a.png,O,m,1483,9,1,2491.7999999523163,316442.2999999523,7786,VNB,C,8
8,test,1,0.0,1-Back,1.0,m,Wed Mar 25 2026 10:10:03 GMT-0500 (Central Daylight Time),320899.5,025_y_m_h_a.png,O,m,948,10,1,1962.1000001430511,318937.39999985695,7786,VNB,C,9
9,test,1,0.0,1-Back,1.0,m,Wed Mar 25 2026 10:10:03 GMT-0500 (Central Daylight Time),323032.19999980927,015_o_m_d_a.png,O,m,1101,11,1,2126.5999999046326,320905.59999990463,7786,VNB,C,10
10,test,1,1.0,1-Back,1.0,z,Wed Mar 25 2026 10:10:03 GMT-0500 (Central Daylight Time),325464.0,012_o_f_d_a.png,O,z,1402,12,1,2428.800000190735,323035.19999980927,7786,VNB,C,11
11,test,1,0.0,1-Back,1.0,m,Wed Mar 25 2026 10:10:03 GMT-0500 (Central Daylight Time),327430.39999985695,014_m_m_n_a.png,O,m,948,13,1,1961.7000000476837,325468.69999980927,7786,VNB,C,12
12,test,1,1.0,1-Back,1.0,z,Wed Mar 25 2026 10:10:03 GMT-0500 (Central Daylight Time),329629.89999985695,022_y_f_n_a.png,O,z,1173,14,1,2196.5999999046326,327433.2999999523,7786,VNB,C,13
13,test,1,0.0,1-Back,1.0,m,Wed Mar 25 2026 10:10:03 GMT-0500 (Central Daylight Time),331679.19999980927,019_m_f_h_a.png,O,m,1020,15,1,2041.2999999523163,329637.89999985695,7786,VNB,C,14
13,test,1,0.0,1-Back,0.0,m,Wed Mar 25 2026 10:10:03 GMT-0500 (Central Daylight Time),333545.59999990463,014_m_m_d_a.png,O,z,834,16,1,1864.0999999046326,331681.5,7786,VNB,C,15
14,test,1,0.0,1-Back,1.0,m,Wed Mar 25 2026 10:10:03 GMT-0500 (Central Daylight Time),335911.39999985695,025_y_m_n_a.png,O,m,1350,17,1,2357.899999856949,333553.5,7786,VNB,C,16
15,test,1,0.0,1-Back,1.0,m,Wed Mar 25 2026 10:10:03 GMT-0500 (Central Daylight Time),337896.0,012_o_f_h_a.png,O,m,967,18,1,1982.2000000476837,335913.7999999523,7786,VNB,C,17
0,test,2,0.0,1-Back,,,Wed Mar 25 2026 10:10:03 GMT-0500 (Central Daylight Time),337896.0,025_y_m_n_a.png,O,space,1940,1,1,1982.2000000476837,335913.7999999523,7786,VNB,C,0
1,test,2,0.0,1-Back,1.0,m,Wed Mar 25 2026 10:10:03 GMT-0500 (Central Daylight Time),343626.0,022_y_f_h_a.png,O,m,743,2,1,1762.1000001430511,341863.89999985695,7786,VNB,C,1
2,test,2,1.0,1-Back,1.0,m,Wed Mar 25 2026 10:10:03 GMT-0500 (Central Daylight Time),346125.5,015_o_m_n_a.png,O,m,1482,3,1,2489.7000000476837,343635.7999999523,7786,VNB,C,2
3,test,2,0.0,1-Back,1.0,m,Wed Mar 25 2026 10:10:03 GMT-0500 (Central Daylight Time),348325.39999985695,019_m_f_d_a.png,O,m,1167,4,1,2197.399999856949,346128.0,7786,VNB,C,3
4,test,2,0.0,1-Back,1.0,z,Wed Mar 25 2026 10:10:03 GMT-0500 (Central Daylight Time),350223.7999999523,014_m_m_d_a.png,O,z,865,5,1,1891.7999999523163,348332.0,7786,VNB,C,4
5,test,2,0.0,1-Back,1.0,m,Wed Mar 25 2026 10:10:03 GMT-0500 (Central Daylight Time),352140.7999999523,025_y_m_h_a.png,O,m,900,6,1,1913.2999999523163,350227.5,7786,VNB,C,5
5,test,2,1.0,1-Back,0.0,z,Wed Mar 25 2026 10:10:03 GMT-0500 (Central Daylight Time),354189.69999980927,012_o_f_h_a.png,O,m,1032,7,1,2043.2999999523163,352146.39999985695,7786,VNB,C,6
6,test,2,0.0,1-Back,1.0,m,Wed Mar 25 2026 10:10:03 GMT-0500 (Central Daylight Time),356338.59999990463,019_m_f_n_a.png,O,m,1126,8,1,2146.2000000476837,354192.39999985695,7786,VNB,C,7
7,test,2,0.0,1-Back,1.0,m,Wed Mar 25 2026 10:10:03 GMT-0500 (Central Daylight Time),358620.39999985695,022_y_f_d_a.png,O,m,1266,9,1,2272.5999999046326,356347.7999999523,7786,VNB,C,8
7,test,2,0.0,1-Back,0.0,m,Wed Mar 25 2026 10:10:03 GMT-0500 (Central Daylight Time),360552.69999980927,014_m_m_n_a.png,O,z,902,10,1,1927.5,358625.19999980927,7786,VNB,C,9
8,test,2,1.0,1-Back,1.0,m,Wed Mar 25 2026 10:10:03 GMT-0500 (Central Daylight Time),362502.19999980927,019_m_f_h_a.png,O,m,916,11,1,1940.7999999523163,360561.39999985695,7786,VNB,C,10
9,test,2,0.0,1-Back,1.0,z,Wed Mar 25 2026 10:10:03 GMT-0500 (Central Daylight Time),364901.89999985695,015_o_m_h_a.png,O,z,1373,12,1,2396.2000000476837,362505.69999980927,7786,VNB,C,11
10,test,2,0.0,1-Back,1.0,m,Wed Mar 25 2026 10:10:03 GMT-0500 (Central Daylight Time),367184.2999999523,025_y_m_d_a.png,O,m,1254,13,1,2271.5,364912.7999999523,7786,VNB,C,12
11,test,2,0.0,1-Back,1.0,m,Wed Mar 25 2026 10:10:03 GMT-0500 (Central Daylight Time),369733.5,012_o_f_n_a.png,O,m,1530,14,1,2545.800000190735,367187.69999980927,7786,VNB,C,13
12,test,2,0.0,1-Back,1.0,z,Wed Mar 25 2026 10:10:03 GMT-0500 (Central Daylight Time),372249.2999999523,022_y_f_n_a.png,O,z,1485,15,1,2507.5,369741.7999999523,7786,VNB,C,14
13,test,2,1.0,1-Back,1.0,m,Wed Mar 25 2026 10:10:03 GMT-0500 (Central Daylight Time),374348.59999990463,014_m_m_h_a.png,O,m,1082,16,1,2094.5,372254.09999990463,7786,VNB,C,15
13,test,2,0.0,1-Back,0.0,m,Wed Mar 25 2026 10:10:03 GMT-0500 (Central Daylight Time),376198.09999990463,012_o_f_d_a.png,O,z,831,17,1,1842.5999999046326,374355.5,7786,VNB,C,16
14,test,2,1.0,1-Back,1.0,z,Wed Mar 25 2026 10:10:03 GMT-0500 (Central Daylight Time),378314.09999990463,015_o_m_d_a.png,O,z,1091,18,1,2111.2999999523163,376202.7999999523,7786,VNB,C,17
0,test,3,1.0,1-Back,,,Wed Mar 25 2026 10:10:03 GMT-0500 (Central Daylight Time),378314.09999990463,012_o_f_h_a.png,O,space,1449,1,1,2111.2999999523163,376202.7999999523,7786,VNB,C,0
0,test,3,0.0,1-Back,0.0,m,Wed Mar 25 2026 10:10:03 GMT-0500 (Central Daylight Time),384229.09999990463,019_m_f_d_a.png,O,z,1349,2,1,2359.7000000476837,381869.39999985695,7786,VNB,C,1
1,test,3,1.0,1-Back,1.0,m,Wed Mar 25 2026 10:10:03 GMT-0500 (Central Daylight Time),386328.59999990463,014_m_m_n_a.png,O,m,1072,3,1,2093.2999999523163,384235.2999999523,7786,VNB,C,2
2,test,3,0.0,1-Back,1.0,z,Wed Mar 25 2026 10:10:03 GMT-0500 (Central Daylight Time),388578.19999980927,012_o_f_n_a.png,O,z,1226,4,1,2246.399999856949,386331.7999999523,7786,VNB,C,3
3,test,3,1.0,1-Back,1.0,m,Wed Mar 25 2026 10:10:03 GMT-0500 (Central Daylight Time),390964.2999999523,015_o_m_d_a.png,O,m,1353,5,1,2379.100000143051,388585.19999980927,7786,VNB,C,4
4,test,3,0.0,1-Back,1.0,m,Wed Mar 25 2026 10:10:03 GMT-0500 (Central Daylight Time),393025.2999999523,022_y_f_h_a.png,O,m,1042,6,1,2057.7000000476837,390967.59999990463,7786,VNB,C,5
5,test,3,0.0,1-Back,1.0,z,Wed Mar 25 2026 10:10:03 GMT-0500 (Central Daylight Time),394741.39999985695,025_y_m_h_a.png,O,z,688,7,1,1713.7000000476837,393027.69999980927,7786,VNB,C,6
6,test,3,0.0,1-Back,1.0,m,Wed Mar 25 2026 10:10:03 GMT-0500 (Central Daylight Time),396641.7999999523,019_m_f_n_a.png,O,m,883,8,1,1898.7999999523163,394743.0,7786,VNB,C,7
7,test,3,0.0,1-Back,1.0,m,Wed Mar 25 2026 10:10:03 GMT-0500 (Central Daylight Time),399174.5,022_y_f_d_a.png,O,m,1506,9,1,2525.4000000953674,396649.09999990463,7786,VNB,C,8
8,test,3,1.0,1-Back,1.0,m,Wed Mar 25 2026 10:10:03 GMT-0500 (Central Daylight Time),401673.39999985695,015_o_m_n_a.png,O,m,1469,10,1,2496.0999999046326,399177.2999999523,7786,VNB,C,9
9,test,3,0.0,1-Back,1.0,m,Wed Mar 25 2026 10:10:03 GMT-0500 (Central Daylight Time),403990.0,014_m_m_h_a.png,O,m,1289,11,1,2310.100000143051,401679.89999985695,7786,VNB,C,10
10,test,3,0.0,1-Back,1.0,z,Wed Mar 25 2026 10:10:03 GMT-0500 (Central Daylight Time),406071.7999999523,019_m_f_h_a.png,O,z,1061,12,1,2078.9000000953674,403992.89999985695,7786,VNB,C,11
11,test,3,1.0,1-Back,1.0,m,Wed Mar 25 2026 10:10:03 GMT-0500 (Central Daylight Time),408355.09999990463,012_o_f_d_a.png,O,m,1250,13,1,2277.0,406078.09999990463,7786,VNB,C,12
12,test,3,0.0,1-Back,1.0,z,Wed Mar 25 2026 10:10:03 GMT-0500 (Central Daylight Time),410553.59999990463,014_m_m_d_a.png,O,z,1177,14,1,2195.0,408358.59999990463,7786,VNB,C,13
13,test,3,0.0,1-Back,1.0,m,Wed Mar 25 2026 10:10:03 GMT-0500 (Central Daylight Time),412635.2999999523,025_y_m_n_a.png,O,m,1064,15,1,2072.100000143051,410563.19999980927,7786,VNB,C,14
14,test,3,1.0,1-Back,1.0,m,Wed Mar 25 2026 10:10:03 GMT-0500 (Central Daylight Time),414684.5,015_o_m_h_a.png,O,m,1029,16,1,2047.6000001430511,412636.89999985695,7786,VNB,C,15
15,test,3,0.0,1-Back,1.0,m,Wed Mar 25 2026 10:10:03 GMT-0500 (Central Daylight Time),416669.0,025_y_m_d_a.png,O,m,949,17,1,1981.7000000476837,414687.2999999523,7786,VNB,C,16
16,test,3,1.0,1-Back,1.0,m,Wed Mar 25 2026 10:10:03 GMT-0500 (Central Daylight Time),418952.2999999523,022_y_f_n_a.png,O,m,1263,18,1,2279.4000000953674,416672.89999985695,7786,VNB,C,17
0,test,4,1.0,1-Back,,,Wed Mar 25 2026 10:10:03 GMT-0500 (Central Daylight Time),418952.2999999523,014_m_m_d_a.png,O,space,1219,1,1,2279.4000000953674,416672.89999985695,7786,VNB,C,0
1,test,4,0.0,1-Back,1.0,z,Wed Mar 25 2026 10:10:03 GMT-0500 (Central Daylight Time),424116.0,015_o_m_d_a.png,O,z,881,2,1,1912.5,422203.5,7786,VNB,C,1
2,test,4,0.0,1-Back,1.0,m,Wed Mar 25 2026 10:10:03 GMT-0500 (Central Daylight Time),425999.7999999523,025_y_m_h_a.png,O,m,854,3,1,1879.9000000953674,424119.89999985695,7786,VNB,C,2
3,test,4,0.0,1-Back,1.0,m,Wed Mar 25 2026 10:10:03 GMT-0500 (Central Daylight Time),428365.59999990463,019_m_f_n_a.png,O,m,1340,4,1,2362.7999999523163,426002.7999999523,7786,VNB,C,3
4,test,4,1.0,1-Back,1.0,m,Wed Mar 25 2026 10:10:03 GMT-0500 (Central Daylight Time),430598.5,012_o_f_h_a.png,O,m,1205,5,1,2225.7000000476837,428372.7999999523,7786,VNB,C,4
5,test,4,0.0,1-Back,1.0,m,Wed Mar 25 2026 10:10:03 GMT-0500 (Central Daylight Time),432930.2999999523,014_m_m_n_a.png,O,m,1301,6,1,2329.2999999523163,430601.0,7786,VNB,C,5
5,test,4,0.0,1-Back,0.0,m,Wed Mar 25 2026 10:10:03 GMT-0500 (Central Daylight Time),434912.69999980927,025_y_m_d_a.png,O,z,953,7,1,1975.1999998092651,432937.5,7786,VNB,C,6
6,test,4,1.0,1-Back,1.0,z,Wed Mar 25 2026 10:10:03 GMT-0500 (Central Daylight Time),436813.0,022_y_f_d_a.png,O,z,873,8,1,1897.0,434916.0,7786,VNB,C,7
7,test,4,0.0,1-Back,1.0,m,Wed Mar 25 2026 10:10:03 GMT-0500 (Central Daylight Time),438662.0,019_m_f_h_a.png,O,m,818,9,1,1839.5,436822.5,7786,VNB,C,8
8,test,4,0.0,1-Back,1.0,z,Wed Mar 25 2026 10:10:03 GMT-0500 (Central Daylight Time),440479.0,015_o_m_h_a.png,O,z,790,10,1,1813.5,438665.5,7786,VNB,C,9
9,test,4,1.0,1-Back,1.0,m,Wed Mar 25 2026 10:10:03 GMT-0500 (Central Daylight Time),442411.89999985695,012_o_f_n_a.png,O,m,901,11,1,1924.3999998569489,440487.5,7786,VNB,C,10
10,test,4,0.0,1-Back,1.0,m,Wed Mar 25 2026 10:10:03 GMT-0500 (Central Daylight Time),444776.7999999523,019_m_f_d_a.png,O,m,1343,12,1,2361.7000000476837,442415.09999990463,7786,VNB,C,11
10,test,4,0.0,1-Back,0.0,m,Wed Mar 25 2026 10:10:03 GMT-0500 (Central Daylight Time),446927.19999980927,022_y_f_n_a.png,O,z,1124,13,1,2142.2999999523163,444784.89999985695,7786,VNB,C,12
10,test,4,0.0,1-Back,0.0,m,Wed Mar 25 2026 10:10:03 GMT-0500 (Central Daylight Time),449025.5,012_o_f_d_a.png,O,z,1068,14,1,2095.300000190735,446930.19999980927,7786,VNB,C,13
11,test,4,0.0,1-Back,1.0,m,Wed Mar 25 2026 10:10:03 GMT-0500 (Central Daylight Time),450991.19999980927,022_y_f_h_a.png,O,m,933,15,1,1956.3999998569489,449034.7999999523,7786,VNB,C,14
11,test,4,1.0,1-Back,0.0,z,Wed Mar 25 2026 10:10:03 GMT-0500 (Central Daylight Time),452858.19999980927,014_m_m_h_a.png,O,m,836,16,1,1863.8999998569489,450994.2999999523,7786,VNB,C,15
12,test,4,0.0,1-Back,1.0,m,Wed Mar 25 2026 10:10:03 GMT-0500 (Central Daylight Time),455439.19999980927,015_o_m_n_a.png,O,m,1552,17,1,2572.0,452867.19999980927,7786,VNB,C,16
13,test,4,1.0,1-Back,1.0,z,Wed Mar 25 2026 10:10:03 GMT-0500 (Central Daylight Time),457471.2999999523,025_y_m_n_a.png,O,z,1012,18,1,2030.4000000953674,455440.89999985695,7786,VNB,C,17
0,test,5,1.0,1-Back,,,Wed Mar 25 2026 10:10:03 GMT-0500 (Central Daylight Time),457471.2999999523,015_o_m_n_a.png,O,space,1525,1,1,2030.4000000953674,455440.89999985695,7786,VNB,C,0
1,test,5,1.0,1-Back,1.0,m,Wed Mar 25 2026 10:10:03 GMT-0500 (Central Daylight Time),463105.09999990463,012_o_f_h_a.png,O,m,1056,2,1,2079.2000000476837,461025.89999985695,7786,VNB,C,1
2,test,5,0.0,1-Back,1.0,m,Wed Mar 25 2026 10:10:03 GMT-0500 (Central Daylight Time),465486.5,025_y_m_d_a.png,O,m,1353,3,1,2374.0,463112.5,7786,VNB,C,2
3,test,5,0.0,1-Back,1.0,z,Wed Mar 25 2026 10:10:03 GMT-0500 (Central Daylight Time),467503.5,015_o_m_d_a.png,O,z,982,4,1,2014.0,465489.5,7786,VNB,C,3
4,test,5,0.0,1-Back,1.0,m,Wed Mar 25 2026 10:10:03 GMT-0500 (Central Daylight Time),469687.59999990463,019_m_f_h_a.png,O,m,1152,5,1,2175.0,467512.59999990463,7786,VNB,C,4
5,test,5,0.0,1-Back,1.0,m,Wed Mar 25 2026 10:10:03 GMT-0500 (Central Daylight Time),472002.09999990463,022_y_f_n_a.png,O,m,1294,6,1,2311.9000000953674,469690.19999980927,7786,VNB,C,5
6,test,5,1.0,1-Back,1.0,z,Wed Mar 25 2026 10:10:03 GMT-0500 (Central Daylight Time),474434.39999985695,012_o_f_n_a.png,O,z,1402,7,1,2423.2999999523163,472011.09999990463,7786,VNB,C,6
7,test,5,0.0,1-Back,1.0,m,Wed Mar 25 2026 10:10:03 GMT-0500 (Central Daylight Time),476649.39999985695,019_m_f_d_a.png,O,m,1185,8,1,2211.899999856949,474437.5,7786,VNB,C,7
8,test,5,0.0,1-Back,1.0,m,Wed Mar 25 2026 10:10:03 GMT-0500 (Central Daylight Time),478732.7999999523,025_y_m_h_a.png,O,m,1057,9,1,2075.600000143051,476657.19999980927,7786,VNB,C,8
9,test,5,0.0,1-Back,1.0,m,Wed Mar 25 2026 10:10:03 GMT-0500 (Central Daylight Time),481032.0,022_y_f_d_a.png,O,m,1271,10,1,2296.0,478736.0,7786,VNB,C,9
10,test,5,0.0,1-Back,1.0,m,Wed Mar 25 2026 10:10:03 GMT-0500 (Central Daylight Time),483167.39999985695,014_m_m_n_a.png,O,m,1116,11,1,2127.899999856949,481039.5,7786,VNB,C,10
11,test,5,1.0,1-Back,1.0,z,Wed Mar 25 2026 10:10:03 GMT-0500 (Central Daylight Time),485230.0,019_m_f_n_a.png,O,z,1047,12,1,2060.100000143051,483169.89999985695,7786,VNB,C,11
12,test,5,0.0,1-Back,1.0,m,Wed Mar 25 2026 10:10:03 GMT-0500 (Central Daylight Time),487280.2999999523,015_o_m_h_a.png,O,m,1029,13,1,2042.5,485237.7999999523,7786,VNB,C,12
13,test,5,0.0,1-Back,1.0,z,Wed Mar 25 2026 10:10:03 GMT-0500 (Central Daylight Time),489762.19999980927,014_m_m_h_a.png,O,z,1460,14,1,2479.5,487282.69999980927,7786,VNB,C,13
14,test,5,1.0,1-Back,1.0,m,Wed Mar 25 2026 10:10:03 GMT-0500 (Central Daylight Time),491797.39999985695,012_o_f_d_a.png,O,m,1008,15,1,2029.7000000476837,489767.69999980927,7786,VNB,C,14
15,test,5,0.0,1-Back,1.0,m,Wed Mar 25 2026 10:10:03 GMT-0500 (Central Daylight Time),493795.5,025_y_m_n_a.png,O,m,976,16,1,1996.4000000953674,491799.09999990463,7786,VNB,C,15
16,test,5,0.0,1-Back,1.0,m,Wed Mar 25 2026 10:10:03 GMT-0500 (Central Daylight Time),495809.89999985695,022_y_f_h_a.png,O,m,992,17,1,2006.2000000476837,493803.69999980927,7786,VNB,C,16
17,test,5,0.0,1-Back,1.0,m,Wed Mar 25 2026 10:10:03 GMT-0500 (Central Daylight Time),498142.7999999523,014_m_m_d_a.png,O,m,1300,18,1,2329.0,495813.7999999523,7786,VNB,C,17
0,prac,1,0.0,2-Back,,,Wed Mar 25 2026 10:10:03 GMT-0500 (Central Daylight Time),498142.7999999523,019_m_f_n_a.png,O,space,5842,1,1,2329.0,495813.7999999523,7786,VNB,C,0
0,prac,1,0.0,2-Back,,,Wed Mar 25 2026 10:10:03 GMT-0500 (Central Daylight Time),498142.7999999523,012_o_f_h_a.png,O,space,5842,2,1,2329.0,495813.7999999523,7786,VNB,C,0
1,prac,1,0.0,2-Back,1.0,m,Wed Mar 25 2026 10:10:03 GMT-0500 (Central Daylight Time),616422.399999857,015_o_m_d_a.png,O,m,1720,3,1,2575.7999999523163,613846.5999999046,7786,VNB,C,1
2,prac,1,1.0,2-Back,1.0,z,Wed Mar 25 2026 10:10:03 GMT-0500 (Central Daylight Time),619120.7999999523,014_m_m_h_a.png,O,z,1838,4,1,2689.0,616431.7999999523,7786,VNB,C,2
2,prac,1,0.0,2-Back,0.0,m,Wed Mar 25 2026 10:10:03 GMT-0500 (Central Daylight Time),621953.1999998093,022_y_f_n_a.png,O,z,1960,5,1,2826.5,619126.6999998093,7786,VNB,C,3
3,prac,1,1.0,2-Back,1.0,z,Wed Mar 25 2026 10:10:03 GMT-0500 (Central Daylight Time),624636.5,015_o_m_h_a.png,O,z,1895,6,1,2671.600000143051,621964.899999857,7786,VNB,C,4
3,prac,1,1.0,2-Back,0.0,z,Wed Mar 25 2026 10:10:03 GMT-0500 (Central Daylight Time),627007.5,025_y_m_n_a.png,O,m,1543,7,1,2364.600000143051,624642.899999857,7786,VNB,C,5
4,prac,1,0.0,2-Back,1.0,m,Wed Mar 25 2026 10:10:03 GMT-0500 (Central Daylight Time),629818.1999998093,019_m_f_d_a.png,O,m,1942,8,1,2804.5999999046326,627013.5999999046,7786,VNB,C,6
5,prac,1,0.0,2-Back,1.0,m,Wed Mar 25 2026 10:10:03 GMT-0500 (Central Daylight Time),632584.5999999046,012_o_f_d_a.png,O,m,1905,9,1,2757.2000000476837,629827.399999857,7786,VNB,C,7
5,prac,1,0.0,2-Back,0.0,m,Wed Mar 25 2026 10:10:03 GMT-0500 (Central Daylight Time),635350.7999999523,014_m_m_h_a.png,O,None,2003,10,1,2754.7000000476837,632596.0999999046,7786,VNB,C,8
5,prac,1,1.0,2-Back,0.0,z,Wed Mar 25 2026 10:10:03 GMT-0500 (Central Daylight Time),637780.6999998093,022_y_f_d_a.png,O,m,1565,11,1,2424.7999999523163,635355.899999857,7786,VNB,C,9
6,prac,1,0.0,2-Back,1.0,m,Wed Mar 25 2026 10:10:03 GMT-0500 (Central Daylight Time),640031.1999998093,015_o_m_n_a.png,O,m,1377,12,1,2242.399999856949,637788.7999999523,7786,VNB,C,10
0,prac,2,0.0,2-Back,,,Wed Mar 25 2026 10:10:03 GMT-0500 (Central Daylight Time),640031.1999998093,019_m_f_n_a.png,O,a,4721,1,1,2242.399999856949,637788.7999999523,7786,VNB,C,0
0,prac,2,0.0,2-Back,,,Wed Mar 25 2026 10:10:03 GMT-0500 (Central Daylight Time),640031.1999998093,012_o_f_h_a.png,O,a,4721,2,1,2242.399999856949,637788.7999999523,7786,VNB,C,0
0,prac,2,0.0,2-Back,0.0,m,Wed Mar 25 2026 10:10:03 GMT-0500 (Central Daylight Time),652312.0999999046,015_o_m_d_a.png,O,z,1460,3,1,2327.7000000476837,649984.399999857,7786,VNB,C,1
1,prac,2,1.0,2-Back,1.0,z,Wed Mar 25 2026 10:10:03 GMT-0500 (Central Daylight Time),654909.2999999523,014_m_m_h_a.png,O,z,1804,4,1,2586.7000000476837,652322.5999999046,7786,VNB,C,2
2,prac,2,0.0,2-Back,1.0,m,Wed Mar 25 2026 10:10:03 GMT-0500 (Central Daylight Time),657558.5999999046,022_y_f_n_a.png,O,m,1791,5,1,2645.7000000476837,654912.899999857,7786,VNB,C,3
3,prac,2,1.0,2-Back,1.0,z,Wed Mar 25 2026 10:10:03 GMT-0500 (Central Daylight Time),660025.5,015_o_m_h_a.png,O,z,1595,6,1,2456.600000143051,657568.899999857,7786,VNB,C,4
4,prac,2,1.0,2-Back,1.0,z,Wed Mar 25 2026 10:10:03 GMT-0500 (Central Daylight Time),662274.1999998093,025_y_m_n_a.png,O,z,1401,7,1,2243.5999999046326,660030.5999999046,7786,VNB,C,5
5,prac,2,0.0,2-Back,1.0,m,Wed Mar 25 2026 10:10:03 GMT-0500 (Central Daylight Time),664741.1999998093,019_m_f_d_a.png,O,m,1606,8,1,2455.7999999523163,662285.399999857,7786,VNB,C,6
5,prac,2,0.0,2-Back,0.0,m,Wed Mar 25 2026 10:10:03 GMT-0500 (Central Daylight Time),667140.7999999523,012_o_f_d_a.png,O,z,1539,9,1,2395.600000143051,664745.1999998093,7786,VNB,C,7
5,prac,2,0.0,2-Back,0.0,m,Wed Mar 25 2026 10:10:03 GMT-0500 (Central Daylight Time),669473.0,014_m_m_h_a.png,O,z,1540,10,1,2321.600000143051,667151.399999857,7786,VNB,C,8
6,prac,2,1.0,2-Back,1.0,z,Wed Mar 25 2026 10:10:03 GMT-0500 (Central Daylight Time),671656.399999857,022_y_f_d_a.png,O,z,1313,11,1,2178.899999856949,669477.5,7786,VNB,C,9
7,prac,2,0.0,2-Back,1.0,m,Wed Mar 25 2026 10:10:03 GMT-0500 (Central Daylight Time),673703.2999999523,015_o_m_n_a.png,O,m,1171,12,1,2036.6000001430511,671666.6999998093,7786,VNB,C,10
0,test,1,0.0,2-Back,,,Wed Mar 25 2026 10:10:03 GMT-0500 (Central Daylight Time),673703.2999999523,025_y_m_h_a.png,O,space,5309,1,1,2036.6000001430511,671666.6999998093,7786,VNB,C,0
0,test,1,0.0,2-Back,,,Wed Mar 25 2026 10:10:03 GMT-0500 (Central Daylight Time),673703.2999999523,012_o_f_n_a.png,O,space,5309,2,1,2036.6000001430511,671666.6999998093,7786,VNB,C,0
1,test,1,0.0,2-Back,1.0,z,Wed Mar 25 2026 10:10:03 GMT-0500 (Central Daylight Time),694929.6999998093,015_o_m_h_a.png,O,z,1085,3,1,2110.5,692819.1999998093,7786,VNB,C,1
2,test,1,0.0,2-Back,1.0,m,Wed Mar 25 2026 10:10:03 GMT-0500 (Central Daylight Time),697113.6999998093,019_m_f_d_a.png,O,m,1154,4,1,2181.399999856949,694932.2999999523,7786,VNB,C,2
2,test,1,1.0,2-Back,0.0,m,Wed Mar 25 2026 10:10:03 GMT-0500 (Central Daylight Time),699295.7999999523,025_y_m_n_a.png,O,z,1153,5,1,2179.4000000953674,697116.399999857,7786,VNB,C,3
3,test,1,0.0,2-Back,1.0,z,Wed Mar 25 2026 10:10:03 GMT-0500 (Central Daylight Time),701762.1999998093,022_y_f_d_a.png,O,z,1436,6,1,2456.7999999523163,699305.399999857,7786,VNB,C,4
4,test,1,0.0,2-Back,1.0,m,Wed Mar 25 2026 10:10:03 GMT-0500 (Central Daylight Time),704061.899999857,014_m_m_h_a.png,O,m,1282,7,1,2296.7999999523163,701765.0999999046,7786,VNB,C,5
4,test,1,1.0,2-Back,0.0,m,Wed Mar 25 2026 10:10:03 GMT-0500 (Central Daylight Time),706677.0,022_y_f_n_a.png,O,z,1592,8,1,2607.100000143051,704069.899999857,7786,VNB,C,6
4,test,1,0.0,2-Back,0.0,z,Wed Mar 25 2026 10:10:03 GMT-0500 (Central Daylight Time),708725.0999999046,012_o_f_h_a.png,O,m,1021,9,1,2045.7999999523163,706679.2999999523,7786,VNB,C,7
5,test,1,0.0,2-Back,1.0,m,Wed Mar 25 2026 10:10:03 GMT-0500 (Central Daylight Time),711441.5999999046,015_o_m_d_a.png,O,m,1684,10,1,2709.0,708732.5999999046,7786,VNB,C,8
5,test,1,1.0,2-Back,0.0,m,Wed Mar 25 2026 10:10:03 GMT-0500 (Central Daylight Time),714474.899999857,014_m_m_d_a.png,O,None,2017,11,1,3029.7999999523163,711445.0999999046,7786,VNB,C,9
6,test,1,0.0,2-Back,1.0,m,Wed Mar 25 2026 10:10:03 GMT-0500 (Central Daylight Time),717023.0,019_m_f_n_a.png,O,m,1529,12,1,2537.800000190735,714485.1999998093,7786,VNB,C,10
6,test,1,0.0,2-Back,0.0,m,Wed Mar 25 2026 10:10:03 GMT-0500 (Central Daylight Time),719555.5,022_y_f_h_a.png,O,z,1500,13,1,2527.300000190735,717028.1999998093,7786,VNB,C,11
7,test,1,0.0,2-Back,1.0,z,Wed Mar 25 2026 10:10:03 GMT-0500 (Central Daylight Time),721855.899999857,014_m_m_n_a.png,O,z,1272,14,1,2292.5,719563.399999857,7786,VNB,C,12
7,test,1,0.0,2-Back,0.0,m,Wed Mar 25 2026 10:10:03 GMT-0500 (Central Daylight Time),724020.7999999523,025_y_m_d_a.png,O,z,1147,15,1,2159.0,721861.7999999523,7786,VNB,C,13
8,test,1,1.0,2-Back,1.0,m,Wed Mar 25 2026 10:10:03 GMT-0500 (Central Daylight Time),726103.5,019_m_f_h_a.png,O,m,1062,16,1,2076.0,724027.5,7786,VNB,C,14
9,test,1,0.0,2-Back,1.0,z,Wed Mar 25 2026 10:10:03 GMT-0500 (Central Daylight Time),728737.0999999046,012_o_f_d_a.png,O,z,1604,17,1,2629.4000000953674,726107.6999998093,7786,VNB,C,15
10,test,1,0.0,2-Back,1.0,m,Wed Mar 25 2026 10:10:03 GMT-0500 (Central Daylight Time),730902.1999998093,015_o_m_n_a.png,O,m,1146,18,1,2157.199999809265,728745.0,7786,VNB,C,16
0,test,2,0.0,2-Back,,,Wed Mar 25 2026 10:10:03 GMT-0500 (Central Daylight Time),730902.1999998093,014_m_m_h_a.png,O,space,1996,1,1,2157.199999809265,728745.0,7786,VNB,C,0
0,test,2,0.0,2-Back,,,Wed Mar 25 2026 10:10:03 GMT-0500 (Central Daylight Time),730902.1999998093,022_y_f_n_a.png,O,space,1996,2,1,2157.199999809265,728745.0,7786,VNB,C,0
1,test,2,1.0,2-Back,1.0,z,Wed Mar 25 2026 10:10:03 GMT-0500 (Central Daylight Time),740248.7999999523,012_o_f_h_a.png,O,z,1119,3,1,2145.4000000953674,738103.399999857,7786,VNB,C,1
2,test,2,0.0,2-Back,1.0,m,Wed Mar 25 2026 10:10:03 GMT-0500 (Central Daylight Time),742982.1999998093,015_o_m_d_a.png,O,m,1708,4,1,2723.2999999523163,740258.899999857,7786,VNB,C,2
3,test,2,0.0,2-Back,1.0,m,Wed Mar 25 2026 10:10:03 GMT-0500 (Central Daylight Time),745765.1999998093,019_m_f_d_a.png,O,m,1757,5,1,2779.199999809265,742986.0,7786,VNB,C,3
3,test,2,0.0,2-Back,0.0,m,Wed Mar 25 2026 10:10:03 GMT-0500 (Central Daylight Time),748795.5999999046,025_y_m_h_a.png,O,None,2013,6,1,3021.4000000953674,745774.1999998093,7786,VNB,C,4
4,test,2,0.0,2-Back,1.0,m,Wed Mar 25 2026 10:10:03 GMT-0500 (Central Daylight Time),751779.2999999523,012_o_f_n_a.png,O,m,1959,7,1,2980.100000143051,748799.1999998093,7786,VNB,C,5
5,test,2,1.0,2-Back,1.0,z,Wed Mar 25 2026 10:10:03 GMT-0500 (Central Daylight Time),754229.399999857,015_o_m_h_a.png,O,z,1432,8,1,2442.5999999046326,751786.7999999523,7786,VNB,C,6
5,test,2,0.0,2-Back,0.0,m,Wed Mar 25 2026 10:10:03 GMT-0500 (Central Daylight Time),756694.0999999046,022_y_f_d_a.png,O,z,1446,9,1,2460.7999999523163,754233.2999999523,7786,VNB,C,7
6,test,2,0.0,2-Back,1.0,m,Wed Mar 25 2026 10:10:03 GMT-0500 (Central Daylight Time),759392.5999999046,025_y_m_d_a.png,O,m,1669,10,1,2691.2000000476837,756701.399999857,7786,VNB,C,8
7,test,2,0.0,2-Back,1.0,m,Wed Mar 25 2026 10:10:03 GMT-0500 (Central Daylight Time),761892.399999857,014_m_m_n_a.png,O,m,1474,11,1,2497.399999856949,759395.0,7786,VNB,C,9
8,test,2,0.0,2-Back,1.0,m,Wed Mar 25 2026 10:10:03 GMT-0500 (Central Daylight Time),764292.0999999046,019_m_f_h_a.png,O,m,1383,12,1,2391.0,761901.0999999046,7786,VNB,C,10
9,test,2,1.0,2-Back,1.0,z,Wed Mar 25 2026 10:10:03 GMT-0500 (Central Daylight Time),766874.7999999523,015_o_m_n_a.png,O,z,1550,13,1,2579.2999999523163,764295.5,7786,VNB,C,11
9,test,2,0.0,2-Back,0.0,m,Wed Mar 25 2026 10:10:03 GMT-0500 (Central Daylight Time),769357.1999998093,012_o_f_d_a.png,O,z,1467,14,1,2472.899999856949,766884.2999999523,7786,VNB,C,12
10,test,2,0.0,2-Back,1.0,m,Wed Mar 25 2026 10:10:03 GMT-0500 (Central Daylight Time),771106.399999857,022_y_f_h_a.png,O,m,717,15,1,1744.5,769361.899999857,7786,VNB,C,13
10,test,2,0.0,2-Back,0.0,z,Wed Mar 25 2026 10:10:03 GMT-0500 (Central Daylight Time),774139.7999999523,014_m_m_d_a.png,O,None,2017,16,1,3025.7000000476837,771114.0999999046,7786,VNB,C,14
11,test,2,0.0,2-Back,1.0,m,Wed Mar 25 2026 10:10:03 GMT-0500 (Central Daylight Time),776671.0,025_y_m_n_a.png,O,m,1505,17,1,2527.800000190735,774143.1999998093,7786,VNB,C,15
12,test,2,1.0,2-Back,1.0,m,Wed Mar 25 2026 10:10:03 GMT-0500 (Central Daylight Time),779221.0999999046,019_m_f_n_a.png,O,m,1533,18,1,2546.0,776675.0999999046,7786,VNB,C,16
0,test,3,1.0,2-Back,,,Wed Mar 25 2026 10:10:03 GMT-0500 (Central Daylight Time),779221.0999999046,015_o_m_n_a.png,O,space,1699,1,1,2546.0,776675.0999999046,7786,VNB,C,0
0,test,3,1.0,2-Back,,,Wed Mar 25 2026 10:10:03 GMT-0500 (Central Daylight Time),779221.0999999046,012_o_f_d_a.png,O,space,1699,2,1,2546.0,776675.0999999046,7786,VNB,C,0
1,test,3,0.0,2-Back,1.0,m,Wed Mar 25 2026 10:10:03 GMT-0500 (Central Daylight Time),788000.2999999523,022_y_f_h_a.png,O,m,985,3,1,2012.0,785988.2999999523,7786,VNB,C,1
2,test,3,0.0,2-Back,1.0,z,Wed Mar 25 2026 10:10:03 GMT-0500 (Central Daylight Time),790098.7999999523,019_m_f_d_a.png,O,z,1074,4,1,2091.7000000476837,788007.0999999046,7786,VNB,C,2
2,test,3,1.0,2-Back,0.0,m,Wed Mar 25 2026 10:10:03 GMT-0500 (Central Daylight Time),792316.5999999046,025_y_m_n_a.png,O,z,1207,5,1,2216.2000000476837,790100.399999857,7786,VNB,C,3
3,test,3,0.0,2-Back,1.0,m,Wed Mar 25 2026 10:10:03 GMT-0500 (Central Daylight Time),794631.1999998093,015_o_m_h_a.png,O,m,1283,6,1,2305.5999999046326,792325.5999999046,7786,VNB,C,4
4,test,3,0.0,2-Back,1.0,z,Wed Mar 25 2026 10:10:03 GMT-0500 (Central Daylight Time),797231.5999999046,022_y_f_n_a.png,O,z,1571,7,1,2598.5999999046326,794633.0,7786,VNB,C,5
4,test,3,1.0,2-Back,0.0,m,Wed Mar 25 2026 10:10:03 GMT-0500 (Central Daylight Time),799781.0999999046,014_m_m_d_a.png,O,z,1530,8,1,2542.2999999523163,797238.7999999523,7786,VNB,C,6
5,test,3,0.0,2-Back,1.0,m,Wed Mar 25 2026 10:10:03 GMT-0500 (Central Daylight Time),802362.899999857,025_y_m_d_a.png,O,m,1550,9,1,2579.5999999046326,799783.2999999523,7786,VNB,C,7
5,test,3,0.0,2-Back,0.0,m,Wed Mar 25 2026 10:10:03 GMT-0500 (Central Daylight Time),805095.5,012_o_f_h_a.png,O,z,1705,10,1,2725.100000143051,802370.399999857,7786,VNB,C,8
6,test,3,1.0,2-Back,1.0,m,Wed Mar 25 2026 10:10:03 GMT-0500 (Central Daylight Time),807527.7999999523,019_m_f_n_a.png,O,m,1404,11,1,2430.600000143051,805097.1999998093,7786,VNB,C,9
6,test,3,1.0,2-Back,0.0,z,Wed Mar 25 2026 10:10:03 GMT-0500 (Central Daylight Time),810245.7999999523,014_m_m_h_a.png,O,m,1692,12,1,2708.2999999523163,807537.5,7786,VNB,C,10
6,test,3,0.0,2-Back,0.0,m,Wed Mar 25 2026 10:10:03 GMT-0500 (Central Daylight Time),812759.899999857,022_y_f_d_a.png,O,z,1484,13,1,2511.2000000476837,810248.6999998093,7786,VNB,C,11
6,test,3,0.0,2-Back,0.0,m,Wed Mar 25 2026 10:10:03 GMT-0500 (Central Daylight Time),815359.2999999523,012_o_f_n_a.png,O,z,1572,14,1,2592.2999999523163,812767.0,7786,VNB,C,12
6,test,3,0.0,2-Back,0.0,z,Wed Mar 25 2026 10:10:03 GMT-0500 (Central Daylight Time),818025.1999998093,015_o_m_d_a.png,O,m,1633,15,1,2659.7999999523163,815365.399999857,7786,VNB,C,13
6,test,3,1.0,2-Back,0.0,m,Wed Mar 25 2026 10:10:03 GMT-0500 (Central Daylight Time),820590.399999857,019_m_f_h_a.png,O,z,1538,16,1,2559.5,818030.899999857,7786,VNB,C,14
7,test,3,0.0,2-Back,1.0,m,Wed Mar 25 2026 10:10:03 GMT-0500 (Central Daylight Time),823573.6999998093,014_m_m_n_a.png,O,m,1965,17,1,2980.0,820593.6999998093,7786,VNB,C,15
7,test,3,0.0,2-Back,0.0,z,Wed Mar 25 2026 10:10:03 GMT-0500 (Central Daylight Time),826271.6999998093,025_y_m_h_a.png,O,m,1682,18,1,2694.0,823577.6999998093,7786,VNB,C,16
0,test,4,0.0,2-Back,,,Wed Mar 25 2026 10:10:03 GMT-0500 (Central Daylight Time),826271.6999998093,019_m_f_n_a.png,O,space,1966,1,1,2694.0,823577.6999998093,7786,VNB,C,0
0,test,4,0.0,2-Back,,,Wed Mar 25 2026 10:10:03 GMT-0500 (Central Daylight Time),826271.6999998093,015_o_m_n_a.png,O,space,1966,2,1,2694.0,823577.6999998093,7786,VNB,C,0
1,test,4,1.0,2-Back,1.0,m,Wed Mar 25 2026 10:10:03 GMT-0500 (Central Daylight Time),835621.1999998093,025_y_m_h_a.png,O,m,1135,3,1,2163.7999999523163,833457.399999857,7786,VNB,C,1
2,test,4,1.0,2-Back,1.0,m,Wed Mar 25 2026 10:10:03 GMT-0500 (Central Daylight Time),837919.5,012_o_f_d_a.png,O,m,1273,4,1,2287.5,835632.0,7786,VNB,C,2
3,test,4,0.0,2-Back,1.0,z,Wed Mar 25 2026 10:10:03 GMT-0500 (Central Daylight Time),840368.399999857,015_o_m_h_a.png,O,z,1419,5,1,2443.7000000476837,837924.6999998093,7786,VNB,C,3
3,test,4,0.0,2-Back,0.0,m,Wed Mar 25 2026 10:10:03 GMT-0500 (Central Daylight Time),843234.2999999523,014_m_m_n_a.png,O,z,1837,6,1,2857.0,840377.2999999523,7786,VNB,C,4
3,test,4,0.0,2-Back,0.0,m,Wed Mar 25 2026 10:10:03 GMT-0500 (Central Daylight Time),845516.1999998093,019_m_f_d_a.png,O,z,1258,7,1,2278.0999999046326,843238.0999999046,7786,VNB,C,5
4,test,4,0.0,2-Back,1.0,z,Wed Mar 25 2026 10:10:03 GMT-0500 (Central Daylight Time),848015.6999998093,022_y_f_n_a.png,O,z,1466,8,1,2492.2999999523163,845523.399999857,7786,VNB,C,6
5,test,4,1.0,2-Back,1.0,m,Wed Mar 25 2026 10:10:03 GMT-0500 (Central Daylight Time),850382.0999999046,012_o_f_h_a.png,O,m,1350,9,1,2361.2000000476837,848020.899999857,7786,VNB,C,7
6,test,4,0.0,2-Back,1.0,m,Wed Mar 25 2026 10:10:03 GMT-0500 (Central Daylight Time),853180.6999998093,014_m_m_h_a.png,O,m,1775,10,1,2790.7999999523163,850389.899999857,7786,VNB,C,8
6,test,4,0.0,2-Back,0.0,m,Wed Mar 25 2026 10:10:03 GMT-0500 (Central Daylight Time),855179.899999857,022_y_f_d_a.png,O,z,967,11,1,1996.0999999046326,853183.7999999523,7786,VNB,C,9
7,test,4,0.0,2-Back,1.0,m,Wed Mar 25 2026 10:10:03 GMT-0500 (Central Daylight Time),857961.5,025_y_m_n_a.png,O,m,1759,12,1,2772.7000000476837,855188.7999999523,7786,VNB,C,10
7,test,4,0.0,2-Back,0.0,z,Wed Mar 25 2026 10:10:03 GMT-0500 (Central Daylight Time),860478.1999998093,015_o_m_d_a.png,O,m,1490,13,1,2513.0,857965.1999998093,7786,VNB,C,11
7,test,4,1.0,2-Back,0.0,m,Wed Mar 25 2026 10:10:03 GMT-0500 (Central Daylight Time),863510.0,019_m_f_h_a.png,O,None,2015,14,1,3021.0,860489.0,7786,VNB,C,12
7,test,4,1.0,2-Back,0.0,m,Wed Mar 25 2026 10:10:03 GMT-0500 (Central Daylight Time),866543.2999999523,022_y_f_h_a.png,O,None,2016,15,1,3027.4000000953674,863515.899999857,7786,VNB,C,13
8,test,4,0.0,2-Back,1.0,m,Wed Mar 25 2026 10:10:03 GMT-0500 (Central Daylight Time),868891.399999857,012_o_f_n_a.png,O,m,1324,16,1,2337.2999999523163,866554.0999999046,7786,VNB,C,14
9,test,4,0.0,2-Back,1.0,m,Wed Mar 25 2026 10:10:03 GMT-0500 (Central Daylight Time),871523.899999857,025_y_m_d_a.png,O,m,1600,17,1,2629.2999999523163,868894.5999999046,7786,VNB,C,15
9,test,4,1.0,2-Back,0.0,m,Wed Mar 25 2026 10:10:03 GMT-0500 (Central Daylight Time),873690.899999857,014_m_m_d_a.png,O,z,1135,18,1,2159.899999856949,871531.0,7786,VNB,C,16
0,test,5,1.0,2-Back,,,Wed Mar 25 2026 10:10:03 GMT-0500 (Central Daylight Time),873690.899999857,022_y_f_d_a.png,O,space,1271,1,1,2159.899999856949,871531.0,7786,VNB,C,0
0,test,5,1.0,2-Back,,,Wed Mar 25 2026 10:10:03 GMT-0500 (Central Daylight Time),873690.899999857,012_o_f_h_a.png,O,space,1271,2,1,2159.899999856949,871531.0,7786,VNB,C,0
1,test,5,1.0,2-Back,1.0,z,Wed Mar 25 2026 10:10:03 GMT-0500 (Central Daylight Time),882055.6999998093,015_o_m_d_a.png,O,z,846,3,1,1866.2999999523163,880189.399999857,7786,VNB,C,1
2,test,5,1.0,2-Back,1.0,m,Wed Mar 25 2026 10:10:03 GMT-0500 (Central Daylight Time),884336.6999998093,019_m_f_n_a.png,O,m,1262,4,1,2270.399999856949,882066.2999999523,7786,VNB,C,2
2,test,5,0.0,2-Back,0.0,m,Wed Mar 25 2026 10:10:03 GMT-0500 (Central Daylight Time),887103.0999999046,014_m_m_h_a.png,O,z,1739,5,1,2764.4000000953674,884338.6999998093,7786,VNB,C,3
3,test,5,0.0,2-Back,1.0,z,Wed Mar 25 2026 10:10:03 GMT-0500 (Central Daylight Time),889384.399999857,022_y_f_n_a.png,O,z,1261,6,1,2274.0999999046326,887110.2999999523,7786,VNB,C,4
4,test,5,0.0,2-Back,1.0,m,Wed Mar 25 2026 10:10:03 GMT-0500 (Central Daylight Time),891568.2999999523,012_o_f_d_a.png,O,m,1163,7,1,2182.0,889386.2999999523,7786,VNB,C,5
5,test,5,0.0,2-Back,1.0,m,Wed Mar 25 2026 10:10:03 GMT-0500 (Central Daylight Time),894368.0999999046,015_o_m_h_a.png,O,m,1769,8,1,2790.5,891577.5999999046,7786,VNB,C,6
6,test,5,1.0,2-Back,1.0,z,Wed Mar 25 2026 10:10:03 GMT-0500 (Central Daylight Time),896582.899999857,019_m_f_d_a.png,O,z,1187,9,1,2210.899999856949,894372.0,7786,VNB,C,7
6,test,5,0.0,2-Back,0.0,m,Wed Mar 25 2026 10:10:03 GMT-0500 (Central Daylight Time),899332.2999999523,025_y_m_n_a.png,O,z,1731,10,1,2740.4000000953674,896591.899999857,7786,VNB,C,8
7,test,5,0.0,2-Back,1.0,m,Wed Mar 25 2026 10:10:03 GMT-0500 (Central Daylight Time),901765.399999857,014_m_m_n_a.png,O,m,1411,11,1,2430.399999856949,899335.0,7786,VNB,C,9
7,test,5,0.0,2-Back,0.0,m,Wed Mar 25 2026 10:10:03 GMT-0500 (Central Daylight Time),903964.2999999523,022_y_f_h_a.png,O,z,1173,12,1,2191.9000000953674,901772.399999857,7786,VNB,C,10
7,test,5,0.0,2-Back,0.0,m,Wed Mar 25 2026 10:10:03 GMT-0500 (Central Daylight Time),906780.6999998093,025_y_m_d_a.png,O,z,1783,13,1,2814.0999999046326,903966.5999999046,7786,VNB,C,11
8,test,5,1.0,2-Back,1.0,z,Wed Mar 25 2026 10:10:03 GMT-0500 (Central Daylight Time),909379.0999999046,019_m_f_h_a.png,O,z,1566,14,1,2590.4000000953674,906788.6999998093,7786,VNB,C,12
9,test,5,0.0,2-Back,1.0,m,Wed Mar 25 2026 10:10:03 GMT-0500 (Central Daylight Time),911495.2999999523,015_o_m_n_a.png,O,m,1083,15,1,2112.7999999523163,909382.5,7786,VNB,C,13
9,test,5,0.0,2-Back,0.0,m,Wed Mar 25 2026 10:10:03 GMT-0500 (Central Daylight Time),913679.0,014_m_m_d_a.png,O,z,1168,16,1,2179.100000143051,911499.899999857,7786,VNB,C,14
9,test,5,0.0,2-Back,0.0,z,Wed Mar 25 2026 10:10:03 GMT-0500 (Central Daylight Time),916711.399999857,012_o_f_n_a.png,O,None,2015,17,1,3029.2000000476837,913682.1999998093,7786,VNB,C,15
10,test,5,1.0,2-Back,1.0,m,Wed Mar 25 2026 10:10:03 GMT-0500 (Central Daylight Time),919659.5999999046,025_y_m_h_a.png,O,m,1917,18,1,2941.2000000476837,916718.399999857,7786,VNB,C,16
