acc_sum,block_c,block_dur,condition,correct,correct_response,countdown,datetime,endtime,project,response,response_time,response_time_test1_response,response_time_test2_response,row_sel,same,session_number,start_end,starttime,stim1,stim2,subject_id,task,task_vers,time_test1,time_test2,trial
1,1,0.0,prac,1,z,30000.0,Tue Feb 10 2026 13:42:50 GMT-0500 (Eastern Standard Time),36873.5,I,z,2642,,,6,yes,2,4175.0,32698.5,CSDBFPHXZ,CSDBFPHXZ,9029,LC,A,,,1
2,1,0.0,prac,1,z,30000.0,Tue Feb 10 2026 13:42:50 GMT-0500 (Eastern Standard Time),40489.900000572205,I,z,2072,,,2,yes,2,3605.5,36884.400000572205,NBGFSM,NBGFSM,9029,LC,A,,,2
3,1,0.0,prac,1,z,30000.0,Tue Feb 10 2026 13:42:50 GMT-0500 (Eastern Standard Time),43406.60000038147,I,z,1384,,,4,yes,2,2906.1000003814697,40500.5,RSM,RSM,9029,LC,A,,,3
4,1,0.0,prac,1,m,30000.0,Tue Feb 10 2026 13:42:50 GMT-0500 (Eastern Standard Time),48106.60000038147,I,m,3173,,,5,no,2,4689.699999809265,43416.900000572205,LNDPRSKQB,LNDPRSJQB,9029,LC,A,,,4
5,1,0.0,prac,1,m,30000.0,Tue Feb 10 2026 13:42:50 GMT-0500 (Eastern Standard Time),51256.60000038147,I,m,1608,,,1,no,2,3139.800000190735,48116.800000190735,RNV,FNV,9029,LC,A,,,5
6,1,0.0,prac,1,m,30000.0,Tue Feb 10 2026 13:42:50 GMT-0500 (Eastern Standard Time),54406.5,I,m,1610,,,3,no,2,3140.5,51266.0,QHZXPC,QHZWPC,9029,LC,A,,,6
1,1,1.4170000553131104,test,1,m,28582.99994468689,Tue Feb 10 2026 13:42:50 GMT-0500 (Eastern Standard Time),62990.5,I,m,1408,1408,,1,no,2,1410.2999992370605,61580.20000076294,HCF,RCF,9029,LC,A,59647,,1
2,1,3.865999937057495,test,1,m,26134.000062942505,Tue Feb 10 2026 13:42:50 GMT-0500 (Eastern Standard Time),65439.800000190735,I,m,2438,2438,,2,no,2,2441.0999994277954,62998.70000076294,QTPRJX,QTPNJX,9029,LC,A,61065,,2
3,1,6.08299994468689,test,1,m,23917.00005531311,Tue Feb 10 2026 13:42:50 GMT-0500 (Eastern Standard Time),67656.20000076294,I,m,2197,2197,,3,no,2,2208.800000190735,65447.400000572205,MZDYGVGKQ,MZDYGLBKQ,9029,LC,A,63514,,3
4,1,7.848999977111816,test,1,m,22151.000022888184,Tue Feb 10 2026 13:42:50 GMT-0500 (Eastern Standard Time),69423.0,I,m,1760,1760,,4,no,2,1762.6999998092651,67660.30000019073,FQTNMK,JQTNMK,9029,LC,A,65727,,4
5,1,9.032999992370605,test,1,z,20967.000007629395,Tue Feb 10 2026 13:42:50 GMT-0500 (Eastern Standard Time),70606.4000005722,I,z,1175,1175,,5,yes,2,1176.4000005722046,69430.0,CLJ,CLJ,9029,LC,A,67496,,5
5,1,12.233000040054321,test,0,m,17766.99995994568,Tue Feb 10 2026 13:42:50 GMT-0500 (Eastern Standard Time),73806.10000038147,I,z,3190,3190,,6,no,2,3191.8999996185303,70614.20000076294,JGDMNSVPW,JGZMNSVPW,9029,LC,A,68681,,6
6,1,15.099999904632568,test,1,z,14900.000095367432,Tue Feb 10 2026 13:42:50 GMT-0500 (Eastern Standard Time),76673.20000076294,I,z,2858,2858,,7,yes,2,2862.5,73810.70000076294,FPTVHKCBJ,FPTVHKCBJ,9029,LC,A,71877,,7
7,1,16.266000032424927,test,1,m,13733.999967575073,Tue Feb 10 2026 13:42:50 GMT-0500 (Eastern Standard Time),77839.60000038147,I,m,1157,1157,,8,no,2,1159.0,76680.60000038147,XRPZBS,ZRPBDH,9029,LC,A,74747,,8
8,1,17.649999856948853,test,1,m,12350.000143051147,Tue Feb 10 2026 13:42:50 GMT-0500 (Eastern Standard Time),79223.20000076294,I,m,1365,1365,,9,no,2,1376.0,77847.20000076294,ZSQ,ZSP,9029,LC,A,75914,,9
9,1,20.682999849319458,test,1,z,9317.000150680542,Tue Feb 10 2026 13:42:50 GMT-0500 (Eastern Standard Time),82256.5,I,z,3021,3021,,10,yes,2,3024.8999996185303,79231.60000038147,MPZRXL,MPZRXL,9029,LC,A,77298,,10
10,1,21.73300004005432,test,1,m,8266.999959945679,Tue Feb 10 2026 13:42:50 GMT-0500 (Eastern Standard Time),83306.60000038147,I,m,1027,1027,,11,no,2,1040.6999998092651,82265.9000005722,KJH,KRH,9029,LC,A,80332,,11
11,1,24.75,test,1,z,5250.0,Tue Feb 10 2026 13:42:50 GMT-0500 (Eastern Standard Time),86323.30000019073,I,z,3003,3003,,12,yes,2,3009.699999809265,83313.60000038147,SMNHVTFCB,SMNHVTFCB,9029,LC,A,81380,,12
12,1,26.432999849319458,test,1,z,3567.000150680542,Tue Feb 10 2026 13:42:50 GMT-0500 (Eastern Standard Time),88006.5,I,z,1667,1667,,13,yes,2,1676.0999994277954,86330.4000005722,KJWTQF,KJWTQF,9029,LC,A,84397,,13
13,1,29.632999897003174,test,1,z,367.0001029968262,Tue Feb 10 2026 13:42:50 GMT-0500 (Eastern Standard Time),91206.60000038147,I,z,3180,3180,,14,yes,2,3189.8999996185303,88016.70000076294,CHDKQGLMB,CHDKQGLMB,9029,LC,A,86083,,14
13,1,30.016000032424927,test,0,z,-16.000032424926758,Tue Feb 10 2026 13:42:50 GMT-0500 (Eastern Standard Time),91590.10000038147,I,None,374,374,,15,yes,2,374.80000019073486,91215.30000019073,GHQ,GHQ,9029,LC,A,89282,,15
1,2,4.950000047683716,test,1,z,25049.999952316284,Tue Feb 10 2026 13:42:50 GMT-0500 (Eastern Standard Time),98073.20000076294,I,z,4932,,4932.0,1,yes,2,6857.900000572205,91215.30000019073,PRDBZTYFN,PRDBZTYFN,9029,LC,A,,91196.0,1
2,2,6.266000032424927,test,1,m,23733.999967575073,Tue Feb 10 2026 13:42:50 GMT-0500 (Eastern Standard Time),99389.9000005722,I,m,1291,,1291.0,2,no,2,8174.60000038147,91215.30000019073,NCWJDZ,NCMJDZ,9029,LC,A,,96148.0,2
3,2,7.565999984741211,test,1,m,22434.00001525879,Tue Feb 10 2026 13:42:50 GMT-0500 (Eastern Standard Time),100689.9000005722,I,m,1285,,1285.0,3,no,2,9474.60000038147,91215.30000019073,KHW,KBW,9029,LC,A,,97466.0,3
4,2,9.666000127792358,test,1,m,20333.99987220764,Tue Feb 10 2026 13:42:50 GMT-0500 (Eastern Standard Time),102789.9000005722,I,m,2083,,2083.0,4,no,2,11574.60000038147,91215.30000019073,ZRBGMF,ZRBCMF,9029,LC,A,,98764.0,4
5,2,10.966000080108643,test,1,m,19033.999919891357,Tue Feb 10 2026 13:42:50 GMT-0500 (Eastern Standard Time),104089.80000019073,I,m,1279,,1279.0,5,no,2,12874.5,91215.30000019073,BTH,BYH,9029,LC,A,,100864.0,5
6,2,13.966000080108643,test,1,z,16033.999919891357,Tue Feb 10 2026 13:42:50 GMT-0500 (Eastern Standard Time),107089.80000019073,I,z,2987,,2987.0,6,yes,2,15874.5,91215.30000019073,XWKQRYCNZ,XWKQRYCNZ,9029,LC,A,,102164.0,6
7,2,16.516000032424927,test,1,z,13483.999967575073,Tue Feb 10 2026 13:42:50 GMT-0500 (Eastern Standard Time),109640.0,I,z,2532,,2532.0,7,yes,2,18424.699999809265,91215.30000019073,HNPDLK,HNPDLK,9029,LC,A,,105164.0,7
8,2,19.848999977111816,test,1,m,10151.000022888184,Tue Feb 10 2026 13:42:50 GMT-0500 (Eastern Standard Time),112972.80000019073,I,m,3307,,3307.0,8,no,2,21757.5,91215.30000019073,WMQTRSGLZ,WMQTRZGLZ,9029,LC,A,,107716.0,8
9,2,21.1489999294281,test,1,z,8851.0000705719,Tue Feb 10 2026 13:42:50 GMT-0500 (Eastern Standard Time),114273.10000038147,I,z,1292,,1292.0,9,yes,2,23057.800000190735,91215.30000019073,JPN,JPN,9029,LC,A,,111043.0,9
10,2,22.532999992370605,test,1,m,7467.0000076293945,Tue Feb 10 2026 13:42:50 GMT-0500 (Eastern Standard Time),115656.60000038147,I,m,1364,,1364.0,10,no,2,24441.300000190735,91215.30000019073,QLXSVT,QLNSVT,9029,LC,A,,112347.0,10
11,2,26.782999992370605,test,1,z,3217.0000076293945,Tue Feb 10 2026 13:42:50 GMT-0500 (Eastern Standard Time),119906.4000005722,I,z,4238,,4238.0,11,yes,2,28691.10000038147,91215.30000019073,YXHKZVFPB,YXHKZVFPD,9029,LC,A,,113730.0,11
12,2,28.382999897003174,test,1,z,1617.0001029968262,Tue Feb 10 2026 13:42:50 GMT-0500 (Eastern Standard Time),121506.5,I,z,1587,,1587.0,12,yes,2,30291.199999809265,91215.30000019073,RJZ,RJZ,9029,LC,A,,117980.0,12
13,2,29.75,test,1,z,250.0,Tue Feb 10 2026 13:42:50 GMT-0500 (Eastern Standard Time),122873.10000038147,I,z,1347,,1347.0,13,yes,2,31657.800000190735,91215.30000019073,CLNPZD,CLNPZD,9029,LC,A,,119580.0,13
13,2,30.016000032424927,test,0,m,-16.000032424926758,Tue Feb 10 2026 13:42:50 GMT-0500 (Eastern Standard Time),123139.9000005722,I,None,258,,258.0,14,no,2,31924.60000038147,91215.30000019073,DCBPFHXYJ,DCBPFHLYJ,9029,LC,A,,120948.0,14
