acc_sum,block_c,block_dur,condition,correct,correct_response,countdown,datetime,endtime,project,response,response_time,response_time_test1_response,response_time_test2_response,row_sel,same,session_number,start_end,starttime,stim1,stim2,subject_id,task,task_vers,time_test1,time_test2,trial
0,1,0.0,prac,0,z,30000.0,Wed Nov 05 2025 17:34:59 GMT-0500 (Eastern Standard Time),32319.69999999972,I,m,1718,,,4,yes,1,3241.1999999997206,29078.5,RSM,RSM,9029,LC,B,,,1
1,1,0.0,prac,1,m,30000.0,Wed Nov 05 2025 17:34:59 GMT-0500 (Eastern Standard Time),36086.19999999972,I,m,2225,,,3,no,1,3755.2999999998137,32330.899999999907,QHZXPC,QHZWPC,9029,LC,B,,,2
2,1,0.0,prac,1,z,30000.0,Wed Nov 05 2025 17:34:59 GMT-0500 (Eastern Standard Time),39702.89999999991,I,z,2077,,,2,yes,1,3607.399999999907,36095.5,NBGFSM,NBGFSM,9029,LC,B,,,3
3,1,0.0,prac,1,z,30000.0,Wed Nov 05 2025 17:34:59 GMT-0500 (Eastern Standard Time),45386.19999999972,I,z,4141,,,6,yes,1,5674.699999999721,39711.5,CSDBFPHXZ,CSDBFPHXZ,9029,LC,B,,,4
4,1,0.0,prac,1,m,30000.0,Wed Nov 05 2025 17:34:59 GMT-0500 (Eastern Standard Time),47902.89999999991,I,m,977,,,1,no,1,2500.5,45402.39999999991,RNV,FNV,9029,LC,B,,,5
5,1,0.0,prac,1,m,30000.0,Wed Nov 05 2025 17:34:59 GMT-0500 (Eastern Standard Time),51936.19999999972,I,m,2500,,,5,no,1,4023.6999999997206,47912.5,LNDPRSKQB,LNDPRSJQB,9029,LC,B,,,6
1,1,1.383000135421753,test,1,m,28616.999864578247,Wed Nov 05 2025 17:34:59 GMT-0500 (Eastern Standard Time),61269.89999999991,I,m,1368,1368,,1,no,1,1376.8999999999069,59893.0,HCF,RCF,9029,LC,B,52767,,1
2,1,3.3330001831054688,test,1,m,26666.99981689453,Wed Nov 05 2025 17:34:59 GMT-0500 (Eastern Standard Time),63219.59999999963,I,m,1936,1936,,2,no,1,1942.7999999998137,61276.799999999814,QTPRJX,QTPNJX,9029,LC,B,54151,,2
3,1,5.633000135421753,test,1,m,24366.999864578247,Wed Nov 05 2025 17:34:59 GMT-0500 (Eastern Standard Time),65519.09999999963,I,m,2289,2289,,3,no,1,2292.2999999998137,63226.799999999814,MZDYGVGKQ,MZDYGLBKQ,9029,LC,B,56101,,3
4,1,6.767000198364258,test,1,m,23232.999801635742,Wed Nov 05 2025 17:34:59 GMT-0500 (Eastern Standard Time),66653.0,I,m,1113,1113,,4,no,1,1129.4000000003725,65523.59999999963,FQTNMK,JQTNMK,9029,LC,B,58398,,4
5,1,8.25,test,1,z,21750.0,Wed Nov 05 2025 17:34:59 GMT-0500 (Eastern Standard Time),68136.3999999999,I,z,1462,1462,,5,yes,1,1474.3999999999069,66662.0,CLJ,CLJ,9029,LC,B,59537,,5
5,1,11.25,test,0,m,18750.0,Wed Nov 05 2025 17:34:59 GMT-0500 (Eastern Standard Time),71136.19999999972,I,z,2988,2988,,6,no,1,2991.7999999998137,68144.3999999999,JGDMNSVPW,JGZMNSVPW,9029,LC,B,61019,,6
6,1,14.467000007629395,test,1,z,15532.999992370605,Wed Nov 05 2025 17:34:59 GMT-0500 (Eastern Standard Time),74353.09999999963,I,z,3205,3205,,7,yes,1,3210.0,71143.09999999963,FPTVHKCBJ,FPTVHKCBJ,9029,LC,B,64018,,7
7,1,15.567000150680542,test,1,m,14432.999849319458,Wed Nov 05 2025 17:34:59 GMT-0500 (Eastern Standard Time),75453.3999999999,I,m,1086,1086,,8,no,1,1087.6000000000931,74365.79999999981,XRPZBS,ZRPBDH,9029,LC,B,67241,,8
8,1,16.867000102996826,test,1,m,13132.999897003174,Wed Nov 05 2025 17:34:59 GMT-0500 (Eastern Standard Time),76753.0,I,m,1288,1288,,9,no,1,1292.8000000002794,75460.19999999972,ZSQ,ZSP,9029,LC,B,68335,,9
8,1,18.450000047683716,test,0,z,11549.999952316284,Wed Nov 05 2025 17:34:59 GMT-0500 (Eastern Standard Time),78336.19999999972,I,m,1572,1572,,10,yes,1,1575.3999999999069,76760.79999999981,MPZRXL,MPZRXL,9029,LC,B,69635,,10
9,1,19.782999992370605,test,1,m,10217.000007629395,Wed Nov 05 2025 17:34:59 GMT-0500 (Eastern Standard Time),79669.0,I,m,1316,1316,,11,no,1,1325.9000000003725,78343.09999999963,KJH,KRH,9029,LC,B,71218,,11
10,1,24.450000047683716,test,1,z,5549.999952316284,Wed Nov 05 2025 17:34:59 GMT-0500 (Eastern Standard Time),84336.29999999981,I,z,4660,4660,,12,yes,1,4663.600000000093,79672.69999999972,SMNHVTFCB,SMNHVTFCB,9029,LC,B,72547,,12
11,1,27.133000135421753,test,1,z,2866.999864578247,Wed Nov 05 2025 17:34:59 GMT-0500 (Eastern Standard Time),87019.69999999972,I,z,2660,2660,,13,yes,1,2674.899999999907,84344.79999999981,KJWTQF,KJWTQF,9029,LC,B,77219,,13
11,1,30.017000198364258,test,0,z,-17.000198364257812,Wed Nov 05 2025 17:34:59 GMT-0500 (Eastern Standard Time),89903.0,I,None,2875,2875,,14,yes,1,2875.2000000001863,87027.79999999981,CHDKQGLMB,CHDKQGLMB,9029,LC,B,79902,,14
1,2,3.867000102996826,test,1,z,26132.999897003174,Wed Nov 05 2025 17:34:59 GMT-0500 (Eastern Standard Time),99486.0,I,z,3859,,3859.0,1,yes,1,12458.200000000186,87027.79999999981,PRDBZTYFN,PRDBZTYFN,9029,LC,B,,88500.0,1
2,2,5.66700005531311,test,1,m,24332.99994468689,Wed Nov 05 2025 17:34:59 GMT-0500 (Eastern Standard Time),101286.29999999981,I,m,1780,,1780.0,2,no,1,14258.5,87027.79999999981,NCWJDZ,NCMJDZ,9029,LC,B,,92371.0,2
3,2,7.200000047683716,test,1,m,22799.999952316284,Wed Nov 05 2025 17:34:59 GMT-0500 (Eastern Standard Time),102819.5,I,m,1518,,1518.0,3,no,1,15791.700000000186,87027.79999999981,KHW,KBW,9029,LC,B,,94169.0,3
4,2,9.367000102996826,test,1,m,20632.999897003174,Wed Nov 05 2025 17:34:59 GMT-0500 (Eastern Standard Time),104986.0,I,m,2145,,2145.0,4,no,1,17958.200000000186,87027.79999999981,ZRBGMF,ZRBCMF,9029,LC,B,,95701.0,4
5,2,10.817000150680542,test,1,m,19182.999849319458,Wed Nov 05 2025 17:34:59 GMT-0500 (Eastern Standard Time),106436.19999999972,I,m,1436,,1436.0,5,no,1,19408.399999999907,87027.79999999981,BTH,BYH,9029,LC,B,,97867.0,5
6,2,14.100000143051147,test,1,z,15899.999856948853,Wed Nov 05 2025 17:34:59 GMT-0500 (Eastern Standard Time),109719.69999999972,I,z,3266,,3266.0,6,yes,1,22691.899999999907,87027.79999999981,XWKQRYCNZ,XWKQRYCNZ,9029,LC,B,,99317.0,6
7,2,16.282999992370605,test,1,z,13717.000007629395,Wed Nov 05 2025 17:34:59 GMT-0500 (Eastern Standard Time),111902.69999999972,I,z,2174,,2174.0,7,yes,1,24874.899999999907,87027.79999999981,HNPDLK,HNPDLK,9029,LC,B,,102601.0,7
7,2,19.5,test,0,m,10500.0,Wed Nov 05 2025 17:34:59 GMT-0500 (Eastern Standard Time),115119.5,I,z,3207,,3207.0,8,no,1,28091.700000000186,87027.79999999981,WMQTRSGLZ,WMQTRZGLZ,9029,LC,B,,104784.0,8
8,2,20.700000047683716,test,1,z,9299.999952316284,Wed Nov 05 2025 17:34:59 GMT-0500 (Eastern Standard Time),116319.5,I,z,1192,,1192.0,9,yes,1,29291.700000000186,87027.79999999981,JPN,JPN,9029,LC,B,,108000.0,9
9,2,22.01699995994568,test,1,m,7983.000040054321,Wed Nov 05 2025 17:34:59 GMT-0500 (Eastern Standard Time),117636.19999999972,I,m,1303,,1303.0,10,no,1,30608.399999999907,87027.79999999981,QLXSVT,QLNSVT,9029,LC,B,,109200.0,10
10,2,26.049999952316284,test,1,z,3950.000047683716,Wed Nov 05 2025 17:34:59 GMT-0500 (Eastern Standard Time),121669.59999999963,I,z,4018,,4018.0,11,yes,1,34641.799999999814,87027.79999999981,YXHKZVFPB,YXHKZVFPD,9029,LC,B,,110517.0,11
11,2,27.634000062942505,test,1,z,2365.999937057495,Wed Nov 05 2025 17:34:59 GMT-0500 (Eastern Standard Time),123253.0,I,z,1564,,1564.0,12,yes,1,36225.200000000186,87027.79999999981,RJZ,RJZ,9029,LC,B,,114555.0,12
12,2,29.549999952316284,test,1,z,450.0000476837158,Wed Nov 05 2025 17:34:59 GMT-0500 (Eastern Standard Time),125169.19999999972,I,z,1904,,1904.0,13,yes,1,38141.39999999991,87027.79999999981,CLNPZD,CLNPZD,9029,LC,B,,116134.0,13
12,2,30.01699995994568,test,0,m,-16.99995994567871,Wed Nov 05 2025 17:34:59 GMT-0500 (Eastern Standard Time),125636.3999999999,I,None,461,,461.0,14,no,1,38608.60000000009,87027.79999999981,DCBPFHXYJ,DCBPFHLYJ,9029,LC,B,,118049.0,14
