acc_sum,block,block_c,condition,correct,correct_response,datetime,endtime,flanker,jitter,project,response,response_test_buffer_response,response_test_target_response,response_time,response_time_test_buffer_response,response_time_test_target_response,row_sel,session_number,start_end,starttime,subject_id,target,task,task_vers,time_test_buffer,time_test_buffer_response,time_test_constants,time_test_flanker,time_test_jitter,time_test_logger,time_test_target,time_test_target_response,time_test_variables,trial
1,prac,1,inc,1,z,Mon Oct 06 2025 15:34:52 GMT-0400 (Eastern Daylight Time),138599.5,window,1100,I,z,,,506,,,16,1,2907.699999999255,135691.80000000075,9028,temper,AF,C,,,,,,,,,,1
2,prac,1,con,1,z,Mon Oct 06 2025 15:34:52 GMT-0400 (Eastern Daylight Time),141348.70000000112,love,1000,I,z,,,439,,,11,1,2735.4000000003725,138613.30000000075,9028,love,AF,C,,,,,,,,,,2
3,prac,1,inc,1,z,Mon Oct 06 2025 15:34:52 GMT-0400 (Eastern Daylight Time),143965.80000000075,rock,900,I,z,,,414,,,10,1,2610.9000000003725,141354.90000000037,9028,kind,AF,C,,,,,,,,,,3
3,prac,1,inc,0,m,Mon Oct 06 2025 15:34:52 GMT-0400 (Eastern Daylight Time),146599.09999999963,elated,900,I,z,,,422,,,6,1,2623.0999999996275,143976.0,9028,napkin,AF,C,,,,,,,,,,4
4,prac,1,con,1,m,Mon Oct 06 2025 15:34:52 GMT-0400 (Eastern Daylight Time),149165.70000000112,jacket,800,I,m,,,481,,,5,1,2556.300000000745,146609.40000000037,9028,jacket,AF,C,,,,,,,,,,5
5,prac,1,inc,1,z,Mon Oct 06 2025 15:34:52 GMT-0400 (Eastern Daylight Time),152049.09999999963,napkin,1100,I,z,,,476,,,12,1,2871.5999999996275,149177.5,9028,friend,AF,C,,,,,,,,,,6
6,prac,1,con,1,z,Mon Oct 06 2025 15:34:52 GMT-0400 (Eastern Daylight Time),154982.40000000037,rage,1000,I,z,,,622,,,15,1,2922.699999999255,152059.70000000112,9028,rage,AF,C,,,,,,,,,,7
7,prac,1,con,1,m,Mon Oct 06 2025 15:34:52 GMT-0400 (Eastern Daylight Time),157649.20000000112,bell,1000,I,m,,,359,,,3,1,2656.300000000745,154992.90000000037,9028,bell,AF,C,,,,,,,,,,8
8,prac,1,con,1,z,Mon Oct 06 2025 15:34:52 GMT-0400 (Eastern Daylight Time),160299.30000000075,brutal,800,I,z,,,533,,,13,1,2639.800000000745,157659.5,9028,brutal,AF,C,,,,,,,,,,9
9,prac,1,inc,1,m,Mon Oct 06 2025 15:34:52 GMT-0400 (Eastern Daylight Time),163249.0,brutal,1100,I,m,,,543,,,8,1,2939.199999999255,160309.80000000075,9028,window,AF,C,,,,,,,,,,10
9,prac,1,con,0,z,Mon Oct 06 2025 15:34:52 GMT-0400 (Eastern Daylight Time),165899.20000000112,elated,800,I,m,,,533,,,9,1,2639.60000000149,163259.59999999963,9028,elated,AF,C,,,,,,,,,,11
10,prac,1,inc,1,m,Mon Oct 06 2025 15:34:52 GMT-0400 (Eastern Daylight Time),168648.90000000037,kind,900,I,m,,,536,,,2,1,2740.699999999255,165908.20000000112,9028,rock,AF,C,,,,,,,,,,12
11,prac,1,con,1,m,Mon Oct 06 2025 15:34:52 GMT-0400 (Eastern Daylight Time),171482.20000000112,remote,1000,I,m,,,517,,,7,1,2823.60000000149,168658.59999999963,9028,remote,AF,C,,,,,,,,,,13
12,prac,1,con,1,m,Mon Oct 06 2025 15:34:52 GMT-0400 (Eastern Daylight Time),174249.0,step,800,I,m,,,654,,,1,1,2757.5999999996275,171491.40000000037,9028,step,AF,C,,,,,,,,,,14
13,prac,1,inc,1,z,Mon Oct 06 2025 15:34:52 GMT-0400 (Eastern Daylight Time),176982.30000000075,film,900,I,z,,,522,,,14,1,2723.5999999996275,174258.70000000112,9028,hate,AF,C,,,,,,,,,,15
14,prac,1,inc,1,m,Mon Oct 06 2025 15:34:52 GMT-0400 (Eastern Daylight Time),179932.40000000037,hate,1100,I,m,,,533,,,4,1,2940.5,176991.90000000037,9028,film,AF,C,,,,,,,,,,16
1,test,1,inc,1,z,Mon Oct 06 2025 15:34:52 GMT-0400 (Eastern Daylight Time),204949.20000000112,napkin,900,I,z,z,None,674,475.0,199.0,30,1,2108.5,202840.70000000112,9028,friend,AF,C,199063,199063,197438,198346,197438,199546,198863,198863,199546,1
2,test,1,inc,1,z,Mon Oct 06 2025 15:34:52 GMT-0400 (Eastern Daylight Time),207082.0,film,1100,I,z,z,None,485,286.0,199.0,16,1,2120.0,204962.0,9028,kind,AF,C,201380,201380,199559,200663,199559,201679,201180,201180,201679,2
3,test,1,con,1,m,Mon Oct 06 2025 15:34:52 GMT-0400 (Eastern Daylight Time),209065.70000000112,film,800,I,m,m,None,637,438.0,199.0,89,1,1977.300000000745,207088.40000000037,9028,film,AF,C,203213,203213,201685,202496,201686,203663,203013,203013,203663,3
4,test,1,con,1,z,Mon Oct 06 2025 15:34:52 GMT-0400 (Eastern Daylight Time),211032.40000000037,friend,1000,I,z,z,None,421,221.0,200.0,27,1,1955.800000000745,209076.59999999963,9028,friend,AF,C,205397,205397,203674,204680,203674,205629,205196,205196,205629,4
5,test,1,con,1,z,Mon Oct 06 2025 15:34:52 GMT-0400 (Eastern Daylight Time),212882.30000000075,temper,900,I,z,z,None,412,212.0,200.0,58,1,1840.0,211042.30000000075,9028,temper,AF,C,207263,207263,205639,206547,205640,207479,207063,207063,207479,5
6,test,1,con,1,z,Mon Oct 06 2025 15:34:52 GMT-0400 (Eastern Daylight Time),214732.30000000075,kind,900,I,z,z,None,401,201.0,200.0,10,1,1841.2000000011176,212891.09999999963,9028,kind,AF,C,209113,209113,207488,208397,207489,209329,208913,208913,209329,6
7,test,1,inc,1,m,Mon Oct 06 2025 15:34:52 GMT-0400 (Eastern Daylight Time),216665.70000000112,temper,1000,I,m,m,None,387,187.0,200.0,103,1,1924.0,214741.70000000112,9028,jacket,AF,C,211063,211063,209339,210347,209339,211263,210863,210863,211263,7
7,test,1,inc,0,z,Mon Oct 06 2025 15:34:52 GMT-0400 (Eastern Daylight Time),218865.59999999963,film,1100,I,m,m,None,560,361.0,199.0,56,1,2191.699999999255,216673.90000000037,9028,rage,AF,C,213097,213097,211271,212380,211271,213463,212897,212897,213463,8
8,test,1,inc,1,m,Mon Oct 06 2025 15:34:52 GMT-0400 (Eastern Daylight Time),220849.0,rage,800,I,m,m,None,645,445.0,200.0,77,1,1975.199999999255,218873.80000000075,9028,rock,AF,C,214997,214997,213471,214280,213471,215446,214796,214796,215446,9
9,test,1,con,1,z,Mon Oct 06 2025 15:34:52 GMT-0400 (Eastern Daylight Time),222815.59999999963,rage,1000,I,z,z,None,429,230.0,199.0,51,1,1957.0999999996275,220858.5,9028,rage,AF,C,217180,217180,215456,216463,215456,217413,216980,216980,217413,10
10,test,1,con,1,z,Mon Oct 06 2025 15:34:52 GMT-0400 (Eastern Daylight Time),225065.5,friend,1100,I,z,z,None,604,404.0,200.0,28,1,2239.699999999255,222825.80000000075,9028,friend,AF,C,219246,219247,217423,218530,217423,219663,219046,219046,219663,11
11,test,1,inc,1,z,Mon Oct 06 2025 15:34:52 GMT-0400 (Eastern Daylight Time),227098.90000000037,jacket,800,I,z,z,None,685,485.0,200.0,5,1,2024.0,225074.90000000037,9028,elated,AF,C,221197,221197,219672,220480,219672,221696,220996,220996,221696,12
12,test,1,con,1,z,Mon Oct 06 2025 15:34:52 GMT-0400 (Eastern Daylight Time),229182.09999999963,rage,1100,I,z,z,None,448,249.0,199.0,52,1,2073.89999999851,227108.20000000112,9028,rage,AF,C,223530,223530,221705,222813,221706,223779,223330,223330,223779,13
13,test,1,inc,1,m,Mon Oct 06 2025 15:34:52 GMT-0400 (Eastern Daylight Time),231332.30000000075,hate,1100,I,m,m,None,509,309.0,200.0,72,1,2140.9000000003725,229191.40000000037,9028,step,AF,C,225613,225613,223788,224896,223789,225929,225413,225413,225929,14
14,test,1,con,1,m,Mon Oct 06 2025 15:34:52 GMT-0400 (Eastern Daylight Time),233381.90000000037,window,1000,I,m,m,None,506,307.0,199.0,123,1,2037.4000000003725,231344.5,9028,window,AF,C,227663,227663,225942,226946,225942,227979,227463,227463,227979,15
15,test,1,inc,1,z,Mon Oct 06 2025 15:34:52 GMT-0400 (Eastern Daylight Time),235482.30000000075,window,1100,I,z,z,None,453,253.0,200.0,40,1,2094.2000000011176,233388.09999999963,9028,brutal,AF,C,229813,229814,227985,229096,227986,230079,229613,229613,230079,16
16,test,1,inc,1,z,Mon Oct 06 2025 15:34:52 GMT-0400 (Eastern Daylight Time),237632.0,bell,1000,I,z,z,None,612,413.0,199.0,55,1,2140.4000000003725,235491.59999999963,9028,rage,AF,C,231813,231813,230089,231096,230089,232229,231613,231613,232229,17
17,test,1,con,1,m,Mon Oct 06 2025 15:34:52 GMT-0400 (Eastern Daylight Time),239865.5,bell,1000,I,m,m,None,687,487.0,200.0,83,1,2222.0,237643.5,9028,bell,AF,C,233963,233963,232241,233246,232241,234463,233763,233763,234462,18
18,test,1,con,1,z,Mon Oct 06 2025 15:34:52 GMT-0400 (Eastern Daylight Time),241865.59999999963,elated,1000,I,z,z,None,453,253.0,200.0,3,1,1991.0999999996275,239874.5,9028,elated,AF,C,236197,236197,234472,235480,234472,236463,235996,235996,236463,19
19,test,1,inc,1,m,Mon Oct 06 2025 15:34:52 GMT-0400 (Eastern Daylight Time),243665.59999999963,rage,800,I,m,m,None,461,261.0,200.0,85,1,1790.699999999255,241874.90000000037,9028,bell,AF,C,237997,237997,236472,237280,236472,238263,237796,237796,238263,20
20,test,1,con,1,z,Mon Oct 06 2025 15:34:52 GMT-0400 (Eastern Daylight Time),245598.40000000037,elated,800,I,z,z,None,597,398.0,199.0,1,1,1924.199999999255,243674.20000000112,9028,elated,AF,C,239797,239797,238271,239080,238271,240196,239596,239597,240195,21
21,test,1,con,1,m,Mon Oct 06 2025 15:34:52 GMT-0400 (Eastern Daylight Time),247782.30000000075,remote,1000,I,m,m,None,639,440.0,199.0,115,1,2174.0999999996275,245608.20000000112,9028,remote,AF,C,241930,241930,240205,241213,240206,242379,241730,241730,242379,22
22,test,1,inc,1,m,Mon Oct 06 2025 15:34:52 GMT-0400 (Eastern Daylight Time),249815.59999999963,temper,1000,I,m,m,None,488,289.0,199.0,119,1,2024.0999999996275,247791.5,9028,remote,AF,C,244113,244113,242389,243396,242389,244413,243913,243913,244413,23
23,test,1,inc,1,z,Mon Oct 06 2025 15:34:52 GMT-0400 (Eastern Daylight Time),251982.0,film,1100,I,z,z,None,532,332.0,200.0,24,1,2157.9000000003725,249824.09999999963,9028,love,AF,C,246246,246247,244421,245530,244421,246579,246046,246046,246579,24
24,test,1,inc,1,m,Mon Oct 06 2025 15:34:52 GMT-0400 (Eastern Daylight Time),254115.59999999963,brutal,900,I,m,m,None,693,494.0,199.0,118,1,2125.0999999996275,251990.5,9028,remote,AF,C,248212,248212,246588,247496,246588,248713,248013,248013,248713,25
25,test,1,inc,1,m,Mon Oct 06 2025 15:34:52 GMT-0400 (Eastern Daylight Time),256098.90000000037,rage,800,I,m,m,None,645,445.0,200.0,93,1,1973.300000000745,254125.59999999963,9028,film,AF,C,250246,250246,248723,249530,248723,250696,250046,250046,250696,26
26,test,1,inc,1,z,Mon Oct 06 2025 15:34:52 GMT-0400 (Eastern Daylight Time),258099.59999999963,rock,900,I,z,z,None,565,366.0,199.0,22,1,1991.699999999255,256107.90000000037,9028,love,AF,C,252330,252330,250705,251613,250705,252697,252130,252130,252697,27
27,test,1,inc,1,z,Mon Oct 06 2025 15:34:52 GMT-0400 (Eastern Daylight Time),260265.5,window,1100,I,z,z,None,520,321.0,199.0,64,1,2160.2999999988824,258105.20000000112,9028,temper,AF,C,254530,254530,252702,253813,252703,254863,254330,254330,254862,28
28,test,1,inc,1,z,Mon Oct 06 2025 15:34:52 GMT-0400 (Eastern Daylight Time),262298.9000000004,rock,900,I,z,z,None,586,386.0,200.0,46,1,2023.699999999255,260275.20000000112,9028,hate,AF,C,256496,256496,254872,255780,254872,256896,256296,256296,256896,29
29,test,1,inc,1,z,Mon Oct 06 2025 15:34:52 GMT-0400 (Eastern Daylight Time),264198.9000000004,napkin,900,I,z,z,None,456,256.0,200.0,62,1,1891.5,262307.4000000004,9028,temper,AF,C,258530,258530,256904,257813,256905,258796,258329,258329,258796,30
30,test,1,inc,1,m,Mon Oct 06 2025 15:34:52 GMT-0400 (Eastern Daylight Time),265932.0999999996,elated,800,I,m,m,None,384,184.0,200.0,125,1,1723.7999999988824,264208.30000000075,9028,window,AF,C,260330,260330,258805,259613,258806,260529,260130,260130,260529,31
31,test,1,con,1,z,Mon Oct 06 2025 15:34:52 GMT-0400 (Eastern Daylight Time),267948.9000000004,friend,900,I,z,z,None,567,368.0,199.0,26,1,2008.699999999255,265940.2000000011,9028,friend,AF,C,262163,262163,260537,261446,260538,262546,261963,261963,262546,32
32,test,1,con,1,m,Mon Oct 06 2025 15:34:52 GMT-0400 (Eastern Daylight Time),270132.2000000011,film,1100,I,m,m,None,542,343.0,199.0,92,1,2175.0,267957.2000000011,9028,film,AF,C,264379,264379,262554,263663,262555,264729,264180,264180,264729,33
33,test,1,con,1,m,Mon Oct 06 2025 15:34:52 GMT-0400 (Eastern Daylight Time),272132.0999999996,rock,900,I,m,m,None,558,359.0,199.0,74,1,1990.3999999985099,270141.7000000011,9028,rock,AF,C,266363,266363,264739,265646,264739,266729,266163,266163,266729,34
34,test,1,con,1,z,Mon Oct 06 2025 15:34:52 GMT-0400 (Eastern Daylight Time),273831.80000000075,friend,800,I,z,z,None,354,155.0,199.0,25,1,1690.5,272141.30000000075,9028,friend,AF,C,268263,268263,266738,267546,266739,268429,268063,268063,268429,35
35,test,1,inc,1,z,Mon Oct 06 2025 15:34:52 GMT-0400 (Eastern Daylight Time),275732.30000000075,rock,900,I,z,z,None,458,259.0,199.0,14,1,1895.4000000003725,273836.9000000004,9028,kind,AF,C,270063,270063,268434,269346,268434,270329,269863,269863,270329,36
36,test,1,con,1,z,Mon Oct 06 2025 15:34:52 GMT-0400 (Eastern Daylight Time),277548.9000000004,love,900,I,z,z,None,366,167.0,199.0,18,1,1807.800000000745,275741.0999999996,9028,love,AF,C,271962,271963,270338,271246,270338,272146,271763,271763,272146,37
36,test,1,con,0,m,Mon Oct 06 2025 15:34:52 GMT-0400 (Eastern Daylight Time),279465.5999999996,window,900,I,z,z,None,470,271.0,199.0,122,1,1908.2999999988824,277557.30000000075,9028,window,AF,C,273780,273780,272154,273063,272155,274063,273580,273580,274063,38
37,test,1,inc,1,m,Mon Oct 06 2025 15:34:52 GMT-0400 (Eastern Daylight Time),281631.9000000004,friend,1100,I,m,m,None,529,329.0,200.0,104,1,2157.199999999255,279474.7000000011,9028,jacket,AF,C,275896,275897,274072,275180,274072,276229,275696,275696,276229,39
38,test,1,con,1,m,Mon Oct 06 2025 15:34:52 GMT-0400 (Eastern Daylight Time),283515.30000000075,bell,800,I,m,m,None,534,335.0,199.0,81,1,1874.5999999996275,281640.7000000011,9028,bell,AF,C,277763,277763,276238,277046,276238,278113,277563,277563,278112,40
39,test,1,con,1,m,Mon Oct 06 2025 15:34:52 GMT-0400 (Eastern Daylight Time),285548.80000000075,film,1000,I,m,m,None,484,284.0,200.0,91,1,2024.0,283524.80000000075,9028,film,AF,C,279846,279846,278122,279130,278122,280146,279646,279646,280146,41
40,test,1,inc,1,m,Mon Oct 06 2025 15:34:52 GMT-0400 (Eastern Daylight Time),287748.9000000004,friend,1100,I,m,m,None,557,358.0,199.0,128,1,2190.300000000745,285558.5999999996,9028,window,AF,C,281980,281980,280156,281263,280156,282346,281780,281780,282346,42
40,test,1,con,0,z,Mon Oct 06 2025 15:34:52 GMT-0400 (Eastern Daylight Time),289832.2000000011,kind,1100,I,m,m,None,438,239.0,199.0,12,1,2074.0,287758.2000000011,9028,kind,AF,C,284180,284180,282355,283463,282356,284429,283980,283980,284429,43
41,test,1,inc,1,z,Mon Oct 06 2025 15:34:52 GMT-0400 (Eastern Daylight Time),291915.5999999996,bell,1000,I,z,z,None,534,335.0,199.0,23,1,2073.89999999851,289841.7000000011,9028,love,AF,C,286163,286163,284439,285446,284439,286513,285963,285963,286513,44
42,test,1,con,1,z,Mon Oct 06 2025 15:34:52 GMT-0400 (Eastern Daylight Time),293665.5,love,800,I,z,z,None,412,212.0,200.0,17,1,1741.7999999988824,291923.7000000011,9028,love,AF,C,288046,288046,286521,287329,286521,288263,287846,287846,288262,45
43,test,1,inc,1,z,Mon Oct 06 2025 15:34:52 GMT-0400 (Eastern Daylight Time),295715.4000000004,bell,1000,I,z,z,None,510,310.0,200.0,47,1,2041.699999999255,293673.7000000011,9028,hate,AF,C,289996,289996,288271,289280,288271,290313,289796,289796,290312,46
44,test,1,con,1,m,Mon Oct 06 2025 15:34:52 GMT-0400 (Eastern Daylight Time),297848.80000000075,window,1100,I,m,m,None,488,288.0,200.0,124,1,2123.800000000745,295725.0,9028,window,AF,C,292146,292146,290322,291430,290322,292446,291946,291946,292446,47
45,test,1,con,1,m,Mon Oct 06 2025 15:34:52 GMT-0400 (Eastern Daylight Time),299998.5,remote,1100,I,m,m,None,514,315.0,199.0,116,1,2140.199999999255,297858.30000000075,9028,remote,AF,C,294280,294280,292455,293563,292456,294596,294080,294080,294596,48
46,test,1,inc,1,m,Mon Oct 06 2025 15:34:52 GMT-0400 (Eastern Daylight Time),301965.7000000011,brutal,900,I,m,m,None,531,332.0,199.0,102,1,1957.9000000003725,300007.80000000075,9028,jacket,AF,C,296230,296230,294605,295513,294605,296563,296030,296030,296563,49
47,test,1,con,1,m,Mon Oct 06 2025 15:34:52 GMT-0400 (Eastern Daylight Time),303915.5999999996,remote,900,I,m,m,None,502,302.0,200.0,114,1,1941.7999999988824,301973.80000000075,9028,remote,AF,C,298196,298196,296571,297480,296571,298513,297996,297996,298512,50
48,test,1,con,1,m,Mon Oct 06 2025 15:34:52 GMT-0400 (Eastern Daylight Time),306031.9000000004,step,1100,I,m,m,None,479,280.0,199.0,68,1,2107.300000000745,303924.5999999996,9028,step,AF,C,300346,300346,298522,299630,298522,300629,300147,300147,300629,51
49,test,1,inc,1,z,Mon Oct 06 2025 15:34:52 GMT-0400 (Eastern Daylight Time),307848.80000000075,jacket,800,I,z,z,None,470,271.0,199.0,61,1,1809.0,306039.80000000075,9028,temper,AF,C,302163,302163,300637,301446,300637,302446,301963,301963,302446,52
50,test,1,inc,1,m,Mon Oct 06 2025 15:34:52 GMT-0400 (Eastern Daylight Time),309832.2000000011,elated,800,I,m,m,None,637,438.0,199.0,109,1,1973.6000000014901,307858.5999999996,9028,napkin,AF,C,303980,303980,302456,303263,302456,304429,303780,303780,304429,53
51,test,1,inc,1,m,Mon Oct 06 2025 15:34:52 GMT-0400 (Eastern Daylight Time),312148.80000000075,friend,1100,I,m,m,None,675,476.0,199.0,120,1,2306.5,309842.30000000075,9028,remote,AF,C,306263,306263,304439,305546,304440,306746,306063,306063,306746,54
52,test,1,inc,1,m,Mon Oct 06 2025 15:34:52 GMT-0400 (Eastern Daylight Time),314015.2000000011,rage,800,I,m,m,None,529,330.0,199.0,69,1,1854.800000000745,312160.4000000004,9028,step,AF,C,308280,308280,306757,307563,306758,308612,308080,308080,308612,55
53,test,1,inc,1,m,Mon Oct 06 2025 15:34:52 GMT-0400 (Eastern Daylight Time),315848.80000000075,elated,800,I,m,m,None,488,288.0,200.0,101,1,1825.5,314023.30000000075,9028,jacket,AF,C,310146,310146,308620,309430,308621,310446,309946,309946,310446,56
54,test,1,con,1,m,Mon Oct 06 2025 15:34:52 GMT-0400 (Eastern Daylight Time),317882.2000000011,bell,900,I,m,m,None,585,386.0,199.0,82,1,2023.6000000014901,315858.5999999996,9028,bell,AF,C,312080,312080,310456,311363,310456,312479,311880,311880,312479,57
55,test,1,con,1,m,Mon Oct 06 2025 15:34:52 GMT-0400 (Eastern Daylight Time),319915.5,napkin,1000,I,m,m,None,484,285.0,199.0,107,1,2024.0,317891.5,9028,napkin,AF,C,314213,314213,312489,313496,312489,314513,314013,314013,314512,58
56,test,1,inc,1,m,Mon Oct 06 2025 15:34:52 GMT-0400 (Eastern Daylight Time),321882.2000000011,brutal,900,I,m,m,None,520,320.0,200.0,126,1,1957.4000000003725,319924.80000000075,9028,window,AF,C,316146,316146,314522,315429,314522,316479,315946,315946,316479,59
57,test,1,con,1,m,Mon Oct 06 2025 15:34:52 GMT-0400 (Eastern Daylight Time),323832.0999999996,rock,1000,I,m,m,None,406,206.0,200.0,75,1,1940.699999999255,321891.4000000004,9028,rock,AF,C,318213,318213,316488,317496,316489,318429,318012,318012,318429,60
58,test,1,inc,1,z,Mon Oct 06 2025 15:34:52 GMT-0400 (Eastern Daylight Time),325898.80000000075,remote,1000,I,z,z,None,518,319.0,199.0,7,1,2057.300000000745,323841.5,9028,elated,AF,C,320163,320163,318439,319446,318439,320496,319963,319963,320496,61
59,test,1,con,1,z,Mon Oct 06 2025 15:34:52 GMT-0400 (Eastern Daylight Time),327915.4000000004,rage,900,I,z,z,None,567,368.0,199.0,50,1,2008.5999999996275,325906.80000000075,9028,rage,AF,C,322130,322130,320504,321413,320504,322513,321930,321930,322512,62
60,test,1,con,1,z,Mon Oct 06 2025 15:34:52 GMT-0400 (Eastern Daylight Time),329948.80000000075,temper,1100,I,z,z,None,384,184.0,200.0,60,1,2025.0,327923.80000000075,9028,temper,AF,C,324346,324346,322521,323630,322521,324546,324146,324146,324546,63
61,test,1,inc,1,m,Mon Oct 06 2025 15:34:52 GMT-0400 (Eastern Daylight Time),331932.0999999996,love,1000,I,m,m,None,434,234.0,200.0,87,1,1973.7999999988824,329958.30000000075,9028,bell,AF,C,326280,326280,324555,325563,324556,326529,326079,326079,326529,64
62,test,1,inc,1,m,Mon Oct 06 2025 15:34:52 GMT-0400 (Eastern Daylight Time),334015.2000000011,hate,1100,I,m,m,None,447,248.0,199.0,80,1,2073.7000000011176,331941.5,9028,rock,AF,C,328363,328363,326539,327646,326539,328612,328163,328163,328612,65
62,test,1,inc,0,z,Mon Oct 06 2025 15:34:52 GMT-0400 (Eastern Daylight Time),336048.7000000011,remote,1000,I,m,m,None,496,296.0,200.0,63,1,2024.2000000011176,334024.5,9028,temper,AF,C,330346,330346,328622,329630,328622,330646,330146,330146,330646,66
63,test,1,con,1,z,Mon Oct 06 2025 15:34:52 GMT-0400 (Eastern Daylight Time),337965.4000000004,brutal,800,I,z,z,None,565,366.0,199.0,33,1,1907.5,336057.9000000004,9028,brutal,AF,C,332180,332180,330655,331463,330655,332563,331979,331980,332562,67
64,test,1,con,1,m,Mon Oct 06 2025 15:34:52 GMT-0400 (Eastern Daylight Time),339865.30000000075,napkin,900,I,m,m,None,454,254.0,200.0,106,1,1891.4000000003725,337973.9000000004,9028,napkin,AF,C,334196,334196,332571,333480,332571,334462,333996,333996,334462,68
65,test,1,con,1,z,Mon Oct 06 2025 15:34:52 GMT-0400 (Eastern Daylight Time),341832.0999999996,brutal,1000,I,z,z,None,421,222.0,199.0,35,1,1957.5999999996275,339874.5,9028,brutal,AF,C,336196,336196,334472,335480,334472,336429,335996,335996,336429,69
66,test,1,con,1,z,Mon Oct 06 2025 15:34:52 GMT-0400 (Eastern Daylight Time),343698.7000000011,elated,900,I,z,z,None,426,227.0,199.0,2,1,1857.2000000011176,341841.5,9028,elated,AF,C,338063,338063,336439,337346,336439,338296,337863,337863,338296,70
67,test,1,con,1,z,Mon Oct 06 2025 15:34:52 GMT-0400 (Eastern Daylight Time),345631.7000000011,love,1000,I,z,z,None,395,196.0,199.0,19,1,1919.800000000745,343711.9000000004,9028,love,AF,C,340030,340030,338309,339313,338309,340229,339830,339830,340229,71
68,test,1,inc,1,z,Mon Oct 06 2025 15:34:52 GMT-0400 (Eastern Daylight Time),347498.7000000011,step,800,I,z,z,None,518,319.0,199.0,53,1,1861.6000000014901,345637.0999999996,9028,rage,AF,C,341763,341763,340234,341046,340234,342096,341563,341563,342096,72
69,test,1,con,1,z,Mon Oct 06 2025 15:34:52 GMT-0400 (Eastern Daylight Time),349548.80000000075,hate,1100,I,z,z,None,400,200.0,200.0,44,1,2040.9000000003725,347507.9000000004,9028,hate,AF,C,343929,343930,342105,343213,342105,344146,343729,343729,344146,73
70,test,1,con,1,z,Mon Oct 06 2025 15:34:52 GMT-0400 (Eastern Daylight Time),351498.80000000075,temper,1000,I,z,z,None,401,202.0,199.0,59,1,1941.2000000011176,349557.5999999996,9028,temper,AF,C,345880,345880,344155,345163,344155,346096,345680,345680,346096,74
71,test,1,inc,1,m,Mon Oct 06 2025 15:34:52 GMT-0400 (Eastern Daylight Time),353515.4000000004,love,1000,I,m,m,None,467,268.0,199.0,95,1,2006.800000000745,351508.5999999996,9028,film,AF,C,347830,347830,346106,347113,346106,348113,347630,347630,348112,75
72,test,1,con,1,m,Mon Oct 06 2025 15:34:52 GMT-0400 (Eastern Daylight Time),355298.7000000011,window,800,I,m,m,None,444,244.0,200.0,121,1,1773.800000000745,353524.9000000004,9028,window,AF,C,349646,349646,348122,348930,348122,349896,349446,349446,349896,76
73,test,1,inc,1,z,Mon Oct 06 2025 15:34:52 GMT-0400 (Eastern Daylight Time),357465.4000000004,film,1100,I,z,z,None,521,321.0,200.0,48,1,2158.199999999255,355307.2000000011,9028,hate,AF,C,351730,351730,349904,351013,349904,352063,351529,351529,352062,77
73,test,1,inc,0,m,Mon Oct 06 2025 15:34:52 GMT-0400 (Eastern Daylight Time),359432.0999999996,kind,900,I,z,z,None,522,322.0,200.0,94,1,1955.3999999985099,357476.7000000011,9028,film,AF,C,353696,353696,352074,352980,352074,354029,353496,353496,354029,78
74,test,1,con,1,z,Mon Oct 06 2025 15:34:52 GMT-0400 (Eastern Daylight Time),361198.5,kind,800,I,z,z,None,430,231.0,199.0,9,1,1757.5,359441.0,9028,kind,AF,C,355563,355563,354038,354846,354038,355796,355363,355363,355795,79
75,test,1,inc,1,m,Mon Oct 06 2025 15:34:52 GMT-0400 (Eastern Daylight Time),363032.0999999996,kind,900,I,m,m,None,389,189.0,200.0,78,1,1825.0,361207.0999999996,9028,rock,AF,C,357429,357429,355804,356713,355804,357629,357229,357229,357629,80
76,test,1,inc,1,z,Mon Oct 06 2025 15:34:52 GMT-0400 (Eastern Daylight Time),365182.2000000011,bell,1000,I,z,z,None,615,416.0,199.0,15,1,2135.7000000011176,363046.5,9028,kind,AF,C,359363,359363,357644,358646,357644,359779,359163,359163,359779,81
77,test,1,con,1,z,Mon Oct 06 2025 15:34:52 GMT-0400 (Eastern Daylight Time),367182.0,brutal,900,I,z,z,None,565,366.0,199.0,34,1,1991.9000000003725,365190.0999999996,9028,brutal,AF,C,361413,361413,359787,360696,359787,361779,361213,361213,361779,82
78,test,1,con,1,m,Mon Oct 06 2025 15:34:52 GMT-0400 (Eastern Daylight Time),368931.9000000004,step,800,I,m,m,None,408,209.0,199.0,65,1,1742.4000000003725,367189.5,9028,step,AF,C,363313,363313,361787,362596,361787,363529,363113,363113,363529,83
79,test,1,inc,1,z,Mon Oct 06 2025 15:34:52 GMT-0400 (Eastern Daylight Time),370715.4000000004,step,800,I,z,z,None,434,235.0,199.0,13,1,1774.5,368940.9000000004,9028,kind,AF,C,365063,365063,363538,364346,363538,365313,364863,364863,365312,84
80,test,1,inc,1,z,Mon Oct 06 2025 15:34:52 GMT-0400 (Eastern Daylight Time),372831.80000000075,remote,1000,I,z,z,None,580,380.0,200.0,31,1,2107.0,370724.80000000075,9028,friend,AF,C,367046,367046,365322,366330,365322,367429,366846,366846,367429,85
81,test,1,con,1,m,Mon Oct 06 2025 15:34:52 GMT-0400 (Eastern Daylight Time),374765.7000000011,film,900,I,m,m,None,498,299.0,199.0,90,1,1925.1000000014901,372840.5999999996,9028,film,AF,C,369063,369063,367438,368346,367438,369363,368863,368863,369363,86
82,test,1,inc,1,m,Mon Oct 06 2025 15:34:52 GMT-0400 (Eastern Daylight Time),376698.80000000075,brutal,900,I,m,m,None,486,286.0,200.0,110,1,1918.9000000003725,374779.9000000004,9028,napkin,AF,C,370996,370996,369377,370280,369377,371296,370796,370796,371296,87
83,test,1,inc,1,z,Mon Oct 06 2025 15:34:52 GMT-0400 (Eastern Daylight Time),378898.7000000011,remote,1000,I,z,z,None,659,460.0,199.0,39,1,2191.800000000745,376706.9000000004,9028,brutal,AF,C,373029,373030,371304,372313,371304,373496,372830,372830,373496,88
84,test,1,con,1,m,Mon Oct 06 2025 15:34:52 GMT-0400 (Eastern Daylight Time),380831.80000000075,remote,800,I,m,m,None,597,397.0,200.0,113,1,1924.2000000011176,378907.5999999996,9028,remote,AF,C,375030,375030,373505,374313,373505,375429,374829,374829,375429,89
85,test,1,inc,1,m,Mon Oct 06 2025 15:34:52 GMT-0400 (Eastern Daylight Time),382998.80000000075,hate,1100,I,m,m,None,522,323.0,199.0,96,1,2156.5999999996275,380842.2000000011,9028,film,AF,C,377263,377263,375439,376546,375440,377596,377063,377063,377596,90
86,test,1,con,1,m,Mon Oct 06 2025 15:34:52 GMT-0400 (Eastern Daylight Time),384865.30000000075,jacket,800,I,m,m,None,527,328.0,199.0,97,1,1854.9000000003725,383010.4000000004,9028,jacket,AF,C,379130,379130,377607,378413,377608,379463,378930,378930,379462,91
87,test,1,con,1,m,Mon Oct 06 2025 15:34:52 GMT-0400 (Eastern Daylight Time),386948.5999999996,jacket,1100,I,m,m,None,442,242.0,200.0,100,1,2074.699999999255,384873.9000000004,9028,jacket,AF,C,381296,381296,379471,380580,379471,381546,381096,381096,381546,92
88,test,1,con,1,m,Mon Oct 06 2025 15:34:52 GMT-0400 (Eastern Daylight Time),389081.80000000075,rock,1100,I,m,m,None,485,286.0,199.0,76,1,2124.7000000011176,386957.0999999996,9028,rock,AF,C,383380,383380,381554,382663,381554,383679,383179,383180,383679,93
89,test,1,con,1,m,Mon Oct 06 2025 15:34:52 GMT-0400 (Eastern Daylight Time),391115.0999999996,napkin,1100,I,m,m,None,385,186.0,199.0,108,1,2024.2999999988824,389090.80000000075,9028,napkin,AF,C,385513,385513,383688,384796,383688,385712,385313,385313,385712,94
90,test,1,inc,1,z,Mon Oct 06 2025 15:34:52 GMT-0400 (Eastern Daylight Time),392882.0999999996,step,800,I,z,z,None,428,228.0,200.0,21,1,1757.5999999996275,391124.5,9028,love,AF,C,387246,387246,385722,386529,385722,387479,387046,387046,387479,95
91,test,1,inc,1,m,Mon Oct 06 2025 15:34:52 GMT-0400 (Eastern Daylight Time),394765.4000000004,kind,900,I,m,m,None,432,233.0,199.0,70,1,1874.199999999255,392891.2000000011,9028,step,AF,C,389113,389113,387488,388396,387489,389363,388913,388913,389362,96
92,test,1,con,1,m,Mon Oct 06 2025 15:34:52 GMT-0400 (Eastern Daylight Time),396598.7000000011,step,900,I,m,m,None,405,206.0,199.0,66,1,1823.6000000014901,394775.0999999996,9028,step,AF,C,390979,390980,389372,390279,389373,391196,390780,390780,391196,97
93,test,1,inc,1,z,Mon Oct 06 2025 15:34:52 GMT-0400 (Eastern Daylight Time),398398.5,jacket,800,I,z,z,None,463,264.0,199.0,29,1,1791.0,396607.5,9028,friend,AF,C,392730,392730,391205,392013,391205,392996,392529,392530,392996,98
94,test,1,inc,1,m,Mon Oct 06 2025 15:34:52 GMT-0400 (Eastern Daylight Time),400365.30000000075,love,1000,I,m,m,None,415,216.0,199.0,71,1,1956.800000000745,398408.5,9028,step,AF,C,394730,394730,393006,394013,393006,394962,394530,394530,394962,99
95,test,1,inc,1,m,Mon Oct 06 2025 15:34:52 GMT-0400 (Eastern Daylight Time),402548.7000000011,friend,1100,I,m,m,None,543,343.0,200.0,112,1,2174.300000000745,400374.4000000004,9028,napkin,AF,C,396796,396796,394971,396079,394972,397146,396596,396596,397146,100
96,test,1,con,1,z,Mon Oct 06 2025 15:34:52 GMT-0400 (Eastern Daylight Time),404298.4000000004,hate,800,I,z,z,None,402,202.0,200.0,41,1,1741.300000000745,402557.0999999996,9028,hate,AF,C,398679,398679,397154,397963,397154,398895,398479,398479,398895,101
97,test,1,inc,1,m,Mon Oct 06 2025 15:34:52 GMT-0400 (Eastern Daylight Time),406398.5,hate,1100,I,m,m,None,464,264.0,200.0,88,1,2093.2999999988824,404305.2000000011,9028,bell,AF,C,400729,400730,398902,400013,398903,400996,400529,400529,400995,102
98,test,1,con,1,m,Mon Oct 06 2025 15:34:52 GMT-0400 (Eastern Daylight Time),408081.80000000075,napkin,800,I,m,m,None,342,143.0,199.0,105,1,1673.300000000745,406408.5,9028,napkin,AF,C,402530,402530,401006,401812,401006,402679,402329,402330,402679,103
99,test,1,inc,1,z,Mon Oct 06 2025 15:34:52 GMT-0400 (Eastern Daylight Time),409965.2000000011,napkin,900,I,z,z,None,433,233.0,200.0,38,1,1874.4000000003725,408090.80000000075,9028,brutal,AF,C,404313,404313,402688,403596,402688,404562,404112,404112,404562,104
100,test,1,con,1,m,Mon Oct 06 2025 15:34:52 GMT-0400 (Eastern Daylight Time),411798.7000000011,rock,800,I,m,m,None,490,290.0,200.0,73,1,1825.6000000014901,409973.0999999996,9028,rock,AF,C,406096,406096,404570,405379,404570,406396,405896,405896,406396,105
101,test,1,inc,1,m,Mon Oct 06 2025 15:34:52 GMT-0400 (Eastern Daylight Time),413898.7000000011,love,1000,I,m,m,None,554,354.0,200.0,79,1,2091.800000000745,411806.9000000004,9028,rock,AF,C,408129,408129,406404,407413,406404,408496,407929,407929,408496,106
102,test,1,con,1,z,Mon Oct 06 2025 15:34:52 GMT-0400 (Eastern Daylight Time),416082.0,elated,1100,I,z,z,None,544,344.0,200.0,4,1,2173.2999999988824,413908.7000000011,9028,elated,AF,C,410330,410330,408506,409613,408506,410679,410129,410129,410679,107
103,test,1,con,1,m,Mon Oct 06 2025 15:34:52 GMT-0400 (Eastern Daylight Time),418065.0999999996,jacket,900,I,m,m,None,544,345.0,199.0,98,1,1973.7999999988824,416091.30000000075,9028,jacket,AF,C,412313,412313,410688,411596,410689,412662,412113,412113,412662,108
104,test,1,con,1,z,Mon Oct 06 2025 15:34:52 GMT-0400 (Eastern Daylight Time),419915.4000000004,hate,900,I,z,z,None,402,202.0,200.0,42,1,1841.699999999255,418073.7000000011,9028,hate,AF,C,414296,414296,412671,413579,412671,414512,414096,414096,414512,109
105,test,1,con,1,m,Mon Oct 06 2025 15:34:52 GMT-0400 (Eastern Daylight Time),421932.0999999996,step,1000,I,m,m,None,465,251.0,214.0,67,1,2007.8999999985099,419924.2000000011,9028,step,AF,C,416263,416263,414521,415529,414522,416529,416048,416048,416529,110
106,test,1,inc,1,m,Mon Oct 06 2025 15:34:52 GMT-0400 (Eastern Daylight Time),423782.0,elated,800,I,m,m,None,506,307.0,199.0,117,1,1840.9000000003725,421941.0999999996,9028,remote,AF,C,418063,418063,416538,417346,416539,418379,417863,417863,418379,111
107,test,1,inc,1,z,Mon Oct 06 2025 15:34:52 GMT-0400 (Eastern Daylight Time),425682.0,jacket,800,I,z,z,None,560,361.0,199.0,37,1,1889.4000000003725,423792.5999999996,9028,brutal,AF,C,419913,419913,418390,419196,418390,420279,419713,419713,420279,112
108,test,1,inc,1,z,Mon Oct 06 2025 15:34:52 GMT-0400 (Eastern Daylight Time),427681.9000000004,napkin,900,I,z,z,None,560,361.0,199.0,6,1,1989.800000000745,425692.0999999996,9028,elated,AF,C,421913,421913,420289,421196,420289,422279,421713,421713,422279,113
109,test,1,inc,1,z,Mon Oct 06 2025 15:34:52 GMT-0400 (Eastern Daylight Time),429698.7000000011,rock,900,I,z,z,None,576,377.0,199.0,54,1,2007.300000000745,427691.4000000004,9028,rage,AF,C,423913,423913,422288,423196,422289,424296,423713,423713,424296,114
110,test,1,con,1,z,Mon Oct 06 2025 15:34:52 GMT-0400 (Eastern Daylight Time),431515.30000000075,rage,800,I,z,z,None,452,252.0,200.0,49,1,1801.0999999996275,429714.2000000011,9028,rage,AF,C,425846,425846,424311,425129,424312,426112,425646,425646,426112,115
111,test,1,inc,1,z,Mon Oct 06 2025 15:34:52 GMT-0400 (Eastern Daylight Time),433682.0,window,1100,I,z,z,None,528,328.0,200.0,8,1,2157.4000000003725,431524.5999999996,9028,elated,AF,C,427946,427946,426122,427229,426122,428279,427746,427746,428279,116
112,test,1,con,1,z,Mon Oct 06 2025 15:34:52 GMT-0400 (Eastern Daylight Time),435748.5999999996,brutal,1100,I,z,z,None,425,226.0,199.0,36,1,2057.699999999255,433690.9000000004,9028,brutal,AF,C,430113,430113,428288,429396,428288,430346,429913,429913,430346,117
113,test,1,con,1,z,Mon Oct 06 2025 15:34:52 GMT-0400 (Eastern Daylight Time),437698.5,hate,1000,I,z,z,None,411,211.0,200.0,43,1,1940.7999999988824,435757.7000000011,9028,hate,AF,C,432079,432079,430355,431363,430355,432296,431879,431879,432295,118
114,test,1,con,1,m,Mon Oct 06 2025 15:34:52 GMT-0400 (Eastern Daylight Time),439631.7000000011,jacket,1000,I,m,m,None,397,197.0,200.0,99,1,1925.300000000745,437706.4000000004,9028,jacket,AF,C,434029,434029,432303,433313,432304,434229,433829,433829,434229,119
115,test,1,inc,1,m,Mon Oct 06 2025 15:34:52 GMT-0400 (Eastern Daylight Time),441681.7000000011,temper,1000,I,m,m,None,510,311.0,199.0,127,1,2040.5,439641.2000000011,9028,window,AF,C,435963,435963,434238,435246,434238,436279,435763,435763,436279,120
116,test,1,con,1,z,Mon Oct 06 2025 15:34:52 GMT-0400 (Eastern Daylight Time),443532.0,kind,1000,I,z,z,None,300,101.0,199.0,11,1,1842.2999999988824,441689.7000000011,9028,kind,AF,C,438013,438013,436287,437297,436287,438129,437813,437813,438129,121
117,test,1,con,1,z,Mon Oct 06 2025 15:34:52 GMT-0400 (Eastern Daylight Time),445231.80000000075,temper,800,I,z,z,None,362,163.0,199.0,57,1,1691.0999999996275,443540.7000000011,9028,temper,AF,C,439663,439663,438138,438946,438138,439829,439463,439463,439829,122
118,test,1,inc,1,m,Mon Oct 06 2025 15:34:52 GMT-0400 (Eastern Daylight Time),447282.0,temper,1000,I,m,m,None,511,311.0,200.0,111,1,2042.0999999996275,445239.9000000004,9028,napkin,AF,C,441563,441563,439837,440846,439837,441879,441362,441362,441879,123
119,test,1,inc,1,m,Mon Oct 06 2025 15:34:52 GMT-0400 (Eastern Daylight Time),449198.30000000075,kind,900,I,m,m,None,480,281.0,199.0,86,1,1906.5999999996275,447291.7000000011,9028,bell,AF,C,443513,443513,441889,442796,441889,443795,443313,443313,443795,124
120,test,1,inc,1,z,Mon Oct 06 2025 15:34:52 GMT-0400 (Eastern Daylight Time),451082.0,step,800,I,z,z,None,536,336.0,200.0,45,1,1875.2999999988824,449206.7000000011,9028,hate,AF,C,445329,445330,443804,444613,443804,445679,445129,445129,445679,125
120,test,1,con,0,m,Mon Oct 06 2025 15:34:52 GMT-0400 (Eastern Daylight Time),453198.4000000004,bell,1100,I,z,z,None,480,281.0,199.0,84,1,2107.0,451091.4000000004,9028,bell,AF,C,447513,447513,445688,446796,445689,447795,447313,447313,447795,126
121,test,1,con,1,z,Mon Oct 06 2025 15:34:52 GMT-0400 (Eastern Daylight Time),455198.4000000004,love,1100,I,z,z,None,364,164.0,200.0,20,1,1992.199999999255,453206.2000000011,9028,love,AF,C,449630,449630,447803,448913,447804,449795,449429,449429,449795,127
122,test,1,inc,1,z,Mon Oct 06 2025 15:34:52 GMT-0400 (Eastern Daylight Time),457382.0,window,1100,I,z,z,None,541,341.0,200.0,32,1,2176.2999999988824,455205.7000000011,9028,friend,AF,C,451629,451630,449803,450913,449803,451979,451429,451429,451979,128
