Number,acc_sum,block,block_c,block_cond,con_img,correct,correct_response,datetime,endtime,jitter,project,response,response_time,row_sel,session_number,start_end,starttime,subject_id,task,task_vers,trial
2,1,prac,1,A,circle.png,1,z,Fri Dec 05 2025 09:16:46 GMT-0600 (Central Standard Time),57485.80000001192,2000,O,z,1131,2,1,3913.0,53572.80000001192,7254,NTS,C,1
6,2,prac,1,A,circle.png,1,m,Fri Dec 05 2025 09:16:46 GMT-0600 (Central Standard Time),60833.40000003576,1900,O,m,665,5,1,3343.199999988079,57490.200000047684,7254,NTS,C,2
3,3,prac,1,A,circle.png,1,z,Fri Dec 05 2025 09:16:46 GMT-0600 (Central Standard Time),63566.90000003576,1200,O,z,737,3,1,2728.800000011921,60838.10000002384,7254,NTS,C,3
4,4,prac,1,A,circle.png,1,z,Fri Dec 05 2025 09:16:46 GMT-0600 (Central Standard Time),66466.20000004768,1400,O,z,699,4,1,2892.100000023842,63574.10000002384,7254,NTS,C,4
9,5,prac,1,A,circle.png,1,m,Fri Dec 05 2025 09:16:46 GMT-0600 (Central Standard Time),69448.20000004768,1500,O,m,685,8,1,2974.300000011921,66473.90000003576,7254,NTS,C,5
7,6,prac,1,A,circle.png,1,m,Fri Dec 05 2025 09:16:46 GMT-0600 (Central Standard Time),72648.90000003576,1700,O,m,720,6,1,3194.199999988079,69454.70000004768,7254,NTS,C,6
2,7,prac,1,A,circle.png,1,z,Fri Dec 05 2025 09:16:46 GMT-0600 (Central Standard Time),75979.0,2000,O,z,534,2,1,3324.199999988079,72654.80000001192,7254,NTS,C,7
7,8,prac,1,A,circle.png,1,m,Fri Dec 05 2025 09:16:46 GMT-0600 (Central Standard Time),79030.30000001192,1700,O,m,551,6,1,3044.899999976158,75985.40000003576,7254,NTS,C,8
1,9,prac,1,A,circle.png,1,z,Fri Dec 05 2025 09:16:46 GMT-0600 (Central Standard Time),81447.5,1000,O,z,625,1,1,2410.399999976158,79037.10000002384,7254,NTS,C,9
9,10,prac,1,A,circle.png,1,m,Fri Dec 05 2025 09:16:46 GMT-0600 (Central Standard Time),84394.10000002384,1500,O,m,659,8,1,2940.600000023842,81453.5,7254,NTS,C,10
1,11,prac,1,A,circle.png,1,z,Fri Dec 05 2025 09:16:46 GMT-0600 (Central Standard Time),86709.70000004768,1000,O,z,530,1,1,2308.5,84401.20000004768,7254,NTS,C,11
8,12,prac,1,A,circle.png,1,m,Fri Dec 05 2025 09:16:46 GMT-0600 (Central Standard Time),89608.80000001192,1600,O,m,526,7,1,2893.899999976158,86714.90000003576,7254,NTS,C,12
2,1,prac,1,B,triangle.png,1,m,Fri Dec 05 2025 09:16:46 GMT-0600 (Central Standard Time),117300.5,1700,O,m,780,2,1,3263.899999976158,114036.60000002384,7254,NTS,C,1
3,2,prac,1,B,triangle.png,1,z,Fri Dec 05 2025 09:16:46 GMT-0600 (Central Standard Time),120380.20000004768,1600,O,z,697,3,1,3074.5,117305.70000004768,7254,NTS,C,2
6,3,prac,1,B,triangle.png,1,m,Fri Dec 05 2025 09:16:46 GMT-0600 (Central Standard Time),122764.60000002384,1000,O,m,585,5,1,2374.800000011921,120389.80000001192,7254,NTS,C,3
1,4,prac,1,B,triangle.png,1,z,Fri Dec 05 2025 09:16:46 GMT-0600 (Central Standard Time),126113.10000002384,1900,O,z,659,1,1,3342.699999988079,122770.40000003576,7254,NTS,C,4
4,5,prac,1,B,triangle.png,1,m,Fri Dec 05 2025 09:16:46 GMT-0600 (Central Standard Time),129096.30000001192,1500,O,m,687,4,1,2978.699999988079,126117.60000002384,7254,NTS,C,5
3,6,prac,1,B,triangle.png,1,z,Fri Dec 05 2025 09:16:46 GMT-0600 (Central Standard Time),132627.70000004768,1600,O,z,1142,3,1,3525.600000023842,129102.10000002384,7254,NTS,C,6
7,7,prac,1,B,triangle.png,1,z,Fri Dec 05 2025 09:16:46 GMT-0600 (Central Standard Time),136310.60000002384,2000,O,z,889,6,1,3671.600000023842,132639.0,7254,NTS,C,7
9,8,prac,1,B,triangle.png,1,z,Fri Dec 05 2025 09:16:46 GMT-0600 (Central Standard Time),139193.10000002384,1400,O,z,684,8,1,2873.5,136319.60000002384,7254,NTS,C,8
6,9,prac,1,B,triangle.png,1,m,Fri Dec 05 2025 09:16:46 GMT-0600 (Central Standard Time),141826.60000002384,1000,O,m,835,5,1,2627.300000011921,139199.30000001192,7254,NTS,C,9
9,10,prac,1,B,triangle.png,1,z,Fri Dec 05 2025 09:16:46 GMT-0600 (Central Standard Time),144857.80000001192,1400,O,z,844,8,1,3024.0,141833.80000001192,7254,NTS,C,10
7,11,prac,1,B,triangle.png,1,z,Fri Dec 05 2025 09:16:46 GMT-0600 (Central Standard Time),148473.40000003576,2000,O,z,818,6,1,3606.600000023842,144866.80000001192,7254,NTS,C,11
8,12,prac,1,B,triangle.png,1,m,Fri Dec 05 2025 09:16:46 GMT-0600 (Central Standard Time),151289.0,1200,O,m,827,7,1,2805.2999999523163,148483.70000004768,7254,NTS,C,12
3,1,test,1,A,circle.png,1,z,Fri Dec 05 2025 09:16:46 GMT-0600 (Central Standard Time),165484.20000004768,1200,O,z,632,3,1,1859.1000000238419,163625.10000002384,7254,NTS,C,1
6,2,test,1,A,circle.png,1,m,Fri Dec 05 2025 09:16:46 GMT-0600 (Central Standard Time),167934.60000002384,1900,O,m,517,5,1,2447.0,165487.60000002384,7254,NTS,C,2
2,3,test,1,A,circle.png,1,z,Fri Dec 05 2025 09:16:46 GMT-0600 (Central Standard Time),170516.70000004768,2000,O,z,556,2,1,2578.800000011921,167937.90000003576,7254,NTS,C,3
9,4,test,1,A,circle.png,1,m,Fri Dec 05 2025 09:16:46 GMT-0600 (Central Standard Time),172932.5,1500,O,m,891,8,1,2412.699999988079,170519.80000001192,7254,NTS,C,4
1,5,test,1,A,circle.png,1,z,Fri Dec 05 2025 09:16:46 GMT-0600 (Central Standard Time),174581.80000001192,1000,O,z,616,1,1,1643.8999999761581,172937.90000003576,7254,NTS,C,5
7,6,test,1,A,circle.png,1,m,Fri Dec 05 2025 09:16:46 GMT-0600 (Central Standard Time),176780.10000002384,1700,O,m,475,6,1,2194.199999988079,174585.90000003576,7254,NTS,C,6
8,7,test,1,A,circle.png,1,m,Fri Dec 05 2025 09:16:46 GMT-0600 (Central Standard Time),178930.0,1600,O,m,526,7,1,2145.5,176784.5,7254,NTS,C,7
2,8,test,1,A,circle.png,1,z,Fri Dec 05 2025 09:16:46 GMT-0600 (Central Standard Time),181462.60000002384,2000,O,z,504,2,1,2529.0,178933.60000002384,7254,NTS,C,8
6,9,test,1,A,circle.png,1,m,Fri Dec 05 2025 09:16:46 GMT-0600 (Central Standard Time),184012.30000001192,1900,O,m,624,5,1,2547.099999964237,181465.20000004768,7254,NTS,C,9
1,10,test,1,A,circle.png,1,z,Fri Dec 05 2025 09:16:46 GMT-0600 (Central Standard Time),185577.70000004768,1000,O,z,543,1,1,1562.0,184015.70000004768,7254,NTS,C,10
8,11,test,1,A,circle.png,1,m,Fri Dec 05 2025 09:16:46 GMT-0600 (Central Standard Time),187760.40000003576,1600,O,m,552,7,1,2174.800000011921,185585.60000002384,7254,NTS,C,11
6,12,test,1,A,circle.png,1,m,Fri Dec 05 2025 09:16:46 GMT-0600 (Central Standard Time),190310.30000001192,1900,O,m,623,5,1,2546.599999964237,187763.70000004768,7254,NTS,C,12
7,13,test,1,A,circle.png,1,m,Fri Dec 05 2025 09:16:46 GMT-0600 (Central Standard Time),192644.0,1700,O,m,601,6,1,2328.899999976158,190315.10000002384,7254,NTS,C,13
3,14,test,1,A,circle.png,1,z,Fri Dec 05 2025 09:16:46 GMT-0600 (Central Standard Time),194425.5,1200,O,z,561,3,1,1778.7999999523163,192646.70000004768,7254,NTS,C,14
8,15,test,1,A,circle.png,1,m,Fri Dec 05 2025 09:16:46 GMT-0600 (Central Standard Time),196657.5,1600,O,m,611,7,1,2228.7999999523163,194428.70000004768,7254,NTS,C,15
8,16,test,1,A,circle.png,1,m,Fri Dec 05 2025 09:16:46 GMT-0600 (Central Standard Time),198772.60000002384,1600,O,m,490,7,1,2111.0,196661.60000002384,7254,NTS,C,16
9,17,test,1,A,circle.png,1,m,Fri Dec 05 2025 09:16:46 GMT-0600 (Central Standard Time),200823.30000001192,1500,O,m,520,8,1,2048.199999988079,198775.10000002384,7254,NTS,C,17
4,18,test,1,A,circle.png,1,z,Fri Dec 05 2025 09:16:46 GMT-0600 (Central Standard Time),202739.90000003576,1400,O,z,493,4,1,1912.1000000238419,200827.80000001192,7254,NTS,C,18
7,19,test,1,A,circle.png,1,m,Fri Dec 05 2025 09:16:46 GMT-0600 (Central Standard Time),205089.90000003576,1700,O,m,620,6,1,2344.800000011921,202745.10000002384,7254,NTS,C,19
4,20,test,1,A,circle.png,1,z,Fri Dec 05 2025 09:16:46 GMT-0600 (Central Standard Time),207088.90000003576,1400,O,z,578,4,1,1993.300000011921,205095.60000002384,7254,NTS,C,20
2,21,test,1,A,circle.png,1,z,Fri Dec 05 2025 09:16:46 GMT-0600 (Central Standard Time),209703.90000003576,2000,O,z,588,2,1,2612.300000011921,207091.60000002384,7254,NTS,C,21
1,22,test,1,A,circle.png,1,z,Fri Dec 05 2025 09:16:46 GMT-0600 (Central Standard Time),211287.5,1000,O,z,550,1,1,1580.199999988079,209707.30000001192,7254,NTS,C,22
3,23,test,1,A,circle.png,1,z,Fri Dec 05 2025 09:16:46 GMT-0600 (Central Standard Time),213136.0,1200,O,z,631,3,1,1844.5,211291.5,7254,NTS,C,23
6,24,test,1,A,circle.png,1,m,Fri Dec 05 2025 09:16:46 GMT-0600 (Central Standard Time),215720.30000001192,1900,O,m,652,5,1,2580.199999988079,213140.10000002384,7254,NTS,C,24
3,1,test,1,B,triangle.png,1,z,Fri Dec 05 2025 09:16:46 GMT-0600 (Central Standard Time),229049.0,2000,O,z,596,11,1,2614.699999988079,226434.30000001192,7254,NTS,C,1
4,2,test,1,B,triangle.png,1,m,Fri Dec 05 2025 09:16:46 GMT-0600 (Central Standard Time),230663.70000004768,1000,O,m,597,12,1,1609.6000000238419,229054.10000002384,7254,NTS,C,2
3,3,test,1,B,triangle.png,1,z,Fri Dec 05 2025 09:16:46 GMT-0600 (Central Standard Time),232897.5,1600,O,z,604,3,1,2231.0,230666.5,7254,NTS,C,3
9,4,test,1,B,triangle.png,1,z,Fri Dec 05 2025 09:16:46 GMT-0600 (Central Standard Time),235080.0,1400,O,z,754,8,1,2179.699999988079,232900.30000001192,7254,NTS,C,4
9,5,test,1,B,triangle.png,1,z,Fri Dec 05 2025 09:16:46 GMT-0600 (Central Standard Time),237596.0,1900,O,z,585,16,1,2513.399999976158,235082.60000002384,7254,NTS,C,5
3,6,test,1,B,triangle.png,1,z,Fri Dec 05 2025 09:16:46 GMT-0600 (Central Standard Time),240127.0,2000,O,z,511,11,1,2527.2999999523163,237599.70000004768,7254,NTS,C,6
6,7,test,1,B,triangle.png,1,m,Fri Dec 05 2025 09:16:46 GMT-0600 (Central Standard Time),242193.10000002384,1500,O,m,544,13,1,2063.600000023842,240129.5,7254,NTS,C,7
6,8,test,1,B,triangle.png,1,m,Fri Dec 05 2025 09:16:46 GMT-0600 (Central Standard Time),244176.0,1500,O,m,461,13,1,1979.199999988079,242196.80000001192,7254,NTS,C,8
1,9,test,1,B,triangle.png,1,z,Fri Dec 05 2025 09:16:46 GMT-0600 (Central Standard Time),246159.30000001192,1400,O,z,565,9,1,1979.5999999642372,244179.70000004768,7254,NTS,C,9
8,10,test,1,B,triangle.png,1,m,Fri Dec 05 2025 09:16:46 GMT-0600 (Central Standard Time),248424.60000002384,1700,O,m,537,15,1,2262.300000011921,246162.30000001192,7254,NTS,C,10
4,11,test,1,B,triangle.png,1,m,Fri Dec 05 2025 09:16:46 GMT-0600 (Central Standard Time),250674.60000002384,1500,O,m,718,4,1,2246.300000011921,248428.30000001192,7254,NTS,C,11
6,12,test,1,B,triangle.png,1,m,Fri Dec 05 2025 09:16:46 GMT-0600 (Central Standard Time),252306.40000003576,1000,O,m,610,5,1,1627.199999988079,250679.20000004768,7254,NTS,C,12
4,13,test,1,B,triangle.png,1,m,Fri Dec 05 2025 09:16:46 GMT-0600 (Central Standard Time),254508.90000003576,1500,O,m,684,4,1,2197.199999988079,252311.70000004768,7254,NTS,C,13
4,14,test,1,B,triangle.png,1,m,Fri Dec 05 2025 09:16:46 GMT-0600 (Central Standard Time),256138.70000004768,1000,O,m,602,12,1,1627.0,254511.70000004768,7254,NTS,C,14
2,15,test,1,B,triangle.png,1,m,Fri Dec 05 2025 09:16:46 GMT-0600 (Central Standard Time),258422.30000001192,1700,O,m,558,2,1,2277.699999988079,256144.60000002384,7254,NTS,C,15
2,16,test,1,B,triangle.png,1,m,Fri Dec 05 2025 09:16:46 GMT-0600 (Central Standard Time),260238.20000004768,1200,O,m,584,10,1,1809.5,258428.70000004768,7254,NTS,C,16
7,17,test,1,B,triangle.png,1,z,Fri Dec 05 2025 09:16:46 GMT-0600 (Central Standard Time),262470.8000000119,1600,O,z,609,14,1,2227.399999976158,260243.40000003576,7254,NTS,C,17
3,18,test,1,B,triangle.png,1,z,Fri Dec 05 2025 09:16:46 GMT-0600 (Central Standard Time),264652.5,1600,O,z,551,3,1,2177.199999988079,262475.3000000119,7254,NTS,C,18
1,19,test,1,B,triangle.png,1,z,Fri Dec 05 2025 09:16:46 GMT-0600 (Central Standard Time),267268.40000003576,1900,O,z,686,1,1,2610.400000035763,264658.0,7254,NTS,C,19
7,20,test,1,B,triangle.png,1,z,Fri Dec 05 2025 09:16:46 GMT-0600 (Central Standard Time),269584.60000002384,1600,O,z,687,14,1,2308.600000023842,267276.0,7254,NTS,C,20
8,21,test,1,B,triangle.png,1,m,Fri Dec 05 2025 09:16:46 GMT-0600 (Central Standard Time),271417.10000002384,1200,O,m,604,7,1,1826.5,269590.60000002384,7254,NTS,C,21
8,22,test,1,B,triangle.png,1,m,Fri Dec 05 2025 09:16:46 GMT-0600 (Central Standard Time),273216.60000002384,1200,O,m,571,7,1,1794.300000011921,271422.3000000119,7254,NTS,C,22
7,23,test,1,B,triangle.png,1,z,Fri Dec 05 2025 09:16:46 GMT-0600 (Central Standard Time),275832.3000000119,2000,O,z,588,6,1,2609.800000011921,273222.5,7254,NTS,C,23
9,24,test,1,B,triangle.png,1,z,Fri Dec 05 2025 09:16:46 GMT-0600 (Central Standard Time),277982.40000003576,1400,O,z,724,8,1,2144.199999988079,275838.2000000477,7254,NTS,C,24
2,1,prac,1,C,triangle.png,1,m,Fri Dec 05 2025 09:16:46 GMT-0600 (Central Standard Time),314470.5,1600,O,m,938,2,1,3328.0,311142.5,7254,NTS,C,1
4,1,prac,1,C,circle.png,0,z,Fri Dec 05 2025 09:16:46 GMT-0600 (Central Standard Time),317085.7000000477,1000,O,m,830,4,1,2610.300000011921,314475.40000003576,7254,NTS,C,2
6,2,prac,1,C,circle.png,1,m,Fri Dec 05 2025 09:16:46 GMT-0600 (Central Standard Time),321218.2000000477,2000,O,m,1334,5,1,4128.800000011921,317089.40000003576,7254,NTS,C,3
3,3,prac,1,C,triangle.png,1,z,Fri Dec 05 2025 09:16:46 GMT-0600 (Central Standard Time),324167.2000000477,1500,O,z,662,3,1,2941.100000023842,321226.10000002384,7254,NTS,C,4
9,4,prac,1,C,circle.png,1,m,Fri Dec 05 2025 09:16:46 GMT-0600 (Central Standard Time),327767.90000003576,1900,O,m,904,8,1,3595.600000023842,324172.3000000119,7254,NTS,C,5
8,5,prac,1,C,triangle.png,1,m,Fri Dec 05 2025 09:16:46 GMT-0600 (Central Standard Time),330732.5,1400,O,m,767,7,1,2958.5,327774.0,7254,NTS,C,6
2,6,prac,1,C,triangle.png,1,m,Fri Dec 05 2025 09:16:46 GMT-0600 (Central Standard Time),334117.10000002384,1600,O,m,1001,2,1,3378.399999976158,330738.7000000477,7254,NTS,C,7
7,7,prac,1,C,triangle.png,1,z,Fri Dec 05 2025 09:16:46 GMT-0600 (Central Standard Time),336896.10000002384,1200,O,z,794,6,1,2772.600000023842,334123.5,7254,NTS,C,8
4,8,prac,1,C,circle.png,1,z,Fri Dec 05 2025 09:16:46 GMT-0600 (Central Standard Time),339313.40000003576,1000,O,z,619,4,1,2411.400000035763,336902.0,7254,NTS,C,9
6,9,prac,1,C,circle.png,1,m,Fri Dec 05 2025 09:16:46 GMT-0600 (Central Standard Time),342762.90000003576,2000,O,m,674,5,1,3443.100000023842,339319.8000000119,7254,NTS,C,10
9,10,prac,1,C,circle.png,1,m,Fri Dec 05 2025 09:16:46 GMT-0600 (Central Standard Time),346176.90000003576,1900,O,m,727,8,1,3405.400000035763,342771.5,7254,NTS,C,11
1,11,prac,1,C,circle.png,1,z,Fri Dec 05 2025 09:16:46 GMT-0600 (Central Standard Time),349909.40000003576,1700,O,z,1247,1,1,3725.600000023842,346183.8000000119,7254,NTS,C,12
7,1,test,1,C,circle.png,1,m,Fri Dec 05 2025 09:16:46 GMT-0600 (Central Standard Time),359857.60000002384,2000,O,m,649,14,1,2678.600000023842,357179.0,7254,NTS,C,1
9,2,test,1,C,circle.png,1,m,Fri Dec 05 2025 09:16:46 GMT-0600 (Central Standard Time),362106.8000000119,1500,O,m,729,24,1,2244.699999988079,359862.10000002384,7254,NTS,C,2
6,3,test,1,C,circle.png,1,m,Fri Dec 05 2025 09:16:46 GMT-0600 (Central Standard Time),364721.3000000119,1900,O,m,695,21,1,2610.300000011921,362111.0,7254,NTS,C,3
9,4,test,1,C,triangle.png,1,z,Fri Dec 05 2025 09:16:46 GMT-0600 (Central Standard Time),366903.8000000119,1400,O,z,754,16,1,2178.099999964237,364725.7000000477,7254,NTS,C,4
1,5,test,1,C,triangle.png,1,z,Fri Dec 05 2025 09:16:46 GMT-0600 (Central Standard Time),369521.10000002384,1900,O,z,688,17,1,2614.5,366906.60000002384,7254,NTS,C,5
8,6,test,1,C,triangle.png,1,m,Fri Dec 05 2025 09:16:46 GMT-0600 (Central Standard Time),371884.40000003576,1600,O,m,733,7,1,2360.0,369524.40000003576,7254,NTS,C,6
8,7,test,1,C,triangle.png,1,m,Fri Dec 05 2025 09:16:46 GMT-0600 (Central Standard Time),374235.60000002384,1600,O,m,728,23,1,2347.300000011921,371888.3000000119,7254,NTS,C,7
3,8,test,1,C,circle.png,1,z,Fri Dec 05 2025 09:16:46 GMT-0600 (Central Standard Time),376483.7000000477,1600,O,z,618,11,1,2244.600000023842,374239.10000002384,7254,NTS,C,8
3,9,test,1,C,triangle.png,1,z,Fri Dec 05 2025 09:16:46 GMT-0600 (Central Standard Time),378798.90000003576,1200,O,z,1098,3,1,2308.800000011921,376490.10000002384,7254,NTS,C,9
7,10,test,1,C,triangle.png,1,z,Fri Dec 05 2025 09:16:46 GMT-0600 (Central Standard Time),381865.7000000477,1700,O,z,1344,22,1,3064.0,378801.7000000477,7254,NTS,C,10
4,11,test,1,C,triangle.png,1,m,Fri Dec 05 2025 09:16:46 GMT-0600 (Central Standard Time),384598.60000002384,1500,O,m,1197,20,1,2726.899999976158,381871.7000000477,7254,NTS,C,11
6,12,test,1,C,circle.png,1,m,Fri Dec 05 2025 09:16:46 GMT-0600 (Central Standard Time),387215.10000002384,1900,O,m,690,5,1,2613.199999988079,384601.90000003576,7254,NTS,C,12
9,13,test,1,C,circle.png,1,m,Fri Dec 05 2025 09:16:46 GMT-0600 (Central Standard Time),389496.5,1500,O,m,752,8,1,2277.0,387219.5,7254,NTS,C,13
2,14,test,1,C,circle.png,1,z,Fri Dec 05 2025 09:16:46 GMT-0600 (Central Standard Time),392045.3000000119,1700,O,z,817,10,1,2544.5,389500.8000000119,7254,NTS,C,14
4,15,test,1,C,circle.png,1,z,Fri Dec 05 2025 09:16:46 GMT-0600 (Central Standard Time),394296.7000000477,1400,O,z,831,4,1,2245.800000011921,392050.90000003576,7254,NTS,C,15
3,16,test,1,C,circle.png,1,z,Fri Dec 05 2025 09:16:46 GMT-0600 (Central Standard Time),396712.3000000119,1600,O,z,790,19,1,2411.800000011921,394300.5,7254,NTS,C,16
2,17,test,1,C,triangle.png,1,m,Fri Dec 05 2025 09:16:46 GMT-0600 (Central Standard Time),399726.5,2000,O,m,989,2,1,3010.2999999523163,396716.2000000477,7254,NTS,C,17
2,18,test,1,C,circle.png,1,z,Fri Dec 05 2025 09:16:46 GMT-0600 (Central Standard Time),402275.7000000477,1700,O,z,825,18,1,2546.0,399729.7000000477,7254,NTS,C,18
7,19,test,1,C,triangle.png,1,z,Fri Dec 05 2025 09:16:46 GMT-0600 (Central Standard Time),405257.8000000119,1700,O,z,1261,6,1,2978.0,402279.8000000119,7254,NTS,C,19
4,20,test,1,C,triangle.png,1,m,Fri Dec 05 2025 09:16:46 GMT-0600 (Central Standard Time),407924.5,1500,O,m,1136,12,1,2663.099999964237,405261.40000003576,7254,NTS,C,20
8,21,test,1,C,circle.png,1,m,Fri Dec 05 2025 09:16:46 GMT-0600 (Central Standard Time),410023.3000000119,1200,O,m,873,15,1,2094.099999964237,407929.2000000477,7254,NTS,C,21
1,21,test,1,C,circle.png,0,z,Fri Dec 05 2025 09:16:46 GMT-0600 (Central Standard Time),412556.3000000119,1000,O,None,1515,1,1,2529.0,410027.3000000119,7254,NTS,C,22
6,22,test,1,C,triangle.png,1,m,Fri Dec 05 2025 09:16:46 GMT-0600 (Central Standard Time),414588.2000000477,1000,O,m,1007,13,1,2026.800000011921,412561.40000003576,7254,NTS,C,23
1,23,test,1,C,triangle.png,1,z,Fri Dec 05 2025 09:16:46 GMT-0600 (Central Standard Time),417687.60000002384,1900,O,z,1171,9,1,3095.800000011921,414591.8000000119,7254,NTS,C,24
3,1,test,2,C,circle.png,1,z,Fri Dec 05 2025 09:16:46 GMT-0600 (Central Standard Time),434017.40000003576,1600,O,z,647,19,1,2260.400000035763,431757.0,7254,NTS,C,1
8,2,test,2,C,triangle.png,1,m,Fri Dec 05 2025 09:16:46 GMT-0600 (Central Standard Time),436214.5,1600,O,m,573,7,1,2193.199999988079,434021.3000000119,7254,NTS,C,2
4,3,test,2,C,triangle.png,1,m,Fri Dec 05 2025 09:16:46 GMT-0600 (Central Standard Time),438381.10000002384,1500,O,m,635,12,1,2161.699999988079,436219.40000003576,7254,NTS,C,3
9,4,test,2,C,triangle.png,1,z,Fri Dec 05 2025 09:16:46 GMT-0600 (Central Standard Time),440548.3000000119,1400,O,z,741,16,1,2161.099999964237,438387.2000000477,7254,NTS,C,4
3,5,test,2,C,circle.png,1,z,Fri Dec 05 2025 09:16:46 GMT-0600 (Central Standard Time),442979.2000000477,1600,O,z,809,11,1,2427.600000023842,440551.60000002384,7254,NTS,C,5
1,6,test,2,C,triangle.png,1,z,Fri Dec 05 2025 09:16:46 GMT-0600 (Central Standard Time),446077.90000003576,1900,O,z,1173,9,1,3095.0,442982.90000003576,7254,NTS,C,6
2,6,test,2,C,circle.png,0,z,Fri Dec 05 2025 09:16:46 GMT-0600 (Central Standard Time),448610.7000000477,1700,O,m,810,18,1,2529.0,446081.7000000477,7254,NTS,C,7
8,7,test,2,C,circle.png,1,m,Fri Dec 05 2025 09:16:46 GMT-0600 (Central Standard Time),450693.40000003576,1200,O,m,851,15,1,2078.800000011921,448614.60000002384,7254,NTS,C,8
7,8,test,2,C,circle.png,1,m,Fri Dec 05 2025 09:16:46 GMT-0600 (Central Standard Time),453908.8000000119,2000,O,m,1189,14,1,3211.0,450697.8000000119,7254,NTS,C,9
9,9,test,2,C,circle.png,1,m,Fri Dec 05 2025 09:16:46 GMT-0600 (Central Standard Time),456342.5,1500,O,m,901,8,1,2429.7999999523163,453912.7000000477,7254,NTS,C,10
4,9,test,2,C,circle.png,0,z,Fri Dec 05 2025 09:16:46 GMT-0600 (Central Standard Time),458658.60000002384,1400,O,m,886,4,1,2312.800000011921,456345.8000000119,7254,NTS,C,11
1,10,test,2,C,circle.png,1,z,Fri Dec 05 2025 09:16:46 GMT-0600 (Central Standard Time),461106.90000003576,1000,O,z,1428,1,1,2444.5,458662.40000003576,7254,NTS,C,12
6,11,test,2,C,triangle.png,1,m,Fri Dec 05 2025 09:16:46 GMT-0600 (Central Standard Time),463039.3000000119,1000,O,m,914,21,1,1927.3999999761581,461111.90000003576,7254,NTS,C,13
8,12,test,2,C,circle.png,1,m,Fri Dec 05 2025 09:16:46 GMT-0600 (Central Standard Time),465238.7000000477,1200,O,m,971,23,1,2194.800000011921,463043.90000003576,7254,NTS,C,14
3,13,test,2,C,triangle.png,1,z,Fri Dec 05 2025 09:16:46 GMT-0600 (Central Standard Time),467355.60000002384,1200,O,z,893,3,1,2112.899999976158,465242.7000000477,7254,NTS,C,15
4,14,test,2,C,triangle.png,1,m,Fri Dec 05 2025 09:16:46 GMT-0600 (Central Standard Time),469737.40000003576,1500,O,m,853,20,1,2379.300000011921,467358.10000002384,7254,NTS,C,16
6,15,test,2,C,circle.png,1,m,Fri Dec 05 2025 09:16:46 GMT-0600 (Central Standard Time),472486.5,1900,O,m,818,5,1,2745.099999964237,469741.40000003576,7254,NTS,C,17
9,16,test,2,C,triangle.png,1,z,Fri Dec 05 2025 09:16:46 GMT-0600 (Central Standard Time),475019.8000000119,1400,O,z,1101,24,1,2528.899999976158,472490.90000003576,7254,NTS,C,18
7,17,test,2,C,triangle.png,1,z,Fri Dec 05 2025 09:16:46 GMT-0600 (Central Standard Time),477585.90000003576,1700,O,z,838,6,1,2561.300000011921,475024.60000002384,7254,NTS,C,19
1,18,test,2,C,triangle.png,1,z,Fri Dec 05 2025 09:16:46 GMT-0600 (Central Standard Time),480218.7000000477,1900,O,z,711,17,1,2626.800000011921,477591.90000003576,7254,NTS,C,20
2,19,test,2,C,triangle.png,1,m,Fri Dec 05 2025 09:16:46 GMT-0600 (Central Standard Time),483133.10000002384,2000,O,m,884,2,1,2910.699999988079,480222.40000003576,7254,NTS,C,21
6,20,test,2,C,triangle.png,1,m,Fri Dec 05 2025 09:16:46 GMT-0600 (Central Standard Time),485150.8000000119,1000,O,m,991,13,1,2015.0999999642372,483135.7000000477,7254,NTS,C,22
2,21,test,2,C,circle.png,1,z,Fri Dec 05 2025 09:16:46 GMT-0600 (Central Standard Time),487715.60000002384,1700,O,z,843,10,1,2561.699999988079,485153.90000003576,7254,NTS,C,23
7,22,test,2,C,circle.png,1,m,Fri Dec 05 2025 09:16:46 GMT-0600 (Central Standard Time),490464.10000002384,2000,O,m,721,22,1,2745.5,487718.60000002384,7254,NTS,C,24
1,1,test,3,C,circle.png,1,z,Fri Dec 05 2025 09:16:46 GMT-0600 (Central Standard Time),494198.10000002384,1000,O,z,852,1,1,1876.699999988079,492321.40000003576,7254,NTS,C,1
8,2,test,3,C,triangle.png,1,m,Fri Dec 05 2025 09:16:46 GMT-0600 (Central Standard Time),496712.3000000119,1600,O,m,895,7,1,2504.199999988079,494208.10000002384,7254,NTS,C,2
6,3,test,3,C,triangle.png,1,m,Fri Dec 05 2025 09:16:46 GMT-0600 (Central Standard Time),498545.10000002384,1000,O,m,804,13,1,1830.199999988079,496714.90000003576,7254,NTS,C,3
4,4,test,3,C,circle.png,1,z,Fri Dec 05 2025 09:16:46 GMT-0600 (Central Standard Time),500628.8000000119,1400,O,z,652,4,1,2078.699999988079,498550.10000002384,7254,NTS,C,4
9,5,test,3,C,circle.png,1,m,Fri Dec 05 2025 09:16:46 GMT-0600 (Central Standard Time),503027.3000000119,1500,O,m,877,8,1,2390.599999964237,500636.7000000477,7254,NTS,C,5
2,6,test,3,C,triangle.png,1,m,Fri Dec 05 2025 09:16:46 GMT-0600 (Central Standard Time),506258.7000000477,2000,O,m,1201,2,1,3227.7000000476837,503031.0,7254,NTS,C,6
3,7,test,3,C,circle.png,1,z,Fri Dec 05 2025 09:16:46 GMT-0600 (Central Standard Time),508708.90000003576,1600,O,z,818,11,1,2445.199999988079,506263.7000000477,7254,NTS,C,7
4,8,test,3,C,triangle.png,1,m,Fri Dec 05 2025 09:16:46 GMT-0600 (Central Standard Time),511193.10000002384,1500,O,m,951,12,1,2478.399999976158,508714.7000000477,7254,NTS,C,8
3,8,test,3,C,triangle.png,0,z,Fri Dec 05 2025 09:16:46 GMT-0600 (Central Standard Time),513924.3000000119,1200,O,None,1516,19,1,2726.5,511197.8000000119,7254,NTS,C,9
9,9,test,3,C,triangle.png,1,z,Fri Dec 05 2025 09:16:46 GMT-0600 (Central Standard Time),515539.10000002384,1400,O,z,184,16,1,1608.300000011921,513930.8000000119,7254,NTS,C,10
1,10,test,3,C,circle.png,1,z,Fri Dec 05 2025 09:16:46 GMT-0600 (Central Standard Time),517473.10000002384,1000,O,z,905,17,1,1927.6000000238419,515545.5,7254,NTS,C,11
7,11,test,3,C,circle.png,1,m,Fri Dec 05 2025 09:16:46 GMT-0600 (Central Standard Time),520454.90000003576,2000,O,m,956,14,1,2976.300000011921,517478.60000002384,7254,NTS,C,12
8,12,test,3,C,triangle.png,1,m,Fri Dec 05 2025 09:16:46 GMT-0600 (Central Standard Time),522954.40000003576,1600,O,m,870,23,1,2495.400000035763,520459.0,7254,NTS,C,13
6,13,test,3,C,circle.png,1,m,Fri Dec 05 2025 09:16:46 GMT-0600 (Central Standard Time),525602.9000000358,1900,O,m,717,21,1,2643.0,522959.90000003576,7254,NTS,C,14
7,14,test,3,C,triangle.png,1,z,Fri Dec 05 2025 09:16:46 GMT-0600 (Central Standard Time),528185.7000000477,1700,O,z,853,22,1,2580.0,525605.7000000477,7254,NTS,C,15
2,15,test,3,C,triangle.png,1,m,Fri Dec 05 2025 09:16:46 GMT-0600 (Central Standard Time),530935.1000000238,2000,O,m,731,18,1,2746.199999988079,528188.9000000358,7254,NTS,C,16
2,15,test,3,C,circle.png,0,z,Fri Dec 05 2025 09:16:46 GMT-0600 (Central Standard Time),533383.5,1700,O,m,731,10,1,2444.099999964237,530939.4000000358,7254,NTS,C,17
8,16,test,3,C,circle.png,1,m,Fri Dec 05 2025 09:16:46 GMT-0600 (Central Standard Time),535268.7000000477,1200,O,m,659,15,1,1882.1000000238419,533386.6000000238,7254,NTS,C,18
3,17,test,3,C,triangle.png,1,z,Fri Dec 05 2025 09:16:46 GMT-0600 (Central Standard Time),537198.9000000358,1200,O,z,706,3,1,1926.300000011921,535272.6000000238,7254,NTS,C,19
4,18,test,3,C,circle.png,1,z,Fri Dec 05 2025 09:16:46 GMT-0600 (Central Standard Time),539398.7000000477,1400,O,z,768,20,1,2196.2000000476837,537202.5,7254,NTS,C,20
9,19,test,3,C,circle.png,1,m,Fri Dec 05 2025 09:16:46 GMT-0600 (Central Standard Time),541547.5,1500,O,m,625,24,1,2141.5,539406.0,7254,NTS,C,21
6,20,test,3,C,circle.png,1,m,Fri Dec 05 2025 09:16:46 GMT-0600 (Central Standard Time),544163.3000000119,1900,O,m,693,5,1,2613.099999964237,541550.2000000477,7254,NTS,C,22
1,21,test,3,C,triangle.png,1,z,Fri Dec 05 2025 09:16:46 GMT-0600 (Central Standard Time),546946.0,1900,O,z,860,9,1,2778.2999999523163,544167.7000000477,7254,NTS,C,23
7,22,test,3,C,triangle.png,1,z,Fri Dec 05 2025 09:16:46 GMT-0600 (Central Standard Time),549295.5,1700,O,z,623,6,1,2345.399999976158,546950.1000000238,7254,NTS,C,24
2,1,test,4,C,triangle.png,1,m,Fri Dec 05 2025 09:16:46 GMT-0600 (Central Standard Time),553478.0,2000,O,m,840,2,1,2862.199999988079,550615.8000000119,7254,NTS,C,1
4,2,test,4,C,triangle.png,1,m,Fri Dec 05 2025 09:16:46 GMT-0600 (Central Standard Time),555743.0,1500,O,m,746,12,1,2261.2999999523163,553481.7000000477,7254,NTS,C,2
1,3,test,4,C,triangle.png,1,z,Fri Dec 05 2025 09:16:46 GMT-0600 (Central Standard Time),558643.3000000119,1900,O,z,969,9,1,2897.300000011921,555746.0,7254,NTS,C,3
6,4,test,4,C,triangle.png,1,m,Fri Dec 05 2025 09:16:46 GMT-0600 (Central Standard Time),561126.4000000358,1000,O,m,1451,13,1,2477.0,558649.4000000358,7254,NTS,C,4
6,5,test,4,C,circle.png,1,m,Fri Dec 05 2025 09:16:46 GMT-0600 (Central Standard Time),564108.7000000477,1900,O,m,1059,5,1,2977.2000000476837,561131.5,7254,NTS,C,5
2,6,test,4,C,circle.png,1,z,Fri Dec 05 2025 09:16:46 GMT-0600 (Central Standard Time),566473.8000000119,1700,O,z,635,10,1,2361.5,564112.3000000119,7254,NTS,C,6
7,7,test,4,C,circle.png,1,m,Fri Dec 05 2025 09:16:46 GMT-0600 (Central Standard Time),569422.9000000358,2000,O,m,918,14,1,2944.800000011921,566478.1000000238,7254,NTS,C,7
8,8,test,4,C,triangle.png,1,m,Fri Dec 05 2025 09:16:46 GMT-0600 (Central Standard Time),571871.7000000477,1600,O,m,830,7,1,2444.600000023842,569427.1000000238,7254,NTS,C,8
3,9,test,4,C,triangle.png,1,z,Fri Dec 05 2025 09:16:46 GMT-0600 (Central Standard Time),573889.4000000358,1200,O,z,789,3,1,2014.1000000238419,571875.3000000119,7254,NTS,C,9
2,10,test,4,C,triangle.png,1,m,Fri Dec 05 2025 09:16:46 GMT-0600 (Central Standard Time),576807.6000000238,2000,O,m,903,18,1,2912.899999976158,573894.7000000477,7254,NTS,C,10
3,11,test,4,C,circle.png,1,z,Fri Dec 05 2025 09:16:46 GMT-0600 (Central Standard Time),579319.3000000119,1600,O,z,899,11,1,2507.599999964237,576811.7000000477,7254,NTS,C,11
7,12,test,4,C,triangle.png,1,z,Fri Dec 05 2025 09:16:46 GMT-0600 (Central Standard Time),581703.1000000238,1700,O,z,667,22,1,2379.800000011921,579323.3000000119,7254,NTS,C,12
9,13,test,4,C,circle.png,1,m,Fri Dec 05 2025 09:16:46 GMT-0600 (Central Standard Time),584051.3000000119,1500,O,m,816,24,1,2345.099999964237,581706.2000000477,7254,NTS,C,13
7,14,test,4,C,triangle.png,1,z,Fri Dec 05 2025 09:16:46 GMT-0600 (Central Standard Time),586716.5,1700,O,z,934,6,1,2660.699999988079,584055.8000000119,7254,NTS,C,14
1,15,test,4,C,circle.png,1,z,Fri Dec 05 2025 09:16:46 GMT-0600 (Central Standard Time),588599.3000000119,1000,O,z,863,1,1,1878.0999999642372,586721.2000000477,7254,NTS,C,15
4,16,test,4,C,circle.png,1,z,Fri Dec 05 2025 09:16:46 GMT-0600 (Central Standard Time),590766.5,1400,O,z,733,4,1,2163.199999988079,588603.3000000119,7254,NTS,C,16
1,17,test,4,C,circle.png,1,z,Fri Dec 05 2025 09:16:46 GMT-0600 (Central Standard Time),592599.6000000238,1000,O,z,806,17,1,1829.699999988079,590769.9000000358,7254,NTS,C,17
8,18,test,4,C,triangle.png,1,m,Fri Dec 05 2025 09:16:46 GMT-0600 (Central Standard Time),595248.2000000477,1600,O,m,1030,23,1,2645.0,592603.2000000477,7254,NTS,C,18
9,19,test,4,C,triangle.png,1,z,Fri Dec 05 2025 09:16:46 GMT-0600 (Central Standard Time),597464.0,1400,O,z,786,16,1,2212.0,595252.0,7254,NTS,C,19
8,20,test,4,C,circle.png,1,m,Fri Dec 05 2025 09:16:46 GMT-0600 (Central Standard Time),599647.4000000358,1200,O,m,950,15,1,2180.800000011921,597466.6000000238,7254,NTS,C,20
4,21,test,4,C,circle.png,1,z,Fri Dec 05 2025 09:16:46 GMT-0600 (Central Standard Time),601796.0,1400,O,z,716,20,1,2142.199999988079,599653.8000000119,7254,NTS,C,21
3,22,test,4,C,triangle.png,1,z,Fri Dec 05 2025 09:16:46 GMT-0600 (Central Standard Time),604161.8000000119,1200,O,z,1137,19,1,2360.199999988079,601801.6000000238,7254,NTS,C,22
9,23,test,4,C,circle.png,1,m,Fri Dec 05 2025 09:16:46 GMT-0600 (Central Standard Time),606527.5,1500,O,m,847,8,1,2361.699999988079,604165.8000000119,7254,NTS,C,23
6,24,test,4,C,circle.png,1,m,Fri Dec 05 2025 09:16:46 GMT-0600 (Central Standard Time),609176.0,1900,O,m,729,21,1,2646.199999988079,606529.8000000119,7254,NTS,C,24
