block_c,block_dur,condition,countdown,datetime,endtime,list,multichar_response,project,response,response_time,session_number,start_end,starttime,subject_id,task,task_vers,trial
,,,,Wed Jul 30 2025 10:54:19 GMT-0500 (Central Daylight Time),,,,I,space,606,3,,,8020,WL,C,
prac,,0,,Wed Jul 30 2025 10:54:19 GMT-0500 (Central Daylight Time),,NA,b,I,b,11481,3,,,8020,WL,C,1.0
prac,,0,,Wed Jul 30 2025 10:54:19 GMT-0500 (Central Daylight Time),,NA,bo,I,o,210,3,,,8020,WL,C,1.0
prac,,0,,Wed Jul 30 2025 10:54:19 GMT-0500 (Central Daylight Time),,NA,boo,I,o,155,3,,,8020,WL,C,1.0
prac,,0,,Wed Jul 30 2025 10:54:19 GMT-0500 (Central Daylight Time),,NA,boos,I,s,100,3,,,8020,WL,C,1.0
prac,,0,,Wed Jul 30 2025 10:54:19 GMT-0500 (Central Daylight Time),,NA,boost,I,t,296,3,,,8020,WL,C,1.0
prac,,0,,Wed Jul 30 2025 10:54:19 GMT-0500 (Central Daylight Time),,NA,boostenter,I,enter,852,3,,,8020,WL,C,1.0
1,5.549000024795532,learn,54450.99997520447,Wed Jul 30 2025 10:54:19 GMT-0500 (Central Daylight Time),647461.6999999955,A,c,I,c,5531,3,5548.19999999553,641913.5,8020,WL,C,1.0
1,5.747999906539917,learn,54252.00009346008,Wed Jul 30 2025 10:54:19 GMT-0500 (Central Daylight Time),647661.3999999985,A,ca,I,a,181,3,5747.89999999851,641913.5,8020,WL,C,1.0
1,6.180999994277954,learn,53819.000005722046,Wed Jul 30 2025 10:54:19 GMT-0500 (Central Daylight Time),648094.599999994,A,cat,I,t,414,3,6181.0999999940395,641913.5,8020,WL,C,1.0
1,6.347999811172485,learn,53652.000188827515,Wed Jul 30 2025 10:54:19 GMT-0500 (Central Daylight Time),648261.1999999955,A,catt,I,t,157,3,6347.69999999553,641913.5,8020,WL,C,1.0
1,6.680999994277954,learn,53319.000005722046,Wed Jul 30 2025 10:54:19 GMT-0500 (Central Daylight Time),648594.099999994,A,cattl,I,l,320,3,6680.5999999940395,641913.5,8020,WL,C,1.0
1,7.082000017166138,learn,52917.99998283386,Wed Jul 30 2025 10:54:19 GMT-0500 (Central Daylight Time),648995.1999999955,A,cattle,I,e,394,3,7081.69999999553,641913.5,8020,WL,C,1.0
1,8.080999851226807,learn,51919.00014877319,Wed Jul 30 2025 10:54:19 GMT-0500 (Central Daylight Time),649993.8999999985,A,cattlec,I,c,978,3,8080.39999999851,641913.5,8020,WL,C,1.0
1,9.480000019073486,learn,50519.999980926514,Wed Jul 30 2025 10:54:19 GMT-0500 (Central Daylight Time),651393.3999999985,A,cattle,I,backspace,1379,3,9479.89999999851,641913.5,8020,WL,C,1.0
1,11.595999956130981,learn,48404.00004386902,Wed Jul 30 2025 10:54:19 GMT-0500 (Central Daylight Time),653509.5,A,cattleenter,I,enter,2107,3,11596.0,641913.5,8020,WL,C,1.0
1,13.794999837875366,learn,46205.000162124634,Wed Jul 30 2025 10:54:19 GMT-0500 (Central Daylight Time),655708.599999994,A,c,I,c,2182,3,2198.5999999940395,653510.0,8020,WL,C,2.0
1,14.111999988555908,learn,45888.00001144409,Wed Jul 30 2025 10:54:19 GMT-0500 (Central Daylight Time),656025.5,A,co,I,o,303,3,2515.5,653510.0,8020,WL,C,2.0
1,14.51199984550476,learn,45488.00015449524,Wed Jul 30 2025 10:54:19 GMT-0500 (Central Daylight Time),656425.299999997,A,cor,I,r,378,3,2915.2999999970198,653510.0,8020,WL,C,2.0
1,15.111999988555908,learn,44888.00001144409,Wed Jul 30 2025 10:54:19 GMT-0500 (Central Daylight Time),657025.0,A,corn,I,n,579,3,3515.0,653510.0,8020,WL,C,2.0
1,16.078999996185303,learn,43921.0000038147,Wed Jul 30 2025 10:54:19 GMT-0500 (Central Daylight Time),657992.5,A,cornenter,I,enter,955,3,4482.5,653510.0,8020,WL,C,2.0
1,16.628000020980835,learn,43371.999979019165,Wed Jul 30 2025 10:54:19 GMT-0500 (Central Daylight Time),658541.1999999955,A,n,I,n,539,3,548.2999999970198,657992.8999999985,8020,WL,C,3.0
1,17.310999870300293,learn,42689.00012969971,Wed Jul 30 2025 10:54:19 GMT-0500 (Central Daylight Time),659224.5,A,na,I,a,662,3,1231.6000000014901,657992.8999999985,8020,WL,C,3.0
1,17.727999925613403,learn,42272.0000743866,Wed Jul 30 2025 10:54:19 GMT-0500 (Central Daylight Time),659640.799999997,A,nai,I,i,403,3,1647.8999999985099,657992.8999999985,8020,WL,C,3.0
1,18.276999950408936,learn,41723.000049591064,Wed Jul 30 2025 10:54:19 GMT-0500 (Central Daylight Time),660190.599999994,A,nail,I,l,539,3,2197.6999999955297,657992.8999999985,8020,WL,C,3.0
1,19.0939998626709,learn,40906.0001373291,Wed Jul 30 2025 10:54:19 GMT-0500 (Central Daylight Time),661007.299999997,A,nailenter,I,enter,798,3,3014.39999999851,657992.8999999985,8020,WL,C,3.0
1,20.72599983215332,learn,39274.00016784668,Wed Jul 30 2025 10:54:19 GMT-0500 (Central Daylight Time),662639.8999999985,A,q,I,q,1612,3,1632.2000000029802,661007.6999999955,8020,WL,C,4.0
1,21.125999927520752,learn,38874.00007247925,Wed Jul 30 2025 10:54:19 GMT-0500 (Central Daylight Time),663039.6999999955,A,qu,I,u,388,3,2032.0,661007.6999999955,8020,WL,C,4.0
1,21.442999839782715,learn,38557.000160217285,Wed Jul 30 2025 10:54:19 GMT-0500 (Central Daylight Time),663356.3999999985,A,que,I,e,310,3,2348.7000000029802,661007.6999999955,8020,WL,C,4.0
1,21.625999927520752,learn,38374.00007247925,Wed Jul 30 2025 10:54:19 GMT-0500 (Central Daylight Time),663539.799999997,A,quee,I,e,168,3,2532.10000000149,661007.6999999955,8020,WL,C,4.0
1,21.875999927520752,learn,38124.00007247925,Wed Jul 30 2025 10:54:19 GMT-0500 (Central Daylight Time),663789.5,A,queen,I,n,233,3,2781.8000000044703,661007.6999999955,8020,WL,C,4.0
1,22.508999824523926,learn,37491.000175476074,Wed Jul 30 2025 10:54:19 GMT-0500 (Central Daylight Time),664422.6999999955,A,queenenter,I,enter,615,3,3415.0,661007.6999999955,8020,WL,C,4.0
1,23.45899987220764,learn,36541.00012779236,Wed Jul 30 2025 10:54:19 GMT-0500 (Central Daylight Time),665372.3999999985,A,t,I,t,933,3,949.3999999985099,664423.0,8020,WL,C,5.0
1,23.72499990463257,learn,36275.00009536743,Wed Jul 30 2025 10:54:19 GMT-0500 (Central Daylight Time),665639.0,A,to,I,o,256,3,1216.0,664423.0,8020,WL,C,5.0
1,23.924999952316284,learn,36075.000047683716,Wed Jul 30 2025 10:54:19 GMT-0500 (Central Daylight Time),665838.8999999985,A,tow,I,w,181,3,1415.8999999985099,664423.0,8020,WL,C,5.0
1,24.174999952316284,learn,35825.000047683716,Wed Jul 30 2025 10:54:19 GMT-0500 (Central Daylight Time),666088.799999997,A,towe,I,e,237,3,1665.7999999970198,664423.0,8020,WL,C,5.0
1,24.307999849319458,learn,35692.00015068054,Wed Jul 30 2025 10:54:19 GMT-0500 (Central Daylight Time),666222.0,A,tower,I,r,123,3,1799.0,664423.0,8020,WL,C,5.0
1,24.875,learn,35125.0,Wed Jul 30 2025 10:54:19 GMT-0500 (Central Daylight Time),666788.599999994,A,towerenter,I,enter,558,3,2365.5999999940395,664423.0,8020,WL,C,5.0
1,28.573999881744385,learn,31426.000118255615,Wed Jul 30 2025 10:54:19 GMT-0500 (Central Daylight Time),670487.5,A,h,I,h,3688,3,3698.60000000149,666788.8999999985,8020,WL,C,6.0
1,28.68999981880188,learn,31310.00018119812,Wed Jul 30 2025 10:54:19 GMT-0500 (Central Daylight Time),670604.0,A,ho,I,o,108,3,3815.10000000149,666788.8999999985,8020,WL,C,6.0
1,29.43999981880188,learn,30560.00018119812,Wed Jul 30 2025 10:54:19 GMT-0500 (Central Daylight Time),671354.0,A,hom,I,m,728,3,4565.10000000149,666788.8999999985,8020,WL,C,6.0
1,29.62399983406067,learn,30376.00016593933,Wed Jul 30 2025 10:54:19 GMT-0500 (Central Daylight Time),671537.1999999955,A,home,I,e,161,3,4748.29999999702,666788.8999999985,8020,WL,C,6.0
1,30.372999906539917,learn,29627.000093460083,Wed Jul 30 2025 10:54:19 GMT-0500 (Central Daylight Time),672286.8999999985,A,homeenter,I,enter,739,3,5498.0,666788.8999999985,8020,WL,C,6.0
1,31.222999811172485,learn,28777.000188827515,Wed Jul 30 2025 10:54:19 GMT-0500 (Central Daylight Time),673136.599999994,A,b,I,b,838,3,849.2999999970198,672287.299999997,8020,WL,C,7.0
1,31.33999991416931,learn,28660.00008583069,Wed Jul 30 2025 10:54:19 GMT-0500 (Central Daylight Time),673253.1999999955,A,bo,I,o,100,3,965.8999999985099,672287.299999997,8020,WL,C,7.0
1,31.60599994659424,learn,28394.00005340576,Wed Jul 30 2025 10:54:19 GMT-0500 (Central Daylight Time),673519.6999999955,A,boy,I,y,256,3,1232.3999999985099,672287.299999997,8020,WL,C,7.0
1,32.1729998588562,learn,27827.0001411438,Wed Jul 30 2025 10:54:19 GMT-0500 (Central Daylight Time),674086.299999997,A,boyenter,I,enter,557,3,1799.0,672287.299999997,8020,WL,C,7.0
1,34.52199983596802,learn,25478.000164031982,Wed Jul 30 2025 10:54:19 GMT-0500 (Central Daylight Time),676435.5,A,d,I,d,2342,3,2348.7000000029802,674086.799999997,8020,WL,C,8.0
1,34.621999979019165,learn,25378.000020980835,Wed Jul 30 2025 10:54:19 GMT-0500 (Central Daylight Time),676535.5,A,do,I,o,90,3,2448.7000000029802,674086.799999997,8020,WL,C,8.0
1,34.954999923706055,learn,25045.000076293945,Wed Jul 30 2025 10:54:19 GMT-0500 (Central Daylight Time),676868.599999994,A,doc,I,c,325,3,2781.7999999970198,674086.799999997,8020,WL,C,8.0
1,35.287999868392944,learn,24712.000131607056,Wed Jul 30 2025 10:54:19 GMT-0500 (Central Daylight Time),677201.799999997,A,doct,I,t,328,3,3115.0,674086.799999997,8020,WL,C,8.0
1,35.57200002670288,learn,24427.99997329712,Wed Jul 30 2025 10:54:19 GMT-0500 (Central Daylight Time),677485.299999997,A,docte,I,e,275,3,3398.5,674086.799999997,8020,WL,C,8.0
1,35.687999963760376,learn,24312.000036239624,Wed Jul 30 2025 10:54:19 GMT-0500 (Central Daylight Time),677601.6999999955,A,docter,I,r,103,3,3514.89999999851,674086.799999997,8020,WL,C,8.0
1,36.1710000038147,learn,23828.999996185303,Wed Jul 30 2025 10:54:19 GMT-0500 (Central Daylight Time),678085.099999994,A,docte,I,backspace,475,3,3998.2999999970198,674086.799999997,8020,WL,C,8.0
1,36.33799982070923,learn,23662.00017929077,Wed Jul 30 2025 10:54:19 GMT-0500 (Central Daylight Time),678251.799999997,A,doct,I,backspace,151,3,4165.0,674086.799999997,8020,WL,C,8.0
1,36.704999923706055,learn,23295.000076293945,Wed Jul 30 2025 10:54:19 GMT-0500 (Central Daylight Time),678618.1999999955,A,docto,I,o,353,3,4531.39999999851,674086.799999997,8020,WL,C,8.0
1,36.853999853134155,learn,23146.000146865845,Wed Jul 30 2025 10:54:19 GMT-0500 (Central Daylight Time),678768.099999994,A,doctor,I,r,130,3,4681.29999999702,674086.799999997,8020,WL,C,8.0
1,37.787999868392944,learn,22212.000131607056,Wed Jul 30 2025 10:54:19 GMT-0500 (Central Daylight Time),679701.299999997,A,doctorenter,I,enter,916,3,5614.5,674086.799999997,8020,WL,C,8.0
1,47.20099997520447,learn,12799.000024795532,Wed Jul 30 2025 10:54:19 GMT-0500 (Central Daylight Time),689114.799999997,A,w,I,w,9400,3,9413.20000000298,679701.599999994,8020,WL,C,9.0
1,47.43499994277954,learn,12565.000057220459,Wed Jul 30 2025 10:54:19 GMT-0500 (Central Daylight Time),689348.299999997,A,wh,I,h,225,3,9646.70000000298,679701.599999994,8020,WL,C,9.0
1,47.617999792099,learn,12382.000207901001,Wed Jul 30 2025 10:54:19 GMT-0500 (Central Daylight Time),689531.5,A,whe,I,e,169,3,9829.90000000596,679701.599999994,8020,WL,C,9.0
1,48.01699995994568,learn,11983.000040054321,Wed Jul 30 2025 10:54:19 GMT-0500 (Central Daylight Time),689930.8999999985,A,whea,I,a,393,3,10229.30000000447,679701.599999994,8020,WL,C,9.0
1,48.19999980926514,learn,11800.000190734863,Wed Jul 30 2025 10:54:19 GMT-0500 (Central Daylight Time),690114.099999994,A,wheat,I,t,169,3,10412.5,679701.599999994,8020,WL,C,9.0
1,49.19999980926514,learn,10800.000190734863,Wed Jul 30 2025 10:54:19 GMT-0500 (Central Daylight Time),691113.8999999985,A,wheatenter,I,enter,995,3,11412.30000000447,679701.599999994,8020,WL,C,9.0
1,60.013999938964844,learn,-13.99993896484375,Wed Jul 30 2025 10:54:19 GMT-0500 (Central Daylight Time),701927.5,A,None,I,None,10809,3,10813.30000000447,691114.1999999955,8020,WL,C,10.0
2,1.6499998569488525,learn,58350.00014305115,Wed Jul 30 2025 10:54:19 GMT-0500 (Central Daylight Time),775021.3999999985,A,s,I,s,1633,3,1649.5,773371.8999999985,8020,WL,C,1.0
2,1.7669999599456787,learn,58233.00004005432,Wed Jul 30 2025 10:54:19 GMT-0500 (Central Daylight Time),775137.6999999955,A,sh,I,h,96,3,1765.7999999970198,773371.8999999985,8020,WL,C,1.0
2,1.8329999446868896,learn,58167.00005531311,Wed Jul 30 2025 10:54:19 GMT-0500 (Central Daylight Time),775204.5,A,sho,I,o,51,3,1832.6000000014901,773371.8999999985,8020,WL,C,1.0
2,2.0999999046325684,learn,57900.00009536743,Wed Jul 30 2025 10:54:19 GMT-0500 (Central Daylight Time),775471.099999994,A,shor,I,r,256,3,2099.1999999955297,773371.8999999985,8020,WL,C,1.0
2,2.2170000076293945,learn,57782.999992370605,Wed Jul 30 2025 10:54:19 GMT-0500 (Central Daylight Time),775587.6999999955,A,shore,I,e,109,3,2215.7999999970198,773371.8999999985,8020,WL,C,1.0
2,3.065999984741211,learn,56934.00001525879,Wed Jul 30 2025 10:54:19 GMT-0500 (Central Daylight Time),776437.5,A,shoreenter,I,enter,833,3,3065.60000000149,773371.8999999985,8020,WL,C,1.0
2,3.8489999771118164,learn,56151.00002288818,Wed Jul 30 2025 10:54:19 GMT-0500 (Central Daylight Time),777220.5,A,f,I,f,775,3,782.6000000014901,776437.8999999985,8020,WL,C,2.0
2,4.232999801635742,learn,55767.00019836426,Wed Jul 30 2025 10:54:19 GMT-0500 (Central Daylight Time),777603.799999997,A,fl,I,l,368,3,1165.8999999985099,776437.8999999985,8020,WL,C,2.0
2,4.382999897003174,learn,55617.000102996826,Wed Jul 30 2025 10:54:19 GMT-0500 (Central Daylight Time),777753.799999997,A,fla,I,a,144,3,1315.8999999985099,776437.8999999985,8020,WL,C,2.0
2,4.665999889373779,learn,55334.00011062622,Wed Jul 30 2025 10:54:19 GMT-0500 (Central Daylight Time),778037.099999994,A,flag,I,g,275,3,1599.1999999955297,776437.8999999985,8020,WL,C,2.0
2,4.998999834060669,learn,55001.00016593933,Wed Jul 30 2025 10:54:19 GMT-0500 (Central Daylight Time),778370.099999994,A,flagenter,I,enter,319,3,1932.1999999955297,776437.8999999985,8020,WL,C,2.0
2,6.098999977111816,learn,53901.00002288818,Wed Jul 30 2025 10:54:19 GMT-0500 (Central Daylight Time),779470.0,A,l,I,l,1090,3,1099.5,778370.5,8020,WL,C,3.0
2,6.331999778747559,learn,53668.00022125244,Wed Jul 30 2025 10:54:19 GMT-0500 (Central Daylight Time),779703.1999999955,A,lw,I,w,222,3,1332.6999999955297,778370.5,8020,WL,C,3.0
2,7.2149999141693115,learn,52785.00008583069,Wed Jul 30 2025 10:54:19 GMT-0500 (Central Daylight Time),780586.1999999955,A,l,I,backspace,869,3,2215.6999999955297,778370.5,8020,WL,C,3.0
2,8.013999938964844,learn,51986.000061035156,Wed Jul 30 2025 10:54:19 GMT-0500 (Central Daylight Time),781385.3999999985,A,le,I,e,778,3,3014.89999999851,778370.5,8020,WL,C,3.0
2,8.280999898910522,learn,51719.00010108948,Wed Jul 30 2025 10:54:19 GMT-0500 (Central Daylight Time),781652.599999994,A,let,I,t,250,3,3282.0999999940395,778370.5,8020,WL,C,3.0
2,8.430999994277954,learn,51569.000005722046,Wed Jul 30 2025 10:54:19 GMT-0500 (Central Daylight Time),781802.299999997,A,lett,I,t,144,3,3431.7999999970198,778370.5,8020,WL,C,3.0
2,8.63099980354309,learn,51369.00019645691,Wed Jul 30 2025 10:54:19 GMT-0500 (Central Daylight Time),782002.3999999985,A,lette,I,e,187,3,3631.89999999851,778370.5,8020,WL,C,3.0
2,8.780999898910522,learn,51219.00010108948,Wed Jul 30 2025 10:54:19 GMT-0500 (Central Daylight Time),782152.299999997,A,letter,I,r,130,3,3781.7999999970198,778370.5,8020,WL,C,3.0
2,9.179999828338623,learn,50820.00017166138,Wed Jul 30 2025 10:54:19 GMT-0500 (Central Daylight Time),782552.0,A,letterenter,I,enter,380,3,4181.5,778370.5,8020,WL,C,3.0
2,9.979999780654907,learn,50020.00021934509,Wed Jul 30 2025 10:54:19 GMT-0500 (Central Daylight Time),783352.0,A,b,I,b,790,3,799.7000000029802,782552.299999997,8020,WL,C,4.0
2,10.079999923706055,learn,49920.000076293945,Wed Jul 30 2025 10:54:19 GMT-0500 (Central Daylight Time),783451.8999999985,A,bo,I,o,92,3,899.6000000014901,782552.299999997,8020,WL,C,4.0
2,10.679999828338623,learn,49320.00017166138,Wed Jul 30 2025 10:54:19 GMT-0500 (Central Daylight Time),784051.6999999955,A,bod,I,d,586,3,1499.3999999985099,782552.299999997,8020,WL,C,4.0
2,10.812999963760376,learn,49187.000036239624,Wed Jul 30 2025 10:54:19 GMT-0500 (Central Daylight Time),784185.0,A,body,I,y,122,3,1632.7000000029802,782552.299999997,8020,WL,C,4.0
2,11.812999963760376,learn,48187.000036239624,Wed Jul 30 2025 10:54:19 GMT-0500 (Central Daylight Time),785184.8999999985,A,bodyenter,I,enter,987,3,2632.60000000149,782552.299999997,8020,WL,C,4.0
2,12.995999813079834,learn,47004.000186920166,Wed Jul 30 2025 10:54:19 GMT-0500 (Central Daylight Time),786367.5,A,q,I,q,1172,3,1182.3000000044703,785185.1999999955,8020,WL,C,5.0
2,13.27899980545044,learn,46721.00019454956,Wed Jul 30 2025 10:54:19 GMT-0500 (Central Daylight Time),786650.8999999985,A,qu,I,u,269,3,1465.7000000029802,785185.1999999955,8020,WL,C,5.0
2,13.61299991607666,learn,46387.00008392334,Wed Jul 30 2025 10:54:19 GMT-0500 (Central Daylight Time),786984.299999997,A,que,I,e,314,3,1799.1000000014901,785185.1999999955,8020,WL,C,5.0
2,13.828999996185303,learn,46171.0000038147,Wed Jul 30 2025 10:54:19 GMT-0500 (Central Daylight Time),787200.599999994,A,quee,I,e,196,3,2015.3999999985099,785185.1999999955,8020,WL,C,5.0
2,14.046000003814697,learn,45953.9999961853,Wed Jul 30 2025 10:54:19 GMT-0500 (Central Daylight Time),787417.5,A,queen,I,n,196,3,2232.3000000044703,785185.1999999955,8020,WL,C,5.0
2,15.044999837875366,learn,44955.000162124634,Wed Jul 30 2025 10:54:19 GMT-0500 (Central Daylight Time),788417.1999999955,A,queenenter,I,enter,979,3,3232.0,785185.1999999955,8020,WL,C,5.0
2,15.861999988555908,learn,44138.00001144409,Wed Jul 30 2025 10:54:19 GMT-0500 (Central Daylight Time),789233.3999999985,A,t,I,t,803,3,815.8999999985099,788417.5,8020,WL,C,6.0
2,15.994999885559082,learn,44005.00011444092,Wed Jul 30 2025 10:54:19 GMT-0500 (Central Daylight Time),789366.799999997,A,to,I,o,115,3,949.2999999970198,788417.5,8020,WL,C,6.0
2,16.311999797821045,learn,43688.000202178955,Wed Jul 30 2025 10:54:19 GMT-0500 (Central Daylight Time),789683.299999997,A,tow,I,w,310,3,1265.7999999970198,788417.5,8020,WL,C,6.0
2,16.477999925613403,learn,43522.0000743866,Wed Jul 30 2025 10:54:19 GMT-0500 (Central Daylight Time),789849.799999997,A,towe,I,e,146,3,1432.2999999970198,788417.5,8020,WL,C,6.0
2,16.627999782562256,learn,43372.000217437744,Wed Jul 30 2025 10:54:19 GMT-0500 (Central Daylight Time),789999.8999999985,A,tower,I,r,139,3,1582.3999999985099,788417.5,8020,WL,C,6.0
2,17.16099977493286,learn,42839.00022506714,Wed Jul 30 2025 10:54:19 GMT-0500 (Central Daylight Time),790533.099999994,A,towerenter,I,enter,517,3,2115.5999999940395,788417.5,8020,WL,C,6.0
2,17.860999822616577,learn,42139.00017738342,Wed Jul 30 2025 10:54:19 GMT-0500 (Central Daylight Time),791232.799999997,A,w,I,w,680,3,699.2999999970198,790533.5,8020,WL,C,7.0
2,18.060999870300293,learn,41939.00012969971,Wed Jul 30 2025 10:54:19 GMT-0500 (Central Daylight Time),791432.799999997,A,wh,I,h,188,3,899.2999999970198,790533.5,8020,WL,C,7.0
2,18.227999925613403,learn,41772.0000743866,Wed Jul 30 2025 10:54:19 GMT-0500 (Central Daylight Time),791599.3999999985,A,whe,I,e,148,3,1065.8999999985099,790533.5,8020,WL,C,7.0
2,18.694000005722046,learn,41305.999994277954,Wed Jul 30 2025 10:54:19 GMT-0500 (Central Daylight Time),792065.8999999985,A,whea,I,a,445,3,1532.3999999985099,790533.5,8020,WL,C,7.0
2,18.876999855041504,learn,41123.000144958496,Wed Jul 30 2025 10:54:19 GMT-0500 (Central Daylight Time),792249.1999999955,A,wheat,I,t,163,3,1715.6999999955297,790533.5,8020,WL,C,7.0
2,19.560999870300293,learn,40439.00012969971,Wed Jul 30 2025 10:54:19 GMT-0500 (Central Daylight Time),792932.299999997,A,wheatenter,I,enter,667,3,2398.7999999970198,790533.5,8020,WL,C,7.0
2,21.109999895095825,learn,38890.000104904175,Wed Jul 30 2025 10:54:19 GMT-0500 (Central Daylight Time),794481.6999999955,A,h,I,h,1536,3,1549.1000000014901,792932.599999994,8020,WL,C,8.0
2,21.209999799728394,learn,38790.00020027161,Wed Jul 30 2025 10:54:19 GMT-0500 (Central Daylight Time),794581.8999999985,A,ho,I,o,91,3,1649.3000000044703,792932.599999994,8020,WL,C,8.0
2,21.80999994277954,learn,38190.00005722046,Wed Jul 30 2025 10:54:19 GMT-0500 (Central Daylight Time),795181.299999997,A,hon,I,n,591,3,2248.7000000029802,792932.599999994,8020,WL,C,8.0
2,22.009999990463257,learn,37990.00000953674,Wed Jul 30 2025 10:54:19 GMT-0500 (Central Daylight Time),795381.299999997,A,hone,I,e,191,3,2448.7000000029802,792932.599999994,8020,WL,C,8.0
2,22.759999990463257,learn,37240.00000953674,Wed Jul 30 2025 10:54:19 GMT-0500 (Central Daylight Time),796131.3999999985,A,hon,I,backspace,743,3,3198.8000000044703,792932.599999994,8020,WL,C,8.0
2,22.925999879837036,learn,37074.000120162964,Wed Jul 30 2025 10:54:19 GMT-0500 (Central Daylight Time),796297.599999994,A,ho,I,backspace,161,3,3365.0,792932.599999994,8020,WL,C,8.0
2,24.675999879837036,learn,35324.000120162964,Wed Jul 30 2025 10:54:19 GMT-0500 (Central Daylight Time),798047.3999999985,A,hom,I,m,1740,3,5114.80000000447,792932.599999994,8020,WL,C,8.0
2,24.80899977684021,learn,35191.00022315979,Wed Jul 30 2025 10:54:19 GMT-0500 (Central Daylight Time),798180.599999994,A,home,I,e,117,3,5248.0,792932.599999994,8020,WL,C,8.0
2,25.508999824523926,learn,34491.000175476074,Wed Jul 30 2025 10:54:19 GMT-0500 (Central Daylight Time),798880.299999997,A,homeenter,I,enter,680,3,5947.70000000298,792932.599999994,8020,WL,C,8.0
2,26.924999952316284,learn,33075.000047683716,Wed Jul 30 2025 10:54:19 GMT-0500 (Central Daylight Time),800296.799999997,A,b,I,b,1396,3,1416.2000000029802,798880.599999994,8020,WL,C,9.0
2,27.024999856948853,learn,32975.00014305115,Wed Jul 30 2025 10:54:19 GMT-0500 (Central Daylight Time),800396.6999999955,A,bo,I,o,83,3,1516.1000000014901,798880.599999994,8020,WL,C,9.0
2,27.357999801635742,learn,32642.000198364258,Wed Jul 30 2025 10:54:19 GMT-0500 (Central Daylight Time),800729.599999994,A,boy,I,y,320,3,1849.0,798880.599999994,8020,WL,C,9.0
2,28.057999849319458,learn,31942.000150680542,Wed Jul 30 2025 10:54:19 GMT-0500 (Central Daylight Time),801429.6999999955,A,boyenter,I,enter,683,3,2549.10000000149,798880.599999994,8020,WL,C,9.0
2,34.32299995422363,learn,25677.000045776367,Wed Jul 30 2025 10:54:19 GMT-0500 (Central Daylight Time),807694.3999999985,A,d,I,d,6255,3,6264.39999999851,801430.0,8020,WL,C,10.0
2,34.43899989128113,learn,25561.000108718872,Wed Jul 30 2025 10:54:19 GMT-0500 (Central Daylight Time),807810.799999997,A,do,I,o,110,3,6380.79999999702,801430.0,8020,WL,C,10.0
2,34.83899998664856,learn,25161.00001335144,Wed Jul 30 2025 10:54:19 GMT-0500 (Central Daylight Time),808210.6999999955,A,doc,I,c,386,3,6780.69999999553,801430.0,8020,WL,C,10.0
2,35.22199988365173,learn,24778.000116348267,Wed Jul 30 2025 10:54:19 GMT-0500 (Central Daylight Time),808593.6999999955,A,doct,I,t,370,3,7163.69999999553,801430.0,8020,WL,C,10.0
2,35.45599985122681,learn,24544.000148773193,Wed Jul 30 2025 10:54:19 GMT-0500 (Central Daylight Time),808827.3999999985,A,docte,I,e,219,3,7397.39999999851,801430.0,8020,WL,C,10.0
2,35.5719997882843,learn,24428.0002117157,Wed Jul 30 2025 10:54:19 GMT-0500 (Central Daylight Time),808943.799999997,A,docter,I,r,97,3,7513.79999999702,801430.0,8020,WL,C,10.0
2,36.0719997882843,learn,23928.0002117157,Wed Jul 30 2025 10:54:19 GMT-0500 (Central Daylight Time),809443.799999997,A,docterenter,I,enter,493,3,8013.79999999702,801430.0,8020,WL,C,10.0
2,39.86999988555908,learn,20130.000114440918,Wed Jul 30 2025 10:54:19 GMT-0500 (Central Daylight Time),813242.099999994,A,f,I,f,3785,3,3798.0,809444.099999994,8020,WL,C,11.0
2,40.4539999961853,learn,19546.000003814697,Wed Jul 30 2025 10:54:19 GMT-0500 (Central Daylight Time),813825.799999997,A,fl,I,l,564,3,4381.70000000298,809444.099999994,8020,WL,C,11.0
2,40.55399990081787,learn,19446.00009918213,Wed Jul 30 2025 10:54:19 GMT-0500 (Central Daylight Time),813925.599999994,A,fla,I,a,83,3,4481.5,809444.099999994,8020,WL,C,11.0
2,40.769999980926514,learn,19230.000019073486,Wed Jul 30 2025 10:54:19 GMT-0500 (Central Daylight Time),814142.099999994,A,flag,I,g,199,3,4698.0,809444.099999994,8020,WL,C,11.0
2,41.25399994850159,learn,18746.000051498413,Wed Jul 30 2025 10:54:19 GMT-0500 (Central Daylight Time),814625.3999999985,A,flagenter,I,enter,462,3,5181.30000000447,809444.099999994,8020,WL,C,11.0
2,48.80199980735779,learn,11198.000192642212,Wed Jul 30 2025 10:54:19 GMT-0500 (Central Daylight Time),822173.1999999955,A,c,I,c,7540,3,7547.5,814625.6999999955,8020,WL,C,12.0
2,48.96799993515015,learn,11032.000064849854,Wed Jul 30 2025 10:54:19 GMT-0500 (Central Daylight Time),822339.6999999955,A,ca,I,a,151,3,7714.0,814625.6999999955,8020,WL,C,12.0
2,49.33399987220764,learn,10666.000127792358,Wed Jul 30 2025 10:54:19 GMT-0500 (Central Daylight Time),822705.8999999985,A,cat,I,t,361,3,8080.20000000298,814625.6999999955,8020,WL,C,12.0
2,49.51799988746643,learn,10482.00011253357,Wed Jul 30 2025 10:54:19 GMT-0500 (Central Daylight Time),822889.299999997,A,catt,I,t,171,3,8263.60000000149,814625.6999999955,8020,WL,C,12.0
2,49.71799993515015,learn,10282.000064849854,Wed Jul 30 2025 10:54:19 GMT-0500 (Central Daylight Time),823089.5,A,cattl,I,l,187,3,8463.80000000447,814625.6999999955,8020,WL,C,12.0
2,49.83399987220764,learn,10166.000127792358,Wed Jul 30 2025 10:54:19 GMT-0500 (Central Daylight Time),823206.299999997,A,cattle,I,e,99,3,8580.60000000149,814625.6999999955,8020,WL,C,12.0
2,50.317999839782715,learn,9682.000160217285,Wed Jul 30 2025 10:54:19 GMT-0500 (Central Daylight Time),823689.5,A,cattleenter,I,enter,462,3,9063.80000000447,814625.6999999955,8020,WL,C,12.0
2,54.26599979400635,learn,5734.000205993652,Wed Jul 30 2025 10:54:19 GMT-0500 (Central Daylight Time),827638.0,A,c,I,c,3939,3,3948.10000000149,823689.8999999985,8020,WL,C,13.0
2,54.39999985694885,learn,5600.0001430511475,Wed Jul 30 2025 10:54:19 GMT-0500 (Central Daylight Time),827771.3999999985,A,ca,I,a,126,3,4081.5,823689.8999999985,8020,WL,C,13.0
2,54.64999985694885,learn,5350.0001430511475,Wed Jul 30 2025 10:54:19 GMT-0500 (Central Daylight Time),828021.5,A,cam,I,m,233,3,4331.60000000149,823689.8999999985,8020,WL,C,13.0
2,54.89999985694885,learn,5100.0001430511475,Wed Jul 30 2025 10:54:19 GMT-0500 (Central Daylight Time),828271.299999997,A,camp,I,p,239,3,4581.39999999851,823689.8999999985,8020,WL,C,13.0
2,55.48299980163574,learn,4517.000198364258,Wed Jul 30 2025 10:54:19 GMT-0500 (Central Daylight Time),828854.3999999985,A,campenter,I,enter,565,3,5164.5,823689.8999999985,8020,WL,C,13.0
2,60.013999938964844,learn,-13.99993896484375,Wed Jul 30 2025 10:54:19 GMT-0500 (Central Daylight Time),833385.8999999985,A,None,I,None,4527,3,4531.30000000447,828854.599999994,8020,WL,C,14.0
3,2.2269999980926514,learn,57773.00000190735,Wed Jul 30 2025 10:54:19 GMT-0500 (Central Daylight Time),902709.099999994,A,b,I,b,2224,3,2227.1999999955297,900481.8999999985,8020,WL,C,1.0
3,2.2689998149871826,learn,57731.00018501282,Wed Jul 30 2025 10:54:19 GMT-0500 (Central Daylight Time),902750.1999999955,A,bo,I,o,21,3,2268.2999999970198,900481.8999999985,8020,WL,C,1.0
3,2.8320000171661377,learn,57167.99998283386,Wed Jul 30 2025 10:54:19 GMT-0500 (Central Daylight Time),903314.0,A,bod,I,d,556,3,2832.10000000149,900481.8999999985,8020,WL,C,1.0
3,3.0160000324249268,learn,56983.99996757507,Wed Jul 30 2025 10:54:19 GMT-0500 (Central Daylight Time),903497.5,A,body,I,y,163,3,3015.60000000149,900481.8999999985,8020,WL,C,1.0
3,4.233000040054321,learn,55766.99995994568,Wed Jul 30 2025 10:54:19 GMT-0500 (Central Daylight Time),904714.8999999985,A,bodyenter,I,enter,1203,3,4233.0,900481.8999999985,8020,WL,C,1.0
3,5.365000009536743,learn,54634.99999046326,Wed Jul 30 2025 10:54:19 GMT-0500 (Central Daylight Time),905846.799999997,A,l,I,l,1122,3,1131.6000000014901,904715.1999999955,8020,WL,C,2.0
3,5.681999921798706,learn,54318.000078201294,Wed Jul 30 2025 10:54:19 GMT-0500 (Central Daylight Time),906163.3999999985,A,le,I,e,303,3,1448.2000000029802,904715.1999999955,8020,WL,C,2.0
3,5.9649999141693115,learn,54035.00008583069,Wed Jul 30 2025 10:54:19 GMT-0500 (Central Daylight Time),906446.599999994,A,let,I,t,265,3,1731.3999999985099,904715.1999999955,8020,WL,C,2.0
3,6.13100004196167,learn,53868.99995803833,Wed Jul 30 2025 10:54:19 GMT-0500 (Central Daylight Time),906613.1999999955,A,lett,I,t,158,3,1898.0,904715.1999999955,8020,WL,C,2.0
3,6.332000017166138,learn,53667.99998283386,Wed Jul 30 2025 10:54:19 GMT-0500 (Central Daylight Time),906813.299999997,A,lette,I,e,183,3,2098.10000000149,904715.1999999955,8020,WL,C,2.0
3,6.447999954223633,learn,53552.00004577637,Wed Jul 30 2025 10:54:19 GMT-0500 (Central Daylight Time),906929.6999999955,A,letter,I,r,103,3,2214.5,904715.1999999955,8020,WL,C,2.0
3,6.930999994277954,learn,53069.000005722046,Wed Jul 30 2025 10:54:19 GMT-0500 (Central Daylight Time),907412.799999997,A,letterenter,I,enter,467,3,2697.60000000149,904715.1999999955,8020,WL,C,2.0
3,9.846999883651733,learn,50153.00011634827,Wed Jul 30 2025 10:54:19 GMT-0500 (Central Daylight Time),910328.599999994,A,t,I,t,2904,3,2915.39999999851,907413.1999999955,8020,WL,C,3.0
3,10.013999938964844,learn,49986.000061035156,Wed Jul 30 2025 10:54:19 GMT-0500 (Central Daylight Time),910495.299999997,A,to,I,o,148,3,3082.10000000149,907413.1999999955,8020,WL,C,3.0
3,10.429999828338623,learn,49570.00017166138,Wed Jul 30 2025 10:54:19 GMT-0500 (Central Daylight Time),910912.0,A,tow,I,w,397,3,3498.8000000044703,907413.1999999955,8020,WL,C,3.0
3,10.63100004196167,learn,49368.99995803833,Wed Jul 30 2025 10:54:19 GMT-0500 (Central Daylight Time),911113.099999994,A,towe,I,e,181,3,3699.89999999851,907413.1999999955,8020,WL,C,3.0
3,10.812999963760376,learn,49187.000036239624,Wed Jul 30 2025 10:54:19 GMT-0500 (Central Daylight Time),911295.1999999955,A,tower,I,r,163,3,3882.0,907413.1999999955,8020,WL,C,3.0
3,12.230000019073486,learn,47769.999980926514,Wed Jul 30 2025 10:54:19 GMT-0500 (Central Daylight Time),912711.5,A,towerenter,I,enter,1397,3,5298.30000000447,907413.1999999955,8020,WL,C,3.0
3,14.878999948501587,learn,45121.00005149841,Wed Jul 30 2025 10:54:19 GMT-0500 (Central Daylight Time),915360.599999994,A,w,I,w,2629,3,2648.7999999970198,912711.799999997,8020,WL,C,4.0
3,15.01199984550476,learn,44988.00015449524,Wed Jul 30 2025 10:54:19 GMT-0500 (Central Daylight Time),915493.8999999985,A,wh,I,h,116,3,2782.10000000149,912711.799999997,8020,WL,C,4.0
3,15.27899980545044,learn,44721.00019454956,Wed Jul 30 2025 10:54:19 GMT-0500 (Central Daylight Time),915760.5,A,whe,I,e,247,3,3048.7000000029802,912711.799999997,8020,WL,C,4.0
3,15.461999893188477,learn,44538.00010681152,Wed Jul 30 2025 10:54:19 GMT-0500 (Central Daylight Time),915943.6999999955,A,wher,I,r,172,3,3231.89999999851,912711.799999997,8020,WL,C,4.0
3,15.994999885559082,learn,44005.00011444092,Wed Jul 30 2025 10:54:19 GMT-0500 (Central Daylight Time),916476.599999994,A,whe,I,backspace,517,3,3764.7999999970198,912711.799999997,8020,WL,C,4.0
3,16.128000020980835,learn,43871.999979019165,Wed Jul 30 2025 10:54:19 GMT-0500 (Central Daylight Time),916610.0,A,whea,I,a,112,3,3898.2000000029802,912711.799999997,8020,WL,C,4.0
3,16.32799983024597,learn,43672.00016975403,Wed Jul 30 2025 10:54:19 GMT-0500 (Central Daylight Time),916809.8999999985,A,wheat,I,t,196,3,4098.10000000149,912711.799999997,8020,WL,C,4.0
3,17.01099991798401,learn,42989.00008201599,Wed Jul 30 2025 10:54:19 GMT-0500 (Central Daylight Time),917493.099999994,A,wheatj,I,j,675,3,4781.29999999702,912711.799999997,8020,WL,C,4.0
3,17.294999837875366,learn,42705.000162124634,Wed Jul 30 2025 10:54:19 GMT-0500 (Central Daylight Time),917776.599999994,A,wheatjenter,I,enter,263,3,5064.79999999702,912711.799999997,8020,WL,C,4.0
3,18.543999910354614,learn,41456.000089645386,Wed Jul 30 2025 10:54:19 GMT-0500 (Central Daylight Time),919025.8999999985,A,w,I,w,1237,3,1249.0,917776.8999999985,8020,WL,C,5.0
3,18.727999925613403,learn,41272.0000743866,Wed Jul 30 2025 10:54:19 GMT-0500 (Central Daylight Time),919209.3999999985,A,wh,I,h,163,3,1432.5,917776.8999999985,8020,WL,C,5.0
3,18.860999822616577,learn,41139.00017738342,Wed Jul 30 2025 10:54:19 GMT-0500 (Central Daylight Time),919342.5,A,whe,I,e,115,3,1565.6000000014901,917776.8999999985,8020,WL,C,5.0
3,19.176999807357788,learn,40823.00019264221,Wed Jul 30 2025 10:54:19 GMT-0500 (Central Daylight Time),919659.099999994,A,whea,I,a,310,3,1882.1999999955297,917776.8999999985,8020,WL,C,5.0
3,19.3439998626709,learn,40656.0001373291,Wed Jul 30 2025 10:54:19 GMT-0500 (Central Daylight Time),919825.799999997,A,wheat,I,t,154,3,2048.89999999851,917776.8999999985,8020,WL,C,5.0
3,19.72699999809265,learn,40273.00000190735,Wed Jul 30 2025 10:54:19 GMT-0500 (Central Daylight Time),920208.6999999955,A,wheatenter,I,enter,370,3,2431.7999999970198,917776.8999999985,8020,WL,C,5.0
3,26.54199981689453,learn,33458.00018310547,Wed Jul 30 2025 10:54:19 GMT-0500 (Central Daylight Time),927023.3999999985,A,q,I,q,6804,3,6814.39999999851,920209.0,8020,WL,C,6.0
3,27.007999897003174,learn,32992.000102996826,Wed Jul 30 2025 10:54:19 GMT-0500 (Central Daylight Time),927490.099999994,A,qu,I,u,446,3,7281.0999999940395,920209.0,8020,WL,C,6.0
3,27.22499990463257,learn,32775.00009536743,Wed Jul 30 2025 10:54:19 GMT-0500 (Central Daylight Time),927706.299999997,A,que,I,e,211,3,7497.29999999702,920209.0,8020,WL,C,6.0
3,27.407999992370605,learn,32592.000007629395,Wed Jul 30 2025 10:54:19 GMT-0500 (Central Daylight Time),927889.8999999985,A,quee,I,e,178,3,7680.89999999851,920209.0,8020,WL,C,6.0
3,27.62399983406067,learn,32376.00016593933,Wed Jul 30 2025 10:54:19 GMT-0500 (Central Daylight Time),928106.099999994,A,queen,I,n,211,3,7897.0999999940395,920209.0,8020,WL,C,6.0
3,29.62399983406067,learn,30376.00016593933,Wed Jul 30 2025 10:54:19 GMT-0500 (Central Daylight Time),930105.5,A,queenenter,I,enter,1978,3,9896.5,920209.0,8020,WL,C,6.0
3,30.806999921798706,learn,29193.000078201294,Wed Jul 30 2025 10:54:19 GMT-0500 (Central Daylight Time),931289.0,A,s,I,s,1164,3,1183.2000000029802,930105.799999997,8020,WL,C,7.0
3,30.889999866485596,learn,29110.000133514404,Wed Jul 30 2025 10:54:19 GMT-0500 (Central Daylight Time),931372.099999994,A,sh,I,h,76,3,1266.2999999970198,930105.799999997,8020,WL,C,7.0
3,31.039999961853027,learn,28960.000038146973,Wed Jul 30 2025 10:54:19 GMT-0500 (Central Daylight Time),931521.8999999985,A,sho,I,o,145,3,1416.1000000014901,930105.799999997,8020,WL,C,7.0
3,31.306999921798706,learn,28693.000078201294,Wed Jul 30 2025 10:54:19 GMT-0500 (Central Daylight Time),931788.6999999955,A,shor,I,r,251,3,1682.8999999985099,930105.799999997,8020,WL,C,7.0
3,31.424000024795532,learn,28575.999975204468,Wed Jul 30 2025 10:54:19 GMT-0500 (Central Daylight Time),931905.3999999985,A,shore,I,e,104,3,1799.6000000014901,930105.799999997,8020,WL,C,7.0
3,31.85699987411499,learn,28143.00012588501,Wed Jul 30 2025 10:54:19 GMT-0500 (Central Daylight Time),932338.5,A,shoreenter,I,enter,419,3,2232.7000000029802,930105.799999997,8020,WL,C,7.0
3,33.18999981880188,learn,26810.00018119812,Wed Jul 30 2025 10:54:19 GMT-0500 (Central Daylight Time),933671.3999999985,A,f,I,f,1322,3,1332.6000000014901,932338.799999997,8020,WL,C,8.0
3,33.32299995422363,learn,26677.000045776367,Wed Jul 30 2025 10:54:19 GMT-0500 (Central Daylight Time),933804.6999999955,A,fl,I,l,126,3,1465.8999999985099,932338.799999997,8020,WL,C,8.0
3,33.50600004196167,learn,26493.99995803833,Wed Jul 30 2025 10:54:19 GMT-0500 (Central Daylight Time),933987.8999999985,A,fla,I,a,168,3,1649.1000000014901,932338.799999997,8020,WL,C,8.0
3,33.87299990653992,learn,26127.000093460083,Wed Jul 30 2025 10:54:19 GMT-0500 (Central Daylight Time),934354.3999999985,A,flag,I,g,353,3,2015.6000000014901,932338.799999997,8020,WL,C,8.0
3,34.33899998664856,learn,25661.00001335144,Wed Jul 30 2025 10:54:19 GMT-0500 (Central Daylight Time),934821.0,A,flagenter,I,enter,458,3,2482.2000000029802,932338.799999997,8020,WL,C,8.0
3,35.888999938964844,learn,24111.000061035156,Wed Jul 30 2025 10:54:19 GMT-0500 (Central Daylight Time),936370.5,A,d,I,d,1536,3,1549.1000000014901,934821.3999999985,8020,WL,C,9.0
3,36.07200002670288,learn,23927.99997329712,Wed Jul 30 2025 10:54:19 GMT-0500 (Central Daylight Time),936553.599999994,A,do,I,o,170,3,1732.1999999955297,934821.3999999985,8020,WL,C,9.0
3,36.40499997138977,learn,23595.00002861023,Wed Jul 30 2025 10:54:19 GMT-0500 (Central Daylight Time),936887.0,A,doc,I,c,315,3,2065.60000000149,934821.3999999985,8020,WL,C,9.0
3,37.08799982070923,learn,22912.00017929077,Wed Jul 30 2025 10:54:19 GMT-0500 (Central Daylight Time),937569.8999999985,A,doct,I,t,678,3,2748.5,934821.3999999985,8020,WL,C,9.0
3,37.371999979019165,learn,22628.000020980835,Wed Jul 30 2025 10:54:19 GMT-0500 (Central Daylight Time),937853.299999997,A,docto,I,o,275,3,3031.89999999851,934821.3999999985,8020,WL,C,9.0
3,37.65499997138977,learn,22345.00002861023,Wed Jul 30 2025 10:54:19 GMT-0500 (Central Daylight Time),938136.5,A,doctor,I,r,263,3,3315.10000000149,934821.3999999985,8020,WL,C,9.0
3,38.23799991607666,learn,21762.00008392334,Wed Jul 30 2025 10:54:19 GMT-0500 (Central Daylight Time),938719.799999997,A,doctorenter,I,enter,564,3,3898.39999999851,934821.3999999985,8020,WL,C,9.0
3,42.72000002861023,learn,17279.99997138977,Wed Jul 30 2025 10:54:19 GMT-0500 (Central Daylight Time),943201.6999999955,A,h,I,h,4469,3,4481.69999999553,938720.0,8020,WL,C,10.0
3,42.88699984550476,learn,17113.00015449524,Wed Jul 30 2025 10:54:19 GMT-0500 (Central Daylight Time),943368.3999999985,A,ho,I,o,155,3,4648.39999999851,938720.0,8020,WL,C,10.0
3,43.835999965667725,learn,16164.000034332275,Wed Jul 30 2025 10:54:19 GMT-0500 (Central Daylight Time),944318.0,A,hom,I,m,932,3,5598.0,938720.0,8020,WL,C,10.0
3,43.97000002861023,learn,16029.99997138977,Wed Jul 30 2025 10:54:19 GMT-0500 (Central Daylight Time),944451.3999999985,A,home,I,e,119,3,5731.39999999851,938720.0,8020,WL,C,10.0
3,44.43599987030029,learn,15564.000129699707,Wed Jul 30 2025 10:54:19 GMT-0500 (Central Daylight Time),944917.799999997,A,homeenter,I,enter,457,3,6197.79999999702,938720.0,8020,WL,C,10.0
3,45.73599982261658,learn,14264.000177383423,Wed Jul 30 2025 10:54:19 GMT-0500 (Central Daylight Time),946217.3999999985,A,b,I,b,1288,3,1299.3000000044703,944918.099999994,8020,WL,C,11.0
3,45.86999988555908,learn,14130.000114440918,Wed Jul 30 2025 10:54:19 GMT-0500 (Central Daylight Time),946351.599999994,A,bo,I,o,116,3,1433.5,944918.099999994,8020,WL,C,11.0
3,46.10199999809265,learn,13898.000001907349,Wed Jul 30 2025 10:54:19 GMT-0500 (Central Daylight Time),946584.099999994,A,boy,I,y,213,3,1666.0,944918.099999994,8020,WL,C,11.0
3,46.651999950408936,learn,13348.000049591064,Wed Jul 30 2025 10:54:19 GMT-0500 (Central Daylight Time),947133.8999999985,A,boyenter,I,enter,540,3,2215.8000000044703,944918.099999994,8020,WL,C,11.0
3,48.86800003051758,learn,11131.999969482422,Wed Jul 30 2025 10:54:19 GMT-0500 (Central Daylight Time),949349.8999999985,A,c,I,c,2208,3,2215.60000000149,947134.299999997,8020,WL,C,12.0
3,48.96799993515015,learn,11032.000064849854,Wed Jul 30 2025 10:54:19 GMT-0500 (Central Daylight Time),949449.8999999985,A,co,I,o,79,3,2315.60000000149,947134.299999997,8020,WL,C,12.0
3,49.34599995613098,learn,10654.000043869019,Wed Jul 30 2025 10:54:19 GMT-0500 (Central Daylight Time),949827.299999997,A,cor,I,r,373,3,2693.0,947134.299999997,8020,WL,C,12.0
3,49.46799993515015,learn,10532.000064849854,Wed Jul 30 2025 10:54:19 GMT-0500 (Central Daylight Time),949949.299999997,A,corn,I,n,105,3,2815.0,947134.299999997,8020,WL,C,12.0
3,49.901999950408936,learn,10098.000049591064,Wed Jul 30 2025 10:54:19 GMT-0500 (Central Daylight Time),950384.099999994,A,cornenter,I,enter,423,3,3249.7999999970198,947134.299999997,8020,WL,C,12.0
3,53.049999952316284,learn,6950.000047683716,Wed Jul 30 2025 10:54:19 GMT-0500 (Central Daylight Time),953531.8999999985,A,h,I,h,3133,3,3147.5,950384.3999999985,8020,WL,C,13.0
3,53.69999980926514,learn,6300.000190734863,Wed Jul 30 2025 10:54:19 GMT-0500 (Central Daylight Time),954181.5,A,,I,backspace,641,3,3797.10000000149,950384.3999999985,8020,WL,C,13.0
3,54.16599988937378,learn,5834.000110626221,Wed Jul 30 2025 10:54:19 GMT-0500 (Central Daylight Time),954648.1999999955,A,s,I,s,455,3,4263.79999999702,950384.3999999985,8020,WL,C,13.0
3,54.299999952316284,learn,5700.000047683716,Wed Jul 30 2025 10:54:19 GMT-0500 (Central Daylight Time),954781.5,A,sh,I,h,125,3,4397.10000000149,950384.3999999985,8020,WL,C,13.0
3,54.44999980926514,learn,5550.000190734863,Wed Jul 30 2025 10:54:19 GMT-0500 (Central Daylight Time),954931.5,A,sho,I,o,135,3,4547.10000000149,950384.3999999985,8020,WL,C,13.0
3,54.865999937057495,learn,5134.000062942505,Wed Jul 30 2025 10:54:19 GMT-0500 (Central Daylight Time),955347.799999997,A,shor,I,r,401,3,4963.39999999851,950384.3999999985,8020,WL,C,13.0
3,55.01600003242493,learn,4983.999967575073,Wed Jul 30 2025 10:54:19 GMT-0500 (Central Daylight Time),955497.799999997,A,shore,I,e,137,3,5113.39999999851,950384.3999999985,8020,WL,C,13.0
3,55.73300004005432,learn,4266.999959945679,Wed Jul 30 2025 10:54:19 GMT-0500 (Central Daylight Time),956214.299999997,A,shoreenter,I,enter,707,3,5829.89999999851,950384.3999999985,8020,WL,C,13.0
3,59.2979998588562,learn,702.0001411437988,Wed Jul 30 2025 10:54:19 GMT-0500 (Central Daylight Time),959779.799999997,A,c,I,c,3558,3,3565.2000000029802,956214.599999994,8020,WL,C,14.0
3,59.431999921798706,learn,568.000078201294,Wed Jul 30 2025 10:54:19 GMT-0500 (Central Daylight Time),959913.299999997,A,ca,I,a,113,3,3698.7000000029802,956214.599999994,8020,WL,C,14.0
3,59.58099985122681,learn,419.00014877319336,Wed Jul 30 2025 10:54:19 GMT-0500 (Central Daylight Time),960063.1999999955,A,cam,I,m,131,3,3848.60000000149,956214.599999994,8020,WL,C,14.0
3,59.89800000190735,learn,101.99999809265137,Wed Jul 30 2025 10:54:19 GMT-0500 (Central Daylight Time),960379.6999999955,A,camp,I,p,302,3,4165.10000000149,956214.599999994,8020,WL,C,14.0
3,60.014999866485596,learn,-14.999866485595703,Wed Jul 30 2025 10:54:19 GMT-0500 (Central Daylight Time),960496.5,A,campNone,I,None,112,3,4281.9000000059605,956214.599999994,8020,WL,C,14.0
4,0.7990000247955322,learn,59200.99997520447,Wed Jul 30 2025 10:54:19 GMT-0500 (Central Daylight Time),1052950.5,A,t,I,t,783,3,799.5,1052151.0,8020,WL,C,1.0
4,1.065999984741211,learn,58934.00001525879,Wed Jul 30 2025 10:54:19 GMT-0500 (Central Daylight Time),1053217.099999994,A,to,I,o,253,3,1066.0999999940395,1052151.0,8020,WL,C,1.0
4,1.5160000324249268,learn,58483.99996757507,Wed Jul 30 2025 10:54:19 GMT-0500 (Central Daylight Time),1053667.0,A,tow,I,w,444,3,1516.0,1052151.0,8020,WL,C,1.0
4,1.749000072479248,learn,58250.99992752075,Wed Jul 30 2025 10:54:19 GMT-0500 (Central Daylight Time),1053900.3999999985,A,towe,I,e,218,3,1749.3999999985099,1052151.0,8020,WL,C,1.0
4,1.9160001277923584,learn,58083.99987220764,Wed Jul 30 2025 10:54:19 GMT-0500 (Central Daylight Time),1054066.8999999985,A,tower,I,r,153,3,1915.8999999985099,1052151.0,8020,WL,C,1.0
4,3.115000009536743,learn,56884.99999046326,Wed Jul 30 2025 10:54:19 GMT-0500 (Central Daylight Time),1055266.299999997,A,towerenter,I,enter,1194,3,3115.2999999970198,1052151.0,8020,WL,C,1.0
4,4.131999969482422,learn,55868.00003051758,Wed Jul 30 2025 10:54:19 GMT-0500 (Central Daylight Time),1056282.6999999955,A,w,I,w,1011,3,1016.1999999955297,1055266.5,8020,WL,C,2.0
4,4.615000009536743,learn,55384.99999046326,Wed Jul 30 2025 10:54:19 GMT-0500 (Central Daylight Time),1056765.799999997,A,wh,I,h,474,3,1499.2999999970198,1055266.5,8020,WL,C,2.0
4,4.79800009727478,learn,55201.99990272522,Wed Jul 30 2025 10:54:19 GMT-0500 (Central Daylight Time),1056949.5,A,whe,I,e,167,3,1683.0,1055266.5,8020,WL,C,2.0
4,4.898000001907349,learn,55101.99999809265,Wed Jul 30 2025 10:54:19 GMT-0500 (Central Daylight Time),1057049.5,A,whea,I,a,95,3,1783.0,1055266.5,8020,WL,C,2.0
4,5.148000001907349,learn,54851.99999809265,Wed Jul 30 2025 10:54:19 GMT-0500 (Central Daylight Time),1057299.1999999955,A,wheat,I,t,243,3,2032.6999999955297,1055266.5,8020,WL,C,2.0
4,5.96399998664856,learn,54036.00001335144,Wed Jul 30 2025 10:54:19 GMT-0500 (Central Daylight Time),1058115.3999999985,A,wheatenter,I,enter,801,3,2848.89999999851,1055266.5,8020,WL,C,2.0
4,7.96399998664856,learn,52036.00001335144,Wed Jul 30 2025 10:54:19 GMT-0500 (Central Daylight Time),1060114.8999999985,A,q,I,q,1985,3,1999.1000000014901,1058115.799999997,8020,WL,C,3.0
4,8.19700002670288,learn,51802.99997329712,Wed Jul 30 2025 10:54:19 GMT-0500 (Central Daylight Time),1060348.299999997,A,qu,I,u,226,3,2232.5,1058115.799999997,8020,WL,C,3.0
4,8.614000082015991,learn,51385.99991798401,Wed Jul 30 2025 10:54:19 GMT-0500 (Central Daylight Time),1060764.599999994,A,que,I,e,408,3,2648.7999999970198,1058115.799999997,8020,WL,C,3.0
4,8.812999963760376,learn,51187.000036239624,Wed Jul 30 2025 10:54:19 GMT-0500 (Central Daylight Time),1060964.599999994,A,quee,I,e,184,3,2848.7999999970198,1058115.799999997,8020,WL,C,3.0
4,9.04699993133545,learn,50953.00006866455,Wed Jul 30 2025 10:54:19 GMT-0500 (Central Daylight Time),1061198.0,A,queen,I,n,224,3,3082.2000000029802,1058115.799999997,8020,WL,C,3.0
4,9.930000066757202,learn,50069.9999332428,Wed Jul 30 2025 10:54:19 GMT-0500 (Central Daylight Time),1062081.0,A,queenenter,I,enter,871,3,3965.2000000029802,1058115.799999997,8020,WL,C,3.0
4,15.490000009536743,learn,44509.99999046326,Wed Jul 30 2025 10:54:19 GMT-0500 (Central Daylight Time),1067641.3999999985,A,s,I,s,5540,3,5560.10000000149,1062081.299999997,8020,WL,C,4.0
4,15.597000122070312,learn,44402.99987792969,Wed Jul 30 2025 10:54:19 GMT-0500 (Central Daylight Time),1067748.1999999955,A,su,I,u,90,3,5666.89999999851,1062081.299999997,8020,WL,C,4.0
4,15.960999965667725,learn,44039.000034332275,Wed Jul 30 2025 10:54:19 GMT-0500 (Central Daylight Time),1068112.3999999985,A,sug,I,g,344,3,6031.10000000149,1062081.299999997,8020,WL,C,4.0
4,16.16100001335144,learn,43838.99998664856,Wed Jul 30 2025 10:54:19 GMT-0500 (Central Daylight Time),1068312.5,A,suga,I,a,180,3,6231.20000000298,1062081.299999997,8020,WL,C,4.0
4,16.32800006866455,learn,43671.99993133545,Wed Jul 30 2025 10:54:19 GMT-0500 (Central Daylight Time),1068479.099999994,A,sugar,I,r,148,3,6397.79999999702,1062081.299999997,8020,WL,C,4.0
4,18.561000108718872,learn,41438.99989128113,Wed Jul 30 2025 10:54:19 GMT-0500 (Central Daylight Time),1070711.6999999955,A,sugarenter,I,enter,2222,3,8630.39999999851,1062081.299999997,8020,WL,C,4.0
4,19.509999990463257,learn,40490.00000953674,Wed Jul 30 2025 10:54:19 GMT-0500 (Central Daylight Time),1071661.099999994,A,c,I,c,933,3,948.8999999985099,1070712.1999999955,8020,WL,C,5.0
4,19.66000008583069,learn,40339.99991416931,Wed Jul 30 2025 10:54:19 GMT-0500 (Central Daylight Time),1071811.1999999955,A,ca,I,a,144,3,1099.0,1070712.1999999955,8020,WL,C,5.0
4,20.32699990272522,learn,39673.00009727478,Wed Jul 30 2025 10:54:19 GMT-0500 (Central Daylight Time),1072477.599999994,A,cam,I,m,649,3,1765.3999999985099,1070712.1999999955,8020,WL,C,5.0
4,20.759999990463257,learn,39240.00000953674,Wed Jul 30 2025 10:54:19 GMT-0500 (Central Daylight Time),1072911.0,A,camp,I,p,415,3,2198.8000000044703,1070712.1999999955,8020,WL,C,5.0
4,21.55900001525879,learn,38440.99998474121,Wed Jul 30 2025 10:54:19 GMT-0500 (Central Daylight Time),1073710.599999994,A,campenter,I,enter,781,3,2998.39999999851,1070712.1999999955,8020,WL,C,5.0
4,23.05900001525879,learn,36940.99998474121,Wed Jul 30 2025 10:54:19 GMT-0500 (Central Daylight Time),1075210.299999997,A,f,I,f,1486,3,1499.2999999970198,1073711.0,8020,WL,C,6.0
4,24.325000047683716,learn,35674.999952316284,Wed Jul 30 2025 10:54:19 GMT-0500 (Central Daylight Time),1076476.599999994,A,fl,I,l,1250,3,2765.5999999940395,1073711.0,8020,WL,C,6.0
4,24.492000102996826,learn,35507.999897003174,Wed Jul 30 2025 10:54:19 GMT-0500 (Central Daylight Time),1076643.099999994,A,fla,I,a,153,3,2932.0999999940395,1073711.0,8020,WL,C,6.0
4,24.70799994468689,learn,35292.00005531311,Wed Jul 30 2025 10:54:19 GMT-0500 (Central Daylight Time),1076859.599999994,A,flag,I,g,202,3,3148.5999999940395,1073711.0,8020,WL,C,6.0
4,25.507999897003174,learn,34492.000102996826,Wed Jul 30 2025 10:54:19 GMT-0500 (Central Daylight Time),1077659.3999999985,A,flagenter,I,enter,793,3,3948.39999999851,1073711.0,8020,WL,C,6.0
4,28.990000009536743,learn,31009.999990463257,Wed Jul 30 2025 10:54:19 GMT-0500 (Central Daylight Time),1081141.599999994,A,d,I,d,3465,3,3481.7999999970198,1077659.799999997,8020,WL,C,7.0
4,29.140000104904175,learn,30859.999895095825,Wed Jul 30 2025 10:54:19 GMT-0500 (Central Daylight Time),1081291.799999997,A,do,I,o,143,3,3632.0,1077659.799999997,8020,WL,C,7.0
4,29.707000017166138,learn,30292.999982833862,Wed Jul 30 2025 10:54:19 GMT-0500 (Central Daylight Time),1081858.099999994,A,doc,I,c,561,3,4198.29999999702,1077659.799999997,8020,WL,C,7.0
4,30.08999991416931,learn,29910.00008583069,Wed Jul 30 2025 10:54:19 GMT-0500 (Central Daylight Time),1082241.3999999985,A,doct,I,t,371,3,4581.60000000149,1077659.799999997,8020,WL,C,7.0
4,30.206000089645386,learn,29793.999910354614,Wed Jul 30 2025 10:54:19 GMT-0500 (Central Daylight Time),1082357.8999999985,A,docto,I,o,107,3,4698.10000000149,1077659.799999997,8020,WL,C,7.0
4,30.44000005722046,learn,29559.99994277954,Wed Jul 30 2025 10:54:19 GMT-0500 (Central Daylight Time),1082591.299999997,A,doctor,I,r,215,3,4931.5,1077659.799999997,8020,WL,C,7.0
4,31.33999991416931,learn,28660.00008583069,Wed Jul 30 2025 10:54:19 GMT-0500 (Central Daylight Time),1083490.8999999985,A,doctorenter,I,enter,885,3,5831.10000000149,1077659.799999997,8020,WL,C,7.0
4,36.53800010681152,learn,23461.999893188477,Wed Jul 30 2025 10:54:19 GMT-0500 (Central Daylight Time),1088689.299999997,A,s,I,s,5193,3,5198.10000000149,1083491.1999999955,8020,WL,C,8.0
4,36.78800010681152,learn,23211.999893188477,Wed Jul 30 2025 10:54:19 GMT-0500 (Central Daylight Time),1088939.5,A,sh,I,h,235,3,5448.30000000447,1083491.1999999955,8020,WL,C,8.0
4,36.9210000038147,learn,23078.999996185303,Wed Jul 30 2025 10:54:19 GMT-0500 (Central Daylight Time),1089072.599999994,A,sho,I,o,121,3,5581.39999999851,1083491.1999999955,8020,WL,C,8.0
4,37.15400004386902,learn,22845.99995613098,Wed Jul 30 2025 10:54:19 GMT-0500 (Central Daylight Time),1089305.799999997,A,shor,I,r,228,3,5814.60000000149,1083491.1999999955,8020,WL,C,8.0
4,37.270999908447266,learn,22729.000091552734,Wed Jul 30 2025 10:54:19 GMT-0500 (Central Daylight Time),1089422.599999994,A,shore,I,e,107,3,5931.39999999851,1083491.1999999955,8020,WL,C,8.0
4,37.78699994087219,learn,22213.000059127808,Wed Jul 30 2025 10:54:19 GMT-0500 (Central Daylight Time),1089938.799999997,A,shoreenter,I,enter,510,3,6447.60000000149,1083491.1999999955,8020,WL,C,8.0
4,41.12000012397766,learn,18879.99987602234,Wed Jul 30 2025 10:54:19 GMT-0500 (Central Daylight Time),1093271.0,A,b,I,b,3322,3,3331.9000000059605,1089939.099999994,8020,WL,C,9.0
4,41.253000020980835,learn,18746.999979019165,Wed Jul 30 2025 10:54:19 GMT-0500 (Central Daylight Time),1093404.3999999985,A,bo,I,o,126,3,3465.3000000044703,1089939.099999994,8020,WL,C,9.0
4,41.87000012397766,learn,18129.99987602234,Wed Jul 30 2025 10:54:19 GMT-0500 (Central Daylight Time),1094020.8999999985,A,bod,I,d,600,3,4081.8000000044703,1089939.099999994,8020,WL,C,9.0
4,42.15300011634827,learn,17846.999883651733,Wed Jul 30 2025 10:54:19 GMT-0500 (Central Daylight Time),1094304.299999997,A,body,I,y,272,3,4365.20000000298,1089939.099999994,8020,WL,C,9.0
4,42.819000005722046,learn,17180.999994277954,Wed Jul 30 2025 10:54:19 GMT-0500 (Central Daylight Time),1094970.799999997,A,bodyenter,I,enter,652,3,5031.70000000298,1089939.099999994,8020,WL,C,9.0
4,43.61899995803833,learn,16381.00004196167,Wed Jul 30 2025 10:54:19 GMT-0500 (Central Daylight Time),1095770.1999999955,A,l,I,l,794,3,799.1999999955297,1094971.0,8020,WL,C,10.0
4,43.918999910354614,learn,16081.000089645386,Wed Jul 30 2025 10:54:19 GMT-0500 (Central Daylight Time),1096070.299999997,A,lw,I,w,290,3,1099.2999999970198,1094971.0,8020,WL,C,10.0
4,44.168999910354614,learn,15831.000089645386,Wed Jul 30 2025 10:54:19 GMT-0500 (Central Daylight Time),1096320.0,A,lwt,I,t,231,3,1349.0,1094971.0,8020,WL,C,10.0
4,44.335999965667725,learn,15664.000034332275,Wed Jul 30 2025 10:54:19 GMT-0500 (Central Daylight Time),1096486.8999999985,A,lwtt,I,t,149,3,1515.8999999985099,1094971.0,8020,WL,C,10.0
4,44.76900005340576,learn,15230.999946594238,Wed Jul 30 2025 10:54:19 GMT-0500 (Central Daylight Time),1096920.099999994,A,lwt,I,backspace,414,3,1949.0999999940395,1094971.0,8020,WL,C,10.0
4,44.93600010871887,learn,15063.999891281128,Wed Jul 30 2025 10:54:19 GMT-0500 (Central Daylight Time),1097086.8999999985,A,lw,I,backspace,158,3,2115.89999999851,1094971.0,8020,WL,C,10.0
4,45.318000078201294,learn,14681.999921798706,Wed Jul 30 2025 10:54:19 GMT-0500 (Central Daylight Time),1097469.6999999955,A,l,I,backspace,366,3,2498.6999999955297,1094971.0,8020,WL,C,10.0
4,46.05200004577637,learn,13947.999954223633,Wed Jul 30 2025 10:54:19 GMT-0500 (Central Daylight Time),1098202.8999999985,A,le,I,e,718,3,3231.89999999851,1094971.0,8020,WL,C,10.0
4,46.33500003814697,learn,13664.999961853027,Wed Jul 30 2025 10:54:19 GMT-0500 (Central Daylight Time),1098486.3999999985,A,let,I,t,266,3,3515.39999999851,1094971.0,8020,WL,C,10.0
4,46.484999895095825,learn,13515.000104904175,Wed Jul 30 2025 10:54:19 GMT-0500 (Central Daylight Time),1098636.1999999955,A,lett,I,t,142,3,3665.1999999955297,1094971.0,8020,WL,C,10.0
4,46.651000022888184,learn,13348.999977111816,Wed Jul 30 2025 10:54:19 GMT-0500 (Central Daylight Time),1098802.5,A,lette,I,e,162,3,3831.5,1094971.0,8020,WL,C,10.0
4,46.78500008583069,learn,13214.999914169312,Wed Jul 30 2025 10:54:19 GMT-0500 (Central Daylight Time),1098936.1999999955,A,letter,I,r,122,3,3965.1999999955297,1094971.0,8020,WL,C,10.0
4,47.23399996757507,learn,12766.000032424927,Wed Jul 30 2025 10:54:19 GMT-0500 (Central Daylight Time),1099385.799999997,A,letterenter,I,enter,437,3,4414.79999999702,1094971.0,8020,WL,C,10.0
4,55.765000104904175,learn,4234.999895095825,Wed Jul 30 2025 10:54:19 GMT-0500 (Central Daylight Time),1107916.3999999985,A,n,I,n,8515,3,8530.30000000447,1099386.099999994,8020,WL,C,11.0
4,55.91499996185303,learn,4085.0000381469727,Wed Jul 30 2025 10:54:19 GMT-0500 (Central Daylight Time),1108066.599999994,A,na,I,a,136,3,8680.5,1099386.099999994,8020,WL,C,11.0
4,56.04800009727478,learn,3951.9999027252197,Wed Jul 30 2025 10:54:19 GMT-0500 (Central Daylight Time),1108199.799999997,A,nai,I,i,122,3,8813.70000000298,1099386.099999994,8020,WL,C,11.0
4,56.28200006484985,learn,3717.9999351501465,Wed Jul 30 2025 10:54:19 GMT-0500 (Central Daylight Time),1108433.299999997,A,nail,I,l,213,3,9047.20000000298,1099386.099999994,8020,WL,C,11.0
4,56.89800000190735,learn,3101.9999980926514,Wed Jul 30 2025 10:54:19 GMT-0500 (Central Daylight Time),1109049.6999999955,A,nailenter,I,enter,612,3,9663.60000000149,1099386.099999994,8020,WL,C,11.0
4,57.598000049591064,learn,2401.9999504089355,Wed Jul 30 2025 10:54:19 GMT-0500 (Central Daylight Time),1109749.1999999955,A,c,I,c,683,3,699.1000000014901,1109050.099999994,8020,WL,C,12.0
4,57.74799990653992,learn,2252.000093460083,Wed Jul 30 2025 10:54:19 GMT-0500 (Central Daylight Time),1109898.8999999985,A,ca,I,a,136,3,848.8000000044703,1109050.099999994,8020,WL,C,12.0
4,57.86400008201599,learn,2135.999917984009,Wed Jul 30 2025 10:54:19 GMT-0500 (Central Daylight Time),1110015.799999997,A,cam,I,m,98,3,965.7000000029802,1109050.099999994,8020,WL,C,12.0
4,58.11400008201599,learn,1885.9999179840088,Wed Jul 30 2025 10:54:19 GMT-0500 (Central Daylight Time),1110265.799999997,A,camp,I,p,244,3,1215.7000000029802,1109050.099999994,8020,WL,C,12.0
4,58.513999938964844,learn,1486.0000610351562,Wed Jul 30 2025 10:54:19 GMT-0500 (Central Daylight Time),1110665.599999994,A,campenter,I,enter,395,3,1615.5,1109050.099999994,8020,WL,C,12.0
4,60.013999938964844,learn,-13.99993896484375,Wed Jul 30 2025 10:54:19 GMT-0500 (Central Daylight Time),1112165.3999999985,A,None,I,None,1495,3,1499.5,1110665.8999999985,8020,WL,C,13.0
5,2.0,learn,60000.0,Wed Jul 30 2025 10:54:19 GMT-0500 (Central Daylight Time),1179812.0,A,t,I,t,1994,3,2000.6000000014901,1177811.3999999985,8020,WL,C,1.0
5,2.2990000247955322,learn,60000.0,Wed Jul 30 2025 10:54:19 GMT-0500 (Central Daylight Time),1180110.5,A,to,I,o,280,3,2299.10000000149,1177811.3999999985,8020,WL,C,1.0
5,2.631999969482422,learn,60000.0,Wed Jul 30 2025 10:54:19 GMT-0500 (Central Daylight Time),1180443.6999999955,A,tow,I,w,326,3,2632.2999999970198,1177811.3999999985,8020,WL,C,1.0
5,2.8320000171661377,learn,60000.0,Wed Jul 30 2025 10:54:19 GMT-0500 (Central Daylight Time),1180643.6999999955,A,towe,I,e,185,3,2832.2999999970198,1177811.3999999985,8020,WL,C,1.0
5,2.998999834060669,learn,60000.0,Wed Jul 30 2025 10:54:19 GMT-0500 (Central Daylight Time),1180810.1999999955,A,tower,I,r,152,3,2998.7999999970198,1177811.3999999985,8020,WL,C,1.0
5,4.082000017166138,learn,60000.0,Wed Jul 30 2025 10:54:19 GMT-0500 (Central Daylight Time),1181893.3999999985,A,towerenter,I,enter,1066,3,4082.0,1177811.3999999985,8020,WL,C,1.0
5,4.832000017166138,learn,60000.0,Wed Jul 30 2025 10:54:19 GMT-0500 (Central Daylight Time),1182643.1999999955,A,w,I,w,735,3,749.5,1181893.6999999955,8020,WL,C,2.0
5,5.047999858856201,learn,60000.0,Wed Jul 30 2025 10:54:19 GMT-0500 (Central Daylight Time),1182859.799999997,A,wh,I,h,202,3,966.1000000014901,1181893.6999999955,8020,WL,C,2.0
5,5.497999906539917,learn,60000.0,Wed Jul 30 2025 10:54:19 GMT-0500 (Central Daylight Time),1183309.5,A,whe,I,e,441,3,1415.8000000044703,1181893.6999999955,8020,WL,C,2.0
5,5.680999994277954,learn,60000.0,Wed Jul 30 2025 10:54:19 GMT-0500 (Central Daylight Time),1183493.0,A,whea,I,a,176,3,1599.3000000044703,1181893.6999999955,8020,WL,C,2.0
5,5.863999843597412,learn,60000.0,Wed Jul 30 2025 10:54:19 GMT-0500 (Central Daylight Time),1183676.099999994,A,wheat,I,t,176,3,1782.3999999985099,1181893.6999999955,8020,WL,C,2.0
5,6.730999946594238,learn,60000.0,Wed Jul 30 2025 10:54:19 GMT-0500 (Central Daylight Time),1184542.5,A,wheatenter,I,enter,857,3,2648.8000000044703,1181893.6999999955,8020,WL,C,2.0
5,8.596999883651733,learn,60000.0,Wed Jul 30 2025 10:54:19 GMT-0500 (Central Daylight Time),1186408.599999994,A,q,I,q,1846,3,1865.7999999970198,1184542.799999997,8020,WL,C,3.0
5,8.980000019073486,learn,60000.0,Wed Jul 30 2025 10:54:19 GMT-0500 (Central Daylight Time),1186791.6999999955,A,qu,I,u,364,3,2248.89999999851,1184542.799999997,8020,WL,C,3.0
5,9.263000011444092,learn,60000.0,Wed Jul 30 2025 10:54:19 GMT-0500 (Central Daylight Time),1187075.099999994,A,que,I,e,277,3,2532.2999999970198,1184542.799999997,8020,WL,C,3.0
5,9.480000019073486,learn,60000.0,Wed Jul 30 2025 10:54:19 GMT-0500 (Central Daylight Time),1187291.5,A,quee,I,e,210,3,2748.7000000029802,1184542.799999997,8020,WL,C,3.0
5,9.763000011444092,learn,60000.0,Wed Jul 30 2025 10:54:19 GMT-0500 (Central Daylight Time),1187574.799999997,A,queen,I,n,265,3,3032.0,1184542.799999997,8020,WL,C,3.0
5,10.679999828338623,learn,60000.0,Wed Jul 30 2025 10:54:19 GMT-0500 (Central Daylight Time),1188491.3999999985,A,queenenter,I,enter,902,3,3948.60000000149,1184542.799999997,8020,WL,C,3.0
5,13.595999956130981,learn,60000.0,Wed Jul 30 2025 10:54:19 GMT-0500 (Central Daylight Time),1191407.299999997,A,d,I,d,2898,3,2915.60000000149,1188491.6999999955,8020,WL,C,4.0
5,13.76199984550476,learn,60000.0,Wed Jul 30 2025 10:54:19 GMT-0500 (Central Daylight Time),1191573.6999999955,A,do,I,o,158,3,3082.0,1188491.6999999955,8020,WL,C,4.0
5,14.062000036239624,learn,60000.0,Wed Jul 30 2025 10:54:19 GMT-0500 (Central Daylight Time),1191873.599999994,A,doc,I,c,287,3,3381.89999999851,1188491.6999999955,8020,WL,C,4.0
5,14.477999925613403,learn,60000.0,Wed Jul 30 2025 10:54:19 GMT-0500 (Central Daylight Time),1192290.099999994,A,doct,I,t,395,3,3798.39999999851,1188491.6999999955,8020,WL,C,4.0
5,14.644999980926514,learn,60000.0,Wed Jul 30 2025 10:54:19 GMT-0500 (Central Daylight Time),1192456.799999997,A,docto,I,o,147,3,3965.10000000149,1188491.6999999955,8020,WL,C,4.0
5,14.878000020980835,learn,60000.0,Wed Jul 30 2025 10:54:19 GMT-0500 (Central Daylight Time),1192689.8999999985,A,doctor,I,r,220,3,4198.20000000298,1188491.6999999955,8020,WL,C,4.0
5,16.560999870300293,learn,60000.0,Wed Jul 30 2025 10:54:19 GMT-0500 (Central Daylight Time),1194372.599999994,A,doctorenter,I,enter,1667,3,5880.89999999851,1188491.6999999955,8020,WL,C,4.0
5,19.743000030517578,learn,60000.0,Wed Jul 30 2025 10:54:19 GMT-0500 (Central Daylight Time),1197555.099999994,A,f,I,f,3168,3,3182.1999999955297,1194372.8999999985,8020,WL,C,5.0
5,20.359999895095825,learn,60000.0,Wed Jul 30 2025 10:54:19 GMT-0500 (Central Daylight Time),1198171.599999994,A,fl,I,l,601,3,3798.6999999955297,1194372.8999999985,8020,WL,C,5.0
5,20.493000030517578,learn,60000.0,Wed Jul 30 2025 10:54:19 GMT-0500 (Central Daylight Time),1198304.799999997,A,fla,I,a,121,3,3931.89999999851,1194372.8999999985,8020,WL,C,5.0
5,21.042999982833862,learn,60000.0,Wed Jul 30 2025 10:54:19 GMT-0500 (Central Daylight Time),1198854.6999999955,A,flag,I,g,540,3,4481.79999999702,1194372.8999999985,8020,WL,C,5.0
5,23.674999952316284,learn,60000.0,Wed Jul 30 2025 10:54:19 GMT-0500 (Central Daylight Time),1201487.1999999955,A,flagenter,I,enter,2622,3,7114.29999999702,1194372.8999999985,8020,WL,C,5.0
5,24.491999864578247,learn,60000.0,Wed Jul 30 2025 10:54:19 GMT-0500 (Central Daylight Time),1202303.5,A,s,I,s,797,3,816.0,1201487.5,8020,WL,C,6.0
5,24.60800004005432,learn,60000.0,Wed Jul 30 2025 10:54:19 GMT-0500 (Central Daylight Time),1202420.1999999955,A,su,I,u,110,3,932.6999999955297,1201487.5,8020,WL,C,6.0
5,24.875,learn,60000.0,Wed Jul 30 2025 10:54:19 GMT-0500 (Central Daylight Time),1202686.799999997,A,sug,I,g,257,3,1199.2999999970198,1201487.5,8020,WL,C,6.0
5,25.074999809265137,learn,60000.0,Wed Jul 30 2025 10:54:19 GMT-0500 (Central Daylight Time),1202886.8999999985,A,suga,I,a,182,3,1399.3999999985099,1201487.5,8020,WL,C,6.0
5,25.241999864578247,learn,60000.0,Wed Jul 30 2025 10:54:19 GMT-0500 (Central Daylight Time),1203053.3999999985,A,sugar,I,r,158,3,1565.8999999985099,1201487.5,8020,WL,C,6.0
5,26.307999849319458,learn,60000.0,Wed Jul 30 2025 10:54:19 GMT-0500 (Central Daylight Time),1204119.599999994,A,sugarenter,I,enter,1047,3,2632.0999999940395,1201487.5,8020,WL,C,6.0
5,31.68999981880188,learn,60000.0,Wed Jul 30 2025 10:54:19 GMT-0500 (Central Daylight Time),1209501.3999999985,A,b,I,b,5365,3,5381.5,1204119.8999999985,8020,WL,C,7.0
5,31.805999994277954,learn,60000.0,Wed Jul 30 2025 10:54:19 GMT-0500 (Central Daylight Time),1209617.8999999985,A,bo,I,o,111,3,5498.0,1204119.8999999985,8020,WL,C,7.0
5,32.15599989891052,learn,60000.0,Wed Jul 30 2025 10:54:19 GMT-0500 (Central Daylight Time),1209967.799999997,A,bod,I,d,331,3,5847.89999999851,1204119.8999999985,8020,WL,C,7.0
5,32.35599994659424,learn,60000.0,Wed Jul 30 2025 10:54:19 GMT-0500 (Central Daylight Time),1210167.799999997,A,body,I,y,181,3,6047.89999999851,1204119.8999999985,8020,WL,C,7.0
5,33.43899989128113,learn,60000.0,Wed Jul 30 2025 10:54:19 GMT-0500 (Central Daylight Time),1211251.0,A,bodyenter,I,enter,1069,3,7131.10000000149,1204119.8999999985,8020,WL,C,7.0
5,34.121999979019165,learn,60000.0,Wed Jul 30 2025 10:54:19 GMT-0500 (Central Daylight Time),1211933.799999997,A,n,I,n,666,3,682.5,1211251.299999997,8020,WL,C,8.0
5,34.27199983596802,learn,60000.0,Wed Jul 30 2025 10:54:19 GMT-0500 (Central Daylight Time),1212083.8999999985,A,na,I,a,135,3,832.6000000014901,1211251.299999997,8020,WL,C,8.0
5,34.40599989891052,learn,60000.0,Wed Jul 30 2025 10:54:19 GMT-0500 (Central Daylight Time),1212217.299999997,A,nai,I,i,121,3,966.0,1211251.299999997,8020,WL,C,8.0
5,34.65499997138977,learn,60000.0,Wed Jul 30 2025 10:54:19 GMT-0500 (Central Daylight Time),1212467.0,A,nail,I,l,243,3,1215.7000000029802,1211251.299999997,8020,WL,C,8.0
5,35.05499982833862,learn,60000.0,Wed Jul 30 2025 10:54:19 GMT-0500 (Central Daylight Time),1212866.599999994,A,nailenter,I,enter,394,3,1615.2999999970198,1211251.299999997,8020,WL,C,8.0
5,35.67199993133545,learn,60000.0,Wed Jul 30 2025 10:54:19 GMT-0500 (Central Daylight Time),1213483.5,A,c,I,c,602,3,616.6000000014901,1212866.8999999985,8020,WL,C,9.0
5,35.787999868392944,learn,60000.0,Wed Jul 30 2025 10:54:19 GMT-0500 (Central Daylight Time),1213599.8999999985,A,co,I,o,97,3,733.0,1212866.8999999985,8020,WL,C,9.0
5,36.037999868392944,learn,60000.0,Wed Jul 30 2025 10:54:19 GMT-0500 (Central Daylight Time),1213849.799999997,A,cor,I,r,245,3,982.8999999985099,1212866.8999999985,8020,WL,C,9.0
5,36.270999908447266,learn,60000.0,Wed Jul 30 2025 10:54:19 GMT-0500 (Central Daylight Time),1214083.1999999955,A,corn,I,n,228,3,1216.2999999970198,1212866.8999999985,8020,WL,C,9.0
5,36.6710000038147,learn,60000.0,Wed Jul 30 2025 10:54:19 GMT-0500 (Central Daylight Time),1214483.099999994,A,cornenter,I,enter,386,3,1616.1999999955297,1212866.8999999985,8020,WL,C,9.0
5,37.13800001144409,learn,60000.0,Wed Jul 30 2025 10:54:19 GMT-0500 (Central Daylight Time),1214949.5,A,c,I,c,458,3,466.1000000014901,1214483.3999999985,8020,WL,C,10.0
5,37.270999908447266,learn,60000.0,Wed Jul 30 2025 10:54:19 GMT-0500 (Central Daylight Time),1215082.8999999985,A,ca,I,a,119,3,599.5,1214483.3999999985,8020,WL,C,10.0
5,37.65400004386902,learn,60000.0,Wed Jul 30 2025 10:54:19 GMT-0500 (Central Daylight Time),1215466.0,A,cat,I,t,378,3,982.6000000014901,1214483.3999999985,8020,WL,C,10.0
5,37.83799982070923,learn,60000.0,Wed Jul 30 2025 10:54:19 GMT-0500 (Central Daylight Time),1215649.3999999985,A,catt,I,t,171,3,1166.0,1214483.3999999985,8020,WL,C,10.0
5,37.97099995613098,learn,60000.0,Wed Jul 30 2025 10:54:19 GMT-0500 (Central Daylight Time),1215782.599999994,A,cattl,I,l,115,3,1299.1999999955297,1214483.3999999985,8020,WL,C,10.0
5,38.103999853134155,learn,60000.0,Wed Jul 30 2025 10:54:19 GMT-0500 (Central Daylight Time),1215916.0,A,cattle,I,e,126,3,1432.6000000014901,1214483.3999999985,8020,WL,C,10.0
5,38.687000036239624,learn,60000.0,Wed Jul 30 2025 10:54:19 GMT-0500 (Central Daylight Time),1216498.8999999985,A,cattleenter,I,enter,570,3,2015.5,1214483.3999999985,8020,WL,C,10.0
5,43.503000020980835,learn,60000.0,Wed Jul 30 2025 10:54:19 GMT-0500 (Central Daylight Time),1221314.3999999985,A,h,I,h,4802,3,4815.20000000298,1216499.1999999955,8020,WL,C,11.0
5,43.668999910354614,learn,60000.0,Wed Jul 30 2025 10:54:19 GMT-0500 (Central Daylight Time),1221481.0,A,ho,I,o,154,3,4981.80000000447,1216499.1999999955,8020,WL,C,11.0
5,43.88599991798401,learn,60000.0,Wed Jul 30 2025 10:54:19 GMT-0500 (Central Daylight Time),1221697.6999999955,A,hom,I,m,212,3,5198.5,1216499.1999999955,8020,WL,C,11.0
5,44.26899981498718,learn,60000.0,Wed Jul 30 2025 10:54:19 GMT-0500 (Central Daylight Time),1222080.6999999955,A,home,I,e,371,3,5581.5,1216499.1999999955,8020,WL,C,11.0
5,44.80200004577637,learn,60000.0,Wed Jul 30 2025 10:54:19 GMT-0500 (Central Daylight Time),1222613.6999999955,A,homeenter,I,enter,516,3,6114.5,1216499.1999999955,8020,WL,C,11.0
5,45.68499994277954,learn,60000.0,Wed Jul 30 2025 10:54:19 GMT-0500 (Central Daylight Time),1223496.8999999985,A,b,I,b,871,3,882.8999999985099,1222614.0,8020,WL,C,12.0
5,45.76799988746643,learn,60000.0,Wed Jul 30 2025 10:54:19 GMT-0500 (Central Daylight Time),1223580.1999999955,A,bo,I,o,76,3,966.1999999955297,1222614.0,8020,WL,C,12.0
5,46.11800003051758,learn,60000.0,Wed Jul 30 2025 10:54:19 GMT-0500 (Central Daylight Time),1223930.0,A,boy,I,y,345,3,1316.0,1222614.0,8020,WL,C,12.0
5,46.86800003051758,learn,60000.0,Wed Jul 30 2025 10:54:19 GMT-0500 (Central Daylight Time),1224679.799999997,A,boyenter,I,enter,739,3,2065.7999999970198,1222614.0,8020,WL,C,12.0
5,47.60099983215332,learn,60000.0,Wed Jul 30 2025 10:54:19 GMT-0500 (Central Daylight Time),1225413.099999994,A,l,I,l,717,3,733.0,1224680.099999994,8020,WL,C,13.0
5,47.78499984741211,learn,60000.0,Wed Jul 30 2025 10:54:19 GMT-0500 (Central Daylight Time),1225596.5,A,le,I,e,167,3,916.4000000059605,1224680.099999994,8020,WL,C,13.0
5,48.10099983215332,learn,60000.0,Wed Jul 30 2025 10:54:19 GMT-0500 (Central Daylight Time),1225912.8999999985,A,let,I,t,296,3,1232.8000000044703,1224680.099999994,8020,WL,C,13.0
5,48.25099992752075,learn,60000.0,Wed Jul 30 2025 10:54:19 GMT-0500 (Central Daylight Time),1226062.6999999955,A,lett,I,t,132,3,1382.6000000014901,1224680.099999994,8020,WL,C,13.0
5,48.401999950408936,learn,60000.0,Wed Jul 30 2025 10:54:19 GMT-0500 (Central Daylight Time),1226214.0,A,lette,I,e,134,3,1533.9000000059605,1224680.099999994,8020,WL,C,13.0
5,48.53399991989136,learn,60000.0,Wed Jul 30 2025 10:54:19 GMT-0500 (Central Daylight Time),1226346.099999994,A,letter,I,r,119,3,1666.0,1224680.099999994,8020,WL,C,13.0
5,48.94999980926514,learn,60000.0,Wed Jul 30 2025 10:54:19 GMT-0500 (Central Daylight Time),1226762.299999997,A,letterenter,I,enter,411,3,2082.2000000029802,1224680.099999994,8020,WL,C,13.0
5,59.013999938964844,learn,60000.0,Wed Jul 30 2025 10:54:19 GMT-0500 (Central Daylight Time),1236826.099999994,A,t,I,t,10052,3,10063.5,1226762.599999994,8020,WL,C,14.0
5,59.13100004196167,learn,60000.0,Wed Jul 30 2025 10:54:19 GMT-0500 (Central Daylight Time),1236942.8999999985,A,to,I,o,107,3,10180.30000000447,1226762.599999994,8020,WL,C,14.0
5,59.56399989128113,learn,60000.0,Wed Jul 30 2025 10:54:19 GMT-0500 (Central Daylight Time),1237375.8999999985,A,tow,I,w,414,3,10613.30000000447,1226762.599999994,8020,WL,C,14.0
5,59.71399998664856,learn,60000.0,Wed Jul 30 2025 10:54:19 GMT-0500 (Central Daylight Time),1237525.8999999985,A,towe,I,e,134,3,10763.30000000447,1226762.599999994,8020,WL,C,14.0
5,59.83099985122681,learn,60000.0,Wed Jul 30 2025 10:54:19 GMT-0500 (Central Daylight Time),1237642.5,A,tower,I,r,103,3,10879.90000000596,1226762.599999994,8020,WL,C,14.0
5,60.34699988365173,learn,60000.0,Wed Jul 30 2025 10:54:19 GMT-0500 (Central Daylight Time),1238159.0,A,towerenter,I,enter,507,3,11396.40000000596,1226762.599999994,8020,WL,C,14.0
6,0.8659999370574951,distr,59134.000062942505,Wed Jul 30 2025 10:54:19 GMT-0500 (Central Daylight Time),1304737.8999999985,B,m,I,m,861,3,866.0,1303871.8999999985,8020,WL,C,1.0
6,0.9830000400543213,distr,59016.99995994568,Wed Jul 30 2025 10:54:19 GMT-0500 (Central Daylight Time),1304855.0,B,me,I,e,98,3,983.1000000014901,1303871.8999999985,8020,WL,C,1.0
6,1.1159999370574951,distr,58884.000062942505,Wed Jul 30 2025 10:54:19 GMT-0500 (Central Daylight Time),1304988.0,B,mea,I,a,126,3,1116.1000000014901,1303871.8999999985,8020,WL,C,1.0
6,1.3489999771118164,distr,58651.00002288818,Wed Jul 30 2025 10:54:19 GMT-0500 (Central Daylight Time),1305221.1999999955,B,meat,I,t,225,3,1349.2999999970198,1303871.8999999985,8020,WL,C,1.0
6,1.8989999294281006,distr,58101.0000705719,Wed Jul 30 2025 10:54:19 GMT-0500 (Central Daylight Time),1305771.0,B,meatenter,I,enter,543,3,1899.1000000014901,1303871.8999999985,8020,WL,C,1.0
6,2.7990000247955322,distr,57200.99997520447,Wed Jul 30 2025 10:54:19 GMT-0500 (Central Daylight Time),1306670.6999999955,B,f,I,f,890,3,899.3999999985099,1305771.299999997,8020,WL,C,2.0
6,2.9819998741149902,distr,57018.00012588501,Wed Jul 30 2025 10:54:19 GMT-0500 (Central Daylight Time),1306854.099999994,B,fo,I,o,166,3,1082.7999999970198,1305771.299999997,8020,WL,C,2.0
6,3.315000057220459,distr,56684.99994277954,Wed Jul 30 2025 10:54:19 GMT-0500 (Central Daylight Time),1307187.1999999955,B,for,I,r,319,3,1415.8999999985099,1305771.299999997,8020,WL,C,2.0
6,3.499000072479248,distr,56500.99992752075,Wed Jul 30 2025 10:54:19 GMT-0500 (Central Daylight Time),1307370.599999994,B,forr,I,r,170,3,1599.2999999970198,1305771.299999997,8020,WL,C,2.0
6,3.631999969482422,distr,56368.00003051758,Wed Jul 30 2025 10:54:19 GMT-0500 (Central Daylight Time),1307503.8999999985,B,forre,I,e,123,3,1732.6000000014901,1305771.299999997,8020,WL,C,2.0
6,3.865000009536743,distr,56134.99999046326,Wed Jul 30 2025 10:54:19 GMT-0500 (Central Daylight Time),1307737.299999997,B,forres,I,s,221,3,1966.0,1305771.299999997,8020,WL,C,2.0
6,4.2149999141693115,distr,55785.00008583069,Wed Jul 30 2025 10:54:19 GMT-0500 (Central Daylight Time),1308087.1999999955,B,forrest,I,t,332,3,2315.89999999851,1305771.299999997,8020,WL,C,2.0
6,4.615000009536743,distr,55384.99999046326,Wed Jul 30 2025 10:54:19 GMT-0500 (Central Daylight Time),1308486.6999999955,B,forrestenter,I,enter,381,3,2715.39999999851,1305771.299999997,8020,WL,C,2.0
6,5.164999961853027,distr,54835.00003814697,Wed Jul 30 2025 10:54:19 GMT-0500 (Central Daylight Time),1309036.599999994,B,t,I,t,534,3,549.5999999940395,1308487.0,8020,WL,C,3.0
6,5.315000057220459,distr,54684.99994277954,Wed Jul 30 2025 10:54:19 GMT-0500 (Central Daylight Time),1309186.599999994,B,to,I,o,137,3,699.5999999940395,1308487.0,8020,WL,C,3.0
6,5.565000057220459,distr,54434.99994277954,Wed Jul 30 2025 10:54:19 GMT-0500 (Central Daylight Time),1309436.599999994,B,too,I,o,234,3,949.5999999940395,1308487.0,8020,WL,C,3.0
6,5.947999954223633,distr,54052.00004577637,Wed Jul 30 2025 10:54:19 GMT-0500 (Central Daylight Time),1309819.6999999955,B,tool,I,l,368,3,1332.6999999955297,1308487.0,8020,WL,C,3.0
6,6.664000034332275,distr,53335.999965667725,Wed Jul 30 2025 10:54:19 GMT-0500 (Central Daylight Time),1310536.0,B,toolenter,I,enter,705,3,2049.0,1308487.0,8020,WL,C,3.0
6,7.7809998989105225,distr,52219.00010108948,Wed Jul 30 2025 10:54:19 GMT-0500 (Central Daylight Time),1311652.5,B,p,I,p,1101,3,1116.2000000029802,1310536.299999997,8020,WL,C,4.0
6,8.147000074386597,distr,51852.9999256134,Wed Jul 30 2025 10:54:19 GMT-0500 (Central Daylight Time),1312019.0,B,pl,I,l,360,3,1482.7000000029802,1310536.299999997,8020,WL,C,4.0
6,8.346999883651733,distr,51653.00011634827,Wed Jul 30 2025 10:54:19 GMT-0500 (Central Daylight Time),1312219.099999994,B,pla,I,a,186,3,1682.7999999970198,1310536.299999997,8020,WL,C,4.0
6,8.513000011444092,distr,51486.99998855591,Wed Jul 30 2025 10:54:19 GMT-0500 (Central Daylight Time),1312385.3999999985,B,plan,I,n,153,3,1849.1000000014901,1310536.299999997,8020,WL,C,4.0
6,8.77999997138977,distr,51220.00002861023,Wed Jul 30 2025 10:54:19 GMT-0500 (Central Daylight Time),1312652.3999999985,B,plant,I,t,251,3,2116.10000000149,1310536.299999997,8020,WL,C,4.0
6,9.246999979019165,distr,50753.000020980835,Wed Jul 30 2025 10:54:19 GMT-0500 (Central Daylight Time),1313119.0,B,plantenter,I,enter,448,3,2582.7000000029802,1310536.299999997,8020,WL,C,4.0
6,10.579999923706055,distr,49420.000076293945,Wed Jul 30 2025 10:54:19 GMT-0500 (Central Daylight Time),1314451.6999999955,B,m,I,m,1319,3,1332.5,1313119.1999999955,8020,WL,C,5.0
6,10.812999963760376,distr,49187.000036239624,Wed Jul 30 2025 10:54:19 GMT-0500 (Central Daylight Time),1314684.8999999985,B,mo,I,o,225,3,1565.7000000029802,1313119.1999999955,8020,WL,C,5.0
6,11.013000011444092,distr,48986.99998855591,Wed Jul 30 2025 10:54:19 GMT-0500 (Central Daylight Time),1314884.799999997,B,mon,I,n,184,3,1765.6000000014901,1313119.1999999955,8020,WL,C,5.0
6,11.878999948501587,distr,48121.00005149841,Wed Jul 30 2025 10:54:19 GMT-0500 (Central Daylight Time),1315751.5,B,mone,I,e,856,3,2632.3000000044703,1313119.1999999955,8020,WL,C,5.0
6,12.029000043869019,distr,47970.99995613098,Wed Jul 30 2025 10:54:19 GMT-0500 (Central Daylight Time),1315901.299999997,B,money,I,y,133,3,2782.10000000149,1313119.1999999955,8020,WL,C,5.0
6,12.611999988555908,distr,47388.00001144409,Wed Jul 30 2025 10:54:19 GMT-0500 (Central Daylight Time),1316484.1999999955,B,moneyenter,I,enter,567,3,3365.0,1313119.1999999955,8020,WL,C,5.0
6,13.211999893188477,distr,46788.00010681152,Wed Jul 30 2025 10:54:19 GMT-0500 (Central Daylight Time),1317084.299999997,B,h,I,h,593,3,599.7999999970198,1316484.5,8020,WL,C,6.0
6,13.328999996185303,distr,46671.0000038147,Wed Jul 30 2025 10:54:19 GMT-0500 (Central Daylight Time),1317200.799999997,B,ho,I,o,106,3,716.2999999970198,1316484.5,8020,WL,C,6.0
6,13.644999980926514,distr,46355.000019073486,Wed Jul 30 2025 10:54:19 GMT-0500 (Central Daylight Time),1317517.3999999985,B,hot,I,t,300,3,1032.8999999985099,1316484.5,8020,WL,C,6.0
6,13.878999948501587,distr,46121.00005149841,Wed Jul 30 2025 10:54:19 GMT-0500 (Central Daylight Time),1317750.599999994,B,hote,I,e,223,3,1266.0999999940395,1316484.5,8020,WL,C,6.0
6,13.977999925613403,distr,46022.0000743866,Wed Jul 30 2025 10:54:19 GMT-0500 (Central Daylight Time),1317850.3999999985,B,hoter,I,r,94,3,1365.8999999985099,1316484.5,8020,WL,C,6.0
6,14.744999885559082,distr,45255.00011444092,Wed Jul 30 2025 10:54:19 GMT-0500 (Central Daylight Time),1318617.0,B,hote,I,backspace,755,3,2132.5,1316484.5,8020,WL,C,6.0
6,16.444999933242798,distr,43555.0000667572,Wed Jul 30 2025 10:54:19 GMT-0500 (Central Daylight Time),1320316.599999994,B,hotel,I,l,1684,3,3832.0999999940395,1316484.5,8020,WL,C,6.0
6,16.91100001335144,distr,43088.99998664856,Wed Jul 30 2025 10:54:19 GMT-0500 (Central Daylight Time),1320783.099999994,B,hotelenter,I,enter,455,3,4298.5999999940395,1316484.5,8020,WL,C,6.0
6,18.22699999809265,distr,41773.00000190735,Wed Jul 30 2025 10:54:19 GMT-0500 (Central Daylight Time),1322099.1999999955,B,s,I,s,1310,3,1315.7999999970198,1320783.3999999985,8020,WL,C,7.0
6,19.276999950408936,distr,40723.000049591064,Wed Jul 30 2025 10:54:19 GMT-0500 (Central Daylight Time),1323149.1999999955,B,sk,I,k,1042,3,2365.7999999970198,1320783.3999999985,8020,WL,C,7.0
6,19.693000078201294,distr,40306.999921798706,Wed Jul 30 2025 10:54:19 GMT-0500 (Central Daylight Time),1323565.5,B,sky,I,y,407,3,2782.10000000149,1320783.3999999985,8020,WL,C,7.0
6,20.16000008583069,distr,39839.99991416931,Wed Jul 30 2025 10:54:19 GMT-0500 (Central Daylight Time),1324032.0,B,skyenter,I,enter,455,3,3248.60000000149,1320783.3999999985,8020,WL,C,7.0
6,20.89299988746643,distr,39107.00011253357,Wed Jul 30 2025 10:54:19 GMT-0500 (Central Daylight Time),1324765.299999997,B,c,I,c,717,3,733.0,1324032.299999997,8020,WL,C,8.0
6,21.075999975204468,distr,38924.00002479553,Wed Jul 30 2025 10:54:19 GMT-0500 (Central Daylight Time),1324948.299999997,B,ca,I,a,167,3,916.0,1324032.299999997,8020,WL,C,8.0
6,21.608999967575073,distr,38391.00003242493,Wed Jul 30 2025 10:54:19 GMT-0500 (Central Daylight Time),1325481.799999997,B,c,I,backspace,512,3,1449.5,1324032.299999997,8020,WL,C,8.0
6,21.759000062942505,distr,38240.999937057495,Wed Jul 30 2025 10:54:19 GMT-0500 (Central Daylight Time),1325631.599999994,B,,I,backspace,139,3,1599.2999999970198,1324032.299999997,8020,WL,C,8.0
6,21.908999919891357,distr,38091.00008010864,Wed Jul 30 2025 10:54:19 GMT-0500 (Central Daylight Time),1325781.3999999985,B,v,I,v,133,3,1749.1000000014901,1324032.299999997,8020,WL,C,8.0
6,22.20899987220764,distr,37791.00012779236,Wed Jul 30 2025 10:54:19 GMT-0500 (Central Daylight Time),1326081.3999999985,B,va,I,a,288,3,2049.10000000149,1324032.299999997,8020,WL,C,8.0
6,22.57200002670288,distr,37427.99997329712,Wed Jul 30 2025 10:54:19 GMT-0500 (Central Daylight Time),1326444.799999997,B,val,I,l,359,3,2412.5,1324032.299999997,8020,WL,C,8.0
6,22.719000101089478,distr,37280.99989891052,Wed Jul 30 2025 10:54:19 GMT-0500 (Central Daylight Time),1326591.6999999955,B,vall,I,l,141,3,2559.39999999851,1324032.299999997,8020,WL,C,8.0
6,22.795000076293945,distr,37204.999923706055,Wed Jul 30 2025 10:54:19 GMT-0500 (Central Daylight Time),1326667.3999999985,B,valle,I,e,53,3,2635.10000000149,1324032.299999997,8020,WL,C,8.0
6,23.29200005531311,distr,36707.99994468689,Wed Jul 30 2025 10:54:19 GMT-0500 (Central Daylight Time),1327164.5,B,valley,I,y,481,3,3132.2000000029802,1324032.299999997,8020,WL,C,8.0
6,24.14199995994568,distr,35858.00004005432,Wed Jul 30 2025 10:54:19 GMT-0500 (Central Daylight Time),1328014.1999999955,B,valleyenter,I,enter,832,3,3981.89999999851,1324032.299999997,8020,WL,C,8.0
6,28.5239999294281,distr,31476.0000705719,Wed Jul 30 2025 10:54:19 GMT-0500 (Central Daylight Time),1332396.099999994,B,m,I,m,4374,3,4381.5999999940395,1328014.5,8020,WL,C,9.0
6,28.674000024795532,distr,31325.999975204468,Wed Jul 30 2025 10:54:19 GMT-0500 (Central Daylight Time),1332546.099999994,B,mo,I,o,146,3,4531.5999999940395,1328014.5,8020,WL,C,9.0
6,28.85699987411499,distr,31143.00012588501,Wed Jul 30 2025 10:54:19 GMT-0500 (Central Daylight Time),1332729.3999999985,B,mot,I,t,163,3,4714.89999999851,1328014.5,8020,WL,C,9.0
6,29.006999969482422,distr,30993.000030517578,Wed Jul 30 2025 10:54:19 GMT-0500 (Central Daylight Time),1332879.299999997,B,moth,I,h,131,3,4864.79999999702,1328014.5,8020,WL,C,9.0
6,29.122999906539917,distr,30877.000093460083,Wed Jul 30 2025 10:54:19 GMT-0500 (Central Daylight Time),1332995.799999997,B,mothe,I,e,110,3,4981.29999999702,1328014.5,8020,WL,C,9.0
6,29.240000009536743,distr,30759.999990463257,Wed Jul 30 2025 10:54:19 GMT-0500 (Central Daylight Time),1333112.5,B,mother,I,r,105,3,5098.0,1328014.5,8020,WL,C,9.0
6,29.556999921798706,distr,30443.000078201294,Wed Jul 30 2025 10:54:19 GMT-0500 (Central Daylight Time),1333429.0,B,motherenter,I,enter,300,3,5414.5,1328014.5,8020,WL,C,9.0
6,46.276999950408936,distr,13723.000049591064,Wed Jul 30 2025 10:54:19 GMT-0500 (Central Daylight Time),1350149.0,B,u,I,u,16715,3,16719.70000000298,1333429.299999997,8020,WL,C,10.0
6,46.50099992752075,distr,13499.000072479248,Wed Jul 30 2025 10:54:19 GMT-0500 (Central Daylight Time),1350373.599999994,B,ut,I,t,206,3,16944.29999999702,1333429.299999997,8020,WL,C,10.0
6,46.71799993515015,distr,13282.000064849854,Wed Jul 30 2025 10:54:19 GMT-0500 (Central Daylight Time),1350590.299999997,B,utt,I,t,199,3,17161.0,1333429.299999997,8020,WL,C,10.0
6,46.88499999046326,distr,13115.000009536743,Wed Jul 30 2025 10:54:19 GMT-0500 (Central Daylight Time),1350756.8999999985,B,utte,I,e,152,3,17327.60000000149,1333429.299999997,8020,WL,C,10.0
6,47.01799988746643,distr,12982.00011253357,Wed Jul 30 2025 10:54:19 GMT-0500 (Central Daylight Time),1350890.299999997,B,utter,I,r,120,3,17461.0,1333429.299999997,8020,WL,C,10.0
6,48.068000078201294,distr,11931.999921798706,Wed Jul 30 2025 10:54:19 GMT-0500 (Central Daylight Time),1351939.8999999985,B,utte,I,backspace,1042,3,18510.60000000149,1333429.299999997,8020,WL,C,10.0
6,48.25099992752075,distr,11749.000072479248,Wed Jul 30 2025 10:54:19 GMT-0500 (Central Daylight Time),1352123.1999999955,B,utt,I,backspace,169,3,18693.89999999851,1333429.299999997,8020,WL,C,10.0
6,48.401000022888184,distr,11598.999977111816,Wed Jul 30 2025 10:54:19 GMT-0500 (Central Daylight Time),1352273.099999994,B,ut,I,backspace,130,3,18843.79999999702,1333429.299999997,8020,WL,C,10.0
6,48.568000078201294,distr,11431.999921798706,Wed Jul 30 2025 10:54:19 GMT-0500 (Central Daylight Time),1352439.8999999985,B,u,I,backspace,148,3,19010.60000000149,1333429.299999997,8020,WL,C,10.0
6,48.76699995994568,distr,11233.000040054321,Wed Jul 30 2025 10:54:19 GMT-0500 (Central Daylight Time),1352639.599999994,B,,I,backspace,181,3,19210.29999999702,1333429.299999997,8020,WL,C,10.0
6,49.617000102996826,distr,10382.999897003174,Wed Jul 30 2025 10:54:19 GMT-0500 (Central Daylight Time),1353489.599999994,B,b,I,b,829,3,20060.29999999702,1333429.299999997,8020,WL,C,10.0
6,49.799999952316284,distr,10200.000047683716,Wed Jul 30 2025 10:54:19 GMT-0500 (Central Daylight Time),1353672.599999994,B,bu,I,u,163,3,20243.29999999702,1333429.299999997,8020,WL,C,10.0
6,50.09999990463257,distr,9900.000095367432,Wed Jul 30 2025 10:54:19 GMT-0500 (Central Daylight Time),1353972.3999999985,B,but,I,t,292,3,20543.10000000149,1333429.299999997,8020,WL,C,10.0
6,50.26699995994568,distr,9733.000040054321,Wed Jul 30 2025 10:54:19 GMT-0500 (Central Daylight Time),1354139.1999999955,B,butt,I,t,152,3,20709.89999999851,1333429.299999997,8020,WL,C,10.0
6,50.43300008773804,distr,9566.999912261963,Wed Jul 30 2025 10:54:19 GMT-0500 (Central Daylight Time),1354305.6999999955,B,butte,I,e,154,3,20876.39999999851,1333429.299999997,8020,WL,C,10.0
6,50.58299994468689,distr,9417.00005531311,Wed Jul 30 2025 10:54:19 GMT-0500 (Central Daylight Time),1354455.8999999985,B,butter,I,r,139,3,21026.60000000149,1333429.299999997,8020,WL,C,10.0
6,50.967000007629395,distr,9032.999992370605,Wed Jul 30 2025 10:54:19 GMT-0500 (Central Daylight Time),1354839.1999999955,B,butterenter,I,enter,365,3,21409.89999999851,1333429.299999997,8020,WL,C,10.0
6,60.013999938964844,distr,-13.99993896484375,Wed Jul 30 2025 10:54:19 GMT-0500 (Central Daylight Time),1363886.1999999955,B,None,I,None,9043,3,9046.79999999702,1354839.3999999985,8020,WL,C,11.0
7,10.013999938964844,immed,49986.000061035156,Wed Jul 30 2025 10:54:19 GMT-0500 (Central Daylight Time),1376632.0,A,t,I,t,9995,3,10013.20000000298,1366618.799999997,8020,WL,C,1.0
7,10.480999946594238,immed,49519.00005340576,Wed Jul 30 2025 10:54:19 GMT-0500 (Central Daylight Time),1377098.8999999985,A,to,I,o,452,3,10480.10000000149,1366618.799999997,8020,WL,C,1.0
7,10.712999820709229,immed,49287.00017929077,Wed Jul 30 2025 10:54:19 GMT-0500 (Central Daylight Time),1377331.799999997,A,tow,I,w,226,3,10713.0,1366618.799999997,8020,WL,C,1.0
7,10.812999963760376,immed,49187.000036239624,Wed Jul 30 2025 10:54:19 GMT-0500 (Central Daylight Time),1377431.8999999985,A,towe,I,e,89,3,10813.10000000149,1366618.799999997,8020,WL,C,1.0
7,10.96399998664856,immed,49036.00001335144,Wed Jul 30 2025 10:54:19 GMT-0500 (Central Daylight Time),1377582.1999999955,A,tower,I,r,134,3,10963.39999999851,1366618.799999997,8020,WL,C,1.0
7,11.496999979019165,immed,48503.000020980835,Wed Jul 30 2025 10:54:19 GMT-0500 (Central Daylight Time),1378115.099999994,A,towerenter,I,enter,519,3,11496.29999999702,1366618.799999997,8020,WL,C,1.0
7,12.379999876022339,immed,47620.00012397766,Wed Jul 30 2025 10:54:19 GMT-0500 (Central Daylight Time),1378998.099999994,A,w,I,w,865,3,882.6999999955297,1378115.3999999985,8020,WL,C,2.0
7,12.52999997138977,immed,47470.00002861023,Wed Jul 30 2025 10:54:19 GMT-0500 (Central Daylight Time),1379148.0,A,wh,I,h,134,3,1032.6000000014901,1378115.3999999985,8020,WL,C,2.0
7,12.779000043869019,immed,47220.99995613098,Wed Jul 30 2025 10:54:19 GMT-0500 (Central Daylight Time),1379397.8999999985,A,whe,I,e,233,3,1282.5,1378115.3999999985,8020,WL,C,2.0
7,12.928999900817871,immed,47071.00009918213,Wed Jul 30 2025 10:54:19 GMT-0500 (Central Daylight Time),1379547.799999997,A,whea,I,a,135,3,1432.3999999985099,1378115.3999999985,8020,WL,C,2.0
7,13.095999956130981,immed,46904.00004386902,Wed Jul 30 2025 10:54:19 GMT-0500 (Central Daylight Time),1379714.299999997,A,wheat,I,t,161,3,1598.8999999985099,1378115.3999999985,8020,WL,C,2.0
7,13.92799997329712,immed,46072.00002670288,Wed Jul 30 2025 10:54:19 GMT-0500 (Central Daylight Time),1380547.5,A,wheatenter,I,enter,826,3,2432.10000000149,1378115.3999999985,8020,WL,C,2.0
7,15.67799997329712,immed,44322.00002670288,Wed Jul 30 2025 10:54:19 GMT-0500 (Central Daylight Time),1382297.5,A,q,I,q,1729,3,1749.6000000014901,1380547.8999999985,8020,WL,C,3.0
7,15.944000005722046,immed,44055.999994277954,Wed Jul 30 2025 10:54:19 GMT-0500 (Central Daylight Time),1382563.5,A,qu,I,u,259,3,2015.6000000014901,1380547.8999999985,8020,WL,C,3.0
7,16.22699999809265,immed,43773.00000190735,Wed Jul 30 2025 10:54:19 GMT-0500 (Central Daylight Time),1382846.8999999985,A,que,I,e,266,3,2299.0,1380547.8999999985,8020,WL,C,3.0
7,16.393999814987183,immed,43606.00018501282,Wed Jul 30 2025 10:54:19 GMT-0500 (Central Daylight Time),1383013.599999994,A,quee,I,e,158,3,2465.6999999955297,1380547.8999999985,8020,WL,C,3.0
7,16.526999950408936,immed,43473.000049591064,Wed Jul 30 2025 10:54:19 GMT-0500 (Central Daylight Time),1383146.6999999955,A,queen,I,n,119,3,2598.7999999970198,1380547.8999999985,8020,WL,C,3.0
7,17.40999984741211,immed,42590.00015258789,Wed Jul 30 2025 10:54:19 GMT-0500 (Central Daylight Time),1384029.799999997,A,queenenter,I,enter,866,3,3481.89999999851,1380547.8999999985,8020,WL,C,3.0
7,18.243000030517578,immed,41756.99996948242,Wed Jul 30 2025 10:54:19 GMT-0500 (Central Daylight Time),1384862.799999997,A,h,I,h,815,3,832.7000000029802,1384030.099999994,8020,WL,C,4.0
7,18.359999895095825,immed,41640.000104904175,Wed Jul 30 2025 10:54:19 GMT-0500 (Central Daylight Time),1384979.299999997,A,ho,I,o,110,3,949.2000000029802,1384030.099999994,8020,WL,C,4.0
7,18.575999975204468,immed,41424.00002479553,Wed Jul 30 2025 10:54:19 GMT-0500 (Central Daylight Time),1385196.0,A,hom,I,m,201,3,1165.9000000059605,1384030.099999994,8020,WL,C,4.0
7,18.842999935150146,immed,41157.00006484985,Wed Jul 30 2025 10:54:19 GMT-0500 (Central Daylight Time),1385462.599999994,A,home,I,e,257,3,1432.5,1384030.099999994,8020,WL,C,4.0
7,19.54199981689453,immed,40458.00018310547,Wed Jul 30 2025 10:54:19 GMT-0500 (Central Daylight Time),1386162.099999994,A,homeenter,I,enter,694,3,2132.0,1384030.099999994,8020,WL,C,4.0
7,20.342999935150146,immed,39657.00006484985,Wed Jul 30 2025 10:54:19 GMT-0500 (Central Daylight Time),1386962.299999997,A,b,I,b,787,3,800.0,1386162.299999997,8020,WL,C,5.0
7,20.408999919891357,immed,39591.00008010864,Wed Jul 30 2025 10:54:19 GMT-0500 (Central Daylight Time),1387029.0,A,bo,I,o,58,3,866.7000000029802,1386162.299999997,8020,WL,C,5.0
7,20.759999990463257,immed,39240.00000953674,Wed Jul 30 2025 10:54:19 GMT-0500 (Central Daylight Time),1387379.6999999955,A,boy,I,y,345,3,1217.3999999985099,1386162.299999997,8020,WL,C,5.0
7,21.325999975204468,immed,38674.00002479553,Wed Jul 30 2025 10:54:19 GMT-0500 (Central Daylight Time),1387945.3999999985,A,boyenter,I,enter,553,3,1783.1000000014901,1386162.299999997,8020,WL,C,5.0
7,22.89199995994568,immed,37108.00004005432,Wed Jul 30 2025 10:54:19 GMT-0500 (Central Daylight Time),1389511.299999997,A,n,I,n,1547,3,1565.7000000029802,1387945.599999994,8020,WL,C,6.0
7,23.075000047683716,immed,36924.999952316284,Wed Jul 30 2025 10:54:19 GMT-0500 (Central Daylight Time),1389694.6999999955,A,na,I,a,173,3,1749.1000000014901,1387945.599999994,8020,WL,C,6.0
7,23.175999879837036,immed,36824.000120162964,Wed Jul 30 2025 10:54:19 GMT-0500 (Central Daylight Time),1389795.599999994,A,nai,I,i,93,3,1850.0,1387945.599999994,8020,WL,C,6.0
7,23.407999992370605,immed,36592.000007629395,Wed Jul 30 2025 10:54:19 GMT-0500 (Central Daylight Time),1390027.6999999955,A,nail,I,l,217,3,2082.10000000149,1387945.599999994,8020,WL,C,6.0
7,23.95799994468689,immed,36042.00005531311,Wed Jul 30 2025 10:54:19 GMT-0500 (Central Daylight Time),1390577.8999999985,A,nailenter,I,enter,530,3,2632.3000000044703,1387945.599999994,8020,WL,C,6.0
7,31.721999883651733,immed,28278.000116348267,Wed Jul 30 2025 10:54:19 GMT-0500 (Central Daylight Time),1398341.799999997,A,c,I,c,7756,3,7763.60000000149,1390578.1999999955,8020,WL,C,7.0
7,31.871999979019165,immed,28128.000020980835,Wed Jul 30 2025 10:54:19 GMT-0500 (Central Daylight Time),1398491.799999997,A,ca,I,a,134,3,7913.60000000149,1390578.1999999955,8020,WL,C,7.0
7,32.15599989891052,immed,27844.000101089478,Wed Jul 30 2025 10:54:19 GMT-0500 (Central Daylight Time),1398775.099999994,A,cal,I,l,273,3,8196.89999999851,1390578.1999999955,8020,WL,C,7.0
7,32.621999979019165,immed,27378.000020980835,Wed Jul 30 2025 10:54:19 GMT-0500 (Central Daylight Time),1399241.8999999985,A,ca,I,backspace,446,3,8663.70000000298,1390578.1999999955,8020,WL,C,7.0
7,34.02199983596802,immed,25978.000164031982,Wed Jul 30 2025 10:54:19 GMT-0500 (Central Daylight Time),1400641.299999997,A,cat,I,t,1387,3,10063.10000000149,1390578.1999999955,8020,WL,C,7.0
7,34.1710000038147,immed,25828.999996185303,Wed Jul 30 2025 10:54:19 GMT-0500 (Central Daylight Time),1400791.099999994,A,catt,I,t,140,3,10212.89999999851,1390578.1999999955,8020,WL,C,7.0
7,34.38800001144409,immed,25611.99998855591,Wed Jul 30 2025 10:54:19 GMT-0500 (Central Daylight Time),1401007.799999997,A,cattl,I,l,206,3,10429.60000000149,1390578.1999999955,8020,WL,C,7.0
7,34.47199988365173,immed,25528.000116348267,Wed Jul 30 2025 10:54:19 GMT-0500 (Central Daylight Time),1401092.0,A,cattle,I,e,77,3,10513.80000000447,1390578.1999999955,8020,WL,C,7.0
7,35.4210000038147,immed,24578.999996185303,Wed Jul 30 2025 10:54:19 GMT-0500 (Central Daylight Time),1402040.6999999955,A,cattleenter,I,enter,929,3,11462.5,1390578.1999999955,8020,WL,C,7.0
7,40.419999837875366,immed,19580.000162124634,Wed Jul 30 2025 10:54:19 GMT-0500 (Central Daylight Time),1407039.3999999985,A,c,I,c,4980,3,4998.39999999851,1402041.0,8020,WL,C,8.0
7,40.55299997329712,immed,19447.00002670288,Wed Jul 30 2025 10:54:19 GMT-0500 (Central Daylight Time),1407172.599999994,A,ca,I,a,117,3,5131.5999999940395,1402041.0,8020,WL,C,8.0
7,40.7189998626709,immed,19281.0001373291,Wed Jul 30 2025 10:54:19 GMT-0500 (Central Daylight Time),1407339.1999999955,A,cam,I,m,160,3,5298.19999999553,1402041.0,8020,WL,C,8.0
7,41.05299997329712,immed,18947.00002670288,Wed Jul 30 2025 10:54:19 GMT-0500 (Central Daylight Time),1407672.299999997,A,camp,I,p,322,3,5631.29999999702,1402041.0,8020,WL,C,8.0
7,41.55299997329712,immed,18447.00002670288,Wed Jul 30 2025 10:54:19 GMT-0500 (Central Daylight Time),1408172.299999997,A,campenter,I,enter,484,3,6131.29999999702,1402041.0,8020,WL,C,8.0
7,42.251999855041504,immed,17748.000144958496,Wed Jul 30 2025 10:54:19 GMT-0500 (Central Daylight Time),1408871.8999999985,A,f,I,f,680,3,699.1000000014901,1408172.799999997,8020,WL,C,9.0
7,42.901999950408936,immed,17098.000049591064,Wed Jul 30 2025 10:54:19 GMT-0500 (Central Daylight Time),1409521.6999999955,A,fl,I,l,636,3,1348.8999999985099,1408172.799999997,8020,WL,C,9.0
7,43.10199999809265,immed,16898.00000190735,Wed Jul 30 2025 10:54:19 GMT-0500 (Central Daylight Time),1409721.599999994,A,fla,I,a,195,3,1548.7999999970198,1408172.799999997,8020,WL,C,9.0
7,43.33500003814697,immed,16664.999961853027,Wed Jul 30 2025 10:54:19 GMT-0500 (Central Daylight Time),1409955.0,A,flag,I,g,227,3,1782.2000000029802,1408172.799999997,8020,WL,C,9.0
7,43.91799998283386,immed,16082.000017166138,Wed Jul 30 2025 10:54:19 GMT-0500 (Central Daylight Time),1410537.8999999985,A,flagenter,I,enter,578,3,2365.10000000149,1408172.799999997,8020,WL,C,9.0
7,48.68400001525879,immed,11315.999984741211,Wed Jul 30 2025 10:54:19 GMT-0500 (Central Daylight Time),1415303.3999999985,A,b,I,b,4747,3,4765.20000000298,1410538.1999999955,8020,WL,C,10.0
7,48.76799988746643,immed,11232.00011253357,Wed Jul 30 2025 10:54:19 GMT-0500 (Central Daylight Time),1415387.6999999955,A,bo,I,o,77,3,4849.5,1410538.1999999955,8020,WL,C,10.0
7,49.64999985694885,immed,10350.000143051147,Wed Jul 30 2025 10:54:19 GMT-0500 (Central Daylight Time),1416269.799999997,A,bod,I,d,865,3,5731.60000000149,1410538.1999999955,8020,WL,C,10.0
7,49.882999897003174,immed,10117.000102996826,Wed Jul 30 2025 10:54:19 GMT-0500 (Central Daylight Time),1416502.8999999985,A,body,I,y,223,3,5964.70000000298,1410538.1999999955,8020,WL,C,10.0
7,51.18400001525879,immed,8815.999984741211,Wed Jul 30 2025 10:54:19 GMT-0500 (Central Daylight Time),1417803.3999999985,A,bodyenter,I,enter,1294,3,7265.20000000298,1410538.1999999955,8020,WL,C,10.0
7,58.664000034332275,immed,1335.9999656677246,Wed Jul 30 2025 10:54:19 GMT-0500 (Central Daylight Time),1425283.5,A,c,I,c,7466,3,7479.80000000447,1417803.6999999955,8020,WL,C,11.0
7,58.79699993133545,immed,1203.0000686645508,Wed Jul 30 2025 10:54:19 GMT-0500 (Central Daylight Time),1425416.799999997,A,co,I,o,113,3,7613.10000000149,1417803.6999999955,8020,WL,C,11.0
7,59.09699988365173,immed,903.0001163482666,Wed Jul 30 2025 10:54:19 GMT-0500 (Central Daylight Time),1425716.6999999955,A,cor,I,r,292,3,7913.0,1417803.6999999955,8020,WL,C,11.0
7,59.37999987602234,immed,620.0001239776611,Wed Jul 30 2025 10:54:19 GMT-0500 (Central Daylight Time),1425999.8999999985,A,corn,I,n,264,3,8196.20000000298,1417803.6999999955,8020,WL,C,11.0
7,59.746999979019165,immed,253.00002098083496,Wed Jul 30 2025 10:54:19 GMT-0500 (Central Daylight Time),1426366.599999994,A,cornenter,I,enter,357,3,8562.89999999851,1417803.6999999955,8020,WL,C,11.0
7,60.013999938964844,immed,-13.99993896484375,Wed Jul 30 2025 10:54:19 GMT-0500 (Central Daylight Time),1426633.099999994,A,None,I,None,262,3,266.19999999552965,1426366.8999999985,8020,WL,C,12.0
