Q,Q1,Q2,Q3,Q4,acc_sum,block,block_c,correct,correct_response,datetime,endtime,project,response,response_time,row_sel,session_number,squiggle1,squiggle1x,squiggle1y,squiggle2,squiggle2x,squiggle2y,squiggle3,squiggle3x,squiggle3y,squiggle4,squiggle4x,squiggle4y,start_end,starttime,subject_id,target_congruent,task,task_vers,testsquiggle,testsquigglex,testsquiggley,time_practice_delay,time_practice_fixation,time_practice_stimuli,time_practice_study,time_test_delay,time_test_fixation,time_test_stimuli,time_test_study,trial
1,1,0,0,0,0,prac,1,0,z,Mon Aug 25 2025 12:23:51 GMT-0400 (Eastern Daylight Time),138369.0,I,None,2016,1,2,66.bmp,-120,-120,67.bmp,120,-120,68.bmp,-120,120,69.bmp,120,120,10826.0,127543.0,9021,yes,SM,C,66.bmp,-120,-120,131026,125000,133043,127010,,,,,1
3,0,0,1,0,1,prac,1,1,m,Mon Aug 25 2025 12:23:51 GMT-0400 (Eastern Daylight Time),148285.59999990463,I,m,1098,2,2,70.bmp,-120,-120,71.bmp,120,-120,72.bmp,-120,120,73.bmp,120,120,9906.89999961853,138378.7000002861,9021,no,SM,C,73.bmp,-120,120,141859,135836,143876,137843,,,,,2
4,0,0,0,1,2,prac,1,1,m,Mon Aug 25 2025 12:23:51 GMT-0400 (Eastern Daylight Time),158235.59999990463,I,m,1119,3,2,74.bmp,-120,-120,75.bmp,120,-120,76.bmp,-120,120,77.bmp,120,120,9940.0,148295.59999990463,9021,no,SM,C,74.bmp,120,120,151776,145753,153793,147760,,,,,3
2,0,1,0,0,2,prac,1,0,z,Mon Aug 25 2025 12:23:51 GMT-0400 (Eastern Daylight Time),169068.7000002861,I,None,2016,4,2,78.bmp,-120,-120,79.bmp,120,-120,80.bmp,-120,120,81.bmp,120,120,10825.5,158243.2000002861,9021,yes,SM,C,79.bmp,120,-120,161726,155701,163743,157710,,,,,4
3,0,0,1,0,3,prac,1,1,z,Mon Aug 25 2025 12:23:51 GMT-0400 (Eastern Daylight Time),179451.90000009537,I,z,1551,5,2,82.bmp,-120,-120,83.bmp,120,-120,84.bmp,-120,120,85.bmp,120,120,10374.400000095367,169077.5,9021,yes,SM,C,84.bmp,-120,120,172559,166535,174576,168543,,,,,5
1,1,0,0,0,3,prac,1,0,m,Mon Aug 25 2025 12:23:51 GMT-0400 (Eastern Daylight Time),189502.2000002861,I,z,1216,6,2,86.bmp,-120,-120,87.bmp,120,-120,88.bmp,-120,120,89.bmp,120,120,10041.800000190735,179460.40000009537,9021,no,SM,C,89.bmp,-120,-120,182943,176918,184960,178926,,,,,6
2,0,1,0,0,4,prac,1,1,m,Mon Aug 25 2025 12:23:51 GMT-0400 (Eastern Daylight Time),199852.09999990463,I,m,1518,7,2,90.bmp,-120,-120,91.bmp,120,-120,92.bmp,-120,120,93.bmp,120,120,10341.39999961853,189510.7000002861,9021,no,SM,C,90.bmp,120,-120,192993,186968,195010,188977,,,,,7
4,0,0,0,1,4,prac,1,0,z,Mon Aug 25 2025 12:23:51 GMT-0400 (Eastern Daylight Time),210685.40000009537,I,None,2016,8,2,94.bmp,-120,-120,95.bmp,120,-120,96.bmp,-120,120,97.bmp,120,120,10825.300000190735,199860.09999990463,9021,yes,SM,C,97.bmp,120,120,203343,197317,205360,199326,,,,,8
1,1,0,0,0,1,prac,2,1,z,Mon Aug 25 2025 12:23:51 GMT-0400 (Eastern Daylight Time),230702.2000002861,I,z,1481,1,2,66.bmp,-120,-120,67.bmp,120,-120,68.bmp,-120,120,69.bmp,120,120,10286.0,220416.2000002861,9021,yes,SM,C,66.bmp,-120,-120,223893,217873,225910,219876,,,,,1
3,0,0,1,0,2,prac,2,1,m,Mon Aug 25 2025 12:23:51 GMT-0400 (Eastern Daylight Time),240835.40000009537,I,m,1309,2,2,70.bmp,-120,-120,71.bmp,120,-120,72.bmp,-120,120,73.bmp,120,120,10124.5,230710.90000009537,9021,no,SM,C,73.bmp,-120,120,234193,228168,236210,230176,,,,,2
4,0,0,0,1,2,prac,2,0,m,Mon Aug 25 2025 12:23:51 GMT-0400 (Eastern Daylight Time),251668.0,I,None,2016,3,2,74.bmp,-120,-120,75.bmp,120,-120,76.bmp,-120,120,77.bmp,120,120,10822.0,240846.0,9021,no,SM,C,74.bmp,120,120,244326,238303,246343,240310,,,,,3
2,0,1,0,0,3,prac,2,1,z,Mon Aug 25 2025 12:23:51 GMT-0400 (Eastern Daylight Time),262485.59999990463,I,z,1991,4,2,78.bmp,-120,-120,79.bmp,120,-120,80.bmp,-120,120,81.bmp,120,120,10813.099999904633,251672.5,9021,yes,SM,C,79.bmp,120,-120,255159,249130,257177,251143,,,,,4
3,0,0,1,0,4,prac,2,1,z,Mon Aug 25 2025 12:23:51 GMT-0400 (Eastern Daylight Time),272619.0,I,z,1303,5,2,82.bmp,-120,-120,83.bmp,120,-120,84.bmp,-120,120,85.bmp,120,120,10126.699999809265,262492.30000019073,9021,yes,SM,C,84.bmp,-120,120,265976,259950,267993,261960,,,,,5
1,1,0,0,0,5,prac,2,1,m,Mon Aug 25 2025 12:23:51 GMT-0400 (Eastern Daylight Time),283352.30000019073,I,m,1906,6,2,86.bmp,-120,-120,87.bmp,120,-120,88.bmp,-120,120,89.bmp,120,120,10723.900000095367,272628.40000009537,9021,no,SM,C,89.bmp,-120,-120,276109,270086,278126,272093,,,,,6
2,0,1,0,0,6,prac,2,1,m,Mon Aug 25 2025 12:23:51 GMT-0400 (Eastern Daylight Time),293385.7000002861,I,m,1204,7,2,90.bmp,-120,-120,91.bmp,120,-120,92.bmp,-120,120,93.bmp,120,120,10025.300000190735,283360.40000009537,9021,no,SM,C,90.bmp,120,-120,286843,280818,288860,282826,,,,,7
4,0,0,0,1,6,prac,2,0,z,Mon Aug 25 2025 12:23:51 GMT-0400 (Eastern Daylight Time),303885.09999990463,I,m,1667,8,2,94.bmp,-120,-120,95.bmp,120,-120,96.bmp,-120,120,97.bmp,120,120,10491.5,293393.59999990463,9021,yes,SM,C,97.bmp,120,120,296876,290851,298893,292860,,,,,8
4,0,0,0,1,1,test,1,1,m,Mon Aug 25 2025 12:23:51 GMT-0400 (Eastern Daylight Time),329919.0,I,m,1717,1,2,98.bmp,-120,-120,99.bmp,120,-120,100.bmp,-120,120,93.bmp,120,120,9775.799999713898,320143.2000002861,9021,yes,SM,C,100.bmp,120,120,296876,290851,298893,292860,323626.0,317600.0,325643.0,319610.0,1
2,0,1,0,0,2,test,1,1,m,Mon Aug 25 2025 12:23:51 GMT-0400 (Eastern Daylight Time),339235.59999990463,I,m,1261,2,2,51.bmp,-120,-120,52.bmp,120,-120,53.bmp,-120,120,54.bmp,120,120,9309.099999904633,329926.5,9021,yes,SM,C,53.bmp,120,-120,296876,290851,298893,292860,333409.0,327384.0,335426.0,329393.0,2
1,1,0,0,0,2,test,1,0,z,Mon Aug 25 2025 12:23:51 GMT-0400 (Eastern Daylight Time),349302.30000019073,I,None,2016,3,2,55.bmp,-120,-120,56.bmp,120,-120,57.bmp,-120,120,58.bmp,120,120,10056.900000095367,339245.40000009537,9021,yes,SM,C,55.bmp,-120,-120,296876,290851,298893,292860,342726.0,336703.0,344743.0,338710.0,3
3,0,0,1,0,3,test,1,1,m,Mon Aug 25 2025 12:23:51 GMT-0400 (Eastern Daylight Time),359252.30000019073,I,m,1894,4,2,59.bmp,-120,-120,60.bmp,120,-120,61.bmp,-120,120,62.bmp,120,120,9940.300000190735,349312.0,9021,yes,SM,C,59.bmp,-120,120,296876,290851,298893,292860,352793.0,346769.0,354810.0,348776.0,4
2,0,1,0,0,3,test,1,0,z,Mon Aug 25 2025 12:23:51 GMT-0400 (Eastern Daylight Time),369318.90000009537,I,None,2016,5,2,63.bmp,-120,-120,64.bmp,120,-120,65.bmp,-120,120,66.bmp,120,120,10059.800000190735,359259.09999990463,9021,yes,SM,C,64.bmp,120,-120,296876,290851,298893,292860,362743.0,356716.0,364760.0,358726.0,5
3,0,0,1,0,4,test,1,1,z,Mon Aug 25 2025 12:23:51 GMT-0400 (Eastern Daylight Time),379235.5,I,z,1861,6,2,67.bmp,-120,-120,68.bmp,120,-120,69.bmp,-120,120,70.bmp,120,120,9909.199999809265,369326.30000019073,9021,yes,SM,C,69.bmp,-120,120,296876,290851,298893,292860,372809.0,366784.0,374827.0,368793.0,6
4,0,0,0,1,5,test,1,1,z,Mon Aug 25 2025 12:23:51 GMT-0400 (Eastern Daylight Time),389153.09999990463,I,z,1881,7,2,71.bmp,-120,-120,72.bmp,120,-120,73.bmp,-120,120,74.bmp,120,120,9908.5,379244.59999990463,9021,yes,SM,C,74.bmp,120,120,296876,290851,298893,292860,382726.0,376702.0,384727.0,378710.0,7
2,0,1,0,0,6,test,1,1,m,Mon Aug 25 2025 12:23:51 GMT-0400 (Eastern Daylight Time),398885.40000009537,I,m,1676,8,2,75.bmp,-120,-120,76.bmp,120,-120,77.bmp,-120,120,78.bmp,120,120,9723.400000095367,389162.0,9021,yes,SM,C,75.bmp,120,-120,296876,290851,298893,292860,392643.0,386619.0,394660.0,388627.0,8
3,0,0,1,0,7,test,1,1,m,Mon Aug 25 2025 12:23:51 GMT-0400 (Eastern Daylight Time),408285.40000009537,I,m,1335,9,2,79.bmp,-120,-120,80.bmp,120,-120,81.bmp,-120,120,82.bmp,120,120,9392.800000190735,398892.59999990463,9021,yes,SM,C,80.bmp,-120,120,296876,290851,298893,292860,402376.0,396350.0,404393.0,398360.0,9
4,0,0,0,1,8,test,1,1,z,Mon Aug 25 2025 12:23:51 GMT-0400 (Eastern Daylight Time),418152.2000002861,I,z,1807,10,2,87.bmp,-120,-120,88.bmp,120,-120,89.bmp,-120,120,90.bmp,120,120,9859.900000095367,408292.30000019073,9021,yes,SM,C,90.bmp,120,120,296876,290851,298893,292860,411776.0,405750.0,413793.0,407760.0,10
3,0,0,1,0,8,test,1,0,z,Mon Aug 25 2025 12:23:51 GMT-0400 (Eastern Daylight Time),428218.90000009537,I,None,2016,11,2,83.bmp,-120,-120,84.bmp,120,-120,85.bmp,-120,120,86.bmp,120,120,10059.199999809265,418159.7000002861,9021,yes,SM,C,85.bmp,-120,120,296876,290851,298893,292860,421643.0,415617.0,423660.0,417627.0,11
2,0,1,0,0,9,test,1,1,m,Mon Aug 25 2025 12:23:51 GMT-0400 (Eastern Daylight Time),437535.30000019073,I,m,1266,12,2,91.bmp,-120,-120,92.bmp,120,-120,93.bmp,-120,120,94.bmp,120,120,9301.5,428233.80000019073,9021,yes,SM,C,91.bmp,120,-120,296876,290851,298893,292860,431710.0,425691.0,433726.0,427693.0,12
3,0,0,1,0,10,test,1,1,m,Mon Aug 25 2025 12:23:51 GMT-0400 (Eastern Daylight Time),446852.2000002861,I,m,1261,13,2,95.bmp,-120,-120,96.bmp,120,-120,97.bmp,-120,120,98.bmp,120,120,9308.400000095367,437543.80000019073,9021,yes,SM,C,96.bmp,-120,120,296876,290851,298893,292860,441026.0,435001.0,443043.0,437010.0,13
1,1,0,0,0,10,test,1,0,z,Mon Aug 25 2025 12:23:51 GMT-0400 (Eastern Daylight Time),456218.90000009537,I,m,1304,14,2,99.bmp,-120,-120,100.bmp,120,-120,54.bmp,-120,120,51.bmp,120,120,9358.800000190735,446860.09999990463,9021,yes,SM,C,99.bmp,-120,-120,296876,290851,298893,292860,450343.0,444317.0,452360.0,446327.0,14
4,0,0,0,1,10,test,1,0,m,Mon Aug 25 2025 12:23:51 GMT-0400 (Eastern Daylight Time),466285.7000002861,I,None,2016,15,2,60.bmp,-120,-120,61.bmp,120,-120,62.bmp,-120,120,63.bmp,120,120,10059.400000095367,456226.30000019073,9021,yes,SM,C,61.bmp,120,120,296876,290851,298893,292860,459710.0,453683.0,461727.0,455693.0,15
1,1,0,0,0,11,test,1,1,m,Mon Aug 25 2025 12:23:51 GMT-0400 (Eastern Daylight Time),475885.30000019073,I,m,1534,16,2,52.bmp,-120,-120,53.bmp,120,-120,54.bmp,-120,120,55.bmp,120,120,9590.5,466294.80000019073,9021,yes,SM,C,55.bmp,-120,-120,296876,290851,298893,292860,469776.0,463752.0,471793.0,465760.0,16
3,0,0,1,0,12,test,1,1,m,Mon Aug 25 2025 12:23:51 GMT-0400 (Eastern Daylight Time),485468.90000009537,I,m,1519,17,2,72.bmp,-120,-120,73.bmp,120,-120,74.bmp,-120,120,75.bmp,120,120,9577.5,475891.40000009537,9021,yes,SM,C,72.bmp,-120,120,296876,290851,298893,292860,479376.0,473349.0,481393.0,475360.0,17
1,1,0,0,0,12,test,1,0,z,Mon Aug 25 2025 12:23:51 GMT-0400 (Eastern Daylight Time),495535.7000002861,I,None,2016,18,2,56.bmp,-120,-120,57.bmp,120,-120,58.bmp,-120,120,59.bmp,120,120,10059.5,485476.2000002861,9021,yes,SM,C,56.bmp,-120,-120,296876,290851,298893,292860,488960.0,482933.0,490977.0,484943.0,18
2,0,1,0,0,13,test,1,1,z,Mon Aug 25 2025 12:23:51 GMT-0400 (Eastern Daylight Time),505585.5,I,z,1997,19,2,76.bmp,-120,-120,77.bmp,120,-120,78.bmp,-120,120,79.bmp,120,120,10035.900000095367,495549.59999990463,9021,yes,SM,C,77.bmp,120,-120,296876,290851,298893,292860,499026.0,493007.0,501043.0,495010.0,19
3,0,0,1,0,14,test,1,1,z,Mon Aug 25 2025 12:23:51 GMT-0400 (Eastern Daylight Time),515035.59999990463,I,z,1386,20,2,80.bmp,-120,-120,81.bmp,120,-120,82.bmp,-120,120,83.bmp,120,120,9442.39999961853,505593.2000002861,9021,yes,SM,C,82.bmp,-120,120,296876,290851,298893,292860,509076.0,503050.0,511094.0,505060.0,20
1,1,0,0,0,15,test,1,1,m,Mon Aug 25 2025 12:23:51 GMT-0400 (Eastern Daylight Time),524618.9000000954,I,m,1536,21,2,64.bmp,-120,-120,65.bmp,120,-120,66.bmp,-120,120,67.bmp,120,120,9572.900000095367,515046.0,9021,yes,SM,C,66.bmp,-120,-120,296876,290851,298893,292860,518526.0,512504.0,520528.0,514510.0,21
4,0,0,0,1,15,test,1,0,z,Mon Aug 25 2025 12:23:51 GMT-0400 (Eastern Daylight Time),534685.8000001907,I,None,2016,22,2,68.bmp,-120,-120,69.bmp,120,-120,70.bmp,-120,120,71.bmp,120,120,10060.400000095367,524625.4000000954,9021,yes,SM,C,71.bmp,120,120,296876,290851,298893,292860,528110.0,522083.0,530127.0,524093.0,22
1,1,0,0,0,16,test,1,1,m,Mon Aug 25 2025 12:23:51 GMT-0400 (Eastern Daylight Time),544135.5,I,m,1391,23,2,84.bmp,-120,-120,85.bmp,120,-120,86.bmp,-120,120,87.bmp,120,120,9442.5,534693.0,9021,yes,SM,C,87.bmp,-120,-120,296876,290851,298893,292860,538176.0,532150.0,540193.0,534160.0,23
2,0,1,0,0,16,test,1,0,z,Mon Aug 25 2025 12:23:51 GMT-0400 (Eastern Daylight Time),554202.3000001907,I,None,2016,24,2,92.bmp,-120,-120,93.bmp,120,-120,94.bmp,-120,120,95.bmp,120,120,10056.700000286102,544145.5999999046,9021,yes,SM,C,93.bmp,120,-120,296876,290851,298893,292860,547626.0,541603.0,549643.0,543610.0,24
4,0,0,0,1,16,test,1,0,m,Mon Aug 25 2025 12:23:51 GMT-0400 (Eastern Daylight Time),564269.0999999046,I,None,2016,25,2,96.bmp,-120,-120,97.bmp,120,-120,98.bmp,-120,120,99.bmp,120,120,10060.0,554209.0999999046,9021,yes,SM,C,98.bmp,120,120,296876,290851,298893,292860,557693.0,551666.0,559710.0,553676.0,25
1,1,0,0,0,17,test,1,1,z,Mon Aug 25 2025 12:23:51 GMT-0400 (Eastern Daylight Time),573902.4000000954,I,z,1568,26,2,88.bmp,-120,-120,89.bmp,120,-120,90.bmp,-120,120,91.bmp,120,120,9626.0,564276.4000000954,9021,yes,SM,C,88.bmp,-120,-120,296876,290851,298893,292860,567759.0,561734.0,569776.0,563743.0,26
4,0,0,0,1,18,test,1,1,z,Mon Aug 25 2025 12:23:51 GMT-0400 (Eastern Daylight Time),583552.0,I,z,1598,27,2,100.bmp,-120,-120,61.bmp,120,-120,51.bmp,-120,120,52.bmp,120,120,9641.799999713898,573910.2000002861,9021,yes,SM,C,52.bmp,120,120,296876,290851,298893,292860,577393.0,571367.0,579410.0,573377.0,27
3,0,0,1,0,18,test,1,0,m,Mon Aug 25 2025 12:23:51 GMT-0400 (Eastern Daylight Time),593452.3000001907,I,z,1836,28,2,53.bmp,-120,-120,54.bmp,120,-120,55.bmp,-120,120,56.bmp,120,120,9891.599999904633,583560.7000002861,9021,yes,SM,C,53.bmp,-120,120,296876,290851,298893,292860,587043.0,581018.0,589060.0,583027.0,28
2,0,1,0,0,19,test,1,1,z,Mon Aug 25 2025 12:23:51 GMT-0400 (Eastern Daylight Time),603485.5,I,z,1968,29,2,57.bmp,-120,-120,58.bmp,120,-120,59.bmp,-120,120,60.bmp,120,120,10022.5,593463.0,9021,yes,SM,C,58.bmp,120,-120,296876,290851,298893,292860,596943.0,590920.0,598960.0,592927.0,29
3,0,0,1,0,20,test,1,1,z,Mon Aug 25 2025 12:23:51 GMT-0400 (Eastern Daylight Time),613418.9000000954,I,z,1872,30,2,61.bmp,-120,-120,62.bmp,120,-120,63.bmp,-120,120,64.bmp,120,120,9926.300000190735,603492.5999999046,9021,yes,SM,C,63.bmp,-120,120,296876,290851,298893,292860,606976.0,600950.0,608992.0,602960.0,30
1,1,0,0,0,21,test,1,1,z,Mon Aug 25 2025 12:23:51 GMT-0400 (Eastern Daylight Time),623068.9000000954,I,z,1585,31,2,65.bmp,-120,-120,66.bmp,120,-120,67.bmp,-120,120,68.bmp,120,120,9642.0,613426.9000000954,9021,yes,SM,C,65.bmp,-120,-120,296876,290851,298893,292860,616909.0,610884.0,618926.0,612893.0,31
2,0,1,0,0,22,test,1,1,m,Mon Aug 25 2025 12:23:51 GMT-0400 (Eastern Daylight Time),632402.4000000954,I,m,1279,32,2,69.bmp,-120,-120,70.bmp,120,-120,71.bmp,-120,120,72.bmp,120,120,9326.199999809265,623076.2000002861,9021,yes,SM,C,69.bmp,120,-120,296876,290851,298893,292860,626560.0,620533.0,628577.0,622543.0,32
4,0,0,0,1,22,test,1,0,z,Mon Aug 25 2025 12:23:51 GMT-0400 (Eastern Daylight Time),642469.0,I,None,2016,33,2,81.bmp,-120,-120,82.bmp,120,-120,83.bmp,-120,120,84.bmp,120,120,10057.0,632412.0,9021,yes,SM,C,84.bmp,120,120,296876,290851,298893,292860,635893.0,629869.0,637910.0,631876.0,33
2,0,1,0,0,22,test,1,0,z,Mon Aug 25 2025 12:23:51 GMT-0400 (Eastern Daylight Time),652535.7000002861,I,None,2016,34,2,73.bmp,-120,-120,74.bmp,120,-120,75.bmp,-120,120,76.bmp,120,120,10060.400000095367,642475.3000001907,9021,yes,SM,C,74.bmp,120,-120,296876,290851,298893,292860,645960.0,639932.0,647977.0,641943.0,34
4,0,0,0,1,23,test,1,1,m,Mon Aug 25 2025 12:23:51 GMT-0400 (Eastern Daylight Time),661769.2000002861,I,m,1173,35,2,77.bmp,-120,-120,78.bmp,120,-120,79.bmp,-120,120,80.bmp,120,120,9227.10000038147,652542.0999999046,9021,yes,SM,C,79.bmp,120,120,296876,290851,298893,292860,656026.0,649999.0,658043.0,652010.0,35
3,0,0,1,0,23,test,1,0,m,Mon Aug 25 2025 12:23:51 GMT-0400 (Eastern Daylight Time),671419.0,I,z,1587,36,2,85.bmp,-120,-120,86.bmp,120,-120,87.bmp,-120,120,88.bmp,120,120,9640.799999713898,661778.2000002861,9021,yes,SM,C,85.bmp,-120,120,296876,290851,298893,292860,665260.0,659236.0,667277.0,661243.0,36
1,1,0,0,0,24,test,1,1,m,Mon Aug 25 2025 12:23:51 GMT-0400 (Eastern Daylight Time),680769.0,I,m,1298,37,2,89.bmp,-120,-120,90.bmp,120,-120,91.bmp,-120,120,92.bmp,120,120,9339.400000095367,671429.5999999046,9021,yes,SM,C,90.bmp,-120,-120,296876,290851,298893,292860,674909.0,668887.0,676926.0,670893.0,37
2,0,1,0,0,24,test,1,0,m,Mon Aug 25 2025 12:23:51 GMT-0400 (Eastern Daylight Time),689935.9000000954,I,z,1115,38,2,93.bmp,-120,-120,94.bmp,120,-120,95.bmp,-120,120,96.bmp,120,120,9160.300000190735,680775.5999999046,9021,yes,SM,C,95.bmp,120,-120,296876,290851,298893,292860,684260.0,678233.0,686277.0,680243.0,38
4,0,0,0,1,24,test,1,0,z,Mon Aug 25 2025 12:23:51 GMT-0400 (Eastern Daylight Time),699785.8000001907,I,m,1789,39,2,97.bmp,-120,-120,98.bmp,120,-120,99.bmp,-120,120,100.bmp,120,120,9842.599999904633,689943.2000002861,9021,yes,SM,C,100.bmp,120,120,296876,290851,298893,292860,693426.0,687400.0,695443.0,689410.0,39
3,0,0,1,0,24,test,1,0,m,Mon Aug 25 2025 12:23:51 GMT-0400 (Eastern Daylight Time),709852.5,I,None,2016,40,2,54.bmp,-120,-120,55.bmp,120,-120,56.bmp,-120,120,57.bmp,120,120,10057.400000095367,699795.0999999046,9021,yes,SM,C,55.bmp,-120,120,296876,290851,298893,292860,703276.0,697253.0,705293.0,699260.0,40
1,1,0,0,0,25,test,1,1,z,Mon Aug 25 2025 12:23:51 GMT-0400 (Eastern Daylight Time),719669.0999999046,I,z,1760,41,2,58.bmp,-120,-120,59.bmp,120,-120,60.bmp,-120,120,61.bmp,120,120,9807.299999713898,709861.8000001907,9021,yes,SM,C,58.bmp,-120,-120,296876,290851,298893,292860,713343.0,707319.0,715360.0,709327.0,41
4,0,0,0,1,25,test,1,0,z,Mon Aug 25 2025 12:23:51 GMT-0400 (Eastern Daylight Time),729735.9000000954,I,None,2016,42,2,62.bmp,-120,-120,63.bmp,120,-120,64.bmp,-120,120,65.bmp,120,120,10056.199999809265,719679.7000002861,9021,yes,SM,C,65.bmp,120,120,296876,290851,298893,292860,723160.0,717137.0,725177.0,719143.0,42
1,1,0,0,0,26,test,1,1,z,Mon Aug 25 2025 12:23:51 GMT-0400 (Eastern Daylight Time),739202.4000000954,I,z,1413,43,2,66.bmp,-120,-120,67.bmp,120,-120,68.bmp,-120,120,69.bmp,120,120,9457.900000095367,729744.5,9021,yes,SM,C,66.bmp,-120,-120,296876,290851,298893,292860,733226.0,727202.0,735243.0,729210.0,43
4,0,0,0,1,26,test,1,0,m,Mon Aug 25 2025 12:23:51 GMT-0400 (Eastern Daylight Time),748702.4000000954,I,z,1434,44,2,54.bmp,-120,-120,51.bmp,120,-120,52.bmp,-120,120,53.bmp,120,120,9492.099999904633,739210.3000001907,9021,yes,SM,C,54.bmp,120,120,296876,290851,298893,292860,742693.0,736668.0,744710.0,738677.0,44
1,1,0,0,0,27,test,1,1,m,Mon Aug 25 2025 12:23:51 GMT-0400 (Eastern Daylight Time),758669.2000002861,I,m,1902,45,2,78.bmp,-120,-120,79.bmp,120,-120,80.bmp,-120,120,81.bmp,120,120,9960.200000286102,748709.0,9021,yes,SM,C,81.bmp,-120,-120,296876,290851,298893,292860,752193.0,746166.0,754210.0,748177.0,45
1,1,0,0,0,27,test,1,0,m,Mon Aug 25 2025 12:23:51 GMT-0400 (Eastern Daylight Time),768735.7000002861,I,None,2016,46,2,70.bmp,-120,-120,71.bmp,120,-120,72.bmp,-120,120,73.bmp,120,120,10059.300000190735,758676.4000000954,9021,yes,SM,C,71.bmp,-120,-120,296876,290851,298893,292860,762160.0,756134.0,764177.0,758143.0,46
3,0,0,1,0,28,test,1,1,z,Mon Aug 25 2025 12:23:51 GMT-0400 (Eastern Daylight Time),778052.5,I,z,1261,47,2,74.bmp,-120,-120,75.bmp,120,-120,76.bmp,-120,120,77.bmp,120,120,9309.400000095367,768743.0999999046,9021,yes,SM,C,76.bmp,-120,120,296876,290851,298893,292860,772226.0,766200.0,774243.0,768209.0,47
3,0,0,1,0,29,test,1,1,z,Mon Aug 25 2025 12:23:51 GMT-0400 (Eastern Daylight Time),787502.5,I,z,1384,48,2,90.bmp,-120,-120,91.bmp,120,-120,92.bmp,-120,120,93.bmp,120,120,9442.699999809265,778059.8000001907,9021,yes,SM,C,92.bmp,-120,120,296876,290851,298893,292860,781543.0,775517.0,783560.0,777527.0,48
2,0,1,0,0,29,test,1,0,z,Mon Aug 25 2025 12:23:51 GMT-0400 (Eastern Daylight Time),797535.9000000954,I,m,1982,49,2,86.bmp,-120,-120,87.bmp,120,-120,88.bmp,-120,120,89.bmp,120,120,10026.0,787509.9000000954,9021,yes,SM,C,87.bmp,120,-120,296876,290851,298893,292860,790993.0,784967.0,793010.0,786977.0,49
3,0,0,1,0,29,test,1,0,m,Mon Aug 25 2025 12:23:51 GMT-0400 (Eastern Daylight Time),807102.4000000954,I,z,1501,50,2,82.bmp,-120,-120,83.bmp,120,-120,84.bmp,-120,120,85.bmp,120,120,9559.900000095367,797542.5,9021,yes,SM,C,82.bmp,-120,120,296876,290851,298893,292860,801026.0,795000.0,803043.0,797010.0,50
2,0,1,0,0,29,test,1,0,z,Mon Aug 25 2025 12:23:51 GMT-0400 (Eastern Daylight Time),817169.3000001907,I,None,2016,51,2,94.bmp,-120,-120,95.bmp,120,-120,96.bmp,-120,120,97.bmp,120,120,10057.900000095367,807111.4000000954,9021,yes,SM,C,95.bmp,120,-120,296876,290851,298893,292860,810593.0,804569.0,812610.0,806577.0,51
4,0,0,0,1,30,test,1,1,m,Mon Aug 25 2025 12:23:51 GMT-0400 (Eastern Daylight Time),826702.5,I,m,1467,52,2,98.bmp,-120,-120,99.bmp,120,-120,100.bmp,-120,120,81.bmp,120,120,9526.099999904633,817176.4000000954,9021,yes,SM,C,98.bmp,120,120,296876,290851,298893,292860,820660.0,814634.0,822677.0,816644.0,52
3,0,0,1,0,31,test,1,1,z,Mon Aug 25 2025 12:23:51 GMT-0400 (Eastern Daylight Time),835952.0999999046,I,z,1198,53,2,51.bmp,-120,-120,52.bmp,120,-120,53.bmp,-120,120,54.bmp,120,120,9243.39999961853,826708.7000002861,9021,yes,SM,C,53.bmp,-120,120,296876,290851,298893,292860,830193.0,824166.0,832210.0,826177.0,53
1,1,0,0,0,31,test,1,0,m,Mon Aug 25 2025 12:23:51 GMT-0400 (Eastern Daylight Time),845419.2000002861,I,z,1404,54,2,55.bmp,-120,-120,56.bmp,120,-120,57.bmp,-120,120,58.bmp,120,120,9460.10000038147,835959.0999999046,9021,yes,SM,C,57.bmp,-120,-120,296876,290851,298893,292860,839443.0,833416.0,841460.0,835427.0,54
4,0,0,0,1,32,test,1,1,z,Mon Aug 25 2025 12:23:51 GMT-0400 (Eastern Daylight Time),854419.3000001907,I,z,945,55,2,59.bmp,-120,-120,60.bmp,120,-120,61.bmp,-120,120,62.bmp,120,120,8993.200000286102,845426.0999999046,9021,yes,SM,C,62.bmp,120,120,296876,290851,298893,292860,848910.0,842883.0,850927.0,844893.0,55
2,0,1,0,0,33,test,1,1,m,Mon Aug 25 2025 12:23:51 GMT-0400 (Eastern Daylight Time),863702.5999999046,I,m,1226,56,2,63.bmp,-120,-120,64.bmp,120,-120,65.bmp,-120,120,66.bmp,120,120,9274.0,854428.5999999046,9021,yes,SM,C,63.bmp,120,-120,296876,290851,298893,292860,857909.0,851886.0,859926.0,853893.0,56
4,0,0,0,1,33,test,1,0,m,Mon Aug 25 2025 12:23:51 GMT-0400 (Eastern Daylight Time),873402.5999999046,I,z,1638,57,2,67.bmp,-120,-120,68.bmp,120,-120,69.bmp,-120,120,70.bmp,120,120,9692.39999961853,863710.2000002861,9021,yes,SM,C,68.bmp,120,120,296876,290851,298893,292860,867193.0,861167.0,869210.0,863177.0,57
3,0,0,1,0,34,test,1,1,z,Mon Aug 25 2025 12:23:51 GMT-0400 (Eastern Daylight Time),882769.2000002861,I,z,1314,58,2,71.bmp,-120,-120,72.bmp,120,-120,73.bmp,-120,120,74.bmp,120,120,9359.300000190735,873409.9000000954,9021,yes,SM,C,73.bmp,-120,120,296876,290851,298893,292860,876893.0,870867.0,878910.0,872877.0,58
2,0,1,0,0,34,test,1,0,m,Mon Aug 25 2025 12:23:51 GMT-0400 (Eastern Daylight Time),892219.2000002861,I,z,1388,59,2,75.bmp,-120,-120,76.bmp,120,-120,77.bmp,-120,120,78.bmp,120,120,9441.60000038147,882777.5999999046,9021,yes,SM,C,78.bmp,120,-120,296876,290851,298893,292860,886260.0,880235.0,888276.0,882243.0,59
1,1,0,0,0,35,test,1,1,z,Mon Aug 25 2025 12:23:51 GMT-0400 (Eastern Daylight Time),901985.9000000954,I,z,1713,60,2,79.bmp,-120,-120,80.bmp,120,-120,81.bmp,-120,120,82.bmp,120,120,9759.5,892226.4000000954,9021,yes,SM,C,79.bmp,-120,-120,296876,290851,298893,292860,895710.0,889684.0,897727.0,891693.0,60
2,0,1,0,0,36,test,1,1,z,Mon Aug 25 2025 12:23:51 GMT-0400 (Eastern Daylight Time),911153.5,I,z,1114,61,2,83.bmp,-120,-120,84.bmp,120,-120,85.bmp,-120,120,86.bmp,120,120,9158.400000095367,901995.0999999046,9021,yes,SM,C,84.bmp,120,-120,296876,290851,298893,292860,905476.0,899453.0,907494.0,901460.0,61
4,0,0,0,1,36,test,1,0,z,Mon Aug 25 2025 12:23:51 GMT-0400 (Eastern Daylight Time),921219.4000000954,I,None,2016,62,2,91.bmp,-120,-120,92.bmp,120,-120,93.bmp,-120,120,94.bmp,120,120,10056.400000095367,911163.0,9021,yes,SM,C,94.bmp,120,120,296876,290851,298893,292860,914643.0,908620.0,916660.0,910627.0,62
1,1,0,0,0,37,test,1,1,m,Mon Aug 25 2025 12:23:51 GMT-0400 (Eastern Daylight Time),930836.0,I,m,1561,63,2,95.bmp,-120,-120,96.bmp,120,-120,97.bmp,-120,120,98.bmp,120,120,9609.599999904633,921226.4000000954,9021,yes,SM,C,95.bmp,-120,120,296876,290851,298893,292860,924710.0,918684.0,926727.0,920693.0,63
2,0,1,0,0,38,test,1,1,z,Mon Aug 25 2025 12:23:51 GMT-0400 (Eastern Daylight Time),940535.9000000954,I,z,1640,64,2,99.bmp,-120,-120,100.bmp,120,-120,62.bmp,-120,120,51.bmp,120,120,9691.199999809265,930844.7000002861,9021,yes,SM,C,100.bmp,120,-120,296876,290851,298893,292860,934326.0,928302.0,936343.0,930310.0,64
4,0,0,0,1,39,test,1,1,m,Mon Aug 25 2025 12:23:51 GMT-0400 (Eastern Daylight Time),950185.8000001907,I,m,1588,65,2,52.bmp,-120,-120,53.bmp,120,-120,54.bmp,-120,120,55.bmp,120,120,9642.099999904633,940543.7000002861,9021,yes,SM,C,54.bmp,120,120,296876,290851,298893,292860,944026.0,938001.0,946044.0,940010.0,65
3,0,0,1,0,40,test,1,1,m,Mon Aug 25 2025 12:23:51 GMT-0400 (Eastern Daylight Time),959635.9000000954,I,m,1394,66,2,56.bmp,-120,-120,57.bmp,120,-120,58.bmp,-120,120,59.bmp,120,120,9440.5,950195.4000000954,9021,yes,SM,C,59.bmp,-120,120,296876,290851,298893,292860,953677.0,947653.0,955693.0,949660.0,66
2,0,1,0,0,41,test,1,1,m,Mon Aug 25 2025 12:23:51 GMT-0400 (Eastern Daylight Time),968819.2000002861,I,m,1129,67,2,87.bmp,-120,-120,88.bmp,120,-120,89.bmp,-120,120,90.bmp,120,120,9169.5,959649.7000002861,9021,yes,SM,C,89.bmp,120,-120,296876,290851,298893,292860,963127.0,957107.0,965143.0,959110.0,67
3,0,0,1,0,42,test,1,1,z,Mon Aug 25 2025 12:23:51 GMT-0400 (Eastern Daylight Time),978486.0,I,z,1609,68,2,60.bmp,-120,-120,61.bmp,120,-120,62.bmp,-120,120,63.bmp,120,120,9657.099999904633,968828.9000000954,9021,yes,SM,C,62.bmp,-120,120,296876,290851,298893,292860,972310.0,966286.0,974327.0,968293.0,68
1,1,0,0,0,43,test,1,1,m,Mon Aug 25 2025 12:23:51 GMT-0400 (Eastern Daylight Time),987835.9000000954,I,m,1286,69,2,64.bmp,-120,-120,65.bmp,120,-120,66.bmp,-120,120,67.bmp,120,120,9340.400000095367,978495.5,9021,yes,SM,C,65.bmp,-120,-120,296876,290851,298893,292860,981976.0,975953.0,983994.0,977960.0,69
2,0,1,0,0,44,test,1,1,m,Mon Aug 25 2025 12:23:51 GMT-0400 (Eastern Daylight Time),996852.5999999046,I,m,978,70,2,68.bmp,-120,-120,69.bmp,120,-120,70.bmp,-120,120,71.bmp,120,120,9007.5,987845.0999999046,9021,yes,SM,C,70.bmp,120,-120,296876,290851,298893,292860,991310.0,985302.0,993327.0,987309.0,70
4,0,0,0,1,44,test,1,0,z,Mon Aug 25 2025 12:23:51 GMT-0400 (Eastern Daylight Time),1006586.0,I,m,1672,71,2,72.bmp,-120,-120,73.bmp,120,-120,74.bmp,-120,120,75.bmp,120,120,9724.699999809265,996861.3000001907,9021,yes,SM,C,75.bmp,120,120,296876,290851,298893,292860,1000343.0,994318.0,1002360.0,996327.0,71
1,1,0,0,0,45,test,1,1,z,Mon Aug 25 2025 12:23:51 GMT-0400 (Eastern Daylight Time),1016102.7000002861,I,z,1459,72,2,76.bmp,-120,-120,77.bmp,120,-120,78.bmp,-120,120,79.bmp,120,120,9507.300000190735,1006595.4000000954,9021,yes,SM,C,76.bmp,-120,-120,296876,290851,298893,292860,1010077.0,1004053.0,1012094.0,1006060.0,72
2,0,1,0,0,46,test,1,1,z,Mon Aug 25 2025 12:23:51 GMT-0400 (Eastern Daylight Time),1026136.0999999046,I,z,1974,73,2,80.bmp,-120,-120,81.bmp,120,-120,82.bmp,-120,120,83.bmp,120,120,10024.0,1016112.0999999046,9021,yes,SM,C,81.bmp,120,-120,296876,290851,298893,292860,1019593.0,1013570.0,1021610.0,1015577.0,73
4,0,0,0,1,47,test,1,1,m,Mon Aug 25 2025 12:23:51 GMT-0400 (Eastern Daylight Time),1035535.9000000954,I,m,1348,74,2,84.bmp,-120,-120,85.bmp,120,-120,86.bmp,-120,120,87.bmp,120,120,9391.599999904633,1026144.3000001907,9021,yes,SM,C,86.bmp,120,120,296876,290851,298893,292860,1029627.0,1023601.0,1031644.0,1025610.0,74
2,0,1,0,0,48,test,1,1,m,Mon Aug 25 2025 12:23:51 GMT-0400 (Eastern Daylight Time),1044902.7000002861,I,m,1309,75,2,88.bmp,-120,-120,89.bmp,120,-120,90.bmp,-120,120,91.bmp,120,120,9361.0,1035541.7000002861,9021,yes,SM,C,91.bmp,120,-120,296876,290851,298893,292860,1039027.0,1032999.0,1041044.0,1035010.0,75
1,1,0,0,0,48,test,1,0,z,Mon Aug 25 2025 12:23:51 GMT-0400 (Eastern Daylight Time),1054969.4000000954,I,None,2016,76,2,92.bmp,-120,-120,93.bmp,120,-120,94.bmp,-120,120,95.bmp,120,120,10058.5,1044910.9000000954,9021,yes,SM,C,92.bmp,-120,-120,296876,290851,298893,292860,1048393.0,1042368.0,1050410.0,1044377.0,76
3,0,0,1,0,48,test,1,0,z,Mon Aug 25 2025 12:23:51 GMT-0400 (Eastern Daylight Time),1065036.0999999046,I,None,2016,77,2,100.bmp,-120,-120,61.bmp,120,-120,51.bmp,-120,120,52.bmp,120,120,10060.0,1054976.0999999046,9021,yes,SM,C,51.bmp,-120,120,296876,290851,298893,292860,1058460.0,1052433.0,1060477.0,1054444.0,77
1,1,0,0,0,49,test,1,1,m,Mon Aug 25 2025 12:23:51 GMT-0400 (Eastern Daylight Time),1074585.9000000954,I,m,1489,78,2,96.bmp,-120,-120,97.bmp,120,-120,98.bmp,-120,120,99.bmp,120,120,9542.099999904633,1065043.8000001907,9021,yes,SM,C,97.bmp,-120,-120,296876,290851,298893,292860,1068527.0,1062501.0,1070543.0,1064510.0,78
4,0,0,0,1,49,test,1,0,m,Mon Aug 25 2025 12:23:51 GMT-0400 (Eastern Daylight Time),1083919.200000286,I,z,1282,79,2,57.bmp,-120,-120,58.bmp,120,-120,59.bmp,-120,120,60.bmp,120,120,9323.10000038147,1074596.0999999046,9021,yes,SM,C,57.bmp,120,120,296876,290851,298893,292860,1078077.0,1072054.0,1080094.0,1074060.0,79
3,0,0,1,0,50,test,1,1,m,Mon Aug 25 2025 12:23:51 GMT-0400 (Eastern Daylight Time),1093352.700000286,I,m,1390,80,2,53.bmp,-120,-120,54.bmp,120,-120,55.bmp,-120,120,56.bmp,120,120,9427.800000190735,1083924.9000000954,9021,yes,SM,C,56.bmp,-120,120,296876,290851,298893,292860,1087409.0,1081383.0,1089410.0,1083394.0,80
