acc_sum,block,block_c,condition,correct,correct_response,datetime,endtime,flanker,jitter,project,response,response_test_buffer_response,response_test_target_response,response_time,response_time_test_buffer_response,response_time_test_target_response,row_sel,session_number,start_end,starttime,subject_id,target,task,task_vers,time_test_buffer,time_test_buffer_response,time_test_constants,time_test_flanker,time_test_jitter,time_test_logger,time_test_target,time_test_target_response,time_test_variables,trial
1,prac,1,inc,1,m,Fri Feb 20 2026 09:55:28 GMT-0500 (Eastern Standard Time),177329.89999961853,pear,900,I,m,,,751,,,14,2,2957.7000007629395,174372.1999988556,9035,iron,NF,C,,,,,,,,,,1
2,prac,1,con,1,z,Fri Feb 20 2026 09:55:28 GMT-0500 (Eastern Standard Time),180229.60000038147,kiwi,1000,I,z,,,597,,,7,2,2886.5,177343.10000038147,9035,kiwi,NF,C,,,,,,,,,,2
3,prac,1,inc,1,z,Fri Feb 20 2026 09:55:28 GMT-0500 (Eastern Standard Time),183079.5,copper,900,I,z,,,646,,,2,2,2839.3999996185303,180240.10000038147,9035,cherry,NF,C,,,,,,,,,,3
4,prac,1,con,1,z,Fri Feb 20 2026 09:55:28 GMT-0500 (Eastern Standard Time),185962.79999923706,orange,1000,I,z,,,577,,,3,2,2873.199998855591,183089.60000038147,9035,orange,NF,C,,,,,,,,,,4
5,prac,1,con,1,m,Fri Feb 20 2026 09:55:28 GMT-0500 (Eastern Standard Time),188846.29999923706,zinc,1000,I,m,,,572,,,15,2,2874.6000003814697,185971.6999988556,9035,zinc,NF,C,,,,,,,,,,5
6,prac,1,con,1,m,Fri Feb 20 2026 09:55:28 GMT-0500 (Eastern Standard Time),191462.89999961853,gold,800,I,m,,,512,,,13,2,2606.3999996185303,188856.5,9035,gold,NF,C,,,,,,,,,,6
7,prac,1,inc,1,z,Fri Feb 20 2026 09:55:28 GMT-0500 (Eastern Standard Time),194479.5,lead,1100,I,z,,,603,,,8,2,3006.0,191473.5,9035,plum,NF,C,,,,,,,,,,7
8,prac,1,con,1,m,Fri Feb 20 2026 09:55:28 GMT-0500 (Eastern Standard Time),197412.89999961853,silver,1000,I,m,,,616,,,11,2,2920.7000007629395,194492.1999988556,9035,silver,NF,C,,,,,,,,,,8
9,prac,1,con,1,z,Fri Feb 20 2026 09:55:28 GMT-0500 (Eastern Standard Time),199962.79999923706,lime,800,I,z,,,441,,,5,2,2540.3999996185303,197422.39999961853,9035,lime,NF,C,,,,,,,,,,9
10,prac,1,inc,1,m,Fri Feb 20 2026 09:55:28 GMT-0500 (Eastern Standard Time),202712.79999923706,cherry,900,I,m,,,543,,,10,2,2737.2999992370605,199975.5,9035,copper,NF,C,,,,,,,,,,10
11,prac,1,inc,1,z,Fri Feb 20 2026 09:55:28 GMT-0500 (Eastern Standard Time),205479.5,iron,900,I,z,,,561,,,6,2,2756.800001144409,202722.6999988556,9035,pear,NF,C,,,,,,,,,,11
12,prac,1,inc,1,z,Fri Feb 20 2026 09:55:28 GMT-0500 (Eastern Standard Time),208512.89999961853,cobalt,1100,I,z,,,620,,,4,2,3022.8999996185303,205490.0,9035,raisin,NF,C,,,,,,,,,,12
13,prac,1,inc,1,m,Fri Feb 20 2026 09:55:28 GMT-0500 (Eastern Standard Time),211395.6999988556,plum,1100,I,m,,,481,,,16,2,2870.8999996185303,208524.79999923706,9035,lead,NF,C,,,,,,,,,,13
14,prac,1,con,1,m,Fri Feb 20 2026 09:55:28 GMT-0500 (Eastern Standard Time),214012.6999988556,bronze,800,I,m,,,506,,,9,2,2610.7999992370605,211401.89999961853,9035,bronze,NF,C,,,,,,,,,,14
15,prac,1,con,1,z,Fri Feb 20 2026 09:55:28 GMT-0500 (Eastern Standard Time),216546.0,banana,800,I,z,,,417,,,1,2,2523.800001144409,214022.1999988556,9035,banana,NF,C,,,,,,,,,,15
16,prac,1,inc,1,m,Fri Feb 20 2026 09:55:28 GMT-0500 (Eastern Standard Time),219512.89999961853,raisin,1100,I,m,,,560,,,12,2,2957.1000003814697,216555.79999923706,9035,cobalt,NF,C,,,,,,,,,,16
1,test,1,inc,1,m,Fri Feb 20 2026 09:55:28 GMT-0500 (Eastern Standard Time),236630.0,plum,1100,I,m,m,None,497,298.0,199.0,120,2,2125.6000003814697,234504.39999961853,9035,zinc,NF,C,233492,233492,231666,232775,231667,233792,233292,233292,233792,1
2,test,1,inc,1,m,Fri Feb 20 2026 09:55:28 GMT-0500 (Eastern Standard Time),238645.60000038147,orange,1000,I,m,m,None,482,282.0,200.0,87,2,2008.900001525879,236636.6999988556,9035,silver,NF,C,235525,235525,233799,234808,233799,235808,235325,235325,235808,2
3,test,1,con,1,m,Fri Feb 20 2026 09:55:28 GMT-0500 (Eastern Standard Time),240462.6999988556,lead,800,I,m,m,None,472,273.0,199.0,121,2,1806.599998474121,238656.10000038147,9035,lead,NF,C,237342,237342,235818,236625,235819,237625,237142,237142,237625,3
4,test,1,con,1,m,Fri Feb 20 2026 09:55:28 GMT-0500 (Eastern Standard Time),242562.60000038147,lead,1100,I,m,m,None,452,252.0,200.0,124,2,2090.300001144409,240472.29999923706,9035,lead,NF,C,239459,239459,237634,238742,237635,239725,239258,239258,239725,4
5,test,1,inc,1,z,Fri Feb 20 2026 09:55:28 GMT-0500 (Eastern Standard Time),244629.5,cobalt,1100,I,z,z,None,431,232.0,199.0,24,2,2057.2000007629395,242572.29999923706,9035,orange,NF,C,241559,241559,239734,240842,239735,241792,241358,241359,241792,5
6,test,1,inc,1,z,Fri Feb 20 2026 09:55:28 GMT-0500 (Eastern Standard Time),246662.5,silver,1000,I,z,z,None,498,298.0,200.0,31,2,2023.7000007629395,244638.79999923706,9035,raisin,NF,C,243525,243525,241801,242808,241801,243825,243325,243325,243824,6
6,test,1,con,0,z,Fri Feb 20 2026 09:55:28 GMT-0500 (Eastern Standard Time),248762.6999988556,kiwi,1100,I,m,m,None,459,260.0,199.0,52,2,2091.3999996185303,246671.29999923706,9035,kiwi,NF,C,245658,245659,243833,244942,243834,245925,245459,245459,245925,7
7,test,1,inc,1,m,Fri Feb 20 2026 09:55:28 GMT-0500 (Eastern Standard Time),250596.0,banana,800,I,m,m,None,484,284.0,200.0,69,2,1824.2000007629395,248771.79999923706,9035,bronze,NF,C,247459,247459,245934,246742,245934,247758,247258,247258,247758,8
8,test,1,inc,1,z,Fri Feb 20 2026 09:55:28 GMT-0500 (Eastern Standard Time),252612.60000038147,iron,900,I,z,z,None,566,367.0,199.0,38,2,2007.0,250605.60000038147,9035,lime,NF,C,249392,249392,247768,248675,247768,249775,249192,249192,249775,9
9,test,1,inc,1,z,Fri Feb 20 2026 09:55:28 GMT-0500 (Eastern Standard Time),254645.79999923706,iron,900,I,z,z,None,597,398.0,199.0,46,2,2024.1000003814697,252621.6999988556,9035,pear,NF,C,251409,251409,249784,250692,249784,251808,251208,251209,251808,10
10,test,1,inc,1,m,Fri Feb 20 2026 09:55:28 GMT-0500 (Eastern Standard Time),256528.89999961853,banana,800,I,m,m,None,535,336.0,199.0,93,2,1874.8999996185303,254654.0,9035,cobalt,NF,C,253341,253342,251816,252625,251816,253691,253142,253142,253691,11
10,test,1,con,0,m,Fri Feb 20 2026 09:55:28 GMT-0500 (Eastern Standard Time),258695.89999961853,gold,1100,I,z,z,None,529,330.0,199.0,100,2,2161.2000007629395,256534.6999988556,9035,gold,NF,C,255525,255525,253697,254809,253697,255858,255325,255325,255858,12
11,test,1,inc,1,z,Fri Feb 20 2026 09:55:28 GMT-0500 (Eastern Standard Time),260829.29999923706,zinc,1000,I,z,z,None,590,391.0,199.0,55,2,2123.3999996185303,258705.89999961853,9035,kiwi,NF,C,257592,257592,255868,256875,255868,257991,257392,257392,257991,13
12,test,1,inc,1,z,Fri Feb 20 2026 09:55:28 GMT-0500 (Eastern Standard Time),262762.6999988556,gold,800,I,z,z,None,594,394.0,200.0,53,2,1923.6999988555908,260839.0,9035,kiwi,NF,C,259525,259525,258001,258808,258001,259925,259325,259325,259925,14
13,test,1,con,1,m,Fri Feb 20 2026 09:55:28 GMT-0500 (Eastern Standard Time),264529.29999923706,gold,800,I,m,m,None,420,220.0,200.0,97,2,1757.0,262772.29999923706,9035,gold,NF,C,261458,261459,259934,260742,259935,261691,261258,261258,261691,15
14,test,1,inc,1,z,Fri Feb 20 2026 09:55:28 GMT-0500 (Eastern Standard Time),266612.60000038147,silver,1000,I,z,z,None,534,334.0,200.0,23,2,2069.0,264543.60000038147,9035,orange,NF,C,263425,263425,261706,262708,261706,263775,263225,263225,263775,16
15,test,1,con,1,m,Fri Feb 20 2026 09:55:28 GMT-0500 (Eastern Standard Time),268612.5,iron,1000,I,m,m,None,449,250.0,199.0,107,2,1990.3000011444092,266622.1999988556,9035,iron,NF,C,265509,265509,263784,264792,263785,265775,265309,265309,265775,17
16,test,1,inc,1,m,Fri Feb 20 2026 09:55:28 GMT-0500 (Eastern Standard Time),270479.29999923706,lime,800,I,m,m,None,522,323.0,199.0,109,2,1857.5,268621.79999923706,9035,iron,NF,C,267308,267308,265784,266592,265784,267641,267109,267109,267641,18
17,test,1,con,1,m,Fri Feb 20 2026 09:55:28 GMT-0500 (Eastern Standard Time),272512.60000038147,gold,1000,I,m,m,None,488,288.0,200.0,99,2,2021.7000007629395,270490.89999961853,9035,gold,NF,C,269375,269375,267653,268658,267653,269675,269175,269175,269675,19
18,test,1,inc,1,z,Fri Feb 20 2026 09:55:28 GMT-0500 (Eastern Standard Time),274312.60000038147,gold,800,I,z,z,None,463,263.0,200.0,61,2,1788.2000007629395,272524.39999961853,9035,plum,NF,C,271208,271208,269686,270492,269687,271475,271008,271008,271475,20
19,test,1,con,1,z,Fri Feb 20 2026 09:55:28 GMT-0500 (Eastern Standard Time),276145.79999923706,raisin,800,I,z,z,None,486,286.0,200.0,25,2,1823.6999988555908,274322.10000038147,9035,raisin,NF,C,273008,273009,271484,272292,271485,273308,272808,272808,273308,21
20,test,1,inc,1,z,Fri Feb 20 2026 09:55:28 GMT-0500 (Eastern Standard Time),278245.89999961853,zinc,1000,I,z,z,None,549,350.0,199.0,47,2,2089.3999996185303,276156.5,9035,pear,NF,C,275042,275042,273319,274325,273319,275408,274842,274842,275408,22
21,test,1,con,1,z,Fri Feb 20 2026 09:55:28 GMT-0500 (Eastern Standard Time),280379.29999923706,plum,1100,I,z,z,None,492,293.0,199.0,60,2,2123.199998855591,278256.10000038147,9035,plum,NF,C,277242,277242,275418,276525,275419,277541,277042,277042,277541,23
22,test,1,inc,1,z,Fri Feb 20 2026 09:55:28 GMT-0500 (Eastern Standard Time),282529.10000038147,lead,1100,I,z,z,None,503,304.0,199.0,56,2,2140.300001144409,280388.79999923706,9035,kiwi,NF,C,279375,279375,277551,278658,277551,279691,279175,279175,279691,24
23,test,1,inc,1,z,Fri Feb 20 2026 09:55:28 GMT-0500 (Eastern Standard Time),284512.1999988556,bronze,800,I,z,z,None,637,438.0,199.0,21,2,1970.7999992370605,282541.39999961853,9035,orange,NF,C,281225,281225,279703,280508,279704,281674,281025,281025,281674,25
24,test,1,inc,1,z,Fri Feb 20 2026 09:55:28 GMT-0500 (Eastern Standard Time),286712.60000038147,cobalt,1100,I,z,z,None,562,362.0,200.0,32,2,2194.5,284518.10000038147,9035,raisin,NF,C,283508,283509,281680,282792,281680,283875,283308,283308,283875,26
25,test,1,inc,1,m,Fri Feb 20 2026 09:55:28 GMT-0500 (Eastern Standard Time),288812.5,pear,900,I,m,m,None,658,458.0,200.0,110,2,2091.1000003814697,286721.39999961853,9035,iron,NF,C,285508,285509,283883,284792,283884,285975,285308,285308,285975,27
26,test,1,inc,1,m,Fri Feb 20 2026 09:55:28 GMT-0500 (Eastern Standard Time),291029.10000038147,kiwi,1000,I,m,m,None,666,466.0,200.0,103,2,2207.800001144409,288821.29999923706,9035,gold,NF,C,287708,287709,285983,286992,285984,288191,287508,287508,288191,28
27,test,1,inc,1,m,Fri Feb 20 2026 09:55:28 GMT-0500 (Eastern Standard Time),292879.1999988556,banana,800,I,m,m,None,505,306.0,199.0,77,2,1840.8999996185303,291038.29999923706,9035,copper,NF,C,289725,289725,288200,289008,288201,290041,289525,289525,290041,29
28,test,1,inc,1,m,Fri Feb 20 2026 09:55:28 GMT-0500 (Eastern Standard Time),294862.60000038147,kiwi,1000,I,m,m,None,439,240.0,199.0,127,2,1975.0,292887.60000038147,9035,lead,NF,C,291775,291775,290050,291058,290050,292025,291575,291575,292025,30
29,test,1,con,1,z,Fri Feb 20 2026 09:55:28 GMT-0500 (Eastern Standard Time),296812.5,orange,900,I,z,z,None,509,309.0,200.0,18,2,1939.1000003814697,294873.39999961853,9035,orange,NF,C,293658,293658,292035,292942,292036,293975,293458,293458,293975,31
30,test,1,con,1,m,Fri Feb 20 2026 09:55:28 GMT-0500 (Eastern Standard Time),298929.10000038147,bronze,1000,I,m,m,None,571,371.0,200.0,67,2,2106.5,296822.60000038147,9035,bronze,NF,C,295708,295708,293985,294992,293985,296091,295508,295508,296091,32
30,test,1,inc,0,z,Fri Feb 20 2026 09:55:28 GMT-0500 (Eastern Standard Time),301045.6999988556,cobalt,1100,I,m,m,None,482,282.0,200.0,8,2,2107.2999992370605,298938.39999961853,9035,banana,NF,C,297925,297925,296100,297208,296101,298208,297725,297725,298208,33
31,test,1,con,1,z,Fri Feb 20 2026 09:55:28 GMT-0500 (Eastern Standard Time),303078.89999961853,orange,1000,I,z,z,None,496,297.0,199.0,19,2,2022.7000007629395,301056.1999988556,9035,orange,NF,C,299942,299942,298218,299225,298219,300241,299742,299742,300241,34
32,test,1,con,1,z,Fri Feb 20 2026 09:55:28 GMT-0500 (Eastern Standard Time),305229.29999923706,banana,1100,I,z,z,None,507,308.0,199.0,4,2,2138.8999996185303,303090.39999961853,9035,banana,NF,C,302075,302075,300252,301358,300253,302391,301875,301875,302391,35
33,test,1,con,1,m,Fri Feb 20 2026 09:55:28 GMT-0500 (Eastern Standard Time),307395.89999961853,zinc,1100,I,m,m,None,518,318.0,200.0,116,2,2157.3999996185303,305238.5,9035,zinc,NF,C,304225,304225,302401,303508,302401,304558,304025,304025,304558,36
34,test,1,inc,1,z,Fri Feb 20 2026 09:55:28 GMT-0500 (Eastern Standard Time),309346.0,copper,900,I,z,z,None,502,303.0,199.0,22,2,1940.3999996185303,307405.60000038147,9035,orange,NF,C,306192,306192,304568,305475,304568,306508,305992,305992,306508,37
35,test,1,con,1,z,Fri Feb 20 2026 09:55:28 GMT-0500 (Eastern Standard Time),311479.0,raisin,1100,I,z,z,None,496,297.0,199.0,28,2,2123.5,309355.5,9035,raisin,NF,C,308342,308342,306517,307625,306518,308641,308142,308142,308641,38
36,test,1,con,1,z,Fri Feb 20 2026 09:55:28 GMT-0500 (Eastern Standard Time),313329.29999923706,kiwi,800,I,z,z,None,504,304.0,200.0,49,2,1841.6999988555908,311487.60000038147,9035,kiwi,NF,C,310175,310175,308650,309458,308650,310491,309975,309975,310491,39
37,test,1,inc,1,z,Fri Feb 20 2026 09:55:28 GMT-0500 (Eastern Standard Time),315412.60000038147,silver,1000,I,z,z,None,533,334.0,199.0,15,2,2074.6000003814697,313338.0,9035,cherry,NF,C,312225,312225,310500,311508,310500,312575,312025,312025,312575,40
38,test,1,con,1,m,Fri Feb 20 2026 09:55:28 GMT-0500 (Eastern Standard Time),317412.39999961853,silver,900,I,m,m,None,551,351.0,200.0,82,2,1990.8999996185303,315421.5,9035,silver,NF,C,314208,314208,312584,313492,312584,314575,314008,314008,314574,41
39,test,1,con,1,z,Fri Feb 20 2026 09:55:28 GMT-0500 (Eastern Standard Time),319562.60000038147,plum,1000,I,z,z,None,610,410.0,200.0,59,2,2141.2000007629395,317421.39999961853,9035,plum,NF,C,316308,316309,314583,315592,314584,316725,316108,316108,316725,42
40,test,1,inc,1,m,Fri Feb 20 2026 09:55:28 GMT-0500 (Eastern Standard Time),321495.6999988556,cherry,900,I,m,m,None,497,297.0,200.0,94,2,1924.5,319571.1999988556,9035,cobalt,NF,C,318358,318358,316733,317642,316734,318658,318158,318158,318658,43
41,test,1,con,1,z,Fri Feb 20 2026 09:55:28 GMT-0500 (Eastern Standard Time),323429.5,banana,900,I,z,z,None,498,299.0,199.0,2,2,1925.1000003814697,321504.39999961853,9035,banana,NF,C,320292,320292,318666,319575,318667,320592,320092,320092,320592,44
42,test,1,inc,1,z,Fri Feb 20 2026 09:55:28 GMT-0500 (Eastern Standard Time),325312.60000038147,gold,800,I,z,z,None,538,338.0,200.0,45,2,1875.400001525879,323437.1999988556,9035,pear,NF,C,322125,322125,320599,321408,320600,322475,321925,321925,322475,45
43,test,1,con,1,z,Fri Feb 20 2026 09:55:28 GMT-0500 (Eastern Standard Time),327462.29999923706,pear,1100,I,z,z,None,515,315.0,200.0,44,2,2140.199998855591,325322.10000038147,9035,pear,NF,C,324308,324308,322484,323592,322485,324624,324108,324108,324624,46
44,test,1,inc,1,z,Fri Feb 20 2026 09:55:28 GMT-0500 (Eastern Standard Time),329595.89999961853,lead,1100,I,z,z,None,493,293.0,200.0,64,2,2124.1000003814697,327471.79999923706,9035,plum,NF,C,326458,326458,324634,325741,324634,326758,326258,326258,326758,47
45,test,1,inc,1,m,Fri Feb 20 2026 09:55:28 GMT-0500 (Eastern Standard Time),331729.29999923706,raisin,1100,I,m,m,None,486,287.0,199.0,80,2,2124.1000003814697,329605.1999988556,9035,copper,NF,C,328592,328592,326767,327875,326767,328891,328392,328392,328891,48
46,test,1,con,1,m,Fri Feb 20 2026 09:55:28 GMT-0500 (Eastern Standard Time),333645.79999923706,bronze,900,I,m,m,None,473,274.0,199.0,66,2,1907.3999996185303,331738.39999961853,9035,bronze,NF,C,330525,330525,328900,329808,328901,330808,330325,330325,330808,49
47,test,1,con,1,m,Fri Feb 20 2026 09:55:28 GMT-0500 (Eastern Standard Time),335795.79999923706,copper,1100,I,m,m,None,499,300.0,199.0,76,2,2140.6000003814697,333655.1999988556,9035,copper,NF,C,332642,332642,330817,331924,330817,332958,332442,332442,332958,50
48,test,1,con,1,z,Fri Feb 20 2026 09:55:28 GMT-0500 (Eastern Standard Time),337795.79999923706,kiwi,1000,I,z,z,None,449,250.0,199.0,51,2,1991.6000003814697,335804.1999988556,9035,kiwi,NF,C,334692,334692,332966,333975,332967,334958,334492,334492,334958,51
49,test,1,inc,1,m,Fri Feb 20 2026 09:55:28 GMT-0500 (Eastern Standard Time),339962.5,orange,1000,I,m,m,None,626,427.0,199.0,71,2,2156.3999996185303,337806.10000038147,9035,bronze,NF,C,336692,336692,334968,335975,334968,337125,336492,336492,337125,52
50,test,1,con,1,z,Fri Feb 20 2026 09:55:28 GMT-0500 (Eastern Standard Time),342012.29999923706,lime,1000,I,z,z,None,509,309.0,200.0,35,2,2038.1999988555908,339974.10000038147,9035,lime,NF,C,338858,338858,337136,338142,337136,339174,338658,338658,339174,53
51,test,1,con,1,m,Fri Feb 20 2026 09:55:28 GMT-0500 (Eastern Standard Time),344145.89999961853,iron,800,I,m,m,None,787,587.0,200.0,105,2,2124.7999992370605,342021.10000038147,9035,iron,NF,C,340708,340708,339183,339992,339184,341308,340508,340508,341308,54
52,test,1,inc,1,z,Fri Feb 20 2026 09:55:28 GMT-0500 (Eastern Standard Time),346112.5,iron,900,I,z,z,None,520,321.0,199.0,54,2,1958.6000003814697,344153.89999961853,9035,kiwi,NF,C,342942,342942,341316,342225,341316,343275,342742,342742,343274,55
53,test,1,con,1,m,Fri Feb 20 2026 09:55:28 GMT-0500 (Eastern Standard Time),348212.39999961853,cobalt,1000,I,m,m,None,551,351.0,200.0,91,2,2090.7000007629395,346121.6999988556,9035,cobalt,NF,C,345008,345008,343284,344291,343284,345375,344808,344808,345374,56
54,test,1,con,1,m,Fri Feb 20 2026 09:55:28 GMT-0500 (Eastern Standard Time),350312.39999961853,bronze,1100,I,m,m,None,462,262.0,200.0,68,2,2090.7999992370605,348221.60000038147,9035,bronze,NF,C,347208,347209,345384,346492,345384,347475,347008,347008,347474,57
55,test,1,con,1,m,Fri Feb 20 2026 09:55:28 GMT-0500 (Eastern Standard Time),352479.10000038147,iron,1100,I,m,m,None,523,323.0,200.0,108,2,2157.400001525879,350321.6999988556,9035,iron,NF,C,349308,349308,347484,348592,347484,349641,349108,349108,349641,58
56,test,1,inc,1,z,Fri Feb 20 2026 09:55:28 GMT-0500 (Eastern Standard Time),354345.79999923706,gold,800,I,z,z,None,527,328.0,199.0,37,2,1857.1999988555908,352488.60000038147,9035,lime,NF,C,351175,351175,349651,350458,349651,351508,350975,350975,351508,59
57,test,1,con,1,z,Fri Feb 20 2026 09:55:28 GMT-0500 (Eastern Standard Time),356245.79999923706,orange,800,I,z,z,None,565,366.0,199.0,17,2,1890.7999992370605,354355.0,9035,orange,NF,C,353041,353041,351517,352325,351517,353408,352842,352842,353408,60
58,test,1,con,1,m,Fri Feb 20 2026 09:55:28 GMT-0500 (Eastern Standard Time),358245.60000038147,gold,900,I,m,m,None,564,365.0,199.0,98,2,1992.2000007629395,356253.39999961853,9035,gold,NF,C,355042,355042,353415,354325,353416,355408,354842,354842,355408,61
59,test,1,inc,1,m,Fri Feb 20 2026 09:55:28 GMT-0500 (Eastern Standard Time),360445.89999961853,plum,1100,I,m,m,None,556,357.0,199.0,112,2,2191.0,358254.89999961853,9035,iron,NF,C,357242,357242,355417,356525,355417,357608,357042,357042,357608,62
60,test,1,inc,1,z,Fri Feb 20 2026 09:55:28 GMT-0500 (Eastern Standard Time),362629.10000038147,lead,1100,I,z,z,None,532,333.0,199.0,48,2,2172.1000003814697,360457.0,9035,pear,NF,C,359442,359442,357619,358725,357619,359791,359242,359242,359791,63
61,test,1,inc,1,z,Fri Feb 20 2026 09:55:28 GMT-0500 (Eastern Standard Time),364662.1999988556,copper,900,I,z,z,None,597,398.0,199.0,30,2,2024.599998474121,362637.60000038147,9035,raisin,NF,C,361425,361425,359800,360708,359800,361824,361225,361225,361824,64
62,test,1,con,1,z,Fri Feb 20 2026 09:55:28 GMT-0500 (Eastern Standard Time),366745.79999923706,banana,1000,I,z,z,None,545,345.0,200.0,3,2,2072.2999992370605,364673.5,9035,banana,NF,C,363558,363558,361836,362842,361836,363908,363358,363358,363908,65
63,test,1,inc,1,m,Fri Feb 20 2026 09:55:28 GMT-0500 (Eastern Standard Time),368912.10000038147,raisin,1100,I,m,m,None,519,320.0,199.0,88,2,2157.7000007629395,366754.39999961853,9035,silver,NF,C,365742,365742,363916,365025,363917,366074,365542,365542,366074,66
64,test,1,inc,1,z,Fri Feb 20 2026 09:55:28 GMT-0500 (Eastern Standard Time),370928.60000038147,silver,1000,I,z,z,None,469,270.0,199.0,7,2,2011.0,368917.60000038147,9035,banana,NF,C,367808,367808,366080,367091,366080,368091,367608,367608,368091,67
65,test,1,con,1,m,Fri Feb 20 2026 09:55:28 GMT-0500 (Eastern Standard Time),373095.6999988556,silver,1100,I,m,m,None,528,329.0,199.0,84,2,2162.0,370933.6999988556,9035,silver,NF,C,369925,369925,368096,369208,368096,370258,369725,369725,370258,68
66,test,1,inc,1,z,Fri Feb 20 2026 09:55:28 GMT-0500 (Eastern Standard Time),375279.1999988556,cobalt,1100,I,z,z,None,538,339.0,199.0,16,2,2174.0,373105.1999988556,9035,cherry,NF,C,372092,372092,370267,371375,370267,372441,371892,371892,372441,69
67,test,1,con,1,z,Fri Feb 20 2026 09:55:28 GMT-0500 (Eastern Standard Time),377262.5,raisin,900,I,z,z,None,540,340.0,200.0,26,2,1973.8999996185303,375288.60000038147,9035,raisin,NF,C,374075,374075,372451,373358,372451,374425,373875,373875,374424,70
68,test,1,inc,1,m,Fri Feb 20 2026 09:55:28 GMT-0500 (Eastern Standard Time),379229.10000038147,cherry,900,I,m,m,None,524,325.0,199.0,78,2,1955.3000011444092,377273.79999923706,9035,copper,NF,C,376058,376058,374436,375342,374436,376391,375858,375858,376391,71
69,test,1,inc,1,m,Fri Feb 20 2026 09:55:28 GMT-0500 (Eastern Standard Time),381312.39999961853,kiwi,1000,I,m,m,None,537,338.0,199.0,119,2,2071.2999992370605,379241.10000038147,9035,zinc,NF,C,378125,378125,376403,377408,376403,378475,377925,377925,378474,72
70,test,1,inc,1,z,Fri Feb 20 2026 09:55:28 GMT-0500 (Eastern Standard Time),383379.10000038147,zinc,1000,I,z,z,None,518,318.0,200.0,63,2,2057.1000003814697,381322.0,9035,plum,NF,C,380208,380209,378484,379492,378484,380541,380008,380008,380541,73
71,test,1,inc,1,m,Fri Feb 20 2026 09:55:28 GMT-0500 (Eastern Standard Time),385512.5,orange,1000,I,m,m,None,595,396.0,199.0,79,2,2125.0,383387.5,9035,copper,NF,C,382275,382275,380550,381558,380550,382675,382075,382075,382674,74
72,test,1,con,1,z,Fri Feb 20 2026 09:55:28 GMT-0500 (Eastern Standard Time),387529.10000038147,kiwi,900,I,z,z,None,579,379.0,200.0,50,2,2007.2000007629395,385521.89999961853,9035,kiwi,NF,C,384308,384308,382684,383592,382684,384691,384108,384108,384691,75
73,test,1,con,1,m,Fri Feb 20 2026 09:55:28 GMT-0500 (Eastern Standard Time),389545.79999923706,iron,900,I,m,m,None,577,378.0,199.0,106,2,2007.6999988555908,387538.10000038147,9035,iron,NF,C,386325,386325,384700,385608,384700,386708,386125,386125,386708,76
74,test,1,inc,1,m,Fri Feb 20 2026 09:55:28 GMT-0500 (Eastern Standard Time),391445.79999923706,lime,800,I,m,m,None,548,349.0,199.0,117,2,1887.6000003814697,389558.1999988556,9035,zinc,NF,C,388242,388242,386720,387525,386721,388608,388041,388042,388608,77
75,test,1,con,1,z,Fri Feb 20 2026 09:55:28 GMT-0500 (Eastern Standard Time),393362.39999961853,cherry,900,I,z,z,None,468,269.0,199.0,10,2,1908.0,391454.39999961853,9035,cherry,NF,C,390242,390242,388616,389525,388617,390525,390042,390042,390524,78
76,test,1,inc,1,m,Fri Feb 20 2026 09:55:28 GMT-0500 (Eastern Standard Time),395462.10000038147,raisin,1100,I,m,m,None,465,265.0,200.0,72,2,2088.800001144409,393373.29999923706,9035,bronze,NF,C,392358,392358,390535,391642,390536,392624,392158,392158,392624,79
77,test,1,con,1,z,Fri Feb 20 2026 09:55:28 GMT-0500 (Eastern Standard Time),397645.6999988556,cherry,1100,I,z,z,None,541,341.0,200.0,12,2,2174.599998474121,395471.10000038147,9035,cherry,NF,C,394458,394458,392633,393742,392633,394808,394258,394258,394808,80
78,test,1,con,1,m,Fri Feb 20 2026 09:55:28 GMT-0500 (Eastern Standard Time),399529.10000038147,cobalt,900,I,m,m,None,444,245.0,199.0,90,2,1874.3000011444092,397654.79999923706,9035,cobalt,NF,C,396442,396442,394817,395725,394817,396691,396242,396242,396691,81
79,test,1,con,1,m,Fri Feb 20 2026 09:55:28 GMT-0500 (Eastern Standard Time),401395.79999923706,zinc,900,I,m,m,None,417,217.0,200.0,114,2,1854.7999992370605,399541.0,9035,zinc,NF,C,398325,398325,396703,397608,396703,398558,398124,398124,398558,82
80,test,1,con,1,z,Fri Feb 20 2026 09:55:28 GMT-0500 (Eastern Standard Time),403295.89999961853,pear,900,I,z,z,None,454,255.0,199.0,42,2,1889.3999996185303,401406.5,9035,pear,NF,C,400192,400192,398569,399475,398569,400458,399992,399992,400458,83
81,test,1,inc,1,z,Fri Feb 20 2026 09:55:28 GMT-0500 (Eastern Standard Time),405179.10000038147,iron,900,I,z,z,None,442,243.0,199.0,62,2,1875.2000007629395,403303.89999961853,9035,plum,NF,C,402092,402092,400466,401375,400466,402341,401892,401892,402341,84
82,test,1,con,1,m,Fri Feb 20 2026 09:55:28 GMT-0500 (Eastern Standard Time),406962.39999961853,zinc,800,I,m,m,None,435,236.0,199.0,113,2,1772.7000007629395,405189.6999988556,9035,zinc,NF,C,403875,403875,402352,403158,402352,404125,403675,403675,404124,85
82,test,1,con,0,m,Fri Feb 20 2026 09:55:28 GMT-0500 (Eastern Standard Time),408795.79999923706,silver,800,I,z,z,None,493,293.0,200.0,81,2,1824.2999992370605,406971.5,9035,silver,NF,C,405658,405658,404134,404941,404134,405958,405458,405458,405958,86
83,test,1,con,1,z,Fri Feb 20 2026 09:55:28 GMT-0500 (Eastern Standard Time),410962.39999961853,plum,800,I,z,z,None,818,619.0,199.0,57,2,2155.6000003814697,408806.79999923706,9035,plum,NF,C,407492,407492,405969,406775,405969,408125,407292,407292,408124,87
84,test,1,inc,1,z,Fri Feb 20 2026 09:55:28 GMT-0500 (Eastern Standard Time),412879.10000038147,bronze,800,I,z,z,None,573,373.0,200.0,29,2,1907.900001525879,410971.1999988556,9035,raisin,NF,C,409658,409658,408133,408941,408133,410041,409458,409458,410041,88
85,test,1,inc,1,m,Fri Feb 20 2026 09:55:28 GMT-0500 (Eastern Standard Time),414678.79999923706,lime,800,I,m,m,None,463,264.0,199.0,101,2,1789.3999996185303,412889.39999961853,9035,gold,NF,C,411575,411575,410051,410858,410052,411841,411375,411375,411841,89
86,test,1,inc,1,z,Fri Feb 20 2026 09:55:28 GMT-0500 (Eastern Standard Time),416845.79999923706,lead,1100,I,z,z,None,523,324.0,199.0,40,2,2158.0,414687.79999923706,9035,lime,NF,C,413675,413675,411850,412958,411850,414008,413475,413475,414008,90
87,test,1,con,1,z,Fri Feb 20 2026 09:55:28 GMT-0500 (Eastern Standard Time),418712.39999961853,pear,800,I,z,z,None,529,329.0,200.0,41,2,1857.3999996185303,416855.0,9035,pear,NF,C,415541,415542,414017,414825,414017,415875,415341,415341,415874,91
88,test,1,con,1,m,Fri Feb 20 2026 09:55:28 GMT-0500 (Eastern Standard Time),420595.6999988556,copper,900,I,m,m,None,434,234.0,200.0,74,2,1874.099998474121,418721.60000038147,9035,copper,NF,C,417508,417508,415884,416792,415884,417758,417308,417308,417758,92
89,test,1,inc,1,m,Fri Feb 20 2026 09:55:28 GMT-0500 (Eastern Standard Time),422545.89999961853,lime,800,I,m,m,None,602,403.0,199.0,125,2,1935.2000007629395,420610.6999988556,9035,lead,NF,C,419291,419292,417773,418575,417773,419708,419092,419092,419708,93
90,test,1,con,1,z,Fri Feb 20 2026 09:55:28 GMT-0500 (Eastern Standard Time),424812.5,lime,1100,I,z,z,None,625,425.0,200.0,36,2,2255.300001144409,422557.1999988556,9035,lime,NF,C,421542,421542,419719,420825,419720,421975,421341,421341,421974,94
91,test,1,inc,1,m,Fri Feb 20 2026 09:55:28 GMT-0500 (Eastern Standard Time),426829.10000038147,cherry,900,I,m,m,None,575,375.0,200.0,70,2,2005.400001525879,424823.6999988556,9035,bronze,NF,C,423608,423608,421986,422891,421986,423991,423408,423408,423991,95
92,test,1,con,1,m,Fri Feb 20 2026 09:55:28 GMT-0500 (Eastern Standard Time),429029.10000038147,cobalt,1100,I,m,m,None,565,366.0,199.0,92,2,2191.1000003814697,426838.0,9035,cobalt,NF,C,425825,425825,424000,425108,424000,426191,425625,425625,426191,96
93,test,1,inc,1,m,Fri Feb 20 2026 09:55:28 GMT-0500 (Eastern Standard Time),431212.39999961853,plum,1100,I,m,m,None,541,342.0,199.0,128,2,2174.3999996185303,429038.0,9035,lead,NF,C,428025,428025,426200,427308,426200,428375,427825,427825,428374,97
94,test,1,con,1,z,Fri Feb 20 2026 09:55:28 GMT-0500 (Eastern Standard Time),433129.10000038147,cherry,800,I,z,z,None,579,379.0,200.0,9,2,1905.7000007629395,431223.39999961853,9035,cherry,NF,C,429908,429908,428385,429191,428386,430291,429708,429708,430291,98
95,test,1,inc,1,z,Fri Feb 20 2026 09:55:28 GMT-0500 (Eastern Standard Time),435095.39999961853,copper,900,I,z,z,None,529,330.0,199.0,6,2,1954.7999992370605,433140.60000038147,9035,banana,NF,C,431925,431925,430303,431208,430303,432258,431725,431725,432257,99
96,test,1,con,1,m,Fri Feb 20 2026 09:55:28 GMT-0500 (Eastern Standard Time),437195.79999923706,lead,1000,I,m,m,None,559,359.0,200.0,123,2,2091.2999992370605,435104.5,9035,lead,NF,C,433991,433992,432267,433275,432267,434358,433791,433791,434358,100
97,test,1,con,1,m,Fri Feb 20 2026 09:55:28 GMT-0500 (Eastern Standard Time),439129.10000038147,zinc,1000,I,m,m,None,395,195.0,200.0,115,2,1925.0,437204.10000038147,9035,zinc,NF,C,436091,436092,434366,435375,434366,436291,435891,435891,436291,101
98,test,1,inc,1,z,Fri Feb 20 2026 09:55:28 GMT-0500 (Eastern Standard Time),440995.6999988556,bronze,800,I,z,z,None,516,317.0,199.0,5,2,1857.3999996185303,439138.29999923706,9035,banana,NF,C,437825,437825,436300,437108,436301,438158,437625,437625,438158,102
99,test,1,con,1,z,Fri Feb 20 2026 09:55:28 GMT-0500 (Eastern Standard Time),443029.10000038147,pear,1000,I,z,z,None,483,283.0,200.0,43,2,2024.8000011444092,441004.29999923706,9035,pear,NF,C,439891,439892,438166,439175,438167,440191,439691,439691,440191,103
100,test,1,inc,1,m,Fri Feb 20 2026 09:55:28 GMT-0500 (Eastern Standard Time),445128.79999923706,orange,1000,I,m,m,None,561,362.0,199.0,95,2,2090.6000003814697,443038.1999988556,9035,cobalt,NF,C,441925,441925,440200,441208,440200,442291,441725,441725,442291,104
101,test,1,con,1,z,Fri Feb 20 2026 09:55:28 GMT-0500 (Eastern Standard Time),447112.29999923706,lime,900,I,z,z,None,545,346.0,199.0,34,2,1974.1999988555908,445138.10000038147,9035,lime,NF,C,443925,443925,442300,443208,442300,444274,443725,443725,444274,105
102,test,1,con,1,z,Fri Feb 20 2026 09:55:28 GMT-0500 (Eastern Standard Time),449279.10000038147,raisin,1000,I,z,z,None,623,423.0,200.0,27,2,2153.5,447125.60000038147,9035,raisin,NF,C,446008,446008,444288,445291,444288,446441,445808,445808,446441,106
103,test,1,con,1,m,Fri Feb 20 2026 09:55:28 GMT-0500 (Eastern Standard Time),451145.60000038147,lead,900,I,m,m,None,428,229.0,199.0,122,2,1857.5,449288.10000038147,9035,lead,NF,C,448074,448074,446450,447358,446450,448308,447875,447875,448308,107
104,test,1,inc,1,z,Fri Feb 20 2026 09:55:28 GMT-0500 (Eastern Standard Time),453095.5,copper,900,I,z,z,None,512,313.0,199.0,14,2,1941.8000011444092,451153.6999988556,9035,cherry,NF,C,449941,449942,448316,449225,448316,450258,449742,449742,450258,108
105,test,1,inc,1,m,Fri Feb 20 2026 09:55:28 GMT-0500 (Eastern Standard Time),455295.79999923706,plum,1100,I,m,m,None,556,356.0,200.0,104,2,2192.199998855591,453103.60000038147,9035,gold,NF,C,452091,452091,450266,451375,450266,452458,451891,451891,452458,109
106,test,1,inc,1,m,Fri Feb 20 2026 09:55:28 GMT-0500 (Eastern Standard Time),457395.6999988556,pear,900,I,m,m,None,651,451.0,200.0,126,2,2091.8999996185303,455303.79999923706,9035,lead,NF,C,454091,454091,452466,453375,452466,454558,453891,453891,454558,110
107,test,1,inc,1,z,Fri Feb 20 2026 09:55:28 GMT-0500 (Eastern Standard Time),459445.5,zinc,1000,I,z,z,None,515,315.0,200.0,39,2,2041.8999996185303,457403.60000038147,9035,lime,NF,C,456291,456292,454566,455575,454566,456608,456091,456091,456608,111
108,test,1,inc,1,m,Fri Feb 20 2026 09:55:28 GMT-0500 (Eastern Standard Time),461245.60000038147,banana,800,I,m,m,None,457,257.0,200.0,85,2,1791.6000003814697,459454.0,9035,silver,NF,C,458141,458142,456616,457425,456616,458408,457941,457941,458408,112
109,test,1,con,1,m,Fri Feb 20 2026 09:55:28 GMT-0500 (Eastern Standard Time),463195.60000038147,copper,1000,I,m,m,None,409,209.0,200.0,75,2,1941.5,461254.10000038147,9035,copper,NF,C,460141,460142,458416,459425,458416,460358,459941,459941,460358,113
110,test,1,con,1,m,Fri Feb 20 2026 09:55:28 GMT-0500 (Eastern Standard Time),465179.0,silver,1000,I,m,m,None,444,244.0,200.0,83,2,1974.0,463205.0,9035,silver,NF,C,462091,462091,460367,461375,460367,462341,461891,461891,462341,114
111,test,1,inc,1,m,Fri Feb 20 2026 09:55:28 GMT-0500 (Eastern Standard Time),467245.79999923706,pear,900,I,m,m,None,624,424.0,200.0,102,2,2056.199998855591,465189.60000038147,9035,gold,NF,C,463975,463975,462352,463258,462352,464408,463774,463774,464408,115
112,test,1,con,1,z,Fri Feb 20 2026 09:55:28 GMT-0500 (Eastern Standard Time),469145.6999988556,lime,800,I,z,z,None,561,362.0,199.0,33,2,1891.0,467254.6999988556,9035,lime,NF,C,465941,465941,464417,465225,464417,466308,465742,465742,466308,116
113,test,1,inc,1,m,Fri Feb 20 2026 09:55:28 GMT-0500 (Eastern Standard Time),471112.1999988556,pear,900,I,m,m,None,528,329.0,199.0,118,2,1957.5,469154.6999988556,9035,zinc,NF,C,467941,467942,466317,467225,466317,468274,467742,467742,468274,117
114,test,1,con,1,z,Fri Feb 20 2026 09:55:28 GMT-0500 (Eastern Standard Time),473179.10000038147,cherry,1000,I,z,z,None,527,327.0,200.0,11,2,2055.0,471124.10000038147,9035,cherry,NF,C,470008,470008,468286,469291,468286,470341,469808,469808,470341,118
115,test,1,inc,1,m,Fri Feb 20 2026 09:55:28 GMT-0500 (Eastern Standard Time),475279.0,kiwi,1000,I,m,m,None,555,356.0,199.0,111,2,2090.8999996185303,473188.10000038147,9035,iron,NF,C,472075,472075,470350,471358,470350,472441,471875,471875,472441,119
116,test,1,con,1,z,Fri Feb 20 2026 09:55:28 GMT-0500 (Eastern Standard Time),477462.0,orange,1100,I,z,z,None,547,348.0,199.0,20,2,2175.2000007629395,475286.79999923706,9035,orange,NF,C,474275,474275,472449,473558,472449,474624,474075,474075,474624,120
117,test,1,con,1,z,Fri Feb 20 2026 09:55:28 GMT-0500 (Eastern Standard Time),479412.39999961853,plum,900,I,z,z,None,501,301.0,200.0,58,2,1941.3999996185303,477471.0,9035,plum,NF,C,476258,476258,474633,475541,474633,476575,476058,476058,476574,121
118,test,1,con,1,m,Fri Feb 20 2026 09:55:28 GMT-0500 (Eastern Standard Time),481379.0,bronze,800,I,m,m,None,619,419.0,200.0,65,2,1957.7000007629395,479421.29999923706,9035,bronze,NF,C,478108,478108,476583,477392,476584,478541,477908,477908,478541,122
119,test,1,con,1,m,Fri Feb 20 2026 09:55:28 GMT-0500 (Eastern Standard Time),483178.89999961853,copper,800,I,m,m,None,459,260.0,199.0,73,2,1790.8999996185303,481388.0,9035,copper,NF,C,480075,480075,478550,479358,478550,480341,479875,479875,480341,123
120,test,1,inc,1,z,Fri Feb 20 2026 09:55:28 GMT-0500 (Eastern Standard Time),484995.0,bronze,800,I,z,z,None,467,268.0,199.0,13,2,1807.3999996185303,483187.60000038147,9035,cherry,NF,C,481874,481874,480350,481158,480350,482157,481675,481675,482157,124
120,test,1,con,0,z,Fri Feb 20 2026 09:55:28 GMT-0500 (Eastern Standard Time),486862.39999961853,banana,800,I,m,m,None,523,323.0,200.0,1,2,1862.2000007629395,485000.1999988556,9035,banana,NF,C,483691,483692,482162,482975,482163,484024,483491,483491,484024,125
121,test,1,inc,1,m,Fri Feb 20 2026 09:55:28 GMT-0500 (Eastern Standard Time),489078.79999923706,raisin,1100,I,m,m,None,581,381.0,200.0,96,2,2207.5,486871.29999923706,9035,cobalt,NF,C,485858,485858,484033,485141,484034,486241,485658,485658,486241,126
122,test,1,inc,1,m,Fri Feb 20 2026 09:55:28 GMT-0500 (Eastern Standard Time),491095.5,cherry,900,I,m,m,None,579,380.0,199.0,86,2,2007.8000011444092,489087.6999988556,9035,silver,NF,C,487875,487875,486250,487158,486250,488258,487675,487675,488257,127
123,test,1,con,1,m,Fri Feb 20 2026 09:55:28 GMT-0500 (Eastern Standard Time),492995.60000038147,cobalt,800,I,m,m,None,551,351.0,200.0,89,2,1889.5,491106.10000038147,9035,cobalt,NF,C,489791,489791,488268,489075,488268,490158,489591,489591,490158,128
