acc_sum,block,block_c,condition,correct,correct_response,datetime,endtime,flanker,jitter,project,response,response_test_buffer_response,response_test_target_response,response_time,response_time_test_buffer_response,response_time_test_target_response,row_sel,session_number,start_end,starttime,subject_id,target,task,task_vers,time_test_buffer,time_test_buffer_response,time_test_constants,time_test_flanker,time_test_jitter,time_test_logger,time_test_target,time_test_target_response,time_test_variables,trial
0,prac,1,con,0,m,Mon Jan 12 2026 12:48:03 GMT-0500 (Eastern Standard Time),236457.39999961853,zinc,1000,I,None,,,1814,,,15,2,5073.60000038147,231383.79999923706,9028,zinc,NF,C,,,,,,,,,,1
0,prac,1,con,0,m,Mon Jan 12 2026 12:48:03 GMT-0500 (Eastern Standard Time),241523.79999923706,silver,1000,I,None,,,1799,,,11,2,5055.39999961853,236468.39999961853,9028,silver,NF,C,,,,,,,,,,2
0,prac,1,inc,0,z,Mon Jan 12 2026 12:48:03 GMT-0500 (Eastern Standard Time),246690.5,lead,1100,I,None,,,1799,,,8,2,5155.5,241535.0,9028,plum,NF,C,,,,,,,,,,3
1,prac,1,inc,1,z,Mon Jan 12 2026 12:48:03 GMT-0500 (Eastern Standard Time),249607.29999923706,cobalt,1100,I,z,,,500,,,4,2,2906.0,246701.29999923706,9028,raisin,NF,C,,,,,,,,,,4
2,prac,1,con,1,z,Mon Jan 12 2026 12:48:03 GMT-0500 (Eastern Standard Time),252173.89999961853,lime,800,I,z,,,459,,,5,2,2557.300000190735,249616.5999994278,9028,lime,NF,C,,,,,,,,,,5
2,prac,1,inc,0,m,Mon Jan 12 2026 12:48:03 GMT-0500 (Eastern Standard Time),254740.5999994278,raisin,1100,I,z,,,154,,,12,2,2556.5,252184.0999994278,9028,cobalt,NF,C,,,,,,,,,,6
2,prac,1,inc,0,m,Mon Jan 12 2026 12:48:03 GMT-0500 (Eastern Standard Time),259707.0999994278,pear,900,I,None,,,1799,,,14,2,4957.099999427795,254750.0,9028,iron,NF,C,,,,,,,,,,7
2,prac,1,con,0,m,Mon Jan 12 2026 12:48:03 GMT-0500 (Eastern Standard Time),264573.79999923706,gold,800,I,None,,,1799,,,13,2,4856.099999427795,259717.69999980927,9028,gold,NF,C,,,,,,,,,,8
3,prac,1,con,1,z,Mon Jan 12 2026 12:48:03 GMT-0500 (Eastern Standard Time),267640.69999980927,orange,1000,I,z,,,749,,,3,2,3058.199999809265,264582.5,9028,orange,NF,C,,,,,,,,,,9
4,prac,1,con,1,z,Mon Jan 12 2026 12:48:03 GMT-0500 (Eastern Standard Time),270307.29999923706,banana,800,I,z,,,554,,,1,2,2655.5999994277954,267651.69999980927,9028,banana,NF,C,,,,,,,,,,10
5,prac,1,con,1,z,Mon Jan 12 2026 12:48:03 GMT-0500 (Eastern Standard Time),273174.0,kiwi,1000,I,z,,,551,,,7,2,2854.2000007629395,270319.79999923706,9028,kiwi,NF,C,,,,,,,,,,11
6,prac,1,inc,1,z,Mon Jan 12 2026 12:48:03 GMT-0500 (Eastern Standard Time),275890.5,iron,900,I,z,,,504,,,6,2,2707.800000190735,273182.69999980927,9028,pear,NF,C,,,,,,,,,,12
7,prac,1,inc,1,m,Mon Jan 12 2026 12:48:03 GMT-0500 (Eastern Standard Time),278840.5999994278,plum,1100,I,m,,,533,,,16,2,2939.199999809265,275901.39999961853,9028,lead,NF,C,,,,,,,,,,13
8,prac,1,inc,1,m,Mon Jan 12 2026 12:48:03 GMT-0500 (Eastern Standard Time),281607.19999980927,cherry,900,I,m,,,551,,,10,2,2757.4000005722046,278849.79999923706,9028,copper,NF,C,,,,,,,,,,14
9,prac,1,inc,1,z,Mon Jan 12 2026 12:48:03 GMT-0500 (Eastern Standard Time),284307.19999980927,copper,900,I,z,,,487,,,2,2,2688.199999809265,281619.0,9028,cherry,NF,C,,,,,,,,,,15
10,prac,1,con,1,m,Mon Jan 12 2026 12:48:03 GMT-0500 (Eastern Standard Time),286807.0999994278,bronze,800,I,m,,,383,,,9,2,2490.5999994277954,284316.5,9028,bronze,NF,C,,,,,,,,,,16
1,test,1,inc,1,m,Mon Jan 12 2026 12:48:03 GMT-0500 (Eastern Standard Time),322057.29999923706,raisin,1100,I,m,m,None,599,400.0,199.0,80,2,2242.5,319814.79999923706,9028,copper,NF,C,314222,314222,312396,313505,312396,314638,314022,314022,314638,1
2,test,1,inc,1,z,Mon Jan 12 2026 12:48:03 GMT-0500 (Eastern Standard Time),324073.5999994278,iron,900,I,z,z,None,566,367.0,199.0,38,2,2007.0999994277954,322066.5,9028,lime,NF,C,316272,316272,314648,315555,314648,316655,316072,316072,316655,2
3,test,1,con,1,m,Mon Jan 12 2026 12:48:03 GMT-0500 (Eastern Standard Time),326073.69999980927,copper,1000,I,m,m,None,464,265.0,199.0,75,2,1990.5,324083.19999980927,9028,copper,NF,C,318389,318389,316664,317672,316665,318655,318189,318189,318655,3
4,test,1,con,1,z,Mon Jan 12 2026 12:48:03 GMT-0500 (Eastern Standard Time),327856.89999961853,raisin,800,I,z,z,None,440,241.0,199.0,25,2,1774.1000003814697,326082.79999923706,9028,raisin,NF,C,320189,320189,318664,319472,318664,320438,319989,319989,320438,4
5,test,1,inc,1,z,Mon Jan 12 2026 12:48:03 GMT-0500 (Eastern Standard Time),329973.69999980927,lead,1100,I,z,z,None,470,271.0,199.0,48,2,2107.300000190735,327866.39999961853,9028,pear,NF,C,322272,322272,320447,321555,320448,322555,322072,322072,322555,5
6,test,1,inc,1,m,Mon Jan 12 2026 12:48:03 GMT-0500 (Eastern Standard Time),331907.0,pear,900,I,m,m,None,488,289.0,199.0,110,2,1924.6000003814697,329982.39999961853,9028,iron,NF,C,324189,324189,322563,323472,322564,324488,323989,323989,324488,6
7,test,1,con,1,z,Mon Jan 12 2026 12:48:03 GMT-0500 (Eastern Standard Time),334106.89999961853,banana,1100,I,z,z,None,563,364.0,199.0,4,2,2190.8999996185303,331916.0,9028,banana,NF,C,326322,326322,324497,325605,324497,326688,326122,326122,326688,7
8,test,1,con,1,z,Mon Jan 12 2026 12:48:03 GMT-0500 (Eastern Standard Time),335973.69999980927,pear,900,I,z,z,None,419,220.0,199.0,42,2,1858.1999998092651,334115.5,9028,pear,NF,C,328322,328322,326697,327605,326697,328555,328122,328122,328555,8
9,test,1,inc,1,m,Mon Jan 12 2026 12:48:03 GMT-0500 (Eastern Standard Time),337890.39999961853,kiwi,1000,I,m,m,None,372,173.0,199.0,127,2,1907.6999998092651,335982.69999980927,9028,lead,NF,C,330289,330289,328564,329572,328564,330471,330089,330089,330471,9
9,test,1,con,0,m,Mon Jan 12 2026 12:48:03 GMT-0500 (Eastern Standard Time),340190.29999923706,bronze,1000,I,z,z,None,762,562.0,200.0,67,2,2289.8999996185303,337900.39999961853,9028,bronze,NF,C,332205,332205,330481,331489,330482,332771,332005,332005,332771,10
10,test,1,inc,1,m,Mon Jan 12 2026 12:48:03 GMT-0500 (Eastern Standard Time),342373.69999980927,plum,1100,I,m,m,None,537,337.0,200.0,104,2,2174.300000190735,340199.39999961853,9028,gold,NF,C,334605,334605,332780,333889,332781,334955,334405,334405,334955,11
11,test,1,inc,1,z,Mon Jan 12 2026 12:48:03 GMT-0500 (Eastern Standard Time),344323.69999980927,zinc,1000,I,z,z,None,404,205.0,199.0,47,2,1937.5,342386.19999980927,9028,pear,NF,C,336689,336689,334967,335972,334968,336905,336488,336489,336905,12
12,test,1,con,1,m,Mon Jan 12 2026 12:48:03 GMT-0500 (Eastern Standard Time),346473.5999994278,copper,1100,I,m,m,None,498,299.0,199.0,76,2,2141.800000190735,344331.79999923706,9028,copper,NF,C,338739,338739,336913,338022,336913,339055,338539,338539,339055,13
13,test,1,con,1,m,Mon Jan 12 2026 12:48:03 GMT-0500 (Eastern Standard Time),348307.0,cobalt,800,I,m,m,None,489,289.0,200.0,89,2,1825.1000003814697,346481.89999961853,9028,cobalt,NF,C,340589,340589,339063,339872,339063,340888,340388,340388,340888,14
14,test,1,inc,1,z,Mon Jan 12 2026 12:48:03 GMT-0500 (Eastern Standard Time),350173.69999980927,gold,800,I,z,z,None,527,328.0,199.0,45,2,1856.8000001907349,348316.89999961853,9028,pear,NF,C,342422,342422,340898,341705,340898,342755,342222,342222,342755,15
15,test,1,con,1,m,Mon Jan 12 2026 12:48:03 GMT-0500 (Eastern Standard Time),352307.0,bronze,1100,I,m,m,None,489,290.0,199.0,68,2,2125.1000003814697,350181.89999961853,9028,bronze,NF,C,344589,344589,342763,343872,342763,344888,344389,344389,344888,16
16,test,1,con,1,z,Mon Jan 12 2026 12:48:03 GMT-0500 (Eastern Standard Time),354190.29999923706,kiwi,800,I,z,z,None,545,345.0,200.0,49,2,1872.0,352318.29999923706,9028,kiwi,NF,C,346421,346421,344899,345704,344900,346771,346221,346221,346771,17
17,test,1,inc,1,m,Mon Jan 12 2026 12:48:03 GMT-0500 (Eastern Standard Time),356173.5999994278,orange,1000,I,m,m,None,444,244.0,200.0,87,2,1975.0,354198.5999994278,9028,silver,NF,C,348505,348506,346780,347789,346780,348755,348305,348305,348755,18
18,test,1,inc,1,m,Mon Jan 12 2026 12:48:03 GMT-0500 (Eastern Standard Time),358173.5,pear,900,I,m,m,None,560,361.0,199.0,126,2,1988.4000005722046,356185.0999994278,9028,lead,NF,C,350389,350389,348766,349672,348767,350755,350189,350189,350755,19
19,test,1,con,1,m,Mon Jan 12 2026 12:48:03 GMT-0500 (Eastern Standard Time),360023.69999980927,iron,800,I,m,m,None,501,301.0,200.0,105,2,1841.1999998092651,358182.5,9028,iron,NF,C,352289,352289,350764,351572,350764,352605,352088,352088,352605,20
20,test,1,inc,1,z,Mon Jan 12 2026 12:48:03 GMT-0500 (Eastern Standard Time),361823.69999980927,bronze,800,I,z,z,None,458,259.0,199.0,5,2,1788.9000005722046,360034.79999923706,9028,banana,NF,C,354139,354139,352616,353422,352616,354405,353939,353939,354405,21
21,test,1,inc,1,m,Mon Jan 12 2026 12:48:03 GMT-0500 (Eastern Standard Time),363907.0,orange,1000,I,m,m,None,539,340.0,199.0,95,2,2073.1000003814697,361833.89999961853,9028,cobalt,NF,C,356139,356139,354415,355421,354416,356488,355938,355939,356488,22
22,test,1,inc,1,m,Mon Jan 12 2026 12:48:03 GMT-0500 (Eastern Standard Time),366006.89999961853,plum,1100,I,m,m,None,451,252.0,199.0,112,2,2090.199999809265,363916.69999980927,9028,iron,NF,C,358322,358322,356498,357605,356498,358588,358122,358122,358588,23
23,test,1,inc,1,m,Mon Jan 12 2026 12:48:03 GMT-0500 (Eastern Standard Time),367857.5,lime,800,I,m,m,None,507,308.0,199.0,117,2,1841.7000007629395,366015.79999923706,9028,zinc,NF,C,360122,360122,358597,359405,358597,360439,359922,359922,360439,24
24,test,1,inc,1,z,Mon Jan 12 2026 12:48:03 GMT-0500 (Eastern Standard Time),369807.0,zinc,1000,I,z,z,None,409,210.0,199.0,63,2,1943.6000003814697,367863.39999961853,9028,plum,NF,C,362172,362172,360444,361455,360445,362388,361972,361972,362388,25
25,test,1,inc,1,z,Mon Jan 12 2026 12:48:03 GMT-0500 (Eastern Standard Time),371840.29999923706,iron,900,I,z,z,None,591,392.0,199.0,46,2,2024.1999998092651,369816.0999994278,9028,pear,NF,C,364022,364022,362397,363305,362397,364421,363822,363822,364421,26
26,test,1,con,1,z,Mon Jan 12 2026 12:48:03 GMT-0500 (Eastern Standard Time),373773.5999994278,banana,800,I,z,z,None,595,395.0,200.0,1,2,1924.6999998092651,371848.89999961853,9028,banana,NF,C,365955,365955,364430,365238,364430,366355,365755,365755,366355,27
27,test,1,con,1,z,Mon Jan 12 2026 12:48:03 GMT-0500 (Eastern Standard Time),375990.29999923706,kiwi,1000,I,z,z,None,671,471.0,200.0,51,2,2208.5,373781.79999923706,9028,kiwi,NF,C,368088,368088,366363,367372,366363,368571,367888,367888,368571,28
28,test,1,con,1,z,Mon Jan 12 2026 12:48:03 GMT-0500 (Eastern Standard Time),377906.89999961853,orange,900,I,z,z,None,473,273.0,200.0,18,2,1907.5,375999.39999961853,9028,orange,NF,C,370205,370205,368580,369488,368581,370488,370005,370005,370488,29
29,test,1,con,1,m,Mon Jan 12 2026 12:48:03 GMT-0500 (Eastern Standard Time),379823.5999994278,lead,900,I,m,m,None,475,276.0,199.0,122,2,1908.0999994277954,377915.5,9028,lead,NF,C,372122,372122,370497,371405,370497,372405,371922,371922,372405,30
30,test,1,inc,1,m,Mon Jan 12 2026 12:48:03 GMT-0500 (Eastern Standard Time),382007.0,plum,1100,I,m,m,None,535,335.0,200.0,128,2,2174.2000007629395,379832.79999923706,9028,lead,NF,C,374239,374239,372414,373522,372414,374588,374038,374038,374588,31
31,test,1,inc,1,m,Mon Jan 12 2026 12:48:03 GMT-0500 (Eastern Standard Time),384173.5999994278,raisin,1100,I,m,m,None,527,328.0,199.0,88,2,2155.800000190735,382017.79999923706,9028,silver,NF,C,376422,376422,374599,375705,374599,376755,376222,376222,376755,32
32,test,1,con,1,m,Mon Jan 12 2026 12:48:03 GMT-0500 (Eastern Standard Time),386057.0999994278,iron,900,I,m,m,None,433,233.0,200.0,106,2,1875.3999996185303,384181.69999980927,9028,iron,NF,C,378389,378389,376763,377672,376763,378638,378188,378188,378638,33
33,test,1,con,1,z,Mon Jan 12 2026 12:48:03 GMT-0500 (Eastern Standard Time),387973.69999980927,banana,900,I,z,z,None,469,270.0,199.0,2,2,1907.9000005722046,386065.79999923706,9028,banana,NF,C,380272,380272,378647,379555,378647,380555,380072,380072,380555,34
34,test,1,inc,1,z,Mon Jan 12 2026 12:48:03 GMT-0500 (Eastern Standard Time),390140.19999980927,cobalt,1100,I,z,z,None,529,329.0,200.0,24,2,2157.4000005722046,387982.79999923706,9028,orange,NF,C,382388,382389,380564,381672,380564,382721,382188,382188,382721,35
35,test,1,con,1,z,Mon Jan 12 2026 12:48:03 GMT-0500 (Eastern Standard Time),392106.69999980927,pear,1000,I,z,z,None,431,231.0,200.0,43,2,1958.3000001907349,390148.39999961853,9028,pear,NF,C,384455,384455,382729,383738,382730,384688,384255,384255,384688,36
36,test,1,inc,1,z,Mon Jan 12 2026 12:48:03 GMT-0500 (Eastern Standard Time),394273.5999994278,cobalt,1100,I,z,z,None,524,324.0,200.0,8,2,2160.199999809265,392113.39999961853,9028,banana,NF,C,386522,386522,384694,385805,384695,386855,386321,386321,386855,37
37,test,1,con,1,z,Mon Jan 12 2026 12:48:03 GMT-0500 (Eastern Standard Time),396356.89999961853,orange,1000,I,z,z,None,537,338.0,199.0,19,2,2075.6000003814697,394281.29999923706,9028,orange,NF,C,388589,388589,386862,387872,386863,388938,388388,388389,388938,38
38,test,1,con,1,m,Mon Jan 12 2026 12:48:03 GMT-0500 (Eastern Standard Time),398273.5,copper,900,I,m,m,None,473,274.0,199.0,74,2,1908.0,396365.5,9028,copper,NF,C,390572,390572,388947,389855,388947,390855,390372,390372,390855,39
39,test,1,inc,1,m,Mon Jan 12 2026 12:48:03 GMT-0500 (Eastern Standard Time),400140.0999994278,cherry,900,I,m,m,None,429,229.0,200.0,94,2,1858.3999996185303,398281.69999980927,9028,cobalt,NF,C,392488,392489,390863,391772,390863,392721,392288,392288,392721,40
40,test,1,con,1,z,Mon Jan 12 2026 12:48:03 GMT-0500 (Eastern Standard Time),402273.5999994278,plum,1100,I,z,z,None,490,291.0,199.0,60,2,2125.199999809265,400148.39999961853,9028,plum,NF,C,394555,394555,392729,393838,392730,394855,394355,394355,394855,41
41,test,1,con,1,m,Mon Jan 12 2026 12:48:03 GMT-0500 (Eastern Standard Time),404206.89999961853,gold,1000,I,m,m,None,393,193.0,200.0,99,2,1924.8999996185303,402282.0,9028,gold,NF,C,396589,396589,394863,395872,394863,396788,396388,396388,396788,42
42,test,1,con,1,z,Mon Jan 12 2026 12:48:03 GMT-0500 (Eastern Standard Time),406373.5999994278,plum,1000,I,z,z,None,620,421.0,199.0,59,2,2158.300000190735,404215.29999923706,9028,plum,NF,C,398522,398522,396796,397805,396797,398955,398322,398322,398955,43
43,test,1,con,1,m,Mon Jan 12 2026 12:48:03 GMT-0500 (Eastern Standard Time),408106.69999980927,gold,800,I,m,m,None,396,197.0,199.0,97,2,1724.9000005722046,406381.79999923706,9028,gold,NF,C,400489,400489,398963,399772,398963,400688,400288,400289,400688,44
44,test,1,con,1,m,Mon Jan 12 2026 12:48:03 GMT-0500 (Eastern Standard Time),409973.5999994278,bronze,900,I,m,m,None,419,220.0,199.0,66,2,1858.5,408115.0999994278,9028,bronze,NF,C,402322,402322,400696,401605,400696,402555,402122,402122,402555,45
45,test,1,con,1,z,Mon Jan 12 2026 12:48:03 GMT-0500 (Eastern Standard Time),412023.5999994278,plum,900,I,z,z,None,601,401.0,200.0,58,2,2040.3999996185303,409983.19999980927,9028,plum,NF,C,404189,404189,402564,403472,402565,404605,403988,403988,404605,46
46,test,1,con,1,m,Mon Jan 12 2026 12:48:03 GMT-0500 (Eastern Standard Time),414123.39999961853,iron,1000,I,m,m,None,564,364.0,200.0,107,2,2091.5,412031.89999961853,9028,iron,NF,C,406338,406338,404613,405622,404613,406704,406138,406138,406704,47
47,test,1,con,1,m,Mon Jan 12 2026 12:48:03 GMT-0500 (Eastern Standard Time),416190.19999980927,silver,1000,I,m,m,None,527,327.0,200.0,83,2,2058.6000003814697,414131.5999994278,9028,silver,NF,C,408438,408439,406713,407722,406713,408771,408238,408238,408771,48
48,test,1,inc,1,z,Mon Jan 12 2026 12:48:03 GMT-0500 (Eastern Standard Time),418407.0,lead,1100,I,z,z,None,570,370.0,200.0,64,2,2205.4000005722046,416201.5999994278,9028,plum,NF,C,410605,410605,408783,409888,408783,410988,410405,410405,410988,49
49,test,1,con,1,m,Mon Jan 12 2026 12:48:03 GMT-0500 (Eastern Standard Time),420490.0,zinc,1100,I,m,m,None,447,248.0,199.0,116,2,2074.6000003814697,418415.39999961853,9028,zinc,NF,C,412822,412822,410996,412105,410997,413071,412622,412622,413071,50
50,test,1,inc,1,m,Mon Jan 12 2026 12:48:03 GMT-0500 (Eastern Standard Time),422756.79999923706,raisin,1100,I,m,m,None,621,421.0,200.0,96,2,2259.2999992370605,420497.5,9028,cobalt,NF,C,414905,414905,413079,414188,413079,415338,414705,414705,415338,51
51,test,1,inc,1,z,Mon Jan 12 2026 12:48:03 GMT-0500 (Eastern Standard Time),424723.5999994278,iron,900,I,z,z,None,522,323.0,199.0,54,2,1957.6999998092651,422765.89999961853,9028,kiwi,NF,C,416971,416971,415347,416255,415347,417305,416772,416772,417305,52
52,test,1,inc,1,m,Mon Jan 12 2026 12:48:03 GMT-0500 (Eastern Standard Time),426540.19999980927,lime,800,I,m,m,None,479,279.0,200.0,125,2,1808.5,424731.69999980927,9028,lead,NF,C,418839,418839,417313,418122,417313,419121,418638,418638,419121,53
53,test,1,con,1,m,Mon Jan 12 2026 12:48:03 GMT-0500 (Eastern Standard Time),428440.29999923706,silver,800,I,m,m,None,551,351.0,200.0,81,2,1891.5999994277954,426548.69999980927,9028,silver,NF,C,420655,420655,419130,419938,419130,421021,420455,420455,421021,54
54,test,1,con,1,z,Mon Jan 12 2026 12:48:03 GMT-0500 (Eastern Standard Time),430390.19999980927,lime,1000,I,z,z,None,403,203.0,200.0,35,2,1940.6999998092651,428449.5,9028,lime,NF,C,422755,422755,421031,422038,421031,422971,422555,422555,422971,55
55,test,1,con,1,z,Mon Jan 12 2026 12:48:03 GMT-0500 (Eastern Standard Time),432273.5999994278,lime,800,I,z,z,None,540,341.0,199.0,33,2,1874.5999994277954,430399.0,9028,lime,NF,C,424505,424505,422980,423788,422980,424855,424305,424305,424855,56
56,test,1,inc,1,z,Mon Jan 12 2026 12:48:03 GMT-0500 (Eastern Standard Time),434240.0999994278,copper,900,I,z,z,None,525,325.0,200.0,30,2,1958.3999996185303,432281.69999980927,9028,raisin,NF,C,426488,426489,424863,425772,424863,426821,426288,426288,426821,57
57,test,1,con,1,m,Mon Jan 12 2026 12:48:03 GMT-0500 (Eastern Standard Time),436040.29999923706,bronze,800,I,m,m,None,451,251.0,200.0,65,2,1789.8999996185303,434250.39999961853,9028,bronze,NF,C,428355,428355,426831,427638,426832,428621,428155,428155,428621,58
58,test,1,con,1,z,Mon Jan 12 2026 12:48:03 GMT-0500 (Eastern Standard Time),438190.19999980927,kiwi,1100,I,z,z,None,511,311.0,200.0,52,2,2141.199999809265,436049.0,9028,kiwi,NF,C,430455,430455,428630,429738,428630,430771,430255,430255,430771,59
59,test,1,inc,1,z,Mon Jan 12 2026 12:48:03 GMT-0500 (Eastern Standard Time),440123.39999961853,copper,900,I,z,z,None,497,298.0,199.0,22,2,1924.8000001907349,438198.5999994278,9028,orange,NF,C,432405,432405,430780,431688,430780,432704,432205,432205,432704,60
60,test,1,inc,1,m,Mon Jan 12 2026 12:48:03 GMT-0500 (Eastern Standard Time),441956.89999961853,banana,800,I,m,m,None,488,288.0,200.0,77,2,1825.1999998092651,440131.69999980927,9028,copper,NF,C,434238,434238,432713,433522,432713,434538,434038,434038,434538,61
61,test,1,inc,1,z,Mon Jan 12 2026 12:48:03 GMT-0500 (Eastern Standard Time),444089.89999961853,cobalt,1100,I,z,z,None,497,298.0,199.0,16,2,2124.0,441965.89999961853,9028,cherry,NF,C,436372,436372,434547,435655,434547,436671,436172,436172,436671,62
62,test,1,con,1,z,Mon Jan 12 2026 12:48:03 GMT-0500 (Eastern Standard Time),446173.5,cherry,1100,I,z,z,None,445,245.0,200.0,12,2,2075.6000003814697,444097.89999961853,9028,cherry,NF,C,438505,438505,436679,437788,436679,438755,438305,438305,438755,63
63,test,1,inc,1,m,Mon Jan 12 2026 12:48:03 GMT-0500 (Eastern Standard Time),448090.19999980927,pear,900,I,m,m,None,466,266.0,200.0,118,2,1908.5,446181.69999980927,9028,zinc,NF,C,440388,440389,438763,439672,438763,440671,440188,440188,440671,64
64,test,1,inc,1,m,Mon Jan 12 2026 12:48:03 GMT-0500 (Eastern Standard Time),450240.19999980927,orange,1000,I,m,m,None,609,410.0,199.0,71,2,2138.1000003814697,448102.0999994278,9028,bronze,NF,C,442405,442405,440683,441688,440683,442821,442205,442205,442821,65
65,test,1,inc,1,z,Mon Jan 12 2026 12:48:03 GMT-0500 (Eastern Standard Time),452323.5,lead,1100,I,z,z,None,439,239.0,200.0,40,2,2075.1000003814697,450248.39999961853,9028,lime,NF,C,444655,444655,442829,443938,442830,444905,444455,444455,444905,66
66,test,1,con,1,z,Mon Jan 12 2026 12:48:03 GMT-0500 (Eastern Standard Time),454473.5,raisin,1000,I,z,z,None,599,399.0,200.0,27,2,2142.1000003814697,452331.39999961853,9028,raisin,NF,C,446639,446639,444912,445922,444913,447055,446438,446438,447055,67
66,test,1,con,0,m,Mon Jan 12 2026 12:48:03 GMT-0500 (Eastern Standard Time),456473.79999923706,zinc,1000,I,z,z,None,466,266.0,200.0,115,2,1992.0999994277954,454481.69999980927,9028,zinc,NF,C,448788,448788,447063,448072,447063,449055,448588,448588,449055,68
67,test,1,inc,1,m,Mon Jan 12 2026 12:48:03 GMT-0500 (Eastern Standard Time),458590.19999980927,cherry,900,I,m,m,None,678,478.0,200.0,70,2,2108.6000003814697,456481.5999994278,9028,bronze,NF,C,450688,450688,449063,449972,449063,451171,450488,450488,451171,69
68,test,1,con,1,z,Mon Jan 12 2026 12:48:03 GMT-0500 (Eastern Standard Time),460456.69999980927,kiwi,900,I,z,z,None,416,217.0,199.0,50,2,1858.6000003814697,458598.0999994278,9028,kiwi,NF,C,452805,452805,451179,452088,451180,453038,452605,452605,453038,70
69,test,1,inc,1,m,Mon Jan 12 2026 12:48:03 GMT-0500 (Eastern Standard Time),462340.19999980927,banana,800,I,m,m,None,537,338.0,199.0,93,2,1874.1999998092651,460466.0,9028,cobalt,NF,C,454572,454572,453047,453855,453047,454921,454372,454372,454921,71
70,test,1,con,1,z,Mon Jan 12 2026 12:48:03 GMT-0500 (Eastern Standard Time),464223.5,cherry,800,I,z,z,None,543,343.0,200.0,9,2,1874.8000001907349,462348.69999980927,9028,cherry,NF,C,456455,456455,454930,455738,454930,456805,456255,456255,456805,72
71,test,1,con,1,m,Mon Jan 12 2026 12:48:03 GMT-0500 (Eastern Standard Time),466240.19999980927,cobalt,900,I,m,m,None,576,376.0,200.0,90,2,2007.6999998092651,464232.5,9028,cobalt,NF,C,458438,458438,456814,457722,456814,458821,458238,458238,458821,73
72,test,1,inc,1,z,Mon Jan 12 2026 12:48:03 GMT-0500 (Eastern Standard Time),468290.0999994278,silver,1000,I,z,z,None,506,307.0,199.0,23,2,2041.3999996185303,466248.69999980927,9028,orange,NF,C,460555,460555,458830,459838,458830,460871,460355,460355,460871,74
73,test,1,inc,1,z,Mon Jan 12 2026 12:48:03 GMT-0500 (Eastern Standard Time),470506.5999994278,lead,1100,I,z,z,None,581,382.0,199.0,56,2,2207.8999996185303,468298.69999980927,9028,kiwi,NF,C,462705,462705,460880,461988,460880,463088,462505,462505,463088,75
74,test,1,inc,1,m,Mon Jan 12 2026 12:48:03 GMT-0500 (Eastern Standard Time),472723.5,plum,1100,I,m,m,None,571,372.0,199.0,120,2,2204.800000190735,470518.69999980927,9028,zinc,NF,C,464922,464922,463100,464205,463100,465305,464722,464722,465305,76
75,test,1,con,1,z,Mon Jan 12 2026 12:48:03 GMT-0500 (Eastern Standard Time),474773.5,cherry,1000,I,z,z,None,504,304.0,200.0,11,2,2037.8000001907349,472735.69999980927,9028,cherry,NF,C,467038,467038,465317,466322,465317,467355,466838,466838,467355,77
76,test,1,inc,1,m,Mon Jan 12 2026 12:48:03 GMT-0500 (Eastern Standard Time),476889.89999961853,raisin,1100,I,m,m,None,482,282.0,200.0,72,2,2105.3999996185303,474784.5,9028,bronze,NF,C,469188,469188,467366,468472,467366,469471,468988,468988,469471,78
77,test,1,inc,1,m,Mon Jan 12 2026 12:48:03 GMT-0500 (Eastern Standard Time),478973.5,cherry,900,I,m,m,None,644,445.0,199.0,78,2,2075.9000005722046,476897.5999994278,9028,copper,NF,C,471105,471105,469479,470388,469479,471555,470905,470905,471555,79
78,test,1,inc,1,m,Mon Jan 12 2026 12:48:03 GMT-0500 (Eastern Standard Time),480873.5,lime,800,I,m,m,None,551,351.0,200.0,109,2,1891.7000007629395,478981.79999923706,9028,iron,NF,C,473088,473088,471563,472372,471563,473455,472888,472888,473454,80
79,test,1,inc,1,m,Mon Jan 12 2026 12:48:03 GMT-0500 (Eastern Standard Time),482723.5999994278,banana,800,I,m,m,None,506,306.0,200.0,69,2,1842.3000001907349,480881.29999923706,9028,bronze,NF,C,474988,474988,473462,474272,473463,475305,474788,474788,475305,81
80,test,1,inc,1,m,Mon Jan 12 2026 12:48:03 GMT-0500 (Eastern Standard Time),484723.5999994278,pear,900,I,m,m,None,556,357.0,199.0,102,2,1992.3999996185303,482731.19999980927,9028,gold,NF,C,476937,476937,475312,476222,475313,477305,476738,476738,477305,82
81,test,1,con,1,m,Mon Jan 12 2026 12:48:03 GMT-0500 (Eastern Standard Time),486723.5,cobalt,1000,I,m,m,None,455,255.0,200.0,91,2,1991.9000005722046,484731.5999994278,9028,cobalt,NF,C,479039,479039,477313,478322,477313,479305,478838,478838,479305,83
82,test,1,inc,1,z,Mon Jan 12 2026 12:48:03 GMT-0500 (Eastern Standard Time),488473.79999923706,bronze,800,I,z,z,None,415,215.0,200.0,29,2,1739.0,486734.79999923706,9028,raisin,NF,C,480838,480839,479316,480122,479316,481055,480638,480638,481055,84
83,test,1,inc,1,m,Mon Jan 12 2026 12:48:03 GMT-0500 (Eastern Standard Time),490590.0999994278,kiwi,1000,I,m,m,None,578,378.0,200.0,111,2,2108.0,488482.0999994278,9028,iron,NF,C,482788,482788,481063,482071,481063,483171,482588,482588,483171,85
84,test,1,con,1,m,Mon Jan 12 2026 12:48:03 GMT-0500 (Eastern Standard Time),492673.39999961853,cobalt,1100,I,m,m,None,441,242.0,199.0,92,2,2069.8999996185303,490603.5,9028,cobalt,NF,C,485005,485005,483185,484288,483185,485255,484805,484805,485254,86
85,test,1,con,1,z,Mon Jan 12 2026 12:48:03 GMT-0500 (Eastern Standard Time),494740.19999980927,lime,1100,I,z,z,None,422,222.0,200.0,36,2,2056.0,492684.19999980927,9028,lime,NF,C,487088,487088,485265,486372,485265,487321,486888,486888,487321,87
86,test,1,con,1,m,Mon Jan 12 2026 12:48:03 GMT-0500 (Eastern Standard Time),496906.5,silver,1100,I,m,m,None,530,331.0,199.0,84,2,2157.300000190735,494749.19999980927,9028,silver,NF,C,489155,489155,487330,488438,487330,489488,488955,488955,489488,88
87,test,1,inc,1,z,Mon Jan 12 2026 12:48:03 GMT-0500 (Eastern Standard Time),499190.0999994278,cobalt,1100,I,z,z,None,635,436.0,199.0,32,2,2272.3999996185303,496917.69999980927,9028,raisin,NF,C,491322,491322,489499,490605,489499,491771,491122,491122,491771,89
88,test,1,inc,1,m,Mon Jan 12 2026 12:48:03 GMT-0500 (Eastern Standard Time),501056.79999923706,cherry,900,I,m,m,None,424,225.0,199.0,86,2,1858.5,499198.29999923706,9028,silver,NF,C,493405,493405,491779,492688,491780,493638,493205,493205,493638,90
88,test,1,con,0,z,Mon Jan 12 2026 12:48:03 GMT-0500 (Eastern Standard Time),503140.19999980927,pear,1100,I,m,m,None,437,238.0,199.0,44,2,2075.199999809265,501065.0,9028,pear,NF,C,495472,495472,493646,494755,493646,495721,495272,495272,495721,91
89,test,1,inc,1,z,Mon Jan 12 2026 12:48:03 GMT-0500 (Eastern Standard Time),505023.5,gold,800,I,z,z,None,542,343.0,199.0,53,2,1874.1000003814697,503149.39999961853,9028,kiwi,NF,C,497255,497255,495730,496538,495731,497605,497055,497055,497605,92
90,test,1,inc,1,m,Mon Jan 12 2026 12:48:03 GMT-0500 (Eastern Standard Time),507140.0999994278,kiwi,1000,I,m,m,None,572,372.0,200.0,103,2,2108.8999996185303,505031.19999980927,9028,gold,NF,C,499338,499338,497612,498622,497612,499721,499138,499138,499721,93
91,test,1,con,1,z,Mon Jan 12 2026 12:48:03 GMT-0500 (Eastern Standard Time),509273.69999980927,banana,1000,I,z,z,None,598,399.0,199.0,3,2,2125.6000003814697,507148.0999994278,9028,banana,NF,C,501455,501455,499729,500738,499729,501855,501255,501255,501855,94
92,test,1,inc,1,z,Mon Jan 12 2026 12:48:03 GMT-0500 (Eastern Standard Time),511323.19999980927,copper,900,I,z,z,None,614,414.0,200.0,6,2,2040.6000003814697,509282.5999994278,9028,banana,NF,C,503488,503488,501864,502772,501864,503904,503288,503288,503904,95
93,test,1,inc,1,z,Mon Jan 12 2026 12:48:03 GMT-0500 (Eastern Standard Time),513190.0999994278,bronze,800,I,z,z,None,521,321.0,200.0,13,2,1858.3000001907349,511331.79999923706,9028,cherry,NF,C,505438,505438,503913,504722,503913,505771,505238,505238,505771,96
94,test,1,con,1,m,Mon Jan 12 2026 12:48:03 GMT-0500 (Eastern Standard Time),515373.39999961853,gold,1100,I,m,m,None,545,345.0,200.0,100,2,2174.699999809265,513198.69999980927,9028,gold,NF,C,507605,507605,505780,506888,505780,507955,507405,507405,507954,97
95,test,1,inc,1,m,Mon Jan 12 2026 12:48:03 GMT-0500 (Eastern Standard Time),517573.39999961853,banana,800,I,m,m,None,853,654.0,199.0,85,2,2191.300000190735,515382.0999994278,9028,silver,NF,C,509488,509488,507963,508772,507964,510155,509289,509289,510154,98
96,test,1,con,1,z,Mon Jan 12 2026 12:48:03 GMT-0500 (Eastern Standard Time),519623.5,lime,900,I,z,z,None,602,402.0,200.0,34,2,2041.8000001907349,517581.69999980927,9028,lime,NF,C,511788,511788,510163,511071,510163,512205,511588,511588,512204,99
97,test,1,inc,1,z,Mon Jan 12 2026 12:48:03 GMT-0500 (Eastern Standard Time),521556.5,bronze,800,I,z,z,None,587,387.0,200.0,21,2,1924.2000007629395,519632.29999923706,9028,orange,NF,C,513738,513738,512213,513022,512214,514138,513538,513538,514138,100
98,test,1,inc,1,z,Mon Jan 12 2026 12:48:03 GMT-0500 (Eastern Standard Time),523440.0999994278,gold,800,I,z,z,None,541,342.0,199.0,61,2,1878.5,521561.5999994278,9028,plum,NF,C,515672,515672,514143,514955,514143,516021,515472,515472,516021,101
99,test,1,con,1,z,Mon Jan 12 2026 12:48:03 GMT-0500 (Eastern Standard Time),525606.7999992371,raisin,900,I,z,z,None,718,519.0,199.0,26,2,2158.5,523448.29999923706,9028,raisin,NF,C,517655,517655,516029,516938,516030,518188,517455,517455,518188,102
100,test,1,con,1,m,Mon Jan 12 2026 12:48:03 GMT-0500 (Eastern Standard Time),527706.5999994278,lead,1100,I,m,m,None,463,264.0,199.0,124,2,2085.3999996185303,525621.1999998093,9028,lead,NF,C,520022,520022,518202,519305,518203,520288,519822,519822,520288,103
101,test,1,con,1,m,Mon Jan 12 2026 12:48:03 GMT-0500 (Eastern Standard Time),529573.5,lead,800,I,m,m,None,519,320.0,199.0,121,2,1858.4000005722046,527715.0999994278,9028,lead,NF,C,521822,521822,520296,521104,520296,522155,521622,521622,522154,104
102,test,1,con,1,z,Mon Jan 12 2026 12:48:03 GMT-0500 (Eastern Standard Time),531373.5,orange,800,I,z,z,None,462,262.0,200.0,17,2,1791.4000005722046,529582.0999994278,9028,orange,NF,C,523688,523688,522163,522971,522163,523955,523488,523488,523955,105
103,test,1,inc,1,m,Mon Jan 12 2026 12:48:03 GMT-0500 (Eastern Standard Time),533440.0,kiwi,1000,I,m,m,None,526,326.0,200.0,119,2,2058.1000003814697,531381.8999996185,9028,zinc,NF,C,525688,525688,523963,524972,523963,526021,525488,525488,526021,106
104,test,1,inc,1,m,Mon Jan 12 2026 12:48:03 GMT-0500 (Eastern Standard Time),535323.1999998093,lime,800,I,m,m,None,546,347.0,199.0,101,2,1874.9000005722046,533448.2999992371,9028,gold,NF,C,527555,527555,526029,526838,526030,527904,527355,527355,527904,107
105,test,1,con,1,m,Mon Jan 12 2026 12:48:03 GMT-0500 (Eastern Standard Time),537640.0999994278,iron,1100,I,m,m,None,668,468.0,200.0,108,2,2307.5999994277954,535332.5,9028,iron,NF,C,529738,529738,527914,529021,527914,530221,529538,529538,530221,108
106,test,1,con,1,z,Mon Jan 12 2026 12:48:03 GMT-0500 (Eastern Standard Time),539706.5,raisin,1100,I,z,z,None,430,231.0,199.0,28,2,2057.6000003814697,537648.8999996185,9028,raisin,NF,C,532055,532055,530230,531338,530230,532288,531855,531855,532288,109
107,test,1,inc,1,z,Mon Jan 12 2026 12:48:03 GMT-0500 (Eastern Standard Time),541706.5999994278,silver,1000,I,z,z,None,464,264.0,200.0,7,2,1990.5,539716.0999994278,9028,banana,NF,C,534022,534022,532297,533304,532298,534288,533821,533821,534288,110
108,test,1,inc,1,z,Mon Jan 12 2026 12:48:03 GMT-0500 (Eastern Standard Time),543806.6999998093,zinc,1000,I,z,z,None,560,360.0,200.0,39,2,2092.199999809265,541714.5,9028,lime,NF,C,536022,536022,534296,535305,534296,536388,535821,535821,536388,111
109,test,1,con,1,m,Mon Jan 12 2026 12:48:03 GMT-0500 (Eastern Standard Time),545739.7999992371,lead,1000,I,m,m,None,396,197.0,199.0,123,2,1924.5,543815.2999992371,9028,lead,NF,C,538121,538122,536396,537405,536397,538321,537921,537922,538321,112
110,test,1,inc,1,z,Mon Jan 12 2026 12:48:03 GMT-0500 (Eastern Standard Time),547806.5999994278,silver,1000,I,z,z,None,526,327.0,199.0,15,2,2058.5,545748.0999994278,9028,cherry,NF,C,540055,540055,538329,539338,538329,540388,539855,539855,540388,113
111,test,1,con,1,z,Mon Jan 12 2026 12:48:03 GMT-0500 (Eastern Standard Time),549840.0999994278,pear,800,I,z,z,None,691,492.0,199.0,41,2,2022.1999998092651,547817.8999996185,9028,pear,NF,C,541922,541922,540399,541205,540399,542421,541721,541722,542421,114
112,test,1,inc,1,z,Mon Jan 12 2026 12:48:03 GMT-0500 (Eastern Standard Time),551856.7999992371,zinc,1000,I,z,z,None,474,275.0,199.0,55,2,2006.5,549850.2999992371,9028,kiwi,NF,C,544155,544155,542431,543438,542432,544438,543955,543955,544438,115
113,test,1,inc,1,z,Mon Jan 12 2026 12:48:03 GMT-0500 (Eastern Standard Time),553823.3999996185,copper,900,I,z,z,None,525,326.0,199.0,14,2,1957.3000001907349,551866.0999994278,9028,cherry,NF,C,546072,546072,544447,545355,544447,546405,545871,545872,546404,116
114,test,1,con,1,m,Mon Jan 12 2026 12:48:03 GMT-0500 (Eastern Standard Time),555606.6999998093,copper,800,I,m,m,None,436,236.0,200.0,73,2,1775.6000003814697,553831.0999994278,9028,copper,NF,C,547938,547938,546412,547221,546412,548188,547738,547738,548188,117
115,test,1,inc,1,z,Mon Jan 12 2026 12:48:03 GMT-0500 (Eastern Standard Time),557423.3999996185,gold,800,I,z,z,None,475,276.0,199.0,37,2,1808.3999996185303,555615.0,9028,lime,NF,C,549721,549722,548196,549005,548196,550004,549521,549522,550004,118
116,test,1,con,1,m,Mon Jan 12 2026 12:48:03 GMT-0500 (Eastern Standard Time),559289.7999992371,zinc,800,I,m,m,None,532,332.0,200.0,113,2,1858.3999996185303,557431.3999996185,9028,zinc,NF,C,551538,551538,550012,550821,550013,551871,551338,551338,551871,119
117,test,1,inc,1,m,Mon Jan 12 2026 12:48:03 GMT-0500 (Eastern Standard Time),561473.3999996185,orange,1000,I,m,m,None,640,441.0,199.0,79,2,2175.6000003814697,559297.7999992371,9028,copper,NF,C,553605,553605,551879,552888,551879,554055,553405,553405,554054,120
118,test,1,con,1,m,Mon Jan 12 2026 12:48:03 GMT-0500 (Eastern Standard Time),563423.2999992371,silver,900,I,m,m,None,510,310.0,200.0,82,2,1941.0,561482.2999992371,9028,silver,NF,C,555688,555688,554063,554971,554064,556004,555488,555488,556004,121
119,test,1,con,1,z,Mon Jan 12 2026 12:48:03 GMT-0500 (Eastern Standard Time),565456.6999998093,orange,1100,I,z,z,None,392,192.0,200.0,20,2,2024.5,563432.1999998093,9028,orange,NF,C,557838,557838,556013,557121,556013,558038,557638,557638,558038,122
120,test,1,inc,1,z,Mon Jan 12 2026 12:48:03 GMT-0500 (Eastern Standard Time),567490.0,iron,900,I,z,z,None,590,390.0,200.0,62,2,2022.9000005722046,565467.0999994278,9028,plum,NF,C,559672,559672,558048,558955,558048,560071,559471,559471,560071,123
121,test,1,inc,1,z,Mon Jan 12 2026 12:48:03 GMT-0500 (Eastern Standard Time),569523.3999996185,silver,1000,I,z,z,None,488,289.0,199.0,31,2,2025.1000003814697,567498.2999992371,9028,raisin,NF,C,561805,561805,560079,561088,560080,562105,561605,561605,562104,124
122,test,1,con,1,m,Mon Jan 12 2026 12:48:03 GMT-0500 (Eastern Standard Time),571523.3999996185,gold,900,I,m,m,None,556,356.0,200.0,98,2,1991.1000003814697,569532.2999992371,9028,gold,NF,C,563738,563738,562113,563021,562114,564105,563538,563538,564104,125
123,test,1,con,1,m,Mon Jan 12 2026 12:48:03 GMT-0500 (Eastern Standard Time),573406.6999998093,zinc,900,I,m,m,None,444,244.0,200.0,114,2,1875.5,571531.1999998093,9028,zinc,NF,C,565738,565738,564112,565021,564112,565988,565538,565538,565988,126
124,test,1,con,1,z,Mon Jan 12 2026 12:48:03 GMT-0500 (Eastern Standard Time),575373.3999996185,cherry,900,I,z,z,None,528,328.0,200.0,10,2,1956.6999998092651,573416.6999998093,9028,cherry,NF,C,567622,567622,565998,566905,565998,567955,567421,567421,567954,127
125,test,1,con,1,z,Mon Jan 12 2026 12:48:03 GMT-0500 (Eastern Standard Time),577206.7999992371,plum,800,I,z,z,None,468,269.0,199.0,57,2,1818.2999992370605,575388.5,9028,plum,NF,C,569505,569505,567970,568788,567971,569788,569305,569305,569788,128
