acc_sum,block,block_c,change,condition,correct,correct_response,datetime,endtime,face,project,response,response_time,row_sel,session_number,start_end,starttime,subject_id,task,task_vers,trial
0,prac,1,,1-Back,,,Mon May 12 2025 15:53:54 GMT-0500 (Central Daylight Time),,050_m_f_n_a.png,O,space,9503,1,1,,,7151,NNB,A,0
0,prac,1,0.0,1-Back,0,m,Mon May 12 2025 15:53:54 GMT-0500 (Central Daylight Time),146925.79999995232,063_y_f_n_a.png,O,None,2010,2,1,2791.399999976158,144134.39999997616,7151,NNB,A,1
0,prac,1,1.0,1-Back,0,z,Mon May 12 2025 15:53:54 GMT-0500 (Central Daylight Time),149005.69999992847,063_y_f_n_a.png,O,m,1298,3,1,2069.0999999046326,146936.60000002384,7151,NNB,A,2
0,prac,1,0.0,1-Back,0,m,Mon May 12 2025 15:53:54 GMT-0500 (Central Daylight Time),151806.69999992847,053_o_m_n_a.png,O,None,2001,4,1,2789.0999999046326,149017.60000002384,7151,NNB,A,3
1,prac,1,0.0,1-Back,1,m,Mon May 12 2025 15:53:54 GMT-0500 (Central Daylight Time),154255.10000002384,058_m_m_n_a.png,O,m,1635,5,1,2437.3000000715256,151817.79999995232,7151,NNB,A,4
1,prac,1,1.0,1-Back,0,z,Mon May 12 2025 15:53:54 GMT-0500 (Central Daylight Time),157038.69999992847,058_m_m_n_a.png,O,None,2006,6,1,2773.6999999284744,154265.0,7151,NNB,A,5
1,prac,1,0.0,1-Back,0,m,Mon May 12 2025 15:53:54 GMT-0500 (Central Daylight Time),159870.10000002384,047_o_f_n_a.png,O,None,2005,7,1,2819.7000000476837,157050.39999997616,7151,NNB,A,6
2,prac,1,0.0,1-Back,1,m,Mon May 12 2025 15:53:54 GMT-0500 (Central Daylight Time),162386.60000002384,045_m_m_n_a.png,O,m,1719,8,1,2505.4000000953674,159881.19999992847,7151,NNB,A,7
3,prac,1,0.0,1-Back,1,m,Mon May 12 2025 15:53:54 GMT-0500 (Central Daylight Time),164519.89999997616,050_m_f_n_a.png,O,m,1343,9,1,2124.100000023842,162395.79999995232,7151,NNB,A,8
3,prac,1,1.0,1-Back,0,z,Mon May 12 2025 15:53:54 GMT-0500 (Central Daylight Time),166484.69999992847,050_m_f_n_a.png,O,m,1175,10,1,1954.0999999046326,164530.60000002384,7151,NNB,A,9
3,prac,1,0.0,1-Back,0,m,Mon May 12 2025 15:53:54 GMT-0500 (Central Daylight Time),169268.69999992847,053_o_m_n_a.png,O,None,2008,11,1,2773.7999999523163,166494.89999997616,7151,NNB,A,10
3,prac,1,0.0,1-Back,0,m,Mon May 12 2025 15:53:54 GMT-0500 (Central Daylight Time),172100.10000002384,010_y_f_n_a.png,O,None,2009,12,1,2820.4000000953674,169279.69999992847,7151,NNB,A,11
0,prac,2,0.0,1-Back,,,Mon May 12 2025 15:53:54 GMT-0500 (Central Daylight Time),172100.10000002384,050_m_f_n_a.png,O,a,18872,1,1,2820.4000000953674,169279.69999992847,7151,NNB,A,0
1,prac,2,0.0,1-Back,1,m,Mon May 12 2025 15:53:54 GMT-0500 (Central Daylight Time),195993.29999995232,063_y_f_n_a.png,O,m,1191,2,1,1957.6999999284744,194035.60000002384,7151,NNB,A,1
1,prac,2,1.0,1-Back,0,z,Mon May 12 2025 15:53:54 GMT-0500 (Central Daylight Time),198773.60000002384,063_y_f_n_a.png,O,None,2005,3,1,2770.9000000953674,196002.69999992847,7151,NNB,A,2
1,prac,2,0.0,1-Back,0,m,Mon May 12 2025 15:53:54 GMT-0500 (Central Daylight Time),201556.19999992847,053_o_m_n_a.png,O,None,2005,4,1,2772.0,198784.19999992847,7151,NNB,A,3
2,prac,2,0.0,1-Back,1,m,Mon May 12 2025 15:53:54 GMT-0500 (Central Daylight Time),203304.0,058_m_m_n_a.png,O,m,932,5,1,1738.1000000238419,201565.89999997616,7151,NNB,A,4
2,prac,2,1.0,1-Back,0,z,Mon May 12 2025 15:53:54 GMT-0500 (Central Daylight Time),205439.5,058_m_m_n_a.png,O,m,1346,6,1,2129.100000023842,203310.39999997616,7151,NNB,A,5
3,prac,2,0.0,1-Back,1,m,Mon May 12 2025 15:53:54 GMT-0500 (Central Daylight Time),207724.10000002384,047_o_f_n_a.png,O,m,1464,7,1,2273.8000000715256,205450.29999995232,7151,NNB,A,6
3,prac,2,0.0,1-Back,0,m,Mon May 12 2025 15:53:54 GMT-0500 (Central Daylight Time),209505.5,045_m_m_n_a.png,O,z,967,8,1,1771.5,207734.0,7151,NNB,A,7
3,prac,2,0.0,1-Back,0,m,Mon May 12 2025 15:53:54 GMT-0500 (Central Daylight Time),212287.39999997616,050_m_f_n_a.png,O,None,2003,9,1,2771.0,209516.39999997616,7151,NNB,A,8
3,prac,2,1.0,1-Back,0,z,Mon May 12 2025 15:53:54 GMT-0500 (Central Daylight Time),214336.89999997616,050_m_f_n_a.png,O,m,1256,10,1,2039.2999999523163,212297.60000002384,7151,NNB,A,9
3,prac,2,0.0,1-Back,0,m,Mon May 12 2025 15:53:54 GMT-0500 (Central Daylight Time),217118.69999992847,053_o_m_n_a.png,O,None,2004,11,1,2769.899999976158,214348.79999995232,7151,NNB,A,10
4,prac,2,0.0,1-Back,1,m,Mon May 12 2025 15:53:54 GMT-0500 (Central Daylight Time),219301.5,010_y_f_n_a.png,O,m,1370,12,1,2170.8000000715256,217130.69999992847,7151,NNB,A,11
0,prac,3,0.0,1-Back,,,Mon May 12 2025 15:53:54 GMT-0500 (Central Daylight Time),219301.5,050_m_f_n_a.png,O,a,1534,1,1,2170.8000000715256,217130.69999992847,7151,NNB,A,0
1,prac,3,0.0,1-Back,1,m,Mon May 12 2025 15:53:54 GMT-0500 (Central Daylight Time),225898.89999997616,063_y_f_n_a.png,O,m,1229,2,1,2006.1000000238419,223892.79999995232,7151,NNB,A,1
2,prac,3,1.0,1-Back,1,z,Mon May 12 2025 15:53:54 GMT-0500 (Central Daylight Time),227997.60000002384,063_y_f_n_a.png,O,z,1317,3,1,2088.9000000953674,225908.69999992847,7151,NNB,A,2
2,prac,3,0.0,1-Back,0,m,Mon May 12 2025 15:53:54 GMT-0500 (Central Daylight Time),230780.60000002384,053_o_m_n_a.png,O,None,2006,4,1,2773.3000000715256,228007.29999995232,7151,NNB,A,3
3,prac,3,0.0,1-Back,1,m,Mon May 12 2025 15:53:54 GMT-0500 (Central Daylight Time),232996.60000002384,058_m_m_n_a.png,O,m,1429,5,1,2207.9000000953674,230788.69999992847,7151,NNB,A,4
3,prac,3,1.0,1-Back,0,z,Mon May 12 2025 15:53:54 GMT-0500 (Central Daylight Time),235245.19999992847,058_m_m_n_a.png,O,m,1459,6,1,2238.5,233006.69999992847,7151,NNB,A,5
3,prac,3,0.0,1-Back,0,m,Mon May 12 2025 15:53:54 GMT-0500 (Central Daylight Time),237762.69999992847,047_o_f_n_a.png,O,z,1744,7,1,2509.5999999046326,235253.10000002384,7151,NNB,A,6
4,prac,3,0.0,1-Back,1,m,Mon May 12 2025 15:53:54 GMT-0500 (Central Daylight Time),240376.89999997616,045_m_m_n_a.png,O,m,1828,8,1,2603.2999999523163,237773.60000002384,7151,NNB,A,7
4,prac,3,0.0,1-Back,0,m,Mon May 12 2025 15:53:54 GMT-0500 (Central Daylight Time),243160.89999997616,050_m_f_n_a.png,O,None,2006,9,1,2774.100000023842,240386.79999995232,7151,NNB,A,8
5,prac,3,1.0,1-Back,1,z,Mon May 12 2025 15:53:54 GMT-0500 (Central Daylight Time),244526.19999992847,050_m_f_n_a.png,O,z,575,10,1,1355.5,243170.69999992847,7151,NNB,A,9
6,prac,3,0.0,1-Back,1,m,Mon May 12 2025 15:53:54 GMT-0500 (Central Daylight Time),246593.0,053_o_m_n_a.png,O,m,1292,11,1,2056.5,244536.5,7151,NNB,A,10
7,prac,3,0.0,1-Back,1,m,Mon May 12 2025 15:53:54 GMT-0500 (Central Daylight Time),248842.69999992847,010_y_f_n_a.png,O,m,1464,12,1,2239.7999999523163,246602.89999997616,7151,NNB,A,11
0,test,1,0.0,1-Back,,,Mon May 12 2025 15:53:54 GMT-0500 (Central Daylight Time),248842.69999992847,063_y_f_n_a.png,O,space,9646,1,1,2239.7999999523163,246602.89999997616,7151,NNB,A,0
1,test,1,0.0,1-Back,1,m,Mon May 12 2025 15:53:54 GMT-0500 (Central Daylight Time),268368.60000002384,043_m_f_n_a.png,O,m,844,2,1,1852.1000000238419,266516.5,7151,NNB,A,1
1,test,1,0.0,1-Back,0,m,Mon May 12 2025 15:53:54 GMT-0500 (Central Daylight Time),270452.60000002384,010_y_f_n_a.png,O,z,1065,3,1,2074.7000000476837,268377.89999997616,7151,NNB,A,2
2,test,1,1.0,1-Back,1,z,Mon May 12 2025 15:53:54 GMT-0500 (Central Daylight Time),272934.7999999523,010_y_f_n_a.png,O,z,1449,4,1,2475.2999999523163,270459.5,7151,NNB,A,3
3,test,1,0.0,1-Back,1,m,Mon May 12 2025 15:53:54 GMT-0500 (Central Daylight Time),275435.39999997616,043_m_f_n_a.png,O,m,1466,5,1,2491.600000023842,272943.7999999523,7151,NNB,A,4
4,test,1,0.0,1-Back,1,m,Mon May 12 2025 15:53:54 GMT-0500 (Central Daylight Time),278251.0,053_o_m_n_a.png,O,m,1784,6,1,2807.0,275444.0,7151,NNB,A,5
5,test,1,1.0,1-Back,1,z,Mon May 12 2025 15:53:54 GMT-0500 (Central Daylight Time),279833.2999999523,053_o_m_n_a.png,O,z,559,7,1,1573.7999999523163,278259.5,7151,NNB,A,6
6,test,1,0.0,1-Back,1,m,Mon May 12 2025 15:53:54 GMT-0500 (Central Daylight Time),281914.7999999523,058_m_m_n_a.png,O,m,1057,8,1,2070.6999999284744,279844.10000002384,7151,NNB,A,7
7,test,1,0.0,1-Back,1,m,Mon May 12 2025 15:53:54 GMT-0500 (Central Daylight Time),283980.7999999523,047_o_f_n_a.png,O,m,1043,9,1,2055.6999999284744,281925.10000002384,7151,NNB,A,8
7,test,1,0.0,1-Back,0,m,Mon May 12 2025 15:53:54 GMT-0500 (Central Daylight Time),286829.60000002384,058_m_m_n_a.png,O,z,1831,10,1,2840.600000023842,283989.0,7151,NNB,A,9
8,test,1,0.0,1-Back,1,m,Mon May 12 2025 15:53:54 GMT-0500 (Central Daylight Time),289330.89999997616,041_y_m_n_a.png,O,m,1484,11,1,2495.0,286835.89999997616,7151,NNB,A,10
9,test,1,1.0,1-Back,1,z,Mon May 12 2025 15:53:54 GMT-0500 (Central Daylight Time),291860.0,041_y_m_n_a.png,O,z,1503,12,1,2522.100000023842,289337.89999997616,7151,NNB,A,11
10,test,1,0.0,1-Back,1,m,Mon May 12 2025 15:53:54 GMT-0500 (Central Daylight Time),294011.6999999285,044_o_f_n_a.png,O,m,1115,13,1,2142.2999999523163,291869.39999997616,7151,NNB,A,12
11,test,1,1.0,1-Back,1,z,Mon May 12 2025 15:53:54 GMT-0500 (Central Daylight Time),295644.10000002384,044_o_f_n_a.png,O,z,605,14,1,1623.5,294020.60000002384,7151,NNB,A,13
12,test,1,0.0,1-Back,1,m,Mon May 12 2025 15:53:54 GMT-0500 (Central Daylight Time),297693.2999999523,008_y_m_n_a.png,O,m,1023,15,1,2040.1000000238419,295653.1999999285,7151,NNB,A,14
13,test,1,0.0,1-Back,1,m,Mon May 12 2025 15:53:54 GMT-0500 (Central Daylight Time),299958.10000002384,050_m_f_n_a.png,O,m,1244,16,1,2254.7000000476837,297703.39999997616,7151,NNB,A,15
14,test,1,0.0,1-Back,1,m,Mon May 12 2025 15:53:54 GMT-0500 (Central Daylight Time),301824.89999997616,046_o_m_n_a.png,O,m,842,17,1,1856.5,299968.39999997616,7151,NNB,A,16
15,test,1,0.0,1-Back,1,m,Mon May 12 2025 15:53:54 GMT-0500 (Central Daylight Time),304090.6999999285,050_m_f_n_a.png,O,m,1249,18,1,2255.5,301835.1999999285,7151,NNB,A,17
0,test,2,0.0,1-Back,,,Mon May 12 2025 15:53:54 GMT-0500 (Central Daylight Time),304090.6999999285,058_m_m_n_a.png,O,space,3022,1,1,2255.5,301835.1999999285,7151,NNB,A,0
1,test,2,0.0,1-Back,1,m,Mon May 12 2025 15:53:54 GMT-0500 (Central Daylight Time),311455.1999999285,043_m_f_n_a.png,O,m,1286,2,1,2307.5999999046326,309147.60000002384,7151,NNB,A,1
2,test,2,1.0,1-Back,1,z,Mon May 12 2025 15:53:54 GMT-0500 (Central Daylight Time),313020.89999997616,043_m_f_n_a.png,O,z,539,3,1,1557.2000000476837,311463.6999999285,7151,NNB,A,2
3,test,2,0.0,1-Back,1,m,Mon May 12 2025 15:53:54 GMT-0500 (Central Daylight Time),315486.5,058_m_m_n_a.png,O,m,1443,4,1,2456.5,313030.0,7151,NNB,A,3
4,test,2,0.0,1-Back,1,m,Mon May 12 2025 15:53:54 GMT-0500 (Central Daylight Time),317237.10000002384,041_y_m_n_a.png,O,m,722,5,1,1741.4000000953674,315495.6999999285,7151,NNB,A,4
5,test,2,0.0,1-Back,1,m,Mon May 12 2025 15:53:54 GMT-0500 (Central Daylight Time),319685.89999997616,063_y_f_n_a.png,O,m,1415,6,1,2438.7999999523163,317247.10000002384,7151,NNB,A,5
6,test,2,1.0,1-Back,1,z,Mon May 12 2025 15:53:54 GMT-0500 (Central Daylight Time),321235.1999999285,063_y_f_n_a.png,O,z,533,7,1,1539.5999999046326,319695.60000002384,7151,NNB,A,6
7,test,2,0.0,1-Back,1,m,Mon May 12 2025 15:53:54 GMT-0500 (Central Daylight Time),323250.89999997616,041_y_m_n_a.png,O,m,991,8,1,2007.7999999523163,321243.10000002384,7151,NNB,A,7
8,test,2,0.0,1-Back,1,m,Mon May 12 2025 15:53:54 GMT-0500 (Central Daylight Time),325067.2999999523,044_o_f_n_a.png,O,m,793,9,1,1806.5,323260.7999999523,7151,NNB,A,8
9,test,2,0.0,1-Back,1,m,Mon May 12 2025 15:53:54 GMT-0500 (Central Daylight Time),327349.7999999523,045_m_m_n_a.png,O,m,1262,10,1,2274.100000023842,325075.6999999285,7151,NNB,A,9
10,test,2,1.0,1-Back,1,z,Mon May 12 2025 15:53:54 GMT-0500 (Central Daylight Time),329066.1999999285,045_m_m_n_a.png,O,z,690,11,1,1708.3999999761581,327357.7999999523,7151,NNB,A,10
11,test,2,0.0,1-Back,1,m,Mon May 12 2025 15:53:54 GMT-0500 (Central Daylight Time),331065.39999997616,044_o_f_n_a.png,O,m,975,12,1,1989.7999999523163,329075.60000002384,7151,NNB,A,11
12,test,2,0.0,1-Back,1,m,Mon May 12 2025 15:53:54 GMT-0500 (Central Daylight Time),332847.39999997616,047_o_f_n_a.png,O,m,759,13,1,1771.1000000238419,331076.2999999523,7151,NNB,A,12
13,test,2,0.0,1-Back,1,m,Mon May 12 2025 15:53:54 GMT-0500 (Central Daylight Time),335014.1999999285,053_o_m_n_a.png,O,m,1134,14,1,2157.6999999284744,332856.5,7151,NNB,A,13
14,test,2,0.0,1-Back,1,m,Mon May 12 2025 15:53:54 GMT-0500 (Central Daylight Time),337163.5,046_o_m_n_a.png,O,m,1123,15,1,2139.100000023842,335024.39999997616,7151,NNB,A,14
15,test,2,1.0,1-Back,1,z,Mon May 12 2025 15:53:54 GMT-0500 (Central Daylight Time),338813.0,046_o_m_n_a.png,O,z,628,16,1,1639.8000000715256,337173.1999999285,7151,NNB,A,15
16,test,2,0.0,1-Back,1,m,Mon May 12 2025 15:53:54 GMT-0500 (Central Daylight Time),340963.89999997616,008_y_m_n_a.png,O,m,1134,17,1,2141.0,338822.89999997616,7151,NNB,A,16
17,test,2,1.0,1-Back,1,z,Mon May 12 2025 15:53:54 GMT-0500 (Central Daylight Time),342577.5,008_y_m_n_a.png,O,z,592,18,1,1603.8000000715256,340973.6999999285,7151,NNB,A,17
0,test,3,1.0,1-Back,,,Mon May 12 2025 15:53:54 GMT-0500 (Central Daylight Time),342577.5,010_y_f_n_a.png,O,space,2512,1,1,1603.8000000715256,340973.6999999285,7151,NNB,A,0
1,test,3,0.0,1-Back,1,m,Mon May 12 2025 15:53:54 GMT-0500 (Central Daylight Time),349576.0,046_o_m_n_a.png,O,m,1393,2,1,2405.600000023842,347170.39999997616,7151,NNB,A,1
2,test,3,1.0,1-Back,1,z,Mon May 12 2025 15:53:54 GMT-0500 (Central Daylight Time),351526.5,046_o_m_n_a.png,O,z,914,3,1,1940.3999999761581,349586.10000002384,7151,NNB,A,2
3,test,3,0.0,1-Back,1,m,Mon May 12 2025 15:53:54 GMT-0500 (Central Daylight Time),353374.7999999523,050_m_f_n_a.png,O,m,828,4,1,1837.5,351537.2999999523,7151,NNB,A,3
4,test,3,1.0,1-Back,1,z,Mon May 12 2025 15:53:54 GMT-0500 (Central Daylight Time),355007.6999999285,050_m_f_n_a.png,O,z,611,5,1,1623.8999999761581,353383.7999999523,7151,NNB,A,4
5,test,3,0.0,1-Back,1,m,Mon May 12 2025 15:53:54 GMT-0500 (Central Daylight Time),357443.0,044_o_f_n_a.png,O,m,1417,6,1,2424.7000000476837,355018.2999999523,7151,NNB,A,5
6,test,3,0.0,1-Back,1,m,Mon May 12 2025 15:53:54 GMT-0500 (Central Daylight Time),359222.60000002384,041_y_m_n_a.png,O,m,761,7,1,1769.7000000476837,357452.89999997616,7151,NNB,A,6
7,test,3,0.0,1-Back,1,m,Mon May 12 2025 15:53:54 GMT-0500 (Central Daylight Time),361655.39999997616,044_o_f_n_a.png,O,m,1400,8,1,2424.100000023842,359231.2999999523,7151,NNB,A,7
8,test,3,0.0,1-Back,1,m,Mon May 12 2025 15:53:54 GMT-0500 (Central Daylight Time),363338.7999999523,008_y_m_n_a.png,O,m,657,9,1,1674.3999999761581,361664.39999997616,7151,NNB,A,8
9,test,3,1.0,1-Back,1,z,Mon May 12 2025 15:53:54 GMT-0500 (Central Daylight Time),365155.2999999523,008_y_m_n_a.png,O,z,790,10,1,1806.6000000238419,363348.6999999285,7151,NNB,A,9
10,test,3,0.0,1-Back,1,m,Mon May 12 2025 15:53:54 GMT-0500 (Central Daylight Time),367087.5,043_m_f_n_a.png,O,m,901,11,1,1922.8999999761581,365164.60000002384,7151,NNB,A,10
11,test,3,0.0,1-Back,1,m,Mon May 12 2025 15:53:54 GMT-0500 (Central Daylight Time),368770.6999999285,063_y_f_n_a.png,O,m,657,12,1,1673.7999999523163,367096.89999997616,7151,NNB,A,11
12,test,3,1.0,1-Back,1,z,Mon May 12 2025 15:53:54 GMT-0500 (Central Daylight Time),370235.7999999523,063_y_f_n_a.png,O,z,439,13,1,1455.1999999284744,368780.60000002384,7151,NNB,A,12
13,test,3,0.0,1-Back,1,m,Mon May 12 2025 15:53:54 GMT-0500 (Central Daylight Time),372052.0,043_m_f_n_a.png,O,m,790,14,1,1807.0,370245.0,7151,NNB,A,13
14,test,3,0.0,1-Back,1,m,Mon May 12 2025 15:53:54 GMT-0500 (Central Daylight Time),373735.2999999523,058_m_m_n_a.png,O,m,653,15,1,1674.1000000238419,372061.1999999285,7151,NNB,A,14
15,test,3,1.0,1-Back,1,z,Mon May 12 2025 15:53:54 GMT-0500 (Central Daylight Time),375185.10000002384,058_m_m_n_a.png,O,z,426,16,1,1440.8000000715256,373744.2999999523,7151,NNB,A,15
16,test,3,0.0,1-Back,1,m,Mon May 12 2025 15:53:54 GMT-0500 (Central Daylight Time),376967.0,047_o_f_n_a.png,O,m,761,17,1,1772.5,375194.5,7151,NNB,A,16
17,test,3,1.0,1-Back,1,z,Mon May 12 2025 15:53:54 GMT-0500 (Central Daylight Time),378784.5,047_o_f_n_a.png,O,z,785,18,1,1808.7000000476837,376975.7999999523,7151,NNB,A,17
0,test,4,1.0,1-Back,,,Mon May 12 2025 15:53:54 GMT-0500 (Central Daylight Time),378784.5,050_m_f_n_a.png,O,space,2056,1,1,1808.7000000476837,376975.7999999523,7151,NNB,A,0
1,test,4,0.0,1-Back,1,m,Mon May 12 2025 15:53:54 GMT-0500 (Central Daylight Time),384781.5,046_o_m_n_a.png,O,m,897,2,1,1905.8999999761581,382875.60000002384,7151,NNB,A,1
2,test,4,0.0,1-Back,1,m,Mon May 12 2025 15:53:54 GMT-0500 (Central Daylight Time),386415.1999999285,050_m_f_n_a.png,O,m,611,3,1,1625.0,384790.1999999285,7151,NNB,A,2
3,test,4,0.0,1-Back,1,m,Mon May 12 2025 15:53:54 GMT-0500 (Central Daylight Time),388047.5,044_o_f_n_a.png,O,m,600,4,1,1621.7000000476837,386425.7999999523,7151,NNB,A,3
4,test,4,1.0,1-Back,1,z,Mon May 12 2025 15:53:54 GMT-0500 (Central Daylight Time),389747.39999997616,044_o_f_n_a.png,O,z,683,5,1,1690.2999999523163,388057.10000002384,7151,NNB,A,4
5,test,4,0.0,1-Back,1,m,Mon May 12 2025 15:53:54 GMT-0500 (Central Daylight Time),391479.10000002384,063_y_f_n_a.png,O,m,703,6,1,1720.7000000476837,389758.39999997616,7151,NNB,A,5
6,test,4,0.0,1-Back,1,m,Mon May 12 2025 15:53:54 GMT-0500 (Central Daylight Time),393129.60000002384,041_y_m_n_a.png,O,m,615,7,1,1644.0,391485.60000002384,7151,NNB,A,6
7,test,4,1.0,1-Back,1,z,Mon May 12 2025 15:53:54 GMT-0500 (Central Daylight Time),394663.0,041_y_m_n_a.png,O,z,502,8,1,1523.3999999761581,393139.60000002384,7151,NNB,A,7
8,test,4,0.0,1-Back,1,m,Mon May 12 2025 15:53:54 GMT-0500 (Central Daylight Time),396744.89999997616,063_y_f_n_a.png,O,m,1060,9,1,2071.7999999523163,394673.10000002384,7151,NNB,A,8
9,test,4,0.0,1-Back,1,m,Mon May 12 2025 15:53:54 GMT-0500 (Central Daylight Time),398511.1999999285,045_m_m_n_a.png,O,m,736,10,1,1756.3999999761581,396754.7999999523,7151,NNB,A,9
10,test,4,1.0,1-Back,1,z,Mon May 12 2025 15:53:54 GMT-0500 (Central Daylight Time),400226.6999999285,045_m_m_n_a.png,O,z,690,11,1,1708.2999999523163,398518.39999997616,7151,NNB,A,10
11,test,4,0.0,1-Back,1,m,Mon May 12 2025 15:53:54 GMT-0500 (Central Daylight Time),401943.39999997616,047_o_f_n_a.png,O,m,694,12,1,1707.5,400235.89999997616,7151,NNB,A,11
12,test,4,0.0,1-Back,1,m,Mon May 12 2025 15:53:54 GMT-0500 (Central Daylight Time),403776.7999999523,053_o_m_n_a.png,O,m,810,13,1,1823.6999999284744,401953.10000002384,7151,NNB,A,12
13,test,4,0.0,1-Back,1,m,Mon May 12 2025 15:53:54 GMT-0500 (Central Daylight Time),405591.39999997616,047_o_f_n_a.png,O,m,792,14,1,1807.7000000476837,403783.6999999285,7151,NNB,A,13
14,test,4,0.0,1-Back,1,m,Mon May 12 2025 15:53:54 GMT-0500 (Central Daylight Time),407709.5,010_y_f_n_a.png,O,m,1089,15,1,2108.3000000715256,405601.1999999285,7151,NNB,A,14
15,test,4,1.0,1-Back,1,z,Mon May 12 2025 15:53:54 GMT-0500 (Central Daylight Time),409324.39999997616,010_y_f_n_a.png,O,z,589,16,1,1606.2000000476837,407718.1999999285,7151,NNB,A,15
16,test,4,0.0,1-Back,1,m,Mon May 12 2025 15:53:54 GMT-0500 (Central Daylight Time),411042.2999999523,043_m_f_n_a.png,O,m,701,17,1,1709.5,409332.7999999523,7151,NNB,A,16
17,test,4,1.0,1-Back,1,z,Mon May 12 2025 15:53:54 GMT-0500 (Central Daylight Time),412506.5,043_m_f_n_a.png,O,z,440,18,1,1454.7000000476837,411051.7999999523,7151,NNB,A,17
0,test,5,1.0,1-Back,,,Mon May 12 2025 15:53:54 GMT-0500 (Central Daylight Time),412506.5,053_o_m_n_a.png,O,space,1335,1,1,1454.7000000476837,411051.7999999523,7151,NNB,A,0
1,test,5,1.0,1-Back,1,z,Mon May 12 2025 15:53:54 GMT-0500 (Central Daylight Time),417604.39999997616,053_o_m_n_a.png,O,z,714,2,1,1723.0,415881.39999997616,7151,NNB,A,1
2,test,5,0.0,1-Back,1,m,Mon May 12 2025 15:53:54 GMT-0500 (Central Daylight Time),419287.10000002384,063_y_f_n_a.png,O,m,653,3,1,1672.9000000953674,417614.1999999285,7151,NNB,A,2
3,test,5,0.0,1-Back,1,m,Mon May 12 2025 15:53:54 GMT-0500 (Central Daylight Time),420937.1999999285,041_y_m_n_a.png,O,m,625,4,1,1640.5,419296.6999999285,7151,NNB,A,3
4,test,5,0.0,1-Back,1,m,Mon May 12 2025 15:53:54 GMT-0500 (Central Daylight Time),422803.39999997616,063_y_f_n_a.png,O,m,835,5,1,1855.7999999523163,420947.60000002384,7151,NNB,A,4
5,test,5,0.0,1-Back,1,m,Mon May 12 2025 15:53:54 GMT-0500 (Central Daylight Time),424804.5,058_m_m_n_a.png,O,m,974,6,1,1991.3000000715256,422813.1999999285,7151,NNB,A,5
6,test,5,1.0,1-Back,1,z,Mon May 12 2025 15:53:54 GMT-0500 (Central Daylight Time),426384.2999999523,058_m_m_n_a.png,O,z,559,7,1,1569.2999999523163,424815.0,7151,NNB,A,6
7,test,5,0.0,1-Back,1,m,Mon May 12 2025 15:53:54 GMT-0500 (Central Daylight Time),428517.60000002384,010_y_f_n_a.png,O,m,1113,8,1,2123.600000023842,426394.0,7151,NNB,A,7
8,test,5,0.0,1-Back,1,m,Mon May 12 2025 15:53:54 GMT-0500 (Central Daylight Time),430534.1999999285,008_y_m_n_a.png,O,m,986,9,1,2007.2999999523163,428526.89999997616,7151,NNB,A,8
9,test,5,0.0,1-Back,1,m,Mon May 12 2025 15:53:54 GMT-0500 (Central Daylight Time),432833.0,010_y_f_n_a.png,O,m,1268,10,1,2288.399999976158,430544.60000002384,7151,NNB,A,9
10,test,5,0.0,1-Back,1,m,Mon May 12 2025 15:53:54 GMT-0500 (Central Daylight Time),435333.60000002384,047_o_f_n_a.png,O,m,1484,11,1,2491.9000000953674,432841.6999999285,7151,NNB,A,10
11,test,5,1.0,1-Back,1,z,Mon May 12 2025 15:53:54 GMT-0500 (Central Daylight Time),436950.0,047_o_f_n_a.png,O,z,599,12,1,1608.0,435342.0,7151,NNB,A,11
12,test,5,0.0,1-Back,1,m,Mon May 12 2025 15:53:54 GMT-0500 (Central Daylight Time),439030.89999997616,046_o_m_n_a.png,O,m,1053,13,1,2071.399999976158,436959.5,7151,NNB,A,12
13,test,5,0.0,1-Back,1,m,Mon May 12 2025 15:53:54 GMT-0500 (Central Daylight Time),440830.1999999285,050_m_f_n_a.png,O,m,769,14,1,1789.6999999284744,439040.5,7151,NNB,A,13
14,test,5,1.0,1-Back,1,z,Mon May 12 2025 15:53:54 GMT-0500 (Central Daylight Time),442662.1999999285,050_m_f_n_a.png,O,z,811,15,1,1822.0999999046326,440840.10000002384,7151,NNB,A,14
15,test,5,0.0,1-Back,1,m,Mon May 12 2025 15:53:54 GMT-0500 (Central Daylight Time),444463.7999999523,046_o_m_n_a.png,O,m,770,16,1,1793.0,442670.7999999523,7151,NNB,A,15
16,test,5,0.0,1-Back,1,m,Mon May 12 2025 15:53:54 GMT-0500 (Central Daylight Time),446262.2999999523,043_m_f_n_a.png,O,m,778,17,1,1788.1000000238419,444474.1999999285,7151,NNB,A,16
17,test,5,0.0,1-Back,1,m,Mon May 12 2025 15:53:54 GMT-0500 (Central Daylight Time),448294.39999997616,045_m_m_n_a.png,O,m,1003,18,1,2022.7000000476837,446271.6999999285,7151,NNB,A,17
0,prac,1,0.0,2-Back,,,Mon May 12 2025 15:53:54 GMT-0500 (Central Daylight Time),448294.39999997616,008_y_m_n_a.png,O,space,8726,1,1,2022.7000000476837,446271.6999999285,7151,NNB,A,0
0,prac,1,0.0,2-Back,,,Mon May 12 2025 15:53:54 GMT-0500 (Central Daylight Time),448294.39999997616,043_m_f_n_a.png,O,space,8726,2,1,2022.7000000476837,446271.6999999285,7151,NNB,A,0
1,prac,1,1.0,2-Back,1,m,Mon May 12 2025 15:53:54 GMT-0500 (Central Daylight Time),571056.0,046_o_m_n_a.png,O,m,1828,3,1,2640.3000000715256,568415.6999999285,7151,NNB,A,1
1,prac,1,0.0,2-Back,0,m,Mon May 12 2025 15:53:54 GMT-0500 (Central Daylight Time),573873.2999999523,047_o_f_n_a.png,O,None,2007,4,1,2807.7999999523163,571065.5,7151,NNB,A,2
1,prac,1,0.0,2-Back,0,z,Mon May 12 2025 15:53:54 GMT-0500 (Central Daylight Time),576420.1000000238,046_o_m_n_a.png,O,m,1758,5,1,2539.100000023842,573881.0,7151,NNB,A,3
1,prac,1,1.0,2-Back,0,z,Mon May 12 2025 15:53:54 GMT-0500 (Central Daylight Time),579203.3999999762,047_o_f_n_a.png,O,None,2006,6,1,2773.7000000476837,576429.6999999285,7151,NNB,A,4
1,prac,1,0.0,2-Back,0,m,Mon May 12 2025 15:53:54 GMT-0500 (Central Daylight Time),581805.0,045_m_m_n_a.png,O,z,1800,7,1,2591.399999976158,579213.6000000238,7151,NNB,A,5
1,prac,1,0.0,2-Back,0,m,Mon May 12 2025 15:53:54 GMT-0500 (Central Daylight Time),584617.5,053_o_m_n_a.png,O,None,2013,8,1,2803.3000000715256,581814.1999999285,7151,NNB,A,6
1,prac,1,0.0,2-Back,0,m,Mon May 12 2025 15:53:54 GMT-0500 (Central Daylight Time),586702.1000000238,010_y_f_n_a.png,O,z,1261,9,1,2073.9000000953674,584628.1999999285,7151,NNB,A,7
1,prac,1,1.0,2-Back,0,z,Mon May 12 2025 15:53:54 GMT-0500 (Central Daylight Time),588117.6000000238,053_o_m_n_a.png,O,m,641,10,1,1405.1000000238419,586712.5,7151,NNB,A,8
1,prac,1,0.0,2-Back,0,m,Mon May 12 2025 15:53:54 GMT-0500 (Central Daylight Time),590400.8999999762,063_y_f_n_a.png,O,z,1469,11,1,2272.600000023842,588128.2999999523,7151,NNB,A,9
1,prac,1,0.0,2-Back,0,m,Mon May 12 2025 15:53:54 GMT-0500 (Central Daylight Time),592498.8999999762,045_m_m_n_a.png,O,z,1306,12,1,2084.2000000476837,590414.6999999285,7151,NNB,A,10
0,prac,2,0.0,2-Back,,,Mon May 12 2025 15:53:54 GMT-0500 (Central Daylight Time),592498.8999999762,008_y_m_n_a.png,O,a,2258,1,1,2084.2000000476837,590414.6999999285,7151,NNB,A,0
0,prac,2,0.0,2-Back,,,Mon May 12 2025 15:53:54 GMT-0500 (Central Daylight Time),592498.8999999762,043_m_f_n_a.png,O,a,2258,2,1,2084.2000000476837,590414.6999999285,7151,NNB,A,0
1,prac,2,1.0,2-Back,1,m,Mon May 12 2025 15:53:54 GMT-0500 (Central Daylight Time),602080.7999999523,046_o_m_n_a.png,O,m,1488,3,1,2254.7999999523163,599826.0,7151,NNB,A,1
2,prac,2,0.0,2-Back,1,m,Mon May 12 2025 15:53:54 GMT-0500 (Central Daylight Time),604296.2999999523,047_o_f_n_a.png,O,m,1423,4,1,2205.5,602090.7999999523,7151,NNB,A,2
2,prac,2,0.0,2-Back,0,z,Mon May 12 2025 15:53:54 GMT-0500 (Central Daylight Time),606211.5,046_o_m_n_a.png,O,m,1137,5,1,1904.1000000238419,604307.3999999762,7151,NNB,A,3
2,prac,2,1.0,2-Back,0,z,Mon May 12 2025 15:53:54 GMT-0500 (Central Daylight Time),608977.1000000238,047_o_f_n_a.png,O,m,1989,6,1,2754.5,606222.6000000238,7151,NNB,A,4
2,prac,2,0.0,2-Back,0,m,Mon May 12 2025 15:53:54 GMT-0500 (Central Daylight Time),610677.1000000238,045_m_m_n_a.png,O,z,906,7,1,1689.2000000476837,608987.8999999762,7151,NNB,A,5
3,prac,2,0.0,2-Back,1,m,Mon May 12 2025 15:53:54 GMT-0500 (Central Daylight Time),612541.7999999523,053_o_m_n_a.png,O,m,1083,8,1,1854.7999999523163,610687.0,7151,NNB,A,6
3,prac,2,0.0,2-Back,0,m,Mon May 12 2025 15:53:54 GMT-0500 (Central Daylight Time),615312.5,010_y_f_n_a.png,O,None,2005,9,1,2759.5,612553.0,7151,NNB,A,7
4,prac,2,1.0,2-Back,1,z,Mon May 12 2025 15:53:54 GMT-0500 (Central Daylight Time),617474.6999999285,053_o_m_n_a.png,O,z,1389,10,1,2155.5,615319.1999999285,7151,NNB,A,8
5,prac,2,0.0,2-Back,1,m,Mon May 12 2025 15:53:54 GMT-0500 (Central Daylight Time),619890.2999999523,063_y_f_n_a.png,O,m,1629,11,1,2405.399999976158,617484.8999999762,7151,NNB,A,9
5,prac,2,0.0,2-Back,0,m,Mon May 12 2025 15:53:54 GMT-0500 (Central Daylight Time),622156.2999999523,045_m_m_n_a.png,O,z,1477,12,1,2255.6999999284744,619900.6000000238,7151,NNB,A,10
0,test,1,0.0,2-Back,,,Mon May 12 2025 15:53:54 GMT-0500 (Central Daylight Time),622156.2999999523,041_y_m_n_a.png,O,space,1816,1,1,2255.6999999284744,619900.6000000238,7151,NNB,A,0
0,test,1,0.0,2-Back,,,Mon May 12 2025 15:53:54 GMT-0500 (Central Daylight Time),622156.2999999523,041_y_m_n_a.png,O,space,1816,2,1,2255.6999999284744,619900.6000000238,7151,NNB,A,0
1,test,1,0.0,2-Back,1,m,Mon May 12 2025 15:53:54 GMT-0500 (Central Daylight Time),637034.1999999285,047_o_f_n_a.png,O,m,1341,3,1,2354.899999976158,634679.2999999523,7151,NNB,A,1
2,test,1,0.0,2-Back,1,m,Mon May 12 2025 15:53:54 GMT-0500 (Central Daylight Time),639885.3999999762,058_m_m_n_a.png,O,m,1822,4,1,2840.7999999523163,637044.6000000238,7151,NNB,A,2
2,test,1,1.0,2-Back,0,z,Mon May 12 2025 15:53:54 GMT-0500 (Central Daylight Time),642916.6999999285,047_o_f_n_a.png,O,None,2016,5,1,3020.0999999046326,639896.6000000238,7151,NNB,A,3
3,test,1,0.0,2-Back,1,m,Mon May 12 2025 15:53:54 GMT-0500 (Central Daylight Time),645582.6000000238,063_y_f_n_a.png,O,m,1644,6,1,2655.600000023842,642927.0,7151,NNB,A,4
3,test,1,0.0,2-Back,0,m,Mon May 12 2025 15:53:54 GMT-0500 (Central Daylight Time),647298.3999999762,058_m_m_n_a.png,O,z,685,7,1,1705.2000000476837,645593.1999999285,7151,NNB,A,5
3,test,1,1.0,2-Back,0,z,Mon May 12 2025 15:53:54 GMT-0500 (Central Daylight Time),649615.0,063_y_f_n_a.png,O,m,1282,8,1,2307.899999976158,647307.1000000238,7151,NNB,A,6
3,test,1,0.0,2-Back,0,m,Mon May 12 2025 15:53:54 GMT-0500 (Central Daylight Time),651463.6999999285,008_y_m_n_a.png,O,z,819,9,1,1838.8999999761581,649624.7999999523,7151,NNB,A,7
4,test,1,0.0,2-Back,1,m,Mon May 12 2025 15:53:54 GMT-0500 (Central Daylight Time),653331.5,044_o_f_n_a.png,O,m,850,10,1,1858.6000000238419,651472.8999999762,7151,NNB,A,8
5,test,1,1.0,2-Back,1,z,Mon May 12 2025 15:53:54 GMT-0500 (Central Daylight Time),654997.3999999762,008_y_m_n_a.png,O,z,650,11,1,1657.8999999761581,653339.5,7151,NNB,A,9
6,test,1,0.0,2-Back,1,m,Mon May 12 2025 15:53:54 GMT-0500 (Central Daylight Time),657112.6000000238,043_m_f_n_a.png,O,m,1085,12,1,2106.3000000715256,655006.2999999523,7151,NNB,A,10
6,test,1,0.0,2-Back,0,m,Mon May 12 2025 15:53:54 GMT-0500 (Central Daylight Time),659243.8999999762,043_m_f_n_a.png,O,z,1114,13,1,2121.2000000476837,657122.6999999285,7151,NNB,A,11
7,test,1,0.0,2-Back,1,m,Mon May 12 2025 15:53:54 GMT-0500 (Central Daylight Time),661611.3999999762,046_o_m_n_a.png,O,m,1333,14,1,2357.399999976158,659254.0,7151,NNB,A,12
7,test,1,0.0,2-Back,0,m,Mon May 12 2025 15:53:54 GMT-0500 (Central Daylight Time),664610.2999999523,044_o_f_n_a.png,O,z,1967,15,1,2988.6999999284744,661621.6000000238,7151,NNB,A,13
7,test,1,1.0,2-Back,0,z,Mon May 12 2025 15:53:54 GMT-0500 (Central Daylight Time),667107.6999999285,046_o_m_n_a.png,O,m,1472,16,1,2487.0999999046326,664620.6000000238,7151,NNB,A,14
8,test,1,0.0,2-Back,1,m,Mon May 12 2025 15:53:54 GMT-0500 (Central Daylight Time),669724.2999999523,050_m_f_n_a.png,O,m,1597,17,1,2607.0,667117.2999999523,7151,NNB,A,15
9,test,1,0.0,2-Back,1,m,Mon May 12 2025 15:53:54 GMT-0500 (Central Daylight Time),671874.2999999523,045_m_m_n_a.png,O,m,1125,18,1,2139.1999999284744,669735.1000000238,7151,NNB,A,16
0,test,2,0.0,2-Back,,,Mon May 12 2025 15:53:54 GMT-0500 (Central Daylight Time),671874.2999999523,045_m_m_n_a.png,O,space,1080,1,1,2139.1999999284744,669735.1000000238,7151,NNB,A,0
0,test,2,0.0,2-Back,,,Mon May 12 2025 15:53:54 GMT-0500 (Central Daylight Time),671874.2999999523,010_y_f_n_a.png,O,space,1080,2,1,2139.1999999284744,669735.1000000238,7151,NNB,A,0
0,test,2,1.0,2-Back,0,z,Mon May 12 2025 15:53:54 GMT-0500 (Central Daylight Time),681085.7999999523,045_m_m_n_a.png,O,None,2015,3,1,3021.100000023842,678064.6999999285,7151,NNB,A,1
0,test,2,0.0,2-Back,0,m,Mon May 12 2025 15:53:54 GMT-0500 (Central Daylight Time),683019.6999999285,050_m_f_n_a.png,O,z,904,4,1,1924.6999999284744,681095.0,7151,NNB,A,2
0,test,2,0.0,2-Back,0,m,Mon May 12 2025 15:53:54 GMT-0500 (Central Daylight Time),685554.0,010_y_f_n_a.png,O,z,1510,5,1,2524.600000023842,683029.3999999762,7151,NNB,A,3
1,test,2,0.0,2-Back,1,m,Mon May 12 2025 15:53:54 GMT-0500 (Central Daylight Time),688019.7999999523,046_o_m_n_a.png,O,m,1451,6,1,2456.100000023842,685563.6999999285,7151,NNB,A,4
2,test,2,0.0,2-Back,1,m,Mon May 12 2025 15:53:54 GMT-0500 (Central Daylight Time),690068.1000000238,063_y_f_n_a.png,O,m,1023,7,1,2040.0,688028.1000000238,7151,NNB,A,5
2,test,2,1.0,2-Back,0,z,Mon May 12 2025 15:53:54 GMT-0500 (Central Daylight Time),693085.0,046_o_m_n_a.png,O,None,2001,8,1,3007.399999976158,690077.6000000238,7151,NNB,A,6
2,test,2,0.0,2-Back,0,m,Mon May 12 2025 15:53:54 GMT-0500 (Central Daylight Time),694764.6000000238,008_y_m_n_a.png,O,z,661,9,1,1671.0,693093.6000000238,7151,NNB,A,7
2,test,2,0.0,2-Back,0,m,Mon May 12 2025 15:53:54 GMT-0500 (Central Daylight Time),696632.6000000238,008_y_m_n_a.png,O,z,842,10,1,1858.9000000953674,694773.6999999285,7151,NNB,A,8
3,test,2,0.0,2-Back,1,m,Mon May 12 2025 15:53:54 GMT-0500 (Central Daylight Time),698981.6000000238,043_m_f_n_a.png,O,m,1319,11,1,2339.5,696642.1000000238,7151,NNB,A,9
4,test,2,0.0,2-Back,1,m,Mon May 12 2025 15:53:54 GMT-0500 (Central Daylight Time),700915.6999999285,010_y_f_n_a.png,O,m,917,12,1,1924.2999999523163,698991.3999999762,7151,NNB,A,10
5,test,2,1.0,2-Back,1,z,Mon May 12 2025 15:53:54 GMT-0500 (Central Daylight Time),702381.6999999285,043_m_f_n_a.png,O,z,449,13,1,1456.6999999284744,700925.0,7151,NNB,A,11
6,test,2,0.0,2-Back,1,m,Mon May 12 2025 15:53:54 GMT-0500 (Central Daylight Time),704662.2999999523,053_o_m_n_a.png,O,m,1253,14,1,2273.2999999523163,702389.0,7151,NNB,A,12
6,test,2,0.0,2-Back,0,m,Mon May 12 2025 15:53:54 GMT-0500 (Central Daylight Time),706329.2999999523,053_o_m_n_a.png,O,z,643,15,1,1659.1999999284744,704670.1000000238,7151,NNB,A,13
7,test,2,0.0,2-Back,1,m,Mon May 12 2025 15:53:54 GMT-0500 (Central Daylight Time),708295.6999999285,044_o_f_n_a.png,O,m,944,16,1,1956.3999999761581,706339.2999999523,7151,NNB,A,14
8,test,2,0.0,2-Back,1,m,Mon May 12 2025 15:53:54 GMT-0500 (Central Daylight Time),710642.8999999762,058_m_m_n_a.png,O,m,1328,17,1,2337.5,708305.3999999762,7151,NNB,A,15
9,test,2,1.0,2-Back,1,z,Mon May 12 2025 15:53:54 GMT-0500 (Central Daylight Time),712110.6000000238,044_o_f_n_a.png,O,z,438,18,1,1457.9000000953674,710652.6999999285,7151,NNB,A,16
0,test,3,1.0,2-Back,,,Mon May 12 2025 15:53:54 GMT-0500 (Central Daylight Time),712110.6000000238,041_y_m_n_a.png,O,space,891,1,1,1457.9000000953674,710652.6999999285,7151,NNB,A,0
0,test,3,1.0,2-Back,,,Mon May 12 2025 15:53:54 GMT-0500 (Central Daylight Time),712110.6000000238,041_y_m_n_a.png,O,space,891,2,1,1457.9000000953674,710652.6999999285,7151,NNB,A,0
1,test,3,0.0,2-Back,1,m,Mon May 12 2025 15:53:54 GMT-0500 (Central Daylight Time),720774.1999999285,044_o_f_n_a.png,O,m,1694,3,1,2707.5,718066.6999999285,7151,NNB,A,1
2,test,3,0.0,2-Back,1,m,Mon May 12 2025 15:53:54 GMT-0500 (Central Daylight Time),722907.1999999285,045_m_m_n_a.png,O,m,1106,4,1,2122.899999976158,720784.2999999523,7151,NNB,A,2
3,test,3,1.0,2-Back,1,z,Mon May 12 2025 15:53:54 GMT-0500 (Central Daylight Time),725040.2999999523,044_o_f_n_a.png,O,z,1109,5,1,2123.2999999523163,722917.0,7151,NNB,A,3
4,test,3,0.0,2-Back,1,m,Mon May 12 2025 15:53:54 GMT-0500 (Central Daylight Time),727587.8999999762,008_y_m_n_a.png,O,m,1522,6,1,2539.100000023842,725048.7999999523,7151,NNB,A,4
5,test,3,0.0,2-Back,1,m,Mon May 12 2025 15:53:54 GMT-0500 (Central Daylight Time),729773.3999999762,045_m_m_n_a.png,O,m,1167,7,1,2177.100000023842,727596.2999999523,7151,NNB,A,5
5,test,3,1.0,2-Back,0,z,Mon May 12 2025 15:53:54 GMT-0500 (Central Daylight Time),732137.0,008_y_m_n_a.png,O,m,1341,8,1,2355.5,729781.5,7151,NNB,A,6
6,test,3,0.0,2-Back,1,m,Mon May 12 2025 15:53:54 GMT-0500 (Central Daylight Time),734069.2999999523,010_y_f_n_a.png,O,m,910,9,1,1923.6999999284744,732145.6000000238,7151,NNB,A,7
7,test,3,0.0,2-Back,1,m,Mon May 12 2025 15:53:54 GMT-0500 (Central Daylight Time),736303.8999999762,058_m_m_n_a.png,O,m,1210,10,1,2225.0,734078.8999999762,7151,NNB,A,8
8,test,3,1.0,2-Back,1,z,Mon May 12 2025 15:53:54 GMT-0500 (Central Daylight Time),738784.2999999523,010_y_f_n_a.png,O,z,1457,11,1,2471.600000023842,736312.6999999285,7151,NNB,A,9
9,test,3,1.0,2-Back,1,z,Mon May 12 2025 15:53:54 GMT-0500 (Central Daylight Time),740768.1999999285,058_m_m_n_a.png,O,z,951,12,1,1974.0,738794.1999999285,7151,NNB,A,10
10,test,3,0.0,2-Back,1,m,Mon May 12 2025 15:53:54 GMT-0500 (Central Daylight Time),742733.8999999762,044_o_f_n_a.png,O,m,945,13,1,1955.7999999523163,740778.1000000238,7151,NNB,A,11
11,test,3,0.0,2-Back,1,m,Mon May 12 2025 15:53:54 GMT-0500 (Central Daylight Time),745100.8999999762,050_m_f_n_a.png,O,m,1350,14,1,2358.0,742742.8999999762,7151,NNB,A,12
12,test,3,0.0,2-Back,1,m,Mon May 12 2025 15:53:54 GMT-0500 (Central Daylight Time),747099.3999999762,046_o_m_n_a.png,O,m,973,15,1,1989.0,745110.3999999762,7151,NNB,A,13
13,test,3,1.0,2-Back,1,z,Mon May 12 2025 15:53:54 GMT-0500 (Central Daylight Time),748982.6000000238,050_m_f_n_a.png,O,z,853,16,1,1873.0,747109.6000000238,7151,NNB,A,14
14,test,3,0.0,2-Back,1,m,Mon May 12 2025 15:53:54 GMT-0500 (Central Daylight Time),751131.6000000238,047_o_f_n_a.png,O,m,1122,17,1,2138.9000000953674,748992.6999999285,7151,NNB,A,15
14,test,3,0.0,2-Back,0,m,Mon May 12 2025 15:53:54 GMT-0500 (Central Daylight Time),753215.8999999762,047_o_f_n_a.png,O,z,1062,18,1,2073.899999976158,751142.0,7151,NNB,A,16
0,test,4,0.0,2-Back,,,Mon May 12 2025 15:53:54 GMT-0500 (Central Daylight Time),753215.8999999762,053_o_m_n_a.png,O,space,962,1,1,2073.899999976158,751142.0,7151,NNB,A,0
0,test,4,0.0,2-Back,,,Mon May 12 2025 15:53:54 GMT-0500 (Central Daylight Time),753215.8999999762,063_y_f_n_a.png,O,space,962,2,1,2073.899999976158,751142.0,7151,NNB,A,0
1,test,4,1.0,2-Back,1,z,Mon May 12 2025 15:53:54 GMT-0500 (Central Daylight Time),761095.7999999523,053_o_m_n_a.png,O,z,785,3,1,1807.6000000238419,759288.1999999285,7151,NNB,A,1
2,test,4,1.0,2-Back,1,z,Mon May 12 2025 15:53:54 GMT-0500 (Central Daylight Time),763511.0,063_y_f_n_a.png,O,z,1386,4,1,2403.8000000715256,761107.1999999285,7151,NNB,A,2
3,test,4,0.0,2-Back,1,m,Mon May 12 2025 15:53:54 GMT-0500 (Central Daylight Time),765310.3999999762,044_o_f_n_a.png,O,m,769,5,1,1787.1000000238419,763523.2999999523,7151,NNB,A,3
3,test,4,0.0,2-Back,0,m,Mon May 12 2025 15:53:54 GMT-0500 (Central Daylight Time),767243.5,044_o_f_n_a.png,O,z,906,6,1,1922.7000000476837,765320.7999999523,7151,NNB,A,4
4,test,4,0.0,2-Back,1,m,Mon May 12 2025 15:53:54 GMT-0500 (Central Daylight Time),769275.5,043_m_f_n_a.png,O,m,1005,7,1,2021.3999999761581,767254.1000000238,7151,NNB,A,5
5,test,4,0.0,2-Back,1,m,Mon May 12 2025 15:53:54 GMT-0500 (Central Daylight Time),771292.6000000238,008_y_m_n_a.png,O,m,987,8,1,2007.8000000715256,769284.7999999523,7151,NNB,A,6
6,test,4,1.0,2-Back,1,z,Mon May 12 2025 15:53:54 GMT-0500 (Central Daylight Time),773424.6999999285,043_m_f_n_a.png,O,z,1101,9,1,2122.5999999046326,771302.1000000238,7151,NNB,A,7
7,test,4,0.0,2-Back,1,m,Mon May 12 2025 15:53:54 GMT-0500 (Central Daylight Time),775876.1000000238,058_m_m_n_a.png,O,m,1435,10,1,2442.5,773433.6000000238,7151,NNB,A,8
8,test,4,0.0,2-Back,1,m,Mon May 12 2025 15:53:54 GMT-0500 (Central Daylight Time),778391.5,008_y_m_n_a.png,O,m,1485,11,1,2504.7000000476837,775886.7999999523,7151,NNB,A,9
9,test,4,0.0,2-Back,1,m,Mon May 12 2025 15:53:54 GMT-0500 (Central Daylight Time),780906.2999999523,047_o_f_n_a.png,O,m,1500,12,1,2504.399999976158,778401.8999999762,7151,NNB,A,10
10,test,4,0.0,2-Back,1,m,Mon May 12 2025 15:53:54 GMT-0500 (Central Daylight Time),782905.1000000238,041_y_m_n_a.png,O,m,966,13,1,1989.5,780915.6000000238,7151,NNB,A,11
10,test,4,1.0,2-Back,0,z,Mon May 12 2025 15:53:54 GMT-0500 (Central Daylight Time),785253.5,047_o_f_n_a.png,O,m,1326,14,1,2339.5,782914.0,7151,NNB,A,12
11,test,4,1.0,2-Back,1,z,Mon May 12 2025 15:53:54 GMT-0500 (Central Daylight Time),787904.1000000238,041_y_m_n_a.png,O,z,1626,15,1,2639.9000000953674,785264.1999999285,7151,NNB,A,13
12,test,4,0.0,2-Back,1,m,Mon May 12 2025 15:53:54 GMT-0500 (Central Daylight Time),789985.8999999762,045_m_m_n_a.png,O,m,1059,16,1,2072.0,787913.8999999762,7151,NNB,A,14
13,test,4,0.0,2-Back,1,m,Mon May 12 2025 15:53:54 GMT-0500 (Central Daylight Time),792102.7999999523,050_m_f_n_a.png,O,m,1098,17,1,2106.7999999523163,789996.0,7151,NNB,A,15
14,test,4,1.0,2-Back,1,z,Mon May 12 2025 15:53:54 GMT-0500 (Central Daylight Time),794167.1000000238,045_m_m_n_a.png,O,z,1035,18,1,2054.5,792112.6000000238,7151,NNB,A,16
0,test,5,1.0,2-Back,,,Mon May 12 2025 15:53:54 GMT-0500 (Central Daylight Time),794167.1000000238,041_y_m_n_a.png,O,space,970,1,1,2054.5,792112.6000000238,7151,NNB,A,0
0,test,5,1.0,2-Back,,,Mon May 12 2025 15:53:54 GMT-0500 (Central Daylight Time),794167.1000000238,050_m_f_n_a.png,O,space,970,2,1,2054.5,792112.6000000238,7151,NNB,A,0
1,test,5,1.0,2-Back,1,z,Mon May 12 2025 15:53:54 GMT-0500 (Central Daylight Time),802115.5,041_y_m_n_a.png,O,z,896,3,1,1905.2000000476837,800210.2999999523,7151,NNB,A,1
2,test,5,1.0,2-Back,1,z,Mon May 12 2025 15:53:54 GMT-0500 (Central Daylight Time),804198.0,050_m_f_n_a.png,O,z,1054,4,1,2073.100000023842,802124.8999999762,7151,NNB,A,2
3,test,5,0.0,2-Back,1,m,Mon May 12 2025 15:53:54 GMT-0500 (Central Daylight Time),806297.1999999285,047_o_f_n_a.png,O,m,1073,5,1,2089.5999999046326,804207.6000000238,7151,NNB,A,3
3,test,5,0.0,2-Back,0,m,Mon May 12 2025 15:53:54 GMT-0500 (Central Daylight Time),808330.2999999523,041_y_m_n_a.png,O,z,1009,6,1,2022.8999999761581,806307.3999999762,7151,NNB,A,4
4,test,5,0.0,2-Back,1,m,Mon May 12 2025 15:53:54 GMT-0500 (Central Daylight Time),810181.1999999285,010_y_f_n_a.png,O,m,833,7,1,1841.0999999046326,808340.1000000238,7151,NNB,A,5
4,test,5,0.0,2-Back,0,m,Mon May 12 2025 15:53:54 GMT-0500 (Central Daylight Time),811795.7999999523,047_o_f_n_a.png,O,z,589,8,1,1604.8999999761581,810190.8999999762,7151,NNB,A,6
4,test,5,1.0,2-Back,0,z,Mon May 12 2025 15:53:54 GMT-0500 (Central Daylight Time),813562.2999999523,010_y_f_n_a.png,O,m,747,9,1,1756.6999999284744,811805.6000000238,7151,NNB,A,7
5,test,5,0.0,2-Back,1,m,Mon May 12 2025 15:53:54 GMT-0500 (Central Daylight Time),815360.3999999762,046_o_m_n_a.png,O,m,775,10,1,1789.8999999761581,813570.5,7151,NNB,A,8
5,test,5,0.0,2-Back,0,m,Mon May 12 2025 15:53:54 GMT-0500 (Central Daylight Time),817644.0,043_m_f_n_a.png,O,z,1258,11,1,2274.899999976158,815369.1000000238,7151,NNB,A,9
6,test,5,0.0,2-Back,1,m,Mon May 12 2025 15:53:54 GMT-0500 (Central Daylight Time),819559.1000000238,058_m_m_n_a.png,O,m,886,12,1,1906.6000000238419,817652.5,7151,NNB,A,10
7,test,5,0.0,2-Back,1,m,Mon May 12 2025 15:53:54 GMT-0500 (Central Daylight Time),821941.8999999762,046_o_m_n_a.png,O,m,1362,13,1,2373.600000023842,819568.2999999523,7151,NNB,A,11
7,test,5,1.0,2-Back,0,z,Mon May 12 2025 15:53:54 GMT-0500 (Central Daylight Time),823942.1000000238,058_m_m_n_a.png,O,m,984,14,1,1993.4000000953674,821948.6999999285,7151,NNB,A,12
8,test,5,0.0,2-Back,1,m,Mon May 12 2025 15:53:54 GMT-0500 (Central Daylight Time),826606.7999999523,063_y_f_n_a.png,O,m,1635,15,1,2656.100000023842,823950.6999999285,7151,NNB,A,13
9,test,5,0.0,2-Back,1,m,Mon May 12 2025 15:53:54 GMT-0500 (Central Daylight Time),828673.6999999285,053_o_m_n_a.png,O,m,1040,16,1,2058.0,826615.6999999285,7151,NNB,A,14
9,test,5,0.0,2-Back,0,m,Mon May 12 2025 15:53:54 GMT-0500 (Central Daylight Time),830723.8999999762,043_m_f_n_a.png,O,z,1032,17,1,2041.7999999523163,828682.1000000238,7151,NNB,A,15
10,test,5,1.0,2-Back,1,z,Mon May 12 2025 15:53:54 GMT-0500 (Central Daylight Time),833155.1999999285,053_o_m_n_a.png,O,z,1405,18,1,2421.7999999523163,830733.3999999762,7151,NNB,A,16
