acc_sum,block,block_c,change,condition,correct,correct_response,datetime,endtime,face,project,response,response_time,row_sel,session_number,start_end,starttime,subject_id,task,task_vers,trial
0,prac,1,,1-Back,,,Mon Nov 17 2025 13:45:16 GMT-0600 (Central Standard Time),,050_m_f_n_a.png,I,space,8437,1,3,,,8032,NNB,A,0
1,prac,1,0.0,1-Back,1.0,m,Mon Nov 17 2025 13:45:16 GMT-0600 (Central Standard Time),120393.79999998212,063_y_f_n_a.png,I,m,1586,2,3,2390.5999999940395,118003.19999998808,8032,NNB,A,1
2,prac,1,1.0,1-Back,1.0,z,Mon Nov 17 2025 13:45:16 GMT-0600 (Central Standard Time),122243.19999998808,063_y_f_n_a.png,I,z,1061,3,3,1841.5999999940395,120401.59999999404,8032,NNB,A,2
3,prac,1,0.0,1-Back,1.0,m,Mon Nov 17 2025 13:45:16 GMT-0600 (Central Standard Time),124559.29999998212,053_o_m_n_a.png,I,m,1508,4,3,2308.199999988079,122251.09999999404,8032,NNB,A,3
4,prac,1,0.0,1-Back,1.0,m,Mon Nov 17 2025 13:45:16 GMT-0600 (Central Standard Time),126325.29999998212,058_m_m_n_a.png,I,m,952,5,3,1758.5,124566.79999998212,8032,NNB,A,4
5,prac,1,1.0,1-Back,1.0,z,Mon Nov 17 2025 13:45:16 GMT-0600 (Central Standard Time),127964.90000000596,058_m_m_n_a.png,I,z,778,6,3,1632.4000000059605,126332.5,8032,NNB,A,5
6,prac,1,0.0,1-Back,1.0,m,Mon Nov 17 2025 13:45:16 GMT-0600 (Central Standard Time),129840.69999998808,047_o_f_n_a.png,I,m,1013,7,3,1864.9000000059605,127975.79999998212,8032,NNB,A,6
7,prac,1,0.0,1-Back,1.0,m,Mon Nov 17 2025 13:45:16 GMT-0600 (Central Standard Time),131573.5,045_m_m_n_a.png,I,m,936,8,3,1724.9000000059605,129848.59999999404,8032,NNB,A,7
8,prac,1,0.0,1-Back,1.0,m,Mon Nov 17 2025 13:45:16 GMT-0600 (Central Standard Time),133240.09999999404,050_m_f_n_a.png,I,m,890,9,3,1659.199999988079,131580.90000000596,8032,NNB,A,8
9,prac,1,1.0,1-Back,1.0,z,Mon Nov 17 2025 13:45:16 GMT-0600 (Central Standard Time),134672.69999998808,050_m_f_n_a.png,I,z,655,10,3,1425.2999999821186,133247.40000000596,8032,NNB,A,9
10,prac,1,0.0,1-Back,1.0,m,Mon Nov 17 2025 13:45:16 GMT-0600 (Central Standard Time),136272.40000000596,053_o_m_n_a.png,I,m,822,11,3,1592.300000011921,134680.09999999404,8032,NNB,A,10
11,prac,1,0.0,1-Back,1.0,m,Mon Nov 17 2025 13:45:16 GMT-0600 (Central Standard Time),137955.09999999404,010_y_f_n_a.png,I,m,851,12,3,1674.9000000059605,136280.19999998808,8032,NNB,A,11
0,test,1,0.0,1-Back,,,Mon Nov 17 2025 13:45:16 GMT-0600 (Central Standard Time),137955.09999999404,063_y_f_n_a.png,I,space,10484,1,3,1674.9000000059605,136280.19999998808,8032,NNB,A,0
1,test,1,0.0,1-Back,1.0,m,Mon Nov 17 2025 13:45:16 GMT-0600 (Central Standard Time),158248.79999998212,043_m_f_n_a.png,I,m,732,2,3,1742.8999999761581,156505.90000000596,8032,NNB,A,1
2,test,1,0.0,1-Back,1.0,m,Mon Nov 17 2025 13:45:16 GMT-0600 (Central Standard Time),160281.59999999404,010_y_f_n_a.png,I,m,1013,3,3,2026.0999999940395,158255.5,8032,NNB,A,2
3,test,1,1.0,1-Back,1.0,z,Mon Nov 17 2025 13:45:16 GMT-0600 (Central Standard Time),161980.79999998212,010_y_f_n_a.png,I,z,677,4,3,1692.3999999761581,160288.40000000596,8032,NNB,A,3
4,test,1,0.0,1-Back,1.0,m,Mon Nov 17 2025 13:45:16 GMT-0600 (Central Standard Time),163646.79999998212,043_m_f_n_a.png,I,m,633,5,3,1659.0,161987.79999998212,8032,NNB,A,4
5,test,1,0.0,1-Back,1.0,m,Mon Nov 17 2025 13:45:16 GMT-0600 (Central Standard Time),165463.09999999404,053_o_m_n_a.png,I,m,791,6,3,1809.4000000059605,163653.69999998808,8032,NNB,A,5
6,test,1,1.0,1-Back,1.0,z,Mon Nov 17 2025 13:45:16 GMT-0600 (Central Standard Time),167279.09999999404,053_o_m_n_a.png,I,z,791,7,3,1809.5999999940395,165469.5,8032,NNB,A,6
7,test,1,0.0,1-Back,1.0,m,Mon Nov 17 2025 13:45:16 GMT-0600 (Central Standard Time),168929.0,058_m_m_n_a.png,I,m,624,8,3,1642.5999999940395,167286.40000000596,8032,NNB,A,7
8,test,1,0.0,1-Back,1.0,m,Mon Nov 17 2025 13:45:16 GMT-0600 (Central Standard Time),170611.19999998808,047_o_f_n_a.png,I,m,654,9,3,1675.2999999821186,168935.90000000596,8032,NNB,A,8
9,test,1,0.0,1-Back,1.0,m,Mon Nov 17 2025 13:45:16 GMT-0600 (Central Standard Time),172410.79999998212,058_m_m_n_a.png,I,m,771,10,3,1793.0,170617.79999998212,8032,NNB,A,9
10,test,1,0.0,1-Back,1.0,m,Mon Nov 17 2025 13:45:16 GMT-0600 (Central Standard Time),174177.0,041_y_m_n_a.png,I,m,747,11,3,1759.7000000178814,172417.29999998212,8032,NNB,A,10
11,test,1,1.0,1-Back,1.0,z,Mon Nov 17 2025 13:45:16 GMT-0600 (Central Standard Time),175809.79999998212,041_y_m_n_a.png,I,z,614,12,3,1625.5,174184.29999998212,8032,NNB,A,11
12,test,1,0.0,1-Back,1.0,m,Mon Nov 17 2025 13:45:16 GMT-0600 (Central Standard Time),177442.29999998212,044_o_f_n_a.png,I,m,605,13,3,1625.699999988079,175816.59999999404,8032,NNB,A,12
13,test,1,1.0,1-Back,1.0,z,Mon Nov 17 2025 13:45:16 GMT-0600 (Central Standard Time),179008.79999998212,044_o_f_n_a.png,I,z,548,14,3,1559.5999999940395,177449.19999998808,8032,NNB,A,13
14,test,1,0.0,1-Back,1.0,m,Mon Nov 17 2025 13:45:16 GMT-0600 (Central Standard Time),180741.69999998808,008_y_m_n_a.png,I,m,710,15,3,1725.4000000059605,179016.29999998212,8032,NNB,A,14
15,test,1,0.0,1-Back,1.0,m,Mon Nov 17 2025 13:45:16 GMT-0600 (Central Standard Time),182374.5,050_m_f_n_a.png,I,m,601,16,3,1626.0999999940395,180748.40000000596,8032,NNB,A,15
16,test,1,0.0,1-Back,1.0,m,Mon Nov 17 2025 13:45:16 GMT-0600 (Central Standard Time),184007.09999999404,046_o_m_n_a.png,I,m,608,17,3,1626.0999999940395,182381.0,8032,NNB,A,16
17,test,1,0.0,1-Back,1.0,m,Mon Nov 17 2025 13:45:16 GMT-0600 (Central Standard Time),185756.79999998212,050_m_f_n_a.png,I,m,727,18,3,1742.7999999821186,184014.0,8032,NNB,A,17
0,test,2,0.0,1-Back,,,Mon Nov 17 2025 13:45:16 GMT-0600 (Central Standard Time),185756.79999998212,058_m_m_n_a.png,I,space,2443,1,3,1742.7999999821186,184014.0,8032,NNB,A,0
1,test,2,0.0,1-Back,1.0,m,Mon Nov 17 2025 13:45:16 GMT-0600 (Central Standard Time),191938.19999998808,043_m_f_n_a.png,I,m,696,2,3,1709.699999988079,190228.5,8032,NNB,A,1
2,test,2,1.0,1-Back,1.0,z,Mon Nov 17 2025 13:45:16 GMT-0600 (Central Standard Time),193637.40000000596,043_m_f_n_a.png,I,z,668,3,3,1692.5,191944.90000000596,8032,NNB,A,2
3,test,2,0.0,1-Back,1.0,m,Mon Nov 17 2025 13:45:16 GMT-0600 (Central Standard Time),195420.40000000596,058_m_m_n_a.png,I,m,753,4,3,1776.300000011921,193644.09999999404,8032,NNB,A,3
4,test,2,0.0,1-Back,1.0,m,Mon Nov 17 2025 13:45:16 GMT-0600 (Central Standard Time),197186.5,041_y_m_n_a.png,I,m,738,5,3,1758.0999999940395,195428.40000000596,8032,NNB,A,4
5,test,2,0.0,1-Back,1.0,m,Mon Nov 17 2025 13:45:16 GMT-0600 (Central Standard Time),198818.90000000596,063_y_f_n_a.png,I,m,604,6,3,1625.2000000178814,197193.69999998808,8032,NNB,A,5
6,test,2,1.0,1-Back,1.0,z,Mon Nov 17 2025 13:45:16 GMT-0600 (Central Standard Time),200535.69999998808,063_y_f_n_a.png,I,z,683,7,3,1709.9000000059605,198825.79999998212,8032,NNB,A,6
7,test,2,0.0,1-Back,1.0,m,Mon Nov 17 2025 13:45:16 GMT-0600 (Central Standard Time),202284.90000000596,041_y_m_n_a.png,I,m,720,8,3,1742.5,200542.40000000596,8032,NNB,A,7
8,test,2,0.0,1-Back,1.0,m,Mon Nov 17 2025 13:45:16 GMT-0600 (Central Standard Time),203950.79999998212,044_o_f_n_a.png,I,m,634,9,3,1659.2999999821186,202291.5,8032,NNB,A,8
9,test,2,0.0,1-Back,1.0,m,Mon Nov 17 2025 13:45:16 GMT-0600 (Central Standard Time),205666.90000000596,045_m_m_n_a.png,I,m,695,10,3,1708.9000000059605,203958.0,8032,NNB,A,9
10,test,2,1.0,1-Back,1.0,z,Mon Nov 17 2025 13:45:16 GMT-0600 (Central Standard Time),207316.59999999404,045_m_m_n_a.png,I,z,619,11,3,1642.5999999940395,205674.0,8032,NNB,A,10
11,test,2,0.0,1-Back,1.0,m,Mon Nov 17 2025 13:45:16 GMT-0600 (Central Standard Time),209015.79999998212,044_o_f_n_a.png,I,m,682,12,3,1692.3999999761581,207323.40000000596,8032,NNB,A,11
12,test,2,0.0,1-Back,1.0,m,Mon Nov 17 2025 13:45:16 GMT-0600 (Central Standard Time),210748.90000000596,047_o_f_n_a.png,I,m,710,13,3,1725.9000000059605,209023.0,8032,NNB,A,12
13,test,2,0.0,1-Back,1.0,m,Mon Nov 17 2025 13:45:16 GMT-0600 (Central Standard Time),212464.59999999404,053_o_m_n_a.png,I,m,698,14,3,1708.699999988079,210755.90000000596,8032,NNB,A,13
14,test,2,0.0,1-Back,1.0,m,Mon Nov 17 2025 13:45:16 GMT-0600 (Central Standard Time),214097.5,046_o_m_n_a.png,I,m,606,15,3,1625.300000011921,212472.19999998808,8032,NNB,A,14
15,test,2,1.0,1-Back,1.0,z,Mon Nov 17 2025 13:45:16 GMT-0600 (Central Standard Time),215797.09999999404,046_o_m_n_a.png,I,z,676,16,3,1692.0999999940395,214105.0,8032,NNB,A,15
16,test,2,0.0,1-Back,1.0,m,Mon Nov 17 2025 13:45:16 GMT-0600 (Central Standard Time),217363.0,008_y_m_n_a.png,I,m,536,17,3,1558.0,215805.0,8032,NNB,A,16
17,test,2,1.0,1-Back,1.0,z,Mon Nov 17 2025 13:45:16 GMT-0600 (Central Standard Time),219012.59999999404,008_y_m_n_a.png,I,z,626,18,3,1642.5999999940395,217370.0,8032,NNB,A,17
0,test,3,1.0,1-Back,,,Mon Nov 17 2025 13:45:16 GMT-0600 (Central Standard Time),219012.59999999404,010_y_f_n_a.png,I,space,2882,1,3,1642.5999999940395,217370.0,8032,NNB,A,0
1,test,3,0.0,1-Back,1.0,m,Mon Nov 17 2025 13:45:16 GMT-0600 (Central Standard Time),225760.79999998212,046_o_m_n_a.png,I,m,781,2,3,1792.7999999821186,223968.0,8032,NNB,A,1
2,test,3,1.0,1-Back,1.0,z,Mon Nov 17 2025 13:45:16 GMT-0600 (Central Standard Time),227843.40000000596,046_o_m_n_a.png,I,z,1062,3,3,2075.800000011921,225767.59999999404,8032,NNB,A,2
3,test,3,0.0,1-Back,1.0,m,Mon Nov 17 2025 13:45:16 GMT-0600 (Central Standard Time),229726.40000000596,050_m_f_n_a.png,I,m,860,4,3,1876.300000011921,227850.09999999404,8032,NNB,A,3
4,test,3,1.0,1-Back,1.0,z,Mon Nov 17 2025 13:45:16 GMT-0600 (Central Standard Time),231359.19999998808,050_m_f_n_a.png,I,z,616,5,3,1625.5,229733.69999998808,8032,NNB,A,4
5,test,3,0.0,1-Back,1.0,m,Mon Nov 17 2025 13:45:16 GMT-0600 (Central Standard Time),233075.09999999404,044_o_f_n_a.png,I,m,688,6,3,1709.4000000059605,231365.69999998808,8032,NNB,A,5
6,test,3,0.0,1-Back,1.0,m,Mon Nov 17 2025 13:45:16 GMT-0600 (Central Standard Time),234824.79999998212,041_y_m_n_a.png,I,m,723,7,3,1743.0,233081.79999998212,8032,NNB,A,6
7,test,3,0.0,1-Back,1.0,m,Mon Nov 17 2025 13:45:16 GMT-0600 (Central Standard Time),236574.69999998808,044_o_f_n_a.png,I,m,718,8,3,1742.5999999940395,234832.09999999404,8032,NNB,A,7
8,test,3,0.0,1-Back,1.0,m,Mon Nov 17 2025 13:45:16 GMT-0600 (Central Standard Time),238190.19999998808,008_y_m_n_a.png,I,m,592,9,3,1609.0,236581.19999998808,8032,NNB,A,8
9,test,3,1.0,1-Back,1.0,z,Mon Nov 17 2025 13:45:16 GMT-0600 (Central Standard Time),239839.90000000596,008_y_m_n_a.png,I,z,632,10,3,1643.1000000238419,238196.79999998212,8032,NNB,A,9
10,test,3,0.0,1-Back,1.0,m,Mon Nov 17 2025 13:45:16 GMT-0600 (Central Standard Time),241522.59999999404,043_m_f_n_a.png,I,m,655,11,3,1675.300000011921,239847.29999998212,8032,NNB,A,10
11,test,3,0.0,1-Back,1.0,m,Mon Nov 17 2025 13:45:16 GMT-0600 (Central Standard Time),243205.5,063_y_f_n_a.png,I,m,660,12,3,1675.2000000178814,241530.29999998212,8032,NNB,A,11
12,test,3,1.0,1-Back,1.0,z,Mon Nov 17 2025 13:45:16 GMT-0600 (Central Standard Time),244854.69999998808,063_y_f_n_a.png,I,z,626,13,3,1642.5,243212.19999998808,8032,NNB,A,12
13,test,3,0.0,1-Back,1.0,m,Mon Nov 17 2025 13:45:16 GMT-0600 (Central Standard Time),246655.59999999404,043_m_f_n_a.png,I,m,777,14,3,1793.9000000059605,244861.69999998808,8032,NNB,A,13
14,test,3,0.0,1-Back,1.0,m,Mon Nov 17 2025 13:45:16 GMT-0600 (Central Standard Time),248237.09999999404,058_m_m_n_a.png,I,m,552,15,3,1574.4000000059605,246662.69999998808,8032,NNB,A,14
15,test,3,1.0,1-Back,1.0,z,Mon Nov 17 2025 13:45:16 GMT-0600 (Central Standard Time),249853.19999998808,058_m_m_n_a.png,I,z,593,16,3,1609.0999999940395,248244.09999999404,8032,NNB,A,15
16,test,3,0.0,1-Back,1.0,m,Mon Nov 17 2025 13:45:16 GMT-0600 (Central Standard Time),251552.90000000596,047_o_f_n_a.png,I,m,673,17,3,1692.9000000059605,249860.0,8032,NNB,A,16
17,test,3,1.0,1-Back,1.0,z,Mon Nov 17 2025 13:45:16 GMT-0600 (Central Standard Time),253269.09999999404,047_o_f_n_a.png,I,z,695,18,3,1709.5999999940395,251559.5,8032,NNB,A,17
0,test,4,1.0,1-Back,,,Mon Nov 17 2025 13:45:16 GMT-0600 (Central Standard Time),253269.09999999404,050_m_f_n_a.png,I,space,5401,1,3,1709.5999999940395,251559.5,8032,NNB,A,0
1,test,4,0.0,1-Back,1.0,m,Mon Nov 17 2025 13:45:16 GMT-0600 (Central Standard Time),262649.2999999821,046_o_m_n_a.png,I,m,932,2,3,1942.2999999821186,260707.0,8032,NNB,A,1
2,test,4,0.0,1-Back,1.0,m,Mon Nov 17 2025 13:45:16 GMT-0600 (Central Standard Time),264332.1999999881,050_m_f_n_a.png,I,m,662,3,3,1675.9000000059605,262656.2999999821,8032,NNB,A,2
3,test,4,0.0,1-Back,1.0,m,Mon Nov 17 2025 13:45:16 GMT-0600 (Central Standard Time),266048.0,044_o_f_n_a.png,I,m,698,4,3,1708.7000000178814,264339.2999999821,8032,NNB,A,3
4,test,4,1.0,1-Back,1.0,z,Mon Nov 17 2025 13:45:16 GMT-0600 (Central Standard Time),267782.1999999881,044_o_f_n_a.png,I,z,710,5,3,1727.9000000059605,266054.2999999821,8032,NNB,A,4
5,test,4,0.0,1-Back,1.0,m,Mon Nov 17 2025 13:45:16 GMT-0600 (Central Standard Time),269340.0,063_y_f_n_a.png,I,m,543,6,3,1550.9000000059605,267789.09999999404,8032,NNB,A,5
6,test,4,0.0,1-Back,1.0,m,Mon Nov 17 2025 13:45:16 GMT-0600 (Central Standard Time),270930.09999999404,041_y_m_n_a.png,I,m,555,7,3,1579.5999999940395,269350.5,8032,NNB,A,6
7,test,4,1.0,1-Back,1.0,z,Mon Nov 17 2025 13:45:16 GMT-0600 (Central Standard Time),272579.6999999881,041_y_m_n_a.png,I,z,620,8,3,1642.9000000059605,270936.7999999821,8032,NNB,A,7
8,test,4,0.0,1-Back,1.0,m,Mon Nov 17 2025 13:45:16 GMT-0600 (Central Standard Time),274145.2999999821,063_y_f_n_a.png,I,m,548,9,3,1558.7999999821186,272586.5,8032,NNB,A,8
9,test,4,0.0,1-Back,1.0,m,Mon Nov 17 2025 13:45:16 GMT-0600 (Central Standard Time),275762.0,045_m_m_n_a.png,I,m,589,10,3,1609.4000000059605,274152.59999999404,8032,NNB,A,9
10,test,4,1.0,1-Back,1.0,z,Mon Nov 17 2025 13:45:16 GMT-0600 (Central Standard Time),277328.09999999404,045_m_m_n_a.png,I,z,541,11,3,1559.199999988079,275768.90000000596,8032,NNB,A,10
11,test,4,0.0,1-Back,1.0,m,Mon Nov 17 2025 13:45:16 GMT-0600 (Central Standard Time),278944.1999999881,047_o_f_n_a.png,I,m,591,12,3,1609.4000000059605,277334.7999999821,8032,NNB,A,11
12,test,4,0.0,1-Back,1.0,m,Mon Nov 17 2025 13:45:16 GMT-0600 (Central Standard Time),280643.6999999881,053_o_m_n_a.png,I,m,678,13,3,1692.0999999940395,278951.59999999404,8032,NNB,A,12
13,test,4,0.0,1-Back,1.0,m,Mon Nov 17 2025 13:45:16 GMT-0600 (Central Standard Time),282209.7999999821,047_o_f_n_a.png,I,m,547,14,3,1558.699999988079,280651.09999999404,8032,NNB,A,13
14,test,4,0.0,1-Back,1.0,m,Mon Nov 17 2025 13:45:16 GMT-0600 (Central Standard Time),283792.6999999881,010_y_f_n_a.png,I,m,564,15,3,1575.9000000059605,282216.7999999821,8032,NNB,A,14
15,test,4,1.0,1-Back,1.0,z,Mon Nov 17 2025 13:45:16 GMT-0600 (Central Standard Time),285392.2999999821,010_y_f_n_a.png,I,z,574,16,3,1592.699999988079,283799.59999999404,8032,NNB,A,15
16,test,4,0.0,1-Back,1.0,m,Mon Nov 17 2025 13:45:16 GMT-0600 (Central Standard Time),287008.59999999404,043_m_f_n_a.png,I,m,591,17,3,1609.5,285399.09999999404,8032,NNB,A,16
17,test,4,1.0,1-Back,1.0,z,Mon Nov 17 2025 13:45:16 GMT-0600 (Central Standard Time),288624.6999999881,043_m_f_n_a.png,I,z,590,18,3,1608.7999999821186,287015.90000000596,8032,NNB,A,17
0,test,5,1.0,1-Back,,,Mon Nov 17 2025 13:45:16 GMT-0600 (Central Standard Time),288624.6999999881,053_o_m_n_a.png,I,space,2599,1,3,1608.7999999821186,287015.90000000596,8032,NNB,A,0
1,test,5,1.0,1-Back,1.0,z,Mon Nov 17 2025 13:45:16 GMT-0600 (Central Standard Time),295055.90000000596,053_o_m_n_a.png,I,z,792,2,3,1809.7000000178814,293246.1999999881,8032,NNB,A,1
2,test,5,0.0,1-Back,1.0,m,Mon Nov 17 2025 13:45:16 GMT-0600 (Central Standard Time),296905.2999999821,063_y_f_n_a.png,I,m,823,3,3,1842.3999999761581,295062.90000000596,8032,NNB,A,2
3,test,5,0.0,1-Back,1.0,m,Mon Nov 17 2025 13:45:16 GMT-0600 (Central Standard Time),298504.90000000596,041_y_m_n_a.png,I,m,573,4,3,1592.2000000178814,296912.6999999881,8032,NNB,A,3
4,test,5,0.0,1-Back,1.0,m,Mon Nov 17 2025 13:45:16 GMT-0600 (Central Standard Time),300304.0,063_y_f_n_a.png,I,m,782,5,3,1792.2000000178814,298511.7999999821,8032,NNB,A,4
5,test,5,0.0,1-Back,1.0,m,Mon Nov 17 2025 13:45:16 GMT-0600 (Central Standard Time),301921.2999999821,058_m_m_n_a.png,I,m,598,6,3,1609.699999988079,300311.59999999404,8032,NNB,A,5
6,test,5,1.0,1-Back,1.0,z,Mon Nov 17 2025 13:45:16 GMT-0600 (Central Standard Time),303403.5,058_m_m_n_a.png,I,z,462,7,3,1474.7000000178814,301928.7999999821,8032,NNB,A,6
7,test,5,0.0,1-Back,1.0,m,Mon Nov 17 2025 13:45:16 GMT-0600 (Central Standard Time),305003.0,010_y_f_n_a.png,I,m,579,8,3,1592.4000000059605,303410.59999999404,8032,NNB,A,7
8,test,5,0.0,1-Back,1.0,m,Mon Nov 17 2025 13:45:16 GMT-0600 (Central Standard Time),306585.5,008_y_m_n_a.png,I,m,556,9,3,1575.300000011921,305010.1999999881,8032,NNB,A,8
9,test,5,0.0,1-Back,1.0,m,Mon Nov 17 2025 13:45:16 GMT-0600 (Central Standard Time),308285.0,010_y_f_n_a.png,I,m,676,10,3,1692.5,306592.5,8032,NNB,A,9
10,test,5,0.0,1-Back,1.0,m,Mon Nov 17 2025 13:45:16 GMT-0600 (Central Standard Time),309834.5,047_o_f_n_a.png,I,m,522,11,3,1542.5,308292.0,8032,NNB,A,10
11,test,5,1.0,1-Back,1.0,z,Mon Nov 17 2025 13:45:16 GMT-0600 (Central Standard Time),311484.09999999404,047_o_f_n_a.png,I,z,628,12,3,1642.800000011921,309841.2999999821,8032,NNB,A,11
12,test,5,0.0,1-Back,1.0,m,Mon Nov 17 2025 13:45:16 GMT-0600 (Central Standard Time),313084.90000000596,046_o_m_n_a.png,I,m,578,13,3,1593.7000000178814,311491.1999999881,8032,NNB,A,12
13,test,5,0.0,1-Back,1.0,m,Mon Nov 17 2025 13:45:16 GMT-0600 (Central Standard Time),314716.2999999821,050_m_f_n_a.png,I,m,611,14,3,1624.5999999940395,313091.6999999881,8032,NNB,A,13
14,test,5,1.0,1-Back,1.0,z,Mon Nov 17 2025 13:45:16 GMT-0600 (Central Standard Time),316346.59999999404,050_m_f_n_a.png,I,z,613,15,3,1622.5999999940395,314724.0,8032,NNB,A,14
15,test,5,0.0,1-Back,1.0,m,Mon Nov 17 2025 13:45:16 GMT-0600 (Central Standard Time),317931.7999999821,046_o_m_n_a.png,I,m,561,16,3,1578.5,316353.2999999821,8032,NNB,A,15
16,test,5,0.0,1-Back,1.0,m,Mon Nov 17 2025 13:45:16 GMT-0600 (Central Standard Time),319898.09999999404,043_m_f_n_a.png,I,m,939,17,3,1959.699999988079,317938.40000000596,8032,NNB,A,16
17,test,5,0.0,1-Back,1.0,m,Mon Nov 17 2025 13:45:16 GMT-0600 (Central Standard Time),321531.09999999404,045_m_m_n_a.png,I,m,604,18,3,1625.5,319905.59999999404,8032,NNB,A,17
0,prac,1,0.0,2-Back,,,Mon Nov 17 2025 13:45:16 GMT-0600 (Central Standard Time),321531.09999999404,008_y_m_n_a.png,I,space,6092,1,3,1625.5,319905.59999999404,8032,NNB,A,0
0,prac,1,0.0,2-Back,,,Mon Nov 17 2025 13:45:16 GMT-0600 (Central Standard Time),321531.09999999404,043_m_f_n_a.png,I,space,6092,2,3,1625.5,319905.59999999404,8032,NNB,A,0
1,prac,1,1.0,2-Back,1.0,m,Mon Nov 17 2025 13:45:16 GMT-0600 (Central Standard Time),416085.0,046_o_m_n_a.png,I,m,1145,3,3,1941.5,414143.5,8032,NNB,A,1
2,prac,1,0.0,2-Back,1.0,m,Mon Nov 17 2025 13:45:16 GMT-0600 (Central Standard Time),417900.59999999404,047_o_f_n_a.png,I,m,978,4,3,1806.199999988079,416094.40000000596,8032,NNB,A,2
3,prac,1,0.0,2-Back,1.0,z,Mon Nov 17 2025 13:45:16 GMT-0600 (Central Standard Time),419633.59999999404,046_o_m_n_a.png,I,z,946,5,3,1724.5,417909.09999999404,8032,NNB,A,3
4,prac,1,1.0,2-Back,1.0,z,Mon Nov 17 2025 13:45:16 GMT-0600 (Central Standard Time),421549.6999999881,047_o_f_n_a.png,I,z,1133,6,3,1907.699999988079,419642.0,8032,NNB,A,4
5,prac,1,0.0,2-Back,1.0,m,Mon Nov 17 2025 13:45:16 GMT-0600 (Central Standard Time),423582.2999999821,045_m_m_n_a.png,I,m,1225,7,3,2023.5,421558.7999999821,8032,NNB,A,5
6,prac,1,0.0,2-Back,1.0,m,Mon Nov 17 2025 13:45:16 GMT-0600 (Central Standard Time),425315.0,053_o_m_n_a.png,I,m,927,8,3,1724.0,423591.0,8032,NNB,A,6
7,prac,1,0.0,2-Back,1.0,m,Mon Nov 17 2025 13:45:16 GMT-0600 (Central Standard Time),426981.09999999404,010_y_f_n_a.png,I,m,823,9,3,1658.0,425323.09999999404,8032,NNB,A,7
8,prac,1,1.0,2-Back,1.0,z,Mon Nov 17 2025 13:45:16 GMT-0600 (Central Standard Time),428531.90000000596,053_o_m_n_a.png,I,z,761,10,3,1542.5,426989.40000000596,8032,NNB,A,8
9,prac,1,0.0,2-Back,1.0,m,Mon Nov 17 2025 13:45:16 GMT-0600 (Central Standard Time),430646.90000000596,063_y_f_n_a.png,I,m,1305,11,3,2105.5,428541.40000000596,8032,NNB,A,9
10,prac,1,0.0,2-Back,1.0,m,Mon Nov 17 2025 13:45:16 GMT-0600 (Central Standard Time),432896.0,045_m_m_n_a.png,I,m,1472,12,3,2241.0999999940395,430654.90000000596,8032,NNB,A,10
0,test,1,0.0,2-Back,,,Mon Nov 17 2025 13:45:16 GMT-0600 (Central Standard Time),432896.0,041_y_m_n_a.png,I,space,10407,1,3,2241.0999999940395,430654.90000000596,8032,NNB,A,0
0,test,1,0.0,2-Back,,,Mon Nov 17 2025 13:45:16 GMT-0600 (Central Standard Time),432896.0,041_y_m_n_a.png,I,space,10407,2,3,2241.0999999940395,430654.90000000596,8032,NNB,A,0
1,test,1,0.0,2-Back,1.0,m,Mon Nov 17 2025 13:45:16 GMT-0600 (Central Standard Time),457763.7999999821,047_o_f_n_a.png,I,m,825,3,3,1833.8999999761581,455929.90000000596,8032,NNB,A,1
2,test,1,0.0,2-Back,1.0,m,Mon Nov 17 2025 13:45:16 GMT-0600 (Central Standard Time),459638.40000000596,058_m_m_n_a.png,I,m,835,4,3,1864.1000000238419,457774.2999999821,8032,NNB,A,2
3,test,1,1.0,2-Back,1.0,z,Mon Nov 17 2025 13:45:16 GMT-0600 (Central Standard Time),461370.5,047_o_f_n_a.png,I,z,714,5,3,1724.9000000059605,459645.59999999404,8032,NNB,A,3
4,test,1,0.0,2-Back,1.0,m,Mon Nov 17 2025 13:45:16 GMT-0600 (Central Standard Time),463269.7999999821,063_y_f_n_a.png,I,m,868,6,3,1892.699999988079,461377.09999999404,8032,NNB,A,4
4,test,1,0.0,2-Back,0.0,m,Mon Nov 17 2025 13:45:16 GMT-0600 (Central Standard Time),465319.2999999821,058_m_m_n_a.png,I,z,1017,7,3,2042.2999999821186,463277.0,8032,NNB,A,5
5,test,1,1.0,2-Back,1.0,z,Mon Nov 17 2025 13:45:16 GMT-0600 (Central Standard Time),467235.2999999821,063_y_f_n_a.png,I,z,887,8,3,1908.7999999821186,465326.5,8032,NNB,A,6
6,test,1,0.0,2-Back,1.0,m,Mon Nov 17 2025 13:45:16 GMT-0600 (Central Standard Time),469134.5,008_y_m_n_a.png,I,m,867,9,3,1892.0999999940395,467242.40000000596,8032,NNB,A,7
7,test,1,0.0,2-Back,1.0,m,Mon Nov 17 2025 13:45:16 GMT-0600 (Central Standard Time),470967.5,044_o_f_n_a.png,I,m,809,10,3,1825.5999999940395,469141.90000000596,8032,NNB,A,8
8,test,1,1.0,2-Back,1.0,z,Mon Nov 17 2025 13:45:16 GMT-0600 (Central Standard Time),472699.90000000596,008_y_m_n_a.png,I,z,712,11,3,1724.9000000059605,470975.0,8032,NNB,A,9
9,test,1,0.0,2-Back,1.0,m,Mon Nov 17 2025 13:45:16 GMT-0600 (Central Standard Time),474533.0,043_m_f_n_a.png,I,m,803,12,3,1826.0999999940395,472706.90000000596,8032,NNB,A,10
10,test,1,0.0,2-Back,1.0,m,Mon Nov 17 2025 13:45:16 GMT-0600 (Central Standard Time),476515.59999999404,043_m_f_n_a.png,I,m,963,13,3,1974.9000000059605,474540.6999999881,8032,NNB,A,11
11,test,1,0.0,2-Back,1.0,m,Mon Nov 17 2025 13:45:16 GMT-0600 (Central Standard Time),478398.5,046_o_m_n_a.png,I,m,859,14,3,1875.800000011921,476522.6999999881,8032,NNB,A,12
12,test,1,0.0,2-Back,1.0,m,Mon Nov 17 2025 13:45:16 GMT-0600 (Central Standard Time),480231.1999999881,044_o_f_n_a.png,I,m,809,15,3,1825.2999999821186,478405.90000000596,8032,NNB,A,13
13,test,1,1.0,2-Back,1.0,z,Mon Nov 17 2025 13:45:16 GMT-0600 (Central Standard Time),482330.40000000596,046_o_m_n_a.png,I,z,985,16,3,2091.800000011921,480238.59999999404,8032,NNB,A,14
14,test,1,0.0,2-Back,1.0,m,Mon Nov 17 2025 13:45:16 GMT-0600 (Central Standard Time),484163.40000000596,050_m_f_n_a.png,I,m,805,17,3,1825.1000000238419,482338.2999999821,8032,NNB,A,15
15,test,1,0.0,2-Back,1.0,m,Mon Nov 17 2025 13:45:16 GMT-0600 (Central Standard Time),486046.09999999404,045_m_m_n_a.png,I,m,859,18,3,1875.199999988079,484170.90000000596,8032,NNB,A,16
0,test,2,0.0,2-Back,,,Mon Nov 17 2025 13:45:16 GMT-0600 (Central Standard Time),486046.09999999404,045_m_m_n_a.png,I,space,2488,1,3,1875.199999988079,484170.90000000596,8032,NNB,A,0
0,test,2,0.0,2-Back,,,Mon Nov 17 2025 13:45:16 GMT-0600 (Central Standard Time),486046.09999999404,010_y_f_n_a.png,I,space,2488,2,3,1875.199999988079,484170.90000000596,8032,NNB,A,0
1,test,2,1.0,2-Back,1.0,z,Mon Nov 17 2025 13:45:16 GMT-0600 (Central Standard Time),495543.0,045_m_m_n_a.png,I,z,867,3,3,1892.0999999940395,493650.90000000596,8032,NNB,A,1
2,test,2,0.0,2-Back,1.0,m,Mon Nov 17 2025 13:45:16 GMT-0600 (Central Standard Time),497225.6999999881,050_m_f_n_a.png,I,m,665,4,3,1675.4000000059605,495550.2999999821,8032,NNB,A,2
3,test,2,0.0,2-Back,1.0,m,Mon Nov 17 2025 13:45:16 GMT-0600 (Central Standard Time),499158.90000000596,010_y_f_n_a.png,I,m,900,5,3,1925.7000000178814,497233.1999999881,8032,NNB,A,3
4,test,2,0.0,2-Back,1.0,m,Mon Nov 17 2025 13:45:16 GMT-0600 (Central Standard Time),501024.40000000596,046_o_m_n_a.png,I,m,840,6,3,1857.800000011921,499166.59999999404,8032,NNB,A,4
5,test,2,0.0,2-Back,1.0,m,Mon Nov 17 2025 13:45:16 GMT-0600 (Central Standard Time),503024.0,063_y_f_n_a.png,I,m,974,7,3,1992.0,501032.0,8032,NNB,A,5
6,test,2,1.0,2-Back,1.0,z,Mon Nov 17 2025 13:45:16 GMT-0600 (Central Standard Time),505056.2999999821,046_o_m_n_a.png,I,z,1015,8,3,2025.199999988079,503031.09999999404,8032,NNB,A,6
7,test,2,0.0,2-Back,1.0,m,Mon Nov 17 2025 13:45:16 GMT-0600 (Central Standard Time),506906.2999999821,008_y_m_n_a.png,I,m,822,9,3,1837.5,505068.7999999821,8032,NNB,A,7
8,test,2,0.0,2-Back,1.0,m,Mon Nov 17 2025 13:45:16 GMT-0600 (Central Standard Time),508822.0,008_y_m_n_a.png,I,m,892,10,3,1908.0,506914.0,8032,NNB,A,8
9,test,2,0.0,2-Back,1.0,m,Mon Nov 17 2025 13:45:16 GMT-0600 (Central Standard Time),510788.2999999821,043_m_f_n_a.png,I,m,937,11,3,1958.5999999940395,508829.6999999881,8032,NNB,A,9
10,test,2,0.0,2-Back,1.0,m,Mon Nov 17 2025 13:45:16 GMT-0600 (Central Standard Time),512687.7999999821,010_y_f_n_a.png,I,m,874,12,3,1892.0999999940395,510795.6999999881,8032,NNB,A,10
11,test,2,1.0,2-Back,1.0,z,Mon Nov 17 2025 13:45:16 GMT-0600 (Central Standard Time),514587.09999999404,043_m_f_n_a.png,I,z,880,13,3,1892.0999999940395,512695.0,8032,NNB,A,11
12,test,2,0.0,2-Back,1.0,m,Mon Nov 17 2025 13:45:16 GMT-0600 (Central Standard Time),516336.59999999404,053_o_m_n_a.png,I,m,731,14,3,1741.9000000059605,514594.6999999881,8032,NNB,A,12
13,test,2,0.0,2-Back,1.0,m,Mon Nov 17 2025 13:45:16 GMT-0600 (Central Standard Time),518202.59999999404,053_o_m_n_a.png,I,m,838,15,3,1858.5999999940395,516344.0,8032,NNB,A,13
14,test,2,0.0,2-Back,1.0,m,Mon Nov 17 2025 13:45:16 GMT-0600 (Central Standard Time),520035.59999999404,044_o_f_n_a.png,I,m,804,16,3,1825.699999988079,518209.90000000596,8032,NNB,A,14
15,test,2,0.0,2-Back,1.0,m,Mon Nov 17 2025 13:45:16 GMT-0600 (Central Standard Time),521951.40000000596,058_m_m_n_a.png,I,m,892,17,3,1908.5,520042.90000000596,8032,NNB,A,15
16,test,2,1.0,2-Back,1.0,z,Mon Nov 17 2025 13:45:16 GMT-0600 (Central Standard Time),523867.2999999821,044_o_f_n_a.png,I,z,896,18,3,1908.699999988079,521958.59999999404,8032,NNB,A,16
0,test,3,1.0,2-Back,,,Mon Nov 17 2025 13:45:16 GMT-0600 (Central Standard Time),523867.2999999821,041_y_m_n_a.png,I,space,4003,1,3,1908.699999988079,521958.59999999404,8032,NNB,A,0
0,test,3,1.0,2-Back,,,Mon Nov 17 2025 13:45:16 GMT-0600 (Central Standard Time),523867.2999999821,041_y_m_n_a.png,I,space,4003,2,3,1908.699999988079,521958.59999999404,8032,NNB,A,0
1,test,3,0.0,2-Back,1.0,m,Mon Nov 17 2025 13:45:16 GMT-0600 (Central Standard Time),534797.400000006,044_o_f_n_a.png,I,m,818,3,3,1842.0,532955.400000006,8032,NNB,A,1
2,test,3,0.0,2-Back,1.0,m,Mon Nov 17 2025 13:45:16 GMT-0600 (Central Standard Time),536596.6999999881,045_m_m_n_a.png,I,m,769,4,3,1792.2999999821186,534804.400000006,8032,NNB,A,2
3,test,3,1.0,2-Back,1.0,z,Mon Nov 17 2025 13:45:16 GMT-0600 (Central Standard Time),538413.1999999881,044_o_f_n_a.png,I,z,786,5,3,1809.0,536604.1999999881,8032,NNB,A,3
4,test,3,0.0,2-Back,1.0,m,Mon Nov 17 2025 13:45:16 GMT-0600 (Central Standard Time),540212.5,008_y_m_n_a.png,I,m,777,6,3,1791.9000000059605,538420.599999994,8032,NNB,A,4
5,test,3,0.0,2-Back,1.0,m,Mon Nov 17 2025 13:45:16 GMT-0600 (Central Standard Time),542594.7999999821,045_m_m_n_a.png,I,m,1362,7,3,2374.5999999940395,540220.1999999881,8032,NNB,A,5
6,test,3,1.0,2-Back,1.0,z,Mon Nov 17 2025 13:45:16 GMT-0600 (Central Standard Time),544511.0,008_y_m_n_a.png,I,z,883,8,3,1908.0999999940395,542602.900000006,8032,NNB,A,6
7,test,3,0.0,2-Back,1.0,m,Mon Nov 17 2025 13:45:16 GMT-0600 (Central Standard Time),546277.1999999881,010_y_f_n_a.png,I,m,744,9,3,1758.5999999940395,544518.599999994,8032,NNB,A,7
8,test,3,0.0,2-Back,1.0,m,Mon Nov 17 2025 13:45:16 GMT-0600 (Central Standard Time),548109.7999999821,058_m_m_n_a.png,I,m,809,10,3,1824.7999999821186,546285.0,8032,NNB,A,8
9,test,3,1.0,2-Back,1.0,z,Mon Nov 17 2025 13:45:16 GMT-0600 (Central Standard Time),549877.1999999881,010_y_f_n_a.png,I,z,744,11,3,1759.7999999821186,548117.400000006,8032,NNB,A,9
10,test,3,1.0,2-Back,1.0,z,Mon Nov 17 2025 13:45:16 GMT-0600 (Central Standard Time),552087.6999999881,058_m_m_n_a.png,I,z,1048,12,3,2202.699999988079,549885.0,8032,NNB,A,10
11,test,3,0.0,2-Back,1.0,m,Mon Nov 17 2025 13:45:16 GMT-0600 (Central Standard Time),553808.099999994,044_o_f_n_a.png,I,m,690,13,3,1709.5999999940395,552098.5,8032,NNB,A,11
12,test,3,0.0,2-Back,1.0,m,Mon Nov 17 2025 13:45:16 GMT-0600 (Central Standard Time),555607.599999994,050_m_f_n_a.png,I,m,775,14,3,1791.9000000059605,553815.6999999881,8032,NNB,A,12
13,test,3,0.0,2-Back,1.0,m,Mon Nov 17 2025 13:45:16 GMT-0600 (Central Standard Time),557373.6999999881,046_o_m_n_a.png,I,m,744,15,3,1758.5999999940395,555615.099999994,8032,NNB,A,13
14,test,3,1.0,2-Back,1.0,z,Mon Nov 17 2025 13:45:16 GMT-0600 (Central Standard Time),559223.1999999881,050_m_f_n_a.png,I,z,817,16,3,1842.4000000059605,557380.7999999821,8032,NNB,A,14
15,test,3,0.0,2-Back,1.0,m,Mon Nov 17 2025 13:45:16 GMT-0600 (Central Standard Time),561205.7999999821,047_o_f_n_a.png,I,m,951,17,3,1975.0999999940395,559230.6999999881,8032,NNB,A,15
16,test,3,0.0,2-Back,1.0,m,Mon Nov 17 2025 13:45:16 GMT-0600 (Central Standard Time),563072.0,047_o_f_n_a.png,I,m,841,18,3,1858.9000000059605,561213.099999994,8032,NNB,A,16
0,test,4,0.0,2-Back,,,Mon Nov 17 2025 13:45:16 GMT-0600 (Central Standard Time),563072.0,053_o_m_n_a.png,I,space,3215,1,3,1858.9000000059605,561213.099999994,8032,NNB,A,0
0,test,4,0.0,2-Back,,,Mon Nov 17 2025 13:45:16 GMT-0600 (Central Standard Time),563072.0,063_y_f_n_a.png,I,space,3215,2,3,1858.9000000059605,561213.099999994,8032,NNB,A,0
1,test,4,1.0,2-Back,1.0,z,Mon Nov 17 2025 13:45:16 GMT-0600 (Central Standard Time),573202.2999999821,053_o_m_n_a.png,I,z,773,3,3,1792.699999988079,571409.599999994,8032,NNB,A,1
2,test,4,1.0,2-Back,1.0,z,Mon Nov 17 2025 13:45:16 GMT-0600 (Central Standard Time),575151.2999999821,063_y_f_n_a.png,I,z,924,4,3,1941.199999988079,573210.099999994,8032,NNB,A,2
3,test,4,0.0,2-Back,1.0,m,Mon Nov 17 2025 13:45:16 GMT-0600 (Central Standard Time),577150.900000006,044_o_f_n_a.png,I,m,967,5,3,1992.4000000059605,575158.5,8032,NNB,A,3
4,test,4,0.0,2-Back,1.0,m,Mon Nov 17 2025 13:45:16 GMT-0600 (Central Standard Time),578917.0,044_o_f_n_a.png,I,m,736,6,3,1758.7000000178814,577158.2999999821,8032,NNB,A,4
5,test,4,0.0,2-Back,1.0,m,Mon Nov 17 2025 13:45:16 GMT-0600 (Central Standard Time),581149.5,043_m_f_n_a.png,I,m,1202,7,3,2224.5999999940395,578924.900000006,8032,NNB,A,5
6,test,4,0.0,2-Back,1.0,m,Mon Nov 17 2025 13:45:16 GMT-0600 (Central Standard Time),582882.2999999821,008_y_m_n_a.png,I,m,704,8,3,1725.0,581157.2999999821,8032,NNB,A,6
7,test,4,1.0,2-Back,1.0,z,Mon Nov 17 2025 13:45:16 GMT-0600 (Central Standard Time),584616.1999999881,043_m_f_n_a.png,I,z,708,9,3,1726.9000000059605,582889.2999999821,8032,NNB,A,7
8,test,4,0.0,2-Back,1.0,m,Mon Nov 17 2025 13:45:16 GMT-0600 (Central Standard Time),586431.2999999821,058_m_m_n_a.png,I,m,783,10,3,1807.3999999761581,584623.900000006,8032,NNB,A,8
8,test,4,0.0,2-Back,0.0,m,Mon Nov 17 2025 13:45:16 GMT-0600 (Central Standard Time),588080.6999999881,008_y_m_n_a.png,I,z,624,11,3,1641.9000000059605,586438.7999999821,8032,NNB,A,9
9,test,4,0.0,2-Back,1.0,m,Mon Nov 17 2025 13:45:16 GMT-0600 (Central Standard Time),590013.5,047_o_f_n_a.png,I,m,910,12,3,1925.4000000059605,588088.099999994,8032,NNB,A,10
10,test,4,0.0,2-Back,1.0,m,Mon Nov 17 2025 13:45:16 GMT-0600 (Central Standard Time),592112.900000006,041_y_m_n_a.png,I,m,1074,13,3,2091.600000023842,590021.2999999821,8032,NNB,A,11
11,test,4,1.0,2-Back,1.0,z,Mon Nov 17 2025 13:45:16 GMT-0600 (Central Standard Time),593962.099999994,047_o_f_n_a.png,I,z,830,14,3,1841.300000011921,592120.7999999821,8032,NNB,A,12
12,test,4,1.0,2-Back,1.0,z,Mon Nov 17 2025 13:45:16 GMT-0600 (Central Standard Time),595995.400000006,041_y_m_n_a.png,I,z,1012,15,3,2025.7000000178814,593969.6999999881,8032,NNB,A,13
13,test,4,0.0,2-Back,1.0,m,Mon Nov 17 2025 13:45:16 GMT-0600 (Central Standard Time),598011.0,045_m_m_n_a.png,I,m,985,16,3,2007.5999999940395,596003.400000006,8032,NNB,A,14
14,test,4,0.0,2-Back,1.0,m,Mon Nov 17 2025 13:45:16 GMT-0600 (Central Standard Time),599877.099999994,050_m_f_n_a.png,I,m,814,17,3,1857.800000011921,598019.2999999821,8032,NNB,A,15
14,test,4,1.0,2-Back,0.0,z,Mon Nov 17 2025 13:45:16 GMT-0600 (Central Standard Time),601893.5,045_m_m_n_a.png,I,m,985,18,3,2009.0,599884.5,8032,NNB,A,16
0,test,5,1.0,2-Back,,,Mon Nov 17 2025 13:45:16 GMT-0600 (Central Standard Time),601893.5,041_y_m_n_a.png,I,space,3617,1,3,2009.0,599884.5,8032,NNB,A,0
0,test,5,1.0,2-Back,,,Mon Nov 17 2025 13:45:16 GMT-0600 (Central Standard Time),601893.5,050_m_f_n_a.png,I,space,3617,2,3,2009.0,599884.5,8032,NNB,A,0
1,test,5,1.0,2-Back,1.0,z,Mon Nov 17 2025 13:45:16 GMT-0600 (Central Standard Time),612556.2999999821,041_y_m_n_a.png,I,z,961,3,3,1975.0999999940395,610581.1999999881,8032,NNB,A,1
2,test,5,1.0,2-Back,1.0,z,Mon Nov 17 2025 13:45:16 GMT-0600 (Central Standard Time),614339.1999999881,050_m_f_n_a.png,I,z,763,4,3,1775.7999999821186,612563.400000006,8032,NNB,A,2
3,test,5,0.0,2-Back,1.0,m,Mon Nov 17 2025 13:45:16 GMT-0600 (Central Standard Time),616288.400000006,047_o_f_n_a.png,I,m,932,5,3,1942.0,614346.400000006,8032,NNB,A,3
3,test,5,0.0,2-Back,0.0,m,Mon Nov 17 2025 13:45:16 GMT-0600 (Central Standard Time),618471.400000006,041_y_m_n_a.png,I,z,1165,6,3,2175.5,616295.900000006,8032,NNB,A,4
4,test,5,0.0,2-Back,1.0,m,Mon Nov 17 2025 13:45:16 GMT-0600 (Central Standard Time),620470.7999999821,010_y_f_n_a.png,I,m,967,7,3,1991.5999999940395,618479.1999999881,8032,NNB,A,5
5,test,5,0.0,2-Back,1.0,m,Mon Nov 17 2025 13:45:16 GMT-0600 (Central Standard Time),622337.400000006,047_o_f_n_a.png,I,m,841,8,3,1859.1000000238419,620478.2999999821,8032,NNB,A,6
6,test,5,1.0,2-Back,1.0,z,Mon Nov 17 2025 13:45:16 GMT-0600 (Central Standard Time),624269.5,010_y_f_n_a.png,I,z,911,9,3,1924.800000011921,622344.6999999881,8032,NNB,A,7
7,test,5,0.0,2-Back,1.0,m,Mon Nov 17 2025 13:45:16 GMT-0600 (Central Standard Time),626052.099999994,046_o_m_n_a.png,I,m,761,10,3,1774.800000011921,624277.2999999821,8032,NNB,A,8
8,test,5,0.0,2-Back,1.0,m,Mon Nov 17 2025 13:45:16 GMT-0600 (Central Standard Time),627784.6999999881,043_m_f_n_a.png,I,m,715,11,3,1725.0,626059.6999999881,8032,NNB,A,9
9,test,5,0.0,2-Back,1.0,m,Mon Nov 17 2025 13:45:16 GMT-0600 (Central Standard Time),629635.5,058_m_m_n_a.png,I,m,822,12,3,1843.7000000178814,627791.7999999821,8032,NNB,A,10
10,test,5,0.0,2-Back,1.0,m,Mon Nov 17 2025 13:45:16 GMT-0600 (Central Standard Time),631650.599999994,046_o_m_n_a.png,I,m,996,13,3,2007.5,629643.099999994,8032,NNB,A,11
11,test,5,1.0,2-Back,1.0,z,Mon Nov 17 2025 13:45:16 GMT-0600 (Central Standard Time),633416.5,058_m_m_n_a.png,I,z,740,14,3,1758.5999999940395,631657.900000006,8032,NNB,A,12
12,test,5,0.0,2-Back,1.0,m,Mon Nov 17 2025 13:45:16 GMT-0600 (Central Standard Time),635199.1999999881,063_y_f_n_a.png,I,m,758,15,3,1775.0,633424.1999999881,8032,NNB,A,13
13,test,5,0.0,2-Back,1.0,m,Mon Nov 17 2025 13:45:16 GMT-0600 (Central Standard Time),636932.1999999881,053_o_m_n_a.png,I,m,712,16,3,1725.5,635206.6999999881,8032,NNB,A,14
14,test,5,0.0,2-Back,1.0,m,Mon Nov 17 2025 13:45:16 GMT-0600 (Central Standard Time),638648.099999994,043_m_f_n_a.png,I,m,698,17,3,1708.0999999940395,636940.0,8032,NNB,A,15
15,test,5,1.0,2-Back,1.0,z,Mon Nov 17 2025 13:45:16 GMT-0600 (Central Standard Time),640214.400000006,053_o_m_n_a.png,I,z,534,18,3,1559.0,638655.400000006,8032,NNB,A,16
