acc_sum,block,block_c,change,condition,correct,correct_response,datetime,endtime,face,project,response,response_time,row_sel,session_number,start_end,starttime,subject_id,task,task_vers,trial
0,prac,1,,1-Back,,,Fri Aug 08 2025 13:55:02 GMT-0500 (Central Daylight Time),,005_o_f_d_a.png,O,space,8749,1,1,,,7183,VNB,B,0
1,prac,1,0.0,1-Back,1.0,m,Fri Aug 08 2025 13:55:02 GMT-0500 (Central Daylight Time),124333.0,020_y_f_n_a.png,O,m,1045,2,1,1889.1000001430511,122443.89999985695,7183,VNB,B,1
2,prac,1,0.0,1-Back,1.0,m,Fri Aug 08 2025 13:55:02 GMT-0500 (Central Daylight Time),126331.89999985695,007_m_m_h_a.png,O,m,1101,3,1,1989.2999999523163,124342.59999990463,7183,VNB,B,2
3,prac,1,0.0,1-Back,1.0,m,Fri Aug 08 2025 13:55:02 GMT-0500 (Central Daylight Time),128082.79999995232,016_y_m_d_a.png,O,m,863,4,1,1741.7999999523163,126341.0,7183,VNB,B,3
3,prac,1,0.0,1-Back,0.0,m,Fri Aug 08 2025 13:55:02 GMT-0500 (Central Daylight Time),130231.09999990463,005_o_f_n_a.png,O,z,1265,5,1,2141.0,128090.09999990463,7183,VNB,B,4
4,prac,1,1.0,1-Back,1.0,z,Fri Aug 08 2025 13:55:02 GMT-0500 (Central Daylight Time),132396.79999995232,016_y_m_n_a.png,O,z,1266,6,1,2156.5999999046326,130240.20000004768,7183,VNB,B,5
5,prac,1,0.0,1-Back,1.0,m,Fri Aug 08 2025 13:55:02 GMT-0500 (Central Daylight Time),134380.0,004_o_m_h_a.png,O,m,1104,7,1,1972.7000000476837,132407.29999995232,7183,VNB,B,6
6,prac,1,0.0,1-Back,1.0,m,Fri Aug 08 2025 13:55:02 GMT-0500 (Central Daylight Time),136009.79999995232,011_m_f_d_a.png,O,m,737,8,1,1619.2000000476837,134390.59999990463,7183,VNB,B,7
6,prac,1,1.0,1-Back,0.0,z,Fri Aug 08 2025 13:55:02 GMT-0500 (Central Daylight Time),137764.70000004768,020_y_f_d_a.png,O,m,894,9,1,1749.3000001907349,136015.39999985695,7183,VNB,B,8
7,prac,1,0.0,1-Back,1.0,m,Fri Aug 08 2025 13:55:02 GMT-0500 (Central Daylight Time),140095.59999990463,007_m_m_n_a.png,O,m,1429,10,1,2320.899999856949,137774.70000004768,7183,VNB,B,9
8,prac,1,0.0,1-Back,1.0,m,Fri Aug 08 2025 13:55:02 GMT-0500 (Central Daylight Time),141777.20000004768,005_o_f_h_a.png,O,m,805,11,1,1674.6000001430511,140102.59999990463,7183,VNB,B,10
9,prac,1,0.0,1-Back,1.0,m,Fri Aug 08 2025 13:55:02 GMT-0500 (Central Daylight Time),143728.79999995232,016_y_m_d_a.png,O,m,1047,12,1,1942.9000000953674,141785.89999985695,7183,VNB,B,11
0,test,1,0.0,1-Back,,,Fri Aug 08 2025 13:55:02 GMT-0500 (Central Daylight Time),143728.79999995232,020_y_f_d_a.png,O,space,10696,1,1,1942.9000000953674,141785.89999985695,7183,VNB,B,0
1,test,1,0.0,1-Back,1.0,m,Fri Aug 08 2025 13:55:02 GMT-0500 (Central Daylight Time),165971.79999995232,011_m_f_n_a.png,O,m,983,2,1,1992.2999999523163,163979.5,7183,VNB,B,1
2,test,1,0.0,1-Back,1.0,m,Fri Aug 08 2025 13:55:02 GMT-0500 (Central Daylight Time),167719.20000004768,004_o_m_h_a.png,O,m,718,3,1,1740.7000000476837,165978.5,7183,VNB,B,2
3,test,1,1.0,1-Back,1.0,z,Fri Aug 08 2025 13:55:02 GMT-0500 (Central Daylight Time),169301.70000004768,007_m_m_h_a.png,O,z,555,4,1,1573.5,167728.20000004768,7183,VNB,B,3
4,test,1,0.0,1-Back,1.0,m,Fri Aug 08 2025 13:55:02 GMT-0500 (Central Daylight Time),171101.20000004768,005_o_f_n_a.png,O,m,780,5,1,1790.7000000476837,169310.5,7183,VNB,B,4
5,test,1,0.0,1-Back,1.0,m,Fri Aug 08 2025 13:55:02 GMT-0500 (Central Daylight Time),173316.89999985695,016_y_m_d_a.png,O,m,1198,6,1,2208.0999999046326,171108.79999995232,7183,VNB,B,5
6,test,1,1.0,1-Back,1.0,z,Fri Aug 08 2025 13:55:02 GMT-0500 (Central Daylight Time),175732.5,011_m_f_d_a.png,O,z,1397,7,1,2407.5,173325.0,7183,VNB,B,6
7,test,1,0.0,1-Back,1.0,m,Fri Aug 08 2025 13:55:02 GMT-0500 (Central Daylight Time),177466.09999990463,020_y_f_h_a.png,O,m,709,8,1,1726.0999999046326,175740.0,7183,VNB,B,7
7,test,1,0.0,1-Back,0.0,m,Fri Aug 08 2025 13:55:02 GMT-0500 (Central Daylight Time),179422.0,004_o_m_n_a.png,O,z,940,9,1,1948.2000000476837,177473.79999995232,7183,VNB,B,8
8,test,1,0.0,1-Back,1.0,m,Fri Aug 08 2025 13:55:02 GMT-0500 (Central Daylight Time),181581.70000004768,016_y_m_h_a.png,O,m,1148,10,1,2157.100000143051,179424.59999990463,7183,VNB,B,9
9,test,1,0.0,1-Back,1.0,m,Fri Aug 08 2025 13:55:02 GMT-0500 (Central Daylight Time),183628.70000004768,004_o_m_d_a.png,O,m,1028,11,1,2039.3000001907349,181589.39999985695,7183,VNB,B,10
9,test,1,1.0,1-Back,0.0,z,Fri Aug 08 2025 13:55:02 GMT-0500 (Central Daylight Time),185394.09999990463,005_o_f_d_a.png,O,m,746,12,1,1762.0999999046326,183632.0,7183,VNB,B,11
10,test,1,0.0,1-Back,1.0,m,Fri Aug 08 2025 13:55:02 GMT-0500 (Central Daylight Time),187945.29999995232,007_m_m_n_a.png,O,m,1516,13,1,2546.0,185399.29999995232,7183,VNB,B,12
11,test,1,1.0,1-Back,1.0,z,Fri Aug 08 2025 13:55:02 GMT-0500 (Central Daylight Time),189811.70000004768,020_y_f_n_a.png,O,z,849,14,1,1859.9000000953674,187951.79999995232,7183,VNB,B,13
12,test,1,0.0,1-Back,1.0,m,Fri Aug 08 2025 13:55:02 GMT-0500 (Central Daylight Time),191744.20000004768,011_m_f_h_a.png,O,m,910,15,1,1924.6000001430511,189819.59999990463,7183,VNB,B,14
12,test,1,0.0,1-Back,0.0,m,Fri Aug 08 2025 13:55:02 GMT-0500 (Central Daylight Time),193595.5,007_m_m_d_a.png,O,z,833,16,1,1843.7999999523163,191751.70000004768,7183,VNB,B,15
13,test,1,0.0,1-Back,1.0,m,Fri Aug 08 2025 13:55:02 GMT-0500 (Central Daylight Time),195843.5,016_y_m_n_a.png,O,m,1225,17,1,2241.4000000953674,193602.09999990463,7183,VNB,B,16
14,test,1,0.0,1-Back,1.0,m,Fri Aug 08 2025 13:55:02 GMT-0500 (Central Daylight Time),198075.20000004768,005_o_f_h_a.png,O,m,1207,18,1,2223.600000143051,195851.59999990463,7183,VNB,B,17
0,test,2,0.0,1-Back,,,Fri Aug 08 2025 13:55:02 GMT-0500 (Central Daylight Time),198075.20000004768,016_y_m_n_a.png,O,space,1366,1,1,2223.600000143051,195851.59999990463,7183,VNB,B,0
1,test,2,0.0,1-Back,1.0,m,Fri Aug 08 2025 13:55:02 GMT-0500 (Central Daylight Time),203109.79999995232,020_y_f_h_a.png,O,m,634,2,1,1643.2000000476837,201466.59999990463,7183,VNB,B,1
2,test,2,1.0,1-Back,1.0,m,Fri Aug 08 2025 13:55:02 GMT-0500 (Central Daylight Time),205590.29999995232,004_o_m_n_a.png,O,m,1465,3,1,2474.5,203115.79999995232,7183,VNB,B,2
2,test,2,0.0,1-Back,0.0,m,Fri Aug 08 2025 13:55:02 GMT-0500 (Central Daylight Time),208105.29999995232,011_m_f_d_a.png,O,z,1491,4,1,2506.5,205598.79999995232,7183,VNB,B,3
3,test,2,0.0,1-Back,1.0,z,Fri Aug 08 2025 13:55:02 GMT-0500 (Central Daylight Time),210422.09999990463,007_m_m_d_a.png,O,z,1286,5,1,2310.399999856949,208111.70000004768,7183,VNB,B,4
4,test,2,0.0,1-Back,1.0,m,Fri Aug 08 2025 13:55:02 GMT-0500 (Central Daylight Time),212488.5,016_y_m_h_a.png,O,m,1036,6,1,2058.5,210430.0,7183,VNB,B,5
4,test,2,1.0,1-Back,0.0,z,Fri Aug 08 2025 13:55:02 GMT-0500 (Central Daylight Time),214436.79999995232,005_o_f_h_a.png,O,m,921,7,1,1941.9000000953674,212494.89999985695,7183,VNB,B,6
4,test,2,0.0,1-Back,0.0,m,Fri Aug 08 2025 13:55:02 GMT-0500 (Central Daylight Time),216387.20000004768,011_m_f_n_a.png,O,z,933,8,1,1942.8000001907349,214444.39999985695,7183,VNB,B,7
5,test,2,0.0,1-Back,1.0,m,Fri Aug 08 2025 13:55:02 GMT-0500 (Central Daylight Time),219171.20000004768,020_y_f_d_a.png,O,m,1767,9,1,2776.9000000953674,216394.29999995232,7183,VNB,B,8
6,test,2,0.0,1-Back,1.0,m,Fri Aug 08 2025 13:55:02 GMT-0500 (Central Daylight Time),221868.29999995232,007_m_m_n_a.png,O,m,1679,10,1,2688.7000000476837,219179.59999990463,7183,VNB,B,9
7,test,2,1.0,1-Back,1.0,m,Fri Aug 08 2025 13:55:02 GMT-0500 (Central Daylight Time),224184.0,011_m_f_h_a.png,O,m,1284,11,1,2308.0,221876.0,7183,VNB,B,10
8,test,2,0.0,1-Back,1.0,z,Fri Aug 08 2025 13:55:02 GMT-0500 (Central Daylight Time),225983.70000004768,004_o_m_h_a.png,O,z,769,12,1,1792.4000000953674,224191.29999995232,7183,VNB,B,11
9,test,2,0.0,1-Back,1.0,m,Fri Aug 08 2025 13:55:02 GMT-0500 (Central Daylight Time),227949.79999995232,016_y_m_d_a.png,O,m,934,13,1,1958.9000000953674,225990.89999985695,7183,VNB,B,12
10,test,2,0.0,1-Back,1.0,m,Fri Aug 08 2025 13:55:02 GMT-0500 (Central Daylight Time),230598.20000004768,005_o_f_n_a.png,O,m,1628,14,1,2641.0,227957.20000004768,7183,VNB,B,13
11,test,2,0.0,1-Back,1.0,z,Fri Aug 08 2025 13:55:02 GMT-0500 (Central Daylight Time),232781.70000004768,020_y_f_n_a.png,O,z,1155,15,1,2176.5,230605.20000004768,7183,VNB,B,14
12,test,2,1.0,1-Back,1.0,m,Fri Aug 08 2025 13:55:02 GMT-0500 (Central Daylight Time),234681.59999990463,007_m_m_h_a.png,O,m,869,16,1,1892.5999999046326,232789.0,7183,VNB,B,15
12,test,2,0.0,1-Back,0.0,m,Fri Aug 08 2025 13:55:02 GMT-0500 (Central Daylight Time),236931.29999995232,005_o_f_d_a.png,O,z,1233,17,1,2242.4000000953674,234688.89999985695,7183,VNB,B,16
12,test,2,1.0,1-Back,0.0,z,Fri Aug 08 2025 13:55:02 GMT-0500 (Central Daylight Time),239364.0,004_o_m_d_a.png,O,m,1417,18,1,2425.9000000953674,236938.09999990463,7183,VNB,B,17
0,test,3,1.0,1-Back,,,Fri Aug 08 2025 13:55:02 GMT-0500 (Central Daylight Time),239364.0,005_o_f_h_a.png,O,space,1533,1,1,2425.9000000953674,236938.09999990463,7183,VNB,B,0
1,test,3,0.0,1-Back,1.0,m,Fri Aug 08 2025 13:55:02 GMT-0500 (Central Daylight Time),245110.0,011_m_f_d_a.png,O,m,1061,2,1,2073.9000000953674,243036.09999990463,7183,VNB,B,1
2,test,3,1.0,1-Back,1.0,m,Fri Aug 08 2025 13:55:02 GMT-0500 (Central Daylight Time),247609.79999995232,007_m_m_n_a.png,O,m,1475,3,1,2492.5,245117.29999995232,7183,VNB,B,2
3,test,3,0.0,1-Back,1.0,z,Fri Aug 08 2025 13:55:02 GMT-0500 (Central Daylight Time),249475.89999985695,005_o_f_n_a.png,O,z,848,4,1,1859.6999998092651,247616.20000004768,7183,VNB,B,3
4,test,3,1.0,1-Back,1.0,m,Fri Aug 08 2025 13:55:02 GMT-0500 (Central Daylight Time),251459.29999995232,004_o_m_d_a.png,O,m,965,5,1,1975.2999999523163,249484.0,7183,VNB,B,4
5,test,3,0.0,1-Back,1.0,m,Fri Aug 08 2025 13:55:02 GMT-0500 (Central Daylight Time),253508.59999990463,020_y_f_h_a.png,O,m,1032,6,1,2043.8999998569489,251464.70000004768,7183,VNB,B,5
6,test,3,0.0,1-Back,1.0,z,Fri Aug 08 2025 13:55:02 GMT-0500 (Central Daylight Time),255309.59999990463,016_y_m_h_a.png,O,z,784,7,1,1793.7999999523163,253515.79999995232,7183,VNB,B,6
7,test,3,0.0,1-Back,1.0,m,Fri Aug 08 2025 13:55:02 GMT-0500 (Central Daylight Time),257189.09999990463,011_m_f_n_a.png,O,m,859,8,1,1873.2000000476837,255315.89999985695,7183,VNB,B,7
8,test,3,0.0,1-Back,1.0,m,Fri Aug 08 2025 13:55:02 GMT-0500 (Central Daylight Time),259505.70000004768,020_y_f_d_a.png,O,m,1290,9,1,2312.0,257193.70000004768,7183,VNB,B,8
8,test,3,1.0,1-Back,0.0,m,Fri Aug 08 2025 13:55:02 GMT-0500 (Central Daylight Time),262023.20000004768,004_o_m_n_a.png,O,z,1482,10,1,2510.9000000953674,259512.29999995232,7183,VNB,B,9
9,test,3,0.0,1-Back,1.0,m,Fri Aug 08 2025 13:55:02 GMT-0500 (Central Daylight Time),264054.39999985695,007_m_m_h_a.png,O,m,1004,11,1,2024.3999998569489,262030.0,7183,VNB,B,10
10,test,3,0.0,1-Back,1.0,z,Fri Aug 08 2025 13:55:02 GMT-0500 (Central Daylight Time),266205.09999990463,011_m_f_h_a.png,O,z,1134,12,1,2143.7000000476837,264061.39999985695,7183,VNB,B,11
11,test,3,1.0,1-Back,1.0,m,Fri Aug 08 2025 13:55:02 GMT-0500 (Central Daylight Time),268207.2000000477,005_o_f_d_a.png,O,m,984,13,1,1997.4000000953674,266209.7999999523,7183,VNB,B,12
11,test,3,0.0,1-Back,0.0,z,Fri Aug 08 2025 13:55:02 GMT-0500 (Central Daylight Time),270602.7000000477,007_m_m_d_a.png,O,m,1374,14,1,2392.600000143051,268210.09999990463,7183,VNB,B,13
11,test,3,0.0,1-Back,0.0,m,Fri Aug 08 2025 13:55:02 GMT-0500 (Central Daylight Time),273636.2000000477,016_y_m_n_a.png,O,None,2015,15,1,3026.0,270610.2000000477,7183,VNB,B,14
12,test,3,1.0,1-Back,1.0,m,Fri Aug 08 2025 13:55:02 GMT-0500 (Central Daylight Time),275800.2000000477,004_o_m_h_a.png,O,m,1142,16,1,2155.9000000953674,273644.2999999523,7183,VNB,B,15
13,test,3,0.0,1-Back,1.0,m,Fri Aug 08 2025 13:55:02 GMT-0500 (Central Daylight Time),278000.39999985695,016_y_m_d_a.png,O,m,1167,17,1,2194.0999999046326,275806.2999999523,7183,VNB,B,16
14,test,3,1.0,1-Back,1.0,m,Fri Aug 08 2025 13:55:02 GMT-0500 (Central Daylight Time),280815.09999990463,020_y_f_n_a.png,O,m,1786,18,1,2807.5999999046326,278007.5,7183,VNB,B,17
0,test,4,1.0,1-Back,,,Fri Aug 08 2025 13:55:02 GMT-0500 (Central Daylight Time),280815.09999990463,007_m_m_d_a.png,O,space,1258,1,1,2807.5999999046326,278007.5,7183,VNB,B,0
1,test,4,0.0,1-Back,1.0,z,Fri Aug 08 2025 13:55:02 GMT-0500 (Central Daylight Time),285748.09999990463,004_o_m_d_a.png,O,z,624,2,1,1642.5,284105.59999990463,7183,VNB,B,1
2,test,4,0.0,1-Back,1.0,m,Fri Aug 08 2025 13:55:02 GMT-0500 (Central Daylight Time),287647.2999999523,016_y_m_h_a.png,O,m,868,3,1,1892.4000000953674,285754.89999985695,7183,VNB,B,2
3,test,4,0.0,1-Back,1.0,m,Fri Aug 08 2025 13:55:02 GMT-0500 (Central Daylight Time),289729.89999985695,011_m_f_n_a.png,O,m,1058,4,1,2075.399999856949,287654.5,7183,VNB,B,3
4,test,4,1.0,1-Back,1.0,m,Fri Aug 08 2025 13:55:02 GMT-0500 (Central Daylight Time),291979.39999985695,005_o_f_h_a.png,O,m,1232,5,1,2241.399999856949,289738.0,7183,VNB,B,4
5,test,4,0.0,1-Back,1.0,m,Fri Aug 08 2025 13:55:02 GMT-0500 (Central Daylight Time),294345.59999990463,007_m_m_n_a.png,O,m,1335,6,1,2360.399999856949,291985.2000000477,7183,VNB,B,5
5,test,4,0.0,1-Back,0.0,m,Fri Aug 08 2025 13:55:02 GMT-0500 (Central Daylight Time),296477.59999990463,016_y_m_d_a.png,O,z,1113,7,1,2124.7000000476837,294352.89999985695,7183,VNB,B,6
6,test,4,1.0,1-Back,1.0,z,Fri Aug 08 2025 13:55:02 GMT-0500 (Central Daylight Time),298344.0,020_y_f_d_a.png,O,z,836,8,1,1857.7999999523163,296486.2000000477,7183,VNB,B,7
7,test,4,0.0,1-Back,1.0,m,Fri Aug 08 2025 13:55:02 GMT-0500 (Central Daylight Time),300209.09999990463,011_m_f_h_a.png,O,m,842,9,1,1858.5999999046326,298350.5,7183,VNB,B,8
7,test,4,0.0,1-Back,0.0,z,Fri Aug 08 2025 13:55:02 GMT-0500 (Central Daylight Time),301909.5,004_o_m_h_a.png,O,m,670,10,1,1693.4000000953674,300216.09999990463,7183,VNB,B,9
8,test,4,1.0,1-Back,1.0,m,Fri Aug 08 2025 13:55:02 GMT-0500 (Central Daylight Time),304776.7000000477,005_o_f_n_a.png,O,m,1838,11,1,2858.9000000953674,301917.7999999523,7183,VNB,B,10
8,test,4,0.0,1-Back,0.0,m,Fri Aug 08 2025 13:55:02 GMT-0500 (Central Daylight Time),306826.7999999523,011_m_f_d_a.png,O,z,1027,12,1,2041.2999999523163,304785.5,7183,VNB,B,11
8,test,4,0.0,1-Back,0.0,m,Fri Aug 08 2025 13:55:02 GMT-0500 (Central Daylight Time),309040.89999985695,020_y_f_n_a.png,O,z,1194,13,1,2205.699999809265,306835.2000000477,7183,VNB,B,12
8,test,4,0.0,1-Back,0.0,m,Fri Aug 08 2025 13:55:02 GMT-0500 (Central Daylight Time),311507.2000000477,005_o_f_d_a.png,O,z,1434,14,1,2459.4000000953674,309047.7999999523,7183,VNB,B,13
9,test,4,0.0,1-Back,1.0,m,Fri Aug 08 2025 13:55:02 GMT-0500 (Central Daylight Time),313556.59999990463,020_y_f_h_a.png,O,m,1022,15,1,2041.3999998569489,311515.2000000477,7183,VNB,B,14
10,test,4,1.0,1-Back,1.0,z,Fri Aug 08 2025 13:55:02 GMT-0500 (Central Daylight Time),315223.5,007_m_m_h_a.png,O,z,637,16,1,1657.0,313566.5,7183,VNB,B,15
11,test,4,0.0,1-Back,1.0,m,Fri Aug 08 2025 13:55:02 GMT-0500 (Central Daylight Time),317154.2999999523,004_o_m_n_a.png,O,m,910,17,1,1927.0999999046326,315227.2000000477,7183,VNB,B,16
12,test,4,1.0,1-Back,1.0,z,Fri Aug 08 2025 13:55:02 GMT-0500 (Central Daylight Time),319503.59999990463,016_y_m_n_a.png,O,z,1318,18,1,2341.5999999046326,317162.0,7183,VNB,B,17
0,test,5,1.0,1-Back,,,Fri Aug 08 2025 13:55:02 GMT-0500 (Central Daylight Time),319503.59999990463,004_o_m_n_a.png,O,space,1368,1,1,2341.5999999046326,317162.0,7183,VNB,B,0
1,test,5,1.0,1-Back,1.0,m,Fri Aug 08 2025 13:55:02 GMT-0500 (Central Daylight Time),324836.2000000477,005_o_f_h_a.png,O,m,897,2,1,1921.6000001430511,322914.59999990463,7183,VNB,B,1
2,test,5,0.0,1-Back,1.0,m,Fri Aug 08 2025 13:55:02 GMT-0500 (Central Daylight Time),326869.7000000477,016_y_m_d_a.png,O,m,1015,3,1,2026.1000001430511,324843.59999990463,7183,VNB,B,2
3,test,5,0.0,1-Back,1.0,z,Fri Aug 08 2025 13:55:02 GMT-0500 (Central Daylight Time),328651.59999990463,004_o_m_d_a.png,O,z,765,4,1,1772.0999999046326,326879.5,7183,VNB,B,3
4,test,5,0.0,1-Back,1.0,m,Fri Aug 08 2025 13:55:02 GMT-0500 (Central Daylight Time),330567.2999999523,011_m_f_h_a.png,O,m,886,5,1,1911.0999999046326,328656.2000000477,7183,VNB,B,4
4,test,5,0.0,1-Back,0.0,m,Fri Aug 08 2025 13:55:02 GMT-0500 (Central Daylight Time),332683.7999999523,020_y_f_n_a.png,O,z,1099,6,1,2110.5999999046326,330573.2000000477,7183,VNB,B,5
5,test,5,1.0,1-Back,1.0,z,Fri Aug 08 2025 13:55:02 GMT-0500 (Central Daylight Time),334746.7999999523,005_o_f_n_a.png,O,z,1038,7,1,2056.5999999046326,332690.2000000477,7183,VNB,B,6
6,test,5,0.0,1-Back,1.0,m,Fri Aug 08 2025 13:55:02 GMT-0500 (Central Daylight Time),336781.7000000477,011_m_f_d_a.png,O,m,1005,8,1,2032.2000000476837,334749.5,7183,VNB,B,7
7,test,5,0.0,1-Back,1.0,m,Fri Aug 08 2025 13:55:02 GMT-0500 (Central Daylight Time),338895.59999990463,016_y_m_h_a.png,O,m,1090,9,1,2108.399999856949,336787.2000000477,7183,VNB,B,8
8,test,5,0.0,1-Back,1.0,m,Fri Aug 08 2025 13:55:02 GMT-0500 (Central Daylight Time),341397.39999985695,020_y_f_d_a.png,O,m,1472,10,1,2498.5,338898.89999985695,7183,VNB,B,9
8,test,5,0.0,1-Back,0.0,m,Fri Aug 08 2025 13:55:02 GMT-0500 (Central Daylight Time),343613.2999999523,007_m_m_n_a.png,O,z,1190,11,1,2207.9000000953674,341405.39999985695,7183,VNB,B,10
9,test,5,1.0,1-Back,1.0,z,Fri Aug 08 2025 13:55:02 GMT-0500 (Central Daylight Time),345780.5,011_m_f_n_a.png,O,z,1151,12,1,2159.5,343621.0,7183,VNB,B,11
10,test,5,0.0,1-Back,1.0,m,Fri Aug 08 2025 13:55:02 GMT-0500 (Central Daylight Time),347677.59999990463,004_o_m_h_a.png,O,m,879,13,1,1890.2999999523163,345787.2999999523,7183,VNB,B,12
11,test,5,0.0,1-Back,1.0,z,Fri Aug 08 2025 13:55:02 GMT-0500 (Central Daylight Time),349811.39999985695,007_m_m_h_a.png,O,z,1099,14,1,2126.2999999523163,347685.09999990463,7183,VNB,B,13
12,test,5,1.0,1-Back,1.0,m,Fri Aug 08 2025 13:55:02 GMT-0500 (Central Daylight Time),351743.5,005_o_f_d_a.png,O,m,902,15,1,1925.0,349818.5,7183,VNB,B,14
12,test,5,0.0,1-Back,0.0,m,Fri Aug 08 2025 13:55:02 GMT-0500 (Central Daylight Time),354326.59999990463,016_y_m_n_a.png,O,z,1553,16,1,2574.7000000476837,351751.89999985695,7183,VNB,B,15
13,test,5,0.0,1-Back,1.0,m,Fri Aug 08 2025 13:55:02 GMT-0500 (Central Daylight Time),356225.89999985695,020_y_f_h_a.png,O,m,867,17,1,1890.5999999046326,354335.2999999523,7183,VNB,B,16
14,test,5,0.0,1-Back,1.0,m,Fri Aug 08 2025 13:55:02 GMT-0500 (Central Daylight Time),358308.89999985695,007_m_m_d_a.png,O,m,1066,18,1,2075.2999999523163,356233.59999990463,7183,VNB,B,17
0,prac,1,0.0,2-Back,,,Fri Aug 08 2025 13:55:02 GMT-0500 (Central Daylight Time),358308.89999985695,011_m_f_n_a.png,O,space,6069,1,1,2075.2999999523163,356233.59999990463,7183,VNB,B,0
0,prac,1,0.0,2-Back,,,Fri Aug 08 2025 13:55:02 GMT-0500 (Central Daylight Time),358308.89999985695,005_o_f_h_a.png,O,space,6069,2,1,2075.2999999523163,356233.59999990463,7183,VNB,B,0
0,prac,1,0.0,2-Back,0.0,m,Fri Aug 08 2025 13:55:02 GMT-0500 (Central Daylight Time),454195.5,004_o_m_d_a.png,O,z,1444,3,1,2305.7000000476837,451889.7999999523,7183,VNB,B,1
0,prac,1,1.0,2-Back,0.0,z,Fri Aug 08 2025 13:55:02 GMT-0500 (Central Daylight Time),456212.2000000477,007_m_m_h_a.png,O,m,1145,4,1,2007.3000001907349,454204.89999985695,7183,VNB,B,2
0,prac,1,0.0,2-Back,0.0,m,Fri Aug 08 2025 13:55:02 GMT-0500 (Central Daylight Time),459110.09999990463,020_y_f_n_a.png,O,None,2009,5,1,2888.7999999523163,456221.2999999523,7183,VNB,B,3
0,prac,1,1.0,2-Back,0.0,z,Fri Aug 08 2025 13:55:02 GMT-0500 (Central Daylight Time),461025.09999990463,004_o_m_h_a.png,O,m,1051,6,1,1906.0,459119.09999990463,7183,VNB,B,4
1,prac,1,1.0,2-Back,1.0,z,Fri Aug 08 2025 13:55:02 GMT-0500 (Central Daylight Time),463191.89999985695,016_y_m_n_a.png,O,z,1266,7,1,2158.5,461033.39999985695,7183,VNB,B,5
2,prac,1,0.0,2-Back,1.0,m,Fri Aug 08 2025 13:55:02 GMT-0500 (Central Daylight Time),465374.7999999523,011_m_f_d_a.png,O,m,1287,8,1,2174.2999999523163,463200.5,7183,VNB,B,6
2,prac,1,0.0,2-Back,0.0,m,Fri Aug 08 2025 13:55:02 GMT-0500 (Central Daylight Time),467523.39999985695,005_o_f_d_a.png,O,z,1268,9,1,2139.5,465383.89999985695,7183,VNB,B,7
3,prac,1,0.0,2-Back,1.0,m,Fri Aug 08 2025 13:55:02 GMT-0500 (Central Daylight Time),469955.0,007_m_m_h_a.png,O,m,1656,10,1,2422.600000143051,467532.39999985695,7183,VNB,B,8
4,prac,1,1.0,2-Back,1.0,z,Fri Aug 08 2025 13:55:02 GMT-0500 (Central Daylight Time),472055.89999985695,020_y_f_d_a.png,O,z,1208,11,1,2090.899999856949,469965.0,7183,VNB,B,9
4,prac,1,0.0,2-Back,0.0,m,Fri Aug 08 2025 13:55:02 GMT-0500 (Central Daylight Time),474105.5,004_o_m_n_a.png,O,z,1181,12,1,2041.2000000476837,472064.2999999523,7183,VNB,B,10
0,prac,2,0.0,2-Back,,,Fri Aug 08 2025 13:55:02 GMT-0500 (Central Daylight Time),474105.5,011_m_f_n_a.png,O,a,4144,1,1,2041.2000000476837,472064.2999999523,7183,VNB,B,0
0,prac,2,0.0,2-Back,,,Fri Aug 08 2025 13:55:02 GMT-0500 (Central Daylight Time),474105.5,005_o_f_h_a.png,O,a,4144,2,1,2041.2000000476837,472064.2999999523,7183,VNB,B,0
1,prac,2,0.0,2-Back,1.0,m,Fri Aug 08 2025 13:55:02 GMT-0500 (Central Daylight Time),485567.39999985695,004_o_m_d_a.png,O,m,1191,3,1,2044.3999998569489,483523.0,7183,VNB,B,1
2,prac,2,1.0,2-Back,1.0,z,Fri Aug 08 2025 13:55:02 GMT-0500 (Central Daylight Time),487583.89999985695,007_m_m_h_a.png,O,z,1246,4,1,2004.2999999523163,485579.59999990463,7183,VNB,B,2
3,prac,2,0.0,2-Back,1.0,m,Fri Aug 08 2025 13:55:02 GMT-0500 (Central Daylight Time),489967.0,020_y_f_n_a.png,O,m,1511,5,1,2373.2000000476837,487593.7999999523,7183,VNB,B,3
4,prac,2,1.0,2-Back,1.0,z,Fri Aug 08 2025 13:55:02 GMT-0500 (Central Daylight Time),491899.7999999523,004_o_m_h_a.png,O,z,1061,6,1,1924.7000000476837,489975.09999990463,7183,VNB,B,4
5,prac,2,1.0,2-Back,1.0,z,Fri Aug 08 2025 13:55:02 GMT-0500 (Central Daylight Time),494364.7999999523,016_y_m_n_a.png,O,z,1573,7,1,2456.5999999046326,491908.2000000477,7183,VNB,B,5
6,prac,2,0.0,2-Back,1.0,m,Fri Aug 08 2025 13:55:02 GMT-0500 (Central Daylight Time),496564.09999990463,011_m_f_d_a.png,O,m,1335,8,1,2191.5999999046326,494372.5,7183,VNB,B,6
6,prac,2,0.0,2-Back,0.0,m,Fri Aug 08 2025 13:55:02 GMT-0500 (Central Daylight Time),499463.7999999523,005_o_f_d_a.png,O,None,2009,9,1,2889.4000000953674,496574.39999985695,7183,VNB,B,7
6,prac,2,0.0,2-Back,0.0,m,Fri Aug 08 2025 13:55:02 GMT-0500 (Central Daylight Time),501829.7999999523,007_m_m_h_a.png,O,z,1579,10,1,2358.7000000476837,499471.09999990463,7183,VNB,B,8
7,prac,2,1.0,2-Back,1.0,z,Fri Aug 08 2025 13:55:02 GMT-0500 (Central Daylight Time),504262.0,020_y_f_d_a.png,O,z,1546,11,1,2422.0,501840.0,7183,VNB,B,9
8,prac,2,0.0,2-Back,1.0,m,Fri Aug 08 2025 13:55:02 GMT-0500 (Central Daylight Time),506543.89999985695,004_o_m_n_a.png,O,m,1422,12,1,2272.699999809265,504271.2000000477,7183,VNB,B,10
0,test,1,0.0,2-Back,,,Fri Aug 08 2025 13:55:02 GMT-0500 (Central Daylight Time),506543.89999985695,016_y_m_h_a.png,O,space,3225,1,1,2272.699999809265,504271.2000000477,7183,VNB,B,0
0,test,1,0.0,2-Back,,,Fri Aug 08 2025 13:55:02 GMT-0500 (Central Daylight Time),506543.89999985695,005_o_f_n_a.png,O,space,3225,2,1,2272.699999809265,504271.2000000477,7183,VNB,B,0
1,test,1,0.0,2-Back,1.0,z,Fri Aug 08 2025 13:55:02 GMT-0500 (Central Daylight Time),524621.7000000477,004_o_m_h_a.png,O,z,671,3,1,1689.2000000476837,522932.5,7183,VNB,B,1
2,test,1,0.0,2-Back,1.0,m,Fri Aug 08 2025 13:55:02 GMT-0500 (Central Daylight Time),526720.899999857,011_m_f_d_a.png,O,m,1068,4,1,2091.2999999523163,524629.5999999046,7183,VNB,B,2
3,test,1,1.0,2-Back,1.0,m,Fri Aug 08 2025 13:55:02 GMT-0500 (Central Daylight Time),529171.2000000477,016_y_m_n_a.png,O,m,1424,5,1,2442.0,526729.2000000477,7183,VNB,B,3
3,test,1,0.0,2-Back,0.0,z,Fri Aug 08 2025 13:55:02 GMT-0500 (Central Daylight Time),532070.0,020_y_f_d_a.png,O,m,1872,6,1,2890.7000000476837,529179.2999999523,7183,VNB,B,4
4,test,1,0.0,2-Back,1.0,m,Fri Aug 08 2025 13:55:02 GMT-0500 (Central Daylight Time),534685.0999999046,007_m_m_h_a.png,O,m,1584,7,1,2607.2000000476837,532077.899999857,7183,VNB,B,5
4,test,1,1.0,2-Back,0.0,m,Fri Aug 08 2025 13:55:02 GMT-0500 (Central Daylight Time),536485.2999999523,020_y_f_n_a.png,O,z,782,8,1,1792.7999999523163,534692.5,7183,VNB,B,6
5,test,1,0.0,2-Back,1.0,z,Fri Aug 08 2025 13:55:02 GMT-0500 (Central Daylight Time),538718.0999999046,005_o_f_h_a.png,O,z,1198,9,1,2223.5999999046326,536494.5,7183,VNB,B,7
6,test,1,0.0,2-Back,1.0,m,Fri Aug 08 2025 13:55:02 GMT-0500 (Central Daylight Time),541050.5999999046,004_o_m_d_a.png,O,m,1308,10,1,2325.0999999046326,538725.5,7183,VNB,B,8
7,test,1,1.0,2-Back,1.0,m,Fri Aug 08 2025 13:55:02 GMT-0500 (Central Daylight Time),543831.2999999523,007_m_m_d_a.png,O,m,1760,11,1,2773.0999999046326,541058.2000000477,7183,VNB,B,9
7,test,1,0.0,2-Back,0.0,m,Fri Aug 08 2025 13:55:02 GMT-0500 (Central Daylight Time),545880.899999857,011_m_f_n_a.png,O,z,1024,12,1,2046.5999999046326,543834.2999999523,7183,VNB,B,10
8,test,1,0.0,2-Back,1.0,m,Fri Aug 08 2025 13:55:02 GMT-0500 (Central Daylight Time),548481.0,020_y_f_h_a.png,O,m,1569,13,1,2593.2999999523163,545887.7000000477,7183,VNB,B,11
9,test,1,0.0,2-Back,1.0,z,Fri Aug 08 2025 13:55:02 GMT-0500 (Central Daylight Time),550617.399999857,007_m_m_n_a.png,O,z,1105,14,1,2130.7999999523163,548486.5999999046,7183,VNB,B,12
10,test,1,0.0,2-Back,1.0,m,Fri Aug 08 2025 13:55:02 GMT-0500 (Central Daylight Time),552579.7999999523,016_y_m_d_a.png,O,m,941,15,1,1959.7999999523163,550620.0,7183,VNB,B,13
10,test,1,1.0,2-Back,0.0,m,Fri Aug 08 2025 13:55:02 GMT-0500 (Central Daylight Time),555613.0999999046,011_m_f_h_a.png,O,None,2016,16,1,3025.7999999523163,552587.2999999523,7183,VNB,B,14
10,test,1,0.0,2-Back,0.0,z,Fri Aug 08 2025 13:55:02 GMT-0500 (Central Daylight Time),557961.5,005_o_f_d_a.png,O,m,1326,17,1,2340.9000000953674,555620.5999999046,7183,VNB,B,15
10,test,1,0.0,2-Back,0.0,m,Fri Aug 08 2025 13:55:02 GMT-0500 (Central Daylight Time),560411.0,004_o_m_n_a.png,O,z,1417,18,1,2442.100000143051,557968.899999857,7183,VNB,B,16
0,test,2,0.0,2-Back,,,Fri Aug 08 2025 13:55:02 GMT-0500 (Central Daylight Time),560411.0,007_m_m_h_a.png,O,space,958,1,1,2442.100000143051,557968.899999857,7183,VNB,B,0
0,test,2,0.0,2-Back,,,Fri Aug 08 2025 13:55:02 GMT-0500 (Central Daylight Time),560411.0,020_y_f_n_a.png,O,space,958,2,1,2442.100000143051,557968.899999857,7183,VNB,B,0
1,test,2,1.0,2-Back,1.0,z,Fri Aug 08 2025 13:55:02 GMT-0500 (Central Daylight Time),568640.399999857,005_o_f_h_a.png,O,z,1006,3,1,2023.0999999046326,566617.2999999523,7183,VNB,B,1
2,test,2,0.0,2-Back,1.0,m,Fri Aug 08 2025 13:55:02 GMT-0500 (Central Daylight Time),570707.0999999046,004_o_m_d_a.png,O,m,1041,4,1,2064.2000000476837,568642.899999857,7183,VNB,B,2
2,test,2,0.0,2-Back,0.0,m,Fri Aug 08 2025 13:55:02 GMT-0500 (Central Daylight Time),573141.7999999523,011_m_f_d_a.png,O,z,1416,5,1,2427.0999999046326,570714.7000000477,7183,VNB,B,3
2,test,2,0.0,2-Back,0.0,m,Fri Aug 08 2025 13:55:02 GMT-0500 (Central Daylight Time),575888.5999999046,016_y_m_h_a.png,O,z,1727,6,1,2740.0999999046326,573148.5,7183,VNB,B,4
2,test,2,0.0,2-Back,0.0,m,Fri Aug 08 2025 13:55:02 GMT-0500 (Central Daylight Time),578871.399999857,005_o_f_n_a.png,O,z,1953,7,1,2976.0999999046326,575895.2999999523,7183,VNB,B,5
3,test,2,1.0,2-Back,1.0,z,Fri Aug 08 2025 13:55:02 GMT-0500 (Central Daylight Time),581070.2999999523,004_o_m_h_a.png,O,z,1178,8,1,2190.5999999046326,578879.7000000477,7183,VNB,B,6
4,test,2,0.0,2-Back,1.0,m,Fri Aug 08 2025 13:55:02 GMT-0500 (Central Daylight Time),582919.5999999046,020_y_f_d_a.png,O,m,817,9,1,1842.2999999523163,581077.2999999523,7183,VNB,B,7
5,test,2,0.0,2-Back,1.0,m,Fri Aug 08 2025 13:55:02 GMT-0500 (Central Daylight Time),585587.2000000477,016_y_m_d_a.png,O,m,1641,10,1,2660.2000000476837,582927.0,7183,VNB,B,8
5,test,2,0.0,2-Back,0.0,m,Fri Aug 08 2025 13:55:02 GMT-0500 (Central Daylight Time),588485.7999999523,007_m_m_n_a.png,O,z,1880,11,1,2891.7000000476837,585594.0999999046,7183,VNB,B,9
6,test,2,0.0,2-Back,1.0,m,Fri Aug 08 2025 13:55:02 GMT-0500 (Central Daylight Time),591033.399999857,011_m_f_h_a.png,O,m,1517,12,1,2540.199999809265,588493.2000000477,7183,VNB,B,10
7,test,2,1.0,2-Back,1.0,z,Fri Aug 08 2025 13:55:02 GMT-0500 (Central Daylight Time),593216.5999999046,004_o_m_n_a.png,O,z,1159,13,1,2174.5,591042.0999999046,7183,VNB,B,11
8,test,2,0.0,2-Back,1.0,m,Fri Aug 08 2025 13:55:02 GMT-0500 (Central Daylight Time),595066.0,005_o_f_d_a.png,O,m,818,14,1,1841.0,593225.0,7183,VNB,B,12
9,test,2,0.0,2-Back,1.0,m,Fri Aug 08 2025 13:55:02 GMT-0500 (Central Daylight Time),597463.7999999523,020_y_f_h_a.png,O,m,1374,15,1,2391.0,595072.7999999523,7183,VNB,B,13
10,test,2,0.0,2-Back,1.0,z,Fri Aug 08 2025 13:55:02 GMT-0500 (Central Daylight Time),599498.7999999523,007_m_m_d_a.png,O,z,1016,16,1,2031.7000000476837,597467.0999999046,7183,VNB,B,14
11,test,2,0.0,2-Back,1.0,m,Fri Aug 08 2025 13:55:02 GMT-0500 (Central Daylight Time),601747.2000000477,016_y_m_n_a.png,O,m,1232,17,1,2240.800000190735,599506.399999857,7183,VNB,B,15
12,test,2,1.0,2-Back,1.0,m,Fri Aug 08 2025 13:55:02 GMT-0500 (Central Daylight Time),604396.899999857,011_m_f_n_a.png,O,m,1633,18,1,2643.7999999523163,601753.0999999046,7183,VNB,B,16
0,test,3,1.0,2-Back,,,Fri Aug 08 2025 13:55:02 GMT-0500 (Central Daylight Time),604396.899999857,004_o_m_n_a.png,O,space,1183,1,1,2643.7999999523163,601753.0999999046,7183,VNB,B,0
0,test,3,1.0,2-Back,,,Fri Aug 08 2025 13:55:02 GMT-0500 (Central Daylight Time),604396.899999857,005_o_f_d_a.png,O,space,1183,2,1,2643.7999999523163,601753.0999999046,7183,VNB,B,0
1,test,3,0.0,2-Back,1.0,m,Fri Aug 08 2025 13:55:02 GMT-0500 (Central Daylight Time),612727.0,020_y_f_h_a.png,O,m,1070,3,1,2092.2999999523163,610634.7000000477,7183,VNB,B,1
2,test,3,0.0,2-Back,1.0,z,Fri Aug 08 2025 13:55:02 GMT-0500 (Central Daylight Time),615226.5,011_m_f_d_a.png,O,z,1475,4,1,2492.600000143051,612733.899999857,7183,VNB,B,2
3,test,3,1.0,2-Back,1.0,m,Fri Aug 08 2025 13:55:02 GMT-0500 (Central Daylight Time),617644.0,016_y_m_n_a.png,O,m,1403,5,1,2410.100000143051,615233.899999857,7183,VNB,B,3
3,test,3,0.0,2-Back,0.0,m,Fri Aug 08 2025 13:55:02 GMT-0500 (Central Daylight Time),619908.7999999523,004_o_m_h_a.png,O,z,1249,6,1,2259.7000000476837,617649.0999999046,7183,VNB,B,4
4,test,3,0.0,2-Back,1.0,z,Fri Aug 08 2025 13:55:02 GMT-0500 (Central Daylight Time),622708.5,020_y_f_n_a.png,O,z,1783,7,1,2790.7000000476837,619917.7999999523,7183,VNB,B,5
5,test,3,1.0,2-Back,1.0,m,Fri Aug 08 2025 13:55:02 GMT-0500 (Central Daylight Time),625240.0999999046,007_m_m_d_a.png,O,m,1502,8,1,2526.5,622713.5999999046,7183,VNB,B,6
5,test,3,0.0,2-Back,0.0,m,Fri Aug 08 2025 13:55:02 GMT-0500 (Central Daylight Time),628272.5,016_y_m_d_a.png,O,None,2016,9,1,3025.0,625247.5,7183,VNB,B,7
6,test,3,0.0,2-Back,1.0,m,Fri Aug 08 2025 13:55:02 GMT-0500 (Central Daylight Time),630556.5999999046,005_o_f_h_a.png,O,m,1266,10,1,2277.399999856949,628279.2000000477,7183,VNB,B,8
6,test,3,1.0,2-Back,0.0,m,Fri Aug 08 2025 13:55:02 GMT-0500 (Central Daylight Time),633270.399999857,011_m_f_n_a.png,O,z,1695,11,1,2706.199999809265,630564.2000000477,7183,VNB,B,9
6,test,3,1.0,2-Back,0.0,z,Fri Aug 08 2025 13:55:02 GMT-0500 (Central Daylight Time),636219.5999999046,007_m_m_h_a.png,O,m,1921,12,1,2941.5,633278.0999999046,7183,VNB,B,10
6,test,3,0.0,2-Back,0.0,m,Fri Aug 08 2025 13:55:02 GMT-0500 (Central Daylight Time),638668.399999857,020_y_f_d_a.png,O,z,1421,13,1,2441.199999809265,636227.2000000477,7183,VNB,B,11
7,test,3,0.0,2-Back,1.0,m,Fri Aug 08 2025 13:55:02 GMT-0500 (Central Daylight Time),640834.7000000477,005_o_f_n_a.png,O,m,1140,14,1,2157.9000000953674,638676.7999999523,7183,VNB,B,12
7,test,3,0.0,2-Back,0.0,z,Fri Aug 08 2025 13:55:02 GMT-0500 (Central Daylight Time),643534.899999857,004_o_m_d_a.png,O,m,1678,15,1,2694.899999856949,640840.0,7183,VNB,B,13
7,test,3,1.0,2-Back,0.0,m,Fri Aug 08 2025 13:55:02 GMT-0500 (Central Daylight Time),645451.0,011_m_f_h_a.png,O,z,890,16,1,1909.4000000953674,643541.5999999046,7183,VNB,B,14
8,test,3,0.0,2-Back,1.0,m,Fri Aug 08 2025 13:55:02 GMT-0500 (Central Daylight Time),648082.399999857,007_m_m_n_a.png,O,m,1599,17,1,2624.2999999523163,645458.0999999046,7183,VNB,B,15
8,test,3,0.0,2-Back,0.0,z,Fri Aug 08 2025 13:55:02 GMT-0500 (Central Daylight Time),650930.0,016_y_m_h_a.png,O,m,1829,18,1,2841.0,648089.0,7183,VNB,B,16
0,test,4,0.0,2-Back,,,Fri Aug 08 2025 13:55:02 GMT-0500 (Central Daylight Time),650930.0,011_m_f_n_a.png,O,space,847,1,1,2841.0,648089.0,7183,VNB,B,0
0,test,4,0.0,2-Back,,,Fri Aug 08 2025 13:55:02 GMT-0500 (Central Daylight Time),650930.0,004_o_m_n_a.png,O,space,847,2,1,2841.0,648089.0,7183,VNB,B,0
1,test,4,1.0,2-Back,1.0,m,Fri Aug 08 2025 13:55:02 GMT-0500 (Central Daylight Time),659178.0,016_y_m_h_a.png,O,m,1139,3,1,2156.9000000953674,657021.0999999046,7183,VNB,B,1
2,test,4,1.0,2-Back,1.0,m,Fri Aug 08 2025 13:55:02 GMT-0500 (Central Daylight Time),661678.2999999523,005_o_f_d_a.png,O,m,1479,4,1,2494.5,659183.7999999523,7183,VNB,B,2
3,test,4,0.0,2-Back,1.0,z,Fri Aug 08 2025 13:55:02 GMT-0500 (Central Daylight Time),663776.5,004_o_m_h_a.png,O,z,1074,5,1,2091.100000143051,661685.399999857,7183,VNB,B,3
3,test,4,0.0,2-Back,0.0,m,Fri Aug 08 2025 13:55:02 GMT-0500 (Central Daylight Time),666394.5,007_m_m_n_a.png,O,z,1583,6,1,2615.100000143051,663779.399999857,7183,VNB,B,4
4,test,4,0.0,2-Back,1.0,m,Fri Aug 08 2025 13:55:02 GMT-0500 (Central Daylight Time),668527.899999857,011_m_f_d_a.png,O,m,1115,7,1,2125.699999809265,666402.2000000477,7183,VNB,B,5
5,test,4,0.0,2-Back,1.0,z,Fri Aug 08 2025 13:55:02 GMT-0500 (Central Daylight Time),670774.899999857,020_y_f_n_a.png,O,z,1228,8,1,2243.699999809265,668531.2000000477,7183,VNB,B,6
6,test,4,1.0,2-Back,1.0,m,Fri Aug 08 2025 13:55:02 GMT-0500 (Central Daylight Time),673241.5999999046,005_o_f_h_a.png,O,m,1435,9,1,2457.5999999046326,670784.0,7183,VNB,B,7
6,test,4,0.0,2-Back,0.0,m,Fri Aug 08 2025 13:55:02 GMT-0500 (Central Daylight Time),675857.0999999046,007_m_m_h_a.png,O,z,1591,10,1,2607.7999999523163,673249.2999999523,7183,VNB,B,8
7,test,4,0.0,2-Back,1.0,m,Fri Aug 08 2025 13:55:02 GMT-0500 (Central Daylight Time),678089.2000000477,020_y_f_d_a.png,O,m,1210,11,1,2223.800000190735,675865.399999857,7183,VNB,B,9
7,test,4,0.0,2-Back,0.0,m,Fri Aug 08 2025 13:55:02 GMT-0500 (Central Daylight Time),680238.5,016_y_m_n_a.png,O,z,1128,12,1,2140.4000000953674,678098.0999999046,7183,VNB,B,10
8,test,4,0.0,2-Back,1.0,z,Fri Aug 08 2025 13:55:02 GMT-0500 (Central Daylight Time),682821.5,004_o_m_d_a.png,O,z,1555,13,1,2575.7999999523163,680245.7000000477,7183,VNB,B,11
9,test,4,1.0,2-Back,1.0,m,Fri Aug 08 2025 13:55:02 GMT-0500 (Central Daylight Time),684904.5,011_m_f_h_a.png,O,m,1053,14,1,2073.2999999523163,682831.2000000477,7183,VNB,B,12
10,test,4,1.0,2-Back,1.0,m,Fri Aug 08 2025 13:55:02 GMT-0500 (Central Daylight Time),687321.7000000477,020_y_f_h_a.png,O,m,1393,15,1,2408.600000143051,684913.0999999046,7183,VNB,B,13
11,test,4,0.0,2-Back,1.0,m,Fri Aug 08 2025 13:55:02 GMT-0500 (Central Daylight Time),689970.5,005_o_f_n_a.png,O,m,1626,16,1,2639.9000000953674,687330.5999999046,7183,VNB,B,14
12,test,4,0.0,2-Back,1.0,m,Fri Aug 08 2025 13:55:02 GMT-0500 (Central Daylight Time),692151.0999999046,016_y_m_d_a.png,O,m,1150,17,1,2177.0,689974.0999999046,7183,VNB,B,15
12,test,4,1.0,2-Back,0.0,m,Fri Aug 08 2025 13:55:02 GMT-0500 (Central Daylight Time),695184.2999999523,007_m_m_d_a.png,O,None,2015,18,1,3026.2000000476837,692158.0999999046,7183,VNB,B,16
0,test,5,1.0,2-Back,,,Fri Aug 08 2025 13:55:02 GMT-0500 (Central Daylight Time),695184.2999999523,020_y_f_d_a.png,O,space,1057,1,1,3026.2000000476837,692158.0999999046,7183,VNB,B,0
0,test,5,1.0,2-Back,,,Fri Aug 08 2025 13:55:02 GMT-0500 (Central Daylight Time),695184.2999999523,005_o_f_h_a.png,O,space,1057,2,1,3026.2000000476837,692158.0999999046,7183,VNB,B,0
1,test,5,1.0,2-Back,1.0,z,Fri Aug 08 2025 13:55:02 GMT-0500 (Central Daylight Time),703514.7999999523,004_o_m_d_a.png,O,z,1014,3,1,2027.0,701487.7999999523,7183,VNB,B,1
2,test,5,1.0,2-Back,1.0,m,Fri Aug 08 2025 13:55:02 GMT-0500 (Central Daylight Time),705781.2000000477,011_m_f_n_a.png,O,m,1249,4,1,2258.800000190735,703522.399999857,7183,VNB,B,2
2,test,5,0.0,2-Back,0.0,m,Fri Aug 08 2025 13:55:02 GMT-0500 (Central Daylight Time),708096.5,007_m_m_h_a.png,O,z,1292,5,1,2306.2000000476837,705790.2999999523,7183,VNB,B,3
3,test,5,0.0,2-Back,1.0,z,Fri Aug 08 2025 13:55:02 GMT-0500 (Central Daylight Time),709864.5,020_y_f_n_a.png,O,z,737,6,1,1761.6000001430511,708102.899999857,7183,VNB,B,4
3,test,5,0.0,2-Back,0.0,m,Fri Aug 08 2025 13:55:02 GMT-0500 (Central Daylight Time),712446.2000000477,005_o_f_d_a.png,O,z,1567,7,1,2572.100000143051,709874.0999999046,7183,VNB,B,5
3,test,5,0.0,2-Back,0.0,m,Fri Aug 08 2025 13:55:02 GMT-0500 (Central Daylight Time),714510.5999999046,004_o_m_h_a.png,O,z,1046,8,1,2057.2999999523163,712453.2999999523,7183,VNB,B,6
3,test,5,1.0,2-Back,0.0,z,Fri Aug 08 2025 13:55:02 GMT-0500 (Central Daylight Time),716761.0999999046,011_m_f_d_a.png,O,m,1223,9,1,2243.5999999046326,714517.5,7183,VNB,B,7
4,test,5,0.0,2-Back,1.0,m,Fri Aug 08 2025 13:55:02 GMT-0500 (Central Daylight Time),719276.2999999523,016_y_m_n_a.png,O,m,1489,10,1,2506.0999999046326,716770.2000000477,7183,VNB,B,8
4,test,5,0.0,2-Back,0.0,m,Fri Aug 08 2025 13:55:02 GMT-0500 (Central Daylight Time),722310.7999999523,007_m_m_n_a.png,O,None,2019,11,1,3028.0999999046326,719282.7000000477,7183,VNB,B,9
5,test,5,0.0,2-Back,1.0,m,Fri Aug 08 2025 13:55:02 GMT-0500 (Central Daylight Time),724491.0999999046,020_y_f_h_a.png,O,m,1157,12,1,2171.7000000476837,722319.399999857,7183,VNB,B,10
6,test,5,0.0,2-Back,1.0,m,Fri Aug 08 2025 13:55:02 GMT-0500 (Central Daylight Time),726807.7999999523,016_y_m_d_a.png,O,m,1295,13,1,2309.7000000476837,724498.0999999046,7183,VNB,B,11
7,test,5,1.0,2-Back,1.0,z,Fri Aug 08 2025 13:55:02 GMT-0500 (Central Daylight Time),729004.7999999523,011_m_f_h_a.png,O,z,1178,14,1,2190.0999999046326,726814.7000000477,7183,VNB,B,12
8,test,5,0.0,2-Back,1.0,m,Fri Aug 08 2025 13:55:02 GMT-0500 (Central Daylight Time),731238.7999999523,004_o_m_n_a.png,O,m,1212,15,1,2226.7000000476837,729012.0999999046,7183,VNB,B,13
9,test,5,0.0,2-Back,1.0,m,Fri Aug 08 2025 13:55:02 GMT-0500 (Central Daylight Time),733988.7999999523,007_m_m_d_a.png,O,m,1731,16,1,2743.7000000476837,731245.0999999046,7183,VNB,B,14
9,test,5,0.0,2-Back,0.0,z,Fri Aug 08 2025 13:55:02 GMT-0500 (Central Daylight Time),736371.7000000477,005_o_f_n_a.png,O,m,1357,17,1,2375.0,733996.7000000477,7183,VNB,B,15
10,test,5,1.0,2-Back,1.0,m,Fri Aug 08 2025 13:55:02 GMT-0500 (Central Daylight Time),738486.5,016_y_m_h_a.png,O,m,1087,18,1,2106.0,736380.5,7183,VNB,B,16
