block_c,block_dur,condition,countdown,datetime,endtime,list,multichar_response,project,response,response_time,session_number,start_end,starttime,subject_id,task,task_vers,trial
,,,,Mon May 04 2026 14:02:05 GMT-0400 (Eastern Daylight Time),,,,I,space,559,3,,,9028,WL,A,
prac,,0,,Mon May 04 2026 14:02:05 GMT-0400 (Eastern Daylight Time),,NA,b,I,b,3433,3,,,9028,WL,A,1.0
prac,,0,,Mon May 04 2026 14:02:05 GMT-0400 (Eastern Daylight Time),,NA,bo,I,o,658,3,,,9028,WL,A,1.0
prac,,0,,Mon May 04 2026 14:02:05 GMT-0400 (Eastern Daylight Time),,NA,boo,I,o,145,3,,,9028,WL,A,1.0
prac,,0,,Mon May 04 2026 14:02:05 GMT-0400 (Eastern Daylight Time),,NA,boos,I,s,74,3,,,9028,WL,A,1.0
prac,,0,,Mon May 04 2026 14:02:05 GMT-0400 (Eastern Daylight Time),,NA,boost,I,t,315,3,,,9028,WL,A,1.0
prac,,0,,Mon May 04 2026 14:02:05 GMT-0400 (Eastern Daylight Time),,NA,boostenter,I,enter,1737,3,,,9028,WL,A,1.0
1,1.0499999523162842,learn,58950.000047683716,Mon May 04 2026 14:02:05 GMT-0400 (Eastern Daylight Time),135566.2999999998,A,l,I,l,1039,3,1049.3999999994412,134516.90000000037,9028,WL,A,1.0
1,1.5,learn,58500.0,Mon May 04 2026 14:02:05 GMT-0400 (Eastern Daylight Time),136016.0,A,lo,I,o,429,3,1499.0999999996275,134516.90000000037,9028,WL,A,1.0
1,2.2330000400543213,learn,57766.99995994568,Mon May 04 2026 14:02:05 GMT-0400 (Eastern Daylight Time),136749.5,A,log,I,g,706,3,2232.5999999996275,134516.90000000037,9028,WL,A,1.0
1,2.5329999923706055,learn,57467.000007629395,Mon May 04 2026 14:02:05 GMT-0400 (Eastern Daylight Time),137049.10000000056,A,logenter,I,enter,277,3,2532.2000000001863,134516.90000000037,9028,WL,A,1.0
1,3.1659998893737793,learn,56834.00011062622,Mon May 04 2026 14:02:05 GMT-0400 (Eastern Daylight Time),137682.7999999998,A,m,I,m,611,3,633.1999999992549,137049.60000000056,9028,WL,A,2.0
1,3.4159998893737793,learn,56584.00011062622,Mon May 04 2026 14:02:05 GMT-0400 (Eastern Daylight Time),137932.7000000002,A,me,I,e,223,3,883.0999999996275,137049.60000000056,9028,WL,A,2.0
1,3.5999999046325684,learn,56400.00009536743,Mon May 04 2026 14:02:05 GMT-0400 (Eastern Daylight Time),138115.90000000037,A,mea,I,a,166,3,1066.2999999998137,137049.60000000056,9028,WL,A,2.0
1,3.8499999046325684,learn,56150.00009536743,Mon May 04 2026 14:02:05 GMT-0400 (Eastern Daylight Time),138366.0,A,mead,I,d,221,3,1316.3999999994412,137049.60000000056,9028,WL,A,2.0
1,4.08299994468689,learn,55917.00005531311,Mon May 04 2026 14:02:05 GMT-0400 (Eastern Daylight Time),138599.40000000037,A,meado,I,o,221,3,1549.7999999998137,137049.60000000056,9028,WL,A,2.0
1,4.6499998569488525,learn,55350.00014305115,Mon May 04 2026 14:02:05 GMT-0400 (Eastern Daylight Time),139165.90000000037,A,meadow,I,w,531,3,2116.2999999998137,137049.60000000056,9028,WL,A,2.0
1,6.266000032424927,learn,53733.99996757507,Mon May 04 2026 14:02:05 GMT-0400 (Eastern Daylight Time),140782.2999999998,A,meadowenter,I,enter,1608,3,3732.699999999255,137049.60000000056,9028,WL,A,2.0
1,6.8999998569488525,learn,53100.00014305115,Mon May 04 2026 14:02:05 GMT-0400 (Eastern Daylight Time),141415.90000000037,A,r,I,r,615,3,632.9000000003725,140783.0,9028,WL,A,3.0
1,7.25,learn,52750.0,Mon May 04 2026 14:02:05 GMT-0400 (Eastern Daylight Time),141766.0,A,ru,I,u,324,3,983.0,140783.0,9028,WL,A,3.0
1,7.865999937057495,learn,52134.000062942505,Mon May 04 2026 14:02:05 GMT-0400 (Eastern Daylight Time),142382.5,A,rug,I,g,604,3,1599.5,140783.0,9028,WL,A,3.0
1,8.483000040054321,learn,51516.99995994568,Mon May 04 2026 14:02:05 GMT-0400 (Eastern Daylight Time),142999.0,A,rugenter,I,enter,604,3,2216.0,140783.0,9028,WL,A,3.0
1,9.5,learn,50500.0,Mon May 04 2026 14:02:05 GMT-0400 (Eastern Daylight Time),144015.90000000037,A,f,I,f,1006,3,1016.4000000003725,142999.5,9028,WL,A,4.0
1,9.75,learn,50250.0,Mon May 04 2026 14:02:05 GMT-0400 (Eastern Daylight Time),144265.90000000037,A,fl,I,l,236,3,1266.4000000003725,142999.5,9028,WL,A,4.0
1,10.016000032424927,learn,49983.99996757507,Mon May 04 2026 14:02:05 GMT-0400 (Eastern Daylight Time),144532.90000000037,A,flo,I,o,241,3,1533.4000000003725,142999.5,9028,WL,A,4.0
1,10.299999952316284,learn,49700.000047683716,Mon May 04 2026 14:02:05 GMT-0400 (Eastern Daylight Time),144816.0,A,flow,I,w,270,3,1816.5,142999.5,9028,WL,A,4.0
1,10.565999984741211,learn,49434.00001525879,Mon May 04 2026 14:02:05 GMT-0400 (Eastern Daylight Time),145082.90000000037,A,flowe,I,e,243,3,2083.4000000003725,142999.5,9028,WL,A,4.0
1,10.815999984741211,learn,49184.00001525879,Mon May 04 2026 14:02:05 GMT-0400 (Eastern Daylight Time),145332.7999999998,A,flower,I,r,224,3,2333.2999999998137,142999.5,9028,WL,A,4.0
1,11.266000032424927,learn,48733.99996757507,Mon May 04 2026 14:02:05 GMT-0400 (Eastern Daylight Time),145782.40000000037,A,flowerenter,I,enter,430,3,2782.9000000003725,142999.5,9028,WL,A,4.0
1,11.849999904632568,learn,48150.00009536743,Mon May 04 2026 14:02:05 GMT-0400 (Eastern Daylight Time),146365.90000000037,A,g,I,g,560,3,583.0,145782.90000000037,9028,WL,A,5.0
1,12.182999849319458,learn,47817.00015068054,Mon May 04 2026 14:02:05 GMT-0400 (Eastern Daylight Time),146699.40000000037,A,go,I,o,308,3,916.5,145782.90000000037,9028,WL,A,5.0
1,12.516000032424927,learn,47483.99996757507,Mon May 04 2026 14:02:05 GMT-0400 (Eastern Daylight Time),147032.7000000002,A,gol,I,l,312,3,1249.7999999998137,145782.90000000037,9028,WL,A,5.0
1,12.849999904632568,learn,47150.00009536743,Mon May 04 2026 14:02:05 GMT-0400 (Eastern Daylight Time),147365.90000000037,A,gold,I,d,322,3,1583.0,145782.90000000037,9028,WL,A,5.0
1,13.615999937057495,learn,46384.000062942505,Mon May 04 2026 14:02:05 GMT-0400 (Eastern Daylight Time),148132.2999999998,A,goldenter,I,enter,739,3,2349.399999999441,145782.90000000037,9028,WL,A,5.0
1,14.91599988937378,learn,45084.00011062622,Mon May 04 2026 14:02:05 GMT-0400 (Eastern Daylight Time),149432.7000000002,A,t,I,t,1290,3,1300.0,148132.7000000002,9028,WL,A,6.0
1,15.33299994468689,learn,44667.00005531311,Mon May 04 2026 14:02:05 GMT-0400 (Eastern Daylight Time),149849.2999999998,A,tr,I,r,403,3,1716.5999999996275,148132.7000000002,9028,WL,A,6.0
1,15.682999849319458,learn,44317.00015068054,Mon May 04 2026 14:02:05 GMT-0400 (Eastern Daylight Time),150199.2999999998,A,tra,I,a,337,3,2066.5999999996275,148132.7000000002,9028,WL,A,6.0
1,16.049999952316284,learn,43950.000047683716,Mon May 04 2026 14:02:05 GMT-0400 (Eastern Daylight Time),150566.10000000056,A,trai,I,i,338,3,2433.4000000003725,148132.7000000002,9028,WL,A,6.0
1,16.365999937057495,learn,43634.000062942505,Mon May 04 2026 14:02:05 GMT-0400 (Eastern Daylight Time),150882.7000000002,A,train,I,n,294,3,2750.0,148132.7000000002,9028,WL,A,6.0
1,17.16599988937378,learn,42834.00011062622,Mon May 04 2026 14:02:05 GMT-0400 (Eastern Daylight Time),151682.40000000037,A,trainenter,I,enter,775,3,3549.7000000001863,148132.7000000002,9028,WL,A,6.0
1,18.382999897003174,learn,41617.000102996826,Mon May 04 2026 14:02:05 GMT-0400 (Eastern Daylight Time),152899.40000000037,A,a,I,a,1196,3,1216.6000000005588,151682.7999999998,9028,WL,A,7.0
1,18.682999849319458,learn,41317.00015068054,Mon May 04 2026 14:02:05 GMT-0400 (Eastern Daylight Time),153199.2999999998,A,ap,I,p,287,3,1516.5,151682.7999999998,9028,WL,A,7.0
1,18.865999937057495,learn,41134.000062942505,Mon May 04 2026 14:02:05 GMT-0400 (Eastern Daylight Time),153382.5,A,app,I,p,164,3,1699.7000000001863,151682.7999999998,9028,WL,A,7.0
1,19.049000024795532,learn,40950.99997520447,Mon May 04 2026 14:02:05 GMT-0400 (Eastern Daylight Time),153565.5,A,appl,I,l,164,3,1882.7000000001863,151682.7999999998,9028,WL,A,7.0
1,19.266000032424927,learn,40733.99996757507,Mon May 04 2026 14:02:05 GMT-0400 (Eastern Daylight Time),153782.7000000002,A,apple,I,e,200,3,2099.9000000003725,151682.7999999998,9028,WL,A,7.0
1,19.848999977111816,learn,40151.00002288818,Mon May 04 2026 14:02:05 GMT-0400 (Eastern Daylight Time),154365.60000000056,A,appleenter,I,enter,572,3,2682.800000000745,151682.7999999998,9028,WL,A,7.0
1,29.532999992370605,learn,30467.000007629395,Mon May 04 2026 14:02:05 GMT-0400 (Eastern Daylight Time),164049.40000000037,A,b,I,b,9673,3,9683.400000000373,154366.0,9028,WL,A,8.0
1,29.84999990463257,learn,30150.00009536743,Mon May 04 2026 14:02:05 GMT-0400 (Eastern Daylight Time),164366.0,A,bo,I,o,305,3,10000.0,154366.0,9028,WL,A,8.0
1,30.016000032424927,learn,29983.999967575073,Mon May 04 2026 14:02:05 GMT-0400 (Eastern Daylight Time),164532.7000000002,A,boo,I,o,150,3,10166.700000000186,154366.0,9028,WL,A,8.0
1,30.16599988937378,learn,29834.00011062622,Mon May 04 2026 14:02:05 GMT-0400 (Eastern Daylight Time),164682.60000000056,A,book,I,k,127,3,10316.600000000559,154366.0,9028,WL,A,8.0
1,30.56599998474121,learn,29434.00001525879,Mon May 04 2026 14:02:05 GMT-0400 (Eastern Daylight Time),165082.2999999998,A,bookenter,I,enter,375,3,10716.299999999814,154366.0,9028,WL,A,8.0
1,35.865999937057495,learn,24134.000062942505,Mon May 04 2026 14:02:05 GMT-0400 (Eastern Daylight Time),170382.5,A,t,I,t,5291,3,5299.5999999996275,165082.90000000037,9028,WL,A,9.0
1,36.115999937057495,learn,23884.000062942505,Mon May 04 2026 14:02:05 GMT-0400 (Eastern Daylight Time),170632.7000000002,A,tr,I,r,229,3,5549.799999999814,165082.90000000037,9028,WL,A,9.0
1,36.31599998474121,learn,23684.00001525879,Mon May 04 2026 14:02:05 GMT-0400 (Eastern Daylight Time),170832.60000000056,A,tra,I,a,187,3,5749.700000000186,165082.90000000037,9028,WL,A,9.0
1,36.44999980926514,learn,23550.000190734863,Mon May 04 2026 14:02:05 GMT-0400 (Eastern Daylight Time),170965.90000000037,A,trai,I,i,115,3,5883.0,165082.90000000037,9028,WL,A,9.0
1,36.66599988937378,learn,23334.00011062622,Mon May 04 2026 14:02:05 GMT-0400 (Eastern Daylight Time),171182.7000000002,A,train,I,n,197,3,6099.799999999814,165082.90000000037,9028,WL,A,9.0
1,36.93299984931946,learn,23067.000150680542,Mon May 04 2026 14:02:05 GMT-0400 (Eastern Daylight Time),171448.90000000037,A,trainenter,I,enter,245,3,6366.0,165082.90000000037,9028,WL,A,9.0
1,42.16599988937378,learn,17834.00011062622,Mon May 04 2026 14:02:05 GMT-0400 (Eastern Daylight Time),176682.60000000056,A,r,I,r,5222,3,5233.300000000745,171449.2999999998,9028,WL,A,10.0
1,42.365999937057495,learn,17634.000062942505,Mon May 04 2026 14:02:05 GMT-0400 (Eastern Daylight Time),176882.40000000037,A,ra,I,a,183,3,5433.100000000559,171449.2999999998,9028,WL,A,10.0
1,42.71599984169006,learn,17284.000158309937,Mon May 04 2026 14:02:05 GMT-0400 (Eastern Daylight Time),177232.7000000002,A,rat,I,t,340,3,5783.4000000003725,171449.2999999998,9028,WL,A,10.0
1,42.848999977111816,learn,17151.000022888184,Mon May 04 2026 14:02:05 GMT-0400 (Eastern Daylight Time),177365.60000000056,A,ratt,I,t,123,3,5916.300000000745,171449.2999999998,9028,WL,A,10.0
1,42.98300004005432,learn,17016.99995994568,Mon May 04 2026 14:02:05 GMT-0400 (Eastern Daylight Time),177499.2999999998,A,rattl,I,l,111,3,6050.0,171449.2999999998,9028,WL,A,10.0
1,43.132999897003174,learn,16867.000102996826,Mon May 04 2026 14:02:05 GMT-0400 (Eastern Daylight Time),177649.40000000037,A,rattle,I,e,121,3,6200.100000000559,171449.2999999998,9028,WL,A,10.0
1,43.532999992370605,learn,16467.000007629395,Mon May 04 2026 14:02:05 GMT-0400 (Eastern Daylight Time),178049.0,A,rattleenter,I,enter,378,3,6599.700000000186,171449.2999999998,9028,WL,A,10.0
1,52.64999985694885,learn,7350.0001430511475,Mon May 04 2026 14:02:05 GMT-0400 (Eastern Daylight Time),187166.0,A,k,I,k,9093,3,9116.700000000186,178049.2999999998,9028,WL,A,11.0
1,52.83299994468689,learn,7167.00005531311,Mon May 04 2026 14:02:05 GMT-0400 (Eastern Daylight Time),187349.2000000002,A,ke,I,e,157,3,9299.900000000373,178049.2999999998,9028,WL,A,11.0
1,53.01600003242493,learn,6983.999967575073,Mon May 04 2026 14:02:05 GMT-0400 (Eastern Daylight Time),187532.7000000002,A,key,I,y,167,3,9483.400000000373,178049.2999999998,9028,WL,A,11.0
1,53.41599988937378,learn,6584.000110626221,Mon May 04 2026 14:02:05 GMT-0400 (Eastern Daylight Time),187932.10000000056,A,keyenter,I,enter,366,3,9882.800000000745,178049.2999999998,9028,WL,A,11.0
1,60.01600003242493,learn,-16.000032424926758,Mon May 04 2026 14:02:05 GMT-0400 (Eastern Daylight Time),194532.2999999998,A,None,I,None,6593,3,6599.699999999255,187932.60000000056,9028,WL,A,12.0
2,1.0499999523162842,learn,58950.000047683716,Mon May 04 2026 14:02:05 GMT-0400 (Eastern Daylight Time),271965.7000000002,A,g,I,g,1040,3,1049.2999999998137,270916.4000000004,9028,WL,A,1.0
2,1.25,learn,58750.0,Mon May 04 2026 14:02:05 GMT-0400 (Eastern Daylight Time),272165.7999999998,A,go,I,o,190,3,1249.3999999994412,270916.4000000004,9028,WL,A,1.0
2,1.500999927520752,learn,58499.00007247925,Mon May 04 2026 14:02:05 GMT-0400 (Eastern Daylight Time),272416.0,A,gol,I,l,231,3,1499.5999999996275,270916.4000000004,9028,WL,A,1.0
2,1.7339999675750732,learn,58266.00003242493,Mon May 04 2026 14:02:05 GMT-0400 (Eastern Daylight Time),272649.2000000002,A,gold,I,d,213,3,1732.7999999998137,270916.4000000004,9028,WL,A,1.0
2,2.0169999599456787,learn,57983.00004005432,Mon May 04 2026 14:02:05 GMT-0400 (Eastern Daylight Time),272932.4000000004,A,goldenter,I,enter,263,3,2016.0,270916.4000000004,9028,WL,A,1.0
2,2.4839999675750732,learn,57516.00003242493,Mon May 04 2026 14:02:05 GMT-0400 (Eastern Daylight Time),273399.2000000002,A,n,I,n,450,3,466.5,272932.7000000002,9028,WL,A,2.0
2,3.5339999198913574,learn,56466.00008010864,Mon May 04 2026 14:02:05 GMT-0400 (Eastern Daylight Time),274449.2999999998,A,,I,backspace,1037,3,1516.5999999996275,272932.7000000002,9028,WL,A,2.0
2,4.401000022888184,learn,55598.99997711182,Mon May 04 2026 14:02:05 GMT-0400 (Eastern Daylight Time),275316.0,A,m,I,m,850,3,2383.2999999998137,272932.7000000002,9028,WL,A,2.0
2,4.634000062942505,learn,55365.999937057495,Mon May 04 2026 14:02:05 GMT-0400 (Eastern Daylight Time),275549.7000000002,A,me,I,e,224,3,2617.0,272932.7000000002,9028,WL,A,2.0
2,4.816999912261963,learn,55183.00008773804,Mon May 04 2026 14:02:05 GMT-0400 (Eastern Daylight Time),275732.7000000002,A,mea,I,a,157,3,2800.0,272932.7000000002,9028,WL,A,2.0
2,5.000999927520752,learn,54999.00007247925,Mon May 04 2026 14:02:05 GMT-0400 (Eastern Daylight Time),275915.9000000004,A,mead,I,d,166,3,2983.2000000001863,272932.7000000002,9028,WL,A,2.0
2,5.200999975204468,learn,54799.00002479553,Mon May 04 2026 14:02:05 GMT-0400 (Eastern Daylight Time),276116.10000000056,A,meado,I,o,169,3,3183.4000000003725,272932.7000000002,9028,WL,A,2.0
2,5.434000015258789,learn,54565.99998474121,Mon May 04 2026 14:02:05 GMT-0400 (Eastern Daylight Time),276349.60000000056,A,meadow,I,w,223,3,3416.9000000003725,272932.7000000002,9028,WL,A,2.0
2,5.849999904632568,learn,54150.00009536743,Mon May 04 2026 14:02:05 GMT-0400 (Eastern Daylight Time),276765.60000000056,A,meadowenter,I,enter,397,3,3832.9000000003725,272932.7000000002,9028,WL,A,2.0
2,6.516999959945679,learn,53483.00004005432,Mon May 04 2026 14:02:05 GMT-0400 (Eastern Daylight Time),277432.5,A,l,I,l,649,3,666.5999999996275,276765.9000000004,9028,WL,A,3.0
2,6.733999967575073,learn,53266.00003242493,Mon May 04 2026 14:02:05 GMT-0400 (Eastern Daylight Time),277649.2999999998,A,lo,I,o,203,3,883.3999999994412,276765.9000000004,9028,WL,A,3.0
2,8.000999927520752,learn,51999.00007247925,Mon May 04 2026 14:02:05 GMT-0400 (Eastern Daylight Time),278916.0,A,log,I,g,1242,3,2150.0999999996275,276765.9000000004,9028,WL,A,3.0
2,8.41700005531311,learn,51582.99994468689,Mon May 04 2026 14:02:05 GMT-0400 (Eastern Daylight Time),279332.2000000002,A,logenter,I,enter,391,3,2566.2999999998137,276765.9000000004,9028,WL,A,3.0
2,8.733999967575073,learn,51266.00003242493,Mon May 04 2026 14:02:05 GMT-0400 (Eastern Daylight Time),279649.2999999998,A,r,I,r,307,3,316.79999999981374,279332.5,9028,WL,A,4.0
2,9.117000102996826,learn,50882.999897003174,Mon May 04 2026 14:02:05 GMT-0400 (Eastern Daylight Time),280032.5,A,ru,I,u,362,3,700.0,279332.5,9028,WL,A,4.0
2,9.467000007629395,learn,50532.999992370605,Mon May 04 2026 14:02:05 GMT-0400 (Eastern Daylight Time),280382.60000000056,A,rug,I,g,338,3,1050.1000000005588,279332.5,9028,WL,A,4.0
2,10.0,learn,50000.0,Mon May 04 2026 14:02:05 GMT-0400 (Eastern Daylight Time),280915.60000000056,A,rugenter,I,enter,509,3,1583.1000000005588,279332.5,9028,WL,A,4.0
2,10.3510000705719,learn,49648.9999294281,Mon May 04 2026 14:02:05 GMT-0400 (Eastern Daylight Time),281265.7999999998,A,a,I,a,339,3,349.8999999994412,280915.9000000004,9028,WL,A,5.0
2,10.650000095367432,learn,49349.99990463257,Mon May 04 2026 14:02:05 GMT-0400 (Eastern Daylight Time),281565.7000000002,A,ap,I,p,286,3,649.7999999998137,280915.9000000004,9028,WL,A,5.0
2,10.800999879837036,learn,49199.000120162964,Mon May 04 2026 14:02:05 GMT-0400 (Eastern Daylight Time),281716.0,A,app,I,p,135,3,800.0999999996275,280915.9000000004,9028,WL,A,5.0
2,11.000999927520752,learn,48999.00007247925,Mon May 04 2026 14:02:05 GMT-0400 (Eastern Daylight Time),281916.0,A,appl,I,l,176,3,1000.0999999996275,280915.9000000004,9028,WL,A,5.0
2,11.934000015258789,learn,48065.99998474121,Mon May 04 2026 14:02:05 GMT-0400 (Eastern Daylight Time),282849.2999999998,A,apple,I,e,919,3,1933.3999999994412,280915.9000000004,9028,WL,A,5.0
2,13.0,learn,47000.0,Mon May 04 2026 14:02:05 GMT-0400 (Eastern Daylight Time),283915.60000000056,A,appleenter,I,enter,1051,3,2999.7000000001863,280915.9000000004,9028,WL,A,5.0
2,13.384000062942505,learn,46615.999937057495,Mon May 04 2026 14:02:05 GMT-0400 (Eastern Daylight Time),284299.2000000002,A,c,I,c,371,3,383.20000000018626,283916.0,9028,WL,A,6.0
2,13.766999959945679,learn,46233.00004005432,Mon May 04 2026 14:02:05 GMT-0400 (Eastern Daylight Time),284682.4000000004,A,ch,I,h,360,3,766.4000000003725,283916.0,9028,WL,A,6.0
2,14.049999952316284,learn,45950.000047683716,Mon May 04 2026 14:02:05 GMT-0400 (Eastern Daylight Time),284965.7999999998,A,chi,I,i,264,3,1049.7999999998137,283916.0,9028,WL,A,6.0
2,14.401000022888184,learn,45598.99997711182,Mon May 04 2026 14:02:05 GMT-0400 (Eastern Daylight Time),285315.9000000004,A,chim,I,m,327,3,1399.9000000003725,283916.0,9028,WL,A,6.0
2,14.816999912261963,learn,45183.00008773804,Mon May 04 2026 14:02:05 GMT-0400 (Eastern Daylight Time),285732.7999999998,A,chimn,I,n,389,3,1816.7999999998137,283916.0,9028,WL,A,6.0
2,15.08400011062622,learn,44915.99988937378,Mon May 04 2026 14:02:05 GMT-0400 (Eastern Daylight Time),285999.2999999998,A,chimne,I,e,255,3,2083.2999999998137,283916.0,9028,WL,A,6.0
2,15.316999912261963,learn,44683.00008773804,Mon May 04 2026 14:02:05 GMT-0400 (Eastern Daylight Time),286232.4000000004,A,chimney,I,y,212,3,2316.4000000003725,283916.0,9028,WL,A,6.0
2,15.900000095367432,learn,44099.99990463257,Mon May 04 2026 14:02:05 GMT-0400 (Eastern Daylight Time),286815.60000000056,A,chimneyenter,I,enter,562,3,2899.600000000559,283916.0,9028,WL,A,6.0
2,16.316999912261963,learn,43683.00008773804,Mon May 04 2026 14:02:05 GMT-0400 (Eastern Daylight Time),287232.5,A,k,I,k,407,3,416.5,286816.0,9028,WL,A,7.0
2,16.566999912261963,learn,43433.00008773804,Mon May 04 2026 14:02:05 GMT-0400 (Eastern Daylight Time),287482.5,A,ke,I,e,235,3,666.5,286816.0,9028,WL,A,7.0
2,16.800999879837036,learn,43199.000120162964,Mon May 04 2026 14:02:05 GMT-0400 (Eastern Daylight Time),287716.10000000056,A,key,I,y,208,3,900.1000000005588,286816.0,9028,WL,A,7.0
2,17.3510000705719,learn,42648.9999294281,Mon May 04 2026 14:02:05 GMT-0400 (Eastern Daylight Time),288266.4000000004,A,keyenter,I,enter,521,3,1450.4000000003725,286816.0,9028,WL,A,7.0
2,17.634000062942505,learn,42365.999937057495,Mon May 04 2026 14:02:05 GMT-0400 (Eastern Daylight Time),288549.5,A,s,I,s,277,3,282.70000000018626,288266.7999999998,9028,WL,A,8.0
2,17.867000102996826,learn,42132.999897003174,Mon May 04 2026 14:02:05 GMT-0400 (Eastern Daylight Time),288782.5,A,sa,I,a,214,3,515.7000000001863,288266.7999999998,9028,WL,A,8.0
2,18.15000009536743,learn,41849.99990463257,Mon May 04 2026 14:02:05 GMT-0400 (Eastern Daylight Time),289065.9000000004,A,sal,I,l,253,3,799.1000000005588,288266.7999999998,9028,WL,A,8.0
2,18.816999912261963,learn,41183.00008773804,Mon May 04 2026 14:02:05 GMT-0400 (Eastern Daylight Time),289732.60000000056,A,salt,I,t,649,3,1465.800000000745,288266.7999999998,9028,WL,A,8.0
2,19.549999952316284,learn,40450.000047683716,Mon May 04 2026 14:02:05 GMT-0400 (Eastern Daylight Time),290465.60000000056,A,saltenter,I,enter,717,3,2198.800000000745,288266.7999999998,9028,WL,A,8.0
2,19.93400001525879,learn,40065.99998474121,Mon May 04 2026 14:02:05 GMT-0400 (Eastern Daylight Time),290849.2000000002,A,a,I,a,373,3,383.09999999962747,290466.10000000056,9028,WL,A,9.0
2,20.217000007629395,learn,39782.999992370605,Mon May 04 2026 14:02:05 GMT-0400 (Eastern Daylight Time),291132.60000000056,A,ap,I,p,258,3,666.5,290466.10000000056,9028,WL,A,9.0
2,20.34999990463257,learn,39650.00009536743,Mon May 04 2026 14:02:05 GMT-0400 (Eastern Daylight Time),291265.7999999998,A,app,I,p,120,3,799.6999999992549,290466.10000000056,9028,WL,A,9.0
2,20.550999879837036,learn,39449.000120162964,Mon May 04 2026 14:02:05 GMT-0400 (Eastern Daylight Time),291466.0,A,appl,I,l,178,3,999.8999999994412,290466.10000000056,9028,WL,A,9.0
2,20.733999967575073,learn,39266.00003242493,Mon May 04 2026 14:02:05 GMT-0400 (Eastern Daylight Time),291649.2999999998,A,apple,I,e,162,3,1183.199999999255,290466.10000000056,9028,WL,A,9.0
2,21.967000007629395,learn,38032.999992370605,Mon May 04 2026 14:02:05 GMT-0400 (Eastern Daylight Time),292882.2999999998,A,appleenter,I,enter,1210,3,2416.199999999255,290466.10000000056,9028,WL,A,9.0
2,26.033999919891357,learn,33966.00008010864,Mon May 04 2026 14:02:05 GMT-0400 (Eastern Daylight Time),296949.2000000002,A,w,I,w,4044,3,4066.5999999996275,292882.60000000056,9028,WL,A,10.0
2,26.283999919891357,learn,33716.00008010864,Mon May 04 2026 14:02:05 GMT-0400 (Eastern Daylight Time),297199.2999999998,A,wa,I,a,223,3,4316.699999999255,292882.60000000056,9028,WL,A,10.0
2,26.566999912261963,learn,33433.00008773804,Mon May 04 2026 14:02:05 GMT-0400 (Eastern Daylight Time),297482.5,A,wat,I,t,261,3,4599.899999999441,292882.60000000056,9028,WL,A,10.0
2,27.09999990463257,learn,32900.00009536743,Mon May 04 2026 14:02:05 GMT-0400 (Eastern Daylight Time),298015.7999999998,A,watc,I,c,513,3,5133.199999999255,292882.60000000056,9028,WL,A,10.0
2,27.566999912261963,learn,32433.000087738037,Mon May 04 2026 14:02:05 GMT-0400 (Eastern Daylight Time),298482.5,A,watch,I,h,451,3,5599.899999999441,292882.60000000056,9028,WL,A,10.0
2,28.1010000705719,learn,31898.9999294281,Mon May 04 2026 14:02:05 GMT-0400 (Eastern Daylight Time),299016.2000000002,A,watchenter,I,enter,511,3,6133.5999999996275,292882.60000000056,9028,WL,A,10.0
2,28.58400011062622,learn,31415.99988937378,Mon May 04 2026 14:02:05 GMT-0400 (Eastern Daylight Time),299499.2999999998,A,t,I,t,462,3,482.69999999925494,299016.60000000056,9028,WL,A,11.0
2,28.76699995994568,learn,31233.00004005432,Mon May 04 2026 14:02:05 GMT-0400 (Eastern Daylight Time),299682.4000000004,A,tr,I,r,168,3,665.7999999998137,299016.60000000056,9028,WL,A,11.0
2,28.967000007629395,learn,31032.999992370605,Mon May 04 2026 14:02:05 GMT-0400 (Eastern Daylight Time),299882.60000000056,A,tra,I,a,177,3,866.0,299016.60000000056,9028,WL,A,11.0
2,29.08400011062622,learn,30915.99988937378,Mon May 04 2026 14:02:05 GMT-0400 (Eastern Daylight Time),299999.2999999998,A,trai,I,i,105,3,982.6999999992549,299016.60000000056,9028,WL,A,11.0
2,29.33400011062622,learn,30665.99988937378,Mon May 04 2026 14:02:05 GMT-0400 (Eastern Daylight Time),300249.2999999998,A,train,I,n,228,3,1232.699999999255,299016.60000000056,9028,WL,A,11.0
2,29.799999952316284,learn,30200.000047683716,Mon May 04 2026 14:02:05 GMT-0400 (Eastern Daylight Time),300715.4000000004,A,trainenter,I,enter,442,3,1698.7999999998137,299016.60000000056,9028,WL,A,11.0
2,32.717000007629395,learn,27282.999992370605,Mon May 04 2026 14:02:05 GMT-0400 (Eastern Daylight Time),303632.5,A,f,I,f,2899,3,2916.7999999998137,300715.7000000002,9028,WL,A,12.0
2,32.90000009536743,learn,27099.99990463257,Mon May 04 2026 14:02:05 GMT-0400 (Eastern Daylight Time),303815.7999999998,A,fl,I,l,170,3,3100.0999999996275,300715.7000000002,9028,WL,A,12.0
2,33.134000062942505,learn,26865.999937057495,Mon May 04 2026 14:02:05 GMT-0400 (Eastern Daylight Time),304049.0,A,flo,I,o,212,3,3333.2999999998137,300715.7000000002,9028,WL,A,12.0
2,33.31699991226196,learn,26683.000087738037,Mon May 04 2026 14:02:05 GMT-0400 (Eastern Daylight Time),304232.4000000004,A,flow,I,w,164,3,3516.7000000001863,300715.7000000002,9028,WL,A,12.0
2,33.550999879837036,learn,26449.000120162964,Mon May 04 2026 14:02:05 GMT-0400 (Eastern Daylight Time),304465.9000000004,A,flowe,I,e,221,3,3750.2000000001863,300715.7000000002,9028,WL,A,12.0
2,33.78399991989136,learn,26216.000080108643,Mon May 04 2026 14:02:05 GMT-0400 (Eastern Daylight Time),304699.2999999998,A,flower,I,r,212,3,3983.5999999996275,300715.7000000002,9028,WL,A,12.0
2,34.16700005531311,learn,25832.99994468689,Mon May 04 2026 14:02:05 GMT-0400 (Eastern Daylight Time),305082.2000000002,A,flowerenter,I,enter,359,3,4366.5,300715.7000000002,9028,WL,A,12.0
2,41.25,learn,18750.0,Mon May 04 2026 14:02:05 GMT-0400 (Eastern Daylight Time),312165.7000000002,A,l,I,l,7077,3,7083.200000000186,305082.5,9028,WL,A,13.0
2,41.48399996757507,learn,18516.000032424927,Mon May 04 2026 14:02:05 GMT-0400 (Eastern Daylight Time),312399.2000000002,A,lo,I,o,219,3,7316.700000000186,305082.5,9028,WL,A,13.0
2,41.884000062942505,learn,18115.999937057495,Mon May 04 2026 14:02:05 GMT-0400 (Eastern Daylight Time),312799.2999999998,A,log,I,g,388,3,7716.799999999814,305082.5,9028,WL,A,13.0
2,42.25200009346008,learn,17747.999906539917,Mon May 04 2026 14:02:05 GMT-0400 (Eastern Daylight Time),313167.0,A,logenter,I,enter,355,3,8084.5,305082.5,9028,WL,A,13.0
2,45.117000102996826,learn,14882.999897003174,Mon May 04 2026 14:02:05 GMT-0400 (Eastern Daylight Time),316032.5,A,r,I,r,2848,3,2865.2999999998137,313167.2000000002,9028,WL,A,14.0
2,45.33400011062622,learn,14665.99988937378,Mon May 04 2026 14:02:05 GMT-0400 (Eastern Daylight Time),316249.2999999998,A,ru,I,u,201,3,3082.0999999996275,313167.2000000002,9028,WL,A,14.0
2,45.617000102996826,learn,14382.999897003174,Mon May 04 2026 14:02:05 GMT-0400 (Eastern Daylight Time),316532.4000000004,A,rug,I,g,258,3,3365.2000000001863,313167.2000000002,9028,WL,A,14.0
2,46.00099992752075,learn,13999.000072479248,Mon May 04 2026 14:02:05 GMT-0400 (Eastern Daylight Time),316916.10000000056,A,rugenter,I,enter,367,3,3748.9000000003725,313167.2000000002,9028,WL,A,14.0
2,47.50099992752075,learn,12499.000072479248,Mon May 04 2026 14:02:05 GMT-0400 (Eastern Daylight Time),318416.0,A,g,I,g,1482,3,1499.5,316916.5,9028,WL,A,15.0
2,47.65000009536743,learn,12349.999904632568,Mon May 04 2026 14:02:05 GMT-0400 (Eastern Daylight Time),318565.7999999998,A,go,I,o,140,3,1649.2999999998137,316916.5,9028,WL,A,15.0
2,47.84999990463257,learn,12150.000095367432,Mon May 04 2026 14:02:05 GMT-0400 (Eastern Daylight Time),318765.7000000002,A,gol,I,l,189,3,1849.2000000001863,316916.5,9028,WL,A,15.0
2,51.03399991989136,learn,8966.000080108643,Mon May 04 2026 14:02:05 GMT-0400 (Eastern Daylight Time),321949.5,A,gold,I,d,3175,3,5033.0,316916.5,9028,WL,A,15.0
2,51.467000007629395,learn,8532.999992370605,Mon May 04 2026 14:02:05 GMT-0400 (Eastern Daylight Time),322382.10000000056,A,goldenter,I,enter,414,3,5465.600000000559,316916.5,9028,WL,A,15.0
3,0.6670000553131104,learn,59332.99994468689,Mon May 04 2026 14:02:05 GMT-0400 (Eastern Daylight Time),392582.60000000056,A,g,I,g,657,3,666.4000000003725,391916.2000000002,9028,WL,A,1.0
3,0.8840000629425049,learn,59115.999937057495,Mon May 04 2026 14:02:05 GMT-0400 (Eastern Daylight Time),392799.10000000056,A,go,I,o,196,3,882.9000000003725,391916.2000000002,9028,WL,A,1.0
3,1.2170000076293945,learn,58782.999992370605,Mon May 04 2026 14:02:05 GMT-0400 (Eastern Daylight Time),393132.4000000004,A,gol,I,l,316,3,1216.2000000001863,391916.2000000002,9028,WL,A,1.0
3,1.7669999599456787,learn,58233.00004005432,Mon May 04 2026 14:02:05 GMT-0400 (Eastern Daylight Time),393682.4000000004,A,gold,I,d,536,3,1766.2000000001863,391916.2000000002,9028,WL,A,1.0
3,2.117000102996826,learn,57882.999897003174,Mon May 04 2026 14:02:05 GMT-0400 (Eastern Daylight Time),394032.2000000002,A,goldenter,I,enter,328,3,2116.0,391916.2000000002,9028,WL,A,1.0
3,2.434000015258789,learn,57565.99998474121,Mon May 04 2026 14:02:05 GMT-0400 (Eastern Daylight Time),394349.4000000004,A,r,I,r,310,3,316.90000000037253,394032.5,9028,WL,A,2.0
3,2.684000015258789,learn,57315.99998474121,Mon May 04 2026 14:02:05 GMT-0400 (Eastern Daylight Time),394599.2000000002,A,ra,I,a,236,3,566.7000000001863,394032.5,9028,WL,A,2.0
3,3.0169999599456787,learn,56983.00004005432,Mon May 04 2026 14:02:05 GMT-0400 (Eastern Daylight Time),394932.60000000056,A,rat,I,t,309,3,900.1000000005588,394032.5,9028,WL,A,2.0
3,3.1670000553131104,learn,56832.99994468689,Mon May 04 2026 14:02:05 GMT-0400 (Eastern Daylight Time),395082.4000000004,A,ratt,I,t,127,3,1049.9000000003725,394032.5,9028,WL,A,2.0
3,3.3340001106262207,learn,56665.99988937378,Mon May 04 2026 14:02:05 GMT-0400 (Eastern Daylight Time),395249.2999999998,A,rattl,I,l,152,3,1216.7999999998137,394032.5,9028,WL,A,2.0
3,3.5169999599456787,learn,56483.00004005432,Mon May 04 2026 14:02:05 GMT-0400 (Eastern Daylight Time),395432.4000000004,A,rattle,I,e,163,3,1399.9000000003725,394032.5,9028,WL,A,2.0
3,3.884000062942505,learn,56115.999937057495,Mon May 04 2026 14:02:05 GMT-0400 (Eastern Daylight Time),395798.9000000004,A,rattleenter,I,enter,346,3,1766.4000000003725,394032.5,9028,WL,A,2.0
3,4.334000110626221,learn,55665.99988937378,Mon May 04 2026 14:02:05 GMT-0400 (Eastern Daylight Time),396249.2000000002,A,b,I,b,431,3,450.0,395799.2000000002,9028,WL,A,3.0
3,4.634000062942505,learn,55365.999937057495,Mon May 04 2026 14:02:05 GMT-0400 (Eastern Daylight Time),396549.2999999998,A,bo,I,o,291,3,750.0999999996275,395799.2000000002,9028,WL,A,3.0
3,4.800999879837036,learn,55199.000120162964,Mon May 04 2026 14:02:05 GMT-0400 (Eastern Daylight Time),396715.9000000004,A,boo,I,o,150,3,916.7000000001863,395799.2000000002,9028,WL,A,3.0
3,5.033999919891357,learn,54966.00008010864,Mon May 04 2026 14:02:05 GMT-0400 (Eastern Daylight Time),396949.10000000056,A,book,I,k,216,3,1149.9000000003725,395799.2000000002,9028,WL,A,3.0
3,5.549999952316284,learn,54450.000047683716,Mon May 04 2026 14:02:05 GMT-0400 (Eastern Daylight Time),397465.5,A,bookenter,I,enter,493,3,1666.2999999998137,395799.2000000002,9028,WL,A,3.0
3,5.950999975204468,learn,54049.00002479553,Mon May 04 2026 14:02:05 GMT-0400 (Eastern Daylight Time),397866.0,A,t,I,t,389,3,400.09999999962747,397465.9000000004,9028,WL,A,4.0
3,6.16700005531311,learn,53832.99994468689,Mon May 04 2026 14:02:05 GMT-0400 (Eastern Daylight Time),398082.4000000004,A,tr,I,r,201,3,616.5,397465.9000000004,9028,WL,A,4.0
3,6.434000015258789,learn,53565.99998474121,Mon May 04 2026 14:02:05 GMT-0400 (Eastern Daylight Time),398349.2999999998,A,tra,I,a,258,3,883.3999999994412,397465.9000000004,9028,WL,A,4.0
3,6.634000062942505,learn,53365.999937057495,Mon May 04 2026 14:02:05 GMT-0400 (Eastern Daylight Time),398549.2000000002,A,trai,I,i,184,3,1083.2999999998137,397465.9000000004,9028,WL,A,4.0
3,6.91700005531311,learn,53082.99994468689,Mon May 04 2026 14:02:05 GMT-0400 (Eastern Daylight Time),398832.5,A,train,I,n,270,3,1366.5999999996275,397465.9000000004,9028,WL,A,4.0
3,7.434000015258789,learn,52565.99998474121,Mon May 04 2026 14:02:05 GMT-0400 (Eastern Daylight Time),399348.9000000004,A,trainenter,I,enter,498,3,1883.0,397465.9000000004,9028,WL,A,4.0
3,7.867000102996826,learn,52132.999897003174,Mon May 04 2026 14:02:05 GMT-0400 (Eastern Daylight Time),399782.5,A,m,I,m,418,3,433.29999999981374,399349.2000000002,9028,WL,A,5.0
3,8.08400011062622,learn,51915.99988937378,Mon May 04 2026 14:02:05 GMT-0400 (Eastern Daylight Time),399999.2999999998,A,me,I,e,206,3,650.0999999996275,399349.2000000002,9028,WL,A,5.0
3,8.266999959945679,learn,51733.00004005432,Mon May 04 2026 14:02:05 GMT-0400 (Eastern Daylight Time),400182.4000000004,A,mea,I,a,156,3,833.2000000001863,399349.2000000002,9028,WL,A,5.0
3,8.58400011062622,learn,51415.99988937378,Mon May 04 2026 14:02:05 GMT-0400 (Eastern Daylight Time),400499.10000000056,A,mead,I,d,293,3,1149.9000000003725,399349.2000000002,9028,WL,A,5.0
3,8.8510000705719,learn,51148.9999294281,Mon May 04 2026 14:02:05 GMT-0400 (Eastern Daylight Time),400765.9000000004,A,meado,I,o,249,3,1416.7000000001863,399349.2000000002,9028,WL,A,5.0
3,9.16700005531311,learn,50832.99994468689,Mon May 04 2026 14:02:05 GMT-0400 (Eastern Daylight Time),401082.4000000004,A,meadow,I,w,301,3,1733.2000000001863,399349.2000000002,9028,WL,A,5.0
3,9.650000095367432,learn,50349.99990463257,Mon May 04 2026 14:02:05 GMT-0400 (Eastern Daylight Time),401565.60000000056,A,meadowenter,I,enter,465,3,2216.4000000003725,399349.2000000002,9028,WL,A,5.0
3,10.066999912261963,learn,49933.00008773804,Mon May 04 2026 14:02:05 GMT-0400 (Eastern Daylight Time),401982.5,A,f,I,f,401,3,416.5,401566.0,9028,WL,A,6.0
3,10.384000062942505,learn,49615.999937057495,Mon May 04 2026 14:02:05 GMT-0400 (Eastern Daylight Time),402298.9000000004,A,fi,I,i,293,3,732.9000000003725,401566.0,9028,WL,A,6.0
3,10.634000062942505,learn,49365.999937057495,Mon May 04 2026 14:02:05 GMT-0400 (Eastern Daylight Time),402549.2999999998,A,fin,I,n,244,3,983.2999999998137,401566.0,9028,WL,A,6.0
3,10.967000007629395,learn,49032.999992370605,Mon May 04 2026 14:02:05 GMT-0400 (Eastern Daylight Time),402882.4000000004,A,fing,I,g,312,3,1316.4000000003725,401566.0,9028,WL,A,6.0
3,11.151000022888184,learn,48848.99997711182,Mon May 04 2026 14:02:05 GMT-0400 (Eastern Daylight Time),403065.9000000004,A,finge,I,e,168,3,1499.9000000003725,401566.0,9028,WL,A,6.0
3,11.41700005531311,learn,48582.99994468689,Mon May 04 2026 14:02:05 GMT-0400 (Eastern Daylight Time),403332.5,A,finger,I,r,250,3,1766.5,401566.0,9028,WL,A,6.0
3,11.766999959945679,learn,48233.00004005432,Mon May 04 2026 14:02:05 GMT-0400 (Eastern Daylight Time),403682.2999999998,A,fingerenter,I,enter,334,3,2116.2999999998137,401566.0,9028,WL,A,6.0
3,12.766999959945679,learn,47233.00004005432,Mon May 04 2026 14:02:05 GMT-0400 (Eastern Daylight Time),404682.5,A,g,I,g,980,3,999.8999999994412,403682.60000000056,9028,WL,A,7.0
3,13.050999879837036,learn,46949.000120162964,Mon May 04 2026 14:02:05 GMT-0400 (Eastern Daylight Time),404965.9000000004,A,go,I,o,265,3,1283.2999999998137,403682.60000000056,9028,WL,A,7.0
3,13.283999919891357,learn,46716.00008010864,Mon May 04 2026 14:02:05 GMT-0400 (Eastern Daylight Time),405199.10000000056,A,gol,I,l,213,3,1516.5,403682.60000000056,9028,WL,A,7.0
3,13.483999967575073,learn,46516.00003242493,Mon May 04 2026 14:02:05 GMT-0400 (Eastern Daylight Time),405399.2999999998,A,gold,I,d,181,3,1716.699999999255,403682.60000000056,9028,WL,A,7.0
3,13.83299994468689,learn,46167.00005531311,Mon May 04 2026 14:02:05 GMT-0400 (Eastern Daylight Time),405748.7999999998,A,goldenter,I,enter,332,3,2066.199999999255,403682.60000000056,9028,WL,A,7.0
3,14.049999952316284,learn,45950.000047683716,Mon May 04 2026 14:02:05 GMT-0400 (Eastern Daylight Time),405965.60000000056,A,a,I,a,210,3,216.5,405749.10000000056,9028,WL,A,8.0
3,14.33400011062622,learn,45665.99988937378,Mon May 04 2026 14:02:05 GMT-0400 (Eastern Daylight Time),406249.2000000002,A,ap,I,p,260,3,500.09999999962747,405749.10000000056,9028,WL,A,8.0
3,14.483999967575073,learn,45516.00003242493,Mon May 04 2026 14:02:05 GMT-0400 (Eastern Daylight Time),406399.2000000002,A,app,I,p,131,3,650.0999999996275,405749.10000000056,9028,WL,A,8.0
3,14.700999975204468,learn,45299.00002479553,Mon May 04 2026 14:02:05 GMT-0400 (Eastern Daylight Time),406615.9000000004,A,appl,I,l,188,3,866.7999999998137,405749.10000000056,9028,WL,A,8.0
3,15.950999975204468,learn,44049.00002479553,Mon May 04 2026 14:02:05 GMT-0400 (Eastern Daylight Time),407866.0,A,apple,I,e,1229,3,2116.899999999441,405749.10000000056,9028,WL,A,8.0
3,16.816999912261963,learn,43183.00008773804,Mon May 04 2026 14:02:05 GMT-0400 (Eastern Daylight Time),408732.2999999998,A,appleenter,I,enter,840,3,2983.199999999255,405749.10000000056,9028,WL,A,8.0
3,17.367000102996826,learn,42632.999897003174,Mon May 04 2026 14:02:05 GMT-0400 (Eastern Daylight Time),409282.4000000004,A,r,I,r,531,3,549.7999999998137,408732.60000000056,9028,WL,A,9.0
3,17.76699995994568,learn,42233.00004005432,Mon May 04 2026 14:02:05 GMT-0400 (Eastern Daylight Time),409682.5,A,ru,I,u,385,3,949.8999999994412,408732.60000000056,9028,WL,A,9.0
3,18.500999927520752,learn,41499.00007247925,Mon May 04 2026 14:02:05 GMT-0400 (Eastern Daylight Time),410415.9000000004,A,rug,I,g,714,3,1683.2999999998137,408732.60000000056,9028,WL,A,9.0
3,18.816999912261963,learn,41183.00008773804,Mon May 04 2026 14:02:05 GMT-0400 (Eastern Daylight Time),410732.5,A,rugenter,I,enter,307,3,1999.8999999994412,408732.60000000056,9028,WL,A,9.0
3,19.283999919891357,learn,40716.00008010864,Mon May 04 2026 14:02:05 GMT-0400 (Eastern Daylight Time),411199.2000000002,A,l,I,l,451,3,466.5,410732.7000000002,9028,WL,A,10.0
3,19.550999879837036,learn,40449.000120162964,Mon May 04 2026 14:02:05 GMT-0400 (Eastern Daylight Time),411466.0,A,lo,I,o,245,3,733.2999999998137,410732.7000000002,9028,WL,A,10.0
3,19.93400001525879,learn,40065.99998474121,Mon May 04 2026 14:02:05 GMT-0400 (Eastern Daylight Time),411849.2000000002,A,log,I,g,370,3,1116.5,410732.7000000002,9028,WL,A,10.0
3,20.5,learn,39500.0,Mon May 04 2026 14:02:05 GMT-0400 (Eastern Daylight Time),412415.4000000004,A,logenter,I,enter,552,3,1682.7000000001863,410732.7000000002,9028,WL,A,10.0
3,22.91700005531311,learn,37082.99994468689,Mon May 04 2026 14:02:05 GMT-0400 (Eastern Daylight Time),414832.5,A,k,I,k,2407,3,2416.7000000001863,412415.7999999998,9028,WL,A,11.0
3,23.151000022888184,learn,36848.99997711182,Mon May 04 2026 14:02:05 GMT-0400 (Eastern Daylight Time),415065.9000000004,A,ke,I,e,219,3,2650.100000000559,412415.7999999998,9028,WL,A,11.0
3,23.401000022888184,learn,36598.99997711182,Mon May 04 2026 14:02:05 GMT-0400 (Eastern Daylight Time),415316.10000000056,A,key,I,y,234,3,2900.300000000745,412415.7999999998,9028,WL,A,11.0
3,24.033999919891357,learn,35966.00008010864,Mon May 04 2026 14:02:05 GMT-0400 (Eastern Daylight Time),415948.9000000004,A,keyenter,I,enter,606,3,3533.100000000559,412415.7999999998,9028,WL,A,11.0
3,27.950000047683716,learn,32049.999952316284,Mon May 04 2026 14:02:05 GMT-0400 (Eastern Daylight Time),419865.7000000002,A,h,I,h,3906,3,3916.5,415949.2000000002,9028,WL,A,12.0
3,28.18400001525879,learn,31815.99998474121,Mon May 04 2026 14:02:05 GMT-0400 (Eastern Daylight Time),420099.2000000002,A,ha,I,a,207,3,4150.0,415949.2000000002,9028,WL,A,12.0
3,29.500999927520752,learn,30499.000072479248,Mon May 04 2026 14:02:05 GMT-0400 (Eastern Daylight Time),421415.9000000004,A,har,I,r,1297,3,5466.700000000186,415949.2000000002,9028,WL,A,12.0
3,29.867000102996826,learn,30132.999897003174,Mon May 04 2026 14:02:05 GMT-0400 (Eastern Daylight Time),421782.5,A,harp,I,p,356,3,5833.299999999814,415949.2000000002,9028,WL,A,12.0
3,30.483999967575073,learn,29516.000032424927,Mon May 04 2026 14:02:05 GMT-0400 (Eastern Daylight Time),422398.9000000004,A,harpenter,I,enter,604,3,6449.700000000186,415949.2000000002,9028,WL,A,12.0
3,33.53399991989136,learn,26466.000080108643,Mon May 04 2026 14:02:05 GMT-0400 (Eastern Daylight Time),425449.2999999998,A,m,I,m,3032,3,3050.0999999996275,422399.2000000002,9028,WL,A,13.0
3,33.76699995994568,learn,26233.00004005432,Mon May 04 2026 14:02:05 GMT-0400 (Eastern Daylight Time),425682.4000000004,A,me,I,e,217,3,3283.2000000001863,422399.2000000002,9028,WL,A,13.0
3,33.91700005531311,learn,26082.99994468689,Mon May 04 2026 14:02:05 GMT-0400 (Eastern Daylight Time),425832.4000000004,A,mea,I,a,129,3,3433.2000000001863,422399.2000000002,9028,WL,A,13.0
3,34.58400011062622,learn,25415.99988937378,Mon May 04 2026 14:02:05 GMT-0400 (Eastern Daylight Time),426498.9000000004,A,mead,I,d,642,3,4099.700000000186,422399.2000000002,9028,WL,A,13.0
3,34.81699991226196,learn,25183.000087738037,Mon May 04 2026 14:02:05 GMT-0400 (Eastern Daylight Time),426732.60000000056,A,meado,I,o,212,3,4333.4000000003725,422399.2000000002,9028,WL,A,13.0
3,35.06699991226196,learn,24933.000087738037,Mon May 04 2026 14:02:05 GMT-0400 (Eastern Daylight Time),426982.60000000056,A,meadow,I,w,238,3,4583.4000000003725,422399.2000000002,9028,WL,A,13.0
3,35.367000102996826,learn,24632.999897003174,Mon May 04 2026 14:02:05 GMT-0400 (Eastern Daylight Time),427282.2000000002,A,meadowenter,I,enter,268,3,4883.0,422399.2000000002,9028,WL,A,13.0
3,35.76699995994568,learn,24233.00004005432,Mon May 04 2026 14:02:05 GMT-0400 (Eastern Daylight Time),427682.4000000004,A,f,I,f,389,3,399.90000000037253,427282.5,9028,WL,A,14.0
3,35.98399996757507,learn,24016.000032424927,Mon May 04 2026 14:02:05 GMT-0400 (Eastern Daylight Time),427899.2000000002,A,fl,I,l,194,3,616.7000000001863,427282.5,9028,WL,A,14.0
3,36.23399996757507,learn,23766.000032424927,Mon May 04 2026 14:02:05 GMT-0400 (Eastern Daylight Time),428149.2000000002,A,flo,I,o,232,3,866.7000000001863,427282.5,9028,WL,A,14.0
3,36.48399996757507,learn,23516.000032424927,Mon May 04 2026 14:02:05 GMT-0400 (Eastern Daylight Time),428399.2000000002,A,flow,I,w,229,3,1116.7000000001863,427282.5,9028,WL,A,14.0
3,36.8510000705719,learn,23148.9999294281,Mon May 04 2026 14:02:05 GMT-0400 (Eastern Daylight Time),428765.9000000004,A,flowe,I,e,348,3,1483.4000000003725,427282.5,9028,WL,A,14.0
3,37.117000102996826,learn,22882.999897003174,Mon May 04 2026 14:02:05 GMT-0400 (Eastern Daylight Time),429032.4000000004,A,flower,I,r,246,3,1749.9000000003725,427282.5,9028,WL,A,14.0
3,37.58400011062622,learn,22415.99988937378,Mon May 04 2026 14:02:05 GMT-0400 (Eastern Daylight Time),429498.9000000004,A,flowerenter,I,enter,442,3,2216.4000000003725,427282.5,9028,WL,A,14.0
3,42.28399991989136,learn,17716.000080108643,Mon May 04 2026 14:02:05 GMT-0400 (Eastern Daylight Time),434199.10000000056,A,s,I,s,4691,3,4699.9000000003725,429499.2000000002,9028,WL,A,15.0
3,42.51699995994568,learn,17483.00004005432,Mon May 04 2026 14:02:05 GMT-0400 (Eastern Daylight Time),434432.5,A,sa,I,a,220,3,4933.299999999814,429499.2000000002,9028,WL,A,15.0
3,42.75099992752075,learn,17249.000072479248,Mon May 04 2026 14:02:05 GMT-0400 (Eastern Daylight Time),434665.7999999998,A,sal,I,l,220,3,5166.5999999996275,429499.2000000002,9028,WL,A,15.0
3,43.18400001525879,learn,16815.99998474121,Mon May 04 2026 14:02:05 GMT-0400 (Eastern Daylight Time),435099.2000000002,A,salt,I,t,402,3,5600.0,429499.2000000002,9028,WL,A,15.0
3,44.31699991226196,learn,15683.000087738037,Mon May 04 2026 14:02:05 GMT-0400 (Eastern Daylight Time),436232.10000000056,A,saltenter,I,enter,1110,3,6732.9000000003725,429499.2000000002,9028,WL,A,15.0
4,0.8499999046325684,learn,59150.00009536743,Mon May 04 2026 14:02:05 GMT-0400 (Eastern Daylight Time),507265.7999999998,A,b,I,b,829,3,849.5999999996275,506416.2000000002,9028,WL,A,1.0
4,1.1500000953674316,learn,58849.99990463257,Mon May 04 2026 14:02:05 GMT-0400 (Eastern Daylight Time),507565.7999999998,A,bo,I,o,281,3,1149.5999999996275,506416.2000000002,9028,WL,A,1.0
4,1.4670000076293945,learn,58532.999992370605,Mon May 04 2026 14:02:05 GMT-0400 (Eastern Daylight Time),507882.4000000004,A,bok,I,k,302,3,1466.2000000001863,506416.2000000002,9028,WL,A,1.0
4,3.5999999046325684,learn,56400.00009536743,Mon May 04 2026 14:02:05 GMT-0400 (Eastern Daylight Time),510015.9000000004,A,bo,I,backspace,2121,3,3599.7000000001863,506416.2000000002,9028,WL,A,1.0
4,4.283999919891357,learn,55716.00008010864,Mon May 04 2026 14:02:05 GMT-0400 (Eastern Daylight Time),510699.0,A,boo,I,o,669,3,4282.799999999814,506416.2000000002,9028,WL,A,1.0
4,4.533999919891357,learn,55466.00008010864,Mon May 04 2026 14:02:05 GMT-0400 (Eastern Daylight Time),510949.10000000056,A,book,I,k,233,3,4532.9000000003725,506416.2000000002,9028,WL,A,1.0
4,5.384000062942505,learn,54615.999937057495,Mon May 04 2026 14:02:05 GMT-0400 (Eastern Daylight Time),511798.9000000004,A,bookenter,I,enter,829,3,5382.700000000186,506416.2000000002,9028,WL,A,1.0
4,6.934000015258789,learn,53065.99998474121,Mon May 04 2026 14:02:05 GMT-0400 (Eastern Daylight Time),513349.10000000056,A,f,I,f,1536,3,1549.800000000745,511799.2999999998,9028,WL,A,2.0
4,7.117000102996826,learn,52882.999897003174,Mon May 04 2026 14:02:05 GMT-0400 (Eastern Daylight Time),513532.4000000004,A,fl,I,l,167,3,1733.1000000005588,511799.2999999998,9028,WL,A,2.0
4,7.334000110626221,learn,52665.99988937378,Mon May 04 2026 14:02:05 GMT-0400 (Eastern Daylight Time),513749.0,A,flo,I,o,183,3,1949.7000000001863,511799.2999999998,9028,WL,A,2.0
4,7.483999967575073,learn,52516.00003242493,Mon May 04 2026 14:02:05 GMT-0400 (Eastern Daylight Time),513899.10000000056,A,flow,I,w,126,3,2099.800000000745,511799.2999999998,9028,WL,A,2.0
4,7.7170000076293945,learn,52282.999992370605,Mon May 04 2026 14:02:05 GMT-0400 (Eastern Daylight Time),514132.2999999998,A,flowe,I,e,216,3,2333.0,511799.2999999998,9028,WL,A,2.0
4,7.934000015258789,learn,52065.99998474121,Mon May 04 2026 14:02:05 GMT-0400 (Eastern Daylight Time),514349.2000000002,A,flower,I,r,207,3,2549.9000000003725,511799.2999999998,9028,WL,A,2.0
4,8.33299994468689,learn,51667.00005531311,Mon May 04 2026 14:02:05 GMT-0400 (Eastern Daylight Time),514748.7000000002,A,flowerenter,I,enter,374,3,2949.4000000003725,511799.2999999998,9028,WL,A,2.0
4,8.867000102996826,learn,51132.999897003174,Mon May 04 2026 14:02:05 GMT-0400 (Eastern Daylight Time),515282.5,A,t,I,t,513,3,533.5,514749.0,9028,WL,A,3.0
4,9.117000102996826,learn,50882.999897003174,Mon May 04 2026 14:02:05 GMT-0400 (Eastern Daylight Time),515532.10000000056,A,tr,I,r,231,3,783.1000000005588,514749.0,9028,WL,A,3.0
4,9.283999919891357,learn,50716.00008010864,Mon May 04 2026 14:02:05 GMT-0400 (Eastern Daylight Time),515699.0,A,tra,I,a,145,3,950.0,514749.0,9028,WL,A,3.0
4,9.467000007629395,learn,50532.999992370605,Mon May 04 2026 14:02:05 GMT-0400 (Eastern Daylight Time),515882.4000000004,A,trai,I,i,169,3,1133.4000000003725,514749.0,9028,WL,A,3.0
4,9.733999967575073,learn,50266.00003242493,Mon May 04 2026 14:02:05 GMT-0400 (Eastern Daylight Time),516149.0,A,train,I,n,242,3,1400.0,514749.0,9028,WL,A,3.0
4,10.200000047683716,learn,49799.999952316284,Mon May 04 2026 14:02:05 GMT-0400 (Eastern Daylight Time),516615.4000000004,A,trainenter,I,enter,446,3,1866.4000000003725,514749.0,9028,WL,A,3.0
4,10.700000047683716,learn,49299.999952316284,Mon May 04 2026 14:02:05 GMT-0400 (Eastern Daylight Time),517115.7000000002,A,m,I,m,486,3,500.0,516615.7000000002,9028,WL,A,4.0
4,10.950000047683716,learn,49049.999952316284,Mon May 04 2026 14:02:05 GMT-0400 (Eastern Daylight Time),517365.7000000002,A,me,I,e,232,3,750.0,516615.7000000002,9028,WL,A,4.0
4,11.150000095367432,learn,48849.99990463257,Mon May 04 2026 14:02:05 GMT-0400 (Eastern Daylight Time),517565.7000000002,A,mea,I,a,180,3,950.0,516615.7000000002,9028,WL,A,4.0
4,11.349999904632568,learn,48650.00009536743,Mon May 04 2026 14:02:05 GMT-0400 (Eastern Daylight Time),517765.9000000004,A,mead,I,d,182,3,1150.2000000001863,516615.7000000002,9028,WL,A,4.0
4,11.533999919891357,learn,48466.00008010864,Mon May 04 2026 14:02:05 GMT-0400 (Eastern Daylight Time),517949.2999999998,A,meado,I,o,175,3,1333.5999999996275,516615.7000000002,9028,WL,A,4.0
4,11.783999919891357,learn,48216.00008010864,Mon May 04 2026 14:02:05 GMT-0400 (Eastern Daylight Time),518199.10000000056,A,meadow,I,w,237,3,1583.4000000003725,516615.7000000002,9028,WL,A,4.0
4,12.282999992370605,learn,47717.000007629395,Mon May 04 2026 14:02:05 GMT-0400 (Eastern Daylight Time),518698.9000000004,A,meadowenter,I,enter,476,3,2083.2000000001863,516615.7000000002,9028,WL,A,4.0
4,13.33400011062622,learn,46665.99988937378,Mon May 04 2026 14:02:05 GMT-0400 (Eastern Daylight Time),519749.2999999998,A,s,I,s,1028,3,1050.199999999255,518699.10000000056,9028,WL,A,5.0
4,13.533999919891357,learn,46466.00008010864,Mon May 04 2026 14:02:05 GMT-0400 (Eastern Daylight Time),519949.10000000056,A,sa,I,a,182,3,1250.0,518699.10000000056,9028,WL,A,5.0
4,13.783999919891357,learn,46216.00008010864,Mon May 04 2026 14:02:05 GMT-0400 (Eastern Daylight Time),520199.10000000056,A,sal,I,l,231,3,1500.0,518699.10000000056,9028,WL,A,5.0
4,14.233999967575073,learn,45766.00003242493,Mon May 04 2026 14:02:05 GMT-0400 (Eastern Daylight Time),520649.2000000002,A,salt,I,t,428,3,1950.0999999996275,518699.10000000056,9028,WL,A,5.0
4,14.733000040054321,learn,45266.99995994568,Mon May 04 2026 14:02:05 GMT-0400 (Eastern Daylight Time),521148.60000000056,A,saltenter,I,enter,490,3,2449.5,518699.10000000056,9028,WL,A,5.0
4,15.16700005531311,learn,44832.99994468689,Mon May 04 2026 14:02:05 GMT-0400 (Eastern Daylight Time),521582.60000000056,A,f,I,f,418,3,433.6000000005588,521149.0,9028,WL,A,6.0
4,15.467000007629395,learn,44532.999992370605,Mon May 04 2026 14:02:05 GMT-0400 (Eastern Daylight Time),521882.5,A,fi,I,i,283,3,733.5,521149.0,9028,WL,A,6.0
4,15.750999927520752,learn,44249.00007247925,Mon May 04 2026 14:02:05 GMT-0400 (Eastern Daylight Time),522166.0,A,fin,I,n,265,3,1017.0,521149.0,9028,WL,A,6.0
4,16.08400011062622,learn,43915.99988937378,Mon May 04 2026 14:02:05 GMT-0400 (Eastern Daylight Time),522499.0,A,fing,I,g,308,3,1350.0,521149.0,9028,WL,A,6.0
4,16.26699995994568,learn,43733.00004005432,Mon May 04 2026 14:02:05 GMT-0400 (Eastern Daylight Time),522682.4000000004,A,finge,I,e,169,3,1533.4000000003725,521149.0,9028,WL,A,6.0
4,16.533999919891357,learn,43466.00008010864,Mon May 04 2026 14:02:05 GMT-0400 (Eastern Daylight Time),522949.10000000056,A,finger,I,r,250,3,1800.1000000005588,521149.0,9028,WL,A,6.0
4,17.049999952316284,learn,42950.000047683716,Mon May 04 2026 14:02:05 GMT-0400 (Eastern Daylight Time),523465.4000000004,A,fingerenter,I,enter,502,3,2316.4000000003725,521149.0,9028,WL,A,6.0
4,17.483999967575073,learn,42516.00003242493,Mon May 04 2026 14:02:05 GMT-0400 (Eastern Daylight Time),523899.2000000002,A,r,I,r,421,3,433.5,523465.7000000002,9028,WL,A,7.0
4,17.717000007629395,learn,42282.999992370605,Mon May 04 2026 14:02:05 GMT-0400 (Eastern Daylight Time),524132.4000000004,A,ra,I,a,208,3,666.7000000001863,523465.7000000002,9028,WL,A,7.0
4,18.066999912261963,learn,41933.00008773804,Mon May 04 2026 14:02:05 GMT-0400 (Eastern Daylight Time),524482.5,A,rat,I,t,319,3,1016.7999999998137,523465.7000000002,9028,WL,A,7.0
4,18.200000047683716,learn,41799.999952316284,Mon May 04 2026 14:02:05 GMT-0400 (Eastern Daylight Time),524615.7000000002,A,ratt,I,t,114,3,1150.0,523465.7000000002,9028,WL,A,7.0
4,18.34999990463257,learn,41650.00009536743,Mon May 04 2026 14:02:05 GMT-0400 (Eastern Daylight Time),524765.9000000004,A,rattl,I,l,133,3,1300.2000000001863,523465.7000000002,9028,WL,A,7.0
4,18.51699995994568,learn,41483.00004005432,Mon May 04 2026 14:02:05 GMT-0400 (Eastern Daylight Time),524932.6000000006,A,rattle,I,e,141,3,1466.9000000003725,523465.7000000002,9028,WL,A,7.0
4,18.933000087738037,learn,41066.99991226196,Mon May 04 2026 14:02:05 GMT-0400 (Eastern Daylight Time),525348.7999999998,A,rattleenter,I,enter,398,3,1883.0999999996275,523465.7000000002,9028,WL,A,7.0
4,19.483999967575073,learn,40516.00003242493,Mon May 04 2026 14:02:05 GMT-0400 (Eastern Daylight Time),525899.1000000006,A,c,I,c,530,3,550.0,525349.1000000006,9028,WL,A,8.0
4,19.76699995994568,learn,40233.00004005432,Mon May 04 2026 14:02:05 GMT-0400 (Eastern Daylight Time),526182.6000000006,A,ch,I,h,265,3,833.5,525349.1000000006,9028,WL,A,8.0
4,20.033999919891357,learn,39966.00008010864,Mon May 04 2026 14:02:05 GMT-0400 (Eastern Daylight Time),526449.1000000006,A,chi,I,i,254,3,1100.0,525349.1000000006,9028,WL,A,8.0
4,20.40000009536743,learn,39599.99990463257,Mon May 04 2026 14:02:05 GMT-0400 (Eastern Daylight Time),526815.7999999998,A,chim,I,m,355,3,1466.699999999255,525349.1000000006,9028,WL,A,8.0
4,20.68400001525879,learn,39315.99998474121,Mon May 04 2026 14:02:05 GMT-0400 (Eastern Daylight Time),527099.1000000006,A,chimn,I,n,267,3,1750.0,525349.1000000006,9028,WL,A,8.0
4,20.950000047683716,learn,39049.999952316284,Mon May 04 2026 14:02:05 GMT-0400 (Eastern Daylight Time),527365.6000000006,A,chimne,I,e,257,3,2016.5,525349.1000000006,9028,WL,A,8.0
4,21.25,learn,38750.0,Mon May 04 2026 14:02:05 GMT-0400 (Eastern Daylight Time),527665.7999999998,A,chimney,I,y,277,3,2316.699999999255,525349.1000000006,9028,WL,A,8.0
4,21.76699995994568,learn,38233.00004005432,Mon May 04 2026 14:02:05 GMT-0400 (Eastern Daylight Time),528182.0,A,chimneyenter,I,enter,504,3,2832.899999999441,525349.1000000006,9028,WL,A,8.0
4,22.18400001525879,learn,37815.99998474121,Mon May 04 2026 14:02:05 GMT-0400 (Eastern Daylight Time),528599.0,A,g,I,g,401,3,416.70000000018626,528182.2999999998,9028,WL,A,9.0
4,22.450000047683716,learn,37549.999952316284,Mon May 04 2026 14:02:05 GMT-0400 (Eastern Daylight Time),528865.7999999998,A,go,I,o,252,3,683.5,528182.2999999998,9028,WL,A,9.0
4,22.68400001525879,learn,37315.99998474121,Mon May 04 2026 14:02:05 GMT-0400 (Eastern Daylight Time),529099.0,A,gol,I,l,209,3,916.7000000001863,528182.2999999998,9028,WL,A,9.0
4,23.316999912261963,learn,36683.00008773804,Mon May 04 2026 14:02:05 GMT-0400 (Eastern Daylight Time),529732.6000000006,A,gold,I,d,618,3,1550.300000000745,528182.2999999998,9028,WL,A,9.0
4,24.09999990463257,learn,35900.00009536743,Mon May 04 2026 14:02:05 GMT-0400 (Eastern Daylight Time),530515.5,A,goldenter,I,enter,766,3,2333.2000000001863,528182.2999999998,9028,WL,A,9.0
4,24.967000007629395,learn,35032.999992370605,Mon May 04 2026 14:02:05 GMT-0400 (Eastern Daylight Time),531382.6000000006,A,h,I,h,851,3,866.8000000007451,530515.7999999998,9028,WL,A,10.0
4,25.1010000705719,learn,34898.9999294281,Mon May 04 2026 14:02:05 GMT-0400 (Eastern Daylight Time),531515.9000000004,A,ha,I,a,107,3,1000.1000000005588,530515.7999999998,9028,WL,A,10.0
4,25.783999919891357,learn,34216.00008010864,Mon May 04 2026 14:02:05 GMT-0400 (Eastern Daylight Time),532199.1000000006,A,har,I,r,663,3,1683.300000000745,530515.7999999998,9028,WL,A,10.0
4,26.066999912261963,learn,33933.00008773804,Mon May 04 2026 14:02:05 GMT-0400 (Eastern Daylight Time),532482.5,A,harp,I,p,259,3,1966.7000000001863,530515.7999999998,9028,WL,A,10.0
4,26.799999952316284,learn,33200.000047683716,Mon May 04 2026 14:02:05 GMT-0400 (Eastern Daylight Time),533215.6000000006,A,harpenter,I,enter,720,3,2699.800000000745,530515.7999999998,9028,WL,A,10.0
4,28.40000009536743,learn,31599.99990463257,Mon May 04 2026 14:02:05 GMT-0400 (Eastern Daylight Time),534815.7999999998,A,f,I,f,1591,3,1599.8999999994412,533215.9000000004,9028,WL,A,11.0
4,28.700000047683716,learn,31299.999952316284,Mon May 04 2026 14:02:05 GMT-0400 (Eastern Daylight Time),535115.7999999998,A,fi,I,i,274,3,1899.8999999994412,533215.9000000004,9028,WL,A,11.0
4,28.967000007629395,learn,31032.999992370605,Mon May 04 2026 14:02:05 GMT-0400 (Eastern Daylight Time),535382.5,A,fin,I,n,255,3,2166.5999999996275,533215.9000000004,9028,WL,A,11.0
4,29.33400011062622,learn,30665.99988937378,Mon May 04 2026 14:02:05 GMT-0400 (Eastern Daylight Time),535749.2000000002,A,fing,I,g,349,3,2533.2999999998137,533215.9000000004,9028,WL,A,11.0
4,29.5,learn,30500.0,Mon May 04 2026 14:02:05 GMT-0400 (Eastern Daylight Time),535915.7999999998,A,finge,I,e,150,3,2699.899999999441,533215.9000000004,9028,WL,A,11.0
4,29.66700005531311,learn,30332.99994468689,Mon May 04 2026 14:02:05 GMT-0400 (Eastern Daylight Time),536082.4000000004,A,finger,I,r,150,3,2866.5,533215.9000000004,9028,WL,A,11.0
4,30.41700005531311,learn,29582.99994468689,Mon May 04 2026 14:02:05 GMT-0400 (Eastern Daylight Time),536832.1000000006,A,fingerenter,I,enter,728,3,3616.2000000001863,533215.9000000004,9028,WL,A,11.0
4,30.93400001525879,learn,29065.99998474121,Mon May 04 2026 14:02:05 GMT-0400 (Eastern Daylight Time),537349.1000000006,A,l,I,l,503,3,516.6000000005588,536832.5,9028,WL,A,12.0
4,31.26699995994568,learn,28733.00004005432,Mon May 04 2026 14:02:05 GMT-0400 (Eastern Daylight Time),537682.5,A,lo,I,o,317,3,850.0,536832.5,9028,WL,A,12.0
4,32.09999990463257,learn,27900.00009536743,Mon May 04 2026 14:02:05 GMT-0400 (Eastern Daylight Time),538515.7000000002,A,log,I,g,808,3,1683.2000000001863,536832.5,9028,WL,A,12.0
4,32.632999897003174,learn,27367.000102996826,Mon May 04 2026 14:02:05 GMT-0400 (Eastern Daylight Time),539048.9000000004,A,logenter,I,enter,517,3,2216.4000000003725,536832.5,9028,WL,A,12.0
4,33.03399991989136,learn,26966.000080108643,Mon May 04 2026 14:02:05 GMT-0400 (Eastern Daylight Time),539449.2000000002,A,r,I,r,389,3,400.0,539049.2000000002,9028,WL,A,13.0
4,33.367000102996826,learn,26632.999897003174,Mon May 04 2026 14:02:05 GMT-0400 (Eastern Daylight Time),539782.4000000004,A,ru,I,u,312,3,733.2000000001863,539049.2000000002,9028,WL,A,13.0
4,33.93400001525879,learn,26065.99998474121,Mon May 04 2026 14:02:05 GMT-0400 (Eastern Daylight Time),540349.1000000006,A,rug,I,g,558,3,1299.9000000003725,539049.2000000002,9028,WL,A,13.0
4,34.58299994468689,learn,25417.00005531311,Mon May 04 2026 14:02:05 GMT-0400 (Eastern Daylight Time),540998.6000000006,A,rugenter,I,enter,631,3,1949.4000000003725,539049.2000000002,9028,WL,A,13.0
4,36.217000007629395,learn,23782.999992370605,Mon May 04 2026 14:02:05 GMT-0400 (Eastern Daylight Time),542632.4000000004,A,g,I,g,1616,3,1633.5,540998.9000000004,9028,WL,A,14.0
4,36.43400001525879,learn,23565.99998474121,Mon May 04 2026 14:02:05 GMT-0400 (Eastern Daylight Time),542849.1000000006,A,go,I,o,194,3,1850.2000000001863,540998.9000000004,9028,WL,A,14.0
4,36.634000062942505,learn,23365.999937057495,Mon May 04 2026 14:02:05 GMT-0400 (Eastern Daylight Time),543049.0,A,gol,I,l,170,3,2050.0999999996275,540998.9000000004,9028,WL,A,14.0
4,36.88499999046326,learn,23115.000009536743,Mon May 04 2026 14:02:05 GMT-0400 (Eastern Daylight Time),543300.7999999998,A,gold,I,d,218,3,2301.899999999441,540998.9000000004,9028,WL,A,14.0
4,37.950000047683716,learn,22049.999952316284,Mon May 04 2026 14:02:05 GMT-0400 (Eastern Daylight Time),544365.4000000004,A,goldenter,I,enter,1042,3,3366.5,540998.9000000004,9028,WL,A,14.0
4,48.217000007629395,learn,11782.999992370605,Mon May 04 2026 14:02:05 GMT-0400 (Eastern Daylight Time),554632.5,A,a,I,a,10257,3,10266.799999999814,544365.7000000002,9028,WL,A,15.0
4,48.58400011062622,learn,11415.99988937378,Mon May 04 2026 14:02:05 GMT-0400 (Eastern Daylight Time),554999.1000000006,A,ap,I,p,348,3,10633.400000000373,544365.7000000002,9028,WL,A,15.0
4,49.049999952316284,learn,10950.000047683716,Mon May 04 2026 14:02:05 GMT-0400 (Eastern Daylight Time),555465.9000000004,A,app,I,p,452,3,11100.200000000186,544365.7000000002,9028,WL,A,15.0
4,49.75,learn,10250.0,Mon May 04 2026 14:02:05 GMT-0400 (Eastern Daylight Time),556165.6000000006,A,appl,I,l,690,3,11799.900000000373,544365.7000000002,9028,WL,A,15.0
4,50.134000062942505,learn,9865.999937057495,Mon May 04 2026 14:02:05 GMT-0400 (Eastern Daylight Time),556549.0,A,apple,I,e,359,3,12183.299999999814,544365.7000000002,9028,WL,A,15.0
4,50.282999992370605,learn,9717.000007629395,Mon May 04 2026 14:02:05 GMT-0400 (Eastern Daylight Time),556698.7999999998,A,appleenter,I,enter,133,3,12333.099999999627,544365.7000000002,9028,WL,A,15.0
5,0.6660001277923584,learn,60000.0,Mon May 04 2026 14:02:05 GMT-0400 (Eastern Daylight Time),626598.7999999998,A,b,I,b,655,3,665.8999999994412,625932.9000000004,9028,WL,A,1.0
5,0.9670000076293945,learn,60000.0,Mon May 04 2026 14:02:05 GMT-0400 (Eastern Daylight Time),626899.0,A,bo,I,o,287,3,966.0999999996275,625932.9000000004,9028,WL,A,1.0
5,1.1170001029968262,learn,60000.0,Mon May 04 2026 14:02:05 GMT-0400 (Eastern Daylight Time),627049.0,A,boo,I,o,127,3,1116.0999999996275,625932.9000000004,9028,WL,A,1.0
5,1.3500001430511475,learn,60000.0,Mon May 04 2026 14:02:05 GMT-0400 (Eastern Daylight Time),627282.4000000004,A,book,I,k,209,3,1349.5,625932.9000000004,9028,WL,A,1.0
5,2.0,learn,60000.0,Mon May 04 2026 14:02:05 GMT-0400 (Eastern Daylight Time),627932.1000000006,A,bookenter,I,enter,632,3,1999.2000000001863,625932.9000000004,9028,WL,A,1.0
5,2.5329999923706055,learn,60000.0,Mon May 04 2026 14:02:05 GMT-0400 (Eastern Daylight Time),628465.6000000006,A,t,I,t,522,3,533.2000000001863,627932.4000000004,9028,WL,A,2.0
5,2.817000150680542,learn,60000.0,Mon May 04 2026 14:02:05 GMT-0400 (Eastern Daylight Time),628749.2000000002,A,tr,I,r,256,3,816.7999999998137,627932.4000000004,9028,WL,A,2.0
5,2.9830000400543213,learn,60000.0,Mon May 04 2026 14:02:05 GMT-0400 (Eastern Daylight Time),628915.7999999998,A,tra,I,a,149,3,983.3999999994412,627932.4000000004,9028,WL,A,2.0
5,3.2669999599456787,learn,60000.0,Mon May 04 2026 14:02:05 GMT-0400 (Eastern Daylight Time),629199.9000000004,A,trai,I,i,271,3,1267.5,627932.4000000004,9028,WL,A,2.0
5,3.567000150680542,learn,60000.0,Mon May 04 2026 14:02:05 GMT-0400 (Eastern Daylight Time),629499.0,A,train,I,n,274,3,1566.5999999996275,627932.4000000004,9028,WL,A,2.0
5,4.167999982833862,learn,60000.0,Mon May 04 2026 14:02:05 GMT-0400 (Eastern Daylight Time),630100.5,A,trainenter,I,enter,584,3,2168.0999999996275,627932.4000000004,9028,WL,A,2.0
5,4.834000110626221,learn,60000.0,Mon May 04 2026 14:02:05 GMT-0400 (Eastern Daylight Time),630766.6000000006,A,f,I,f,657,3,665.7000000001863,630100.9000000004,9028,WL,A,3.0
5,5.1000001430511475,learn,60000.0,Mon May 04 2026 14:02:05 GMT-0400 (Eastern Daylight Time),631032.5,A,fl,I,l,244,3,931.5999999996275,630100.9000000004,9028,WL,A,3.0
5,5.3500001430511475,learn,60000.0,Mon May 04 2026 14:02:05 GMT-0400 (Eastern Daylight Time),631282.6000000006,A,flo,I,o,226,3,1181.7000000001863,630100.9000000004,9028,WL,A,3.0
5,5.650000095367432,learn,60000.0,Mon May 04 2026 14:02:05 GMT-0400 (Eastern Daylight Time),631582.5,A,flow,I,w,280,3,1481.5999999996275,630100.9000000004,9028,WL,A,3.0
5,5.91700005531311,learn,60000.0,Mon May 04 2026 14:02:05 GMT-0400 (Eastern Daylight Time),631849.1000000006,A,flowe,I,e,243,3,1748.2000000001863,630100.9000000004,9028,WL,A,3.0
5,6.200000047683716,learn,60000.0,Mon May 04 2026 14:02:05 GMT-0400 (Eastern Daylight Time),632132.4000000004,A,flower,I,r,258,3,2031.5,630100.9000000004,9028,WL,A,3.0
5,6.58299994468689,learn,60000.0,Mon May 04 2026 14:02:05 GMT-0400 (Eastern Daylight Time),632515.5,A,flowerenter,I,enter,360,3,2414.5999999996275,630100.9000000004,9028,WL,A,3.0
5,7.183000087738037,learn,60000.0,Mon May 04 2026 14:02:05 GMT-0400 (Eastern Daylight Time),633115.7999999998,A,r,I,r,586,3,600.0,632515.7999999998,9028,WL,A,4.0
5,7.549999952316284,learn,60000.0,Mon May 04 2026 14:02:05 GMT-0400 (Eastern Daylight Time),633482.5,A,ru,I,u,342,3,966.7000000001863,632515.7999999998,9028,WL,A,4.0
5,8.08299994468689,learn,60000.0,Mon May 04 2026 14:02:05 GMT-0400 (Eastern Daylight Time),634015.6000000006,A,rug,I,g,521,3,1499.800000000745,632515.7999999998,9028,WL,A,4.0
5,8.532999992370605,learn,60000.0,Mon May 04 2026 14:02:05 GMT-0400 (Eastern Daylight Time),634465.4000000004,A,rugenter,I,enter,421,3,1949.6000000005588,632515.7999999998,9028,WL,A,4.0
5,9.150000095367432,learn,60000.0,Mon May 04 2026 14:02:05 GMT-0400 (Eastern Daylight Time),635082.5,A,m,I,m,595,3,616.7999999998137,634465.7000000002,9028,WL,A,5.0
5,9.383000135421753,learn,60000.0,Mon May 04 2026 14:02:05 GMT-0400 (Eastern Daylight Time),635315.7999999998,A,me,I,e,216,3,850.0999999996275,634465.7000000002,9028,WL,A,5.0
5,9.567000150680542,learn,60000.0,Mon May 04 2026 14:02:05 GMT-0400 (Eastern Daylight Time),635498.9000000004,A,mea,I,a,167,3,1033.2000000001863,634465.7000000002,9028,WL,A,5.0
5,9.817000150680542,learn,60000.0,Mon May 04 2026 14:02:05 GMT-0400 (Eastern Daylight Time),635749.1000000006,A,mead,I,d,226,3,1283.4000000003725,634465.7000000002,9028,WL,A,5.0
5,10.032999992370605,learn,60000.0,Mon May 04 2026 14:02:05 GMT-0400 (Eastern Daylight Time),635965.5,A,meado,I,o,206,3,1499.7999999998137,634465.7000000002,9028,WL,A,5.0
5,10.450000047683716,learn,60000.0,Mon May 04 2026 14:02:05 GMT-0400 (Eastern Daylight Time),636382.2999999998,A,meadow,I,w,391,3,1916.5999999996275,634465.7000000002,9028,WL,A,5.0
5,10.950000047683716,learn,60000.0,Mon May 04 2026 14:02:05 GMT-0400 (Eastern Daylight Time),636881.9000000004,A,meadowenter,I,enter,477,3,2416.2000000001863,634465.7000000002,9028,WL,A,5.0
5,12.032999992370605,learn,60000.0,Mon May 04 2026 14:02:05 GMT-0400 (Eastern Daylight Time),637965.7000000002,A,r,I,r,1068,3,1083.4000000003725,636882.2999999998,9028,WL,A,6.0
5,12.25,learn,60000.0,Mon May 04 2026 14:02:05 GMT-0400 (Eastern Daylight Time),638182.4000000004,A,ra,I,a,206,3,1300.1000000005588,636882.2999999998,9028,WL,A,6.0
5,12.633000135421753,learn,60000.0,Mon May 04 2026 14:02:05 GMT-0400 (Eastern Daylight Time),638565.5,A,rat,I,t,371,3,1683.2000000001863,636882.2999999998,9028,WL,A,6.0
5,12.782999992370605,learn,60000.0,Mon May 04 2026 14:02:05 GMT-0400 (Eastern Daylight Time),638715.7000000002,A,ratt,I,t,125,3,1833.4000000003725,636882.2999999998,9028,WL,A,6.0
5,12.933000087738037,learn,60000.0,Mon May 04 2026 14:02:05 GMT-0400 (Eastern Daylight Time),638865.7000000002,A,rattl,I,l,137,3,1983.4000000003725,636882.2999999998,9028,WL,A,6.0
5,13.200000047683716,learn,60000.0,Mon May 04 2026 14:02:05 GMT-0400 (Eastern Daylight Time),639132.4000000004,A,rattle,I,e,242,3,2250.100000000559,636882.2999999998,9028,WL,A,6.0
5,13.883000135421753,learn,60000.0,Mon May 04 2026 14:02:05 GMT-0400 (Eastern Daylight Time),639815.5,A,rattleenter,I,enter,662,3,2933.2000000001863,636882.2999999998,9028,WL,A,6.0
5,14.83299994468689,learn,60000.0,Mon May 04 2026 14:02:05 GMT-0400 (Eastern Daylight Time),640765.5,A,a,I,a,943,3,949.7000000001863,639815.7999999998,9028,WL,A,7.0
5,15.150000095367432,learn,60000.0,Mon May 04 2026 14:02:05 GMT-0400 (Eastern Daylight Time),641082.6000000006,A,ap,I,p,300,3,1266.800000000745,639815.7999999998,9028,WL,A,7.0
5,15.350000143051147,learn,60000.0,Mon May 04 2026 14:02:05 GMT-0400 (Eastern Daylight Time),641282.5,A,app,I,p,176,3,1466.7000000001863,639815.7999999998,9028,WL,A,7.0
5,15.549999952316284,learn,60000.0,Mon May 04 2026 14:02:05 GMT-0400 (Eastern Daylight Time),641482.5,A,appl,I,l,176,3,1666.7000000001863,639815.7999999998,9028,WL,A,7.0
5,15.766999959945679,learn,60000.0,Mon May 04 2026 14:02:05 GMT-0400 (Eastern Daylight Time),641699.0,A,apple,I,e,191,3,1883.2000000001863,639815.7999999998,9028,WL,A,7.0
5,16.100000143051147,learn,60000.0,Mon May 04 2026 14:02:05 GMT-0400 (Eastern Daylight Time),642032.1000000006,A,appleenter,I,enter,304,3,2216.300000000745,639815.7999999998,9028,WL,A,7.0
5,16.58299994468689,learn,60000.0,Mon May 04 2026 14:02:05 GMT-0400 (Eastern Daylight Time),642515.7999999998,A,k,I,k,470,3,483.3999999994412,642032.4000000004,9028,WL,A,8.0
5,16.782999992370605,learn,60000.0,Mon May 04 2026 14:02:05 GMT-0400 (Eastern Daylight Time),642715.7000000002,A,ke,I,e,174,3,683.2999999998137,642032.4000000004,9028,WL,A,8.0
5,17.049999952316284,learn,60000.0,Mon May 04 2026 14:02:05 GMT-0400 (Eastern Daylight Time),642982.5,A,key,I,y,247,3,950.0999999996275,642032.4000000004,9028,WL,A,8.0
5,17.683000087738037,learn,60000.0,Mon May 04 2026 14:02:05 GMT-0400 (Eastern Daylight Time),643615.4000000004,A,keyenter,I,enter,621,3,1583.0,642032.4000000004,9028,WL,A,8.0
5,18.183000087738037,learn,60000.0,Mon May 04 2026 14:02:05 GMT-0400 (Eastern Daylight Time),644115.6000000006,A,g,I,g,487,3,499.80000000074506,643615.7999999998,9028,WL,A,9.0
5,18.383000135421753,learn,60000.0,Mon May 04 2026 14:02:05 GMT-0400 (Eastern Daylight Time),644315.7000000002,A,go,I,o,182,3,699.9000000003725,643615.7999999998,9028,WL,A,9.0
5,18.633000135421753,learn,60000.0,Mon May 04 2026 14:02:05 GMT-0400 (Eastern Daylight Time),644565.7999999998,A,gol,I,l,232,3,950.0,643615.7999999998,9028,WL,A,9.0
5,18.98300004005432,learn,60000.0,Mon May 04 2026 14:02:05 GMT-0400 (Eastern Daylight Time),644915.9000000004,A,gold,I,d,324,3,1300.1000000005588,643615.7999999998,9028,WL,A,9.0
5,19.350000143051147,learn,60000.0,Mon May 04 2026 14:02:05 GMT-0400 (Eastern Daylight Time),645282.1000000006,A,goldenter,I,enter,342,3,1666.300000000745,643615.7999999998,9028,WL,A,9.0
5,19.700000047683716,learn,60000.0,Mon May 04 2026 14:02:05 GMT-0400 (Eastern Daylight Time),645632.5,A,s,I,s,332,3,350.09999999962747,645282.4000000004,9028,WL,A,10.0
5,19.90000009536743,learn,60000.0,Mon May 04 2026 14:02:05 GMT-0400 (Eastern Daylight Time),645832.5,A,sa,I,a,186,3,550.0999999996275,645282.4000000004,9028,WL,A,10.0
5,20.117000102996826,learn,60000.0,Mon May 04 2026 14:02:05 GMT-0400 (Eastern Daylight Time),646048.9000000004,A,sal,I,l,203,3,766.5,645282.4000000004,9028,WL,A,10.0
5,20.65000009536743,learn,60000.0,Mon May 04 2026 14:02:05 GMT-0400 (Eastern Daylight Time),646582.4000000004,A,salt,I,t,514,3,1300.0,645282.4000000004,9028,WL,A,10.0
5,21.216000080108643,learn,60000.0,Mon May 04 2026 14:02:05 GMT-0400 (Eastern Daylight Time),647148.7999999998,A,saltenter,I,enter,548,3,1866.3999999994412,645282.4000000004,9028,WL,A,10.0
5,21.549999952316284,learn,60000.0,Mon May 04 2026 14:02:05 GMT-0400 (Eastern Daylight Time),647482.4000000004,A,f,I,f,313,3,333.29999999981374,647149.1000000006,9028,WL,A,11.0
5,21.850000143051147,learn,60000.0,Mon May 04 2026 14:02:05 GMT-0400 (Eastern Daylight Time),647782.5,A,fi,I,i,280,3,633.3999999994412,647149.1000000006,9028,WL,A,11.0
5,22.117000102996826,learn,60000.0,Mon May 04 2026 14:02:05 GMT-0400 (Eastern Daylight Time),648048.9000000004,A,fin,I,n,252,3,899.7999999998137,647149.1000000006,9028,WL,A,11.0
5,22.41700005531311,learn,60000.0,Mon May 04 2026 14:02:05 GMT-0400 (Eastern Daylight Time),648348.9000000004,A,fing,I,g,282,3,1199.7999999998137,647149.1000000006,9028,WL,A,11.0
5,22.700000047683716,learn,60000.0,Mon May 04 2026 14:02:05 GMT-0400 (Eastern Daylight Time),648632.4000000004,A,finge,I,e,262,3,1483.2999999998137,647149.1000000006,9028,WL,A,11.0
5,22.933000087738037,learn,60000.0,Mon May 04 2026 14:02:05 GMT-0400 (Eastern Daylight Time),648865.9000000004,A,finger,I,r,219,3,1716.7999999998137,647149.1000000006,9028,WL,A,11.0
5,23.532999992370605,learn,60000.0,Mon May 04 2026 14:02:05 GMT-0400 (Eastern Daylight Time),649465.4000000004,A,fingerenter,I,enter,576,3,2316.2999999998137,647149.1000000006,9028,WL,A,11.0
5,24.100000143051147,learn,60000.0,Mon May 04 2026 14:02:05 GMT-0400 (Eastern Daylight Time),650032.5,A,h,I,h,557,3,566.7000000001863,649465.7999999998,9028,WL,A,12.0
5,24.282999992370605,learn,60000.0,Mon May 04 2026 14:02:05 GMT-0400 (Eastern Daylight Time),650215.7000000002,A,ha,I,a,171,3,749.9000000003725,649465.7999999998,9028,WL,A,12.0
5,24.617000102996826,learn,60000.0,Mon May 04 2026 14:02:05 GMT-0400 (Eastern Daylight Time),650549.1000000006,A,har,I,r,319,3,1083.300000000745,649465.7999999998,9028,WL,A,12.0
5,25.032999992370605,learn,60000.0,Mon May 04 2026 14:02:05 GMT-0400 (Eastern Daylight Time),650965.5,A,harp,I,p,404,3,1499.7000000001863,649465.7999999998,9028,WL,A,12.0
5,26.115999937057495,learn,60000.0,Mon May 04 2026 14:02:05 GMT-0400 (Eastern Daylight Time),652048.7000000002,A,harpenter,I,enter,1062,3,2582.9000000003725,649465.7999999998,9028,WL,A,12.0
5,30.617000102996826,learn,60000.0,Mon May 04 2026 14:02:05 GMT-0400 (Eastern Daylight Time),656549.0,A,k,I,k,4478,3,4500.0,652049.0,9028,WL,A,13.0
5,30.867000102996826,learn,60000.0,Mon May 04 2026 14:02:05 GMT-0400 (Eastern Daylight Time),656799.0,A,ke,I,e,236,3,4750.0,652049.0,9028,WL,A,13.0
5,31.117000102996826,learn,60000.0,Mon May 04 2026 14:02:05 GMT-0400 (Eastern Daylight Time),657048.9000000004,A,key,I,y,229,3,4999.9000000003725,652049.0,9028,WL,A,13.0
5,31.66600012779236,learn,60000.0,Mon May 04 2026 14:02:05 GMT-0400 (Eastern Daylight Time),657598.7999999998,A,keyenter,I,enter,532,3,5549.799999999814,652049.0,9028,WL,A,13.0
5,35.48300004005432,learn,60000.0,Mon May 04 2026 14:02:05 GMT-0400 (Eastern Daylight Time),661415.7999999998,A,g,I,g,3799,3,3816.699999999255,657599.1000000006,9028,WL,A,14.0
5,35.617000102996826,learn,60000.0,Mon May 04 2026 14:02:05 GMT-0400 (Eastern Daylight Time),661549.1000000006,A,go,I,o,124,3,3950.0,657599.1000000006,9028,WL,A,14.0
5,35.867000102996826,learn,60000.0,Mon May 04 2026 14:02:05 GMT-0400 (Eastern Daylight Time),661799.0,A,gol,I,l,230,3,4199.899999999441,657599.1000000006,9028,WL,A,14.0
5,36.10000014305115,learn,60000.0,Mon May 04 2026 14:02:05 GMT-0400 (Eastern Daylight Time),662032.5,A,gold,I,d,211,3,4433.399999999441,657599.1000000006,9028,WL,A,14.0
5,36.467000007629395,learn,60000.0,Mon May 04 2026 14:02:05 GMT-0400 (Eastern Daylight Time),662399.6000000006,A,goldenter,I,enter,346,3,4800.5,657599.1000000006,9028,WL,A,14.0
5,47.68300008773804,learn,60000.0,Mon May 04 2026 14:02:05 GMT-0400 (Eastern Daylight Time),673615.7999999998,A,b,I,b,11208,3,11215.899999999441,662399.9000000004,9028,WL,A,15.0
5,47.967000007629395,learn,60000.0,Mon May 04 2026 14:02:05 GMT-0400 (Eastern Daylight Time),673899.2000000002,A,bu,I,u,256,3,11499.299999999814,662399.9000000004,9028,WL,A,15.0
5,48.26699995994568,learn,60000.0,Mon May 04 2026 14:02:05 GMT-0400 (Eastern Daylight Time),674199.0,A,but,I,t,277,3,11799.099999999627,662399.9000000004,9028,WL,A,15.0
5,48.41700005531311,learn,60000.0,Mon May 04 2026 14:02:05 GMT-0400 (Eastern Daylight Time),674349.0,A,butt,I,t,141,3,11949.099999999627,662399.9000000004,9028,WL,A,15.0
5,48.532999992370605,learn,60000.0,Mon May 04 2026 14:02:05 GMT-0400 (Eastern Daylight Time),674465.7999999998,A,butto,I,o,101,3,12065.899999999441,662399.9000000004,9028,WL,A,15.0
5,48.782999992370605,learn,60000.0,Mon May 04 2026 14:02:05 GMT-0400 (Eastern Daylight Time),674715.6000000006,A,button,I,n,216,3,12315.700000000186,662399.9000000004,9028,WL,A,15.0
5,49.68300008773804,learn,60000.0,Mon May 04 2026 14:02:05 GMT-0400 (Eastern Daylight Time),675615.4000000004,A,buttonenter,I,enter,881,3,13215.5,662399.9000000004,9028,WL,A,15.0
6,0.5999999046325684,distr,59400.00009536743,Mon May 04 2026 14:02:05 GMT-0400 (Eastern Daylight Time),753882.4000000004,B,b,I,b,585,3,599.7000000001863,753282.7000000002,9028,WL,A,1.0
6,0.9829998016357422,distr,59017.00019836426,Mon May 04 2026 14:02:05 GMT-0400 (Eastern Daylight Time),754265.6000000006,B,bo,I,o,358,3,982.9000000003725,753282.7000000002,9028,WL,A,1.0
6,1.2999999523162842,distr,58700.000047683716,Mon May 04 2026 14:02:05 GMT-0400 (Eastern Daylight Time),754582.2999999998,B,bow,I,w,306,3,1299.5999999996275,753282.7000000002,9028,WL,A,1.0
6,1.5829999446868896,distr,58417.00005531311,Mon May 04 2026 14:02:05 GMT-0400 (Eastern Daylight Time),754865.7000000002,B,bowl,I,l,260,3,1583.0,753282.7000000002,9028,WL,A,1.0
6,2.182999849319458,distr,57817.00015068054,Mon May 04 2026 14:02:05 GMT-0400 (Eastern Daylight Time),755465.4000000004,B,bowlenter,I,enter,584,3,2182.7000000001863,753282.7000000002,9028,WL,A,1.0
6,2.882999897003174,distr,57117.000102996826,Mon May 04 2026 14:02:05 GMT-0400 (Eastern Daylight Time),756165.5,B,b,I,b,692,3,699.7999999998137,755465.7000000002,9028,WL,A,2.0
6,3.0829999446868896,distr,56917.00005531311,Mon May 04 2026 14:02:05 GMT-0400 (Eastern Daylight Time),756365.5,B,bo,I,o,189,3,899.7999999998137,755465.7000000002,9028,WL,A,2.0
6,3.5999999046325684,distr,56400.00009536743,Mon May 04 2026 14:02:05 GMT-0400 (Eastern Daylight Time),756882.2999999998,B,bot,I,t,494,3,1416.5999999996275,755465.7000000002,9028,WL,A,2.0
6,3.7669999599456787,distr,56233.00004005432,Mon May 04 2026 14:02:05 GMT-0400 (Eastern Daylight Time),757048.9000000004,B,bott,I,t,144,3,1583.2000000001863,755465.7000000002,9028,WL,A,2.0
6,3.865999937057495,distr,56134.000062942505,Mon May 04 2026 14:02:05 GMT-0400 (Eastern Daylight Time),757148.7999999998,B,bottl,I,l,83,3,1683.0999999996275,755465.7000000002,9028,WL,A,2.0
6,4.116999864578247,distr,55883.00013542175,Mon May 04 2026 14:02:05 GMT-0400 (Eastern Daylight Time),757399.0,B,bottle,I,e,238,3,1933.2999999998137,755465.7000000002,9028,WL,A,2.0
6,4.5,distr,55500.0,Mon May 04 2026 14:02:05 GMT-0400 (Eastern Daylight Time),757782.0,B,bottleenter,I,enter,363,3,2316.2999999998137,755465.7000000002,9028,WL,A,2.0
6,4.83299994468689,distr,55167.00005531311,Mon May 04 2026 14:02:05 GMT-0400 (Eastern Daylight Time),758115.7000000002,B,d,I,d,320,3,333.40000000037253,757782.2999999998,9028,WL,A,3.0
6,5.016999959945679,distr,54983.00004005432,Mon May 04 2026 14:02:05 GMT-0400 (Eastern Daylight Time),758298.9000000004,B,da,I,a,167,3,516.6000000005588,757782.2999999998,9028,WL,A,3.0
6,5.382999897003174,distr,54617.000102996826,Mon May 04 2026 14:02:05 GMT-0400 (Eastern Daylight Time),758665.6000000006,B,daw,I,w,344,3,883.3000000007451,757782.2999999998,9028,WL,A,3.0
6,5.932999849319458,distr,54067.00015068054,Mon May 04 2026 14:02:05 GMT-0400 (Eastern Daylight Time),759215.7000000002,B,dawn,I,n,537,3,1433.4000000003725,757782.2999999998,9028,WL,A,3.0
6,6.515999794006348,distr,53484.00020599365,Mon May 04 2026 14:02:05 GMT-0400 (Eastern Daylight Time),759798.5,B,dawnenter,I,enter,563,3,2016.2000000001863,757782.2999999998,9028,WL,A,3.0
6,7.366999864578247,distr,52633.00013542175,Mon May 04 2026 14:02:05 GMT-0400 (Eastern Daylight Time),760649.0,B,j,I,j,839,3,850.0999999996275,759798.9000000004,9028,WL,A,4.0
6,7.6499998569488525,distr,52350.00014305115,Mon May 04 2026 14:02:05 GMT-0400 (Eastern Daylight Time),760932.4000000004,B,ju,I,u,256,3,1133.5,759798.9000000004,9028,WL,A,4.0
6,8.549999952316284,distr,51450.000047683716,Mon May 04 2026 14:02:05 GMT-0400 (Eastern Daylight Time),761832.2999999998,B,jud,I,d,879,3,2033.3999999994412,759798.9000000004,9028,WL,A,4.0
6,9.182999849319458,distr,50817.00015068054,Mon May 04 2026 14:02:05 GMT-0400 (Eastern Daylight Time),762465.7999999998,B,judg,I,g,611,3,2666.899999999441,759798.9000000004,9028,WL,A,4.0
6,9.449999809265137,distr,50550.00019073486,Mon May 04 2026 14:02:05 GMT-0400 (Eastern Daylight Time),762732.5,B,judge,I,e,257,3,2933.5999999996275,759798.9000000004,9028,WL,A,4.0
6,10.449999809265137,distr,49550.00019073486,Mon May 04 2026 14:02:05 GMT-0400 (Eastern Daylight Time),763732.2999999998,B,judgep,I,p,976,3,3933.399999999441,759798.9000000004,9028,WL,A,4.0
6,10.682999849319458,distr,49317.00015068054,Mon May 04 2026 14:02:05 GMT-0400 (Eastern Daylight Time),763965.7000000002,B,judgepe,I,e,213,3,4166.799999999814,759798.9000000004,9028,WL,A,4.0
6,10.882999897003174,distr,49117.000102996826,Mon May 04 2026 14:02:05 GMT-0400 (Eastern Daylight Time),764165.7000000002,B,judgepea,I,a,175,3,4366.799999999814,759798.9000000004,9028,WL,A,4.0
6,12.33299994468689,distr,47667.00005531311,Mon May 04 2026 14:02:05 GMT-0400 (Eastern Daylight Time),765615.6000000006,B,judgepe,I,backspace,1429,3,5816.700000000186,759798.9000000004,9028,WL,A,4.0
6,12.532999992370605,distr,47467.000007629395,Mon May 04 2026 14:02:05 GMT-0400 (Eastern Daylight Time),765815.5,B,judgep,I,backspace,188,3,6016.5999999996275,759798.9000000004,9028,WL,A,4.0
6,12.916999816894531,distr,47083.00018310547,Mon May 04 2026 14:02:05 GMT-0400 (Eastern Daylight Time),766198.9000000004,B,judge,I,backspace,371,3,6400.0,759798.9000000004,9028,WL,A,4.0
6,13.58299994468689,distr,46417.00005531311,Mon May 04 2026 14:02:05 GMT-0400 (Eastern Daylight Time),766865.2999999998,B,judgeenter,I,enter,645,3,7066.399999999441,759798.9000000004,9028,WL,A,4.0
6,14.366999864578247,distr,45633.00013542175,Mon May 04 2026 14:02:05 GMT-0400 (Eastern Daylight Time),767649.1000000006,B,p,I,p,765,3,783.4000000003725,766865.7000000002,9028,WL,A,5.0
6,14.58299994468689,distr,45417.00005531311,Mon May 04 2026 14:02:05 GMT-0400 (Eastern Daylight Time),767865.7999999998,B,pe,I,e,201,3,1000.0999999996275,766865.7000000002,9028,WL,A,5.0
6,14.849999904632568,distr,45150.00009536743,Mon May 04 2026 14:02:05 GMT-0400 (Eastern Daylight Time),768132.5,B,pea,I,a,241,3,1266.7999999998137,766865.7000000002,9028,WL,A,5.0
6,15.182999849319458,distr,44817.00015068054,Mon May 04 2026 14:02:05 GMT-0400 (Eastern Daylight Time),768465.6000000006,B,peac,I,c,319,3,1599.9000000003725,766865.7000000002,9028,WL,A,5.0
6,15.382999897003174,distr,44617.000102996826,Mon May 04 2026 14:02:05 GMT-0400 (Eastern Daylight Time),768665.6000000006,B,peach,I,h,177,3,1799.9000000003725,766865.7000000002,9028,WL,A,5.0
6,16.199999809265137,distr,43800.00019073486,Mon May 04 2026 14:02:05 GMT-0400 (Eastern Daylight Time),769482.0,B,peachenter,I,enter,801,3,2616.2999999998137,766865.7000000002,9028,WL,A,5.0
6,60.01699995994568,distr,-16.99995994567871,Mon May 04 2026 14:02:05 GMT-0400 (Eastern Daylight Time),813299.2999999998,B,None,I,None,43811,3,43817.0,769482.2999999998,9028,WL,A,6.0
7,0.8499999046325684,immed,59150.00009536743,Mon May 04 2026 14:02:05 GMT-0400 (Eastern Daylight Time),824732.0,A,b,I,b,841,3,849.2999999998137,823882.7000000002,9028,WL,A,1.0
7,1.2170000076293945,immed,58782.999992370605,Mon May 04 2026 14:02:05 GMT-0400 (Eastern Daylight Time),825099.0,A,bo,I,o,341,3,1216.2999999998137,823882.7000000002,9028,WL,A,1.0
7,1.3829998970031738,immed,58617.000102996826,Mon May 04 2026 14:02:05 GMT-0400 (Eastern Daylight Time),825265.7000000002,A,boo,I,o,151,3,1383.0,823882.7000000002,9028,WL,A,1.0
7,1.8829998970031738,immed,58117.000102996826,Mon May 04 2026 14:02:05 GMT-0400 (Eastern Daylight Time),825765.7000000002,A,book,I,k,481,3,1883.0,823882.7000000002,9028,WL,A,1.0
7,2.450000047683716,immed,57549.999952316284,Mon May 04 2026 14:02:05 GMT-0400 (Eastern Daylight Time),826331.9000000004,A,bookenter,I,enter,547,3,2449.2000000001863,823882.7000000002,9028,WL,A,1.0
7,3.7660000324249268,immed,56233.99996757507,Mon May 04 2026 14:02:05 GMT-0400 (Eastern Daylight Time),827648.9000000004,A,f,I,f,1298,3,1316.6000000005588,826332.2999999998,9028,WL,A,2.0
7,3.950000047683716,immed,56049.999952316284,Mon May 04 2026 14:02:05 GMT-0400 (Eastern Daylight Time),827832.2999999998,A,fl,I,l,169,3,1500.0,826332.2999999998,9028,WL,A,2.0
7,4.200000047683716,immed,55799.999952316284,Mon May 04 2026 14:02:05 GMT-0400 (Eastern Daylight Time),828082.4000000004,A,flo,I,o,227,3,1750.1000000005588,826332.2999999998,9028,WL,A,2.0
7,4.315999984741211,immed,55684.00001525879,Mon May 04 2026 14:02:05 GMT-0400 (Eastern Daylight Time),828198.9000000004,A,flow,I,w,96,3,1866.6000000005588,826332.2999999998,9028,WL,A,2.0
7,4.566999912261963,immed,55433.00008773804,Mon May 04 2026 14:02:05 GMT-0400 (Eastern Daylight Time),828449.0,A,flowe,I,e,227,3,2116.7000000001863,826332.2999999998,9028,WL,A,2.0
7,4.816999912261963,immed,55183.00008773804,Mon May 04 2026 14:02:05 GMT-0400 (Eastern Daylight Time),828699.0,A,flower,I,r,233,3,2366.7000000001863,826332.2999999998,9028,WL,A,2.0
7,5.115999937057495,immed,54884.000062942505,Mon May 04 2026 14:02:05 GMT-0400 (Eastern Daylight Time),828998.6000000006,A,flowerenter,I,enter,279,3,2666.300000000745,826332.2999999998,9028,WL,A,2.0
7,5.665999889373779,immed,54334.00011062622,Mon May 04 2026 14:02:05 GMT-0400 (Eastern Daylight Time),829548.9000000004,A,m,I,m,543,3,550.0,828998.9000000004,9028,WL,A,3.0
7,5.882999897003174,immed,54117.000102996826,Mon May 04 2026 14:02:05 GMT-0400 (Eastern Daylight Time),829765.6000000006,A,me,I,e,198,3,766.7000000001863,828998.9000000004,9028,WL,A,3.0
7,6.049999952316284,immed,53950.000047683716,Mon May 04 2026 14:02:05 GMT-0400 (Eastern Daylight Time),829932.2000000002,A,mea,I,a,133,3,933.2999999998137,828998.9000000004,9028,WL,A,3.0
7,6.266000032424927,immed,53733.99996757507,Mon May 04 2026 14:02:05 GMT-0400 (Eastern Daylight Time),830148.7999999998,A,mead,I,d,207,3,1149.8999999994412,828998.9000000004,9028,WL,A,3.0
7,6.516999959945679,immed,53483.00004005432,Mon May 04 2026 14:02:05 GMT-0400 (Eastern Daylight Time),830399.0,A,meado,I,o,231,3,1400.0999999996275,828998.9000000004,9028,WL,A,3.0
7,7.200000047683716,immed,52799.999952316284,Mon May 04 2026 14:02:05 GMT-0400 (Eastern Daylight Time),831082.5,A,meadow,I,w,659,3,2083.5999999996275,828998.9000000004,9028,WL,A,3.0
7,9.516000032424927,immed,50483.99996757507,Mon May 04 2026 14:02:05 GMT-0400 (Eastern Daylight Time),833398.5,A,meadowenter,I,enter,2295,3,4399.5999999996275,828998.9000000004,9028,WL,A,3.0
7,11.782999992370605,immed,48217.000007629395,Mon May 04 2026 14:02:05 GMT-0400 (Eastern Daylight Time),835665.7000000002,A,a,I,a,2247,3,2266.7999999998137,833398.9000000004,9028,WL,A,4.0
7,12.0,immed,48000.0,Mon May 04 2026 14:02:05 GMT-0400 (Eastern Daylight Time),835882.4000000004,A,ap,I,p,199,3,2483.5,833398.9000000004,9028,WL,A,4.0
7,12.16700005531311,immed,47832.99994468689,Mon May 04 2026 14:02:05 GMT-0400 (Eastern Daylight Time),836049.1000000006,A,app,I,p,145,3,2650.2000000001863,833398.9000000004,9028,WL,A,4.0
7,12.33299994468689,immed,47667.00005531311,Mon May 04 2026 14:02:05 GMT-0400 (Eastern Daylight Time),836215.7000000002,A,appl,I,l,146,3,2816.7999999998137,833398.9000000004,9028,WL,A,4.0
7,12.532999992370605,immed,47467.000007629395,Mon May 04 2026 14:02:05 GMT-0400 (Eastern Daylight Time),836415.7999999998,A,apple,I,e,172,3,3016.899999999441,833398.9000000004,9028,WL,A,4.0
7,12.950000047683716,immed,47049.999952316284,Mon May 04 2026 14:02:05 GMT-0400 (Eastern Daylight Time),836832.1000000006,A,appleenter,I,enter,394,3,3433.2000000001863,833398.9000000004,9028,WL,A,4.0
7,13.58299994468689,immed,46417.00005531311,Mon May 04 2026 14:02:05 GMT-0400 (Eastern Daylight Time),837465.5,A,g,I,g,622,3,633.0,836832.5,9028,WL,A,5.0
7,13.799999952316284,immed,46200.000047683716,Mon May 04 2026 14:02:05 GMT-0400 (Eastern Daylight Time),837682.4000000004,A,go,I,o,200,3,849.9000000003725,836832.5,9028,WL,A,5.0
7,14.032999992370605,immed,45967.000007629395,Mon May 04 2026 14:02:05 GMT-0400 (Eastern Daylight Time),837915.6000000006,A,gol,I,l,208,3,1083.1000000005588,836832.5,9028,WL,A,5.0
7,14.66599988937378,immed,45334.00011062622,Mon May 04 2026 14:02:05 GMT-0400 (Eastern Daylight Time),838548.9000000004,A,gold,I,d,616,3,1716.4000000003725,836832.5,9028,WL,A,5.0
7,15.033999919891357,immed,44966.00008010864,Mon May 04 2026 14:02:05 GMT-0400 (Eastern Daylight Time),838916.2000000002,A,goldenter,I,enter,350,3,2083.7000000001863,836832.5,9028,WL,A,5.0
7,15.950000047683716,immed,44049.999952316284,Mon May 04 2026 14:02:05 GMT-0400 (Eastern Daylight Time),839832.2999999998,A,r,I,r,898,3,915.7999999998137,838916.5,9028,WL,A,6.0
7,16.316999912261963,immed,43683.00008773804,Mon May 04 2026 14:02:05 GMT-0400 (Eastern Daylight Time),840198.9000000004,A,ru,I,u,354,3,1282.4000000003725,838916.5,9028,WL,A,6.0
7,16.700000047683716,immed,43299.999952316284,Mon May 04 2026 14:02:05 GMT-0400 (Eastern Daylight Time),840582.2000000002,A,rug,I,g,363,3,1665.7000000001863,838916.5,9028,WL,A,6.0
7,17.365999937057495,immed,42634.000062942505,Mon May 04 2026 14:02:05 GMT-0400 (Eastern Daylight Time),841248.7000000002,A,rugenter,I,enter,652,3,2332.2000000001863,838916.5,9028,WL,A,6.0
7,17.865999937057495,immed,42134.000062942505,Mon May 04 2026 14:02:05 GMT-0400 (Eastern Daylight Time),841748.7000000002,A,l,I,l,493,3,499.59999999962747,841249.1000000006,9028,WL,A,7.0
7,18.132999897003174,immed,41867.000102996826,Mon May 04 2026 14:02:05 GMT-0400 (Eastern Daylight Time),842015.7999999998,A,lo,I,o,254,3,766.6999999992549,841249.1000000006,9028,WL,A,7.0
7,18.433000087738037,immed,41566.99991226196,Mon May 04 2026 14:02:05 GMT-0400 (Eastern Daylight Time),842315.6000000006,A,log,I,g,283,3,1066.5,841249.1000000006,9028,WL,A,7.0
7,18.882999897003174,immed,41117.000102996826,Mon May 04 2026 14:02:05 GMT-0400 (Eastern Daylight Time),842765.1000000006,A,logenter,I,enter,438,3,1516.0,841249.1000000006,9028,WL,A,7.0
7,20.867000102996826,immed,39132.999897003174,Mon May 04 2026 14:02:05 GMT-0400 (Eastern Daylight Time),844749.0,A,r,I,r,1969,3,1983.5,842765.5,9028,WL,A,8.0
7,21.08299994468689,immed,38917.00005531311,Mon May 04 2026 14:02:05 GMT-0400 (Eastern Daylight Time),844965.6000000006,A,ra,I,a,206,3,2200.100000000559,842765.5,9028,WL,A,8.0
7,21.34999990463257,immed,38650.00009536743,Mon May 04 2026 14:02:05 GMT-0400 (Eastern Daylight Time),845232.4000000004,A,rat,I,t,245,3,2466.9000000003725,842765.5,9028,WL,A,8.0
7,21.5,immed,38500.0,Mon May 04 2026 14:02:05 GMT-0400 (Eastern Daylight Time),845382.2999999998,A,ratt,I,t,130,3,2616.7999999998137,842765.5,9028,WL,A,8.0
7,22.049999952316284,immed,37950.000047683716,Mon May 04 2026 14:02:05 GMT-0400 (Eastern Daylight Time),845932.4000000004,A,rattl,I,l,534,3,3166.9000000003725,842765.5,9028,WL,A,8.0
7,22.367000102996826,immed,37632.999897003174,Mon May 04 2026 14:02:05 GMT-0400 (Eastern Daylight Time),846249.1000000006,A,rattle,I,e,303,3,3483.600000000559,842765.5,9028,WL,A,8.0
7,23.966000080108643,immed,36033.99991989136,Mon May 04 2026 14:02:05 GMT-0400 (Eastern Daylight Time),847848.5,A,rattleenter,I,enter,1584,3,5083.0,842765.5,9028,WL,A,8.0
7,32.01699995994568,immed,27983.00004005432,Mon May 04 2026 14:02:05 GMT-0400 (Eastern Daylight Time),855899.0,A,h,I,h,8037,3,8050.0999999996275,847848.9000000004,9028,WL,A,9.0
7,32.23300004005432,immed,27766.99995994568,Mon May 04 2026 14:02:05 GMT-0400 (Eastern Daylight Time),856115.7999999998,A,ha,I,a,200,3,8266.899999999441,847848.9000000004,9028,WL,A,9.0
7,32.632999897003174,immed,27367.000102996826,Mon May 04 2026 14:02:05 GMT-0400 (Eastern Daylight Time),856515.6000000006,A,har,I,r,375,3,8666.700000000186,847848.9000000004,9028,WL,A,9.0
7,33.0,immed,27000.0,Mon May 04 2026 14:02:05 GMT-0400 (Eastern Daylight Time),856882.4000000004,A,harp,I,p,344,3,9033.5,847848.9000000004,9028,WL,A,9.0
7,33.58299994468689,immed,26417.00005531311,Mon May 04 2026 14:02:05 GMT-0400 (Eastern Daylight Time),857465.2999999998,A,harpenter,I,enter,567,3,9616.399999999441,847848.9000000004,9028,WL,A,9.0
7,34.76699995994568,immed,25233.00004005432,Mon May 04 2026 14:02:05 GMT-0400 (Eastern Daylight Time),858649.0,A,k,I,k,1172,3,1183.3999999994412,857465.6000000006,9028,WL,A,10.0
7,34.967000007629395,immed,25032.999992370605,Mon May 04 2026 14:02:05 GMT-0400 (Eastern Daylight Time),858849.1000000006,A,ke,I,e,186,3,1383.5,857465.6000000006,9028,WL,A,10.0
7,35.217000007629395,immed,24782.999992370605,Mon May 04 2026 14:02:05 GMT-0400 (Eastern Daylight Time),859099.2000000002,A,key,I,y,217,3,1633.5999999996275,857465.6000000006,9028,WL,A,10.0
7,35.90000009536743,immed,24099.99990463257,Mon May 04 2026 14:02:05 GMT-0400 (Eastern Daylight Time),859782.0,A,keyenter,I,enter,656,3,2316.399999999441,857465.6000000006,9028,WL,A,10.0
7,42.15000009536743,immed,17849.99990463257,Mon May 04 2026 14:02:05 GMT-0400 (Eastern Daylight Time),866032.4000000004,A,a,I,a,6240,3,6250.100000000559,859782.2999999998,9028,WL,A,11.0
7,42.40000009536743,immed,17599.99990463257,Mon May 04 2026 14:02:05 GMT-0400 (Eastern Daylight Time),866282.2999999998,A,ap,I,p,233,3,6500.0,859782.2999999998,9028,WL,A,11.0
7,42.56699991226196,immed,17433.000087738037,Mon May 04 2026 14:02:05 GMT-0400 (Eastern Daylight Time),866449.0,A,app,I,p,145,3,6666.700000000186,859782.2999999998,9028,WL,A,11.0
7,42.75,immed,17250.0,Mon May 04 2026 14:02:05 GMT-0400 (Eastern Daylight Time),866632.4000000004,A,appl,I,l,156,3,6850.100000000559,859782.2999999998,9028,WL,A,11.0
7,42.867000102996826,immed,17132.999897003174,Mon May 04 2026 14:02:05 GMT-0400 (Eastern Daylight Time),866749.2000000002,A,apple,I,e,97,3,6966.9000000003725,859782.2999999998,9028,WL,A,11.0
7,43.049999952316284,immed,16950.000047683716,Mon May 04 2026 14:02:05 GMT-0400 (Eastern Daylight Time),866932.0,A,appleenter,I,enter,157,3,7149.700000000186,859782.2999999998,9028,WL,A,11.0
7,60.01699995994568,immed,-16.99995994567871,Mon May 04 2026 14:02:05 GMT-0400 (Eastern Daylight Time),883899.1000000006,A,None,I,None,16961,3,16966.700000000186,866932.4000000004,9028,WL,A,12.0
