block_c,block_dur,condition,countdown,datetime,endtime,list,multichar_response,project,response,response_time,session_number,start_end,starttime,subject_id,task,task_vers,trial
,,,,Mon Oct 06 2025 16:10:22 GMT-0400 (Eastern Daylight Time),,,,I,space,672,1,,,9028,WL,C,
prac,,0,,Mon Oct 06 2025 16:10:22 GMT-0400 (Eastern Daylight Time),,NA,b,I,b,3924,1,,,9028,WL,C,1.0
prac,,0,,Mon Oct 06 2025 16:10:22 GMT-0400 (Eastern Daylight Time),,NA,bo,I,o,466,1,,,9028,WL,C,1.0
prac,,0,,Mon Oct 06 2025 16:10:22 GMT-0400 (Eastern Daylight Time),,NA,boo,I,o,86,1,,,9028,WL,C,1.0
prac,,0,,Mon Oct 06 2025 16:10:22 GMT-0400 (Eastern Daylight Time),,NA,boos,I,s,81,1,,,9028,WL,C,1.0
prac,,0,,Mon Oct 06 2025 16:10:22 GMT-0400 (Eastern Daylight Time),,NA,boost,I,t,216,1,,,9028,WL,C,1.0
prac,,0,,Mon Oct 06 2025 16:10:22 GMT-0400 (Eastern Daylight Time),,NA,boostenter,I,enter,1180,1,,,9028,WL,C,1.0
1,0.46700000762939453,learn,59532.999992370605,Mon Oct 06 2025 16:10:22 GMT-0400 (Eastern Daylight Time),121510.29999999888,A,t,I,t,447,1,466.09999999962747,121044.19999999925,9028,WL,C,1.0
1,0.6329998970031738,learn,59367.000102996826,Mon Oct 06 2025 16:10:22 GMT-0400 (Eastern Daylight Time),121676.09999999963,A,to,I,o,138,1,631.9000000003725,121044.19999999925,9028,WL,C,1.0
1,0.8670001029968262,learn,59132.999897003174,Mon Oct 06 2025 16:10:22 GMT-0400 (Eastern Daylight Time),121909.90000000037,A,tow,I,w,217,1,865.7000000011176,121044.19999999925,9028,WL,C,1.0
1,1.0999999046325684,learn,58900.00009536743,Mon Oct 06 2025 16:10:22 GMT-0400 (Eastern Daylight Time),122143.19999999925,A,towe,I,e,211,1,1099.0,121044.19999999925,9028,WL,C,1.0
1,1.3339998722076416,learn,58666.00012779236,Mon Oct 06 2025 16:10:22 GMT-0400 (Eastern Daylight Time),122376.59999999963,A,tower,I,r,210,1,1332.4000000003725,121044.19999999925,9028,WL,C,1.0
1,2.25,learn,57750.0,Mon Oct 06 2025 16:10:22 GMT-0400 (Eastern Daylight Time),123292.90000000037,A,towerenter,I,enter,894,1,2248.7000000011176,121044.19999999925,9028,WL,C,1.0
1,2.816999912261963,learn,57183.00008773804,Mon Oct 06 2025 16:10:22 GMT-0400 (Eastern Daylight Time),123859.90000000037,A,q,I,q,553,1,566.6000000014901,123293.29999999888,9028,WL,C,2.0
1,3.066999912261963,learn,56933.00008773804,Mon Oct 06 2025 16:10:22 GMT-0400 (Eastern Daylight Time),124110.0,A,qu,I,u,229,1,816.7000000011176,123293.29999999888,9028,WL,C,2.0
1,3.384000062942505,learn,56615.999937057495,Mon Oct 06 2025 16:10:22 GMT-0400 (Eastern Daylight Time),124426.5,A,que,I,e,292,1,1133.2000000011176,123293.29999999888,9028,WL,C,2.0
1,3.5169999599456787,learn,56483.00004005432,Mon Oct 06 2025 16:10:22 GMT-0400 (Eastern Daylight Time),124559.79999999888,A,quee,I,e,119,1,1266.5,123293.29999999888,9028,WL,C,2.0
1,4.150000095367432,learn,55849.99990463257,Mon Oct 06 2025 16:10:22 GMT-0400 (Eastern Daylight Time),125193.29999999888,A,queen,I,n,609,1,1900.0,123293.29999999888,9028,WL,C,2.0
1,4.7829999923706055,learn,55217.000007629395,Mon Oct 06 2025 16:10:22 GMT-0400 (Eastern Daylight Time),125826.09999999963,A,queenenter,I,enter,617,1,2532.800000000745,123293.29999999888,9028,WL,C,2.0
1,5.316999912261963,learn,54683.00008773804,Mon Oct 06 2025 16:10:22 GMT-0400 (Eastern Daylight Time),126359.79999999888,A,w,I,w,516,1,533.1999999992549,125826.59999999963,9028,WL,C,3.0
1,5.816999912261963,learn,54183.00008773804,Mon Oct 06 2025 16:10:22 GMT-0400 (Eastern Daylight Time),126859.90000000037,A,wh,I,h,473,1,1033.300000000745,125826.59999999963,9028,WL,C,3.0
1,5.934000015258789,learn,54065.99998474121,Mon Oct 06 2025 16:10:22 GMT-0400 (Eastern Daylight Time),126976.5,A,whe,I,e,104,1,1149.9000000003725,125826.59999999963,9028,WL,C,3.0
1,6.150000095367432,learn,53849.99990463257,Mon Oct 06 2025 16:10:22 GMT-0400 (Eastern Daylight Time),127193.09999999963,A,whea,I,a,184,1,1366.5,125826.59999999963,9028,WL,C,3.0
1,6.41700005531311,learn,53582.99994468689,Mon Oct 06 2025 16:10:22 GMT-0400 (Eastern Daylight Time),127459.90000000037,A,wheat,I,t,249,1,1633.300000000745,125826.59999999963,9028,WL,C,3.0
1,7.382999897003174,learn,52617.000102996826,Mon Oct 06 2025 16:10:22 GMT-0400 (Eastern Daylight Time),128426.09999999963,A,wheatenter,I,enter,943,1,2599.5,125826.59999999963,9028,WL,C,3.0
1,8.266999959945679,learn,51733.00004005432,Mon Oct 06 2025 16:10:22 GMT-0400 (Eastern Daylight Time),129309.90000000037,A,c,I,c,876,1,883.5,128426.40000000037,9028,WL,C,4.0
1,8.533999919891357,learn,51466.00008010864,Mon Oct 06 2025 16:10:22 GMT-0400 (Eastern Daylight Time),129576.59999999963,A,co,I,o,245,1,1150.199999999255,128426.40000000037,9028,WL,C,4.0
1,9.117000102996826,learn,50882.999897003174,Mon Oct 06 2025 16:10:22 GMT-0400 (Eastern Daylight Time),130159.79999999888,A,cor,I,r,569,1,1733.3999999985099,128426.40000000037,9028,WL,C,4.0
1,9.66700005531311,learn,50332.99994468689,Mon Oct 06 2025 16:10:22 GMT-0400 (Eastern Daylight Time),130709.90000000037,A,corn,I,n,531,1,2283.5,128426.40000000037,9028,WL,C,4.0
1,10.617000102996826,learn,49382.999897003174,Mon Oct 06 2025 16:10:22 GMT-0400 (Eastern Daylight Time),131659.5,A,cornenter,I,enter,924,1,3233.0999999996275,128426.40000000037,9028,WL,C,4.0
1,11.533999919891357,learn,48466.00008010864,Mon Oct 06 2025 16:10:22 GMT-0400 (Eastern Daylight Time),132576.59999999963,A,b,I,b,906,1,916.6999999992549,131659.90000000037,9028,WL,C,5.0
1,12.049999952316284,learn,47950.000047683716,Mon Oct 06 2025 16:10:22 GMT-0400 (Eastern Daylight Time),133093.19999999925,A,bo,I,o,496,1,1433.2999999988824,131659.90000000037,9028,WL,C,5.0
1,12.66700005531311,learn,47332.99994468689,Mon Oct 06 2025 16:10:22 GMT-0400 (Eastern Daylight Time),133709.90000000037,A,boy,I,y,605,1,2050.0,131659.90000000037,9028,WL,C,5.0
1,13.483000040054321,learn,46516.99995994568,Mon Oct 06 2025 16:10:22 GMT-0400 (Eastern Daylight Time),134526.0,A,boyenter,I,enter,805,1,2866.0999999996275,131659.90000000037,9028,WL,C,5.0
1,18.733999967575073,learn,41266.00003242493,Mon Oct 06 2025 16:10:22 GMT-0400 (Eastern Daylight Time),139776.5,A,f,I,f,5240,1,5250.0999999996275,134526.40000000037,9028,WL,C,6.0
1,18.93400001525879,learn,41065.99998474121,Mon Oct 06 2025 16:10:22 GMT-0400 (Eastern Daylight Time),139976.5,A,fl,I,l,178,1,5450.0999999996275,134526.40000000037,9028,WL,C,6.0
1,19.5,learn,40500.0,Mon Oct 06 2025 16:10:22 GMT-0400 (Eastern Daylight Time),140543.0,A,fla,I,a,544,1,6016.5999999996275,134526.40000000037,9028,WL,C,6.0
1,19.983999967575073,learn,40016.00003242493,Mon Oct 06 2025 16:10:22 GMT-0400 (Eastern Daylight Time),141026.59999999963,A,flag,I,g,467,1,6500.199999999255,134526.40000000037,9028,WL,C,6.0
1,20.5,learn,39500.0,Mon Oct 06 2025 16:10:22 GMT-0400 (Eastern Daylight Time),141542.69999999925,A,flagenter,I,enter,496,1,7016.299999998882,134526.40000000037,9028,WL,C,6.0
1,20.783999919891357,learn,39216.00008010864,Mon Oct 06 2025 16:10:22 GMT-0400 (Eastern Daylight Time),141826.5,A,c,I,c,272,1,283.30000000074506,141543.19999999925,9028,WL,C,7.0
1,20.950000047683716,learn,39049.999952316284,Mon Oct 06 2025 16:10:22 GMT-0400 (Eastern Daylight Time),141993.09999999963,A,ca,I,a,144,1,449.90000000037253,141543.19999999925,9028,WL,C,7.0
1,21.799999952316284,learn,38200.000047683716,Mon Oct 06 2025 16:10:22 GMT-0400 (Eastern Daylight Time),142843.29999999888,A,cam,I,m,824,1,1300.0999999996275,141543.19999999925,9028,WL,C,7.0
1,22.26699995994568,learn,37733.00004005432,Mon Oct 06 2025 16:10:22 GMT-0400 (Eastern Daylight Time),143310.0,A,camp,I,p,455,1,1766.800000000745,141543.19999999925,9028,WL,C,7.0
1,22.933000087738037,learn,37066.99991226196,Mon Oct 06 2025 16:10:22 GMT-0400 (Eastern Daylight Time),143976.0,A,campenter,I,enter,646,1,2432.800000000745,141543.19999999925,9028,WL,C,7.0
1,32.83399987220764,learn,27166.00012779236,Mon Oct 06 2025 16:10:22 GMT-0400 (Eastern Daylight Time),153876.59999999963,A,s,I,s,9887,1,9900.199999999255,143976.40000000037,9028,WL,C,8.0
1,33.03399991989136,learn,26966.000080108643,Mon Oct 06 2025 16:10:22 GMT-0400 (Eastern Daylight Time),154076.5,A,sh,I,h,175,1,10100.099999999627,143976.40000000037,9028,WL,C,8.0
1,33.25,learn,26750.0,Mon Oct 06 2025 16:10:22 GMT-0400 (Eastern Daylight Time),154293.19999999925,A,sho,I,o,198,1,10316.799999998882,143976.40000000037,9028,WL,C,8.0
1,33.5,learn,26500.0,Mon Oct 06 2025 16:10:22 GMT-0400 (Eastern Daylight Time),154543.09999999963,A,shor,I,r,238,1,10566.699999999255,143976.40000000037,9028,WL,C,8.0
1,33.634000062942505,learn,26365.999937057495,Mon Oct 06 2025 16:10:22 GMT-0400 (Eastern Daylight Time),154676.59999999963,A,shore,I,e,116,1,10700.199999999255,143976.40000000037,9028,WL,C,8.0
1,33.950000047683716,learn,26049.999952316284,Mon Oct 06 2025 16:10:22 GMT-0400 (Eastern Daylight Time),154992.69999999925,A,shoreenter,I,enter,302,1,11016.299999998882,143976.40000000037,9028,WL,C,8.0
1,44.66700005531311,learn,15332.99994468689,Mon Oct 06 2025 16:10:22 GMT-0400 (Eastern Daylight Time),165709.79999999888,A,c,I,c,10695,1,10716.699999999255,154993.09999999963,9028,WL,C,9.0
1,45.06699991226196,learn,14933.000087738037,Mon Oct 06 2025 16:10:22 GMT-0400 (Eastern Daylight Time),166109.5,A,cm,I,m,374,1,11116.400000000373,154993.09999999963,9028,WL,C,9.0
1,45.367000102996826,learn,14632.999897003174,Mon Oct 06 2025 16:10:22 GMT-0400 (Eastern Daylight Time),166409.90000000037,A,cmp,I,p,280,1,11416.800000000745,154993.09999999963,9028,WL,C,9.0
1,46.59999990463257,learn,13400.000095367432,Mon Oct 06 2025 16:10:22 GMT-0400 (Eastern Daylight Time),167643.09999999963,A,cm,I,backspace,1210,1,12650.0,154993.09999999963,9028,WL,C,9.0
1,46.76699995994568,learn,13233.000040054321,Mon Oct 06 2025 16:10:22 GMT-0400 (Eastern Daylight Time),167809.79999999888,A,c,I,backspace,151,1,12816.699999999255,154993.09999999963,9028,WL,C,9.0
1,46.967000007629395,learn,13032.999992370605,Mon Oct 06 2025 16:10:22 GMT-0400 (Eastern Daylight Time),168009.79999999888,A,ca,I,a,170,1,13016.699999999255,154993.09999999963,9028,WL,C,9.0
1,47.717000007629395,learn,12282.999992370605,Mon Oct 06 2025 16:10:22 GMT-0400 (Eastern Daylight Time),168759.79999999888,A,cam,I,m,727,1,13766.699999999255,154993.09999999963,9028,WL,C,9.0
1,49.08299994468689,learn,10917.00005531311,Mon Oct 06 2025 16:10:22 GMT-0400 (Eastern Daylight Time),170125.90000000037,A,camp,I,p,1354,1,15132.800000000745,154993.09999999963,9028,WL,C,9.0
1,49.66700005531311,learn,10332.99994468689,Mon Oct 06 2025 16:10:22 GMT-0400 (Eastern Daylight Time),170709.29999999888,A,campenter,I,enter,569,1,15716.199999999255,154993.09999999963,9028,WL,C,9.0
1,57.967000007629395,learn,2032.9999923706055,Mon Oct 06 2025 16:10:22 GMT-0400 (Eastern Daylight Time),179009.90000000037,A,n,I,n,8291,1,8300.200000001118,170709.69999999925,9028,WL,C,10.0
1,58.5,learn,1500.0,Mon Oct 06 2025 16:10:22 GMT-0400 (Eastern Daylight Time),179542.99999999814,A,na,I,a,510,1,8833.299999998882,170709.69999999925,9028,WL,C,10.0
1,58.73399996757507,learn,1266.0000324249268,Mon Oct 06 2025 16:10:22 GMT-0400 (Eastern Daylight Time),179776.49999999814,A,nai,I,i,220,1,9066.799999998882,170709.69999999925,9028,WL,C,10.0
1,59.0,learn,1000.0,Mon Oct 06 2025 16:10:22 GMT-0400 (Eastern Daylight Time),180043.20000000112,A,nail,I,l,243,1,9333.500000001863,170709.69999999925,9028,WL,C,10.0
1,59.382999897003174,learn,617.0001029968262,Mon Oct 06 2025 16:10:22 GMT-0400 (Eastern Daylight Time),180425.90000000037,A,nailenter,I,enter,357,1,9716.200000001118,170709.69999999925,9028,WL,C,10.0
1,60.01699995994568,learn,-16.99995994567871,Mon Oct 06 2025 16:10:22 GMT-0400 (Eastern Daylight Time),181059.99999999814,A,None,I,None,627,1,633.6999999992549,180426.29999999888,9028,WL,C,11.0
2,0.5,learn,59500.0,Mon Oct 06 2025 16:10:22 GMT-0400 (Eastern Daylight Time),256859.79999999888,A,s,I,s,476,1,499.80000000074506,256359.99999999814,9028,WL,C,1.0
2,0.7170000076293945,learn,59282.999992370605,Mon Oct 06 2025 16:10:22 GMT-0400 (Eastern Daylight Time),257076.29999999888,A,su,I,u,200,1,716.3000000007451,256359.99999999814,9028,WL,C,1.0
2,1.067000150680542,learn,58932.99984931946,Mon Oct 06 2025 16:10:22 GMT-0400 (Eastern Daylight Time),257426.40000000037,A,sug,I,g,327,1,1066.4000000022352,256359.99999999814,9028,WL,C,1.0
2,1.3000001907348633,learn,58699.99980926514,Mon Oct 06 2025 16:10:22 GMT-0400 (Eastern Daylight Time),257659.70000000112,A,suga,I,a,208,1,1299.7000000029802,256359.99999999814,9028,WL,C,1.0
2,1.7170000076293945,learn,58282.999992370605,Mon Oct 06 2025 16:10:22 GMT-0400 (Eastern Daylight Time),258076.59999999963,A,sugar,I,r,392,1,1716.6000000014901,256359.99999999814,9028,WL,C,1.0
2,2.3330001831054688,learn,57666.99981689453,Mon Oct 06 2025 16:10:22 GMT-0400 (Eastern Daylight Time),258692.59999999963,A,sugarenter,I,enter,595,1,2332.60000000149,256359.99999999814,9028,WL,C,1.0
2,2.817000150680542,learn,57182.99984931946,Mon Oct 06 2025 16:10:22 GMT-0400 (Eastern Daylight Time),259176.49999999814,A,d,I,d,467,1,483.5999999977648,258692.90000000037,9028,WL,C,2.0
2,3.0329999923706055,learn,56967.000007629395,Mon Oct 06 2025 16:10:22 GMT-0400 (Eastern Daylight Time),259392.99999999814,A,do,I,o,202,1,700.0999999977648,258692.90000000037,9028,WL,C,2.0
2,3.1500000953674316,learn,56849.99990463257,Mon Oct 06 2025 16:10:22 GMT-0400 (Eastern Daylight Time),259509.70000000112,A,doc,I,c,89,1,816.8000000007451,258692.90000000037,9028,WL,C,2.0
2,3.4830000400543213,learn,56516.99995994568,Mon Oct 06 2025 16:10:22 GMT-0400 (Eastern Daylight Time),259842.99999999814,A,doct,I,t,318,1,1150.0999999977648,258692.90000000037,9028,WL,C,2.0
2,3.633000135421753,learn,56366.99986457825,Mon Oct 06 2025 16:10:22 GMT-0400 (Eastern Daylight Time),259992.99999999814,A,docto,I,o,128,1,1300.0999999977648,258692.90000000037,9028,WL,C,2.0
2,3.8330001831054688,learn,56166.99981689453,Mon Oct 06 2025 16:10:22 GMT-0400 (Eastern Daylight Time),260192.99999999814,A,doctor,I,r,187,1,1500.0999999977648,258692.90000000037,9028,WL,C,2.0
2,4.683000087738037,learn,55316.99991226196,Mon Oct 06 2025 16:10:22 GMT-0400 (Eastern Daylight Time),261042.70000000112,A,doctorenter,I,enter,832,1,2349.800000000745,258692.90000000037,9028,WL,C,2.0
2,5.016999959945679,learn,54983.00004005432,Mon Oct 06 2025 16:10:22 GMT-0400 (Eastern Daylight Time),261376.40000000037,A,c,I,c,324,1,333.19999999925494,261043.20000000112,9028,WL,C,3.0
2,5.16700005531311,learn,54832.99994468689,Mon Oct 06 2025 16:10:22 GMT-0400 (Eastern Daylight Time),261526.40000000037,A,ca,I,a,131,1,483.19999999925494,261043.20000000112,9028,WL,C,3.0
2,5.5,learn,54500.0,Mon Oct 06 2025 16:10:22 GMT-0400 (Eastern Daylight Time),261859.70000000112,A,cat,I,t,316,1,816.5,261043.20000000112,9028,WL,C,3.0
2,5.650000095367432,learn,54349.99990463257,Mon Oct 06 2025 16:10:22 GMT-0400 (Eastern Daylight Time),262009.90000000037,A,catt,I,t,127,1,966.6999999992549,261043.20000000112,9028,WL,C,3.0
2,5.75,learn,54250.0,Mon Oct 06 2025 16:10:22 GMT-0400 (Eastern Daylight Time),262109.79999999888,A,cattl,I,l,80,1,1066.5999999977648,261043.20000000112,9028,WL,C,3.0
2,5.9670000076293945,learn,54032.999992370605,Mon Oct 06 2025 16:10:22 GMT-0400 (Eastern Daylight Time),262326.4000000004,A,cattle,I,e,190,1,1283.199999999255,261043.20000000112,9028,WL,C,3.0
2,6.333000183105469,learn,53666.99981689453,Mon Oct 06 2025 16:10:22 GMT-0400 (Eastern Daylight Time),262692.5999999996,A,cattleenter,I,enter,347,1,1649.3999999985099,261043.20000000112,9028,WL,C,3.0
2,6.550000190734863,learn,53449.99980926514,Mon Oct 06 2025 16:10:22 GMT-0400 (Eastern Daylight Time),262909.9000000004,A,c,I,c,210,1,216.90000000223517,262692.99999999814,9028,WL,C,4.0
2,6.7170000076293945,learn,53282.999992370605,Mon Oct 06 2025 16:10:22 GMT-0400 (Eastern Daylight Time),263076.4000000004,A,ca,I,a,148,1,383.4000000022352,262692.99999999814,9028,WL,C,4.0
2,7.016999959945679,learn,52983.00004005432,Mon Oct 06 2025 16:10:22 GMT-0400 (Eastern Daylight Time),263376.2999999989,A,cam,I,m,288,1,683.3000000007451,262692.99999999814,9028,WL,C,4.0
2,7.41700005531311,learn,52582.99994468689,Mon Oct 06 2025 16:10:22 GMT-0400 (Eastern Daylight Time),263776.2999999989,A,camp,I,p,387,1,1083.300000000745,262692.99999999814,9028,WL,C,4.0
2,8.133000135421753,learn,51866.99986457825,Mon Oct 06 2025 16:10:22 GMT-0400 (Eastern Daylight Time),264492.7999999989,A,campenter,I,enter,708,1,1799.800000000745,262692.99999999814,9028,WL,C,4.0
2,9.233000040054321,learn,50766.99995994568,Mon Oct 06 2025 16:10:22 GMT-0400 (Eastern Daylight Time),265593.0999999996,A,t,I,t,1082,1,1099.8999999985099,264493.2000000011,9028,WL,C,5.0
2,9.516000032424927,learn,50483.99996757507,Mon Oct 06 2025 16:10:22 GMT-0400 (Eastern Daylight Time),265876.2999999989,A,to,I,o,267,1,1383.0999999977648,264493.2000000011,9028,WL,C,5.0
2,9.700000047683716,learn,50299.999952316284,Mon Oct 06 2025 16:10:22 GMT-0400 (Eastern Daylight Time),266059.7999999989,A,tow,I,w,158,1,1566.5999999977648,264493.2000000011,9028,WL,C,5.0
2,9.967000007629395,learn,50032.999992370605,Mon Oct 06 2025 16:10:22 GMT-0400 (Eastern Daylight Time),266326.49999999814,A,towe,I,e,248,1,1833.2999999970198,264493.2000000011,9028,WL,C,5.0
2,10.166000127792358,learn,49833.99987220764,Mon Oct 06 2025 16:10:22 GMT-0400 (Eastern Daylight Time),266525.99999999814,A,tower,I,r,179,1,2032.7999999970198,264493.2000000011,9028,WL,C,5.0
2,10.666000127792358,learn,49333.99987220764,Mon Oct 06 2025 16:10:22 GMT-0400 (Eastern Daylight Time),267025.9000000004,A,towerenter,I,enter,484,1,2532.699999999255,264493.2000000011,9028,WL,C,5.0
2,11.16700005531311,learn,48832.99994468689,Mon Oct 06 2025 16:10:22 GMT-0400 (Eastern Daylight Time),267526.4000000004,A,q,I,q,484,1,500.1000000014901,267026.2999999989,9028,WL,C,6.0
2,11.450000047683716,learn,48549.999952316284,Mon Oct 06 2025 16:10:22 GMT-0400 (Eastern Daylight Time),267809.7000000011,A,qu,I,u,267,1,783.4000000022352,267026.2999999989,9028,WL,C,6.0
2,11.75,learn,48250.0,Mon Oct 06 2025 16:10:22 GMT-0400 (Eastern Daylight Time),268109.7999999989,A,que,I,e,275,1,1083.5,267026.2999999989,9028,WL,C,6.0
2,11.900000095367432,learn,48099.99990463257,Mon Oct 06 2025 16:10:22 GMT-0400 (Eastern Daylight Time),268259.4000000004,A,quee,I,e,133,1,1233.1000000014901,267026.2999999989,9028,WL,C,6.0
2,12.117000102996826,learn,47882.999897003174,Mon Oct 06 2025 16:10:22 GMT-0400 (Eastern Daylight Time),268476.4000000004,A,queen,I,n,194,1,1450.1000000014901,267026.2999999989,9028,WL,C,6.0
2,13.89900016784668,learn,46100.99983215332,Mon Oct 06 2025 16:10:22 GMT-0400 (Eastern Daylight Time),270259.2000000011,A,queenenter,I,enter,1766,1,3232.900000002235,267026.2999999989,9028,WL,C,6.0
2,14.782999992370605,learn,45217.000007629395,Mon Oct 06 2025 16:10:22 GMT-0400 (Eastern Daylight Time),271142.99999999814,A,n,I,n,867,1,883.2999999970198,270259.7000000011,9028,WL,C,7.0
2,14.950000047683716,learn,45049.999952316284,Mon Oct 06 2025 16:10:22 GMT-0400 (Eastern Daylight Time),271309.7000000011,A,na,I,a,155,1,1050.0,270259.7000000011,9028,WL,C,7.0
2,15.116000175476074,learn,44883.999824523926,Mon Oct 06 2025 16:10:22 GMT-0400 (Eastern Daylight Time),271476.2000000011,A,nai,I,i,142,1,1216.5,270259.7000000011,9028,WL,C,7.0
2,15.567000150680542,learn,44432.99984931946,Mon Oct 06 2025 16:10:22 GMT-0400 (Eastern Daylight Time),271926.4000000004,A,nail,I,l,424,1,1666.699999999255,270259.7000000011,9028,WL,C,7.0
2,16.616000175476074,learn,43383.999824523926,Mon Oct 06 2025 16:10:22 GMT-0400 (Eastern Daylight Time),272975.7999999989,A,nailenter,I,enter,1034,1,2716.099999997765,270259.7000000011,9028,WL,C,7.0
2,17.050000190734863,learn,42949.99980926514,Mon Oct 06 2025 16:10:22 GMT-0400 (Eastern Daylight Time),273409.7000000011,A,f,I,f,423,1,433.5,272976.2000000011,9028,WL,C,8.0
2,17.282999992370605,learn,42717.000007629395,Mon Oct 06 2025 16:10:22 GMT-0400 (Eastern Daylight Time),273642.99999999814,A,fl,I,l,209,1,666.7999999970198,272976.2000000011,9028,WL,C,8.0
2,17.467000007629395,learn,42532.999992370605,Mon Oct 06 2025 16:10:22 GMT-0400 (Eastern Daylight Time),273826.4000000004,A,fla,I,a,168,1,850.1999999992549,272976.2000000011,9028,WL,C,8.0
2,17.817000150680542,learn,42182.99984931946,Mon Oct 06 2025 16:10:22 GMT-0400 (Eastern Daylight Time),274176.2999999989,A,flag,I,g,330,1,1200.0999999977648,272976.2000000011,9028,WL,C,8.0
2,18.633000135421753,learn,41366.99986457825,Mon Oct 06 2025 16:10:22 GMT-0400 (Eastern Daylight Time),274992.5999999996,A,flagenter,I,enter,802,1,2016.3999999985099,272976.2000000011,9028,WL,C,8.0
2,25.467000007629395,learn,34532.999992370605,Mon Oct 06 2025 16:10:22 GMT-0400 (Eastern Daylight Time),281826.4000000004,A,w,I,w,6822,1,6833.400000002235,274992.99999999814,9028,WL,C,9.0
2,25.700000047683716,learn,34299.999952316284,Mon Oct 06 2025 16:10:22 GMT-0400 (Eastern Daylight Time),282059.7000000011,A,wh,I,h,209,1,7066.70000000298,274992.99999999814,9028,WL,C,9.0
2,25.883000135421753,learn,34116.99986457825,Mon Oct 06 2025 16:10:22 GMT-0400 (Eastern Daylight Time),282243.0999999996,A,whe,I,e,166,1,7250.10000000149,274992.99999999814,9028,WL,C,9.0
2,26.350000143051147,learn,33649.99985694885,Mon Oct 06 2025 16:10:22 GMT-0400 (Eastern Daylight Time),282709.7000000011,A,whea,I,a,448,1,7716.70000000298,274992.99999999814,9028,WL,C,9.0
2,26.58300018310547,learn,33416.99981689453,Mon Oct 06 2025 16:10:22 GMT-0400 (Eastern Daylight Time),282942.9000000004,A,wheat,I,t,221,1,7949.900000002235,274992.99999999814,9028,WL,C,9.0
2,27.14900016784668,learn,32850.99983215332,Mon Oct 06 2025 16:10:22 GMT-0400 (Eastern Daylight Time),283509.2000000011,A,wheatenter,I,enter,547,1,8516.20000000298,274992.99999999814,9028,WL,C,9.0
2,27.40000009536743,learn,32599.99990463257,Mon Oct 06 2025 16:10:22 GMT-0400 (Eastern Daylight Time),283759.5999999996,A,c,I,c,241,1,250.0,283509.5999999996,9028,WL,C,10.0
2,27.75,learn,32250.0,Mon Oct 06 2025 16:10:22 GMT-0400 (Eastern Daylight Time),284109.7000000011,A,co,I,o,325,1,600.1000000014901,283509.5999999996,9028,WL,C,10.0
2,27.967000007629395,learn,32032.999992370605,Mon Oct 06 2025 16:10:22 GMT-0400 (Eastern Daylight Time),284326.2999999989,A,cor,I,r,197,1,816.6999999992549,283509.5999999996,9028,WL,C,10.0
2,28.282999992370605,learn,31717.000007629395,Mon Oct 06 2025 16:10:22 GMT-0400 (Eastern Daylight Time),284642.99999999814,A,corn,I,n,301,1,1133.3999999985099,283509.5999999996,9028,WL,C,10.0
2,28.848999977111816,learn,31151.000022888184,Mon Oct 06 2025 16:10:22 GMT-0400 (Eastern Daylight Time),285209.2999999989,A,cornenter,I,enter,544,1,1699.699999999255,283509.5999999996,9028,WL,C,10.0
2,30.58300018310547,learn,29416.99981689453,Mon Oct 06 2025 16:10:22 GMT-0400 (Eastern Daylight Time),286942.7999999989,A,s,I,s,1725,1,1733.199999999255,285209.5999999996,9028,WL,C,11.0
2,32.06700015068054,learn,27932.999849319458,Mon Oct 06 2025 16:10:22 GMT-0400 (Eastern Daylight Time),288426.99999999814,A,,I,backspace,1460,1,3217.39999999851,285209.5999999996,9028,WL,C,11.0
2,34.58300018310547,learn,25416.99981689453,Mon Oct 06 2025 16:10:22 GMT-0400 (Eastern Daylight Time),290942.7999999989,A,b,I,b,2508,1,5733.199999999255,285209.5999999996,9028,WL,C,11.0
2,34.96600008010864,learn,25033.999919891357,Mon Oct 06 2025 16:10:22 GMT-0400 (Eastern Daylight Time),291325.99999999814,A,bo,I,o,373,1,6116.39999999851,285209.5999999996,9028,WL,C,11.0
2,35.30000019073486,learn,24699.999809265137,Mon Oct 06 2025 16:10:22 GMT-0400 (Eastern Daylight Time),291659.7999999989,A,boy,I,y,309,1,6450.199999999255,285209.5999999996,9028,WL,C,11.0
2,35.782999992370605,learn,24217.000007629395,Mon Oct 06 2025 16:10:22 GMT-0400 (Eastern Daylight Time),292142.4000000004,A,boyenter,I,enter,469,1,6932.800000000745,285209.5999999996,9028,WL,C,11.0
2,43.60000014305115,learn,16399.999856948853,Mon Oct 06 2025 16:10:22 GMT-0400 (Eastern Daylight Time),299959.7999999989,A,t,I,t,7800,1,7817.0,292142.7999999989,9028,WL,C,12.0
2,43.85000014305115,learn,16149.999856948853,Mon Oct 06 2025 16:10:22 GMT-0400 (Eastern Daylight Time),300209.7000000011,A,to,I,o,235,1,8066.900000002235,292142.7999999989,9028,WL,C,12.0
2,44.01699995994568,learn,15983.000040054321,Mon Oct 06 2025 16:10:22 GMT-0400 (Eastern Daylight Time),300376.2999999989,A,tow,I,w,145,1,8233.5,292142.7999999989,9028,WL,C,12.0
2,44.21600008010864,learn,15783.999919891357,Mon Oct 06 2025 16:10:22 GMT-0400 (Eastern Daylight Time),300575.7999999989,A,towe,I,e,187,1,8433.0,292142.7999999989,9028,WL,C,12.0
2,44.43300008773804,learn,15566.999912261963,Mon Oct 06 2025 16:10:22 GMT-0400 (Eastern Daylight Time),300792.9000000004,A,tower,I,r,198,1,8650.10000000149,292142.7999999989,9028,WL,C,12.0
2,44.73300004005432,learn,15266.999959945679,Mon Oct 06 2025 16:10:22 GMT-0400 (Eastern Daylight Time),301092.49999999814,A,towerenter,I,enter,282,1,8949.699999999255,292142.7999999989,9028,WL,C,12.0
2,49.950000047683716,learn,10049.999952316284,Mon Oct 06 2025 16:10:22 GMT-0400 (Eastern Daylight Time),306309.7000000011,A,g,I,g,5202,1,5216.900000002235,301092.7999999989,9028,WL,C,13.0
2,50.117000102996826,learn,9882.999897003174,Mon Oct 06 2025 16:10:22 GMT-0400 (Eastern Daylight Time),306476.4000000004,A,go,I,o,142,1,5383.60000000149,301092.7999999989,9028,WL,C,13.0
2,50.33300018310547,learn,9666.999816894531,Mon Oct 06 2025 16:10:22 GMT-0400 (Eastern Daylight Time),306692.9000000004,A,gol,I,l,197,1,5600.10000000149,301092.7999999989,9028,WL,C,13.0
2,50.58300018310547,learn,9416.999816894531,Mon Oct 06 2025 16:10:22 GMT-0400 (Eastern Daylight Time),306942.7999999989,A,gold,I,d,238,1,5850.0,301092.7999999989,9028,WL,C,13.0
2,50.81599998474121,learn,9184.000015258789,Mon Oct 06 2025 16:10:22 GMT-0400 (Eastern Daylight Time),307175.7999999989,A,goldenter,I,enter,212,1,6083.0,301092.7999999989,9028,WL,C,13.0
2,60.01699995994568,learn,-16.99995994567871,Mon Oct 06 2025 16:10:22 GMT-0400 (Eastern Daylight Time),316376.49999999814,A,None,I,None,9194,1,9200.39999999851,307176.0999999996,9028,WL,C,14.0
3,0.432999849319458,learn,59567.00015068054,Mon Oct 06 2025 16:10:22 GMT-0400 (Eastern Daylight Time),388875.7999999989,A,s,I,s,410,1,432.3999999985099,388443.4000000004,9028,WL,C,1.0
3,0.6999998092651367,learn,59300.00019073486,Mon Oct 06 2025 16:10:22 GMT-0400 (Eastern Daylight Time),389142.9000000004,A,sh,I,h,251,1,699.5,388443.4000000004,9028,WL,C,1.0
3,0.9499998092651367,learn,59050.00019073486,Mon Oct 06 2025 16:10:22 GMT-0400 (Eastern Daylight Time),389392.7999999989,A,sho,I,o,236,1,949.3999999985099,388443.4000000004,9028,WL,C,1.0
3,1.25,learn,58750.0,Mon Oct 06 2025 16:10:22 GMT-0400 (Eastern Daylight Time),389692.99999999814,A,shor,I,r,275,1,1249.5999999977648,388443.4000000004,9028,WL,C,1.0
3,1.3839998245239258,learn,58616.000175476074,Mon Oct 06 2025 16:10:22 GMT-0400 (Eastern Daylight Time),389827.2000000011,A,shore,I,e,119,1,1383.800000000745,388443.4000000004,9028,WL,C,1.0
3,2.799999952316284,learn,57200.000047683716,Mon Oct 06 2025 16:10:22 GMT-0400 (Eastern Daylight Time),391242.4000000004,A,shoreenter,I,enter,1385,1,2799.0,388443.4000000004,9028,WL,C,1.0
3,3.1999998092651367,learn,56800.00019073486,Mon Oct 06 2025 16:10:22 GMT-0400 (Eastern Daylight Time),391642.9000000004,A,c,I,c,380,1,400.19999999925494,391242.7000000011,9028,WL,C,2.0
3,3.299999952316284,learn,56700.000047683716,Mon Oct 06 2025 16:10:22 GMT-0400 (Eastern Daylight Time),391742.7999999989,A,ca,I,a,85,1,500.0999999977648,391242.7000000011,9028,WL,C,2.0
3,3.6669998168945312,learn,56333.00018310547,Mon Oct 06 2025 16:10:22 GMT-0400 (Eastern Daylight Time),392109.2999999989,A,cat,I,t,342,1,866.5999999977648,391242.7000000011,9028,WL,C,2.0
3,3.799999952316284,learn,56200.000047683716,Mon Oct 06 2025 16:10:22 GMT-0400 (Eastern Daylight Time),392242.7999999989,A,catt,I,t,119,1,1000.0999999977648,391242.7000000011,9028,WL,C,2.0
3,4.0329999923706055,learn,55967.000007629395,Mon Oct 06 2025 16:10:22 GMT-0400 (Eastern Daylight Time),392476.2999999989,A,cattl,I,l,206,1,1233.5999999977648,391242.7000000011,9028,WL,C,2.0
3,4.25,learn,55750.0,Mon Oct 06 2025 16:10:22 GMT-0400 (Eastern Daylight Time),392692.7999999989,A,cattle,I,e,200,1,1450.0999999977648,391242.7000000011,9028,WL,C,2.0
3,5.199999809265137,learn,54800.00019073486,Mon Oct 06 2025 16:10:22 GMT-0400 (Eastern Daylight Time),393642.4000000004,A,cattleenter,I,enter,923,1,2399.699999999255,391242.7000000011,9028,WL,C,2.0
3,5.866999864578247,learn,54133.00013542175,Mon Oct 06 2025 16:10:22 GMT-0400 (Eastern Daylight Time),394309.5999999996,A,d,I,d,652,1,666.8000000007451,393642.7999999989,9028,WL,C,3.0
3,6.1499998569488525,learn,53850.00014305115,Mon Oct 06 2025 16:10:22 GMT-0400 (Eastern Daylight Time),394592.49999999814,A,do,I,o,269,1,949.6999999992549,393642.7999999989,9028,WL,C,3.0
3,6.2829999923706055,learn,53717.000007629395,Mon Oct 06 2025 16:10:22 GMT-0400 (Eastern Daylight Time),394726.2000000011,A,doc,I,c,117,1,1083.4000000022352,393642.7999999989,9028,WL,C,3.0
3,6.549999952316284,learn,53450.000047683716,Mon Oct 06 2025 16:10:22 GMT-0400 (Eastern Daylight Time),394992.99999999814,A,doct,I,t,253,1,1350.199999999255,393642.7999999989,9028,WL,C,3.0
3,6.7170000076293945,learn,53282.999992370605,Mon Oct 06 2025 16:10:22 GMT-0400 (Eastern Daylight Time),395159.5999999996,A,docto,I,o,146,1,1516.800000000745,393642.7999999989,9028,WL,C,3.0
3,6.982999801635742,learn,53017.00019836426,Mon Oct 06 2025 16:10:22 GMT-0400 (Eastern Daylight Time),395426.2999999989,A,doctor,I,r,252,1,1783.5,393642.7999999989,9028,WL,C,3.0
3,7.765999794006348,learn,52234.00020599365,Mon Oct 06 2025 16:10:22 GMT-0400 (Eastern Daylight Time),396209.2000000011,A,doctorenter,I,enter,768,1,2566.400000002235,393642.7999999989,9028,WL,C,3.0
3,8.349999904632568,learn,51650.00009536743,Mon Oct 06 2025 16:10:22 GMT-0400 (Eastern Daylight Time),396792.9000000004,A,w,I,w,566,1,583.4000000022352,396209.49999999814,9028,WL,C,4.0
3,8.632999897003174,learn,51367.000102996826,Mon Oct 06 2025 16:10:22 GMT-0400 (Eastern Daylight Time),397076.2000000011,A,wh,I,h,265,1,866.7000000029802,396209.49999999814,9028,WL,C,4.0
3,8.866999864578247,learn,51133.00013542175,Mon Oct 06 2025 16:10:22 GMT-0400 (Eastern Daylight Time),397309.49999999814,A,whe,I,e,208,1,1100.0,396209.49999999814,9028,WL,C,4.0
3,9.08299994468689,learn,50917.00005531311,Mon Oct 06 2025 16:10:22 GMT-0400 (Eastern Daylight Time),397526.2000000011,A,whea,I,a,197,1,1316.7000000029802,396209.49999999814,9028,WL,C,4.0
3,9.33299994468689,learn,50667.00005531311,Mon Oct 06 2025 16:10:22 GMT-0400 (Eastern Daylight Time),397776.2999999989,A,wheat,I,t,237,1,1566.800000000745,396209.49999999814,9028,WL,C,4.0
3,9.83299994468689,learn,50167.00005531311,Mon Oct 06 2025 16:10:22 GMT-0400 (Eastern Daylight Time),398275.7999999989,A,wheatenter,I,enter,480,1,2066.300000000745,396209.49999999814,9028,WL,C,4.0
3,10.116999864578247,learn,49883.00013542175,Mon Oct 06 2025 16:10:22 GMT-0400 (Eastern Daylight Time),398559.49999999814,A,c,I,c,275,1,283.3999999985099,398276.0999999996,9028,WL,C,5.0
3,10.382999897003174,learn,49617.000102996826,Mon Oct 06 2025 16:10:22 GMT-0400 (Eastern Daylight Time),398826.2999999989,A,co,I,o,243,1,550.1999999992549,398276.0999999996,9028,WL,C,5.0
3,10.649999856948853,learn,49350.00014305115,Mon Oct 06 2025 16:10:22 GMT-0400 (Eastern Daylight Time),399092.99999999814,A,cor,I,r,246,1,816.8999999985099,398276.0999999996,9028,WL,C,5.0
3,10.967000007629395,learn,49032.999992370605,Mon Oct 06 2025 16:10:22 GMT-0400 (Eastern Daylight Time),399409.49999999814,A,corn,I,n,302,1,1133.3999999985099,398276.0999999996,9028,WL,C,5.0
3,11.482999801635742,learn,48517.00019836426,Mon Oct 06 2025 16:10:22 GMT-0400 (Eastern Daylight Time),399925.7999999989,A,cornenter,I,enter,497,1,1649.699999999255,398276.0999999996,9028,WL,C,5.0
3,12.599999904632568,learn,47400.00009536743,Mon Oct 06 2025 16:10:22 GMT-0400 (Eastern Daylight Time),401042.9000000004,A,t,I,t,1104,1,1116.800000000745,399926.0999999996,9028,WL,C,6.0
3,12.967000007629395,learn,47032.999992370605,Mon Oct 06 2025 16:10:22 GMT-0400 (Eastern Daylight Time),401409.49999999814,A,to,I,o,349,1,1483.3999999985099,399926.0999999996,9028,WL,C,6.0
3,13.283999919891357,learn,46716.00008010864,Mon Oct 06 2025 16:10:22 GMT-0400 (Eastern Daylight Time),401727.0999999996,A,tow,I,w,305,1,1801.0,399926.0999999996,9028,WL,C,6.0
3,13.616999864578247,learn,46383.00013542175,Mon Oct 06 2025 16:10:22 GMT-0400 (Eastern Daylight Time),402059.5999999996,A,towe,I,e,309,1,2133.5,399926.0999999996,9028,WL,C,6.0
3,13.866999864578247,learn,46133.00013542175,Mon Oct 06 2025 16:10:22 GMT-0400 (Eastern Daylight Time),402309.5999999996,A,tower,I,r,231,1,2383.5,399926.0999999996,9028,WL,C,6.0
3,14.399999856948853,learn,45600.00014305115,Mon Oct 06 2025 16:10:22 GMT-0400 (Eastern Daylight Time),402842.4000000004,A,towerenter,I,enter,508,1,2916.300000000745,399926.0999999996,9028,WL,C,6.0
3,15.399999856948853,learn,44600.00014305115,Mon Oct 06 2025 16:10:22 GMT-0400 (Eastern Daylight Time),403842.9000000004,A,f,I,f,988,1,1000.1000000014901,402842.7999999989,9028,WL,C,7.0
3,15.632999897003174,learn,44367.000102996826,Mon Oct 06 2025 16:10:22 GMT-0400 (Eastern Daylight Time),404076.2000000011,A,fl,I,l,205,1,1233.4000000022352,402842.7999999989,9028,WL,C,7.0
3,16.282999992370605,learn,43717.000007629395,Mon Oct 06 2025 16:10:22 GMT-0400 (Eastern Daylight Time),404726.2000000011,A,fla,I,a,624,1,1883.4000000022352,402842.7999999989,9028,WL,C,7.0
3,17.16699981689453,learn,42833.00018310547,Mon Oct 06 2025 16:10:22 GMT-0400 (Eastern Daylight Time),405609.7000000011,A,flag,I,g,859,1,2766.900000002235,402842.7999999989,9028,WL,C,7.0
3,18.08299994468689,learn,41917.00005531311,Mon Oct 06 2025 16:10:22 GMT-0400 (Eastern Daylight Time),406525.5999999996,A,flagenter,I,enter,904,1,3682.800000000745,402842.7999999989,9028,WL,C,7.0
3,18.34999990463257,learn,41650.00009536743,Mon Oct 06 2025 16:10:22 GMT-0400 (Eastern Daylight Time),406792.7999999989,A,c,I,c,248,1,266.80000000074506,406525.99999999814,9028,WL,C,8.0
3,18.5,learn,41500.0,Mon Oct 06 2025 16:10:22 GMT-0400 (Eastern Daylight Time),406942.7999999989,A,ca,I,a,136,1,416.80000000074506,406525.99999999814,9028,WL,C,8.0
3,18.717000007629395,learn,41282.999992370605,Mon Oct 06 2025 16:10:22 GMT-0400 (Eastern Daylight Time),407159.5999999996,A,cam,I,m,195,1,633.6000000014901,406525.99999999814,9028,WL,C,8.0
3,18.982999801635742,learn,41017.00019836426,Mon Oct 06 2025 16:10:22 GMT-0400 (Eastern Daylight Time),407425.9000000004,A,camp,I,p,251,1,899.9000000022352,406525.99999999814,9028,WL,C,8.0
3,19.632999897003174,learn,40367.000102996826,Mon Oct 06 2025 16:10:22 GMT-0400 (Eastern Daylight Time),408075.7000000011,A,campenter,I,enter,625,1,1549.7000000029802,406525.99999999814,9028,WL,C,8.0
3,25.51699995994568,learn,34483.00004005432,Mon Oct 06 2025 16:10:22 GMT-0400 (Eastern Daylight Time),413959.5999999996,A,l,I,l,5867,1,5883.60000000149,408075.99999999814,9028,WL,C,9.0
3,25.899999856948853,learn,34100.00014305115,Mon Oct 06 2025 16:10:22 GMT-0400 (Eastern Daylight Time),414342.7999999989,A,le,I,e,361,1,6266.800000000745,408075.99999999814,9028,WL,C,9.0
3,26.182999849319458,learn,33817.00015068054,Mon Oct 06 2025 16:10:22 GMT-0400 (Eastern Daylight Time),414626.0999999996,A,let,I,t,269,1,6550.10000000149,408075.99999999814,9028,WL,C,9.0
3,26.33299994468689,learn,33667.00005531311,Mon Oct 06 2025 16:10:22 GMT-0400 (Eastern Daylight Time),414775.99999999814,A,lett,I,t,128,1,6700.0,408075.99999999814,9028,WL,C,9.0
3,26.467000007629395,learn,33532.999992370605,Mon Oct 06 2025 16:10:22 GMT-0400 (Eastern Daylight Time),414909.7000000011,A,lette,I,e,123,1,6833.70000000298,408075.99999999814,9028,WL,C,9.0
3,26.549999952316284,learn,33450.000047683716,Mon Oct 06 2025 16:10:22 GMT-0400 (Eastern Daylight Time),414992.4000000004,A,letter,I,r,60,1,6916.400000002235,408075.99999999814,9028,WL,C,9.0
3,27.06599998474121,learn,32934.00001525879,Mon Oct 06 2025 16:10:22 GMT-0400 (Eastern Daylight Time),415508.99999999814,A,letterenter,I,enter,500,1,7433.0,408075.99999999814,9028,WL,C,9.0
3,27.682999849319458,learn,32317.000150680542,Mon Oct 06 2025 16:10:22 GMT-0400 (Eastern Daylight Time),416125.9000000004,A,b,I,b,609,1,616.5,415509.4000000004,9028,WL,C,10.0
3,27.899999856948853,learn,32100.000143051147,Mon Oct 06 2025 16:10:22 GMT-0400 (Eastern Daylight Time),416342.7999999989,A,bo,I,o,196,1,833.3999999985099,415509.4000000004,9028,WL,C,10.0
3,28.26699995994568,learn,31733.00004005432,Mon Oct 06 2025 16:10:22 GMT-0400 (Eastern Daylight Time),416709.49999999814,A,boy,I,y,349,1,1200.0999999977648,415509.4000000004,9028,WL,C,10.0
3,28.799999952316284,learn,31200.000047683716,Mon Oct 06 2025 16:10:22 GMT-0400 (Eastern Daylight Time),417242.4000000004,A,boyenter,I,enter,509,1,1733.0,415509.4000000004,9028,WL,C,10.0
3,37.36699986457825,learn,22633.000135421753,Mon Oct 06 2025 16:10:22 GMT-0400 (Eastern Daylight Time),425809.49999999814,A,q,I,q,8556,1,8566.79999999702,417242.7000000011,9028,WL,C,11.0
3,37.66699981689453,learn,22333.00018310547,Mon Oct 06 2025 16:10:22 GMT-0400 (Eastern Daylight Time),426109.49999999814,A,qu,I,u,272,1,8866.79999999702,417242.7000000011,9028,WL,C,11.0
3,37.967000007629395,learn,22032.999992370605,Mon Oct 06 2025 16:10:22 GMT-0400 (Eastern Daylight Time),426409.49999999814,A,que,I,e,278,1,9166.79999999702,417242.7000000011,9028,WL,C,11.0
3,38.08299994468689,learn,21917.00005531311,Mon Oct 06 2025 16:10:22 GMT-0400 (Eastern Daylight Time),426525.7999999989,A,quee,I,e,106,1,9283.099999997765,417242.7000000011,9028,WL,C,11.0
3,38.26699995994568,learn,21733.00004005432,Mon Oct 06 2025 16:10:22 GMT-0400 (Eastern Daylight Time),426709.49999999814,A,queen,I,n,165,1,9466.79999999702,417242.7000000011,9028,WL,C,11.0
3,38.75,learn,21250.0,Mon Oct 06 2025 16:10:22 GMT-0400 (Eastern Daylight Time),427192.49999999814,A,queenenter,I,enter,452,1,9949.79999999702,417242.7000000011,9028,WL,C,11.0
3,42.61699986457825,learn,17383.000135421753,Mon Oct 06 2025 16:10:22 GMT-0400 (Eastern Daylight Time),431059.5999999996,A,n,I,n,3854,1,3866.800000000745,427192.7999999989,9028,WL,C,12.0
3,42.83299994468689,learn,17167.00005531311,Mon Oct 06 2025 16:10:22 GMT-0400 (Eastern Daylight Time),431276.2000000011,A,na,I,a,192,1,4083.400000002235,427192.7999999989,9028,WL,C,12.0
3,42.96599984169006,learn,17034.000158309937,Mon Oct 06 2025 16:10:22 GMT-0400 (Eastern Daylight Time),431409.2000000011,A,nai,I,i,116,1,4216.400000002235,427192.7999999989,9028,WL,C,12.0
3,43.43299984931946,learn,16567.000150680542,Mon Oct 06 2025 16:10:22 GMT-0400 (Eastern Daylight Time),431876.2000000011,A,nail,I,l,451,1,4683.400000002235,427192.7999999989,9028,WL,C,12.0
3,44.01599979400635,learn,15984.000205993652,Mon Oct 06 2025 16:10:22 GMT-0400 (Eastern Daylight Time),432458.9000000004,A,nailenter,I,enter,559,1,5266.10000000149,427192.7999999989,9028,WL,C,12.0
3,48.66699981689453,learn,11333.000183105469,Mon Oct 06 2025 16:10:22 GMT-0400 (Eastern Daylight Time),437109.49999999814,A,f,I,f,4636,1,4650.199999999255,432459.2999999989,9028,WL,C,13.0
3,48.81699991226196,learn,11183.000087738037,Mon Oct 06 2025 16:10:22 GMT-0400 (Eastern Daylight Time),437259.2999999989,A,fl,I,l,125,1,4800.0,432459.2999999989,9028,WL,C,13.0
3,48.98299980163574,learn,11017.000198364258,Mon Oct 06 2025 16:10:22 GMT-0400 (Eastern Daylight Time),437426.2000000011,A,fla,I,a,152,1,4966.900000002235,432459.2999999989,9028,WL,C,13.0
3,49.41699981689453,learn,10583.000183105469,Mon Oct 06 2025 16:10:22 GMT-0400 (Eastern Daylight Time),437859.5999999996,A,flag,I,g,418,1,5400.300000000745,432459.2999999989,9028,WL,C,13.0
3,49.93299984931946,learn,10067.000150680542,Mon Oct 06 2025 16:10:22 GMT-0400 (Eastern Daylight Time),438375.7000000011,A,flagenter,I,enter,493,1,5916.400000002235,432459.2999999989,9028,WL,C,13.0
3,52.68299984931946,learn,7317.000150680542,Mon Oct 06 2025 16:10:22 GMT-0400 (Eastern Daylight Time),441126.2000000011,A,c,I,c,2734,1,2750.2000000029802,438375.99999999814,9028,WL,C,14.0
3,52.84999990463257,learn,7150.000095367432,Mon Oct 06 2025 16:10:22 GMT-0400 (Eastern Daylight Time),441292.9000000004,A,ca,I,a,134,1,2916.900000002235,438375.99999999814,9028,WL,C,14.0
3,53.11699986457825,learn,6883.000135421753,Mon Oct 06 2025 16:10:22 GMT-0400 (Eastern Daylight Time),441559.49999999814,A,can,I,n,238,1,3183.5,438375.99999999814,9028,WL,C,14.0
3,53.39999985694885,learn,6600.0001430511475,Mon Oct 06 2025 16:10:22 GMT-0400 (Eastern Daylight Time),441842.5999999996,A,canp,I,p,269,1,3466.60000000149,438375.99999999814,9028,WL,C,14.0
3,53.83299994468689,learn,6167.00005531311,Mon Oct 06 2025 16:10:22 GMT-0400 (Eastern Daylight Time),442275.7000000011,A,canpenter,I,enter,415,1,3899.7000000029802,438375.99999999814,9028,WL,C,14.0
3,60.01699995994568,learn,-16.99995994567871,Mon Oct 06 2025 16:10:22 GMT-0400 (Eastern Daylight Time),448459.5999999996,A,None,I,None,6177,1,6183.5,442276.0999999996,9028,WL,C,15.0
4,3.9670000076293945,learn,56032.999992370605,Mon Oct 06 2025 16:10:22 GMT-0400 (Eastern Daylight Time),533309.4999999981,A,t,I,t,3942,1,3966.39999999851,529343.0999999996,9028,WL,C,1.0
4,4.2170000076293945,learn,55782.999992370605,Mon Oct 06 2025 16:10:22 GMT-0400 (Eastern Daylight Time),533559.4999999981,A,to,I,o,227,1,4216.39999999851,529343.0999999996,9028,WL,C,1.0
4,4.4670000076293945,learn,55532.999992370605,Mon Oct 06 2025 16:10:22 GMT-0400 (Eastern Daylight Time),533809.4000000004,A,tow,I,w,235,1,4466.300000000745,529343.0999999996,9028,WL,C,1.0
4,4.733000040054321,learn,55266.99995994568,Mon Oct 06 2025 16:10:22 GMT-0400 (Eastern Daylight Time),534075.4999999981,A,towe,I,e,241,1,4732.39999999851,529343.0999999996,9028,WL,C,1.0
4,4.9670000076293945,learn,55032.999992370605,Mon Oct 06 2025 16:10:22 GMT-0400 (Eastern Daylight Time),534309.4000000004,A,tower,I,r,220,1,4966.300000000745,529343.0999999996,9028,WL,C,1.0
4,5.2829999923706055,learn,54717.000007629395,Mon Oct 06 2025 16:10:22 GMT-0400 (Eastern Daylight Time),534625.5999999996,A,towerenter,I,enter,293,1,5282.5,529343.0999999996,9028,WL,C,1.0
4,5.633000135421753,learn,54366.99986457825,Mon Oct 06 2025 16:10:22 GMT-0400 (Eastern Daylight Time),534976.0999999996,A,q,I,q,341,1,350.19999999925494,534625.9000000004,9028,WL,C,2.0
4,5.900000095367432,learn,54099.99990463257,Mon Oct 06 2025 16:10:22 GMT-0400 (Eastern Daylight Time),535242.7000000011,A,qu,I,u,242,1,616.8000000007451,534625.9000000004,9028,WL,C,2.0
4,6.16700005531311,learn,53832.99994468689,Mon Oct 06 2025 16:10:22 GMT-0400 (Eastern Daylight Time),535509.4000000004,A,que,I,e,248,1,883.5,534625.9000000004,9028,WL,C,2.0
4,6.317000150680542,learn,53682.99984931946,Mon Oct 06 2025 16:10:22 GMT-0400 (Eastern Daylight Time),535659.2999999989,A,quee,I,e,126,1,1033.3999999985099,534625.9000000004,9028,WL,C,2.0
4,6.5329999923706055,learn,53467.000007629395,Mon Oct 06 2025 16:10:22 GMT-0400 (Eastern Daylight Time),535876.0999999996,A,queen,I,n,197,1,1250.199999999255,534625.9000000004,9028,WL,C,2.0
4,7.0329999923706055,learn,52967.000007629395,Mon Oct 06 2025 16:10:22 GMT-0400 (Eastern Daylight Time),536375.5999999996,A,queenenter,I,enter,479,1,1749.699999999255,534625.9000000004,9028,WL,C,2.0
4,7.483000040054321,learn,52516.99995994568,Mon Oct 06 2025 16:10:22 GMT-0400 (Eastern Daylight Time),536826.0999999996,A,w,I,w,431,1,450.19999999925494,536375.9000000004,9028,WL,C,3.0
4,7.700000047683716,learn,52299.999952316284,Mon Oct 06 2025 16:10:22 GMT-0400 (Eastern Daylight Time),537042.7000000011,A,wh,I,h,201,1,666.8000000007451,536375.9000000004,9028,WL,C,3.0
4,7.883000135421753,learn,52116.99986457825,Mon Oct 06 2025 16:10:22 GMT-0400 (Eastern Daylight Time),537225.9999999981,A,whe,I,e,161,1,850.0999999977648,536375.9000000004,9028,WL,C,3.0
4,8.049999952316284,learn,51950.000047683716,Mon Oct 06 2025 16:10:22 GMT-0400 (Eastern Daylight Time),537392.5999999996,A,whea,I,a,146,1,1016.6999999992549,536375.9000000004,9028,WL,C,3.0
4,8.317000150680542,learn,51682.99984931946,Mon Oct 06 2025 16:10:22 GMT-0400 (Eastern Daylight Time),537659.4999999981,A,wheat,I,t,243,1,1283.5999999977648,536375.9000000004,9028,WL,C,3.0
4,8.83299994468689,learn,51167.00005531311,Mon Oct 06 2025 16:10:22 GMT-0400 (Eastern Daylight Time),538175.5999999996,A,wheatenter,I,enter,503,1,1799.699999999255,536375.9000000004,9028,WL,C,3.0
4,9.433000087738037,learn,50566.99991226196,Mon Oct 06 2025 16:10:22 GMT-0400 (Eastern Daylight Time),538776.0999999996,A,h,I,h,583,1,600.1000000014901,538175.9999999981,9028,WL,C,4.0
4,9.600000143051147,learn,50399.99985694885,Mon Oct 06 2025 16:10:22 GMT-0400 (Eastern Daylight Time),538942.5999999996,A,ho,I,o,156,1,766.6000000014901,538175.9999999981,9028,WL,C,4.0
4,9.850000143051147,learn,50149.99985694885,Mon Oct 06 2025 16:10:22 GMT-0400 (Eastern Daylight Time),539192.7000000011,A,hom,I,m,229,1,1016.7000000029802,538175.9999999981,9028,WL,C,4.0
4,10.067000150680542,learn,49932.99984931946,Mon Oct 06 2025 16:10:22 GMT-0400 (Eastern Daylight Time),539409.2999999989,A,home,I,e,203,1,1233.300000000745,538175.9999999981,9028,WL,C,4.0
4,10.565999984741211,learn,49434.00001525879,Mon Oct 06 2025 16:10:22 GMT-0400 (Eastern Daylight Time),539908.7999999989,A,homeenter,I,enter,481,1,1732.800000000745,538175.9999999981,9028,WL,C,4.0
4,12.567000150680542,learn,47432.99984931946,Mon Oct 06 2025 16:10:22 GMT-0400 (Eastern Daylight Time),541909.4000000004,A,f,I,f,1986,1,2000.199999999255,539909.2000000011,9028,WL,C,5.0
4,12.75,learn,47250.0,Mon Oct 06 2025 16:10:22 GMT-0400 (Eastern Daylight Time),542092.7000000011,A,fl,I,l,158,1,2183.5,539909.2000000011,9028,WL,C,5.0
4,12.967000007629395,learn,47032.999992370605,Mon Oct 06 2025 16:10:22 GMT-0400 (Eastern Daylight Time),542309.4000000004,A,fla,I,a,190,1,2400.199999999255,539909.2000000011,9028,WL,C,5.0
4,13.233000040054321,learn,46766.99995994568,Mon Oct 06 2025 16:10:22 GMT-0400 (Eastern Daylight Time),542575.9999999981,A,flag,I,g,254,1,2666.7999999970198,539909.2000000011,9028,WL,C,5.0
4,13.733000040054321,learn,46266.99995994568,Mon Oct 06 2025 16:10:22 GMT-0400 (Eastern Daylight Time),543075.4999999981,A,flagenter,I,enter,483,1,3166.2999999970198,539909.2000000011,9028,WL,C,5.0
4,14.383000135421753,learn,45616.99986457825,Mon Oct 06 2025 16:10:22 GMT-0400 (Eastern Daylight Time),543725.9000000004,A,l,I,l,643,1,650.0,543075.9000000004,9028,WL,C,6.0
4,14.600000143051147,learn,45399.99985694885,Mon Oct 06 2025 16:10:22 GMT-0400 (Eastern Daylight Time),543942.7000000011,A,le,I,e,197,1,866.8000000007451,543075.9000000004,9028,WL,C,6.0
4,14.883000135421753,learn,45116.99986457825,Mon Oct 06 2025 16:10:22 GMT-0400 (Eastern Daylight Time),544225.7000000011,A,let,I,t,268,1,1149.800000000745,543075.9000000004,9028,WL,C,6.0
4,15.067000150680542,learn,44932.99984931946,Mon Oct 06 2025 16:10:22 GMT-0400 (Eastern Daylight Time),544409.2999999989,A,lett,I,t,161,1,1333.3999999985099,543075.9000000004,9028,WL,C,6.0
4,15.216000080108643,learn,44783.99991989136,Mon Oct 06 2025 16:10:22 GMT-0400 (Eastern Daylight Time),544559.2000000011,A,lette,I,e,129,1,1483.300000000745,543075.9000000004,9028,WL,C,6.0
4,15.317000150680542,learn,44682.99984931946,Mon Oct 06 2025 16:10:22 GMT-0400 (Eastern Daylight Time),544659.5999999996,A,letter,I,r,85,1,1583.699999999255,543075.9000000004,9028,WL,C,6.0
4,15.483000040054321,learn,44516.99995994568,Mon Oct 06 2025 16:10:22 GMT-0400 (Eastern Daylight Time),544825.5999999996,A,letterenter,I,enter,143,1,1749.699999999255,543075.9000000004,9028,WL,C,6.0
4,15.967000007629395,learn,44032.999992370605,Mon Oct 06 2025 16:10:22 GMT-0400 (Eastern Daylight Time),545309.4999999981,A,b,I,b,477,1,483.5999999977648,544825.9000000004,9028,WL,C,7.0
4,16.25,learn,43750.0,Mon Oct 06 2025 16:10:22 GMT-0400 (Eastern Daylight Time),545592.7999999989,A,bo,I,o,262,1,766.8999999985099,544825.9000000004,9028,WL,C,7.0
4,16.700000047683716,learn,43299.999952316284,Mon Oct 06 2025 16:10:22 GMT-0400 (Eastern Daylight Time),546042.7000000011,A,boy,I,y,424,1,1216.800000000745,544825.9000000004,9028,WL,C,7.0
4,17.049000024795532,learn,42950.99997520447,Mon Oct 06 2025 16:10:22 GMT-0400 (Eastern Daylight Time),546392.2000000011,A,boyenter,I,enter,327,1,1566.300000000745,544825.9000000004,9028,WL,C,7.0
4,17.65000009536743,learn,42349.99990463257,Mon Oct 06 2025 16:10:22 GMT-0400 (Eastern Daylight Time),546992.5999999996,A,d,I,d,591,1,600.0,546392.5999999996,9028,WL,C,8.0
4,17.933000087738037,learn,42066.99991226196,Mon Oct 06 2025 16:10:22 GMT-0400 (Eastern Daylight Time),547276.0999999996,A,do,I,o,256,1,883.5,546392.5999999996,9028,WL,C,8.0
4,18.067000150680542,learn,41932.99984931946,Mon Oct 06 2025 16:10:22 GMT-0400 (Eastern Daylight Time),547409.4999999981,A,doc,I,c,118,1,1016.8999999985099,546392.5999999996,9028,WL,C,8.0
4,18.683000087738037,learn,41316.99991226196,Mon Oct 06 2025 16:10:22 GMT-0400 (Eastern Daylight Time),548026.0999999996,A,doct,I,t,595,1,1633.5,546392.5999999996,9028,WL,C,8.0
4,19.25,learn,40750.0,Mon Oct 06 2025 16:10:22 GMT-0400 (Eastern Daylight Time),548592.5999999996,A,docto,I,o,554,1,2200.0,546392.5999999996,9028,WL,C,8.0
4,19.617000102996826,learn,40382.999897003174,Mon Oct 06 2025 16:10:22 GMT-0400 (Eastern Daylight Time),548959.2999999989,A,doctor,I,r,354,1,2566.699999999255,546392.5999999996,9028,WL,C,8.0
4,19.966000080108643,learn,40033.99991989136,Mon Oct 06 2025 16:10:22 GMT-0400 (Eastern Daylight Time),549308.5999999996,A,doctorenter,I,enter,338,1,2916.0,546392.5999999996,9028,WL,C,8.0
4,21.016000032424927,learn,38983.99996757507,Mon Oct 06 2025 16:10:22 GMT-0400 (Eastern Daylight Time),550359.2000000011,A,b,I,b,1034,1,1050.4000000022352,549308.7999999989,9028,WL,C,9.0
4,21.33299994468689,learn,38667.00005531311,Mon Oct 06 2025 16:10:22 GMT-0400 (Eastern Daylight Time),550676.0999999996,A,bo,I,o,293,1,1367.300000000745,549308.7999999989,9028,WL,C,9.0
4,21.717000007629395,learn,38282.999992370605,Mon Oct 06 2025 16:10:22 GMT-0400 (Eastern Daylight Time),551059.4999999981,A,bod,I,d,368,1,1750.699999999255,549308.7999999989,9028,WL,C,9.0
4,22.5,learn,37500.0,Mon Oct 06 2025 16:10:22 GMT-0400 (Eastern Daylight Time),551842.7000000011,A,body,I,y,767,1,2533.900000002235,549308.7999999989,9028,WL,C,9.0
4,23.31599998474121,learn,36684.00001525879,Mon Oct 06 2025 16:10:22 GMT-0400 (Eastern Daylight Time),552658.9000000004,A,bodyenter,I,enter,800,1,3350.10000000149,549308.7999999989,9028,WL,C,9.0
4,24.617000102996826,learn,35382.999897003174,Mon Oct 06 2025 16:10:22 GMT-0400 (Eastern Daylight Time),553959.4000000004,A,b,I,b,1284,1,1300.1000000014901,552659.2999999989,9028,WL,C,10.0
4,24.949000120162964,learn,35050.999879837036,Mon Oct 06 2025 16:10:22 GMT-0400 (Eastern Daylight Time),554292.0999999996,A,bo,I,o,317,1,1632.800000000745,552659.2999999989,9028,WL,C,10.0
4,25.299999952316284,learn,34700.000047683716,Mon Oct 06 2025 16:10:22 GMT-0400 (Eastern Daylight Time),554642.7000000011,A,boy,I,y,339,1,1983.4000000022352,552659.2999999989,9028,WL,C,10.0
4,25.549999952316284,learn,34450.000047683716,Mon Oct 06 2025 16:10:22 GMT-0400 (Eastern Daylight Time),554892.4999999981,A,boyenter,I,enter,240,1,2233.199999999255,552659.2999999989,9028,WL,C,10.0
4,26.15000009536743,learn,33849.99990463257,Mon Oct 06 2025 16:10:22 GMT-0400 (Eastern Daylight Time),555492.7999999989,A,c,I,c,586,1,600.0,554892.7999999989,9028,WL,C,11.0
4,26.33299994468689,learn,33667.00005531311,Mon Oct 06 2025 16:10:22 GMT-0400 (Eastern Daylight Time),555675.9999999981,A,ca,I,a,158,1,783.1999999992549,554892.7999999989,9028,WL,C,11.0
4,26.467000007629395,learn,33532.999992370605,Mon Oct 06 2025 16:10:22 GMT-0400 (Eastern Daylight Time),555809.2999999989,A,cam,I,m,120,1,916.5,554892.7999999989,9028,WL,C,11.0
4,26.75,learn,33250.0,Mon Oct 06 2025 16:10:22 GMT-0400 (Eastern Daylight Time),556092.5999999996,A,camp,I,p,249,1,1199.800000000745,554892.7999999989,9028,WL,C,11.0
4,27.15000009536743,learn,32849.99990463257,Mon Oct 06 2025 16:10:22 GMT-0400 (Eastern Daylight Time),556492.4000000004,A,campenter,I,enter,390,1,1599.6000000014901,554892.7999999989,9028,WL,C,11.0
4,27.950000047683716,learn,32049.999952316284,Mon Oct 06 2025 16:10:22 GMT-0400 (Eastern Daylight Time),557292.7000000011,A,f,I,f,778,1,800.0,556492.7000000011,9028,WL,C,12.0
4,28.117000102996826,learn,31882.999897003174,Mon Oct 06 2025 16:10:22 GMT-0400 (Eastern Daylight Time),557459.4000000004,A,fl,I,l,150,1,966.6999999992549,556492.7000000011,9028,WL,C,12.0
4,28.33299994468689,learn,31667.00005531311,Mon Oct 06 2025 16:10:22 GMT-0400 (Eastern Daylight Time),557675.9999999981,A,fla,I,a,188,1,1183.2999999970198,556492.7000000011,9028,WL,C,12.0
4,28.66700005531311,learn,31332.99994468689,Mon Oct 06 2025 16:10:22 GMT-0400 (Eastern Daylight Time),558009.4000000004,A,flag,I,g,303,1,1516.699999999255,556492.7000000011,9028,WL,C,12.0
4,29.33299994468689,learn,30667.00005531311,Mon Oct 06 2025 16:10:22 GMT-0400 (Eastern Daylight Time),558675.4999999981,A,flagenter,I,enter,648,1,2182.7999999970198,556492.7000000011,9028,WL,C,12.0
4,30.367000102996826,learn,29632.999897003174,Mon Oct 06 2025 16:10:22 GMT-0400 (Eastern Daylight Time),559709.2999999989,A,s,I,s,1027,1,1033.3999999985099,558675.9000000004,9028,WL,C,13.0
4,30.48300004005432,learn,29516.99995994568,Mon Oct 06 2025 16:10:22 GMT-0400 (Eastern Daylight Time),559826.0999999996,A,sh,I,h,104,1,1150.199999999255,558675.9000000004,9028,WL,C,13.0
4,30.867000102996826,learn,29132.999897003174,Mon Oct 06 2025 16:10:22 GMT-0400 (Eastern Daylight Time),560209.4000000004,A,sho,I,o,369,1,1533.5,558675.9000000004,9028,WL,C,13.0
4,31.133000135421753,learn,28866.999864578247,Mon Oct 06 2025 16:10:22 GMT-0400 (Eastern Daylight Time),560476.0999999996,A,shor,I,r,241,1,1800.199999999255,558675.9000000004,9028,WL,C,13.0
4,31.26699995994568,learn,28733.00004005432,Mon Oct 06 2025 16:10:22 GMT-0400 (Eastern Daylight Time),560609.4000000004,A,shore,I,e,114,1,1933.5,558675.9000000004,9028,WL,C,13.0
4,31.532999992370605,learn,28467.000007629395,Mon Oct 06 2025 16:10:22 GMT-0400 (Eastern Daylight Time),560875.4999999981,A,shoreenter,I,enter,242,1,2199.599999997765,558675.9000000004,9028,WL,C,13.0
4,32.85000014305115,learn,27149.999856948853,Mon Oct 06 2025 16:10:22 GMT-0400 (Eastern Daylight Time),562192.5999999996,A,q,I,q,1307,1,1316.800000000745,560875.7999999989,9028,WL,C,14.0
4,33.06700015068054,learn,26932.999849319458,Mon Oct 06 2025 16:10:22 GMT-0400 (Eastern Daylight Time),562409.4999999981,A,qu,I,u,193,1,1533.699999999255,560875.7999999989,9028,WL,C,14.0
4,34.91700005531311,learn,25082.99994468689,Mon Oct 06 2025 16:10:22 GMT-0400 (Eastern Daylight Time),564259.4999999981,A,que,I,e,1826,1,3383.699999999255,560875.7999999989,9028,WL,C,14.0
4,35.08299994468689,learn,24917.00005531311,Mon Oct 06 2025 16:10:22 GMT-0400 (Eastern Daylight Time),564425.9999999981,A,quee,I,e,143,1,3550.199999999255,560875.7999999989,9028,WL,C,14.0
4,35.63300013542175,learn,24366.999864578247,Mon Oct 06 2025 16:10:22 GMT-0400 (Eastern Daylight Time),564975.9999999981,A,queen,I,n,538,1,4100.199999999255,560875.7999999989,9028,WL,C,14.0
4,36.48300004005432,learn,23516.99995994568,Mon Oct 06 2025 16:10:22 GMT-0400 (Eastern Daylight Time),565825.4999999981,A,queenenter,I,enter,835,1,4949.699999999255,560875.7999999989,9028,WL,C,14.0
4,42.13300013542175,learn,17866.999864578247,Mon Oct 06 2025 16:10:22 GMT-0400 (Eastern Daylight Time),571475.7000000011,A,h,I,h,5636,1,5649.900000002235,565825.7999999989,9028,WL,C,15.0
4,42.38300013542175,learn,17616.999864578247,Mon Oct 06 2025 16:10:22 GMT-0400 (Eastern Daylight Time),571725.5999999996,A,ho,I,o,242,1,5899.800000000745,565825.7999999989,9028,WL,C,15.0
4,42.66700005531311,learn,17332.99994468689,Mon Oct 06 2025 16:10:22 GMT-0400 (Eastern Daylight Time),572009.4000000004,A,hom,I,m,263,1,6183.60000000149,565825.7999999989,9028,WL,C,15.0
4,43.21600008010864,learn,16783.999919891357,Mon Oct 06 2025 16:10:22 GMT-0400 (Eastern Daylight Time),572559.2999999989,A,home,I,e,537,1,6733.5,565825.7999999989,9028,WL,C,15.0
4,43.91600012779236,learn,16083.999872207642,Mon Oct 06 2025 16:10:22 GMT-0400 (Eastern Daylight Time),573258.7999999989,A,homeenter,I,enter,676,1,7433.0,565825.7999999989,9028,WL,C,15.0
5,0.6510000228881836,learn,60000.0,Mon Oct 06 2025 16:10:22 GMT-0400 (Eastern Daylight Time),647909.7000000011,A,t,I,t,630,1,649.9000000022352,647259.7999999989,9028,WL,C,1.0
5,1.3339998722076416,learn,60000.0,Mon Oct 06 2025 16:10:22 GMT-0400 (Eastern Daylight Time),648592.5999999996,A,to,I,o,669,1,1332.800000000745,647259.7999999989,9028,WL,C,1.0
5,1.5509998798370361,learn,60000.0,Mon Oct 06 2025 16:10:22 GMT-0400 (Eastern Daylight Time),648809.2999999989,A,tow,I,w,194,1,1549.5,647259.7999999989,9028,WL,C,1.0
5,2.7170000076293945,learn,60000.0,Mon Oct 06 2025 16:10:22 GMT-0400 (Eastern Daylight Time),649975.9999999981,A,towe,I,e,1145,1,2716.199999999255,647259.7999999989,9028,WL,C,1.0
5,3.5999999046325684,learn,60000.0,Mon Oct 06 2025 16:10:22 GMT-0400 (Eastern Daylight Time),650859.2999999989,A,tower,I,r,860,1,3599.5,647259.7999999989,9028,WL,C,1.0
5,3.9670000076293945,learn,60000.0,Mon Oct 06 2025 16:10:22 GMT-0400 (Eastern Daylight Time),651225.4999999981,A,towerenter,I,enter,343,1,3965.699999999255,647259.7999999989,9028,WL,C,1.0
5,4.25,learn,60000.0,Mon Oct 06 2025 16:10:22 GMT-0400 (Eastern Daylight Time),651509.2000000011,A,w,I,w,269,1,283.5,651225.7000000011,9028,WL,C,2.0
5,4.500999927520752,learn,60000.0,Mon Oct 06 2025 16:10:22 GMT-0400 (Eastern Daylight Time),651759.2999999989,A,wh,I,h,237,1,533.5999999977648,651225.7000000011,9028,WL,C,2.0
5,4.616999864578247,learn,60000.0,Mon Oct 06 2025 16:10:22 GMT-0400 (Eastern Daylight Time),651875.9000000004,A,whe,I,e,100,1,650.1999999992549,651225.7000000011,9028,WL,C,2.0
5,4.799999952316284,learn,60000.0,Mon Oct 06 2025 16:10:22 GMT-0400 (Eastern Daylight Time),652059.2999999989,A,whea,I,a,160,1,833.5999999977648,651225.7000000011,9028,WL,C,2.0
5,5.083999872207642,learn,60000.0,Mon Oct 06 2025 16:10:22 GMT-0400 (Eastern Daylight Time),652342.5999999996,A,wheat,I,t,256,1,1116.8999999985099,651225.7000000011,9028,WL,C,2.0
5,5.432999849319458,learn,60000.0,Mon Oct 06 2025 16:10:22 GMT-0400 (Eastern Daylight Time),652692.0999999996,A,wheatenter,I,enter,332,1,1466.3999999985099,651225.7000000011,9028,WL,C,2.0
5,5.733999967575073,learn,60000.0,Mon Oct 06 2025 16:10:22 GMT-0400 (Eastern Daylight Time),652992.7000000011,A,q,I,q,291,1,300.20000000298023,652692.4999999981,9028,WL,C,3.0
5,6.066999912261963,learn,60000.0,Mon Oct 06 2025 16:10:22 GMT-0400 (Eastern Daylight Time),653325.4999999981,A,qu,I,u,321,1,633.0,652692.4999999981,9028,WL,C,3.0
5,6.416999816894531,learn,60000.0,Mon Oct 06 2025 16:10:22 GMT-0400 (Eastern Daylight Time),653675.9999999981,A,que,I,e,326,1,983.5,652692.4999999981,9028,WL,C,3.0
5,6.549999952316284,learn,60000.0,Mon Oct 06 2025 16:10:22 GMT-0400 (Eastern Daylight Time),653809.2000000011,A,quee,I,e,118,1,1116.7000000029802,652692.4999999981,9028,WL,C,3.0
5,6.766999959945679,learn,60000.0,Mon Oct 06 2025 16:10:22 GMT-0400 (Eastern Daylight Time),654025.9999999981,A,queen,I,n,186,1,1333.5,652692.4999999981,9028,WL,C,3.0
5,7.233999967575073,learn,60000.0,Mon Oct 06 2025 16:10:22 GMT-0400 (Eastern Daylight Time),654492.4000000004,A,queenenter,I,enter,447,1,1799.9000000022352,652692.4999999981,9028,WL,C,3.0
5,7.516999959945679,learn,60000.0,Mon Oct 06 2025 16:10:22 GMT-0400 (Eastern Daylight Time),654775.9000000004,A,s,I,s,266,1,283.30000000074506,654492.5999999996,9028,WL,C,4.0
5,7.949999809265137,learn,60000.0,Mon Oct 06 2025 16:10:22 GMT-0400 (Eastern Daylight Time),655209.2999999989,A,su,I,u,411,1,716.6999999992549,654492.5999999996,9028,WL,C,4.0
5,8.299999952316284,learn,60000.0,Mon Oct 06 2025 16:10:22 GMT-0400 (Eastern Daylight Time),655559.0999999996,A,sug,I,g,331,1,1066.5,654492.5999999996,9028,WL,C,4.0
5,8.450999975204468,learn,60000.0,Mon Oct 06 2025 16:10:22 GMT-0400 (Eastern Daylight Time),655709.2999999989,A,suga,I,a,134,1,1216.699999999255,654492.5999999996,9028,WL,C,4.0
5,8.934000015258789,learn,60000.0,Mon Oct 06 2025 16:10:22 GMT-0400 (Eastern Daylight Time),656192.5999999996,A,sugar,I,r,463,1,1700.0,654492.5999999996,9028,WL,C,4.0
5,9.682999849319458,learn,60000.0,Mon Oct 06 2025 16:10:22 GMT-0400 (Eastern Daylight Time),656941.9999999981,A,sugarenter,I,enter,737,1,2449.39999999851,654492.5999999996,9028,WL,C,4.0
5,10.149999856948853,learn,60000.0,Mon Oct 06 2025 16:10:22 GMT-0400 (Eastern Daylight Time),657408.7999999989,A,h,I,h,457,1,466.3999999985099,656942.4000000004,9028,WL,C,5.0
5,10.366999864578247,learn,60000.0,Mon Oct 06 2025 16:10:22 GMT-0400 (Eastern Daylight Time),657625.9999999981,A,ho,I,o,198,1,683.5999999977648,656942.4000000004,9028,WL,C,5.0
5,10.549999952316284,learn,60000.0,Mon Oct 06 2025 16:10:22 GMT-0400 (Eastern Daylight Time),657809.2000000011,A,hom,I,m,161,1,866.8000000007451,656942.4000000004,9028,WL,C,5.0
5,10.916999816894531,learn,60000.0,Mon Oct 06 2025 16:10:22 GMT-0400 (Eastern Daylight Time),658175.9999999981,A,home,I,e,354,1,1233.5999999977648,656942.4000000004,9028,WL,C,5.0
5,11.299999952316284,learn,60000.0,Mon Oct 06 2025 16:10:22 GMT-0400 (Eastern Daylight Time),658558.7999999989,A,homeenter,I,enter,371,1,1616.3999999985099,656942.4000000004,9028,WL,C,5.0
5,11.983999967575073,learn,60000.0,Mon Oct 06 2025 16:10:22 GMT-0400 (Eastern Daylight Time),659242.5999999996,A,b,I,b,664,1,683.3999999985099,658559.2000000011,9028,WL,C,6.0
5,12.233999967575073,learn,60000.0,Mon Oct 06 2025 16:10:22 GMT-0400 (Eastern Daylight Time),659492.7000000011,A,bo,I,o,233,1,933.5,658559.2000000011,9028,WL,C,6.0
5,12.799999952316284,learn,60000.0,Mon Oct 06 2025 16:10:22 GMT-0400 (Eastern Daylight Time),660059.2999999989,A,boy,I,y,543,1,1500.0999999977648,658559.2000000011,9028,WL,C,6.0
5,13.549999952316284,learn,60000.0,Mon Oct 06 2025 16:10:22 GMT-0400 (Eastern Daylight Time),660808.7000000011,A,boyenter,I,enter,728,1,2249.5,658559.2000000011,9028,WL,C,6.0
5,14.299999952316284,learn,60000.0,Mon Oct 06 2025 16:10:22 GMT-0400 (Eastern Daylight Time),661559.2999999989,A,f,I,f,734,1,750.1999999992549,660809.0999999996,9028,WL,C,7.0
5,14.483999967575073,learn,60000.0,Mon Oct 06 2025 16:10:22 GMT-0400 (Eastern Daylight Time),661742.2999999989,A,fl,I,l,164,1,933.1999999992549,660809.0999999996,9028,WL,C,7.0
5,14.649999856948853,learn,60000.0,Mon Oct 06 2025 16:10:22 GMT-0400 (Eastern Daylight Time),661909.2000000011,A,fla,I,a,141,1,1100.1000000014901,660809.0999999996,9028,WL,C,7.0
5,15.349999904632568,learn,60000.0,Mon Oct 06 2025 16:10:22 GMT-0400 (Eastern Daylight Time),662609.2000000011,A,flag,I,g,678,1,1800.1000000014901,660809.0999999996,9028,WL,C,7.0
5,16.049999952316284,learn,60000.0,Mon Oct 06 2025 16:10:22 GMT-0400 (Eastern Daylight Time),663308.7999999989,A,flagenter,I,enter,673,1,2499.699999999255,660809.0999999996,9028,WL,C,7.0
5,18.049999952316284,learn,60000.0,Mon Oct 06 2025 16:10:22 GMT-0400 (Eastern Daylight Time),665309.0999999996,A,c,I,c,1994,1,1999.8999999985099,663309.2000000011,9028,WL,C,8.0
5,18.233999967575073,learn,60000.0,Mon Oct 06 2025 16:10:22 GMT-0400 (Eastern Daylight Time),665492.2999999989,A,co,I,o,165,1,2183.099999997765,663309.2000000011,9028,WL,C,8.0
5,18.549999952316284,learn,60000.0,Mon Oct 06 2025 16:10:22 GMT-0400 (Eastern Daylight Time),665809.2000000011,A,cor,I,r,299,1,2500.0,663309.2000000011,9028,WL,C,8.0
5,18.883999824523926,learn,60000.0,Mon Oct 06 2025 16:10:22 GMT-0400 (Eastern Daylight Time),666142.4000000004,A,corn,I,n,322,1,2833.199999999255,663309.2000000011,9028,WL,C,8.0
5,19.632999897003174,learn,60000.0,Mon Oct 06 2025 16:10:22 GMT-0400 (Eastern Daylight Time),666892.0999999996,A,cornenter,I,enter,724,1,3582.89999999851,663309.2000000011,9028,WL,C,8.0
5,20.316999912261963,learn,60000.0,Mon Oct 06 2025 16:10:22 GMT-0400 (Eastern Daylight Time),667575.7000000011,A,d,I,d,665,1,683.2000000029802,666892.4999999981,9028,WL,C,9.0
5,20.633999824523926,learn,60000.0,Mon Oct 06 2025 16:10:22 GMT-0400 (Eastern Daylight Time),667892.5999999996,A,do,I,o,300,1,1000.1000000014901,666892.4999999981,9028,WL,C,9.0
5,20.799999952316284,learn,60000.0,Mon Oct 06 2025 16:10:22 GMT-0400 (Eastern Daylight Time),668059.2999999989,A,doc,I,c,141,1,1166.800000000745,666892.4999999981,9028,WL,C,9.0
5,21.116999864578247,learn,60000.0,Mon Oct 06 2025 16:10:22 GMT-0400 (Eastern Daylight Time),668375.9999999981,A,doct,I,t,288,1,1483.5,666892.4999999981,9028,WL,C,9.0
5,21.366999864578247,learn,60000.0,Mon Oct 06 2025 16:10:22 GMT-0400 (Eastern Daylight Time),668625.9000000004,A,docto,I,o,235,1,1733.4000000022352,666892.4999999981,9028,WL,C,9.0
5,21.733999967575073,learn,60000.0,Mon Oct 06 2025 16:10:22 GMT-0400 (Eastern Daylight Time),668992.4999999981,A,doctor,I,r,354,1,2100.0,666892.4999999981,9028,WL,C,9.0
5,22.41699981689453,learn,60000.0,Mon Oct 06 2025 16:10:22 GMT-0400 (Eastern Daylight Time),669675.4000000004,A,doctorenter,I,enter,657,1,2782.900000002235,666892.4999999981,9028,WL,C,9.0
5,23.549999952316284,learn,60000.0,Mon Oct 06 2025 16:10:22 GMT-0400 (Eastern Daylight Time),670809.0999999996,A,s,I,s,1114,1,1133.3999999985099,669675.7000000011,9028,WL,C,10.0
5,23.76699995994568,learn,60000.0,Mon Oct 06 2025 16:10:22 GMT-0400 (Eastern Daylight Time),671025.9000000004,A,sh,I,h,202,1,1350.199999999255,669675.7000000011,9028,WL,C,10.0
5,24.049999952316284,learn,60000.0,Mon Oct 06 2025 16:10:22 GMT-0400 (Eastern Daylight Time),671309.2999999989,A,sho,I,o,274,1,1633.5999999977648,669675.7000000011,9028,WL,C,10.0
5,24.43400001525879,learn,60000.0,Mon Oct 06 2025 16:10:22 GMT-0400 (Eastern Daylight Time),671692.5999999996,A,shor,I,r,358,1,2016.8999999985099,669675.7000000011,9028,WL,C,10.0
5,24.58399987220764,learn,60000.0,Mon Oct 06 2025 16:10:22 GMT-0400 (Eastern Daylight Time),671842.5999999996,A,shore,I,e,134,1,2166.89999999851,669675.7000000011,9028,WL,C,10.0
5,24.899999856948853,learn,60000.0,Mon Oct 06 2025 16:10:22 GMT-0400 (Eastern Daylight Time),672158.7999999989,A,shoreenter,I,enter,295,1,2483.099999997765,669675.7000000011,9028,WL,C,10.0
5,25.59999990463257,learn,60000.0,Mon Oct 06 2025 16:10:22 GMT-0400 (Eastern Daylight Time),672859.2999999989,A,b,I,b,679,1,700.0999999977648,672159.2000000011,9028,WL,C,11.0
5,25.93400001525879,learn,60000.0,Mon Oct 06 2025 16:10:22 GMT-0400 (Eastern Daylight Time),673192.5999999996,A,bo,I,o,312,1,1033.3999999985099,672159.2000000011,9028,WL,C,11.0
5,26.84999990463257,learn,60000.0,Mon Oct 06 2025 16:10:22 GMT-0400 (Eastern Daylight Time),674108.9999999981,A,bod,I,d,889,1,1949.7999999970198,672159.2000000011,9028,WL,C,11.0
5,27.199999809265137,learn,60000.0,Mon Oct 06 2025 16:10:22 GMT-0400 (Eastern Daylight Time),674459.2000000011,A,body,I,y,325,1,2300.0,672159.2000000011,9028,WL,C,11.0
5,27.699999809265137,learn,60000.0,Mon Oct 06 2025 16:10:22 GMT-0400 (Eastern Daylight Time),674958.7999999989,A,bodyenter,I,enter,488,1,2799.599999997765,672159.2000000011,9028,WL,C,11.0
5,28.149999856948853,learn,60000.0,Mon Oct 06 2025 16:10:22 GMT-0400 (Eastern Daylight Time),675409.2999999989,A,n,I,n,440,1,450.19999999925494,674959.0999999996,9028,WL,C,12.0
5,28.316999912261963,learn,60000.0,Mon Oct 06 2025 16:10:22 GMT-0400 (Eastern Daylight Time),675575.9999999981,A,na,I,a,145,1,616.8999999985099,674959.0999999996,9028,WL,C,12.0
5,28.483999967575073,learn,60000.0,Mon Oct 06 2025 16:10:22 GMT-0400 (Eastern Daylight Time),675742.4000000004,A,nai,I,i,156,1,783.3000000007451,674959.0999999996,9028,WL,C,12.0
5,28.866999864578247,learn,60000.0,Mon Oct 06 2025 16:10:22 GMT-0400 (Eastern Daylight Time),676125.5999999996,A,nail,I,l,372,1,1166.5,674959.0999999996,9028,WL,C,12.0
5,29.449999809265137,learn,60000.0,Mon Oct 06 2025 16:10:22 GMT-0400 (Eastern Daylight Time),676708.7999999989,A,nailenter,I,enter,565,1,1749.699999999255,674959.0999999996,9028,WL,C,12.0
5,41.69999980926514,learn,60000.0,Mon Oct 06 2025 16:10:22 GMT-0400 (Eastern Daylight Time),688959.2999999989,A,f,I,f,12242,1,12250.199999999255,676709.0999999996,9028,WL,C,13.0
5,41.883999824523926,learn,60000.0,Mon Oct 06 2025 16:10:22 GMT-0400 (Eastern Daylight Time),689142.4999999981,A,fl,I,l,157,1,12433.39999999851,676709.0999999996,9028,WL,C,13.0
5,42.049999952316284,learn,60000.0,Mon Oct 06 2025 16:10:22 GMT-0400 (Eastern Daylight Time),689309.2000000011,A,fla,I,a,140,1,12600.10000000149,676709.0999999996,9028,WL,C,13.0
5,42.48399996757507,learn,60000.0,Mon Oct 06 2025 16:10:22 GMT-0400 (Eastern Daylight Time),689742.4999999981,A,flag,I,g,413,1,13033.39999999851,676709.0999999996,9028,WL,C,13.0
5,43.0,learn,60000.0,Mon Oct 06 2025 16:10:22 GMT-0400 (Eastern Daylight Time),690258.7000000011,A,flagenter,I,enter,499,1,13549.60000000149,676709.0999999996,9028,WL,C,13.0
5,44.467000007629395,learn,60000.0,Mon Oct 06 2025 16:10:22 GMT-0400 (Eastern Daylight Time),691725.4999999981,A,c,I,c,1460,1,1466.5,690258.9999999981,9028,WL,C,14.0
5,44.61699986457825,learn,60000.0,Mon Oct 06 2025 16:10:22 GMT-0400 (Eastern Daylight Time),691875.7999999989,A,ca,I,a,133,1,1616.800000000745,690258.9999999981,9028,WL,C,14.0
5,44.78399991989136,learn,60000.0,Mon Oct 06 2025 16:10:22 GMT-0400 (Eastern Daylight Time),692042.4999999981,A,cam,I,m,145,1,1783.5,690258.9999999981,9028,WL,C,14.0
5,45.23399996757507,learn,60000.0,Mon Oct 06 2025 16:10:22 GMT-0400 (Eastern Daylight Time),692492.7000000011,A,camp,I,p,423,1,2233.7000000029802,690258.9999999981,9028,WL,C,14.0
5,45.69999980926514,learn,60000.0,Mon Oct 06 2025 16:10:22 GMT-0400 (Eastern Daylight Time),692958.7999999989,A,campenter,I,enter,454,1,2699.800000000745,690258.9999999981,9028,WL,C,14.0
5,52.299999952316284,learn,60000.0,Mon Oct 06 2025 16:10:22 GMT-0400 (Eastern Daylight Time),699559.2999999989,A,n,I,n,6583,1,6600.199999999255,692959.0999999996,9028,WL,C,15.0
5,52.632999897003174,learn,60000.0,Mon Oct 06 2025 16:10:22 GMT-0400 (Eastern Daylight Time),699891.9999999981,A,na,I,a,313,1,6932.89999999851,692959.0999999996,9028,WL,C,15.0
5,52.81699991226196,learn,60000.0,Mon Oct 06 2025 16:10:22 GMT-0400 (Eastern Daylight Time),700075.7999999989,A,nai,I,i,161,1,7116.699999999255,692959.0999999996,9028,WL,C,15.0
5,53.11699986457825,learn,60000.0,Mon Oct 06 2025 16:10:22 GMT-0400 (Eastern Daylight Time),700375.9000000004,A,nail,I,l,270,1,7416.800000000745,692959.0999999996,9028,WL,C,15.0
5,53.58299994468689,learn,60000.0,Mon Oct 06 2025 16:10:22 GMT-0400 (Eastern Daylight Time),700842.0999999996,A,nailenter,I,enter,443,1,7883.0,692959.0999999996,9028,WL,C,15.0
6,0.9340000152587891,distr,59065.99998474121,Mon Oct 06 2025 16:10:22 GMT-0400 (Eastern Daylight Time),779992.4000000004,B,s,I,s,913,1,933.0,779059.4000000004,9028,WL,C,1.0
6,1.7839999198913574,distr,58216.00008010864,Mon Oct 06 2025 16:10:22 GMT-0400 (Eastern Daylight Time),780842.4000000004,B,sk,I,k,826,1,1783.0,779059.4000000004,9028,WL,C,1.0
6,2.0839998722076416,distr,57916.00012779236,Mon Oct 06 2025 16:10:22 GMT-0400 (Eastern Daylight Time),781142.4999999981,B,sku,I,u,281,1,2083.099999997765,779059.4000000004,9028,WL,C,1.0
6,2.684000015258789,distr,57315.99998474121,Mon Oct 06 2025 16:10:22 GMT-0400 (Eastern Daylight Time),781742.2999999989,B,sk,I,backspace,588,1,2682.89999999851,779059.4000000004,9028,WL,C,1.0
6,3.049999952316284,distr,56950.000047683716,Mon Oct 06 2025 16:10:22 GMT-0400 (Eastern Daylight Time),782109.0999999996,B,sky,I,y,340,1,3049.699999999255,779059.4000000004,9028,WL,C,1.0
6,4.182999849319458,distr,55817.00015068054,Mon Oct 06 2025 16:10:22 GMT-0400 (Eastern Daylight Time),783241.9999999981,B,skyenter,I,enter,1109,1,4182.599999997765,779059.4000000004,9028,WL,C,1.0
6,5.0,distr,55000.0,Mon Oct 06 2025 16:10:22 GMT-0400 (Eastern Daylight Time),784059.0999999996,B,v,I,v,796,1,816.8999999985099,783242.2000000011,9028,WL,C,2.0
6,5.16700005531311,distr,54832.99994468689,Mon Oct 06 2025 16:10:22 GMT-0400 (Eastern Daylight Time),784225.5999999996,B,va,I,a,152,1,983.3999999985099,783242.2000000011,9028,WL,C,2.0
6,5.349999904632568,distr,54650.00009536743,Mon Oct 06 2025 16:10:22 GMT-0400 (Eastern Daylight Time),784409.0999999996,B,val,I,l,162,1,1166.8999999985099,783242.2000000011,9028,WL,C,2.0
6,5.483000040054321,distr,54516.99995994568,Mon Oct 06 2025 16:10:22 GMT-0400 (Eastern Daylight Time),784542.2999999989,B,vall,I,l,122,1,1300.0999999977648,783242.2000000011,9028,WL,C,2.0
6,5.566999912261963,distr,54433.00008773804,Mon Oct 06 2025 16:10:22 GMT-0400 (Eastern Daylight Time),784625.4999999981,B,valle,I,e,60,1,1383.2999999970198,783242.2000000011,9028,WL,C,2.0
6,6.116999864578247,distr,53883.00013542175,Mon Oct 06 2025 16:10:22 GMT-0400 (Eastern Daylight Time),785175.9000000004,B,valley,I,y,523,1,1933.699999999255,783242.2000000011,9028,WL,C,2.0
6,6.7159998416900635,distr,53284.00015830994,Mon Oct 06 2025 16:10:22 GMT-0400 (Eastern Daylight Time),785775.2999999989,B,valleyenter,I,enter,587,1,2533.099999997765,783242.2000000011,9028,WL,C,2.0
6,7.8999998569488525,distr,52100.00014305115,Mon Oct 06 2025 16:10:22 GMT-0400 (Eastern Daylight Time),786959.0999999996,B,d,I,d,1175,1,1183.6000000014901,785775.4999999981,9028,WL,C,3.0
6,8.083999872207642,distr,51916.00012779236,Mon Oct 06 2025 16:10:22 GMT-0400 (Eastern Daylight Time),787142.4999999981,B,di,I,i,155,1,1367.0,785775.4999999981,9028,WL,C,3.0
6,8.233000040054321,distr,51766.99995994568,Mon Oct 06 2025 16:10:22 GMT-0400 (Eastern Daylight Time),787292.2000000011,B,dia,I,a,124,1,1516.7000000029802,785775.4999999981,9028,WL,C,3.0
6,8.766999959945679,distr,51233.00004005432,Mon Oct 06 2025 16:10:22 GMT-0400 (Eastern Daylight Time),787825.4999999981,B,dian,I,n,509,1,2050.0,785775.4999999981,9028,WL,C,3.0
6,9.016999959945679,distr,50983.00004005432,Mon Oct 06 2025 16:10:22 GMT-0400 (Eastern Daylight Time),788075.7000000011,B,diano,I,o,228,1,2300.2000000029802,785775.4999999981,9028,WL,C,3.0
6,9.516999959945679,distr,50483.00004005432,Mon Oct 06 2025 16:10:22 GMT-0400 (Eastern Daylight Time),788575.7999999989,B,dian,I,backspace,486,1,2800.300000000745,785775.4999999981,9028,WL,C,3.0
6,10.467000007629395,distr,49532.999992370605,Mon Oct 06 2025 16:10:22 GMT-0400 (Eastern Daylight Time),789525.7000000011,B,dia,I,backspace,932,1,3750.2000000029802,785775.4999999981,9028,WL,C,3.0
6,11.184000015258789,distr,48815.99998474121,Mon Oct 06 2025 16:10:22 GMT-0400 (Eastern Daylight Time),790242.2999999989,B,diam,I,m,701,1,4466.800000000745,785775.4999999981,9028,WL,C,3.0
6,11.41700005531311,distr,48582.99994468689,Mon Oct 06 2025 16:10:22 GMT-0400 (Eastern Daylight Time),790475.7999999989,B,diamo,I,o,209,1,4700.300000000745,785775.4999999981,9028,WL,C,3.0
6,11.599999904632568,distr,48400.00009536743,Mon Oct 06 2025 16:10:22 GMT-0400 (Eastern Daylight Time),790659.0999999996,B,diamon,I,n,168,1,4883.60000000149,785775.4999999981,9028,WL,C,3.0
6,11.983999967575073,distr,48016.00003242493,Mon Oct 06 2025 16:10:22 GMT-0400 (Eastern Daylight Time),791042.4999999981,B,diamond,I,d,360,1,5267.0,785775.4999999981,9028,WL,C,3.0
6,12.41599988937378,distr,47584.00011062622,Mon Oct 06 2025 16:10:22 GMT-0400 (Eastern Daylight Time),791475.2000000011,B,diamondenter,I,enter,414,1,5699.70000000298,785775.4999999981,9028,WL,C,3.0
6,13.533999919891357,distr,46466.00008010864,Mon Oct 06 2025 16:10:22 GMT-0400 (Eastern Daylight Time),792592.4000000004,B,m,I,m,1107,1,1116.800000000745,791475.5999999996,9028,WL,C,4.0
6,13.766999959945679,distr,46233.00004005432,Mon Oct 06 2025 16:10:22 GMT-0400 (Eastern Daylight Time),792825.7999999989,B,mo,I,o,208,1,1350.199999999255,791475.5999999996,9028,WL,C,4.0
6,14.033999919891357,distr,45966.00008010864,Mon Oct 06 2025 16:10:22 GMT-0400 (Eastern Daylight Time),793092.4000000004,B,mot,I,t,248,1,1616.800000000745,791475.5999999996,9028,WL,C,4.0
6,14.134000062942505,distr,45865.999937057495,Mon Oct 06 2025 16:10:22 GMT-0400 (Eastern Daylight Time),793192.4000000004,B,moth,I,h,79,1,1716.800000000745,791475.5999999996,9028,WL,C,4.0
6,14.233999967575073,distr,45766.00003242493,Mon Oct 06 2025 16:10:22 GMT-0400 (Eastern Daylight Time),793292.4000000004,B,mothe,I,e,74,1,1816.800000000745,791475.5999999996,9028,WL,C,4.0
6,14.299999952316284,distr,45700.000047683716,Mon Oct 06 2025 16:10:22 GMT-0400 (Eastern Daylight Time),793358.7000000011,B,mother,I,r,47,1,1883.1000000014901,791475.5999999996,9028,WL,C,4.0
6,14.799999952316284,distr,45200.000047683716,Mon Oct 06 2025 16:10:22 GMT-0400 (Eastern Daylight Time),793858.7000000011,B,motherenter,I,enter,487,1,2383.10000000149,791475.5999999996,9028,WL,C,4.0
6,16.649999856948853,distr,43350.00014305115,Mon Oct 06 2025 16:10:22 GMT-0400 (Eastern Daylight Time),795709.2000000011,B,s,I,s,1844,1,1850.2000000029802,793858.9999999981,9028,WL,C,5.0
6,17.566999912261963,distr,42433.00008773804,Mon Oct 06 2025 16:10:22 GMT-0400 (Eastern Daylight Time),796625.7000000011,B,sk,I,k,900,1,2766.7000000029802,793858.9999999981,9028,WL,C,5.0
6,17.899999856948853,distr,42100.00014305115,Mon Oct 06 2025 16:10:22 GMT-0400 (Eastern Daylight Time),796958.7000000011,B,sky,I,y,320,1,3099.7000000029802,793858.9999999981,9028,WL,C,5.0
6,18.432999849319458,distr,41567.00015068054,Mon Oct 06 2025 16:10:22 GMT-0400 (Eastern Daylight Time),797491.9999999981,B,skyenter,I,enter,517,1,3633.0,793858.9999999981,9028,WL,C,5.0
6,18.950000047683716,distr,41049.999952316284,Mon Oct 06 2025 16:10:22 GMT-0400 (Eastern Daylight Time),798009.0999999996,B,c,I,c,498,1,516.8000000007451,797492.2999999989,9028,WL,C,6.0
6,19.134000062942505,distr,40865.999937057495,Mon Oct 06 2025 16:10:22 GMT-0400 (Eastern Daylight Time),798192.4999999981,B,ch,I,h,169,1,700.1999999992549,797492.2999999989,9028,WL,C,6.0
6,19.34999990463257,distr,40650.00009536743,Mon Oct 06 2025 16:10:22 GMT-0400 (Eastern Daylight Time),798409.0999999996,B,chr,I,r,185,1,916.8000000007451,797492.2999999989,9028,WL,C,6.0
6,19.59999990463257,distr,40400.00009536743,Mon Oct 06 2025 16:10:22 GMT-0400 (Eastern Daylight Time),798659.0999999996,B,chri,I,i,233,1,1166.800000000745,797492.2999999989,9028,WL,C,6.0
6,19.717000007629395,distr,40282.999992370605,Mon Oct 06 2025 16:10:22 GMT-0400 (Eastern Daylight Time),798775.7999999989,B,chris,I,s,96,1,1283.5,797492.2999999989,9028,WL,C,6.0
6,20.0,distr,40000.0,Mon Oct 06 2025 16:10:22 GMT-0400 (Eastern Daylight Time),799059.0999999996,B,christ,I,t,268,1,1566.800000000745,797492.2999999989,9028,WL,C,6.0
6,20.299999952316284,distr,39700.000047683716,Mon Oct 06 2025 16:10:22 GMT-0400 (Eastern Daylight Time),799358.9000000004,B,christm,I,m,287,1,1866.6000000014901,797492.2999999989,9028,WL,C,6.0
6,20.43400001525879,distr,39565.99998474121,Mon Oct 06 2025 16:10:22 GMT-0400 (Eastern Daylight Time),799492.4000000004,B,christma,I,a,115,1,2000.1000000014901,797492.2999999989,9028,WL,C,6.0
6,20.75,distr,39250.0,Mon Oct 06 2025 16:10:22 GMT-0400 (Eastern Daylight Time),799809.2000000011,B,christmas,I,s,303,1,2316.900000002235,797492.2999999989,9028,WL,C,6.0
6,22.08299994468689,distr,37917.00005531311,Mon Oct 06 2025 16:10:22 GMT-0400 (Eastern Daylight Time),801141.9999999981,B,christmasenter,I,enter,1314,1,3649.699999999255,797492.2999999989,9028,WL,C,6.0
6,23.450000047683716,distr,36549.999952316284,Mon Oct 06 2025 16:10:22 GMT-0400 (Eastern Daylight Time),802509.0999999996,B,m,I,m,1345,1,1366.8999999985099,801142.2000000011,9028,WL,C,7.0
6,24.59999990463257,distr,35400.00009536743,Mon Oct 06 2025 16:10:22 GMT-0400 (Eastern Daylight Time),803659.2000000011,B,mo,I,o,1126,1,2517.0,801142.2000000011,9028,WL,C,7.0
6,24.967000007629395,distr,35032.999992370605,Mon Oct 06 2025 16:10:22 GMT-0400 (Eastern Daylight Time),804025.4000000004,B,mon,I,n,342,1,2883.199999999255,801142.2000000011,9028,WL,C,7.0
6,25.634000062942505,distr,34365.999937057495,Mon Oct 06 2025 16:10:22 GMT-0400 (Eastern Daylight Time),804692.5999999996,B,mone,I,e,651,1,3550.39999999851,801142.2000000011,9028,WL,C,7.0
6,25.868000030517578,distr,34131.99996948242,Mon Oct 06 2025 16:10:22 GMT-0400 (Eastern Daylight Time),804926.7000000011,B,money,I,y,221,1,3784.5,801142.2000000011,9028,WL,C,7.0
6,26.549999952316284,distr,33450.000047683716,Mon Oct 06 2025 16:10:22 GMT-0400 (Eastern Daylight Time),805608.7000000011,B,moneyenter,I,enter,661,1,4466.5,801142.2000000011,9028,WL,C,7.0
6,30.149999856948853,distr,29850.000143051147,Mon Oct 06 2025 16:10:22 GMT-0400 (Eastern Daylight Time),809209.0999999996,B,v,I,v,3581,1,3600.10000000149,805608.9999999981,9028,WL,C,8.0
6,30.34999990463257,distr,29650.00009536743,Mon Oct 06 2025 16:10:22 GMT-0400 (Eastern Daylight Time),809409.0999999996,B,va,I,a,186,1,3800.10000000149,805608.9999999981,9028,WL,C,8.0
6,30.533999919891357,distr,29466.000080108643,Mon Oct 06 2025 16:10:22 GMT-0400 (Eastern Daylight Time),809592.4000000004,B,val,I,l,154,1,3983.400000002235,805608.9999999981,9028,WL,C,8.0
6,30.68400001525879,distr,29315.99998474121,Mon Oct 06 2025 16:10:22 GMT-0400 (Eastern Daylight Time),809742.2999999989,B,vall,I,l,139,1,4133.300000000745,805608.9999999981,9028,WL,C,8.0
6,30.76699995994568,distr,29233.00004005432,Mon Oct 06 2025 16:10:22 GMT-0400 (Eastern Daylight Time),809825.7000000011,B,valle,I,e,67,1,4216.70000000298,805608.9999999981,9028,WL,C,8.0
6,31.09999990463257,distr,28900.00009536743,Mon Oct 06 2025 16:10:22 GMT-0400 (Eastern Daylight Time),810158.9999999981,B,valley,I,y,320,1,4550.0,805608.9999999981,9028,WL,C,8.0
6,31.782999992370605,distr,28217.000007629395,Mon Oct 06 2025 16:10:22 GMT-0400 (Eastern Daylight Time),810841.9000000004,B,valleyenter,I,enter,660,1,5232.900000002235,805608.9999999981,9028,WL,C,8.0
6,37.06699991226196,distr,22933.000087738037,Mon Oct 06 2025 16:10:22 GMT-0400 (Eastern Daylight Time),816125.4999999981,B,h,I,h,5276,1,5283.199999999255,810842.2999999989,9028,WL,C,9.0
6,37.31699991226196,distr,22683.000087738037,Mon Oct 06 2025 16:10:22 GMT-0400 (Eastern Daylight Time),816375.7000000011,B,ho,I,o,229,1,5533.400000002235,810842.2999999989,9028,WL,C,9.0
6,37.634000062942505,distr,22365.999937057495,Mon Oct 06 2025 16:10:22 GMT-0400 (Eastern Daylight Time),816692.5999999996,B,hot,I,t,300,1,5850.300000000745,810842.2999999989,9028,WL,C,9.0
6,37.78399991989136,distr,22216.000080108643,Mon Oct 06 2025 16:10:22 GMT-0400 (Eastern Daylight Time),816842.4999999981,B,hote,I,e,125,1,6000.199999999255,810842.2999999989,9028,WL,C,9.0
6,38.43299984931946,distr,21567.000150680542,Mon Oct 06 2025 16:10:22 GMT-0400 (Eastern Daylight Time),817491.9999999981,B,hoteenter,I,enter,632,1,6649.699999999255,810842.2999999989,9028,WL,C,9.0
6,60.01699995994568,distr,-16.99995994567871,Mon Oct 06 2025 16:10:22 GMT-0400 (Eastern Daylight Time),839075.7999999989,B,None,I,None,21577,1,21583.5,817492.2999999989,9028,WL,C,10.0
7,1.9000000953674316,immed,58099.99990463257,Mon Oct 06 2025 16:10:22 GMT-0400 (Eastern Daylight Time),854742.2999999989,A,q,I,q,1881,1,1899.5,852842.7999999989,9028,WL,C,1.0
7,2.1500000953674316,immed,57849.99990463257,Mon Oct 06 2025 16:10:22 GMT-0400 (Eastern Daylight Time),854992.2999999989,A,qu,I,u,228,1,2149.5,852842.7999999989,9028,WL,C,1.0
7,2.450000047683716,immed,57549.999952316284,Mon Oct 06 2025 16:10:22 GMT-0400 (Eastern Daylight Time),855292.2999999989,A,que,I,e,274,1,2449.5,852842.7999999989,9028,WL,C,1.0
7,2.5829999446868896,immed,57417.00005531311,Mon Oct 06 2025 16:10:22 GMT-0400 (Eastern Daylight Time),855425.7999999989,A,quee,I,e,118,1,2583.0,852842.7999999989,9028,WL,C,1.0
7,3.065999984741211,immed,56934.00001525879,Mon Oct 06 2025 16:10:22 GMT-0400 (Eastern Daylight Time),855909.0999999996,A,queen,I,n,457,1,3066.300000000745,852842.7999999989,9028,WL,C,1.0
7,4.065999984741211,immed,55934.00001525879,Mon Oct 06 2025 16:10:22 GMT-0400 (Eastern Daylight Time),856908.4999999981,A,queenenter,I,enter,973,1,4065.699999999255,852842.7999999989,9028,WL,C,1.0
7,4.683000087738037,immed,55316.99991226196,Mon Oct 06 2025 16:10:22 GMT-0400 (Eastern Daylight Time),857525.9000000004,A,b,I,b,601,1,617.1000000014901,856908.7999999989,9028,WL,C,2.0
7,4.983000040054321,immed,55016.99995994568,Mon Oct 06 2025 16:10:22 GMT-0400 (Eastern Daylight Time),857825.7000000011,A,bo,I,o,285,1,916.9000000022352,856908.7999999989,9028,WL,C,2.0
7,5.416000127792358,immed,54583.99987220764,Mon Oct 06 2025 16:10:22 GMT-0400 (Eastern Daylight Time),858259.0999999996,A,boy,I,y,417,1,1350.300000000745,856908.7999999989,9028,WL,C,2.0
7,5.716000080108643,immed,54283.99991989136,Mon Oct 06 2025 16:10:22 GMT-0400 (Eastern Daylight Time),858558.5999999996,A,boyenter,I,enter,287,1,1649.800000000745,856908.7999999989,9028,WL,C,2.0
7,6.216000080108643,immed,53783.99991989136,Mon Oct 06 2025 16:10:22 GMT-0400 (Eastern Daylight Time),859058.9999999981,A,d,I,d,487,1,500.19999999925494,858558.7999999989,9028,WL,C,3.0
7,6.58299994468689,immed,53417.00005531311,Mon Oct 06 2025 16:10:22 GMT-0400 (Eastern Daylight Time),859425.5999999996,A,do,I,o,352,1,866.8000000007451,858558.7999999989,9028,WL,C,3.0
7,6.749000072479248,immed,53250.99992752075,Mon Oct 06 2025 16:10:22 GMT-0400 (Eastern Daylight Time),859592.2000000011,A,doc,I,c,145,1,1033.4000000022352,858558.7999999989,9028,WL,C,3.0
7,7.08299994468689,immed,52917.00005531311,Mon Oct 06 2025 16:10:22 GMT-0400 (Eastern Daylight Time),859925.7999999989,A,doct,I,t,315,1,1367.0,858558.7999999989,9028,WL,C,3.0
7,7.348999977111816,immed,52651.00002288818,Mon Oct 06 2025 16:10:22 GMT-0400 (Eastern Daylight Time),860192.2999999989,A,docto,I,o,252,1,1633.5,858558.7999999989,9028,WL,C,3.0
7,7.683000087738037,immed,52316.99991226196,Mon Oct 06 2025 16:10:22 GMT-0400 (Eastern Daylight Time),860525.2999999989,A,doctor,I,r,321,1,1966.5,858558.7999999989,9028,WL,C,3.0
7,8.299000024795532,immed,51700.99997520447,Mon Oct 06 2025 16:10:22 GMT-0400 (Eastern Daylight Time),861141.7999999989,A,doctorenter,I,enter,598,1,2583.0,858558.7999999989,9028,WL,C,3.0
7,9.115999937057495,immed,50884.000062942505,Mon Oct 06 2025 16:10:22 GMT-0400 (Eastern Daylight Time),861958.9999999981,A,c,I,c,800,1,816.7999999970198,861142.2000000011,9028,WL,C,4.0
7,9.282999992370605,immed,50717.000007629395,Mon Oct 06 2025 16:10:22 GMT-0400 (Eastern Daylight Time),862125.4000000004,A,ca,I,a,156,1,983.1999999992549,861142.2000000011,9028,WL,C,4.0
7,9.815999984741211,immed,50184.00001525879,Mon Oct 06 2025 16:10:22 GMT-0400 (Eastern Daylight Time),862658.7000000011,A,can,I,n,508,1,1516.5,861142.2000000011,9028,WL,C,4.0
7,10.266000032424927,immed,49733.99996757507,Mon Oct 06 2025 16:10:22 GMT-0400 (Eastern Daylight Time),863108.9999999981,A,ca,I,backspace,436,1,1966.7999999970198,861142.2000000011,9028,WL,C,4.0
7,11.817000150680542,immed,48182.99984931946,Mon Oct 06 2025 16:10:22 GMT-0400 (Eastern Daylight Time),864659.4999999981,A,cam,I,m,1534,1,3517.2999999970198,861142.2000000011,9028,WL,C,4.0
7,12.249000072479248,immed,47750.99992752075,Mon Oct 06 2025 16:10:22 GMT-0400 (Eastern Daylight Time),865092.2999999989,A,camp,I,p,419,1,3950.099999997765,861142.2000000011,9028,WL,C,4.0
7,12.598999977111816,immed,47401.00002288818,Mon Oct 06 2025 16:10:22 GMT-0400 (Eastern Daylight Time),865441.7999999989,A,campenter,I,enter,332,1,4299.599999997765,861142.2000000011,9028,WL,C,4.0
7,13.115999937057495,immed,46884.000062942505,Mon Oct 06 2025 16:10:22 GMT-0400 (Eastern Daylight Time),865959.0999999996,A,f,I,f,500,1,516.8999999985099,865442.2000000011,9028,WL,C,5.0
7,13.315999984741211,immed,46684.00001525879,Mon Oct 06 2025 16:10:22 GMT-0400 (Eastern Daylight Time),866158.9999999981,A,fl,I,l,179,1,716.7999999970198,865442.2000000011,9028,WL,C,5.0
7,13.549999952316284,immed,46450.000047683716,Mon Oct 06 2025 16:10:22 GMT-0400 (Eastern Daylight Time),866392.2999999989,A,fla,I,a,212,1,950.0999999977648,865442.2000000011,9028,WL,C,5.0
7,14.350000143051147,immed,45649.99985694885,Mon Oct 06 2025 16:10:22 GMT-0400 (Eastern Daylight Time),867192.2999999989,A,flag,I,g,780,1,1750.0999999977648,865442.2000000011,9028,WL,C,5.0
7,14.8989999294281,immed,45101.0000705719,Mon Oct 06 2025 16:10:22 GMT-0400 (Eastern Daylight Time),867741.7999999989,A,flagenter,I,enter,537,1,2299.599999997765,865442.2000000011,9028,WL,C,5.0
7,18.466000080108643,immed,41533.99991989136,Mon Oct 06 2025 16:10:22 GMT-0400 (Eastern Daylight Time),871309.2999999989,A,s,I,s,3560,1,3567.099999997765,867742.2000000011,9028,WL,C,6.0
7,18.81599998474121,immed,41184.00001525879,Mon Oct 06 2025 16:10:22 GMT-0400 (Eastern Daylight Time),871659.0999999996,A,su,I,u,326,1,3916.89999999851,867742.2000000011,9028,WL,C,6.0
7,19.115999937057495,immed,40884.000062942505,Mon Oct 06 2025 16:10:22 GMT-0400 (Eastern Daylight Time),871959.0999999996,A,sug,I,g,279,1,4216.89999999851,867742.2000000011,9028,WL,C,6.0
7,19.299000024795532,immed,40700.99997520447,Mon Oct 06 2025 16:10:22 GMT-0400 (Eastern Daylight Time),872142.2000000011,A,suga,I,a,171,1,4400.0,867742.2000000011,9028,WL,C,6.0
7,19.883000135421753,immed,40116.99986457825,Mon Oct 06 2025 16:10:22 GMT-0400 (Eastern Daylight Time),872725.7000000011,A,sugar,I,r,566,1,4983.5,867742.2000000011,9028,WL,C,6.0
7,20.365999937057495,immed,39634.000062942505,Mon Oct 06 2025 16:10:22 GMT-0400 (Eastern Daylight Time),873208.5999999996,A,sugarenter,I,enter,455,1,5466.39999999851,867742.2000000011,9028,WL,C,6.0
7,20.83299994468689,immed,39167.00005531311,Mon Oct 06 2025 16:10:22 GMT-0400 (Eastern Daylight Time),873675.5999999996,A,n,I,n,445,1,466.69999999925494,873208.9000000004,9028,WL,C,7.0
7,21.0,immed,39000.0,Mon Oct 06 2025 16:10:22 GMT-0400 (Eastern Daylight Time),873842.2999999989,A,na,I,a,152,1,633.3999999985099,873208.9000000004,9028,WL,C,7.0
7,21.23300004005432,immed,38766.99995994568,Mon Oct 06 2025 16:10:22 GMT-0400 (Eastern Daylight Time),874075.7000000011,A,nai,I,i,208,1,866.8000000007451,873208.9000000004,9028,WL,C,7.0
7,21.516000032424927,immed,38483.99996757507,Mon Oct 06 2025 16:10:22 GMT-0400 (Eastern Daylight Time),874358.9999999981,A,nail,I,l,260,1,1150.0999999977648,873208.9000000004,9028,WL,C,7.0
7,22.06599998474121,immed,37934.00001525879,Mon Oct 06 2025 16:10:22 GMT-0400 (Eastern Daylight Time),874908.5999999996,A,nailenter,I,enter,524,1,1699.699999999255,873208.9000000004,9028,WL,C,7.0
7,24.933000087738037,immed,35066.99991226196,Mon Oct 06 2025 16:10:22 GMT-0400 (Eastern Daylight Time),877775.5999999996,A,w,I,w,2856,1,2866.699999999255,874908.9000000004,9028,WL,C,8.0
7,25.115999937057495,immed,34884.000062942505,Mon Oct 06 2025 16:10:22 GMT-0400 (Eastern Daylight Time),877959.0999999996,A,wh,I,h,163,1,3050.199999999255,874908.9000000004,9028,WL,C,8.0
7,25.266000032424927,immed,34733.99996757507,Mon Oct 06 2025 16:10:22 GMT-0400 (Eastern Daylight Time),878109.0999999996,A,whe,I,e,129,1,3200.199999999255,874908.9000000004,9028,WL,C,8.0
7,25.466000080108643,immed,34533.99991989136,Mon Oct 06 2025 16:10:22 GMT-0400 (Eastern Daylight Time),878309.0999999996,A,whea,I,a,173,1,3400.199999999255,874908.9000000004,9028,WL,C,8.0
7,25.66600012779236,immed,34333.99987220764,Mon Oct 06 2025 16:10:22 GMT-0400 (Eastern Daylight Time),878508.9999999981,A,wheat,I,t,173,1,3600.099999997765,874908.9000000004,9028,WL,C,8.0
7,26.098999977111816,immed,33901.00002288818,Mon Oct 06 2025 16:10:22 GMT-0400 (Eastern Daylight Time),878941.7999999989,A,wheatenter,I,enter,414,1,4032.89999999851,874908.9000000004,9028,WL,C,8.0
7,26.40000009536743,immed,33599.99990463257,Mon Oct 06 2025 16:10:22 GMT-0400 (Eastern Daylight Time),879242.2999999989,A,c,I,c,280,1,300.0999999977648,878942.2000000011,9028,WL,C,9.0
7,26.700000047683716,immed,33299.999952316284,Mon Oct 06 2025 16:10:22 GMT-0400 (Eastern Daylight Time),879542.4000000004,A,co,I,o,279,1,600.1999999992549,878942.2000000011,9028,WL,C,9.0
7,26.98200011253357,immed,33017.99988746643,Mon Oct 06 2025 16:10:22 GMT-0400 (Eastern Daylight Time),879825.0999999996,A,cor,I,r,268,1,882.8999999985099,878942.2000000011,9028,WL,C,9.0
7,27.33299994468689,immed,32667.00005531311,Mon Oct 06 2025 16:10:22 GMT-0400 (Eastern Daylight Time),880175.7000000011,A,corn,I,n,341,1,1233.5,878942.2000000011,9028,WL,C,9.0
7,27.98300004005432,immed,32016.99995994568,Mon Oct 06 2025 16:10:22 GMT-0400 (Eastern Daylight Time),880826.2999999989,A,cornenter,I,enter,627,1,1884.0999999977648,878942.2000000011,9028,WL,C,9.0
7,28.683000087738037,immed,31316.999912261963,Mon Oct 06 2025 16:10:22 GMT-0400 (Eastern Daylight Time),881525.7000000011,A,q,I,q,684,1,699.2000000029802,880826.4999999981,9028,WL,C,10.0
7,28.8989999294281,immed,31101.0000705719,Mon Oct 06 2025 16:10:22 GMT-0400 (Eastern Daylight Time),881742.2000000011,A,qu,I,u,203,1,915.7000000029802,880826.4999999981,9028,WL,C,10.0
7,29.16600012779236,immed,30833.99987220764,Mon Oct 06 2025 16:10:22 GMT-0400 (Eastern Daylight Time),882009.0999999996,A,que,I,e,244,1,1182.6000000014901,880826.4999999981,9028,WL,C,10.0
7,29.31599998474121,immed,30684.00001525879,Mon Oct 06 2025 16:10:22 GMT-0400 (Eastern Daylight Time),882158.9999999981,A,quee,I,e,136,1,1332.5,880826.4999999981,9028,WL,C,10.0
7,29.799999952316284,immed,30200.000047683716,Mon Oct 06 2025 16:10:22 GMT-0400 (Eastern Daylight Time),882642.4000000004,A,queen,I,n,460,1,1815.9000000022352,880826.4999999981,9028,WL,C,10.0
7,30.381999969482422,immed,29618.000030517578,Mon Oct 06 2025 16:10:22 GMT-0400 (Eastern Daylight Time),883225.2000000011,A,queenenter,I,enter,561,1,2398.7000000029802,880826.4999999981,9028,WL,C,10.0
7,35.1489999294281,immed,24851.0000705719,Mon Oct 06 2025 16:10:22 GMT-0400 (Eastern Daylight Time),887992.2999999989,A,b,I,b,4748,1,4766.800000000745,883225.4999999981,9028,WL,C,11.0
7,35.46600008010864,immed,24533.999919891357,Mon Oct 06 2025 16:10:22 GMT-0400 (Eastern Daylight Time),888308.9999999981,A,bo,I,o,296,1,5083.5,883225.4999999981,9028,WL,C,11.0
7,36.115999937057495,immed,23884.000062942505,Mon Oct 06 2025 16:10:22 GMT-0400 (Eastern Daylight Time),888958.7000000011,A,bod,I,d,638,1,5733.20000000298,883225.4999999981,9028,WL,C,11.0
7,36.54900002479553,immed,23450.999975204468,Mon Oct 06 2025 16:10:22 GMT-0400 (Eastern Daylight Time),889392.2999999989,A,body,I,y,420,1,6166.800000000745,883225.4999999981,9028,WL,C,11.0
7,37.181999921798706,immed,22818.000078201294,Mon Oct 06 2025 16:10:22 GMT-0400 (Eastern Daylight Time),890025.0999999996,A,bodyenter,I,enter,611,1,6799.60000000149,883225.4999999981,9028,WL,C,11.0
7,41.8989999294281,immed,18101.0000705719,Mon Oct 06 2025 16:10:22 GMT-0400 (Eastern Daylight Time),894742.2999999989,A,s,I,s,4701,1,4716.699999999255,890025.5999999996,9028,WL,C,12.0
7,42.08400011062622,immed,17915.99988937378,Mon Oct 06 2025 16:10:22 GMT-0400 (Eastern Daylight Time),894926.5999999996,A,sh,I,h,173,1,4901.0,890025.5999999996,9028,WL,C,12.0
7,42.33299994468689,immed,17667.00005531311,Mon Oct 06 2025 16:10:22 GMT-0400 (Eastern Daylight Time),895175.7000000011,A,sho,I,o,229,1,5150.10000000149,890025.5999999996,9028,WL,C,12.0
7,42.63199996948242,immed,17368.000030517578,Mon Oct 06 2025 16:10:22 GMT-0400 (Eastern Daylight Time),895474.7999999989,A,shor,I,r,281,1,5449.199999999255,890025.5999999996,9028,WL,C,12.0
7,42.79900002479553,immed,17200.999975204468,Mon Oct 06 2025 16:10:22 GMT-0400 (Eastern Daylight Time),895641.4999999981,A,shore,I,e,145,1,5615.89999999851,890025.5999999996,9028,WL,C,12.0
7,43.115999937057495,immed,16884.000062942505,Mon Oct 06 2025 16:10:22 GMT-0400 (Eastern Daylight Time),895958.4999999981,A,shoreenter,I,enter,300,1,5932.89999999851,890025.5999999996,9028,WL,C,12.0
7,45.950000047683716,immed,14049.999952316284,Mon Oct 06 2025 16:10:22 GMT-0400 (Eastern Daylight Time),898792.4000000004,A,h,I,h,2816,1,2833.5,895958.9000000004,9028,WL,C,13.0
7,46.16600012779236,immed,13833.999872207642,Mon Oct 06 2025 16:10:22 GMT-0400 (Eastern Daylight Time),899008.7999999989,A,ho,I,o,193,1,3049.89999999851,895958.9000000004,9028,WL,C,13.0
7,46.41600012779236,immed,13583.999872207642,Mon Oct 06 2025 16:10:22 GMT-0400 (Eastern Daylight Time),899258.9999999981,A,hom,I,m,225,1,3300.099999997765,895958.9000000004,9028,WL,C,13.0
7,46.60000014305115,immed,13399.999856948853,Mon Oct 06 2025 16:10:22 GMT-0400 (Eastern Daylight Time),899442.4000000004,A,home,I,e,166,1,3483.5,895958.9000000004,9028,WL,C,13.0
7,47.54900002479553,immed,12450.999975204468,Mon Oct 06 2025 16:10:22 GMT-0400 (Eastern Daylight Time),900391.7999999989,A,homeenter,I,enter,928,1,4432.89999999851,895958.9000000004,9028,WL,C,13.0
7,60.01600003242493,immed,-16.000032424926758,Mon Oct 06 2025 16:10:22 GMT-0400 (Eastern Daylight Time),912859.0999999996,A,None,I,None,12461,1,12466.89999999851,900392.2000000011,9028,WL,C,14.0
