acc_sum,block,block_c,change,condition,correct,correct_response,datetime,endtime,face,project,response,response_time,row_sel,session_number,start_end,starttime,subject_id,task,task_vers,trial
0,prac,1,,1-Back,,,Thu Mar 19 2026 15:13:16 GMT-0400 (Eastern Daylight Time),,124_o_f_d_a.png,I,space,6031,1,1,,,9059,VNB,A,0
0,prac,1,0.0,1-Back,0.0,m,Thu Mar 19 2026 15:13:16 GMT-0400 (Eastern Daylight Time),178668.79999995232,071_y_f_n_a.png,I,z,945,2,1,1742.0999999046326,176926.70000004768,9059,VNB,A,1
0,prac,1,0.0,1-Back,0.0,m,Thu Mar 19 2026 15:13:16 GMT-0400 (Eastern Daylight Time),180718.79999995232,165_m_m_h_a.png,I,z,1249,3,1,2040.2999999523163,178678.5,9059,VNB,A,2
0,prac,1,0.0,1-Back,0.0,m,Thu Mar 19 2026 15:13:16 GMT-0400 (Eastern Daylight Time),182402.0,109_y_m_d_a.png,I,z,868,4,1,1674.2000000476837,180727.79999995232,9059,VNB,A,3
0,prac,1,0.0,1-Back,0.0,m,Thu Mar 19 2026 15:13:16 GMT-0400 (Eastern Daylight Time),185236.70000004768,124_o_f_n_a.png,I,None,2012,5,1,2825.2000000476837,182411.5,9059,VNB,A,4
0,prac,1,1.0,1-Back,0.0,z,Thu Mar 19 2026 15:13:16 GMT-0400 (Eastern Daylight Time),186951.70000004768,109_y_m_n_a.png,I,m,909,6,1,1706.2000000476837,185245.5,9059,VNB,A,5
0,prac,1,0.0,1-Back,0.0,m,Thu Mar 19 2026 15:13:16 GMT-0400 (Eastern Daylight Time),188669.20000004768,039_o_m_h_a.png,I,z,923,7,1,1709.9000000953674,186959.29999995232,9059,VNB,A,6
1,prac,1,0.0,1-Back,1.0,m,Thu Mar 19 2026 15:13:16 GMT-0400 (Eastern Daylight Time),190918.79999995232,139_m_f_d_a.png,I,m,1446,8,1,2237.399999976158,188681.39999997616,9059,VNB,A,7
1,prac,1,1.0,1-Back,0.0,z,Thu Mar 19 2026 15:13:16 GMT-0400 (Eastern Daylight Time),192535.10000002384,071_y_f_d_a.png,I,m,820,9,1,1607.6000000238419,190927.5,9059,VNB,A,8
1,prac,1,0.0,1-Back,0.0,m,Thu Mar 19 2026 15:13:16 GMT-0400 (Eastern Daylight Time),195335.60000002384,165_m_m_n_a.png,I,None,2004,10,1,2792.8000000715256,192542.79999995232,9059,VNB,A,9
1,prac,1,0.0,1-Back,0.0,m,Thu Mar 19 2026 15:13:16 GMT-0400 (Eastern Daylight Time),197401.70000004768,124_o_f_h_a.png,I,z,1241,11,1,2056.0,195345.70000004768,9059,VNB,A,10
2,prac,1,0.0,1-Back,1.0,m,Thu Mar 19 2026 15:13:16 GMT-0400 (Eastern Daylight Time),198951.70000004768,109_y_m_d_a.png,I,m,763,12,1,1541.9000000953674,197409.79999995232,9059,VNB,A,11
0,prac,2,0.0,1-Back,,,Thu Mar 19 2026 15:13:16 GMT-0400 (Eastern Daylight Time),198951.70000004768,124_o_f_d_a.png,I,a,17510,1,1,1541.9000000953674,197409.79999995232,9059,VNB,A,0
0,prac,2,0.0,1-Back,0.0,m,Thu Mar 19 2026 15:13:16 GMT-0400 (Eastern Daylight Time),221219.10000002384,071_y_f_n_a.png,I,z,911,2,1,1706.1000000238419,219513.0,9059,VNB,A,1
0,prac,2,0.0,1-Back,0.0,m,Thu Mar 19 2026 15:13:16 GMT-0400 (Eastern Daylight Time),223685.20000004768,165_m_m_h_a.png,I,z,1668,3,1,2457.600000023842,221227.60000002384,9059,VNB,A,2
0,prac,2,0.0,1-Back,0.0,m,Thu Mar 19 2026 15:13:16 GMT-0400 (Eastern Daylight Time),226469.29999995232,109_y_m_d_a.png,I,None,2009,4,1,2776.1999999284744,223693.10000002384,9059,VNB,A,3
0,prac,2,0.0,1-Back,0.0,m,Thu Mar 19 2026 15:13:16 GMT-0400 (Eastern Daylight Time),229070.0,124_o_f_n_a.png,I,z,1784,5,1,2591.0,226479.0,9059,VNB,A,4
0,prac,2,1.0,1-Back,0.0,z,Thu Mar 19 2026 15:13:16 GMT-0400 (Eastern Daylight Time),231551.89999997616,109_y_m_n_a.png,I,m,1676,6,1,2473.6999999284744,229078.20000004768,9059,VNB,A,5
1,prac,2,0.0,1-Back,1.0,m,Thu Mar 19 2026 15:13:16 GMT-0400 (Eastern Daylight Time),234320.0,039_o_m_h_a.png,I,m,1962,7,1,2760.5,231559.5,9059,VNB,A,6
1,prac,2,0.0,1-Back,0.0,m,Thu Mar 19 2026 15:13:16 GMT-0400 (Eastern Daylight Time),236735.29999995232,139_m_f_d_a.png,I,z,1608,8,1,2408.0999999046326,234327.20000004768,9059,VNB,A,7
2,prac,2,1.0,1-Back,1.0,z,Thu Mar 19 2026 15:13:16 GMT-0400 (Eastern Daylight Time),238951.79999995232,071_y_f_d_a.png,I,z,1419,9,1,2209.899999976158,236741.89999997616,9059,VNB,A,8
3,prac,2,0.0,1-Back,1.0,m,Thu Mar 19 2026 15:13:16 GMT-0400 (Eastern Daylight Time),241085.10000002384,165_m_m_n_a.png,I,m,1337,10,1,2126.2000000476837,238958.89999997616,9059,VNB,A,9
4,prac,2,0.0,1-Back,1.0,m,Thu Mar 19 2026 15:13:16 GMT-0400 (Eastern Daylight Time),243470.5,124_o_f_h_a.png,I,m,1564,11,1,2378.600000023842,241091.89999997616,9059,VNB,A,10
4,prac,2,0.0,1-Back,0.0,m,Thu Mar 19 2026 15:13:16 GMT-0400 (Eastern Daylight Time),245901.89999997616,109_y_m_d_a.png,I,z,1647,12,1,2423.7999999523163,243478.10000002384,9059,VNB,A,11
0,test,1,0.0,1-Back,,,Thu Mar 19 2026 15:13:16 GMT-0400 (Eastern Daylight Time),245901.89999997616,071_y_f_d_a.png,I,space,2757,1,1,2423.7999999523163,243478.10000002384,9059,VNB,A,0
0,test,1,0.0,1-Back,0.0,m,Thu Mar 19 2026 15:13:16 GMT-0400 (Eastern Daylight Time),273768.7999999523,139_m_f_n_a.png,I,None,2016,2,1,3028.2999999523163,270740.5,9059,VNB,A,1
1,test,1,0.0,1-Back,1.0,m,Thu Mar 19 2026 15:13:16 GMT-0400 (Eastern Daylight Time),276468.5,039_o_m_h_a.png,I,m,1667,3,1,2694.600000023842,273773.89999997616,9059,VNB,A,2
1,test,1,1.0,1-Back,0.0,z,Thu Mar 19 2026 15:13:16 GMT-0400 (Eastern Daylight Time),278886.0,165_m_m_h_a.png,I,m,1399,4,1,2411.5,276474.5,9059,VNB,A,3
1,test,1,0.0,1-Back,0.0,m,Thu Mar 19 2026 15:13:16 GMT-0400 (Eastern Daylight Time),281185.7000000477,124_o_f_n_a.png,I,z,1280,5,1,2294.8000000715256,278890.89999997616,9059,VNB,A,4
2,test,1,0.0,1-Back,1.0,m,Thu Mar 19 2026 15:13:16 GMT-0400 (Eastern Daylight Time),283419.0,109_y_m_d_a.png,I,m,1211,6,1,2227.7999999523163,281191.2000000477,9059,VNB,A,5
3,test,1,1.0,1-Back,1.0,z,Thu Mar 19 2026 15:13:16 GMT-0400 (Eastern Daylight Time),286252.60000002384,139_m_f_d_a.png,I,z,1801,7,1,2828.600000023842,283424.0,9059,VNB,A,6
4,test,1,0.0,1-Back,1.0,m,Thu Mar 19 2026 15:13:16 GMT-0400 (Eastern Daylight Time),288919.5,071_y_f_h_a.png,I,m,1641,8,1,2661.7000000476837,286257.7999999523,9059,VNB,A,7
5,test,1,0.0,1-Back,1.0,m,Thu Mar 19 2026 15:13:16 GMT-0400 (Eastern Daylight Time),291436.39999997616,039_o_m_n_a.png,I,m,1486,9,1,2509.7999999523163,288926.60000002384,9059,VNB,A,8
6,test,1,0.0,1-Back,1.0,m,Thu Mar 19 2026 15:13:16 GMT-0400 (Eastern Daylight Time),293802.7999999523,109_y_m_h_a.png,I,m,1337,10,1,2361.0,291441.7999999523,9059,VNB,A,9
6,test,1,0.0,1-Back,0.0,m,Thu Mar 19 2026 15:13:16 GMT-0400 (Eastern Daylight Time),296319.2999999523,039_o_m_d_a.png,I,z,1500,11,1,2509.2999999523163,293810.0,9059,VNB,A,10
6,test,1,1.0,1-Back,0.0,z,Thu Mar 19 2026 15:13:16 GMT-0400 (Eastern Daylight Time),298902.60000002384,124_o_f_d_a.png,I,m,1558,12,1,2576.8000000715256,296325.7999999523,9059,VNB,A,11
6,test,1,0.0,1-Back,0.0,m,Thu Mar 19 2026 15:13:16 GMT-0400 (Eastern Daylight Time),300835.2000000477,165_m_m_n_a.png,I,z,902,13,1,1926.6000000238419,298908.60000002384,9059,VNB,A,12
7,test,1,1.0,1-Back,1.0,z,Thu Mar 19 2026 15:13:16 GMT-0400 (Eastern Daylight Time),303285.2000000477,071_y_f_n_a.png,I,z,1425,14,1,2444.7000000476837,300840.5,9059,VNB,A,13
8,test,1,0.0,1-Back,1.0,m,Thu Mar 19 2026 15:13:16 GMT-0400 (Eastern Daylight Time),305802.0,139_m_f_h_a.png,I,m,1495,15,1,2510.7999999523163,303291.2000000477,9059,VNB,A,14
8,test,1,0.0,1-Back,0.0,m,Thu Mar 19 2026 15:13:16 GMT-0400 (Eastern Daylight Time),308835.89999997616,165_m_m_d_a.png,I,None,2016,16,1,3028.2999999523163,305807.60000002384,9059,VNB,A,15
9,test,1,0.0,1-Back,1.0,m,Thu Mar 19 2026 15:13:16 GMT-0400 (Eastern Daylight Time),311685.2999999523,109_y_m_n_a.png,I,m,1825,17,1,2844.0999999046326,308841.2000000477,9059,VNB,A,16
10,test,1,0.0,1-Back,1.0,m,Thu Mar 19 2026 15:13:16 GMT-0400 (Eastern Daylight Time),314301.7000000477,124_o_f_h_a.png,I,m,1599,18,1,2611.0,311690.7000000477,9059,VNB,A,17
0,test,2,0.0,1-Back,,,Thu Mar 19 2026 15:13:16 GMT-0400 (Eastern Daylight Time),314301.7000000477,109_y_m_n_a.png,I,space,4791,1,1,2611.0,311690.7000000477,9059,VNB,A,0
1,test,2,0.0,1-Back,1.0,m,Thu Mar 19 2026 15:13:16 GMT-0400 (Eastern Daylight Time),323053.10000002384,071_y_f_h_a.png,I,m,916,2,1,1928.3000000715256,321124.7999999523,9059,VNB,A,1
2,test,2,1.0,1-Back,1.0,m,Thu Mar 19 2026 15:13:16 GMT-0400 (Eastern Daylight Time),325452.39999997616,039_o_m_n_a.png,I,m,1377,3,1,2393.899999976158,323058.5,9059,VNB,A,2
2,test,2,0.0,1-Back,0.0,m,Thu Mar 19 2026 15:13:16 GMT-0400 (Eastern Daylight Time),327935.7999999523,139_m_f_d_a.png,I,z,1456,4,1,2477.2999999523163,325458.5,9059,VNB,A,3
3,test,2,0.0,1-Back,1.0,z,Thu Mar 19 2026 15:13:16 GMT-0400 (Eastern Daylight Time),330085.2000000477,165_m_m_d_a.png,I,z,1132,5,1,2144.4000000953674,327940.7999999523,9059,VNB,A,4
4,test,2,0.0,1-Back,1.0,m,Thu Mar 19 2026 15:13:16 GMT-0400 (Eastern Daylight Time),332302.0,109_y_m_h_a.png,I,m,1200,6,1,2212.0,330090.0,9059,VNB,A,5
4,test,2,1.0,1-Back,0.0,z,Thu Mar 19 2026 15:13:16 GMT-0400 (Eastern Daylight Time),334819.60000002384,124_o_f_h_a.png,I,m,1494,7,1,2511.399999976158,332308.2000000477,9059,VNB,A,6
5,test,2,0.0,1-Back,1.0,m,Thu Mar 19 2026 15:13:16 GMT-0400 (Eastern Daylight Time),337218.60000002384,139_m_f_n_a.png,I,m,1377,8,1,2392.3000000715256,334826.2999999523,9059,VNB,A,7
6,test,2,0.0,1-Back,1.0,m,Thu Mar 19 2026 15:13:16 GMT-0400 (Eastern Daylight Time),339819.89999997616,071_y_f_d_a.png,I,m,1569,9,1,2595.0,337224.89999997616,9059,VNB,A,8
7,test,2,0.0,1-Back,1.0,m,Thu Mar 19 2026 15:13:16 GMT-0400 (Eastern Daylight Time),342704.5,165_m_m_n_a.png,I,m,1865,10,1,2879.2999999523163,339825.2000000477,9059,VNB,A,9
8,test,2,1.0,1-Back,1.0,m,Thu Mar 19 2026 15:13:16 GMT-0400 (Eastern Daylight Time),345619.39999997616,139_m_f_h_a.png,I,m,1895,11,1,2910.1999999284744,342709.2000000477,9059,VNB,A,10
8,test,2,0.0,1-Back,0.0,z,Thu Mar 19 2026 15:13:16 GMT-0400 (Eastern Daylight Time),347752.2999999523,039_o_m_h_a.png,I,m,1107,12,1,2128.6999999284744,345623.60000002384,9059,VNB,A,11
8,test,2,0.0,1-Back,0.0,m,Thu Mar 19 2026 15:13:16 GMT-0400 (Eastern Daylight Time),350769.7999999523,109_y_m_d_a.png,I,None,2001,13,1,3011.5999999046326,347758.2000000477,9059,VNB,A,12
9,test,2,0.0,1-Back,1.0,m,Thu Mar 19 2026 15:13:16 GMT-0400 (Eastern Daylight Time),353136.60000002384,124_o_f_n_a.png,I,m,1348,14,1,2359.0,350777.60000002384,9059,VNB,A,13
9,test,2,0.0,1-Back,0.0,z,Thu Mar 19 2026 15:13:16 GMT-0400 (Eastern Daylight Time),356002.2000000477,071_y_f_n_a.png,I,m,1844,15,1,2859.3000000715256,353142.89999997616,9059,VNB,A,14
10,test,2,1.0,1-Back,1.0,m,Thu Mar 19 2026 15:13:16 GMT-0400 (Eastern Daylight Time),358301.7000000477,165_m_m_h_a.png,I,m,1273,16,1,2292.4000000953674,356009.2999999523,9059,VNB,A,15
11,test,2,0.0,1-Back,1.0,m,Thu Mar 19 2026 15:13:16 GMT-0400 (Eastern Daylight Time),360568.7999999523,124_o_f_d_a.png,I,m,1238,17,1,2261.7999999523163,358307.0,9059,VNB,A,16
12,test,2,1.0,1-Back,1.0,z,Thu Mar 19 2026 15:13:16 GMT-0400 (Eastern Daylight Time),363085.10000002384,039_o_m_d_a.png,I,z,1489,18,1,2510.600000023842,360574.5,9059,VNB,A,17
0,test,3,1.0,1-Back,,,Thu Mar 19 2026 15:13:16 GMT-0400 (Eastern Daylight Time),363085.10000002384,124_o_f_h_a.png,I,space,2263,1,1,2510.600000023842,360574.5,9059,VNB,A,0
1,test,3,0.0,1-Back,1.0,m,Thu Mar 19 2026 15:13:16 GMT-0400 (Eastern Daylight Time),369251.7000000477,139_m_f_d_a.png,I,m,825,2,1,1843.9000000953674,367407.7999999523,9059,VNB,A,1
2,test,3,1.0,1-Back,1.0,m,Thu Mar 19 2026 15:13:16 GMT-0400 (Eastern Daylight Time),371701.7999999523,165_m_m_n_a.png,I,m,1423,3,1,2444.899999976158,369256.89999997616,9059,VNB,A,2
3,test,3,0.0,1-Back,1.0,z,Thu Mar 19 2026 15:13:16 GMT-0400 (Eastern Daylight Time),373735.2999999523,124_o_f_n_a.png,I,z,1006,4,1,2028.0999999046326,371707.2000000477,9059,VNB,A,3
3,test,3,1.0,1-Back,0.0,m,Thu Mar 19 2026 15:13:16 GMT-0400 (Eastern Daylight Time),376068.89999997616,039_o_m_d_a.png,I,z,1316,5,1,2328.6999999284744,373740.2000000477,9059,VNB,A,4
4,test,3,0.0,1-Back,1.0,m,Thu Mar 19 2026 15:13:16 GMT-0400 (Eastern Daylight Time),377969.5,071_y_f_h_a.png,I,m,880,6,1,1895.5,376074.0,9059,VNB,A,5
5,test,3,0.0,1-Back,1.0,z,Thu Mar 19 2026 15:13:16 GMT-0400 (Eastern Daylight Time),379652.39999997616,109_y_m_h_a.png,I,z,651,7,1,1675.6999999284744,377976.7000000477,9059,VNB,A,6
6,test,3,0.0,1-Back,1.0,m,Thu Mar 19 2026 15:13:16 GMT-0400 (Eastern Daylight Time),382035.2999999523,139_m_f_n_a.png,I,m,1351,8,1,2377.0999999046326,379658.2000000477,9059,VNB,A,7
7,test,3,0.0,1-Back,1.0,m,Thu Mar 19 2026 15:13:16 GMT-0400 (Eastern Daylight Time),384668.7999999523,071_y_f_d_a.png,I,m,1616,9,1,2628.6999999284744,382040.10000002384,9059,VNB,A,8
7,test,3,1.0,1-Back,0.0,m,Thu Mar 19 2026 15:13:16 GMT-0400 (Eastern Daylight Time),387285.60000002384,039_o_m_n_a.png,I,z,1591,10,1,2611.600000023842,384674.0,9059,VNB,A,9
8,test,3,0.0,1-Back,1.0,m,Thu Mar 19 2026 15:13:16 GMT-0400 (Eastern Daylight Time),389152.7999999523,165_m_m_h_a.png,I,m,846,11,1,1860.5,387292.2999999523,9059,VNB,A,10
9,test,3,0.0,1-Back,1.0,z,Thu Mar 19 2026 15:13:16 GMT-0400 (Eastern Daylight Time),390985.2000000477,139_m_f_h_a.png,I,z,804,12,1,1826.7000000476837,389158.5,9059,VNB,A,11
10,test,3,1.0,1-Back,1.0,m,Thu Mar 19 2026 15:13:16 GMT-0400 (Eastern Daylight Time),393069.60000002384,124_o_f_d_a.png,I,m,1058,13,1,2079.5,390990.10000002384,9059,VNB,A,12
11,test,3,0.0,1-Back,1.0,z,Thu Mar 19 2026 15:13:16 GMT-0400 (Eastern Daylight Time),395202.7000000477,165_m_m_d_a.png,I,z,1112,14,1,2126.600000023842,393076.10000002384,9059,VNB,A,13
11,test,3,0.0,1-Back,0.0,m,Thu Mar 19 2026 15:13:16 GMT-0400 (Eastern Daylight Time),398236.2999999523,109_y_m_n_a.png,I,None,2017,15,1,3028.0999999046326,395208.2000000477,9059,VNB,A,14
12,test,3,1.0,1-Back,1.0,m,Thu Mar 19 2026 15:13:16 GMT-0400 (Eastern Daylight Time),400085.10000002384,039_o_m_h_a.png,I,m,832,16,1,1843.6000000238419,398241.5,9059,VNB,A,15
12,test,3,0.0,1-Back,0.0,m,Thu Mar 19 2026 15:13:16 GMT-0400 (Eastern Daylight Time),402252.7000000477,109_y_m_d_a.png,I,z,1134,17,1,2162.7000000476837,400090.0,9059,VNB,A,16
12,test,3,1.0,1-Back,0.0,m,Thu Mar 19 2026 15:13:16 GMT-0400 (Eastern Daylight Time),404402.39999997616,071_y_f_n_a.png,I,z,1118,18,1,2144.399999976158,402258.0,9059,VNB,A,17
0,test,4,1.0,1-Back,,,Thu Mar 19 2026 15:13:16 GMT-0400 (Eastern Daylight Time),404402.39999997616,165_m_m_d_a.png,I,space,1627,1,1,2144.399999976158,402258.0,9059,VNB,A,0
1,test,4,0.0,1-Back,1.0,z,Thu Mar 19 2026 15:13:16 GMT-0400 (Eastern Daylight Time),410352.7999999523,039_o_m_d_a.png,I,z,1280,2,1,2294.2999999523163,408058.5,9059,VNB,A,1
2,test,4,0.0,1-Back,1.0,m,Thu Mar 19 2026 15:13:16 GMT-0400 (Eastern Daylight Time),412818.60000002384,109_y_m_h_a.png,I,m,1443,3,1,2459.5,410359.10000002384,9059,VNB,A,2
3,test,4,0.0,1-Back,1.0,m,Thu Mar 19 2026 15:13:16 GMT-0400 (Eastern Daylight Time),415118.60000002384,139_m_f_n_a.png,I,m,1271,4,1,2295.3000000715256,412823.2999999523,9059,VNB,A,3
4,test,4,1.0,1-Back,1.0,m,Thu Mar 19 2026 15:13:16 GMT-0400 (Eastern Daylight Time),417018.60000002384,124_o_f_h_a.png,I,m,877,5,1,1895.1000000238419,415123.5,9059,VNB,A,4
5,test,4,0.0,1-Back,1.0,m,Thu Mar 19 2026 15:13:16 GMT-0400 (Eastern Daylight Time),419118.7999999523,165_m_m_n_a.png,I,m,1081,6,1,2094.1999999284744,417024.60000002384,9059,VNB,A,5
6,test,4,0.0,1-Back,1.0,m,Thu Mar 19 2026 15:13:16 GMT-0400 (Eastern Daylight Time),421586.10000002384,109_y_m_d_a.png,I,m,1443,7,1,2462.399999976158,419123.7000000477,9059,VNB,A,6
7,test,4,1.0,1-Back,1.0,z,Thu Mar 19 2026 15:13:16 GMT-0400 (Eastern Daylight Time),423752.60000002384,071_y_f_d_a.png,I,z,1137,8,1,2159.8000000715256,421592.7999999523,9059,VNB,A,7
8,test,4,0.0,1-Back,1.0,m,Thu Mar 19 2026 15:13:16 GMT-0400 (Eastern Daylight Time),425969.39999997616,139_m_f_h_a.png,I,m,1188,9,1,2208.899999976158,423760.5,9059,VNB,A,8
9,test,4,0.0,1-Back,1.0,z,Thu Mar 19 2026 15:13:16 GMT-0400 (Eastern Daylight Time),428069.0,039_o_m_h_a.png,I,z,1067,10,1,2093.7999999523163,425975.2000000477,9059,VNB,A,9
10,test,4,1.0,1-Back,1.0,m,Thu Mar 19 2026 15:13:16 GMT-0400 (Eastern Daylight Time),430019.10000002384,124_o_f_n_a.png,I,m,919,11,1,1945.1000000238419,428074.0,9059,VNB,A,10
10,test,4,0.0,1-Back,0.0,m,Thu Mar 19 2026 15:13:16 GMT-0400 (Eastern Daylight Time),432318.5,139_m_f_d_a.png,I,z,1281,12,1,2294.2999999523163,430024.2000000477,9059,VNB,A,11
10,test,4,0.0,1-Back,0.0,m,Thu Mar 19 2026 15:13:16 GMT-0400 (Eastern Daylight Time),434470.5,071_y_f_n_a.png,I,z,1118,13,1,2147.100000023842,432323.39999997616,9059,VNB,A,12
10,test,4,0.0,1-Back,0.0,m,Thu Mar 19 2026 15:13:16 GMT-0400 (Eastern Daylight Time),437235.7999999523,124_o_f_d_a.png,I,z,1735,14,1,2760.2999999523163,434475.5,9059,VNB,A,13
11,test,4,0.0,1-Back,1.0,m,Thu Mar 19 2026 15:13:16 GMT-0400 (Eastern Daylight Time),439485.7999999523,071_y_f_h_a.png,I,m,1224,15,1,2245.0999999046326,437240.7000000477,9059,VNB,A,14
11,test,4,1.0,1-Back,0.0,z,Thu Mar 19 2026 15:13:16 GMT-0400 (Eastern Daylight Time),441485.39999997616,165_m_m_h_a.png,I,m,974,16,1,1994.7999999523163,439490.60000002384,9059,VNB,A,15
12,test,4,0.0,1-Back,1.0,m,Thu Mar 19 2026 15:13:16 GMT-0400 (Eastern Daylight Time),443835.89999997616,039_o_m_n_a.png,I,m,1318,17,1,2345.399999976158,441490.5,9059,VNB,A,16
12,test,4,1.0,1-Back,0.0,z,Thu Mar 19 2026 15:13:16 GMT-0400 (Eastern Daylight Time),445769.39999997616,109_y_m_n_a.png,I,m,913,18,1,1928.2999999523163,443841.10000002384,9059,VNB,A,17
0,test,5,1.0,1-Back,,,Thu Mar 19 2026 15:13:16 GMT-0400 (Eastern Daylight Time),445769.39999997616,039_o_m_n_a.png,I,space,1410,1,1,1928.2999999523163,443841.10000002384,9059,VNB,A,0
1,test,5,1.0,1-Back,1.0,m,Thu Mar 19 2026 15:13:16 GMT-0400 (Eastern Daylight Time),450935.60000002384,124_o_f_h_a.png,I,m,706,2,1,1728.8999999761581,449206.7000000477,9059,VNB,A,1
2,test,5,0.0,1-Back,1.0,m,Thu Mar 19 2026 15:13:16 GMT-0400 (Eastern Daylight Time),453019.89999997616,109_y_m_d_a.png,I,m,1052,3,1,2079.2999999523163,450940.60000002384,9059,VNB,A,2
3,test,5,0.0,1-Back,1.0,z,Thu Mar 19 2026 15:13:16 GMT-0400 (Eastern Daylight Time),455018.89999997616,039_o_m_d_a.png,I,z,969,4,1,1994.2999999523163,453024.60000002384,9059,VNB,A,3
4,test,5,0.0,1-Back,1.0,m,Thu Mar 19 2026 15:13:16 GMT-0400 (Eastern Daylight Time),456819.60000002384,139_m_f_h_a.png,I,m,777,5,1,1795.5,455024.10000002384,9059,VNB,A,4
4,test,5,0.0,1-Back,0.0,m,Thu Mar 19 2026 15:13:16 GMT-0400 (Eastern Daylight Time),459469.2000000477,071_y_f_n_a.png,I,z,1617,6,1,2644.100000023842,456825.10000002384,9059,VNB,A,5
5,test,5,1.0,1-Back,1.0,z,Thu Mar 19 2026 15:13:16 GMT-0400 (Eastern Daylight Time),462035.2999999523,124_o_f_n_a.png,I,z,1543,7,1,2560.899999976158,459474.39999997616,9059,VNB,A,6
6,test,5,0.0,1-Back,1.0,m,Thu Mar 19 2026 15:13:16 GMT-0400 (Eastern Daylight Time),464051.89999997616,139_m_f_d_a.png,I,m,991,8,1,2010.7999999523163,462041.10000002384,9059,VNB,A,7
7,test,5,0.0,1-Back,1.0,m,Thu Mar 19 2026 15:13:16 GMT-0400 (Eastern Daylight Time),466452.39999997616,109_y_m_h_a.png,I,m,1376,9,1,2395.600000023842,464056.7999999523,9059,VNB,A,8
8,test,5,0.0,1-Back,1.0,m,Thu Mar 19 2026 15:13:16 GMT-0400 (Eastern Daylight Time),468969.39999997616,071_y_f_d_a.png,I,m,1496,10,1,2512.6999999284744,466456.7000000477,9059,VNB,A,9
9,test,5,0.0,1-Back,1.0,m,Thu Mar 19 2026 15:13:16 GMT-0400 (Eastern Daylight Time),471186.10000002384,165_m_m_n_a.png,I,m,1195,11,1,2211.3000000715256,468974.7999999523,9059,VNB,A,10
10,test,5,1.0,1-Back,1.0,z,Thu Mar 19 2026 15:13:16 GMT-0400 (Eastern Daylight Time),473502.89999997616,139_m_f_n_a.png,I,z,1289,12,1,2311.100000023842,471191.7999999523,9059,VNB,A,11
11,test,5,0.0,1-Back,1.0,m,Thu Mar 19 2026 15:13:16 GMT-0400 (Eastern Daylight Time),475752.0,039_o_m_h_a.png,I,m,1222,13,1,2242.5,473509.5,9059,VNB,A,12
11,test,5,0.0,1-Back,0.0,z,Thu Mar 19 2026 15:13:16 GMT-0400 (Eastern Daylight Time),477802.60000002384,165_m_m_h_a.png,I,m,1029,14,1,2045.0,475757.60000002384,9059,VNB,A,13
12,test,5,1.0,1-Back,1.0,m,Thu Mar 19 2026 15:13:16 GMT-0400 (Eastern Daylight Time),480436.10000002384,124_o_f_d_a.png,I,m,1611,15,1,2628.8000000715256,477807.2999999523,9059,VNB,A,14
13,test,5,0.0,1-Back,1.0,m,Thu Mar 19 2026 15:13:16 GMT-0400 (Eastern Daylight Time),483019.5,109_y_m_n_a.png,I,m,1561,16,1,2577.7999999523163,480441.7000000477,9059,VNB,A,15
14,test,5,0.0,1-Back,1.0,m,Thu Mar 19 2026 15:13:16 GMT-0400 (Eastern Daylight Time),485085.10000002384,071_y_f_h_a.png,I,m,1048,17,1,2059.3000000715256,483025.7999999523,9059,VNB,A,16
15,test,5,0.0,1-Back,1.0,m,Thu Mar 19 2026 15:13:16 GMT-0400 (Eastern Daylight Time),487719.39999997616,165_m_m_d_a.png,I,m,1615,18,1,2629.5,485089.89999997616,9059,VNB,A,17
0,prac,1,0.0,2-Back,,,Thu Mar 19 2026 15:13:16 GMT-0400 (Eastern Daylight Time),487719.39999997616,139_m_f_n_a.png,I,space,6640,1,1,2629.5,485089.89999997616,9059,VNB,A,0
0,prac,1,0.0,2-Back,,,Thu Mar 19 2026 15:13:16 GMT-0400 (Eastern Daylight Time),487719.39999997616,124_o_f_h_a.png,I,space,6640,2,1,2629.5,485089.89999997616,9059,VNB,A,0
1,prac,1,0.0,2-Back,1.0,m,Thu Mar 19 2026 15:13:16 GMT-0400 (Eastern Daylight Time),586552.1000000238,039_o_m_d_a.png,I,m,964,3,1,1762.5,584789.6000000238,9059,VNB,A,1
1,prac,1,1.0,2-Back,0.0,z,Thu Mar 19 2026 15:13:16 GMT-0400 (Eastern Daylight Time),589035.6000000238,165_m_m_h_a.png,I,m,1691,4,1,2479.399999976158,586556.2000000477,9059,VNB,A,2
2,prac,1,0.0,2-Back,1.0,m,Thu Mar 19 2026 15:13:16 GMT-0400 (Eastern Daylight Time),591285.5,071_y_f_n_a.png,I,m,1446,5,1,2244.7000000476837,589040.7999999523,9059,VNB,A,3
2,prac,1,1.0,2-Back,0.0,z,Thu Mar 19 2026 15:13:16 GMT-0400 (Eastern Daylight Time),593652.7999999523,039_o_m_h_a.png,I,m,1586,6,1,2363.2999999523163,591289.5,9059,VNB,A,4
3,prac,1,1.0,2-Back,1.0,z,Thu Mar 19 2026 15:13:16 GMT-0400 (Eastern Daylight Time),596402.1000000238,109_y_m_n_a.png,I,z,1937,7,1,2746.0,593656.1000000238,9059,VNB,A,5
4,prac,1,0.0,2-Back,1.0,m,Thu Mar 19 2026 15:13:16 GMT-0400 (Eastern Daylight Time),598552.2999999523,139_m_f_d_a.png,I,m,1344,8,1,2145.5,596406.7999999523,9059,VNB,A,6
4,prac,1,0.0,2-Back,0.0,m,Thu Mar 19 2026 15:13:16 GMT-0400 (Eastern Daylight Time),600618.7999999523,124_o_f_d_a.png,I,z,1232,9,1,2061.2999999523163,598557.5,9059,VNB,A,7
4,prac,1,0.0,2-Back,0.0,m,Thu Mar 19 2026 15:13:16 GMT-0400 (Eastern Daylight Time),602802.2000000477,165_m_m_h_a.png,I,z,1404,10,1,2178.600000023842,600623.6000000238,9059,VNB,A,8
4,prac,1,1.0,2-Back,0.0,z,Thu Mar 19 2026 15:13:16 GMT-0400 (Eastern Daylight Time),605168.6000000238,071_y_f_d_a.png,I,m,1560,11,1,2360.899999976158,602807.7000000477,9059,VNB,A,9
4,prac,1,0.0,2-Back,0.0,m,Thu Mar 19 2026 15:13:16 GMT-0400 (Eastern Daylight Time),607968.8999999762,039_o_m_n_a.png,I,None,2008,12,1,2796.2999999523163,605172.6000000238,9059,VNB,A,10
0,prac,2,0.0,2-Back,,,Thu Mar 19 2026 15:13:16 GMT-0400 (Eastern Daylight Time),607968.8999999762,139_m_f_n_a.png,I,a,13126,1,1,2796.2999999523163,605172.6000000238,9059,VNB,A,0
0,prac,2,0.0,2-Back,,,Thu Mar 19 2026 15:13:16 GMT-0400 (Eastern Daylight Time),607968.8999999762,124_o_f_h_a.png,I,a,13126,2,1,2796.2999999523163,605172.6000000238,9059,VNB,A,0
1,prac,2,0.0,2-Back,1.0,m,Thu Mar 19 2026 15:13:16 GMT-0400 (Eastern Daylight Time),628052.2999999523,039_o_m_d_a.png,I,m,1050,3,1,1845.7999999523163,626206.5,9059,VNB,A,1
2,prac,2,1.0,2-Back,1.0,z,Thu Mar 19 2026 15:13:16 GMT-0400 (Eastern Daylight Time),630085.6000000238,165_m_m_h_a.png,I,z,1258,4,1,2026.8000000715256,628058.7999999523,9059,VNB,A,2
3,prac,2,0.0,2-Back,1.0,m,Thu Mar 19 2026 15:13:16 GMT-0400 (Eastern Daylight Time),632302.2999999523,071_y_f_n_a.png,I,m,1412,5,1,2211.0999999046326,630091.2000000477,9059,VNB,A,3
3,prac,2,1.0,2-Back,0.0,z,Thu Mar 19 2026 15:13:16 GMT-0400 (Eastern Daylight Time),634535.5,039_o_m_h_a.png,I,m,1437,6,1,2228.600000023842,632306.8999999762,9059,VNB,A,4
4,prac,2,1.0,2-Back,1.0,z,Thu Mar 19 2026 15:13:16 GMT-0400 (Eastern Daylight Time),636885.7000000477,109_y_m_n_a.png,I,z,1540,7,1,2345.5,634540.2000000477,9059,VNB,A,5
5,prac,2,0.0,2-Back,1.0,m,Thu Mar 19 2026 15:13:16 GMT-0400 (Eastern Daylight Time),639186.0,139_m_f_d_a.png,I,m,1492,8,1,2294.7000000476837,636891.2999999523,9059,VNB,A,6
6,prac,2,0.0,2-Back,1.0,m,Thu Mar 19 2026 15:13:16 GMT-0400 (Eastern Daylight Time),641785.6000000238,124_o_f_d_a.png,I,m,1766,9,1,2593.5,639192.1000000238,9059,VNB,A,7
6,prac,2,0.0,2-Back,0.0,m,Thu Mar 19 2026 15:13:16 GMT-0400 (Eastern Daylight Time),643968.7999999523,165_m_m_h_a.png,I,z,1406,10,1,2178.7999999523163,641790.0,9059,VNB,A,8
6,prac,2,1.0,2-Back,0.0,z,Thu Mar 19 2026 15:13:16 GMT-0400 (Eastern Daylight Time),646435.5,071_y_f_d_a.png,I,m,1668,11,1,2462.7999999523163,643972.7000000477,9059,VNB,A,9
6,prac,2,0.0,2-Back,0.0,m,Thu Mar 19 2026 15:13:16 GMT-0400 (Eastern Daylight Time),649235.5,039_o_m_n_a.png,I,None,2010,12,1,2796.100000023842,646439.3999999762,9059,VNB,A,10
0,test,1,0.0,2-Back,,,Thu Mar 19 2026 15:13:16 GMT-0400 (Eastern Daylight Time),649235.5,109_y_m_h_a.png,I,space,8165,1,1,2796.100000023842,646439.3999999762,9059,VNB,A,0
0,test,1,0.0,2-Back,,,Thu Mar 19 2026 15:13:16 GMT-0400 (Eastern Daylight Time),649235.5,124_o_f_n_a.png,I,space,8165,2,1,2796.100000023842,646439.3999999762,9059,VNB,A,0
1,test,1,0.0,2-Back,1.0,z,Thu Mar 19 2026 15:13:16 GMT-0400 (Eastern Daylight Time),675535.8999999762,039_o_m_h_a.png,I,z,896,3,1,1912.1000000238419,673623.7999999523,9059,VNB,A,1
2,test,1,0.0,2-Back,1.0,m,Thu Mar 19 2026 15:13:16 GMT-0400 (Eastern Daylight Time),678419.8999999762,139_m_f_d_a.png,I,m,1853,4,1,2879.1999999284744,675540.7000000477,9059,VNB,A,2
3,test,1,1.0,2-Back,1.0,m,Thu Mar 19 2026 15:13:16 GMT-0400 (Eastern Daylight Time),680869.2000000477,109_y_m_n_a.png,I,m,1425,5,1,2442.3000000715256,678426.8999999762,9059,VNB,A,3
3,test,1,0.0,2-Back,0.0,z,Thu Mar 19 2026 15:13:16 GMT-0400 (Eastern Daylight Time),683602.8999999762,071_y_f_d_a.png,I,m,1710,6,1,2727.399999976158,680875.5,9059,VNB,A,4
4,test,1,0.0,2-Back,1.0,m,Thu Mar 19 2026 15:13:16 GMT-0400 (Eastern Daylight Time),685935.6000000238,165_m_m_h_a.png,I,m,1304,7,1,2327.399999976158,683608.2000000477,9059,VNB,A,5
4,test,1,1.0,2-Back,0.0,m,Thu Mar 19 2026 15:13:16 GMT-0400 (Eastern Daylight Time),688969.6000000238,071_y_f_n_a.png,I,None,2015,8,1,3029.2000000476837,685940.3999999762,9059,VNB,A,6
5,test,1,0.0,2-Back,1.0,z,Thu Mar 19 2026 15:13:16 GMT-0400 (Eastern Daylight Time),691052.7000000477,124_o_f_h_a.png,I,z,1066,9,1,2078.2000000476837,688974.5,9059,VNB,A,7
6,test,1,0.0,2-Back,1.0,m,Thu Mar 19 2026 15:13:16 GMT-0400 (Eastern Daylight Time),693237.2999999523,039_o_m_d_a.png,I,m,1159,10,1,2179.7999999523163,691057.5,9059,VNB,A,8
7,test,1,1.0,2-Back,1.0,m,Thu Mar 19 2026 15:13:16 GMT-0400 (Eastern Daylight Time),695236.2999999523,165_m_m_d_a.png,I,m,975,11,1,1994.2999999523163,693242.0,9059,VNB,A,9
7,test,1,0.0,2-Back,0.0,m,Thu Mar 19 2026 15:13:16 GMT-0400 (Eastern Daylight Time),697419.8999999762,139_m_f_n_a.png,I,z,1153,12,1,2178.7999999523163,695241.1000000238,9059,VNB,A,10
8,test,1,0.0,2-Back,1.0,m,Thu Mar 19 2026 15:13:16 GMT-0400 (Eastern Daylight Time),700185.6000000238,071_y_f_h_a.png,I,m,1744,13,1,2758.8000000715256,697426.7999999523,9059,VNB,A,11
9,test,1,0.0,2-Back,1.0,z,Thu Mar 19 2026 15:13:16 GMT-0400 (Eastern Daylight Time),701869.1000000238,165_m_m_n_a.png,I,z,650,14,1,1678.6000000238419,700190.5,9059,VNB,A,12
10,test,1,0.0,2-Back,1.0,m,Thu Mar 19 2026 15:13:16 GMT-0400 (Eastern Daylight Time),703870.0,109_y_m_d_a.png,I,m,967,15,1,1994.2000000476837,701875.7999999523,9059,VNB,A,13
11,test,1,1.0,2-Back,1.0,m,Thu Mar 19 2026 15:13:16 GMT-0400 (Eastern Daylight Time),706519.6000000238,139_m_f_h_a.png,I,m,1622,16,1,2641.7000000476837,703877.8999999762,9059,VNB,A,14
11,test,1,0.0,2-Back,0.0,z,Thu Mar 19 2026 15:13:16 GMT-0400 (Eastern Daylight Time),708869.1000000238,124_o_f_d_a.png,I,m,1325,17,1,2344.600000023842,706524.5,9059,VNB,A,15
12,test,1,0.0,2-Back,1.0,m,Thu Mar 19 2026 15:13:16 GMT-0400 (Eastern Daylight Time),710852.8999999762,039_o_m_n_a.png,I,m,958,18,1,1979.0,708873.8999999762,9059,VNB,A,16
0,test,2,0.0,2-Back,,,Thu Mar 19 2026 15:13:16 GMT-0400 (Eastern Daylight Time),710852.8999999762,165_m_m_h_a.png,I,space,2927,1,1,1979.0,708873.8999999762,9059,VNB,A,0
0,test,2,0.0,2-Back,,,Thu Mar 19 2026 15:13:16 GMT-0400 (Eastern Daylight Time),710852.8999999762,071_y_f_n_a.png,I,space,2927,2,1,1979.0,708873.8999999762,9059,VNB,A,0
0,test,2,1.0,2-Back,0.0,z,Thu Mar 19 2026 15:13:16 GMT-0400 (Eastern Daylight Time),720652.2000000477,124_o_f_h_a.png,I,m,758,3,1,1778.1000000238419,718874.1000000238,9059,VNB,A,1
1,test,2,0.0,2-Back,1.0,m,Thu Mar 19 2026 15:13:16 GMT-0400 (Eastern Daylight Time),723502.2000000477,039_o_m_d_a.png,I,m,1822,4,1,2845.0,720657.2000000477,9059,VNB,A,2
2,test,2,0.0,2-Back,1.0,m,Thu Mar 19 2026 15:13:16 GMT-0400 (Eastern Daylight Time),725886.5,139_m_f_d_a.png,I,m,1367,5,1,2378.100000023842,723508.3999999762,9059,VNB,A,3
2,test,2,0.0,2-Back,0.0,m,Thu Mar 19 2026 15:13:16 GMT-0400 (Eastern Daylight Time),728920.1000000238,109_y_m_h_a.png,I,None,2017,6,1,3027.8000000715256,725892.2999999523,9059,VNB,A,4
3,test,2,0.0,2-Back,1.0,m,Thu Mar 19 2026 15:13:16 GMT-0400 (Eastern Daylight Time),730619.0,124_o_f_n_a.png,I,m,668,7,1,1691.2999999523163,728927.7000000477,9059,VNB,A,5
3,test,2,1.0,2-Back,0.0,z,Thu Mar 19 2026 15:13:16 GMT-0400 (Eastern Daylight Time),733436.6000000238,039_o_m_h_a.png,I,m,1786,8,1,2812.899999976158,730623.7000000477,9059,VNB,A,6
4,test,2,0.0,2-Back,1.0,m,Thu Mar 19 2026 15:13:16 GMT-0400 (Eastern Daylight Time),735936.5,071_y_f_d_a.png,I,m,1479,9,1,2494.2999999523163,733442.2000000477,9059,VNB,A,7
4,test,2,0.0,2-Back,0.0,m,Thu Mar 19 2026 15:13:16 GMT-0400 (Eastern Daylight Time),738736.1000000238,109_y_m_d_a.png,I,z,1781,10,1,2795.0,735941.1000000238,9059,VNB,A,8
5,test,2,0.0,2-Back,1.0,m,Thu Mar 19 2026 15:13:16 GMT-0400 (Eastern Daylight Time),741386.2999999523,165_m_m_n_a.png,I,m,1620,11,1,2644.399999976158,738741.8999999762,9059,VNB,A,9
5,test,2,0.0,2-Back,0.0,m,Thu Mar 19 2026 15:13:16 GMT-0400 (Eastern Daylight Time),743519.0,139_m_f_h_a.png,I,z,1106,12,1,2126.100000023842,741392.8999999762,9059,VNB,A,10
5,test,2,1.0,2-Back,0.0,z,Thu Mar 19 2026 15:13:16 GMT-0400 (Eastern Daylight Time),746019.0,039_o_m_n_a.png,I,m,1467,13,1,2494.899999976158,743524.1000000238,9059,VNB,A,11
6,test,2,0.0,2-Back,1.0,m,Thu Mar 19 2026 15:13:16 GMT-0400 (Eastern Daylight Time),748535.6000000238,124_o_f_d_a.png,I,m,1488,14,1,2511.600000023842,746024.0,9059,VNB,A,12
7,test,2,0.0,2-Back,1.0,m,Thu Mar 19 2026 15:13:16 GMT-0400 (Eastern Daylight Time),750635.7000000477,071_y_f_h_a.png,I,m,1067,15,1,2094.7000000476837,748541.0,9059,VNB,A,13
8,test,2,0.0,2-Back,1.0,z,Thu Mar 19 2026 15:13:16 GMT-0400 (Eastern Daylight Time),753319.7999999523,165_m_m_d_a.png,I,z,1657,16,1,2679.5999999046326,750640.2000000477,9059,VNB,A,14
9,test,2,0.0,2-Back,1.0,m,Thu Mar 19 2026 15:13:16 GMT-0400 (Eastern Daylight Time),755435.6000000238,109_y_m_n_a.png,I,m,1093,17,1,2107.899999976158,753327.7000000477,9059,VNB,A,15
9,test,2,1.0,2-Back,0.0,m,Thu Mar 19 2026 15:13:16 GMT-0400 (Eastern Daylight Time),757453.5,139_m_f_n_a.png,I,z,983,18,1,2012.8999999761581,755440.6000000238,9059,VNB,A,16
0,test,3,1.0,2-Back,,,Thu Mar 19 2026 15:13:16 GMT-0400 (Eastern Daylight Time),757453.5,039_o_m_n_a.png,I,space,2128,1,1,2012.8999999761581,755440.6000000238,9059,VNB,A,0
0,test,3,1.0,2-Back,,,Thu Mar 19 2026 15:13:16 GMT-0400 (Eastern Daylight Time),757453.5,124_o_f_d_a.png,I,space,2128,2,1,2012.8999999761581,755440.6000000238,9059,VNB,A,0
1,test,3,0.0,2-Back,1.0,m,Thu Mar 19 2026 15:13:16 GMT-0400 (Eastern Daylight Time),766302.2000000477,071_y_f_h_a.png,I,m,647,3,1,1659.5,764642.7000000477,9059,VNB,A,1
1,test,3,0.0,2-Back,0.0,z,Thu Mar 19 2026 15:13:16 GMT-0400 (Eastern Daylight Time),768620.7999999523,139_m_f_d_a.png,I,m,1302,4,1,2312.7999999523163,766308.0,9059,VNB,A,2
1,test,3,1.0,2-Back,0.0,m,Thu Mar 19 2026 15:13:16 GMT-0400 (Eastern Daylight Time),771418.7999999523,109_y_m_n_a.png,I,z,1768,5,1,2792.899999976158,768625.8999999762,9059,VNB,A,3
2,test,3,0.0,2-Back,1.0,m,Thu Mar 19 2026 15:13:16 GMT-0400 (Eastern Daylight Time),774386.6000000238,039_o_m_h_a.png,I,m,1946,6,1,2962.899999976158,771423.7000000477,9059,VNB,A,4
2,test,3,0.0,2-Back,0.0,z,Thu Mar 19 2026 15:13:16 GMT-0400 (Eastern Daylight Time),777419.6000000238,071_y_f_n_a.png,I,None,2016,7,1,3027.0,774392.6000000238,9059,VNB,A,5
3,test,3,1.0,2-Back,1.0,m,Thu Mar 19 2026 15:13:16 GMT-0400 (Eastern Daylight Time),779669.0,165_m_m_d_a.png,I,m,1232,8,1,2242.600000023842,777426.3999999762,9059,VNB,A,6
4,test,3,0.0,2-Back,1.0,m,Thu Mar 19 2026 15:13:16 GMT-0400 (Eastern Daylight Time),782020.2999999523,109_y_m_d_a.png,I,m,1319,9,1,2346.2999999523163,779674.0,9059,VNB,A,7
4,test,3,0.0,2-Back,0.0,m,Thu Mar 19 2026 15:13:16 GMT-0400 (Eastern Daylight Time),784019.1000000238,124_o_f_h_a.png,I,z,976,10,1,1992.0,782027.1000000238,9059,VNB,A,8
5,test,3,1.0,2-Back,1.0,m,Thu Mar 19 2026 15:13:16 GMT-0400 (Eastern Daylight Time),786869.7000000477,139_m_f_n_a.png,I,m,1817,11,1,2845.3000000715256,784024.3999999762,9059,VNB,A,9
6,test,3,1.0,2-Back,1.0,z,Thu Mar 19 2026 15:13:16 GMT-0400 (Eastern Daylight Time),788569.3999999762,165_m_m_h_a.png,I,z,680,12,1,1694.2999999523163,786875.1000000238,9059,VNB,A,10
7,test,3,0.0,2-Back,1.0,m,Thu Mar 19 2026 15:13:16 GMT-0400 (Eastern Daylight Time),790770.0,071_y_f_d_a.png,I,m,1171,13,1,2195.0,788575.0,9059,VNB,A,11
8,test,3,0.0,2-Back,1.0,m,Thu Mar 19 2026 15:13:16 GMT-0400 (Eastern Daylight Time),793585.7999999523,124_o_f_n_a.png,I,m,1786,14,1,2809.0,790776.7999999523,9059,VNB,A,12
8,test,3,0.0,2-Back,0.0,z,Thu Mar 19 2026 15:13:16 GMT-0400 (Eastern Daylight Time),795469.6000000238,039_o_m_d_a.png,I,m,858,15,1,1879.1000000238419,793590.5,9059,VNB,A,13
8,test,3,1.0,2-Back,0.0,m,Thu Mar 19 2026 15:13:16 GMT-0400 (Eastern Daylight Time),797253.7000000477,139_m_f_h_a.png,I,z,767,16,1,1779.4000000953674,795474.2999999523,9059,VNB,A,14
9,test,3,0.0,2-Back,1.0,m,Thu Mar 19 2026 15:13:16 GMT-0400 (Eastern Daylight Time),799619.6000000238,165_m_m_n_a.png,I,m,1336,17,1,2360.8000000715256,797258.7999999523,9059,VNB,A,15
10,test,3,0.0,2-Back,1.0,z,Thu Mar 19 2026 15:13:16 GMT-0400 (Eastern Daylight Time),802169.7000000477,109_y_m_h_a.png,I,z,1520,18,1,2545.3000000715256,799624.3999999762,9059,VNB,A,16
0,test,4,0.0,2-Back,,,Thu Mar 19 2026 15:13:16 GMT-0400 (Eastern Daylight Time),802169.7000000477,139_m_f_n_a.png,I,space,1668,1,1,2545.3000000715256,799624.3999999762,9059,VNB,A,0
0,test,4,0.0,2-Back,,,Thu Mar 19 2026 15:13:16 GMT-0400 (Eastern Daylight Time),802169.7000000477,039_o_m_n_a.png,I,space,1668,2,1,2545.3000000715256,799624.3999999762,9059,VNB,A,0
0,test,4,1.0,2-Back,0.0,m,Thu Mar 19 2026 15:13:16 GMT-0400 (Eastern Daylight Time),810586.0,109_y_m_h_a.png,I,z,636,3,1,1661.6000000238419,808924.3999999762,9059,VNB,A,1
1,test,4,1.0,2-Back,1.0,m,Thu Mar 19 2026 15:13:16 GMT-0400 (Eastern Daylight Time),812236.5,124_o_f_d_a.png,I,m,625,4,1,1645.6000000238419,810590.8999999762,9059,VNB,A,2
2,test,4,0.0,2-Back,1.0,z,Thu Mar 19 2026 15:13:16 GMT-0400 (Eastern Daylight Time),814252.7000000477,039_o_m_h_a.png,I,z,983,5,1,2011.5,812241.2000000477,9059,VNB,A,3
3,test,4,0.0,2-Back,1.0,m,Thu Mar 19 2026 15:13:16 GMT-0400 (Eastern Daylight Time),816570.7999999523,165_m_m_n_a.png,I,m,1296,6,1,2312.7999999523163,814258.0,9059,VNB,A,4
4,test,4,0.0,2-Back,1.0,m,Thu Mar 19 2026 15:13:16 GMT-0400 (Eastern Daylight Time),818736.0,139_m_f_d_a.png,I,m,1147,7,1,2160.399999976158,816575.6000000238,9059,VNB,A,5
4,test,4,0.0,2-Back,0.0,z,Thu Mar 19 2026 15:13:16 GMT-0400 (Eastern Daylight Time),821386.5,071_y_f_n_a.png,I,m,1620,8,1,2645.0,818741.5,9059,VNB,A,6
5,test,4,1.0,2-Back,1.0,m,Thu Mar 19 2026 15:13:16 GMT-0400 (Eastern Daylight Time),823353.5,124_o_f_h_a.png,I,m,947,9,1,1960.2999999523163,821393.2000000477,9059,VNB,A,7
5,test,4,0.0,2-Back,0.0,m,Thu Mar 19 2026 15:13:16 GMT-0400 (Eastern Daylight Time),826385.6000000238,165_m_m_h_a.png,I,None,2017,10,1,3024.3000000715256,823361.2999999523,9059,VNB,A,8
6,test,4,0.0,2-Back,1.0,m,Thu Mar 19 2026 15:13:16 GMT-0400 (Eastern Daylight Time),828069.6000000238,071_y_f_d_a.png,I,m,658,11,1,1681.7000000476837,826387.8999999762,9059,VNB,A,9
6,test,4,0.0,2-Back,0.0,m,Thu Mar 19 2026 15:13:16 GMT-0400 (Eastern Daylight Time),831003.3999999762,109_y_m_n_a.png,I,z,1903,12,1,2927.0,828076.3999999762,9059,VNB,A,10
7,test,4,0.0,2-Back,1.0,z,Thu Mar 19 2026 15:13:16 GMT-0400 (Eastern Daylight Time),833653.7999999523,039_o_m_d_a.png,I,z,1618,13,1,2643.0999999046326,831010.7000000477,9059,VNB,A,11
7,test,4,1.0,2-Back,0.0,m,Thu Mar 19 2026 15:13:16 GMT-0400 (Eastern Daylight Time),835619.1000000238,139_m_f_h_a.png,I,z,935,14,1,1960.6000000238419,833658.5,9059,VNB,A,12
7,test,4,1.0,2-Back,0.0,m,Thu Mar 19 2026 15:13:16 GMT-0400 (Eastern Daylight Time),838202.6000000238,071_y_f_h_a.png,I,z,1553,15,1,2577.600000023842,835625.0,9059,VNB,A,13
8,test,4,0.0,2-Back,1.0,m,Thu Mar 19 2026 15:13:16 GMT-0400 (Eastern Daylight Time),840153.2999999523,124_o_f_n_a.png,I,m,930,16,1,1945.0999999046326,838208.2000000477,9059,VNB,A,14
9,test,4,0.0,2-Back,1.0,m,Thu Mar 19 2026 15:13:16 GMT-0400 (Eastern Daylight Time),842252.5,109_y_m_d_a.png,I,m,1074,17,1,2092.899999976158,840159.6000000238,9059,VNB,A,15
9,test,4,1.0,2-Back,0.0,m,Thu Mar 19 2026 15:13:16 GMT-0400 (Eastern Daylight Time),845170.7999999523,165_m_m_d_a.png,I,z,1896,18,1,2913.5999999046326,842257.2000000477,9059,VNB,A,16
0,test,5,1.0,2-Back,,,Thu Mar 19 2026 15:13:16 GMT-0400 (Eastern Daylight Time),845170.7999999523,071_y_f_d_a.png,I,space,1640,1,1,2913.5999999046326,842257.2000000477,9059,VNB,A,0
0,test,5,1.0,2-Back,,,Thu Mar 19 2026 15:13:16 GMT-0400 (Eastern Daylight Time),845170.7999999523,124_o_f_h_a.png,I,space,1640,2,1,2913.5999999046326,842257.2000000477,9059,VNB,A,0
0,test,5,1.0,2-Back,0.0,z,Thu Mar 19 2026 15:13:16 GMT-0400 (Eastern Daylight Time),853686.5,039_o_m_d_a.png,I,m,766,3,1,1777.3999999761581,851909.1000000238,9059,VNB,A,1
0,test,5,1.0,2-Back,0.0,m,Thu Mar 19 2026 15:13:16 GMT-0400 (Eastern Daylight Time),856402.7999999523,139_m_f_n_a.png,I,z,1694,4,1,2711.0999999046326,853691.7000000477,9059,VNB,A,2
1,test,5,0.0,2-Back,1.0,m,Thu Mar 19 2026 15:13:16 GMT-0400 (Eastern Daylight Time),859019.0,165_m_m_h_a.png,I,m,1584,5,1,2609.600000023842,856409.3999999762,9059,VNB,A,3
2,test,5,0.0,2-Back,1.0,z,Thu Mar 19 2026 15:13:16 GMT-0400 (Eastern Daylight Time),861002.8999999762,071_y_f_n_a.png,I,z,962,6,1,1978.7999999523163,859024.1000000238,9059,VNB,A,4
3,test,5,0.0,2-Back,1.0,m,Thu Mar 19 2026 15:13:16 GMT-0400 (Eastern Daylight Time),862935.7999999523,124_o_f_d_a.png,I,m,903,7,1,1927.0999999046326,861008.7000000477,9059,VNB,A,5
3,test,5,0.0,2-Back,0.0,m,Thu Mar 19 2026 15:13:16 GMT-0400 (Eastern Daylight Time),865286.5,039_o_m_h_a.png,I,z,1325,8,1,2345.7999999523163,862940.7000000477,9059,VNB,A,6
3,test,5,1.0,2-Back,0.0,z,Thu Mar 19 2026 15:13:16 GMT-0400 (Eastern Daylight Time),867687.0,139_m_f_d_a.png,I,m,1382,9,1,2396.0,865291.0,9059,VNB,A,7
4,test,5,0.0,2-Back,1.0,m,Thu Mar 19 2026 15:13:16 GMT-0400 (Eastern Daylight Time),870220.7000000477,109_y_m_n_a.png,I,m,1501,10,1,2529.5,867691.2000000477,9059,VNB,A,8
4,test,5,0.0,2-Back,0.0,m,Thu Mar 19 2026 15:13:16 GMT-0400 (Eastern Daylight Time),872070.1000000238,165_m_m_n_a.png,I,z,826,11,1,1844.8000000715256,870225.2999999523,9059,VNB,A,9
4,test,5,0.0,2-Back,0.0,m,Thu Mar 19 2026 15:13:16 GMT-0400 (Eastern Daylight Time),874403.2000000477,071_y_f_h_a.png,I,z,1311,12,1,2327.4000000953674,872075.7999999523,9059,VNB,A,10
5,test,5,0.0,2-Back,1.0,m,Thu Mar 19 2026 15:13:16 GMT-0400 (Eastern Daylight Time),876419.2999999523,109_y_m_d_a.png,I,m,986,13,1,2009.7999999523163,874409.5,9059,VNB,A,11
6,test,5,1.0,2-Back,1.0,z,Thu Mar 19 2026 15:13:16 GMT-0400 (Eastern Daylight Time),878219.2000000477,139_m_f_h_a.png,I,z,776,14,1,1794.3000000715256,876424.8999999762,9059,VNB,A,12
7,test,5,0.0,2-Back,1.0,m,Thu Mar 19 2026 15:13:16 GMT-0400 (Eastern Daylight Time),880335.7999999523,039_o_m_n_a.png,I,m,1088,15,1,2112.0,878223.7999999523,9059,VNB,A,13
8,test,5,0.0,2-Back,1.0,m,Thu Mar 19 2026 15:13:16 GMT-0400 (Eastern Daylight Time),882885.7999999523,165_m_m_d_a.png,I,m,1523,16,1,2545.0,880340.7999999523,9059,VNB,A,14
9,test,5,0.0,2-Back,1.0,z,Thu Mar 19 2026 15:13:16 GMT-0400 (Eastern Daylight Time),884620.8999999762,124_o_f_n_a.png,I,z,710,17,1,1729.6999999284744,882891.2000000477,9059,VNB,A,15
10,test,5,1.0,2-Back,1.0,m,Thu Mar 19 2026 15:13:16 GMT-0400 (Eastern Daylight Time),886553.2000000477,109_y_m_h_a.png,I,m,904,18,1,1928.1000000238419,884625.1000000238,9059,VNB,A,16
