Number,acc_sum,block,block_c,block_cond,con_img,correct,correct_response,datetime,endtime,jitter,project,response,response_time,row_sel,session_number,start_end,starttime,subject_id,task,task_vers,trial
2,0,prac,1,A,circle.png,0,z,Tue Dec 16 2025 14:08:34 GMT-0600 (Central Standard Time),73436.59999990463,2000,O,None,1516,2,1,4296.299999952316,69140.29999995232,7733,NTS,A,1
7,1,prac,1,A,circle.png,1,m,Tue Dec 16 2025 14:08:34 GMT-0600 (Central Standard Time),77182.89999997616,1700,O,m,1259,6,1,3736.7000000476837,73446.19999992847,7733,NTS,A,2
6,2,prac,1,A,circle.png,1,m,Tue Dec 16 2025 14:08:34 GMT-0600 (Central Standard Time),80849.0,1900,O,m,967,5,1,3658.9000000953674,77190.09999990463,7733,NTS,A,3
3,3,prac,1,A,circle.png,1,z,Tue Dec 16 2025 14:08:34 GMT-0600 (Central Standard Time),83566.19999992847,1200,O,z,715,3,1,2709.399999976158,80856.79999995232,7733,NTS,A,4
7,4,prac,1,A,circle.png,1,m,Tue Dec 16 2025 14:08:34 GMT-0600 (Central Standard Time),86848.09999990463,1700,O,m,785,6,1,3274.399999976158,83573.69999992847,7733,NTS,A,5
2,5,prac,1,A,circle.png,1,z,Tue Dec 16 2025 14:08:34 GMT-0600 (Central Standard Time),90295.89999997616,2000,O,z,661,2,1,3441.3000000715256,86854.59999990463,7733,NTS,A,6
8,6,prac,1,A,circle.png,1,m,Tue Dec 16 2025 14:08:34 GMT-0600 (Central Standard Time),93496.39999997616,1600,O,m,827,7,1,3193.7000000476837,90302.69999992847,7733,NTS,A,7
4,7,prac,1,A,circle.png,1,z,Tue Dec 16 2025 14:08:34 GMT-0600 (Central Standard Time),96462.19999992847,1400,O,z,773,4,1,2959.1999999284744,93503.0,7733,NTS,A,8
9,8,prac,1,A,circle.png,1,m,Tue Dec 16 2025 14:08:34 GMT-0600 (Central Standard Time),99559.19999992847,1500,O,m,802,8,1,3091.100000023842,96468.09999990463,7733,NTS,A,9
1,9,prac,1,A,circle.png,1,z,Tue Dec 16 2025 14:08:34 GMT-0600 (Central Standard Time),102176.69999992847,1000,O,z,840,1,1,2612.1999999284744,99564.5,7733,NTS,A,10
6,10,prac,1,A,circle.png,1,m,Tue Dec 16 2025 14:08:34 GMT-0600 (Central Standard Time),105691.29999995232,1900,O,m,831,5,1,3509.899999976158,102181.39999997616,7733,NTS,A,11
8,11,prac,1,A,circle.png,1,m,Tue Dec 16 2025 14:08:34 GMT-0600 (Central Standard Time),108873.39999997616,1600,O,m,792,7,1,3175.600000023842,105697.79999995232,7733,NTS,A,12
2,0,prac,1,B,triangle.png,0,m,Tue Dec 16 2025 14:08:34 GMT-0600 (Central Standard Time),158690.29999995232,1700,O,None,1501,2,1,3975.600000023842,154714.69999992847,7733,NTS,A,1
9,1,prac,1,B,triangle.png,1,z,Tue Dec 16 2025 14:08:34 GMT-0600 (Central Standard Time),161722.69999992847,1400,O,z,848,8,1,3026.6999999284744,158696.0,7733,NTS,A,2
8,2,prac,1,B,triangle.png,1,m,Tue Dec 16 2025 14:08:34 GMT-0600 (Central Standard Time),164256.5,1200,O,m,559,7,1,2526.8000000715256,161729.69999992847,7733,NTS,A,3
1,3,prac,1,B,triangle.png,1,z,Tue Dec 16 2025 14:08:34 GMT-0600 (Central Standard Time),167905.0,1900,O,z,960,1,1,3640.5,164264.5,7733,NTS,A,4
8,4,prac,1,B,triangle.png,1,m,Tue Dec 16 2025 14:08:34 GMT-0600 (Central Standard Time),170537.59999990463,1200,O,m,658,7,1,2624.1999999284744,167913.39999997616,7733,NTS,A,5
6,5,prac,1,B,triangle.png,1,m,Tue Dec 16 2025 14:08:34 GMT-0600 (Central Standard Time),173137.5,1000,O,m,802,5,1,2595.2000000476837,170542.29999995232,7733,NTS,A,6
3,6,prac,1,B,triangle.png,1,z,Tue Dec 16 2025 14:08:34 GMT-0600 (Central Standard Time),176368.79999995232,1600,O,z,842,3,1,3225.2999999523163,173143.5,7733,NTS,A,7
2,7,prac,1,B,triangle.png,1,m,Tue Dec 16 2025 14:08:34 GMT-0600 (Central Standard Time),179701.29999995232,1700,O,m,847,2,1,3327.2999999523163,176374.0,7733,NTS,A,8
3,8,prac,1,B,triangle.png,1,z,Tue Dec 16 2025 14:08:34 GMT-0600 (Central Standard Time),183417.19999992847,1600,O,z,1326,3,1,3711.399999976158,179705.79999995232,7733,NTS,A,9
9,9,prac,1,B,triangle.png,1,z,Tue Dec 16 2025 14:08:34 GMT-0600 (Central Standard Time),186715.69999992847,1400,O,z,1116,8,1,3292.2999999523163,183423.39999997616,7733,NTS,A,10
7,10,prac,1,B,triangle.png,1,z,Tue Dec 16 2025 14:08:34 GMT-0600 (Central Standard Time),190647.0,2000,O,z,1137,6,1,3926.3000000715256,186720.69999992847,7733,NTS,A,11
4,11,prac,1,B,triangle.png,1,m,Tue Dec 16 2025 14:08:34 GMT-0600 (Central Standard Time),193564.69999992847,1500,O,m,647,4,1,2912.0,190652.69999992847,7733,NTS,A,12
9,1,test,1,A,circle.png,1,m,Tue Dec 16 2025 14:08:34 GMT-0600 (Central Standard Time),216489.0,1500,O,m,1387,8,1,2908.4000000953674,213580.59999990463,7733,NTS,A,1
1,2,test,1,A,circle.png,1,z,Tue Dec 16 2025 14:08:34 GMT-0600 (Central Standard Time),218271.0,1000,O,z,761,1,1,1778.6000000238419,216492.39999997616,7733,NTS,A,2
2,2,test,1,A,circle.png,0,z,Tue Dec 16 2025 14:08:34 GMT-0600 (Central Standard Time),221803.5,2000,O,None,1513,2,1,3528.8000000715256,218274.69999992847,7733,NTS,A,3
6,3,test,1,A,circle.png,1,m,Tue Dec 16 2025 14:08:34 GMT-0600 (Central Standard Time),224685.89999997616,1900,O,m,963,5,1,2879.2000000476837,221806.69999992847,7733,NTS,A,4
6,4,test,1,A,circle.png,1,m,Tue Dec 16 2025 14:08:34 GMT-0600 (Central Standard Time),227419.29999995232,1900,O,m,799,5,1,2729.600000023842,224689.69999992847,7733,NTS,A,5
8,5,test,1,A,circle.png,1,m,Tue Dec 16 2025 14:08:34 GMT-0600 (Central Standard Time),230184.79999995232,1600,O,m,1134,7,1,2760.899999976158,227423.89999997616,7733,NTS,A,6
3,6,test,1,A,circle.png,1,z,Tue Dec 16 2025 14:08:34 GMT-0600 (Central Standard Time),232400.59999990463,1200,O,z,995,3,1,2211.6999999284744,230188.89999997616,7733,NTS,A,7
1,7,test,1,A,circle.png,1,z,Tue Dec 16 2025 14:08:34 GMT-0600 (Central Standard Time),234449.69999992847,1000,O,z,1019,1,1,2046.1999999284744,232403.5,7733,NTS,A,8
3,8,test,1,A,circle.png,1,z,Tue Dec 16 2025 14:08:34 GMT-0600 (Central Standard Time),236615.5,1200,O,z,937,3,1,2162.600000023842,234452.89999997616,7733,NTS,A,9
2,9,test,1,A,circle.png,1,z,Tue Dec 16 2025 14:08:34 GMT-0600 (Central Standard Time),239448.5,2000,O,z,811,2,1,2827.7000000476837,236620.79999995232,7733,NTS,A,10
9,10,test,1,A,circle.png,1,m,Tue Dec 16 2025 14:08:34 GMT-0600 (Central Standard Time),241765.39999997616,1500,O,m,799,8,1,2313.3000000715256,239452.09999990463,7733,NTS,A,11
7,11,test,1,A,circle.png,1,m,Tue Dec 16 2025 14:08:34 GMT-0600 (Central Standard Time),244363.69999992847,1700,O,m,873,6,1,2594.600000023842,241769.09999990463,7733,NTS,A,12
8,12,test,1,A,circle.png,1,m,Tue Dec 16 2025 14:08:34 GMT-0600 (Central Standard Time),247029.19999992847,1600,O,m,1048,7,1,2662.0,244367.19999992847,7733,NTS,A,13
4,13,test,1,A,circle.png,1,z,Tue Dec 16 2025 14:08:34 GMT-0600 (Central Standard Time),249711.69999992847,1400,O,z,1253,4,1,2677.399999976158,247034.29999995232,7733,NTS,A,14
9,14,test,1,A,circle.png,1,m,Tue Dec 16 2025 14:08:34 GMT-0600 (Central Standard Time),252343.09999990463,1500,O,m,1103,8,1,2627.1999999284744,249715.89999997616,7733,NTS,A,15
1,15,test,1,A,circle.png,1,z,Tue Dec 16 2025 14:08:34 GMT-0600 (Central Standard Time),254310.79999995232,1000,O,z,937,1,1,1964.2000000476837,252346.59999990463,7733,NTS,A,16
4,16,test,1,A,circle.png,1,z,Tue Dec 16 2025 14:08:34 GMT-0600 (Central Standard Time),256826.89999997616,1400,O,z,1083,4,1,2512.399999976158,254314.5,7733,NTS,A,17
2,17,test,1,A,circle.png,1,z,Tue Dec 16 2025 14:08:34 GMT-0600 (Central Standard Time),259976.0,2000,O,z,1129,2,1,3144.3000000715256,256831.69999992847,7733,NTS,A,18
8,18,test,1,A,circle.png,1,m,Tue Dec 16 2025 14:08:34 GMT-0600 (Central Standard Time),262675.0,1600,O,m,1068,7,1,2693.3000000715256,259981.69999992847,7733,NTS,A,19
1,19,test,1,A,circle.png,1,z,Tue Dec 16 2025 14:08:34 GMT-0600 (Central Standard Time),264656.5,1000,O,z,952,1,1,1978.3000000715256,262678.1999999285,7733,NTS,A,20
4,20,test,1,A,circle.png,1,z,Tue Dec 16 2025 14:08:34 GMT-0600 (Central Standard Time),267310.39999997616,1400,O,z,1226,4,1,2650.600000023842,264659.7999999523,7733,NTS,A,21
7,21,test,1,A,circle.png,1,m,Tue Dec 16 2025 14:08:34 GMT-0600 (Central Standard Time),269888.5,1700,O,m,861,6,1,2574.3000000715256,267314.1999999285,7733,NTS,A,22
4,22,test,1,A,circle.png,1,z,Tue Dec 16 2025 14:08:34 GMT-0600 (Central Standard Time),272239.0,1400,O,z,929,4,1,2346.600000023842,269892.39999997616,7733,NTS,A,23
9,23,test,1,A,circle.png,1,m,Tue Dec 16 2025 14:08:34 GMT-0600 (Central Standard Time),274771.2999999523,1500,O,m,1009,8,1,2528.899999976158,272242.39999997616,7733,NTS,A,24
7,1,test,1,B,triangle.png,1,z,Tue Dec 16 2025 14:08:34 GMT-0600 (Central Standard Time),288766.89999997616,1600,O,z,939,14,1,2563.5,286203.39999997616,7733,NTS,A,1
2,2,test,1,B,triangle.png,1,m,Tue Dec 16 2025 14:08:34 GMT-0600 (Central Standard Time),290932.39999997616,1200,O,m,943,10,1,2159.600000023842,288772.7999999523,7733,NTS,A,2
4,3,test,1,B,triangle.png,1,m,Tue Dec 16 2025 14:08:34 GMT-0600 (Central Standard Time),292897.89999997616,1000,O,m,945,12,1,1961.2000000476837,290936.6999999285,7733,NTS,A,3
3,4,test,1,B,triangle.png,1,z,Tue Dec 16 2025 14:08:34 GMT-0600 (Central Standard Time),295696.2999999523,2000,O,z,776,11,1,2794.600000023842,292901.6999999285,7733,NTS,A,4
9,5,test,1,B,triangle.png,1,z,Tue Dec 16 2025 14:08:34 GMT-0600 (Central Standard Time),298746.59999990463,1900,O,z,1125,16,1,3046.5999999046326,295700.0,7733,NTS,A,5
7,6,test,1,B,triangle.png,1,z,Tue Dec 16 2025 14:08:34 GMT-0600 (Central Standard Time),302046.6999999285,2000,O,z,1280,6,1,3296.0,298750.6999999285,7733,NTS,A,6
1,7,test,1,B,triangle.png,1,z,Tue Dec 16 2025 14:08:34 GMT-0600 (Central Standard Time),304310.0,1400,O,z,837,9,1,2258.8000000715256,302051.1999999285,7733,NTS,A,7
8,8,test,1,B,triangle.png,1,m,Tue Dec 16 2025 14:08:34 GMT-0600 (Central Standard Time),306310.1999999285,1200,O,m,781,7,1,1997.6999999284744,304312.5,7733,NTS,A,8
6,9,test,1,B,triangle.png,1,m,Tue Dec 16 2025 14:08:34 GMT-0600 (Central Standard Time),307993.2999999523,1000,O,m,660,5,1,1679.7000000476837,306313.59999990463,7733,NTS,A,9
2,9,test,1,B,triangle.png,0,m,Tue Dec 16 2025 14:08:34 GMT-0600 (Central Standard Time),310726.6999999285,1200,O,None,1518,10,1,2730.0,307996.6999999285,7733,NTS,A,10
3,10,test,1,B,triangle.png,1,z,Tue Dec 16 2025 14:08:34 GMT-0600 (Central Standard Time),313542.5,2000,O,z,790,11,1,2812.8000000715256,310729.6999999285,7733,NTS,A,11
6,11,test,1,B,triangle.png,1,m,Tue Dec 16 2025 14:08:34 GMT-0600 (Central Standard Time),315791.6999999285,1500,O,m,722,13,1,2245.6999999284744,313546.0,7733,NTS,A,12
8,12,test,1,B,triangle.png,1,m,Tue Dec 16 2025 14:08:34 GMT-0600 (Central Standard Time),318309.09999990463,1700,O,m,801,15,1,2514.7999999523163,315794.2999999523,7733,NTS,A,13
4,13,test,1,B,triangle.png,1,m,Tue Dec 16 2025 14:08:34 GMT-0600 (Central Standard Time),320956.2999999523,1500,O,m,1123,4,1,2644.100000023842,318312.1999999285,7733,NTS,A,14
8,14,test,1,B,triangle.png,1,m,Tue Dec 16 2025 14:08:34 GMT-0600 (Central Standard Time),323387.6999999285,1700,O,m,708,15,1,2427.899999976158,320959.7999999523,7733,NTS,A,15
2,15,test,1,B,triangle.png,1,m,Tue Dec 16 2025 14:08:34 GMT-0600 (Central Standard Time),326270.6999999285,1700,O,m,1156,2,1,2879.0,323391.6999999285,7733,NTS,A,16
3,16,test,1,B,triangle.png,1,z,Tue Dec 16 2025 14:08:34 GMT-0600 (Central Standard Time),328719.6999999285,1600,O,z,829,3,1,2445.0,326274.6999999285,7733,NTS,A,17
1,17,test,1,B,triangle.png,1,z,Tue Dec 16 2025 14:08:34 GMT-0600 (Central Standard Time),331519.2999999523,1900,O,z,882,1,1,2796.7000000476837,328722.59999990463,7733,NTS,A,18
7,18,test,1,B,triangle.png,1,z,Tue Dec 16 2025 14:08:34 GMT-0600 (Central Standard Time),334902.39999997616,2000,O,z,1364,6,1,3378.5,331523.89999997616,7733,NTS,A,19
1,19,test,1,B,triangle.png,1,z,Tue Dec 16 2025 14:08:34 GMT-0600 (Central Standard Time),337317.5,1400,O,z,999,9,1,2411.0,334906.5,7733,NTS,A,20
9,20,test,1,B,triangle.png,1,z,Tue Dec 16 2025 14:08:34 GMT-0600 (Central Standard Time),339766.59999990463,1400,O,z,1023,8,1,2445.899999976158,337320.6999999285,7733,NTS,A,21
6,21,test,1,B,triangle.png,1,m,Tue Dec 16 2025 14:08:34 GMT-0600 (Central Standard Time),342215.5,1500,O,m,921,13,1,2445.600000023842,339769.89999997616,7733,NTS,A,22
2,22,test,1,B,triangle.png,1,m,Tue Dec 16 2025 14:08:34 GMT-0600 (Central Standard Time),344764.89999997616,1700,O,m,823,2,1,2545.3000000715256,342219.59999990463,7733,NTS,A,23
3,23,test,1,B,triangle.png,1,z,Tue Dec 16 2025 14:08:34 GMT-0600 (Central Standard Time),347264.39999997616,1600,O,z,878,3,1,2496.7000000476837,344767.6999999285,7733,NTS,A,24
8,0,prac,1,C,triangle.png,0,m,Tue Dec 16 2025 14:08:34 GMT-0600 (Central Standard Time),391433.5,1400,O,None,1516,7,1,3689.3000000715256,387744.1999999285,7733,NTS,A,1
1,1,prac,1,C,circle.png,1,z,Tue Dec 16 2025 14:08:34 GMT-0600 (Central Standard Time),394998.39999997616,1700,O,z,1069,1,1,3556.8000000715256,391441.59999990463,7733,NTS,A,2
1,2,prac,1,C,circle.png,1,z,Tue Dec 16 2025 14:08:34 GMT-0600 (Central Standard Time),398614.0,1700,O,z,1120,1,1,3608.100000023842,395005.89999997616,7733,NTS,A,3
2,3,prac,1,C,triangle.png,1,m,Tue Dec 16 2025 14:08:34 GMT-0600 (Central Standard Time),402280.09999990463,1600,O,m,1293,2,1,3660.0,398620.09999990463,7733,NTS,A,4
6,3,prac,1,C,circle.png,0,m,Tue Dec 16 2025 14:08:34 GMT-0600 (Central Standard Time),406579.2999999523,2000,O,None,1516,5,1,4292.600000023842,402286.6999999285,7733,NTS,A,5
7,3,prac,1,C,triangle.png,0,z,Tue Dec 16 2025 14:08:34 GMT-0600 (Central Standard Time),410077.1999999285,1200,O,None,1516,6,1,3491.5,406585.6999999285,7733,NTS,A,6
6,4,prac,1,C,circle.png,1,m,Tue Dec 16 2025 14:08:34 GMT-0600 (Central Standard Time),413994.2999999523,2000,O,m,1126,5,1,3909.7000000476837,410084.59999990463,7733,NTS,A,7
9,5,prac,1,C,circle.png,1,m,Tue Dec 16 2025 14:08:34 GMT-0600 (Central Standard Time),417710.6999999285,1900,O,m,1047,8,1,3711.100000023842,413999.59999990463,7733,NTS,A,8
4,6,prac,1,C,circle.png,1,z,Tue Dec 16 2025 14:08:34 GMT-0600 (Central Standard Time),420807.1999999285,1000,O,z,1311,4,1,3090.2999999523163,417716.89999997616,7733,NTS,A,9
9,7,prac,1,C,circle.png,1,m,Tue Dec 16 2025 14:08:34 GMT-0600 (Central Standard Time),424558.2999999523,1900,O,m,1073,8,1,3745.2999999523163,420813.0,7733,NTS,A,10
3,8,prac,1,C,triangle.png,1,z,Tue Dec 16 2025 14:08:34 GMT-0600 (Central Standard Time),427974.59999990463,1500,O,z,1123,3,1,3409.0,424565.59999990463,7733,NTS,A,11
8,9,prac,1,C,triangle.png,1,m,Tue Dec 16 2025 14:08:34 GMT-0600 (Central Standard Time),431354.6999999285,1400,O,m,1191,7,1,3375.1999999284744,427979.5,7733,NTS,A,12
7,1,test,1,C,triangle.png,1,z,Tue Dec 16 2025 14:08:34 GMT-0600 (Central Standard Time),445299.39999997616,1700,O,z,1457,22,1,3175.399999976158,442124.0,7733,NTS,A,1
8,2,test,1,C,triangle.png,1,m,Tue Dec 16 2025 14:08:34 GMT-0600 (Central Standard Time),448299.39999997616,1600,O,m,1376,7,1,2995.600000023842,445303.7999999523,7733,NTS,A,2
6,2,test,1,C,circle.png,0,m,Tue Dec 16 2025 14:08:34 GMT-0600 (Central Standard Time),451730.6999999285,1900,O,None,1515,5,1,3426.5,448304.1999999285,7733,NTS,A,3
4,2,test,1,C,triangle.png,0,m,Tue Dec 16 2025 14:08:34 GMT-0600 (Central Standard Time),454763.09999990463,1500,O,None,1514,20,1,3029.0,451734.09999990463,7733,NTS,A,4
6,3,test,1,C,triangle.png,1,m,Tue Dec 16 2025 14:08:34 GMT-0600 (Central Standard Time),456611.59999990463,1000,O,m,823,13,1,1844.1999999284744,454767.39999997616,7733,NTS,A,5
2,4,test,1,C,triangle.png,1,m,Tue Dec 16 2025 14:08:34 GMT-0600 (Central Standard Time),459612.1999999285,2000,O,m,976,2,1,2996.600000023842,456615.59999990463,7733,NTS,A,6
9,5,test,1,C,circle.png,1,m,Tue Dec 16 2025 14:08:34 GMT-0600 (Central Standard Time),462195.09999990463,1500,O,m,1061,24,1,2579.0,459616.09999990463,7733,NTS,A,7
6,6,test,1,C,circle.png,1,m,Tue Dec 16 2025 14:08:34 GMT-0600 (Central Standard Time),465226.59999990463,1900,O,m,1101,21,1,3028.399999976158,462198.1999999285,7733,NTS,A,8
2,7,test,1,C,circle.png,1,z,Tue Dec 16 2025 14:08:34 GMT-0600 (Central Standard Time),467842.7999999523,1700,O,z,885,18,1,2613.100000023842,465229.6999999285,7733,NTS,A,9
1,8,test,1,C,circle.png,1,z,Tue Dec 16 2025 14:08:34 GMT-0600 (Central Standard Time),470142.2999999523,1000,O,z,1273,1,1,2295.5,467846.7999999523,7733,NTS,A,10
7,8,test,1,C,circle.png,0,m,Tue Dec 16 2025 14:08:34 GMT-0600 (Central Standard Time),473661.2999999523,2000,O,None,1503,14,1,3514.7000000476837,470146.59999990463,7733,NTS,A,11
3,9,test,1,C,triangle.png,1,z,Tue Dec 16 2025 14:08:34 GMT-0600 (Central Standard Time),475940.39999997616,1200,O,z,1057,3,1,2274.2000000476837,473666.1999999285,7733,NTS,A,12
2,9,test,1,C,circle.png,0,z,Tue Dec 16 2025 14:08:34 GMT-0600 (Central Standard Time),479172.39999997616,1700,O,None,1516,10,1,3227.5,475944.89999997616,7733,NTS,A,13
9,9,test,1,C,triangle.png,0,z,Tue Dec 16 2025 14:08:34 GMT-0600 (Central Standard Time),482087.7999999523,1400,O,None,1501,16,1,2909.2999999523163,479178.5,7733,NTS,A,14
4,9,test,1,C,circle.png,0,z,Tue Dec 16 2025 14:08:34 GMT-0600 (Central Standard Time),485020.1999999285,1400,O,None,1516,4,1,2925.399999976158,482094.7999999523,7733,NTS,A,15
1,9,test,1,C,triangle.png,0,z,Tue Dec 16 2025 14:08:34 GMT-0600 (Central Standard Time),488453.1999999285,1900,O,None,1516,9,1,3424.6999999284744,485028.5,7733,NTS,A,16
8,10,test,1,C,circle.png,1,m,Tue Dec 16 2025 14:08:34 GMT-0600 (Central Standard Time),490418.0,1200,O,m,743,15,1,1958.7000000476837,488459.2999999523,7733,NTS,A,17
4,10,test,1,C,triangle.png,0,m,Tue Dec 16 2025 14:08:34 GMT-0600 (Central Standard Time),493450.5,1500,O,None,1515,12,1,3027.4000000953674,490423.09999990463,7733,NTS,A,18
9,10,test,1,C,circle.png,0,m,Tue Dec 16 2025 14:08:34 GMT-0600 (Central Standard Time),496483.09999990463,1500,O,None,1515,8,1,3026.5,493456.59999990463,7733,NTS,A,19
1,10,test,1,C,triangle.png,0,z,Tue Dec 16 2025 14:08:34 GMT-0600 (Central Standard Time),499915.2999999523,1900,O,None,1515,17,1,3427.2999999523163,496488.0,7733,NTS,A,20
8,11,test,1,C,triangle.png,1,m,Tue Dec 16 2025 14:08:34 GMT-0600 (Central Standard Time),502531.09999990463,1600,O,m,984,23,1,2609.899999976158,499921.1999999285,7733,NTS,A,21
3,11,test,1,C,circle.png,0,z,Tue Dec 16 2025 14:08:34 GMT-0600 (Central Standard Time),505664.0,1600,O,None,1517,11,1,3129.100000023842,502534.89999997616,7733,NTS,A,22
7,11,test,1,C,triangle.png,0,z,Tue Dec 16 2025 14:08:34 GMT-0600 (Central Standard Time),508895.7999999523,1700,O,None,1516,6,1,3226.2000000476837,505669.59999990463,7733,NTS,A,23
3,12,test,1,C,circle.png,1,z,Tue Dec 16 2025 14:08:34 GMT-0600 (Central Standard Time),511879.7999999523,1600,O,z,1363,19,1,2977.7000000476837,508902.09999990463,7733,NTS,A,24
3,1,test,2,C,circle.png,1,z,Tue Dec 16 2025 14:08:34 GMT-0600 (Central Standard Time),521292.89999997616,1600,O,z,1174,19,1,2795.7000000476837,518497.1999999285,7733,NTS,A,1
2,2,test,2,C,circle.png,1,z,Tue Dec 16 2025 14:08:34 GMT-0600 (Central Standard Time),523824.39999997616,1700,O,z,811,18,1,2524.8000000715256,521299.59999990463,7733,NTS,A,2
8,3,test,2,C,triangle.png,1,m,Tue Dec 16 2025 14:08:34 GMT-0600 (Central Standard Time),526606.5999999046,1600,O,m,1164,7,1,2778.2999999523163,523828.2999999523,7733,NTS,A,3
3,4,test,2,C,circle.png,1,z,Tue Dec 16 2025 14:08:34 GMT-0600 (Central Standard Time),529605.5999999046,1600,O,z,1380,11,1,2993.7999999523163,526611.7999999523,7733,NTS,A,4
1,5,test,2,C,circle.png,1,z,Tue Dec 16 2025 14:08:34 GMT-0600 (Central Standard Time),531571.5,1000,O,z,934,1,1,1960.9000000953674,529610.5999999046,7733,NTS,A,5
9,6,test,2,C,triangle.png,1,z,Tue Dec 16 2025 14:08:34 GMT-0600 (Central Standard Time),534305.2999999523,1400,O,z,1304,16,1,2730.899999976158,531574.3999999762,7733,NTS,A,6
6,7,test,2,C,triangle.png,1,m,Tue Dec 16 2025 14:08:34 GMT-0600 (Central Standard Time),536304.0999999046,1000,O,m,969,13,1,1993.3999999761581,534310.6999999285,7733,NTS,A,7
7,8,test,2,C,triangle.png,1,z,Tue Dec 16 2025 14:08:34 GMT-0600 (Central Standard Time),539168.3999999762,1700,O,z,1134,6,1,2860.0,536308.3999999762,7733,NTS,A,8
6,9,test,2,C,triangle.png,1,m,Tue Dec 16 2025 14:08:34 GMT-0600 (Central Standard Time),541653.8999999762,1000,O,m,1450,21,1,2481.2000000476837,539172.6999999285,7733,NTS,A,9
9,9,test,2,C,circle.png,0,m,Tue Dec 16 2025 14:08:34 GMT-0600 (Central Standard Time),544685.1999999285,1500,O,None,1517,8,1,3026.399999976158,541658.7999999523,7733,NTS,A,10
1,9,test,2,C,triangle.png,0,z,Tue Dec 16 2025 14:08:34 GMT-0600 (Central Standard Time),548118.2999999523,1900,O,None,1514,9,1,3428.2999999523163,544690.0,7733,NTS,A,11
8,10,test,2,C,circle.png,1,m,Tue Dec 16 2025 14:08:34 GMT-0600 (Central Standard Time),550816.0,1200,O,m,1478,15,1,2693.7000000476837,548122.2999999523,7733,NTS,A,12
9,10,test,2,C,triangle.png,0,z,Tue Dec 16 2025 14:08:34 GMT-0600 (Central Standard Time),553749.7999999523,1400,O,None,1517,24,1,2930.7999999523163,550819.0,7733,NTS,A,13
2,11,test,2,C,circle.png,1,z,Tue Dec 16 2025 14:08:34 GMT-0600 (Central Standard Time),556664.5999999046,1700,O,z,1187,10,1,2910.6999999284744,553753.8999999762,7733,NTS,A,14
7,11,test,2,C,circle.png,0,m,Tue Dec 16 2025 14:08:34 GMT-0600 (Central Standard Time),560196.1999999285,2000,O,None,1514,22,1,3526.100000023842,556670.0999999046,7733,NTS,A,15
4,12,test,2,C,triangle.png,1,m,Tue Dec 16 2025 14:08:34 GMT-0600 (Central Standard Time),563145.5999999046,1500,O,m,1418,20,1,2943.1999999284744,560202.3999999762,7733,NTS,A,16
3,13,test,2,C,triangle.png,1,z,Tue Dec 16 2025 14:08:34 GMT-0600 (Central Standard Time),565411.7999999523,1200,O,z,1041,3,1,2261.7999999523163,563150.0,7733,NTS,A,17
4,14,test,2,C,circle.png,1,z,Tue Dec 16 2025 14:08:34 GMT-0600 (Central Standard Time),567960.7999999523,1400,O,z,1120,4,1,2543.2999999523163,565417.5,7733,NTS,A,18
8,15,test,2,C,circle.png,1,m,Tue Dec 16 2025 14:08:34 GMT-0600 (Central Standard Time),570342.6999999285,1200,O,m,1155,23,1,2378.600000023842,567964.0999999046,7733,NTS,A,19
1,15,test,2,C,triangle.png,0,z,Tue Dec 16 2025 14:08:34 GMT-0600 (Central Standard Time),573760.0999999046,1900,O,None,1501,17,1,3413.5999999046326,570346.5,7733,NTS,A,20
6,16,test,2,C,circle.png,1,m,Tue Dec 16 2025 14:08:34 GMT-0600 (Central Standard Time),577158.2999999523,1900,O,m,1483,5,1,3393.7999999523163,573764.5,7733,NTS,A,21
4,17,test,2,C,triangle.png,1,m,Tue Dec 16 2025 14:08:34 GMT-0600 (Central Standard Time),579839.6999999285,1500,O,m,1154,12,1,2674.0,577165.6999999285,7733,NTS,A,22
7,18,test,2,C,circle.png,1,m,Tue Dec 16 2025 14:08:34 GMT-0600 (Central Standard Time),583106.2999999523,2000,O,m,1236,14,1,3261.2999999523163,579845.0,7733,NTS,A,23
2,18,test,2,C,triangle.png,0,m,Tue Dec 16 2025 14:08:34 GMT-0600 (Central Standard Time),586387.2999999523,2000,O,z,1257,2,1,3276.2000000476837,583111.0999999046,7733,NTS,A,24
6,1,test,3,C,triangle.png,1,m,Tue Dec 16 2025 14:08:34 GMT-0600 (Central Standard Time),591519.5,1000,O,m,1313,13,1,2326.7000000476837,589192.7999999523,7733,NTS,A,1
6,2,test,3,C,circle.png,1,m,Tue Dec 16 2025 14:08:34 GMT-0600 (Central Standard Time),594485.0,1900,O,m,1039,5,1,2962.600000023842,591522.3999999762,7733,NTS,A,2
8,3,test,3,C,circle.png,1,m,Tue Dec 16 2025 14:08:34 GMT-0600 (Central Standard Time),596933.6999999285,1200,O,m,1222,15,1,2446.0,594487.6999999285,7733,NTS,A,3
7,4,test,3,C,circle.png,1,m,Tue Dec 16 2025 14:08:34 GMT-0600 (Central Standard Time),600116.8999999762,2000,O,m,1165,14,1,3177.600000023842,596939.2999999523,7733,NTS,A,4
2,5,test,3,C,triangle.png,1,m,Tue Dec 16 2025 14:08:34 GMT-0600 (Central Standard Time),603334.1999999285,2000,O,m,1183,2,1,3212.0,600122.1999999285,7733,NTS,A,5
4,6,test,3,C,circle.png,1,z,Tue Dec 16 2025 14:08:34 GMT-0600 (Central Standard Time),606248.1999999285,1400,O,z,1486,20,1,2910.2999999523163,603337.8999999762,7733,NTS,A,6
6,7,test,3,C,circle.png,1,m,Tue Dec 16 2025 14:08:34 GMT-0600 (Central Standard Time),609448.0,1900,O,m,1278,21,1,3195.600000023842,606252.3999999762,7733,NTS,A,7
1,8,test,3,C,circle.png,1,z,Tue Dec 16 2025 14:08:34 GMT-0600 (Central Standard Time),611797.0,1000,O,z,1325,17,1,2342.3000000715256,609454.6999999285,7733,NTS,A,8
7,9,test,3,C,triangle.png,1,z,Tue Dec 16 2025 14:08:34 GMT-0600 (Central Standard Time),614928.8999999762,1700,O,z,1403,6,1,3128.0,611800.8999999762,7733,NTS,A,9
2,10,test,3,C,triangle.png,1,m,Tue Dec 16 2025 14:08:34 GMT-0600 (Central Standard Time),618062.2999999523,2000,O,m,1107,18,1,3127.5,614934.7999999523,7733,NTS,A,10
1,11,test,3,C,circle.png,1,z,Tue Dec 16 2025 14:08:34 GMT-0600 (Central Standard Time),620244.8999999762,1000,O,z,1165,1,1,2178.600000023842,618066.2999999523,7733,NTS,A,11
2,12,test,3,C,circle.png,1,z,Tue Dec 16 2025 14:08:34 GMT-0600 (Central Standard Time),622928.0999999046,1700,O,z,961,10,1,2677.7999999523163,620250.2999999523,7733,NTS,A,12
4,13,test,3,C,circle.png,1,z,Tue Dec 16 2025 14:08:34 GMT-0600 (Central Standard Time),625791.8999999762,1400,O,z,1436,4,1,2858.600000023842,622933.2999999523,7733,NTS,A,13
8,14,test,3,C,triangle.png,1,m,Tue Dec 16 2025 14:08:34 GMT-0600 (Central Standard Time),628575.8999999762,1600,O,m,1165,23,1,2778.600000023842,625797.2999999523,7733,NTS,A,14
4,15,test,3,C,triangle.png,1,m,Tue Dec 16 2025 14:08:34 GMT-0600 (Central Standard Time),631407.7999999523,1500,O,m,1312,12,1,2827.5,628580.2999999523,7733,NTS,A,15
1,16,test,3,C,triangle.png,1,z,Tue Dec 16 2025 14:08:34 GMT-0600 (Central Standard Time),634790.1999999285,1900,O,z,1449,9,1,3377.5,631412.6999999285,7733,NTS,A,16
9,17,test,3,C,triangle.png,1,z,Tue Dec 16 2025 14:08:34 GMT-0600 (Central Standard Time),637305.2999999523,1400,O,z,1085,16,1,2509.5,634795.7999999523,7733,NTS,A,17
9,18,test,3,C,circle.png,1,m,Tue Dec 16 2025 14:08:34 GMT-0600 (Central Standard Time),639820.5,1500,O,m,997,24,1,2511.4000000953674,637309.0999999046,7733,NTS,A,18
9,19,test,3,C,circle.png,1,m,Tue Dec 16 2025 14:08:34 GMT-0600 (Central Standard Time),642303.8999999762,1500,O,m,962,8,1,2478.399999976158,639825.5,7733,NTS,A,19
7,19,test,3,C,triangle.png,0,z,Tue Dec 16 2025 14:08:34 GMT-0600 (Central Standard Time),645527.0999999046,1700,O,None,1506,22,1,3219.0,642308.0999999046,7733,NTS,A,20
3,19,test,3,C,circle.png,0,z,Tue Dec 16 2025 14:08:34 GMT-0600 (Central Standard Time),648637.6999999285,1600,O,None,1504,11,1,3107.5,645530.1999999285,7733,NTS,A,21
3,20,test,3,C,triangle.png,1,z,Tue Dec 16 2025 14:08:34 GMT-0600 (Central Standard Time),650951.0999999046,1200,O,z,1086,19,1,2309.1999999284744,648641.8999999762,7733,NTS,A,22
8,21,test,3,C,triangle.png,1,m,Tue Dec 16 2025 14:08:34 GMT-0600 (Central Standard Time),653549.7999999523,1600,O,m,983,7,1,2594.899999976158,650954.8999999762,7733,NTS,A,23
3,22,test,3,C,triangle.png,1,z,Tue Dec 16 2025 14:08:34 GMT-0600 (Central Standard Time),655898.1999999285,1200,O,z,1125,3,1,2345.6999999284744,653552.5,7733,NTS,A,24
8,0,test,4,C,triangle.png,0,m,Tue Dec 16 2025 14:08:34 GMT-0600 (Central Standard Time),663164.6999999285,1600,O,None,1516,23,1,3128.2999999523163,660036.3999999762,7733,NTS,A,1
9,1,test,4,C,triangle.png,1,z,Tue Dec 16 2025 14:08:34 GMT-0600 (Central Standard Time),665780.3999999762,1400,O,z,1194,16,1,2612.100000023842,663168.2999999523,7733,NTS,A,2
9,2,test,4,C,circle.png,1,m,Tue Dec 16 2025 14:08:34 GMT-0600 (Central Standard Time),668344.6999999285,1500,O,m,1044,24,1,2560.7999999523163,665783.8999999762,7733,NTS,A,3
9,3,test,4,C,circle.png,1,m,Tue Dec 16 2025 14:08:34 GMT-0600 (Central Standard Time),670793.3999999762,1500,O,m,918,8,1,2445.2000000476837,668348.1999999285,7733,NTS,A,4
8,3,test,4,C,triangle.png,0,m,Tue Dec 16 2025 14:08:34 GMT-0600 (Central Standard Time),673928.1999999285,1600,O,None,1517,7,1,3130.2999999523163,670797.8999999762,7733,NTS,A,5
2,3,test,4,C,triangle.png,0,m,Tue Dec 16 2025 14:08:34 GMT-0600 (Central Standard Time),676858.3999999762,2000,O,z,907,2,1,2926.5,673931.8999999762,7733,NTS,A,6
3,4,test,4,C,triangle.png,1,z,Tue Dec 16 2025 14:08:34 GMT-0600 (Central Standard Time),679509.0,1200,O,z,1416,19,1,2647.8000000715256,676861.1999999285,7733,NTS,A,7
2,5,test,4,C,triangle.png,1,m,Tue Dec 16 2025 14:08:34 GMT-0600 (Central Standard Time),682840.5999999046,2000,O,m,1311,18,1,3328.1999999284744,679512.3999999762,7733,NTS,A,8
3,6,test,4,C,triangle.png,1,z,Tue Dec 16 2025 14:08:34 GMT-0600 (Central Standard Time),685107.0,1200,O,z,1041,3,1,2262.2000000476837,682844.7999999523,7733,NTS,A,9
4,7,test,4,C,triangle.png,1,m,Tue Dec 16 2025 14:08:34 GMT-0600 (Central Standard Time),687622.8999999762,1500,O,m,988,12,1,2512.3000000715256,685110.5999999046,7733,NTS,A,10
2,8,test,4,C,circle.png,1,z,Tue Dec 16 2025 14:08:34 GMT-0600 (Central Standard Time),690587.5999999046,1700,O,z,1240,10,1,2961.5999999046326,687626.0,7733,NTS,A,11
3,9,test,4,C,circle.png,1,z,Tue Dec 16 2025 14:08:34 GMT-0600 (Central Standard Time),693186.1999999285,1600,O,z,974,11,1,2594.2999999523163,690591.8999999762,7733,NTS,A,12
7,10,test,4,C,circle.png,1,m,Tue Dec 16 2025 14:08:34 GMT-0600 (Central Standard Time),696702.5,2000,O,m,1495,14,1,3512.7000000476837,693189.7999999523,7733,NTS,A,13
7,11,test,4,C,triangle.png,1,z,Tue Dec 16 2025 14:08:34 GMT-0600 (Central Standard Time),699852.1999999285,1700,O,z,1432,6,1,3146.600000023842,696705.5999999046,7733,NTS,A,14
8,12,test,4,C,circle.png,1,m,Tue Dec 16 2025 14:08:34 GMT-0600 (Central Standard Time),702066.8999999762,1200,O,m,992,15,1,2210.5,699856.3999999762,7733,NTS,A,15
6,13,test,4,C,circle.png,1,m,Tue Dec 16 2025 14:08:34 GMT-0600 (Central Standard Time),705084.0,1900,O,m,1092,21,1,3014.3000000715256,702069.6999999285,7733,NTS,A,16
7,14,test,4,C,triangle.png,1,z,Tue Dec 16 2025 14:08:34 GMT-0600 (Central Standard Time),707967.2999999523,1700,O,z,1155,22,1,2879.600000023842,705087.6999999285,7733,NTS,A,17
6,15,test,4,C,circle.png,1,m,Tue Dec 16 2025 14:08:34 GMT-0600 (Central Standard Time),710948.8999999762,1900,O,m,1058,5,1,2977.899999976158,707971.0,7733,NTS,A,18
4,16,test,4,C,circle.png,1,z,Tue Dec 16 2025 14:08:34 GMT-0600 (Central Standard Time),713397.5999999046,1400,O,z,1023,20,1,2441.7999999523163,710955.7999999523,7733,NTS,A,19
4,17,test,4,C,circle.png,1,z,Tue Dec 16 2025 14:08:34 GMT-0600 (Central Standard Time),716047.7999999523,1400,O,z,1222,4,1,2646.0,713401.7999999523,7733,NTS,A,20
1,18,test,4,C,circle.png,1,z,Tue Dec 16 2025 14:08:34 GMT-0600 (Central Standard Time),718212.3999999762,1000,O,z,1139,17,1,2160.600000023842,716051.7999999523,7733,NTS,A,21
1,19,test,4,C,circle.png,1,z,Tue Dec 16 2025 14:08:34 GMT-0600 (Central Standard Time),720161.7999999523,1000,O,z,927,1,1,1942.7999999523163,718219.0,7733,NTS,A,22
6,20,test,4,C,triangle.png,1,m,Tue Dec 16 2025 14:08:34 GMT-0600 (Central Standard Time),722477.6999999285,1000,O,m,1297,13,1,2309.2999999523163,720168.3999999762,7733,NTS,A,23
1,20,test,4,C,triangle.png,0,z,Tue Dec 16 2025 14:08:34 GMT-0600 (Central Standard Time),725910.1999999285,1900,O,None,1515,9,1,3425.600000023842,722484.5999999046,7733,NTS,A,24
