acc_sum,block,block_c,block_cond,con_img,correct,correct_response,datetime,endtime,face,jitter,line,project,response,response_time,row_sel,session_number,start_end,starttime,subject_id,task,task_vers,trial
1,prac,1,A,haborder.png,1,m,Thu Nov 13 2025 12:18:07 GMT-0600 (Central Standard Time),79766.5,CFD-WM-012-007-HC.jpg,1700,solid,O,m,986,9,1,3482.0,76284.5,7229,ATS,B,1
2,prac,1,A,haborder.png,1,m,Thu Nov 13 2025 12:18:07 GMT-0600 (Central Standard Time),82683.59999990463,CFD-WM-011-006-HC.jpg,1400,solid,O,m,749,7,1,6399.099999904633,76284.5,7229,ATS,B,2
3,prac,1,A,haborder.png,1,m,Thu Nov 13 2025 12:18:07 GMT-0600 (Central Standard Time),85682.0,CFD-WF-011-006-HC.jpg,1500,solid,O,m,716,11,1,9397.5,76284.5,7229,ATS,B,3
4,prac,1,A,haborder.png,1,z,Thu Nov 13 2025 12:18:07 GMT-0600 (Central Standard Time),88648.0,CFD-WF-026-008-A.jpg,1600,solid,O,z,570,10,1,12363.5,76284.5,7229,ATS,B,4
5,prac,1,A,haborder.png,1,z,Thu Nov 13 2025 12:18:07 GMT-0600 (Central Standard Time),91563.39999997616,CFD-BM-037-041-A.jpg,1600,solid,O,z,532,2,1,15278.899999976158,76284.5,7229,ATS,B,5
6,prac,1,A,haborder.png,1,m,Thu Nov 13 2025 12:18:07 GMT-0600 (Central Standard Time),94461.59999990463,CFD-BM-020-024-HC.jpg,1500,solid,O,m,604,3,1,18177.099999904633,76284.5,7229,ATS,B,6
7,prac,1,A,haborder.png,1,m,Thu Nov 13 2025 12:18:07 GMT-0600 (Central Standard Time),98011.79999995232,CFD-BM-015-017-HC.jpg,1700,solid,O,m,1057,1,1,21727.299999952316,76284.5,7229,ATS,B,7
8,prac,1,A,haborder.png,1,z,Thu Nov 13 2025 12:18:07 GMT-0600 (Central Standard Time),100743.59999990463,CFD-BF-050-012-A.jpg,1200,solid,O,z,737,6,1,24459.099999904633,76284.5,7229,ATS,B,8
9,prac,1,A,haborder.png,1,z,Thu Nov 13 2025 12:18:07 GMT-0600 (Central Standard Time),103161.19999992847,CFD-WF-013-015-A.jpg,1000,solid,O,z,619,12,1,26876.699999928474,76284.5,7229,ATS,B,9
10,prac,1,A,haborder.png,1,z,Thu Nov 13 2025 12:18:07 GMT-0600 (Central Standard Time),106509.29999995232,CFD-WM-009-009-A.jpg,1900,solid,O,z,663,8,1,30224.799999952316,76284.5,7229,ATS,B,10
11,prac,1,A,haborder.png,1,m,Thu Nov 13 2025 12:18:07 GMT-0600 (Central Standard Time),110008.29999995232,CFD-BF-035-007-HC.jpg,2000,solid,O,m,702,5,1,33723.799999952316,76284.5,7229,ATS,B,11
12,prac,1,A,haborder.png,1,z,Thu Nov 13 2025 12:18:07 GMT-0600 (Central Standard Time),112474.0,CFD-BF-051-043-A.jpg,1000,solid,O,z,668,4,1,36189.5,76284.5,7229,ATS,B,12
1,prac,1,B,mfborder.png,1,m,Thu Nov 13 2025 12:18:07 GMT-0600 (Central Standard Time),153327.89999997616,CFD-WM-009-009-A.jpg,1700,dash,O,m,569,9,1,3065.399999976158,150262.5,7229,ATS,B,1
2,prac,1,B,mfborder.png,1,z,Thu Nov 13 2025 12:18:07 GMT-0600 (Central Standard Time),155811.09999990463,CFD-WF-011-006-HC.jpg,1000,dash,O,z,692,12,1,5548.599999904633,150262.5,7229,ATS,B,2
3,prac,1,B,mfborder.png,1,m,Thu Nov 13 2025 12:18:07 GMT-0600 (Central Standard Time),158742.0,CFD-WM-037-060-A.jpg,1200,dash,O,m,945,6,1,8479.5,150262.5,7229,ATS,B,3
4,prac,1,B,mfborder.png,1,m,Thu Nov 13 2025 12:18:07 GMT-0600 (Central Standard Time),161907.19999992847,CFD-BM-041-048-A.jpg,1600,dash,O,m,781,2,1,11644.699999928474,150262.5,7229,ATS,B,4
5,prac,1,B,mfborder.png,1,z,Thu Nov 13 2025 12:18:07 GMT-0600 (Central Standard Time),164890.5,CFD-BF-027-013-HC.jpg,1500,dash,O,z,692,3,1,14628.0,150262.5,7229,ATS,B,5
6,prac,1,B,mfborder.png,1,z,Thu Nov 13 2025 12:18:07 GMT-0600 (Central Standard Time),167972.69999992847,CFD-WF-026-008-A.jpg,1500,dash,O,z,790,11,1,17710.199999928474,150262.5,7229,ATS,B,6
7,prac,1,B,mfborder.png,1,m,Thu Nov 13 2025 12:18:07 GMT-0600 (Central Standard Time),171038.19999992847,CFD-BM-020-024-HC.jpg,1700,dash,O,m,580,1,1,20775.699999928474,150262.5,7229,ATS,B,7
8,prac,1,B,mfborder.png,1,m,Thu Nov 13 2025 12:18:07 GMT-0600 (Central Standard Time),174320.29999995232,CFD-BM-037-041-A.jpg,2000,dash,O,m,486,5,1,24057.799999952316,150262.5,7229,ATS,B,8
9,prac,1,B,mfborder.png,1,m,Thu Nov 13 2025 12:18:07 GMT-0600 (Central Standard Time),177270.69999992847,CFD-WM-012-007-HC.jpg,1600,dash,O,m,572,10,1,27008.199999928474,150262.5,7229,ATS,B,9
10,prac,1,B,mfborder.png,1,z,Thu Nov 13 2025 12:18:07 GMT-0600 (Central Standard Time),179669.09999990463,CFD-BF-051-043-A.jpg,1000,dash,O,z,630,4,1,29406.599999904633,150262.5,7229,ATS,B,10
11,prac,1,B,mfborder.png,1,z,Thu Nov 13 2025 12:18:07 GMT-0600 (Central Standard Time),182884.69999992847,CFD-WF-027-007-HC.jpg,1900,dash,O,z,531,8,1,32622.199999928474,150262.5,7229,ATS,B,11
12,prac,1,B,mfborder.png,1,z,Thu Nov 13 2025 12:18:07 GMT-0600 (Central Standard Time),185667.09999990463,CFD-BF-035-007-HC.jpg,1400,dash,O,z,592,7,1,35404.59999990463,150262.5,7229,ATS,B,12
1,test,1,A,haborder.png,1,m,Thu Nov 13 2025 12:18:07 GMT-0600 (Central Standard Time),219872.59999990463,CFD-BM-020-024-HC.jpg,1500,solid,O,m,654,3,1,2182.2999999523163,217690.29999995232,7229,ATS,B,1
2,test,1,A,haborder.png,1,z,Thu Nov 13 2025 12:18:07 GMT-0600 (Central Standard Time),222489.39999997616,CFD-WM-009-009-A.jpg,1900,solid,O,z,695,8,1,4799.100000023842,217690.29999995232,7229,ATS,B,2
3,test,1,A,haborder.png,1,m,Thu Nov 13 2025 12:18:07 GMT-0600 (Central Standard Time),224838.59999990463,CFD-WM-012-007-HC.jpg,1700,solid,O,m,623,9,1,7148.299999952316,217690.29999995232,7229,ATS,B,3
4,test,1,A,haborder.png,1,m,Thu Nov 13 2025 12:18:07 GMT-0600 (Central Standard Time),227287.5,CFD-BM-015-017-HC.jpg,1700,solid,O,m,721,1,1,9597.200000047684,217690.29999995232,7229,ATS,B,4
5,test,1,A,haborder.png,1,z,Thu Nov 13 2025 12:18:07 GMT-0600 (Central Standard Time),228903.59999990463,CFD-BF-051-043-A.jpg,1000,solid,O,z,597,4,1,11213.299999952316,217690.29999995232,7229,ATS,B,5
6,test,1,A,haborder.png,1,z,Thu Nov 13 2025 12:18:07 GMT-0600 (Central Standard Time),231053.29999995232,CFD-WF-026-008-A.jpg,1600,solid,O,z,518,10,1,13363.0,217690.29999995232,7229,ATS,B,6
7,test,1,A,haborder.png,1,z,Thu Nov 13 2025 12:18:07 GMT-0600 (Central Standard Time),233518.39999997616,CFD-WM-009-009-A.jpg,1900,solid,O,z,539,8,1,15828.100000023842,217690.29999995232,7229,ATS,B,7
8,test,1,A,haborder.png,1,z,Thu Nov 13 2025 12:18:07 GMT-0600 (Central Standard Time),235217.19999992847,CFD-WF-013-015-A.jpg,1000,solid,O,z,676,12,1,17526.899999976158,217690.29999995232,7229,ATS,B,8
9,test,1,A,haborder.png,1,z,Thu Nov 13 2025 12:18:07 GMT-0600 (Central Standard Time),236800.79999995232,CFD-BF-051-043-A.jpg,1000,solid,O,z,561,4,1,19110.5,217690.29999995232,7229,ATS,B,9
10,test,1,A,haborder.png,1,m,Thu Nov 13 2025 12:18:07 GMT-0600 (Central Standard Time),239016.79999995232,CFD-WF-011-006-HC.jpg,1500,solid,O,m,686,11,1,21326.5,217690.29999995232,7229,ATS,B,10
11,test,1,A,haborder.png,1,m,Thu Nov 13 2025 12:18:07 GMT-0600 (Central Standard Time),241099.69999992847,CFD-BM-020-024-HC.jpg,1500,solid,O,m,551,3,1,23409.399999976158,217690.29999995232,7229,ATS,B,11
12,test,1,A,haborder.png,1,m,Thu Nov 13 2025 12:18:07 GMT-0600 (Central Standard Time),243300.29999995232,CFD-WF-011-006-HC.jpg,1500,solid,O,m,668,11,1,25610.0,217690.29999995232,7229,ATS,B,12
13,test,1,A,haborder.png,1,m,Thu Nov 13 2025 12:18:07 GMT-0600 (Central Standard Time),245997.0,CFD-BF-035-007-HC.jpg,2000,solid,O,m,673,5,1,28306.700000047684,217690.29999995232,7229,ATS,B,13
14,test,1,A,haborder.png,1,m,Thu Nov 13 2025 12:18:07 GMT-0600 (Central Standard Time),248481.0,CFD-WM-012-007-HC.jpg,1700,solid,O,m,754,9,1,30790.700000047684,217690.29999995232,7229,ATS,B,14
15,test,1,A,haborder.png,1,z,Thu Nov 13 2025 12:18:07 GMT-0600 (Central Standard Time),250480.39999997616,CFD-BF-050-012-A.jpg,1200,solid,O,z,770,6,1,32790.10000002384,217690.29999995232,7229,ATS,B,15
16,test,1,A,haborder.png,1,z,Thu Nov 13 2025 12:18:07 GMT-0600 (Central Standard Time),252929.19999992847,CFD-BM-037-041-A.jpg,1600,solid,O,z,819,2,1,35238.89999997616,217690.29999995232,7229,ATS,B,16
17,test,1,A,haborder.png,1,m,Thu Nov 13 2025 12:18:07 GMT-0600 (Central Standard Time),255261.59999990463,CFD-BM-015-017-HC.jpg,1700,solid,O,m,615,1,1,37571.299999952316,217690.29999995232,7229,ATS,B,17
18,test,1,A,haborder.png,1,z,Thu Nov 13 2025 12:18:07 GMT-0600 (Central Standard Time),257761.0,CFD-BM-037-041-A.jpg,1600,solid,O,z,878,2,1,40070.700000047684,217690.29999995232,7229,ATS,B,18
19,test,1,A,haborder.png,1,z,Thu Nov 13 2025 12:18:07 GMT-0600 (Central Standard Time),260027.29999995232,CFD-WF-026-008-A.jpg,1600,solid,O,z,633,10,1,42337.0,217690.29999995232,7229,ATS,B,19
20,test,1,A,haborder.png,1,m,Thu Nov 13 2025 12:18:07 GMT-0600 (Central Standard Time),262159.7999999523,CFD-WM-011-006-HC.jpg,1400,solid,O,m,705,7,1,44469.5,217690.29999995232,7229,ATS,B,20
21,test,1,A,haborder.png,1,z,Thu Nov 13 2025 12:18:07 GMT-0600 (Central Standard Time),264026.5,CFD-BF-050-012-A.jpg,1200,solid,O,z,636,6,1,46336.200000047684,217690.29999995232,7229,ATS,B,21
22,test,1,A,haborder.png,1,m,Thu Nov 13 2025 12:18:07 GMT-0600 (Central Standard Time),266442.89999997616,CFD-WM-011-006-HC.jpg,1400,solid,O,m,984,7,1,48752.60000002384,217690.29999995232,7229,ATS,B,22
23,test,1,A,haborder.png,1,m,Thu Nov 13 2025 12:18:07 GMT-0600 (Central Standard Time),269191.2999999523,CFD-BF-035-007-HC.jpg,2000,solid,O,m,725,5,1,51501.0,217690.29999995232,7229,ATS,B,23
24,test,1,A,haborder.png,1,z,Thu Nov 13 2025 12:18:07 GMT-0600 (Central Standard Time),270923.7999999523,CFD-WF-013-015-A.jpg,1000,solid,O,z,700,12,1,53233.5,217690.29999995232,7229,ATS,B,24
1,test,1,B,mfborder.png,1,z,Thu Nov 13 2025 12:18:07 GMT-0600 (Central Standard Time),299929.7999999523,CFD-WF-026-008-A.jpg,1500,dash,O,z,636,11,1,2166.0,297763.7999999523,7229,ATS,B,1
2,test,1,B,mfborder.png,1,z,Thu Nov 13 2025 12:18:07 GMT-0600 (Central Standard Time),301997.09999990463,CFD-BF-035-007-HC.jpg,1400,dash,O,z,641,7,1,4233.299999952316,297763.7999999523,7229,ATS,B,2
3,test,1,B,mfborder.png,1,m,Thu Nov 13 2025 12:18:07 GMT-0600 (Central Standard Time),304262.1999999285,CFD-WM-009-009-A.jpg,1700,dash,O,m,547,9,1,6498.399999976158,297763.7999999523,7229,ATS,B,3
4,test,1,B,mfborder.png,1,z,Thu Nov 13 2025 12:18:07 GMT-0600 (Central Standard Time),306111.1999999285,CFD-BF-051-043-A.jpg,1000,dash,O,z,821,4,1,8347.399999976158,297763.7999999523,7229,ATS,B,4
5,test,1,B,mfborder.png,1,m,Thu Nov 13 2025 12:18:07 GMT-0600 (Central Standard Time),308378.09999990463,CFD-BM-020-024-HC.jpg,1700,dash,O,m,536,1,1,10614.299999952316,297763.7999999523,7229,ATS,B,5
6,test,1,B,mfborder.png,1,m,Thu Nov 13 2025 12:18:07 GMT-0600 (Central Standard Time),310610.6999999285,CFD-WM-037-060-A.jpg,1200,dash,O,m,1002,6,1,12846.899999976158,297763.7999999523,7229,ATS,B,6
7,test,1,B,mfborder.png,1,z,Thu Nov 13 2025 12:18:07 GMT-0600 (Central Standard Time),312942.2999999523,CFD-WF-026-008-A.jpg,1500,dash,O,z,814,11,1,15178.5,297763.7999999523,7229,ATS,B,7
8,test,1,B,mfborder.png,1,m,Thu Nov 13 2025 12:18:07 GMT-0600 (Central Standard Time),316158.09999990463,CFD-BM-037-041-A.jpg,2000,dash,O,m,1189,5,1,18394.299999952316,297763.7999999523,7229,ATS,B,8
9,test,1,B,mfborder.png,1,m,Thu Nov 13 2025 12:18:07 GMT-0600 (Central Standard Time),318390.39999997616,CFD-WM-012-007-HC.jpg,1600,dash,O,m,613,10,1,20626.600000023842,297763.7999999523,7229,ATS,B,9
10,test,1,B,mfborder.png,1,m,Thu Nov 13 2025 12:18:07 GMT-0600 (Central Standard Time),320807.5,CFD-BM-041-048-A.jpg,1600,dash,O,m,784,2,1,23043.700000047684,297763.7999999523,7229,ATS,B,10
11,test,1,B,mfborder.png,1,z,Thu Nov 13 2025 12:18:07 GMT-0600 (Central Standard Time),323272.1999999285,CFD-WF-027-007-HC.jpg,1900,dash,O,z,545,8,1,25508.399999976158,297763.7999999523,7229,ATS,B,11
12,test,1,B,mfborder.png,1,m,Thu Nov 13 2025 12:18:07 GMT-0600 (Central Standard Time),325621.5,CFD-WM-012-007-HC.jpg,1600,dash,O,m,723,10,1,27857.700000047684,297763.7999999523,7229,ATS,B,12
13,test,1,B,mfborder.png,1,z,Thu Nov 13 2025 12:18:07 GMT-0600 (Central Standard Time),327288.1999999285,CFD-WF-011-006-HC.jpg,1000,dash,O,z,646,12,1,29524.399999976158,297763.7999999523,7229,ATS,B,13
14,test,1,B,mfborder.png,1,m,Thu Nov 13 2025 12:18:07 GMT-0600 (Central Standard Time),329520.7999999523,CFD-WM-009-009-A.jpg,1700,dash,O,m,512,9,1,31757.0,297763.7999999523,7229,ATS,B,14
15,test,1,B,mfborder.png,1,z,Thu Nov 13 2025 12:18:07 GMT-0600 (Central Standard Time),331119.6999999285,CFD-BF-051-043-A.jpg,1000,dash,O,z,579,4,1,33355.89999997616,297763.7999999523,7229,ATS,B,15
16,test,1,B,mfborder.png,1,z,Thu Nov 13 2025 12:18:07 GMT-0600 (Central Standard Time),333285.89999997616,CFD-BF-035-007-HC.jpg,1400,dash,O,z,740,7,1,35522.10000002384,297763.7999999523,7229,ATS,B,16
17,test,1,B,mfborder.png,1,m,Thu Nov 13 2025 12:18:07 GMT-0600 (Central Standard Time),335668.2999999523,CFD-BM-041-048-A.jpg,1600,dash,O,m,766,2,1,37904.5,297763.7999999523,7229,ATS,B,17
18,test,1,B,mfborder.png,1,m,Thu Nov 13 2025 12:18:07 GMT-0600 (Central Standard Time),338000.89999997616,CFD-BM-020-024-HC.jpg,1700,dash,O,m,610,1,1,40237.10000002384,297763.7999999523,7229,ATS,B,18
19,test,1,B,mfborder.png,1,m,Thu Nov 13 2025 12:18:07 GMT-0600 (Central Standard Time),340616.6999999285,CFD-BM-037-041-A.jpg,2000,dash,O,m,587,5,1,42852.89999997616,297763.7999999523,7229,ATS,B,19
20,test,1,B,mfborder.png,1,z,Thu Nov 13 2025 12:18:07 GMT-0600 (Central Standard Time),342483.1999999285,CFD-WF-011-006-HC.jpg,1000,dash,O,z,833,12,1,44719.39999997616,297763.7999999523,7229,ATS,B,20
21,test,1,B,mfborder.png,1,m,Thu Nov 13 2025 12:18:07 GMT-0600 (Central Standard Time),344866.0,CFD-WM-037-060-A.jpg,1200,dash,O,m,1169,6,1,47102.200000047684,297763.7999999523,7229,ATS,B,21
22,test,1,B,mfborder.png,1,z,Thu Nov 13 2025 12:18:07 GMT-0600 (Central Standard Time),346965.2999999523,CFD-BF-027-013-HC.jpg,1500,dash,O,z,567,3,1,49201.5,297763.7999999523,7229,ATS,B,22
23,test,1,B,mfborder.png,1,z,Thu Nov 13 2025 12:18:07 GMT-0600 (Central Standard Time),349164.89999997616,CFD-BF-027-013-HC.jpg,1500,dash,O,z,675,3,1,51401.10000002384,297763.7999999523,7229,ATS,B,23
24,test,1,B,mfborder.png,1,z,Thu Nov 13 2025 12:18:07 GMT-0600 (Central Standard Time),351780.2999999523,CFD-WF-027-007-HC.jpg,1900,dash,O,z,690,8,1,54016.5,297763.7999999523,7229,ATS,B,24
0,7,1,C,haborder.png,0,z,Thu Nov 13 2025 12:18:07 GMT-0600 (Central Standard Time),425974.1999999285,CFD-BF-051-043-A.jpg,1900,dash,O,None,1516,prac,1,4199.100000023842,421775.09999990463,7229,ATS,B,1
0,2,1,C,mfborder.png,0,z,Thu Nov 13 2025 12:18:07 GMT-0600 (Central Standard Time),429206.59999990463,CFD-WF-013-015-A.jpg,1500,solid,O,m,947,prac,1,7431.5,421775.09999990463,7229,ATS,B,2
0,11,1,C,haborder.png,0,m,Thu Nov 13 2025 12:18:07 GMT-0600 (Central Standard Time),432287.89999997616,CFD-WM-011-006-HC.jpg,1000,dash,O,z,1286,prac,1,10512.800000071526,421775.09999990463,7229,ATS,B,3
1,6,1,C,mfborder.png,1,m,Thu Nov 13 2025 12:18:07 GMT-0600 (Central Standard Time),436086.5,CFD-WM-009-009-A.jpg,1700,solid,O,m,1311,prac,1,14311.400000095367,421775.09999990463,7229,ATS,B,4
1,10,1,C,haborder.png,0,m,Thu Nov 13 2025 12:18:07 GMT-0600 (Central Standard Time),439719.59999990463,CFD-BM-020-024-HC.jpg,1500,solid,O,z,1342,prac,1,17944.5,421775.09999990463,7229,ATS,B,5
1,3,1,C,mfborder.png,0,z,Thu Nov 13 2025 12:18:07 GMT-0600 (Central Standard Time),443018.0,CFD-BF-035-007-HC.jpg,1000,dash,O,None,1515,prac,1,21242.900000095367,421775.09999990463,7229,ATS,B,6
1,9,1,C,haborder.png,0,z,Thu Nov 13 2025 12:18:07 GMT-0600 (Central Standard Time),446733.09999990463,CFD-WF-026-008-A.jpg,1600,dash,O,m,1322,prac,1,24958.0,421775.09999990463,7229,ATS,B,7
2,8,1,C,haborder.png,1,z,Thu Nov 13 2025 12:18:07 GMT-0600 (Central Standard Time),450498.5,CFD-BF-050-012-A.jpg,1700,solid,O,z,1273,prac,1,28723.400000095367,421775.09999990463,7229,ATS,B,8
3,12,1,C,haborder.png,1,m,Thu Nov 13 2025 12:18:07 GMT-0600 (Central Standard Time),454031.5,CFD-WM-011-006-HC.jpg,1400,solid,O,m,1361,prac,1,32256.400000095367,421775.09999990463,7229,ATS,B,9
4,4,1,C,mfborder.png,1,m,Thu Nov 13 2025 12:18:07 GMT-0600 (Central Standard Time),458029.2999999523,CFD-BM-015-017-HC.jpg,2000,solid,O,m,1212,prac,1,36254.200000047684,421775.09999990463,7229,ATS,B,10
5,1,1,C,mfborder.png,1,z,Thu Nov 13 2025 12:18:07 GMT-0600 (Central Standard Time),461178.7999999523,CFD-WF-011-006-HC.jpg,1600,dash,O,z,766,prac,1,39403.700000047684,421775.09999990463,7229,ATS,B,11
6,5,1,C,mfborder.png,1,m,Thu Nov 13 2025 12:18:07 GMT-0600 (Central Standard Time),463795.89999997616,CFD-BM-037-041-A.jpg,1200,dash,O,m,649,prac,1,42020.800000071526,421775.09999990463,7229,ATS,B,12
1,5,2,C,mfborder.png,1,m,Thu Nov 13 2025 12:18:07 GMT-0600 (Central Standard Time),474908.59999990463,CFD-BM-037-041-A.jpg,1200,dash,O,m,963,prac,1,53133.5,421775.09999990463,7229,ATS,B,1
2,12,2,C,haborder.png,1,m,Thu Nov 13 2025 12:18:07 GMT-0600 (Central Standard Time),478041.1999999285,CFD-WM-011-006-HC.jpg,1400,solid,O,m,935,prac,1,56266.10000002384,421775.09999990463,7229,ATS,B,2
3,7,2,C,haborder.png,1,z,Thu Nov 13 2025 12:18:07 GMT-0600 (Central Standard Time),481439.7999999523,CFD-BF-051-043-A.jpg,1900,dash,O,z,703,prac,1,59664.700000047684,421775.09999990463,7229,ATS,B,3
4,6,2,C,mfborder.png,1,m,Thu Nov 13 2025 12:18:07 GMT-0600 (Central Standard Time),484555.5,CFD-WM-009-009-A.jpg,1700,solid,O,m,632,prac,1,62780.40000009537,421775.09999990463,7229,ATS,B,4
5,1,2,C,mfborder.png,1,z,Thu Nov 13 2025 12:18:07 GMT-0600 (Central Standard Time),487622.09999990463,CFD-WF-011-006-HC.jpg,1600,dash,O,z,697,prac,1,65847.0,421775.09999990463,7229,ATS,B,5
6,11,2,C,haborder.png,1,m,Thu Nov 13 2025 12:18:07 GMT-0600 (Central Standard Time),490170.59999990463,CFD-WM-011-006-HC.jpg,1000,dash,O,m,759,prac,1,68395.5,421775.09999990463,7229,ATS,B,6
7,2,2,C,mfborder.png,1,z,Thu Nov 13 2025 12:18:07 GMT-0600 (Central Standard Time),493101.7999999523,CFD-WF-013-015-A.jpg,1500,solid,O,z,638,prac,1,71326.70000004768,421775.09999990463,7229,ATS,B,7
7,4,2,C,mfborder.png,0,m,Thu Nov 13 2025 12:18:07 GMT-0600 (Central Standard Time),497384.1999999285,CFD-BM-015-017-HC.jpg,2000,solid,O,None,1501,prac,1,75609.10000002384,421775.09999990463,7229,ATS,B,8
8,3,2,C,mfborder.png,1,z,Thu Nov 13 2025 12:18:07 GMT-0600 (Central Standard Time),499933.59999990463,CFD-BF-035-007-HC.jpg,1000,dash,O,z,755,prac,1,78158.5,421775.09999990463,7229,ATS,B,9
9,9,2,C,haborder.png,1,z,Thu Nov 13 2025 12:18:07 GMT-0600 (Central Standard Time),503299.7999999523,CFD-WF-026-008-A.jpg,1600,dash,O,z,997,prac,1,81524.70000004768,421775.09999990463,7229,ATS,B,10
10,10,2,C,haborder.png,1,m,Thu Nov 13 2025 12:18:07 GMT-0600 (Central Standard Time),506382.1999999285,CFD-BM-020-024-HC.jpg,1500,solid,O,m,789,prac,1,84607.10000002384,421775.09999990463,7229,ATS,B,11
11,8,2,C,haborder.png,1,z,Thu Nov 13 2025 12:18:07 GMT-0600 (Central Standard Time),509597.0,CFD-BF-050-012-A.jpg,1700,solid,O,z,722,prac,1,87821.90000009537,421775.09999990463,7229,ATS,B,12
1,test,1,C,haborder.png,1,m,Thu Nov 13 2025 12:18:07 GMT-0600 (Central Standard Time),541453.7999999523,CFD-WF-027-007-HC.jpg,1500,solid,O,m,957,11,1,2482.7999999523163,538971.0,7229,ATS,B,1
1,test,1,C,mfborder.png,0,z,Thu Nov 13 2025 12:18:07 GMT-0600 (Central Standard Time),544002.7999999523,CFD-BF-051-043-A.jpg,1600,dash,O,m,919,2,1,5031.799999952316,538971.0,7229,ATS,B,2
1,test,1,C,mfborder.png,0,m,Thu Nov 13 2025 12:18:07 GMT-0600 (Central Standard Time),546301.6999999285,CFD-WM-012-007-HC.jpg,1000,dash,O,z,1273,4,1,7330.699999928474,538971.0,7229,ATS,B,3
2,test,1,C,mfborder.png,1,z,Thu Nov 13 2025 12:18:07 GMT-0600 (Central Standard Time),549101.0,CFD-WF-026-008-A.jpg,1500,dash,O,z,1274,3,1,10130.0,538971.0,7229,ATS,B,4
3,test,1,C,mfborder.png,1,z,Thu Nov 13 2025 12:18:07 GMT-0600 (Central Standard Time),551601.1999999285,CFD-BF-051-043-A.jpg,1600,dash,O,z,878,2,1,12630.199999928474,538971.0,7229,ATS,B,5
4,test,1,C,mfborder.png,1,m,Thu Nov 13 2025 12:18:07 GMT-0600 (Central Standard Time),553699.6999999285,CFD-WM-012-007-HC.jpg,1000,dash,O,m,1084,4,1,14728.699999928474,538971.0,7229,ATS,B,6
5,test,1,C,mfborder.png,1,z,Thu Nov 13 2025 12:18:07 GMT-0600 (Central Standard Time),556431.5999999046,CFD-BF-027-013-HC.jpg,1700,dash,O,z,1009,1,1,17460.599999904633,538971.0,7229,ATS,B,7
6,test,1,C,haborder.png,1,z,Thu Nov 13 2025 12:18:07 GMT-0600 (Central Standard Time),558947.8999999762,CFD-BM-041-048-A.jpg,1700,solid,O,z,800,9,1,19976.899999976158,538971.0,7229,ATS,B,8
7,test,1,C,mfborder.png,1,m,Thu Nov 13 2025 12:18:07 GMT-0600 (Central Standard Time),561780.3999999762,CFD-WM-037-060-A.jpg,2000,dash,O,m,816,5,1,22809.399999976158,538971.0,7229,ATS,B,9
8,test,1,C,haborder.png,1,z,Thu Nov 13 2025 12:18:07 GMT-0600 (Central Standard Time),564246.5999999046,CFD-WM-009-009-A.jpg,1400,solid,O,z,1039,7,1,25275.599999904633,538971.0,7229,ATS,B,10
9,test,1,C,haborder.png,1,m,Thu Nov 13 2025 12:18:07 GMT-0600 (Central Standard Time),566713.0999999046,CFD-BF-035-007-HC.jpg,1600,solid,O,m,846,10,1,27742.099999904633,538971.0,7229,ATS,B,11
10,test,1,C,haborder.png,1,z,Thu Nov 13 2025 12:18:07 GMT-0600 (Central Standard Time),569810.5,CFD-BM-037-041-A.jpg,1900,solid,O,z,1176,8,1,30839.5,538971.0,7229,ATS,B,12
11,test,1,C,mfborder.png,1,m,Thu Nov 13 2025 12:18:07 GMT-0600 (Central Standard Time),572893.7999999523,CFD-WM-037-060-A.jpg,2000,dash,O,m,1065,5,1,33922.799999952316,538971.0,7229,ATS,B,13
12,test,1,C,haborder.png,1,m,Thu Nov 13 2025 12:18:07 GMT-0600 (Central Standard Time),575293.1999999285,CFD-WF-011-006-HC.jpg,1000,solid,O,m,1375,12,1,36322.199999928474,538971.0,7229,ATS,B,14
13,test,1,C,mfborder.png,1,m,Thu Nov 13 2025 12:18:07 GMT-0600 (Central Standard Time),577975.5,CFD-BM-020-024-HC.jpg,1200,dash,O,m,1463,6,1,39004.5,538971.0,7229,ATS,B,15
13,test,1,C,mfborder.png,0,z,Thu Nov 13 2025 12:18:07 GMT-0600 (Central Standard Time),581207.1999999285,CFD-BF-027-013-HC.jpg,1700,dash,O,None,1516,1,1,42236.199999928474,538971.0,7229,ATS,B,16
14,test,1,C,haborder.png,1,m,Thu Nov 13 2025 12:18:07 GMT-0600 (Central Standard Time),583589.7999999523,CFD-WF-011-006-HC.jpg,1000,solid,O,m,1363,12,1,44618.799999952316,538971.0,7229,ATS,B,17
15,test,1,C,haborder.png,1,z,Thu Nov 13 2025 12:18:07 GMT-0600 (Central Standard Time),586439.3999999762,CFD-WM-009-009-A.jpg,1400,solid,O,z,1422,7,1,47468.39999997616,538971.0,7229,ATS,B,18
16,test,1,C,mfborder.png,1,z,Thu Nov 13 2025 12:18:07 GMT-0600 (Central Standard Time),589089.2999999523,CFD-WF-026-008-A.jpg,1500,dash,O,z,1128,3,1,50118.299999952316,538971.0,7229,ATS,B,19
16,test,1,C,haborder.png,0,z,Thu Nov 13 2025 12:18:07 GMT-0600 (Central Standard Time),592020.7999999523,CFD-BM-041-048-A.jpg,1700,solid,O,m,1207,9,1,53049.799999952316,538971.0,7229,ATS,B,20
16,test,1,C,haborder.png,0,m,Thu Nov 13 2025 12:18:07 GMT-0600 (Central Standard Time),595152.6999999285,CFD-BF-035-007-HC.jpg,1600,solid,O,None,1516,10,1,56181.699999928474,538971.0,7229,ATS,B,21
17,test,1,C,haborder.png,1,m,Thu Nov 13 2025 12:18:07 GMT-0600 (Central Standard Time),597736.6999999285,CFD-WF-027-007-HC.jpg,1500,solid,O,m,1055,11,1,58765.699999928474,538971.0,7229,ATS,B,22
18,test,1,C,mfborder.png,1,m,Thu Nov 13 2025 12:18:07 GMT-0600 (Central Standard Time),599935.1999999285,CFD-BM-020-024-HC.jpg,1200,dash,O,m,971,6,1,60964.199999928474,538971.0,7229,ATS,B,23
19,test,1,C,haborder.png,1,z,Thu Nov 13 2025 12:18:07 GMT-0600 (Central Standard Time),602694.5999999046,CFD-BM-037-041-A.jpg,1900,solid,O,z,833,8,1,63723.59999990463,538971.0,7229,ATS,B,24
1,test,2,C,haborder.png,1,z,Thu Nov 13 2025 12:18:07 GMT-0600 (Central Standard Time),613048.5,CFD-BF-050-012-A.jpg,1900,solid,O,z,829,8,1,2749.4000000953674,610299.0999999046,7229,ATS,B,1
2,test,2,C,mfborder.png,1,m,Thu Nov 13 2025 12:18:07 GMT-0600 (Central Standard Time),615246.5,CFD-BM-015-017-HC.jpg,1000,dash,O,m,1180,4,1,4947.400000095367,610299.0999999046,7229,ATS,B,2
3,test,2,C,haborder.png,1,z,Thu Nov 13 2025 12:18:07 GMT-0600 (Central Standard Time),617846.0999999046,CFD-BF-051-043-A.jpg,1400,solid,O,z,1180,7,1,7547.0,610299.0999999046,7229,ATS,B,3
4,test,2,C,mfborder.png,1,m,Thu Nov 13 2025 12:18:07 GMT-0600 (Central Standard Time),620877.7999999523,CFD-BM-037-041-A.jpg,2000,dash,O,m,1006,5,1,10578.700000047684,610299.0999999046,7229,ATS,B,4
5,test,2,C,haborder.png,1,m,Thu Nov 13 2025 12:18:07 GMT-0600 (Central Standard Time),623110.3999999762,CFD-WM-011-006-HC.jpg,1000,solid,O,m,1204,12,1,12811.300000071526,610299.0999999046,7229,ATS,B,5
6,test,2,C,mfborder.png,1,z,Thu Nov 13 2025 12:18:07 GMT-0600 (Central Standard Time),626164.5999999046,CFD-WF-011-006-HC.jpg,1700,dash,O,z,1328,1,1,15865.5,610299.0999999046,7229,ATS,B,6
7,test,2,C,mfborder.png,1,z,Thu Nov 13 2025 12:18:07 GMT-0600 (Central Standard Time),628792.5,CFD-BF-035-007-HC.jpg,1500,dash,O,z,1103,3,1,18493.400000095367,610299.0999999046,7229,ATS,B,7
8,test,2,C,mfborder.png,1,z,Thu Nov 13 2025 12:18:07 GMT-0600 (Central Standard Time),631242.0,CFD-WF-011-006-HC.jpg,1700,dash,O,z,728,1,1,20942.900000095367,610299.0999999046,7229,ATS,B,8
9,test,2,C,haborder.png,1,z,Thu Nov 13 2025 12:18:07 GMT-0600 (Central Standard Time),633657.5,CFD-BF-051-043-A.jpg,1400,solid,O,z,993,7,1,23358.400000095367,610299.0999999046,7229,ATS,B,9
10,test,2,C,mfborder.png,1,m,Thu Nov 13 2025 12:18:07 GMT-0600 (Central Standard Time),636023.3999999762,CFD-WM-009-009-A.jpg,1200,dash,O,m,1137,6,1,25724.300000071526,610299.0999999046,7229,ATS,B,10
11,test,2,C,haborder.png,1,m,Thu Nov 13 2025 12:18:07 GMT-0600 (Central Standard Time),639040.3999999762,CFD-WM-011-006-HC.jpg,1500,solid,O,m,1488,11,1,28741.300000071526,610299.0999999046,7229,ATS,B,11
12,test,2,C,haborder.png,1,m,Thu Nov 13 2025 12:18:07 GMT-0600 (Central Standard Time),641605.2999999523,CFD-BM-020-024-HC.jpg,1600,solid,O,m,939,10,1,31306.200000047684,610299.0999999046,7229,ATS,B,12
13,test,2,C,haborder.png,1,m,Thu Nov 13 2025 12:18:07 GMT-0600 (Central Standard Time),643488.0999999046,CFD-WM-011-006-HC.jpg,1000,solid,O,m,855,12,1,33189.0,610299.0999999046,7229,ATS,B,13
14,test,2,C,mfborder.png,1,z,Thu Nov 13 2025 12:18:07 GMT-0600 (Central Standard Time),646353.7999999523,CFD-BF-035-007-HC.jpg,1500,dash,O,z,1336,3,1,36054.700000047684,610299.0999999046,7229,ATS,B,14
15,test,2,C,haborder.png,1,z,Thu Nov 13 2025 12:18:07 GMT-0600 (Central Standard Time),649623.5999999046,CFD-BF-050-012-A.jpg,1900,solid,O,z,1351,8,1,39324.5,610299.0999999046,7229,ATS,B,15
16,test,2,C,haborder.png,1,m,Thu Nov 13 2025 12:18:07 GMT-0600 (Central Standard Time),652034.6999999285,CFD-WM-011-006-HC.jpg,1500,solid,O,m,893,11,1,41735.60000002384,610299.0999999046,7229,ATS,B,16
17,test,2,C,mfborder.png,1,z,Thu Nov 13 2025 12:18:07 GMT-0600 (Central Standard Time),654783.7999999523,CFD-WF-013-015-A.jpg,1600,dash,O,z,1128,2,1,44484.700000047684,610299.0999999046,7229,ATS,B,17
17,test,2,C,haborder.png,0,z,Thu Nov 13 2025 12:18:07 GMT-0600 (Central Standard Time),657799.3999999762,CFD-WF-026-008-A.jpg,1700,solid,O,m,1296,9,1,47500.300000071526,610299.0999999046,7229,ATS,B,18
18,test,2,C,mfborder.png,1,m,Thu Nov 13 2025 12:18:07 GMT-0600 (Central Standard Time),660966.0,CFD-BM-037-041-A.jpg,2000,dash,O,m,1140,5,1,50666.90000009537,610299.0999999046,7229,ATS,B,19
19,test,2,C,mfborder.png,1,z,Thu Nov 13 2025 12:18:07 GMT-0600 (Central Standard Time),663747.3999999762,CFD-WF-013-015-A.jpg,1600,dash,O,z,1151,2,1,53448.300000071526,610299.0999999046,7229,ATS,B,20
19,test,2,C,haborder.png,0,m,Thu Nov 13 2025 12:18:07 GMT-0600 (Central Standard Time),666880.0999999046,CFD-BM-020-024-HC.jpg,1600,solid,O,None,1515,10,1,56581.0,610299.0999999046,7229,ATS,B,21
20,test,2,C,mfborder.png,1,m,Thu Nov 13 2025 12:18:07 GMT-0600 (Central Standard Time),668912.3999999762,CFD-BM-015-017-HC.jpg,1000,dash,O,m,1004,4,1,58613.300000071526,610299.0999999046,7229,ATS,B,22
20,test,2,C,mfborder.png,0,m,Thu Nov 13 2025 12:18:07 GMT-0600 (Central Standard Time),671478.0,CFD-WM-009-009-A.jpg,1200,dash,O,z,1338,6,1,61178.90000009537,610299.0999999046,7229,ATS,B,23
21,test,2,C,haborder.png,1,z,Thu Nov 13 2025 12:18:07 GMT-0600 (Central Standard Time),674528.1999999285,CFD-WF-026-008-A.jpg,1700,solid,O,z,1320,9,1,64229.10000002384,610299.0999999046,7229,ATS,B,24
1,test,3,C,mfborder.png,1,z,Thu Nov 13 2025 12:18:07 GMT-0600 (Central Standard Time),681843.0,CFD-WF-026-008-A.jpg,1500,dash,O,z,844,3,1,2367.2000000476837,679475.7999999523,7229,ATS,B,1
2,test,3,C,mfborder.png,1,m,Thu Nov 13 2025 12:18:07 GMT-0600 (Central Standard Time),683824.0999999046,CFD-BM-020-024-HC.jpg,1200,dash,O,m,762,6,1,4348.299999952316,679475.7999999523,7229,ATS,B,2
3,test,3,C,mfborder.png,1,z,Thu Nov 13 2025 12:18:07 GMT-0600 (Central Standard Time),686024.1999999285,CFD-BF-051-043-A.jpg,1600,dash,O,z,571,2,1,6548.399999976158,679475.7999999523,7229,ATS,B,3
4,test,3,C,mfborder.png,1,m,Thu Nov 13 2025 12:18:07 GMT-0600 (Central Standard Time),687690.7999999523,CFD-WM-012-007-HC.jpg,1000,dash,O,m,636,4,1,8215.0,679475.7999999523,7229,ATS,B,4
5,test,3,C,mfborder.png,1,z,Thu Nov 13 2025 12:18:07 GMT-0600 (Central Standard Time),689939.8999999762,CFD-WF-026-008-A.jpg,1500,dash,O,z,718,3,1,10464.100000023842,679475.7999999523,7229,ATS,B,5
6,test,3,C,haborder.png,1,m,Thu Nov 13 2025 12:18:07 GMT-0600 (Central Standard Time),692938.0999999046,CFD-BF-035-007-HC.jpg,1600,solid,O,m,1376,10,1,13462.299999952316,679475.7999999523,7229,ATS,B,6
7,test,3,C,mfborder.png,1,m,Thu Nov 13 2025 12:18:07 GMT-0600 (Central Standard Time),695937.1999999285,CFD-WM-037-060-A.jpg,2000,dash,O,m,970,5,1,16461.399999976158,679475.7999999523,7229,ATS,B,7
8,test,3,C,haborder.png,1,m,Thu Nov 13 2025 12:18:07 GMT-0600 (Central Standard Time),697586.8999999762,CFD-WF-011-006-HC.jpg,1000,solid,O,m,626,12,1,18111.100000023842,679475.7999999523,7229,ATS,B,8
9,test,3,C,haborder.png,1,z,Thu Nov 13 2025 12:18:07 GMT-0600 (Central Standard Time),700435.7999999523,CFD-BM-041-048-A.jpg,1700,solid,O,z,1117,9,1,20960.0,679475.7999999523,7229,ATS,B,9
10,test,3,C,mfborder.png,1,m,Thu Nov 13 2025 12:18:07 GMT-0600 (Central Standard Time),702619.3999999762,CFD-BM-020-024-HC.jpg,1200,dash,O,m,951,6,1,23143.600000023842,679475.7999999523,7229,ATS,B,10
11,test,3,C,haborder.png,1,m,Thu Nov 13 2025 12:18:07 GMT-0600 (Central Standard Time),704901.1999999285,CFD-WF-011-006-HC.jpg,1000,solid,O,m,1264,12,1,25425.399999976158,679475.7999999523,7229,ATS,B,11
12,test,3,C,mfborder.png,1,m,Thu Nov 13 2025 12:18:07 GMT-0600 (Central Standard Time),708000.1999999285,CFD-WM-037-060-A.jpg,2000,dash,O,m,1071,5,1,28524.399999976158,679475.7999999523,7229,ATS,B,12
13,test,3,C,mfborder.png,1,z,Thu Nov 13 2025 12:18:07 GMT-0600 (Central Standard Time),710532.7999999523,CFD-BF-027-013-HC.jpg,1700,dash,O,z,815,1,1,31057.0,679475.7999999523,7229,ATS,B,13
14,test,3,C,haborder.png,1,z,Thu Nov 13 2025 12:18:07 GMT-0600 (Central Standard Time),713865.0999999046,CFD-BM-037-041-A.jpg,1900,solid,O,z,1411,8,1,34389.299999952316,679475.7999999523,7229,ATS,B,14
15,test,3,C,mfborder.png,1,z,Thu Nov 13 2025 12:18:07 GMT-0600 (Central Standard Time),716580.5999999046,CFD-BF-027-013-HC.jpg,1700,dash,O,z,990,1,1,37104.799999952316,679475.7999999523,7229,ATS,B,15
16,test,3,C,haborder.png,1,z,Thu Nov 13 2025 12:18:07 GMT-0600 (Central Standard Time),719196.5999999046,CFD-WM-009-009-A.jpg,1400,solid,O,z,1182,7,1,39720.799999952316,679475.7999999523,7229,ATS,B,16
17,test,3,C,mfborder.png,1,z,Thu Nov 13 2025 12:18:07 GMT-0600 (Central Standard Time),721730.5999999046,CFD-BF-051-043-A.jpg,1600,dash,O,z,911,2,1,42254.799999952316,679475.7999999523,7229,ATS,B,17
18,test,3,C,haborder.png,1,m,Thu Nov 13 2025 12:18:07 GMT-0600 (Central Standard Time),724329.2999999523,CFD-WF-027-007-HC.jpg,1500,solid,O,m,1070,11,1,44853.5,679475.7999999523,7229,ATS,B,18
19,test,3,C,haborder.png,1,m,Thu Nov 13 2025 12:18:07 GMT-0600 (Central Standard Time),726577.5,CFD-BF-035-007-HC.jpg,1600,solid,O,m,619,10,1,47101.700000047684,679475.7999999523,7229,ATS,B,19
20,test,3,C,haborder.png,1,z,Thu Nov 13 2025 12:18:07 GMT-0600 (Central Standard Time),729394.6999999285,CFD-BM-037-041-A.jpg,1900,solid,O,z,886,8,1,49918.89999997616,679475.7999999523,7229,ATS,B,20
21,test,3,C,haborder.png,1,z,Thu Nov 13 2025 12:18:07 GMT-0600 (Central Standard Time),731476.2999999523,CFD-WM-009-009-A.jpg,1400,solid,O,z,658,7,1,52000.5,679475.7999999523,7229,ATS,B,21
22,test,3,C,haborder.png,1,z,Thu Nov 13 2025 12:18:07 GMT-0600 (Central Standard Time),734141.6999999285,CFD-BM-041-048-A.jpg,1700,solid,O,z,948,9,1,54665.89999997616,679475.7999999523,7229,ATS,B,22
23,test,3,C,haborder.png,1,m,Thu Nov 13 2025 12:18:07 GMT-0600 (Central Standard Time),736510.1999999285,CFD-WF-027-007-HC.jpg,1500,solid,O,m,846,11,1,57034.39999997616,679475.7999999523,7229,ATS,B,23
24,test,3,C,mfborder.png,1,m,Thu Nov 13 2025 12:18:07 GMT-0600 (Central Standard Time),738690.1999999285,CFD-WM-012-007-HC.jpg,1000,dash,O,m,1152,4,1,59214.39999997616,679475.7999999523,7229,ATS,B,24
1,test,4,C,haborder.png,1,z,Thu Nov 13 2025 12:18:07 GMT-0600 (Central Standard Time),744921.6999999285,CFD-BF-050-012-A.jpg,1900,solid,O,z,1044,8,1,2963.6999999284744,741958.0,7229,ATS,B,1
2,test,4,C,haborder.png,1,z,Thu Nov 13 2025 12:18:07 GMT-0600 (Central Standard Time),747521.0,CFD-WF-026-008-A.jpg,1700,solid,O,z,869,9,1,5563.0,741958.0,7229,ATS,B,2
3,test,4,C,mfborder.png,1,m,Thu Nov 13 2025 12:18:07 GMT-0600 (Central Standard Time),749486.7999999523,CFD-BM-015-017-HC.jpg,1000,dash,O,m,939,4,1,7528.799999952316,741958.0,7229,ATS,B,3
4,test,4,C,haborder.png,1,m,Thu Nov 13 2025 12:18:07 GMT-0600 (Central Standard Time),752003.1999999285,CFD-BM-020-024-HC.jpg,1600,solid,O,m,893,10,1,10045.199999928474,741958.0,7229,ATS,B,4
5,test,4,C,haborder.png,1,z,Thu Nov 13 2025 12:18:07 GMT-0600 (Central Standard Time),754635.3999999762,CFD-BF-051-043-A.jpg,1400,solid,O,z,1200,7,1,12677.399999976158,741958.0,7229,ATS,B,5
6,test,4,C,mfborder.png,1,z,Thu Nov 13 2025 12:18:07 GMT-0600 (Central Standard Time),757167.6999999285,CFD-WF-013-015-A.jpg,1600,dash,O,z,904,2,1,15209.699999928474,741958.0,7229,ATS,B,6
7,test,4,C,mfborder.png,1,z,Thu Nov 13 2025 12:18:07 GMT-0600 (Central Standard Time),759200.5999999046,CFD-BF-035-007-HC.jpg,1500,dash,O,z,502,3,1,17242.599999904633,741958.0,7229,ATS,B,7
8,test,4,C,haborder.png,1,m,Thu Nov 13 2025 12:18:07 GMT-0600 (Central Standard Time),761700.0999999046,CFD-WM-011-006-HC.jpg,1500,solid,O,m,983,11,1,19742.099999904633,741958.0,7229,ATS,B,8
9,test,4,C,mfborder.png,1,m,Thu Nov 13 2025 12:18:07 GMT-0600 (Central Standard Time),763899.0,CFD-WM-009-009-A.jpg,1200,dash,O,m,968,6,1,21941.0,741958.0,7229,ATS,B,9
10,test,4,C,haborder.png,1,m,Thu Nov 13 2025 12:18:07 GMT-0600 (Central Standard Time),765748.6999999285,CFD-WM-011-006-HC.jpg,1000,solid,O,m,824,12,1,23790.699999928474,741958.0,7229,ATS,B,10
11,test,4,C,haborder.png,1,m,Thu Nov 13 2025 12:18:07 GMT-0600 (Central Standard Time),767431.3999999762,CFD-WM-011-006-HC.jpg,1000,solid,O,m,656,12,1,25473.399999976158,741958.0,7229,ATS,B,11
12,test,4,C,haborder.png,1,z,Thu Nov 13 2025 12:18:07 GMT-0600 (Central Standard Time),770146.7999999523,CFD-WF-026-008-A.jpg,1700,solid,O,z,992,9,1,28188.799999952316,741958.0,7229,ATS,B,12
13,test,4,C,mfborder.png,1,m,Thu Nov 13 2025 12:18:07 GMT-0600 (Central Standard Time),772047.1999999285,CFD-BM-015-017-HC.jpg,1000,dash,O,m,880,4,1,30089.199999928474,741958.0,7229,ATS,B,13
14,test,4,C,haborder.png,1,m,Thu Nov 13 2025 12:18:07 GMT-0600 (Central Standard Time),774645.5999999046,CFD-WM-011-006-HC.jpg,1500,solid,O,m,1074,11,1,32687.599999904633,741958.0,7229,ATS,B,14
14,test,4,C,mfborder.png,0,z,Thu Nov 13 2025 12:18:07 GMT-0600 (Central Standard Time),777678.0999999046,CFD-BF-035-007-HC.jpg,1500,dash,O,None,1515,3,1,35720.09999990463,741958.0,7229,ATS,B,15
15,test,4,C,haborder.png,1,z,Thu Nov 13 2025 12:18:07 GMT-0600 (Central Standard Time),780260.0999999046,CFD-BF-050-012-A.jpg,1900,solid,O,z,657,8,1,38302.09999990463,741958.0,7229,ATS,B,16
16,test,4,C,mfborder.png,1,m,Thu Nov 13 2025 12:18:07 GMT-0600 (Central Standard Time),782593.0,CFD-WM-009-009-A.jpg,1200,dash,O,m,1103,6,1,40635.0,741958.0,7229,ATS,B,17
17,test,4,C,mfborder.png,1,z,Thu Nov 13 2025 12:18:07 GMT-0600 (Central Standard Time),785010.0999999046,CFD-WF-013-015-A.jpg,1600,dash,O,z,786,2,1,43052.09999990463,741958.0,7229,ATS,B,18
18,test,4,C,mfborder.png,1,z,Thu Nov 13 2025 12:18:07 GMT-0600 (Central Standard Time),787341.3999999762,CFD-WF-011-006-HC.jpg,1700,dash,O,z,607,1,1,45383.39999997616,741958.0,7229,ATS,B,19
18,test,4,C,haborder.png,0,z,Thu Nov 13 2025 12:18:07 GMT-0600 (Central Standard Time),789824.0999999046,CFD-BF-051-043-A.jpg,1400,solid,O,m,1062,7,1,47866.09999990463,741958.0,7229,ATS,B,20
19,test,4,C,mfborder.png,1,m,Thu Nov 13 2025 12:18:07 GMT-0600 (Central Standard Time),792773.0999999046,CFD-BM-037-041-A.jpg,2000,dash,O,m,932,5,1,50815.09999990463,741958.0,7229,ATS,B,21
20,test,4,C,mfborder.png,1,m,Thu Nov 13 2025 12:18:07 GMT-0600 (Central Standard Time),795755.5,CFD-BM-037-041-A.jpg,2000,dash,O,m,958,5,1,53797.5,741958.0,7229,ATS,B,22
21,test,4,C,haborder.png,1,m,Thu Nov 13 2025 12:18:07 GMT-0600 (Central Standard Time),798404.5,CFD-BM-020-024-HC.jpg,1600,solid,O,m,1023,10,1,56446.5,741958.0,7229,ATS,B,23
22,test,4,C,mfborder.png,1,z,Thu Nov 13 2025 12:18:07 GMT-0600 (Central Standard Time),800821.7999999523,CFD-WF-011-006-HC.jpg,1700,dash,O,z,699,1,1,58863.799999952316,741958.0,7229,ATS,B,24
