acc_sum,block,block_c,block_cond,con_img,correct,correct_response,datetime,endtime,face,jitter,line,project,response,response_time,row_sel,session_number,start_end,starttime,subject_id,task,task_vers,trial
1,prac,1,A,haborder.png,1,z,Fri Jun 19 2026 11:18:23 GMT-0500 (Central Daylight Time),49282.5,CFD-WM-036-018-A.jpg,1900,solid,I,z,1462,8,2,4148.600000023842,45133.89999997616,8099,ATS,C,1
2,prac,1,A,haborder.png,1,z,Fri Jun 19 2026 11:18:23 GMT-0500 (Central Daylight Time),51865.299999952316,CFD-WF-023-013-A.jpg,1000,solid,I,z,798,12,2,6731.399999976158,45133.89999997616,8099,ATS,C,2
3,prac,1,A,haborder.png,1,m,Fri Jun 19 2026 11:18:23 GMT-0500 (Central Daylight Time),54747.60000002384,CFD-WM-028-005-HC.jpg,1400,solid,I,m,686,7,2,9613.700000047684,45133.89999997616,8099,ATS,C,3
4,prac,1,A,haborder.png,1,m,Fri Jun 19 2026 11:18:23 GMT-0500 (Central Daylight Time),57980.199999928474,CFD-WF-013-009-HC.jpg,1500,solid,I,m,944,11,2,12846.299999952316,45133.89999997616,8099,ATS,C,4
5,prac,1,A,haborder.png,1,m,Fri Jun 19 2026 11:18:23 GMT-0500 (Central Daylight Time),61428.60000002384,CFD-BF-019-004-HC.jpg,2000,solid,I,m,660,5,2,16294.700000047684,45133.89999997616,8099,ATS,C,5
6,prac,1,A,haborder.png,1,z,Fri Jun 19 2026 11:18:23 GMT-0500 (Central Daylight Time),64411.199999928474,CFD-WF-037-016-A.jpg,1600,solid,I,z,595,10,2,19277.299999952316,45133.89999997616,8099,ATS,C,6
7,prac,1,A,haborder.png,1,m,Fri Jun 19 2026 11:18:23 GMT-0500 (Central Daylight Time),67660.0,CFD-BM-034-035-HC.jpg,1700,solid,I,m,753,1,2,22526.100000023842,45133.89999997616,8099,ATS,C,7
8,prac,1,A,haborder.png,1,z,Fri Jun 19 2026 11:18:23 GMT-0500 (Central Daylight Time),70142.69999992847,CFD-BF-031-020-A.jpg,1000,solid,I,z,692,4,2,25008.799999952316,45133.89999997616,8099,ATS,C,8
9,prac,1,A,haborder.png,1,z,Fri Jun 19 2026 11:18:23 GMT-0500 (Central Daylight Time),72758.69999992847,CFD-BF-002-018-A.jpg,1200,solid,I,z,624,6,2,27624.799999952316,45133.89999997616,8099,ATS,C,9
10,prac,1,A,haborder.png,1,m,Fri Jun 19 2026 11:18:23 GMT-0500 (Central Daylight Time),75691.10000002384,CFD-BM-022-004-HC.jpg,1500,solid,I,m,645,3,2,30557.200000047684,45133.89999997616,8099,ATS,C,10
11,prac,1,A,haborder.png,1,z,Fri Jun 19 2026 11:18:23 GMT-0500 (Central Daylight Time),78873.69999992847,CFD-BM-043-014-A.jpg,1600,solid,I,z,789,2,2,33739.799999952316,45133.89999997616,8099,ATS,C,11
12,prac,1,A,haborder.png,1,m,Fri Jun 19 2026 11:18:23 GMT-0500 (Central Daylight Time),82005.69999992847,CFD-WM-035-036-HC.jpg,1700,solid,I,m,642,9,2,36871.799999952316,45133.89999997616,8099,ATS,C,12
1,prac,1,B,mfborder.png,1,z,Fri Jun 19 2026 11:18:23 GMT-0500 (Central Daylight Time),102199.19999992847,CFD-BF-031-020-A.jpg,1000,4,I,z,916,dash,2,2699.1999999284744,99500.0,8099,ATS,C,1
2,prac,1,B,mfborder.png,1,m,Fri Jun 19 2026 11:18:23 GMT-0500 (Central Daylight Time),105615.0,CFD-WM-035-036-HC.jpg,1600,10,I,m,1016,dash,2,6115.0,99500.0,8099,ATS,C,2
3,prac,1,B,mfborder.png,1,m,Fri Jun 19 2026 11:18:23 GMT-0500 (Central Daylight Time),108746.89999997616,CFD-BM-022-004-HC.jpg,1700,1,I,m,646,dash,2,9246.899999976158,99500.0,8099,ATS,C,3
4,prac,1,B,mfborder.png,1,z,Fri Jun 19 2026 11:18:23 GMT-0500 (Central Daylight Time),111663.0,CFD-BF-019-004-HC.jpg,1400,7,I,z,716,dash,2,12163.0,99500.0,8099,ATS,C,4
5,prac,1,B,mfborder.png,1,z,Fri Jun 19 2026 11:18:23 GMT-0500 (Central Daylight Time),114978.79999995232,CFD-WF-001-010-HC.jpg,1900,8,I,z,621,dash,2,15478.799999952316,99500.0,8099,ATS,C,5
6,prac,1,B,mfborder.png,1,m,Fri Jun 19 2026 11:18:23 GMT-0500 (Central Daylight Time),118377.60000002384,CFD-BM-043-014-A.jpg,2000,5,I,m,614,dash,2,18877.600000023842,99500.0,8099,ATS,C,6
7,prac,1,B,mfborder.png,1,z,Fri Jun 19 2026 11:18:23 GMT-0500 (Central Daylight Time),121242.89999997616,CFD-WF-037-016-A.jpg,1500,11,I,z,571,dash,2,21742.899999976158,99500.0,8099,ATS,C,7
8,prac,1,B,mfborder.png,1,z,Fri Jun 19 2026 11:18:23 GMT-0500 (Central Daylight Time),124242.39999997616,CFD-BF-042-031-HC.jpg,1500,3,I,z,705,dash,2,24742.399999976158,99500.0,8099,ATS,C,8
9,prac,1,B,mfborder.png,1,z,Fri Jun 19 2026 11:18:23 GMT-0500 (Central Daylight Time),126575.19999992847,CFD-WF-013-009-HC.jpg,1000,12,I,z,549,dash,2,27075.199999928474,99500.0,8099,ATS,C,9
10,prac,1,B,mfborder.png,1,m,Fri Jun 19 2026 11:18:23 GMT-0500 (Central Daylight Time),129523.79999995232,CFD-BM-021-026-A.jpg,1600,2,I,m,560,dash,2,30023.799999952316,99500.0,8099,ATS,C,10
11,prac,1,B,mfborder.png,1,m,Fri Jun 19 2026 11:18:23 GMT-0500 (Central Daylight Time),132723.89999997616,CFD-WM-036-018-A.jpg,1700,9,I,m,711,dash,2,33223.89999997616,99500.0,8099,ATS,C,11
12,prac,1,B,mfborder.png,1,m,Fri Jun 19 2026 11:18:23 GMT-0500 (Central Daylight Time),135355.5,CFD-WM-034-040-A.jpg,1200,6,I,m,638,dash,2,35855.5,99500.0,8099,ATS,C,12
1,test,1,A,haborder.png,1,z,Fri Jun 19 2026 11:18:23 GMT-0500 (Central Daylight Time),155432.60000002384,CFD-BF-002-018-A.jpg,1200,solid,I,z,809,6,2,2032.6000000238419,153400.0,8099,ATS,C,1
2,test,1,A,haborder.png,1,z,Fri Jun 19 2026 11:18:23 GMT-0500 (Central Daylight Time),157981.69999992847,CFD-WM-036-018-A.jpg,1900,solid,I,z,619,8,2,4581.699999928474,153400.0,8099,ATS,C,2
3,test,1,A,haborder.png,1,z,Fri Jun 19 2026 11:18:23 GMT-0500 (Central Daylight Time),160064.29999995232,CFD-BM-043-014-A.jpg,1600,solid,I,z,466,2,2,6664.299999952316,153400.0,8099,ATS,C,3
4,test,1,A,haborder.png,1,m,Fri Jun 19 2026 11:18:23 GMT-0500 (Central Daylight Time),162547.10000002384,CFD-BF-019-004-HC.jpg,2000,solid,I,m,464,5,2,9147.100000023842,153400.0,8099,ATS,C,4
5,test,1,A,haborder.png,1,m,Fri Jun 19 2026 11:18:23 GMT-0500 (Central Daylight Time),164562.89999997616,CFD-WF-013-009-HC.jpg,1500,solid,I,m,489,11,2,11162.899999976158,153400.0,8099,ATS,C,5
6,test,1,A,haborder.png,1,m,Fri Jun 19 2026 11:18:23 GMT-0500 (Central Daylight Time),166762.39999997616,CFD-WM-028-005-HC.jpg,1400,solid,I,m,780,7,2,13362.399999976158,153400.0,8099,ATS,C,6
7,test,1,A,haborder.png,1,m,Fri Jun 19 2026 11:18:23 GMT-0500 (Central Daylight Time),169261.60000002384,CFD-WM-035-036-HC.jpg,1700,solid,I,m,769,9,2,15861.600000023842,153400.0,8099,ATS,C,7
8,test,1,A,haborder.png,1,z,Fri Jun 19 2026 11:18:23 GMT-0500 (Central Daylight Time),171577.29999995232,CFD-BF-031-020-A.jpg,1000,solid,I,z,1298,4,2,18177.299999952316,153400.0,8099,ATS,C,8
9,test,1,A,haborder.png,1,m,Fri Jun 19 2026 11:18:23 GMT-0500 (Central Daylight Time),174193.60000002384,CFD-BM-022-004-HC.jpg,1500,solid,I,m,1083,3,2,20793.600000023842,153400.0,8099,ATS,C,9
10,test,1,A,haborder.png,1,m,Fri Jun 19 2026 11:18:23 GMT-0500 (Central Daylight Time),176542.5,CFD-WM-035-036-HC.jpg,1700,solid,I,m,619,9,2,23142.5,153400.0,8099,ATS,C,10
11,test,1,A,haborder.png,1,z,Fri Jun 19 2026 11:18:23 GMT-0500 (Central Daylight Time),178992.0,CFD-WF-037-016-A.jpg,1600,solid,I,z,817,10,2,25592.0,153400.0,8099,ATS,C,11
12,test,1,A,haborder.png,1,m,Fri Jun 19 2026 11:18:23 GMT-0500 (Central Daylight Time),181824.29999995232,CFD-BF-019-004-HC.jpg,2000,solid,I,m,816,5,2,28424.299999952316,153400.0,8099,ATS,C,12
13,test,1,A,haborder.png,1,z,Fri Jun 19 2026 11:18:23 GMT-0500 (Central Daylight Time),184540.19999992847,CFD-WF-037-016-A.jpg,1600,solid,I,z,1088,10,2,31140.199999928474,153400.0,8099,ATS,C,13
14,test,1,A,haborder.png,1,m,Fri Jun 19 2026 11:18:23 GMT-0500 (Central Daylight Time),186556.19999992847,CFD-WM-028-005-HC.jpg,1400,solid,I,m,596,7,2,33156.199999928474,153400.0,8099,ATS,C,14
15,test,1,A,haborder.png,1,z,Fri Jun 19 2026 11:18:23 GMT-0500 (Central Daylight Time),188522.10000002384,CFD-BF-002-018-A.jpg,1200,solid,I,z,740,6,2,35122.10000002384,153400.0,8099,ATS,C,15
16,test,1,A,haborder.png,1,m,Fri Jun 19 2026 11:18:23 GMT-0500 (Central Daylight Time),190488.29999995232,CFD-BM-022-004-HC.jpg,1500,solid,I,m,449,3,2,37088.299999952316,153400.0,8099,ATS,C,16
17,test,1,A,haborder.png,1,z,Fri Jun 19 2026 11:18:23 GMT-0500 (Central Daylight Time),192537.19999992847,CFD-BM-043-014-A.jpg,1600,solid,I,z,431,2,2,39137.199999928474,153400.0,8099,ATS,C,17
17,test,1,A,haborder.png,0,z,Fri Jun 19 2026 11:18:23 GMT-0500 (Central Daylight Time),194121.60000002384,CFD-BF-031-020-A.jpg,1000,solid,I,m,551,4,2,40721.60000002384,153400.0,8099,ATS,C,18
18,test,1,A,haborder.png,1,m,Fri Jun 19 2026 11:18:23 GMT-0500 (Central Daylight Time),196652.79999995232,CFD-BM-034-035-HC.jpg,1700,solid,I,m,804,1,2,43252.799999952316,153400.0,8099,ATS,C,19
19,test,1,A,haborder.png,1,z,Fri Jun 19 2026 11:18:23 GMT-0500 (Central Daylight Time),198368.89999997616,CFD-WF-023-013-A.jpg,1000,solid,I,z,699,12,2,44968.89999997616,153400.0,8099,ATS,C,20
20,test,1,A,haborder.png,1,m,Fri Jun 19 2026 11:18:23 GMT-0500 (Central Daylight Time),200801.69999992847,CFD-BM-034-035-HC.jpg,1700,solid,I,m,699,1,2,47401.699999928474,153400.0,8099,ATS,C,21
21,test,1,A,haborder.png,1,m,Fri Jun 19 2026 11:18:23 GMT-0500 (Central Daylight Time),203002.10000002384,CFD-WF-013-009-HC.jpg,1500,solid,I,m,682,11,2,49602.10000002384,153400.0,8099,ATS,C,22
22,test,1,A,haborder.png,1,z,Fri Jun 19 2026 11:18:23 GMT-0500 (Central Daylight Time),205500.19999992847,CFD-WM-036-018-A.jpg,1900,solid,I,z,579,8,2,52100.199999928474,153400.0,8099,ATS,C,23
23,test,1,A,haborder.png,1,z,Fri Jun 19 2026 11:18:23 GMT-0500 (Central Daylight Time),207049.39999997616,CFD-WF-023-013-A.jpg,1000,solid,I,z,532,12,2,53649.39999997616,153400.0,8099,ATS,C,24
1,test,1,B,mfborder.png,1,z,Fri Jun 19 2026 11:18:23 GMT-0500 (Central Daylight Time),219446.89999997616,CFD-BF-031-020-A.jpg,1000,dash,I,z,611,4,2,1633.7999999523163,217813.10000002384,8099,ATS,C,1
2,test,1,B,mfborder.png,1,m,Fri Jun 19 2026 11:18:23 GMT-0500 (Central Daylight Time),221128.79999995232,CFD-WM-034-040-A.jpg,1200,dash,I,m,451,6,2,3315.6999999284744,217813.10000002384,8099,ATS,C,2
3,test,1,B,mfborder.png,1,z,Fri Jun 19 2026 11:18:23 GMT-0500 (Central Daylight Time),223661.19999992847,CFD-WF-037-016-A.jpg,1500,dash,I,z,1004,11,2,5848.099999904633,217813.10000002384,8099,ATS,C,3
4,test,1,B,mfborder.png,1,m,Fri Jun 19 2026 11:18:23 GMT-0500 (Central Daylight Time),225893.69999992847,CFD-WM-036-018-A.jpg,1700,dash,I,m,503,9,2,8080.599999904633,217813.10000002384,8099,ATS,C,4
5,test,1,B,mfborder.png,1,z,Fri Jun 19 2026 11:18:23 GMT-0500 (Central Daylight Time),228259.89999997616,CFD-BF-042-031-HC.jpg,1500,dash,I,z,839,3,2,10446.799999952316,217813.10000002384,8099,ATS,C,5
6,test,1,B,mfborder.png,1,m,Fri Jun 19 2026 11:18:23 GMT-0500 (Central Daylight Time),230442.29999995232,CFD-WM-036-018-A.jpg,1700,dash,I,m,464,9,2,12629.199999928474,217813.10000002384,8099,ATS,C,6
7,test,1,B,mfborder.png,1,m,Fri Jun 19 2026 11:18:23 GMT-0500 (Central Daylight Time),232291.69999992847,CFD-WM-034-040-A.jpg,1200,dash,I,m,630,6,2,14478.599999904633,217813.10000002384,8099,ATS,C,7
8,test,1,B,mfborder.png,1,m,Fri Jun 19 2026 11:18:23 GMT-0500 (Central Daylight Time),234874.5,CFD-BM-043-014-A.jpg,2000,dash,I,m,557,5,2,17061.399999976158,217813.10000002384,8099,ATS,C,8
9,test,1,B,mfborder.png,1,m,Fri Jun 19 2026 11:18:23 GMT-0500 (Central Daylight Time),236940.39999997616,CFD-BM-021-026-A.jpg,1600,dash,I,m,445,2,2,19127.299999952316,217813.10000002384,8099,ATS,C,9
10,test,1,B,mfborder.png,1,z,Fri Jun 19 2026 11:18:23 GMT-0500 (Central Daylight Time),239689.5,CFD-WF-001-010-HC.jpg,1900,dash,I,z,824,8,2,21876.399999976158,217813.10000002384,8099,ATS,C,10
11,test,1,B,mfborder.png,1,z,Fri Jun 19 2026 11:18:23 GMT-0500 (Central Daylight Time),241488.79999995232,CFD-BF-031-020-A.jpg,1000,dash,I,z,783,4,2,23675.699999928474,217813.10000002384,8099,ATS,C,11
12,test,1,B,mfborder.png,1,z,Fri Jun 19 2026 11:18:23 GMT-0500 (Central Daylight Time),243505.0,CFD-BF-019-004-HC.jpg,1400,dash,I,z,590,7,2,25691.899999976158,217813.10000002384,8099,ATS,C,12
13,test,1,B,mfborder.png,1,m,Fri Jun 19 2026 11:18:23 GMT-0500 (Central Daylight Time),245987.60000002384,CFD-BM-043-014-A.jpg,2000,dash,I,m,463,5,2,28174.5,217813.10000002384,8099,ATS,C,13
14,test,1,B,mfborder.png,1,m,Fri Jun 19 2026 11:18:23 GMT-0500 (Central Daylight Time),248253.5,CFD-WM-035-036-HC.jpg,1600,dash,I,m,645,10,2,30440.399999976158,217813.10000002384,8099,ATS,C,14
15,test,1,B,mfborder.png,1,z,Fri Jun 19 2026 11:18:23 GMT-0500 (Central Daylight Time),250502.69999992847,CFD-BF-042-031-HC.jpg,1500,dash,I,z,726,3,2,32689.599999904633,217813.10000002384,8099,ATS,C,15
16,test,1,B,mfborder.png,1,m,Fri Jun 19 2026 11:18:23 GMT-0500 (Central Daylight Time),252818.69999992847,CFD-BM-022-004-HC.jpg,1700,dash,I,m,589,1,2,35005.59999990463,217813.10000002384,8099,ATS,C,16
17,test,1,B,mfborder.png,1,m,Fri Jun 19 2026 11:18:23 GMT-0500 (Central Daylight Time),254951.19999992847,CFD-BM-021-026-A.jpg,1600,dash,I,m,501,2,2,37138.09999990463,217813.10000002384,8099,ATS,C,17
18,test,1,B,mfborder.png,1,z,Fri Jun 19 2026 11:18:23 GMT-0500 (Central Daylight Time),256467.5,CFD-WF-013-009-HC.jpg,1000,dash,I,z,496,12,2,38654.39999997616,217813.10000002384,8099,ATS,C,18
19,test,1,B,mfborder.png,1,z,Fri Jun 19 2026 11:18:23 GMT-0500 (Central Daylight Time),258983.29999995232,CFD-WF-001-010-HC.jpg,1900,dash,I,z,592,8,2,41170.199999928474,217813.10000002384,8099,ATS,C,19
20,test,1,B,mfborder.png,1,z,Fri Jun 19 2026 11:18:23 GMT-0500 (Central Daylight Time),260949.60000002384,CFD-WF-037-016-A.jpg,1500,dash,I,z,445,11,2,43136.5,217813.10000002384,8099,ATS,C,20
21,test,1,B,mfborder.png,1,z,Fri Jun 19 2026 11:18:23 GMT-0500 (Central Daylight Time),262382.39999997616,CFD-WF-013-009-HC.jpg,1000,dash,I,z,402,12,2,44569.299999952316,217813.10000002384,8099,ATS,C,21
22,test,1,B,mfborder.png,1,m,Fri Jun 19 2026 11:18:23 GMT-0500 (Central Daylight Time),264564.89999997616,CFD-WM-035-036-HC.jpg,1600,dash,I,m,562,10,2,46751.799999952316,217813.10000002384,8099,ATS,C,22
23,test,1,B,mfborder.png,1,m,Fri Jun 19 2026 11:18:23 GMT-0500 (Central Daylight Time),266781.10000002384,CFD-BM-022-004-HC.jpg,1700,dash,I,m,495,1,2,48968.0,217813.10000002384,8099,ATS,C,23
24,test,1,B,mfborder.png,1,z,Fri Jun 19 2026 11:18:23 GMT-0500 (Central Daylight Time),268763.60000002384,CFD-BF-019-004-HC.jpg,1400,dash,I,z,554,7,2,50950.5,217813.10000002384,8099,ATS,C,24
1,prac,1,C,mfborder.png,1,m,Fri Jun 19 2026 11:18:23 GMT-0500 (Central Daylight Time),304420.0,CFD-BM-043-014-A.jpg,1200,dash,I,m,970,7,2,2966.399999976158,301453.60000002384,8099,ATS,C,1
2,prac,1,C,mfborder.png,1,z,Fri Jun 19 2026 11:18:23 GMT-0500 (Central Daylight Time),307718.39999997616,CFD-WF-023-013-A.jpg,1500,solid,I,z,999,7,2,6264.799999952316,301453.60000002384,8099,ATS,C,2
3,prac,1,C,haborder.png,1,z,Fri Jun 19 2026 11:18:23 GMT-0500 (Central Daylight Time),311583.7999999523,CFD-BF-031-020-A.jpg,1900,dash,I,z,1182,7,2,10130.199999928474,301453.60000002384,8099,ATS,C,3
4,prac,1,C,mfborder.png,1,z,Fri Jun 19 2026 11:18:23 GMT-0500 (Central Daylight Time),314399.5,CFD-BF-019-004-HC.jpg,1000,dash,I,z,1033,7,2,12945.899999976158,301453.60000002384,8099,ATS,C,4
4,prac,1,C,haborder.png,0,m,Fri Jun 19 2026 11:18:23 GMT-0500 (Central Daylight Time),318198.2999999523,CFD-BM-022-004-HC.jpg,1500,solid,I,None,1516,7,2,16744.699999928474,301453.60000002384,8099,ATS,C,5
5,prac,1,C,mfborder.png,1,z,Fri Jun 19 2026 11:18:23 GMT-0500 (Central Daylight Time),321580.5,CFD-WF-013-009-HC.jpg,1600,dash,I,z,986,7,2,20126.899999976158,301453.60000002384,8099,ATS,C,6
6,prac,1,C,haborder.png,1,m,Fri Jun 19 2026 11:18:23 GMT-0500 (Central Daylight Time),324529.6999999285,CFD-WM-028-005-HC.jpg,1400,solid,I,m,755,7,2,23076.099999904633,301453.60000002384,8099,ATS,C,7
6,prac,1,C,mfborder.png,0,m,Fri Jun 19 2026 11:18:23 GMT-0500 (Central Daylight Time),328528.1999999285,CFD-WM-036-018-A.jpg,1700,solid,I,None,1516,7,2,27074.599999904633,301453.60000002384,8099,ATS,C,8
6,prac,1,C,haborder.png,0,m,Fri Jun 19 2026 11:18:23 GMT-0500 (Central Daylight Time),331827.2999999523,CFD-WM-028-005-HC.jpg,1000,dash,I,None,1516,7,2,30373.699999928474,301453.60000002384,8099,ATS,C,9
7,prac,1,C,haborder.png,1,z,Fri Jun 19 2026 11:18:23 GMT-0500 (Central Daylight Time),335392.6999999285,CFD-WF-037-016-A.jpg,1600,dash,I,z,1173,7,2,33939.09999990463,301453.60000002384,8099,ATS,C,10
8,prac,1,C,mfborder.png,1,m,Fri Jun 19 2026 11:18:23 GMT-0500 (Central Daylight Time),339041.7999999523,CFD-BM-034-035-HC.jpg,2000,solid,I,m,863,7,2,37588.199999928474,301453.60000002384,8099,ATS,C,11
9,prac,1,C,haborder.png,1,z,Fri Jun 19 2026 11:18:23 GMT-0500 (Central Daylight Time),342457.39999997616,CFD-BF-002-018-A.jpg,1700,solid,I,z,921,7,2,41003.799999952316,301453.60000002384,8099,ATS,C,12
1,test,1,C,haborder.png,1,z,Fri Jun 19 2026 11:18:23 GMT-0500 (Central Daylight Time),374280.60000002384,CFD-BM-043-014-A.jpg,1900,solid,I,z,1041,8,2,2965.600000023842,371315.0,8099,ATS,C,1
2,test,1,C,mfborder.png,1,m,Fri Jun 19 2026 11:18:23 GMT-0500 (Central Daylight Time),376529.89999997616,CFD-BM-022-004-HC.jpg,1200,dash,I,m,1032,6,2,5214.899999976158,371315.0,8099,ATS,C,2
3,test,1,C,mfborder.png,1,m,Fri Jun 19 2026 11:18:23 GMT-0500 (Central Daylight Time),378212.7999999523,CFD-WM-035-036-HC.jpg,1000,dash,I,m,655,4,2,6897.799999952316,371315.0,8099,ATS,C,3
4,test,1,C,mfborder.png,1,z,Fri Jun 19 2026 11:18:23 GMT-0500 (Central Daylight Time),380995.1999999285,CFD-BF-031-020-A.jpg,1600,dash,I,z,1162,2,2,9680.199999928474,371315.0,8099,ATS,C,4
5,test,1,C,haborder.png,1,m,Fri Jun 19 2026 11:18:23 GMT-0500 (Central Daylight Time),383944.2999999523,CFD-BF-019-004-HC.jpg,1600,solid,I,m,1325,10,2,12629.299999952316,371315.0,8099,ATS,C,5
6,test,1,C,haborder.png,1,z,Fri Jun 19 2026 11:18:23 GMT-0500 (Central Daylight Time),386176.89999997616,CFD-WM-036-018-A.jpg,1400,solid,I,z,808,7,2,14861.899999976158,371315.0,8099,ATS,C,6
7,test,1,C,haborder.png,1,m,Fri Jun 19 2026 11:18:23 GMT-0500 (Central Daylight Time),388510.6999999285,CFD-WF-001-010-HC.jpg,1500,solid,I,m,811,11,2,17195.699999928474,371315.0,8099,ATS,C,7
8,test,1,C,haborder.png,1,z,Fri Jun 19 2026 11:18:23 GMT-0500 (Central Daylight Time),391108.89999997616,CFD-BM-021-026-A.jpg,1700,solid,I,z,871,9,2,19793.899999976158,371315.0,8099,ATS,C,8
9,test,1,C,haborder.png,1,m,Fri Jun 19 2026 11:18:23 GMT-0500 (Central Daylight Time),393108.10000002384,CFD-WF-013-009-HC.jpg,1000,solid,I,m,979,12,2,21793.100000023842,371315.0,8099,ATS,C,9
10,test,1,C,mfborder.png,1,m,Fri Jun 19 2026 11:18:23 GMT-0500 (Central Daylight Time),395990.7999999523,CFD-WM-034-040-A.jpg,2000,dash,I,m,860,5,2,24675.799999952316,371315.0,8099,ATS,C,10
11,test,1,C,haborder.png,1,m,Fri Jun 19 2026 11:18:23 GMT-0500 (Central Daylight Time),398756.2999999523,CFD-WF-001-010-HC.jpg,1500,solid,I,m,1237,11,2,27441.299999952316,371315.0,8099,ATS,C,11
12,test,1,C,mfborder.png,1,m,Fri Jun 19 2026 11:18:23 GMT-0500 (Central Daylight Time),400939.10000002384,CFD-BM-022-004-HC.jpg,1200,dash,I,m,964,6,2,29624.100000023842,371315.0,8099,ATS,C,12
13,test,1,C,haborder.png,1,m,Fri Jun 19 2026 11:18:23 GMT-0500 (Central Daylight Time),403521.2999999523,CFD-BF-019-004-HC.jpg,1600,solid,I,m,950,10,2,32206.299999952316,371315.0,8099,ATS,C,13
14,test,1,C,haborder.png,1,m,Fri Jun 19 2026 11:18:23 GMT-0500 (Central Daylight Time),405304.5,CFD-WF-013-009-HC.jpg,1000,solid,I,m,766,12,2,33989.5,371315.0,8099,ATS,C,14
15,test,1,C,haborder.png,1,z,Fri Jun 19 2026 11:18:23 GMT-0500 (Central Daylight Time),407670.2999999523,CFD-WM-036-018-A.jpg,1400,solid,I,z,936,7,2,36355.299999952316,371315.0,8099,ATS,C,15
16,test,1,C,mfborder.png,1,z,Fri Jun 19 2026 11:18:23 GMT-0500 (Central Daylight Time),410369.39999997616,CFD-WF-037-016-A.jpg,1500,dash,I,z,1175,3,2,39054.39999997616,371315.0,8099,ATS,C,16
17,test,1,C,mfborder.png,1,z,Fri Jun 19 2026 11:18:23 GMT-0500 (Central Daylight Time),412435.39999997616,CFD-WF-037-016-A.jpg,1500,dash,I,z,539,3,2,41120.39999997616,371315.0,8099,ATS,C,17
18,test,1,C,mfborder.png,1,m,Fri Jun 19 2026 11:18:23 GMT-0500 (Central Daylight Time),414234.89999997616,CFD-WM-035-036-HC.jpg,1000,dash,I,m,773,4,2,42919.89999997616,371315.0,8099,ATS,C,18
19,test,1,C,haborder.png,1,z,Fri Jun 19 2026 11:18:23 GMT-0500 (Central Daylight Time),417067.2999999523,CFD-BM-021-026-A.jpg,1700,solid,I,z,1113,9,2,45752.299999952316,371315.0,8099,ATS,C,19
20,test,1,C,mfborder.png,1,m,Fri Jun 19 2026 11:18:23 GMT-0500 (Central Daylight Time),419916.39999997616,CFD-WM-034-040-A.jpg,2000,dash,I,m,828,5,2,48601.39999997616,371315.0,8099,ATS,C,20
21,test,1,C,haborder.png,1,z,Fri Jun 19 2026 11:18:23 GMT-0500 (Central Daylight Time),422948.7999999523,CFD-BM-043-014-A.jpg,1900,solid,I,z,1104,8,2,51633.799999952316,371315.0,8099,ATS,C,21
22,test,1,C,mfborder.png,1,z,Fri Jun 19 2026 11:18:23 GMT-0500 (Central Daylight Time),425664.39999997616,CFD-BF-042-031-HC.jpg,1700,dash,I,z,991,1,2,54349.39999997616,371315.0,8099,ATS,C,22
23,test,1,C,mfborder.png,1,z,Fri Jun 19 2026 11:18:23 GMT-0500 (Central Daylight Time),428080.5,CFD-BF-031-020-A.jpg,1600,dash,I,z,792,2,2,56765.5,371315.0,8099,ATS,C,23
24,test,1,C,mfborder.png,1,z,Fri Jun 19 2026 11:18:23 GMT-0500 (Central Daylight Time),430347.5,CFD-BF-042-031-HC.jpg,1700,dash,I,z,548,1,2,59032.5,371315.0,8099,ATS,C,24
1,test,2,C,haborder.png,1,z,Fri Jun 19 2026 11:18:23 GMT-0500 (Central Daylight Time),434895.10000002384,CFD-BF-002-018-A.jpg,1900,solid,I,z,984,8,2,2915.600000023842,431979.5,8099,ATS,C,1
2,test,2,C,haborder.png,1,m,Fri Jun 19 2026 11:18:23 GMT-0500 (Central Daylight Time),437278.0,CFD-WM-028-005-HC.jpg,1500,solid,I,m,853,11,2,5298.5,431979.5,8099,ATS,C,2
3,test,2,C,mfborder.png,1,z,Fri Jun 19 2026 11:18:23 GMT-0500 (Central Daylight Time),439972.5,CFD-WF-013-009-HC.jpg,1700,dash,I,z,942,1,2,7993.0,431979.5,8099,ATS,C,3
4,test,2,C,haborder.png,1,m,Fri Jun 19 2026 11:18:23 GMT-0500 (Central Daylight Time),442410.1999999285,CFD-WM-028-005-HC.jpg,1000,solid,I,m,1423,12,2,10430.699999928474,431979.5,8099,ATS,C,4
4,test,2,C,mfborder.png,0,m,Fri Jun 19 2026 11:18:23 GMT-0500 (Central Daylight Time),444458.60000002384,CFD-WM-036-018-A.jpg,1200,dash,I,z,822,6,2,12479.100000023842,431979.5,8099,ATS,C,5
5,test,2,C,haborder.png,1,z,Fri Jun 19 2026 11:18:23 GMT-0500 (Central Daylight Time),447275.60000002384,CFD-BF-002-018-A.jpg,1900,solid,I,z,897,8,2,15296.100000023842,431979.5,8099,ATS,C,6
6,test,2,C,haborder.png,1,z,Fri Jun 19 2026 11:18:23 GMT-0500 (Central Daylight Time),449823.6999999285,CFD-WF-037-016-A.jpg,1700,solid,I,z,826,9,2,17844.199999928474,431979.5,8099,ATS,C,7
7,test,2,C,mfborder.png,1,z,Fri Jun 19 2026 11:18:23 GMT-0500 (Central Daylight Time),452072.7999999523,CFD-BF-019-004-HC.jpg,1500,dash,I,z,725,3,2,20093.299999952316,431979.5,8099,ATS,C,8
8,test,2,C,mfborder.png,1,m,Fri Jun 19 2026 11:18:23 GMT-0500 (Central Daylight Time),454338.7999999523,CFD-BM-034-035-HC.jpg,1000,dash,I,m,1239,4,2,22359.299999952316,431979.5,8099,ATS,C,9
9,test,2,C,haborder.png,1,m,Fri Jun 19 2026 11:18:23 GMT-0500 (Central Daylight Time),456504.89999997616,CFD-WM-028-005-HC.jpg,1000,solid,I,m,1150,12,2,24525.399999976158,431979.5,8099,ATS,C,10
10,test,2,C,haborder.png,1,m,Fri Jun 19 2026 11:18:23 GMT-0500 (Central Daylight Time),458787.60000002384,CFD-WM-028-005-HC.jpg,1500,solid,I,m,764,11,2,26808.100000023842,431979.5,8099,ATS,C,11
11,test,2,C,mfborder.png,1,z,Fri Jun 19 2026 11:18:23 GMT-0500 (Central Daylight Time),461353.1999999285,CFD-BF-019-004-HC.jpg,1500,dash,I,z,1040,3,2,29373.699999928474,431979.5,8099,ATS,C,12
12,test,2,C,mfborder.png,1,m,Fri Jun 19 2026 11:18:23 GMT-0500 (Central Daylight Time),463669.39999997616,CFD-WM-036-018-A.jpg,1200,dash,I,m,1086,6,2,31689.899999976158,431979.5,8099,ATS,C,13
13,test,2,C,haborder.png,1,m,Fri Jun 19 2026 11:18:23 GMT-0500 (Central Daylight Time),466185.1999999285,CFD-BM-022-004-HC.jpg,1600,solid,I,m,899,10,2,34205.699999928474,431979.5,8099,ATS,C,14
14,test,2,C,mfborder.png,1,m,Fri Jun 19 2026 11:18:23 GMT-0500 (Central Daylight Time),469301.0,CFD-BM-043-014-A.jpg,2000,dash,I,m,1096,5,2,37321.5,431979.5,8099,ATS,C,15
15,test,2,C,mfborder.png,1,z,Fri Jun 19 2026 11:18:23 GMT-0500 (Central Daylight Time),471916.89999997616,CFD-WF-013-009-HC.jpg,1700,dash,I,z,896,1,2,39937.39999997616,431979.5,8099,ATS,C,16
16,test,2,C,mfborder.png,1,m,Fri Jun 19 2026 11:18:23 GMT-0500 (Central Daylight Time),474882.39999997616,CFD-BM-043-014-A.jpg,2000,dash,I,m,948,5,2,42902.89999997616,431979.5,8099,ATS,C,17
17,test,2,C,mfborder.png,1,z,Fri Jun 19 2026 11:18:23 GMT-0500 (Central Daylight Time),477481.89999997616,CFD-WF-023-013-A.jpg,1600,dash,I,z,974,2,2,45502.39999997616,431979.5,8099,ATS,C,18
18,test,2,C,mfborder.png,1,m,Fri Jun 19 2026 11:18:23 GMT-0500 (Central Daylight Time),479264.60000002384,CFD-BM-034-035-HC.jpg,1000,dash,I,m,765,4,2,47285.10000002384,431979.5,8099,ATS,C,19
19,test,2,C,haborder.png,1,m,Fri Jun 19 2026 11:18:23 GMT-0500 (Central Daylight Time),481830.39999997616,CFD-BM-022-004-HC.jpg,1600,solid,I,m,943,10,2,49850.89999997616,431979.5,8099,ATS,C,20
20,test,2,C,mfborder.png,1,z,Fri Jun 19 2026 11:18:23 GMT-0500 (Central Daylight Time),484545.7999999523,CFD-WF-023-013-A.jpg,1600,dash,I,z,1089,2,2,52566.299999952316,431979.5,8099,ATS,C,21
21,test,2,C,haborder.png,1,z,Fri Jun 19 2026 11:18:23 GMT-0500 (Central Daylight Time),487128.39999997616,CFD-WF-037-016-A.jpg,1700,solid,I,z,865,9,2,55148.89999997616,431979.5,8099,ATS,C,22
22,test,2,C,haborder.png,1,z,Fri Jun 19 2026 11:18:23 GMT-0500 (Central Daylight Time),489177.89999997616,CFD-BF-031-020-A.jpg,1400,solid,I,z,631,7,2,57198.39999997616,431979.5,8099,ATS,C,23
23,test,2,C,haborder.png,1,z,Fri Jun 19 2026 11:18:23 GMT-0500 (Central Daylight Time),491127.6999999285,CFD-BF-031-020-A.jpg,1400,solid,I,z,518,7,2,59148.199999928474,431979.5,8099,ATS,C,24
1,test,3,C,mfborder.png,1,m,Fri Jun 19 2026 11:18:23 GMT-0500 (Central Daylight Time),496442.2999999523,CFD-BM-022-004-HC.jpg,1200,dash,I,m,1047,6,2,2265.6999999284744,494176.60000002384,8099,ATS,C,1
2,test,3,C,mfborder.png,1,m,Fri Jun 19 2026 11:18:23 GMT-0500 (Central Daylight Time),499024.89999997616,CFD-WM-034-040-A.jpg,2000,dash,I,m,566,5,2,4848.299999952316,494176.60000002384,8099,ATS,C,2
3,test,3,C,haborder.png,1,z,Fri Jun 19 2026 11:18:23 GMT-0500 (Central Daylight Time),501790.60000002384,CFD-BM-021-026-A.jpg,1700,solid,I,z,1035,9,2,7614.0,494176.60000002384,8099,ATS,C,3
4,test,3,C,mfborder.png,1,z,Fri Jun 19 2026 11:18:23 GMT-0500 (Central Daylight Time),504073.1999999285,CFD-BF-031-020-A.jpg,1600,dash,I,z,656,2,2,9896.599999904633,494176.60000002384,8099,ATS,C,4
5,test,3,C,haborder.png,1,m,Fri Jun 19 2026 11:18:23 GMT-0500 (Central Daylight Time),506489.39999997616,CFD-BF-019-004-HC.jpg,1600,solid,I,m,783,10,2,12312.799999952316,494176.60000002384,8099,ATS,C,5
6,test,3,C,haborder.png,1,z,Fri Jun 19 2026 11:18:23 GMT-0500 (Central Daylight Time),509321.6999999285,CFD-BM-043-014-A.jpg,1900,solid,I,z,906,8,2,15145.099999904633,494176.60000002384,8099,ATS,C,6
7,test,3,C,mfborder.png,1,z,Fri Jun 19 2026 11:18:23 GMT-0500 (Central Daylight Time),512071.10000002384,CFD-BF-042-031-HC.jpg,1700,dash,I,z,1019,1,2,17894.5,494176.60000002384,8099,ATS,C,7
7,test,3,C,haborder.png,0,m,Fri Jun 19 2026 11:18:23 GMT-0500 (Central Daylight Time),515003.2999999523,CFD-WF-001-010-HC.jpg,1500,solid,I,z,1413,11,2,20826.699999928474,494176.60000002384,8099,ATS,C,8
7,test,3,C,haborder.png,0,z,Fri Jun 19 2026 11:18:23 GMT-0500 (Central Daylight Time),517902.60000002384,CFD-WM-036-018-A.jpg,1400,solid,I,m,1469,7,2,23726.0,494176.60000002384,8099,ATS,C,9
8,test,3,C,haborder.png,1,z,Fri Jun 19 2026 11:18:23 GMT-0500 (Central Daylight Time),520351.6999999285,CFD-BM-021-026-A.jpg,1700,solid,I,z,717,9,2,26175.099999904633,494176.60000002384,8099,ATS,C,10
9,test,3,C,mfborder.png,1,m,Fri Jun 19 2026 11:18:23 GMT-0500 (Central Daylight Time),522434.1999999285,CFD-WM-035-036-HC.jpg,1000,dash,I,m,1064,4,2,28257.599999904633,494176.60000002384,8099,ATS,C,11
9,test,3,C,haborder.png,0,m,Fri Jun 19 2026 11:18:23 GMT-0500 (Central Daylight Time),525433.2999999523,CFD-BF-019-004-HC.jpg,1600,solid,I,z,1374,10,2,31256.699999928474,494176.60000002384,8099,ATS,C,12
10,test,3,C,mfborder.png,1,z,Fri Jun 19 2026 11:18:23 GMT-0500 (Central Daylight Time),528049.1000000238,CFD-BF-042-031-HC.jpg,1700,dash,I,z,890,1,2,33872.5,494176.60000002384,8099,ATS,C,13
10,test,3,C,haborder.png,0,z,Fri Jun 19 2026 11:18:23 GMT-0500 (Central Daylight Time),530215.0,CFD-WM-036-018-A.jpg,1400,solid,I,m,735,7,2,36038.39999997616,494176.60000002384,8099,ATS,C,14
11,test,3,C,mfborder.png,1,m,Fri Jun 19 2026 11:18:23 GMT-0500 (Central Daylight Time),532630.8999999762,CFD-BM-022-004-HC.jpg,1200,dash,I,m,1185,6,2,38454.299999952316,494176.60000002384,8099,ATS,C,15
12,test,3,C,mfborder.png,1,z,Fri Jun 19 2026 11:18:23 GMT-0500 (Central Daylight Time),535313.5,CFD-WF-037-016-A.jpg,1500,dash,I,z,1095,3,2,41136.89999997616,494176.60000002384,8099,ATS,C,16
13,test,3,C,mfborder.png,1,z,Fri Jun 19 2026 11:18:23 GMT-0500 (Central Daylight Time),538045.8999999762,CFD-BF-031-020-A.jpg,1600,dash,I,z,1111,2,2,43869.299999952316,494176.60000002384,8099,ATS,C,17
14,test,3,C,haborder.png,1,z,Fri Jun 19 2026 11:18:23 GMT-0500 (Central Daylight Time),540928.2999999523,CFD-BM-043-014-A.jpg,1900,solid,I,z,950,8,2,46751.699999928474,494176.60000002384,8099,ATS,C,18
15,test,3,C,haborder.png,1,m,Fri Jun 19 2026 11:18:23 GMT-0500 (Central Daylight Time),543577.5,CFD-WF-001-010-HC.jpg,1500,solid,I,m,1131,11,2,49400.89999997616,494176.60000002384,8099,ATS,C,19
16,test,3,C,haborder.png,1,m,Fri Jun 19 2026 11:18:23 GMT-0500 (Central Daylight Time),545227.7999999523,CFD-WF-013-009-HC.jpg,1000,solid,I,m,622,12,2,51051.199999928474,494176.60000002384,8099,ATS,C,20
17,test,3,C,mfborder.png,1,z,Fri Jun 19 2026 11:18:23 GMT-0500 (Central Daylight Time),547709.6999999285,CFD-WF-037-016-A.jpg,1500,dash,I,z,961,3,2,53533.09999990463,494176.60000002384,8099,ATS,C,21
18,test,3,C,haborder.png,1,m,Fri Jun 19 2026 11:18:23 GMT-0500 (Central Daylight Time),549859.1999999285,CFD-WF-013-009-HC.jpg,1000,solid,I,m,1131,12,2,55682.59999990463,494176.60000002384,8099,ATS,C,22
19,test,3,C,mfborder.png,1,m,Fri Jun 19 2026 11:18:23 GMT-0500 (Central Daylight Time),553058.1000000238,CFD-WM-034-040-A.jpg,2000,dash,I,m,1174,5,2,58881.5,494176.60000002384,8099,ATS,C,23
20,test,3,C,mfborder.png,1,m,Fri Jun 19 2026 11:18:23 GMT-0500 (Central Daylight Time),555240.8999999762,CFD-WM-035-036-HC.jpg,1000,dash,I,m,1158,4,2,61064.299999952316,494176.60000002384,8099,ATS,C,24
0,test,4,C,haborder.png,0,z,Fri Jun 19 2026 11:18:23 GMT-0500 (Central Daylight Time),559722.7999999523,CFD-WF-037-016-A.jpg,1700,solid,I,None,1516,9,2,3232.600000023842,556490.1999999285,8099,ATS,C,1
1,test,4,C,haborder.png,1,m,Fri Jun 19 2026 11:18:23 GMT-0500 (Central Daylight Time),562305.1000000238,CFD-BM-022-004-HC.jpg,1600,solid,I,m,966,10,2,5814.900000095367,556490.1999999285,8099,ATS,C,2
2,test,4,C,haborder.png,1,m,Fri Jun 19 2026 11:18:23 GMT-0500 (Central Daylight Time),564555.2999999523,CFD-WM-028-005-HC.jpg,1500,solid,I,m,730,11,2,8065.100000023842,556490.1999999285,8099,ATS,C,3
3,test,4,C,mfborder.png,1,m,Fri Jun 19 2026 11:18:23 GMT-0500 (Central Daylight Time),566337.2999999523,CFD-BM-034-035-HC.jpg,1000,dash,I,m,758,4,2,9847.100000023842,556490.1999999285,8099,ATS,C,4
3,test,4,C,haborder.png,0,z,Fri Jun 19 2026 11:18:23 GMT-0500 (Central Daylight Time),569102.8999999762,CFD-BF-002-018-A.jpg,1900,solid,I,m,834,8,2,12612.700000047684,556490.1999999285,8099,ATS,C,5
4,test,4,C,haborder.png,1,z,Fri Jun 19 2026 11:18:23 GMT-0500 (Central Daylight Time),571086.8999999762,CFD-BF-031-020-A.jpg,1400,solid,I,z,560,7,2,14596.700000047684,556490.1999999285,8099,ATS,C,6
5,test,4,C,mfborder.png,1,z,Fri Jun 19 2026 11:18:23 GMT-0500 (Central Daylight Time),573934.7999999523,CFD-WF-013-009-HC.jpg,1700,dash,I,z,1119,1,2,17444.600000023842,556490.1999999285,8099,ATS,C,7
6,test,4,C,haborder.png,1,z,Fri Jun 19 2026 11:18:23 GMT-0500 (Central Daylight Time),576600.6000000238,CFD-BF-002-018-A.jpg,1900,solid,I,z,742,8,2,20110.400000095367,556490.1999999285,8099,ATS,C,8
7,test,4,C,mfborder.png,1,z,Fri Jun 19 2026 11:18:23 GMT-0500 (Central Daylight Time),578833.3999999762,CFD-BF-019-004-HC.jpg,1500,dash,I,z,700,3,2,22343.200000047684,556490.1999999285,8099,ATS,C,9
8,test,4,C,mfborder.png,1,z,Fri Jun 19 2026 11:18:23 GMT-0500 (Central Daylight Time),581165.6000000238,CFD-WF-023-013-A.jpg,1600,dash,I,z,703,2,2,24675.400000095367,556490.1999999285,8099,ATS,C,10
9,test,4,C,mfborder.png,1,z,Fri Jun 19 2026 11:18:23 GMT-0500 (Central Daylight Time),583315.1999999285,CFD-WF-023-013-A.jpg,1600,dash,I,z,523,2,2,26825.0,556490.1999999285,8099,ATS,C,11
10,test,4,C,mfborder.png,1,m,Fri Jun 19 2026 11:18:23 GMT-0500 (Central Daylight Time),586114.2999999523,CFD-BM-043-014-A.jpg,2000,dash,I,m,773,5,2,29624.100000023842,556490.1999999285,8099,ATS,C,12
11,test,4,C,mfborder.png,1,z,Fri Jun 19 2026 11:18:23 GMT-0500 (Central Daylight Time),588497.1999999285,CFD-WF-013-009-HC.jpg,1700,dash,I,z,650,1,2,32007.0,556490.1999999285,8099,ATS,C,13
12,test,4,C,haborder.png,1,m,Fri Jun 19 2026 11:18:23 GMT-0500 (Central Daylight Time),590962.8999999762,CFD-WM-028-005-HC.jpg,1500,solid,I,m,940,11,2,34472.700000047684,556490.1999999285,8099,ATS,C,14
13,test,4,C,mfborder.png,1,m,Fri Jun 19 2026 11:18:23 GMT-0500 (Central Daylight Time),593278.7999999523,CFD-WM-036-018-A.jpg,1200,dash,I,m,1094,6,2,36788.60000002384,556490.1999999285,8099,ATS,C,15
14,test,4,C,haborder.png,1,m,Fri Jun 19 2026 11:18:23 GMT-0500 (Central Daylight Time),595295.0,CFD-WM-028-005-HC.jpg,1000,solid,I,m,993,12,2,38804.800000071526,556490.1999999285,8099,ATS,C,16
15,test,4,C,haborder.png,1,m,Fri Jun 19 2026 11:18:23 GMT-0500 (Central Daylight Time),597477.3999999762,CFD-WM-028-005-HC.jpg,1000,solid,I,m,1152,12,2,40987.200000047684,556490.1999999285,8099,ATS,C,17
16,test,4,C,haborder.png,1,m,Fri Jun 19 2026 11:18:23 GMT-0500 (Central Daylight Time),599793.3999999762,CFD-BM-022-004-HC.jpg,1600,solid,I,m,690,10,2,43303.200000047684,556490.1999999285,8099,ATS,C,18
17,test,4,C,haborder.png,1,z,Fri Jun 19 2026 11:18:23 GMT-0500 (Central Daylight Time),602125.8999999762,CFD-BF-031-020-A.jpg,1400,solid,I,z,903,7,2,45635.700000047684,556490.1999999285,8099,ATS,C,19
18,test,4,C,mfborder.png,1,m,Fri Jun 19 2026 11:18:23 GMT-0500 (Central Daylight Time),604822.1000000238,CFD-WM-036-018-A.jpg,1200,dash,I,m,1479,6,2,48331.90000009537,556490.1999999285,8099,ATS,C,20
19,test,4,C,mfborder.png,1,m,Fri Jun 19 2026 11:18:23 GMT-0500 (Central Daylight Time),607541.0,CFD-BM-043-014-A.jpg,2000,dash,I,m,695,5,2,51050.800000071526,556490.1999999285,8099,ATS,C,21
20,test,4,C,haborder.png,1,z,Fri Jun 19 2026 11:18:23 GMT-0500 (Central Daylight Time),610706.2999999523,CFD-WF-037-016-A.jpg,1700,solid,I,z,1445,9,2,54216.10000002384,556490.1999999285,8099,ATS,C,22
21,test,4,C,mfborder.png,1,m,Fri Jun 19 2026 11:18:23 GMT-0500 (Central Daylight Time),613006.0,CFD-BM-034-035-HC.jpg,1000,dash,I,m,1270,4,2,56515.800000071526,556490.1999999285,8099,ATS,C,23
22,test,4,C,mfborder.png,1,z,Fri Jun 19 2026 11:18:23 GMT-0500 (Central Daylight Time),615671.7999999523,CFD-BF-019-004-HC.jpg,1500,dash,I,z,1142,3,2,59181.60000002384,556490.1999999285,8099,ATS,C,24
