acc_sum,block,block_c,condition,correct,correct_response,datetime,endtime,flanker,jitter,project,response,response_test_buffer_response,response_test_target_response,response_time,response_time_test_buffer_response,response_time_test_target_response,row_sel,session_number,start_end,starttime,subject_id,target,task,task_vers,time_test_buffer,time_test_buffer_response,time_test_constants,time_test_flanker,time_test_jitter,time_test_logger,time_test_target,time_test_target_response,time_test_variables,trial
0,prac,1,inc,0,m,Wed May 13 2026 16:32:54 GMT-0500 (Central Daylight Time),157564.29999999702,pear,900,I,None,,,1815,,,14,1,4977.399999991059,152586.90000000596,8111,iron,NF,C,,,,,,,,,,1
1,prac,1,inc,1,m,Wed May 13 2026 16:32:54 GMT-0500 (Central Daylight Time),160546.59999999404,cherry,900,I,m,,,780,,,10,1,2977.2999999970198,157569.29999999702,8111,copper,NF,C,,,,,,,,,,2
2,prac,1,con,1,z,Wed May 13 2026 16:32:54 GMT-0500 (Central Daylight Time),163545.70000000298,orange,1000,I,z,,,688,,,3,1,2994.1000000089407,160551.59999999404,8111,orange,NF,C,,,,,,,,,,3
3,prac,1,con,1,z,Wed May 13 2026 16:32:54 GMT-0500 (Central Daylight Time),166428.09999999404,kiwi,1000,I,z,,,578,,,7,1,2878.0999999940395,163550.0,8111,kiwi,NF,C,,,,,,,,,,4
4,prac,1,inc,1,z,Wed May 13 2026 16:32:54 GMT-0500 (Central Daylight Time),169544.20000000298,cobalt,1100,I,z,,,716,,,4,1,3110.4000000059605,166433.79999999702,8111,raisin,NF,C,,,,,,,,,,5
5,prac,1,inc,1,z,Wed May 13 2026 16:32:54 GMT-0500 (Central Daylight Time),172692.70000000298,lead,1100,I,z,,,736,,,8,1,3143.5,169549.20000000298,8111,plum,NF,C,,,,,,,,,,6
6,prac,1,con,1,m,Wed May 13 2026 16:32:54 GMT-0500 (Central Daylight Time),175742.0,gold,800,I,m,,,935,,,13,1,3044.7999999970198,172697.20000000298,8111,gold,NF,C,,,,,,,,,,7
7,prac,1,con,1,z,Wed May 13 2026 16:32:54 GMT-0500 (Central Daylight Time),178424.29999999702,banana,800,I,z,,,581,,,1,1,2677.5999999940395,175746.70000000298,8111,banana,NF,C,,,,,,,,,,8
8,prac,1,con,1,z,Wed May 13 2026 16:32:54 GMT-0500 (Central Daylight Time),181389.90000000596,lime,800,I,z,,,860,,,5,1,2961.2000000029802,178428.70000000298,8111,lime,NF,C,,,,,,,,,,9
9,prac,1,inc,1,m,Wed May 13 2026 16:32:54 GMT-0500 (Central Daylight Time),184355.70000000298,raisin,1100,I,m,,,561,,,12,1,2960.5,181395.20000000298,8111,cobalt,NF,C,,,,,,,,,,10
10,prac,1,inc,1,m,Wed May 13 2026 16:32:54 GMT-0500 (Central Daylight Time),187371.5,plum,1100,I,m,,,605,,,16,1,3010.9000000059605,184360.59999999404,8111,lead,NF,C,,,,,,,,,,11
11,prac,1,inc,1,z,Wed May 13 2026 16:32:54 GMT-0500 (Central Daylight Time),190153.90000000596,copper,900,I,z,,,579,,,2,1,2778.1000000089407,187375.79999999702,8111,cherry,NF,C,,,,,,,,,,12
12,prac,1,inc,1,z,Wed May 13 2026 16:32:54 GMT-0500 (Central Daylight Time),192986.09999999404,iron,900,I,z,,,630,,,6,1,2827.3999999910593,190158.70000000298,8111,pear,NF,C,,,,,,,,,,13
13,prac,1,con,1,m,Wed May 13 2026 16:32:54 GMT-0500 (Central Daylight Time),195602.20000000298,bronze,800,I,m,,,513,,,9,1,2611.7000000029802,192990.5,8111,bronze,NF,C,,,,,,,,,,14
14,prac,1,con,1,m,Wed May 13 2026 16:32:54 GMT-0500 (Central Daylight Time),198518.09999999404,silver,1000,I,m,,,610,,,11,1,2911.5,195606.59999999404,8111,silver,NF,C,,,,,,,,,,15
15,prac,1,con,1,m,Wed May 13 2026 16:32:54 GMT-0500 (Central Daylight Time),201417.0,zinc,1000,I,m,,,590,,,15,1,2894.9000000059605,198522.09999999404,8111,zinc,NF,C,,,,,,,,,,16
1,test,1,con,1,z,Wed May 13 2026 16:32:54 GMT-0500 (Central Daylight Time),219228.20000000298,plum,900,I,z,z,None,522,322.0,200.0,58,1,1963.1000000089407,217265.09999999404,8111,plum,NF,C,214909,214909,213279,214193,213279,215242,214709,214709,215242,1
2,test,1,inc,1,m,Wed May 13 2026 16:32:54 GMT-0500 (Central Daylight Time),221111.09999999404,lime,800,I,m,m,None,544,344.0,200.0,125,1,1878.199999988079,219232.90000000596,8111,lead,NF,C,216775,216775,215247,216059,215247,217125,216575,216575,217125,2
3,test,1,inc,1,z,Wed May 13 2026 16:32:54 GMT-0500 (Central Daylight Time),223109.90000000596,copper,900,I,z,z,None,560,360.0,200.0,30,1,1994.5,221115.40000000596,8111,raisin,NF,C,218759,218759,217129,218042,217130,219124,218559,218559,219124,3
4,test,1,inc,1,m,Wed May 13 2026 16:32:54 GMT-0500 (Central Daylight Time),225009.5,banana,800,I,m,m,None,549,350.0,199.0,85,1,1895.4000000059605,223114.09999999404,8111,silver,NF,C,220657,220657,219128,219941,219128,221024,220458,220458,221023,4
5,test,1,con,1,z,Wed May 13 2026 16:32:54 GMT-0500 (Central Daylight Time),227209.09999999404,lime,1000,I,z,z,None,665,466.0,199.0,35,1,2195.5999999940395,225013.5,8111,lime,NF,C,222757,222757,221028,222040,221028,223223,222557,222557,223223,5
6,test,1,inc,1,m,Wed May 13 2026 16:32:54 GMT-0500 (Central Daylight Time),229441.70000000298,plum,1100,I,m,m,None,584,384.0,200.0,104,1,2228.5,227213.20000000298,8111,gold,NF,C,225056,225056,223227,224340,223227,225456,224856,224856,225456,6
7,test,1,con,1,z,Wed May 13 2026 16:32:54 GMT-0500 (Central Daylight Time),231674.09999999404,kiwi,1100,I,z,z,None,589,390.0,199.0,52,1,2228.199999988079,229445.90000000596,8111,kiwi,NF,C,227288,227289,225460,226572,225460,227688,227089,227089,227688,7
8,test,1,inc,1,z,Wed May 13 2026 16:32:54 GMT-0500 (Central Daylight Time),233890.09999999404,cobalt,1100,I,z,z,None,567,367.0,200.0,16,1,2212.199999988079,231677.90000000596,8111,cherry,NF,C,229521,229521,227692,228805,227692,229904,229321,229321,229904,8
9,test,1,con,1,z,Wed May 13 2026 16:32:54 GMT-0500 (Central Daylight Time),236139.59999999404,plum,1100,I,z,z,None,605,405.0,200.0,60,1,2245.2999999970198,233894.29999999702,8111,plum,NF,C,231738,231738,229908,231021,229909,232154,231538,231538,232153,9
10,test,1,inc,1,m,Wed May 13 2026 16:32:54 GMT-0500 (Central Daylight Time),238288.5,raisin,1100,I,m,m,None,517,309.0,208.0,72,1,2145.0,236143.5,8111,bronze,NF,C,233986,233986,232158,233270,232158,234303,233778,233778,234303,10
11,test,1,inc,1,m,Wed May 13 2026 16:32:54 GMT-0500 (Central Daylight Time),240554.59999999404,plum,1100,I,m,m,None,631,431.0,200.0,120,1,2261.5999999940395,238293.0,8111,zinc,NF,C,236136,236136,234307,235419,234307,236569,235936,235936,236569,11
11,test,1,inc,0,m,Wed May 13 2026 16:32:54 GMT-0500 (Central Daylight Time),242520.79999999702,pear,900,I,z,z,None,517,317.0,200.0,102,1,1962.0,240558.79999999702,8111,gold,NF,C,238202,238202,236573,237485,236573,238535,238002,238002,238535,12
12,test,1,inc,1,z,Wed May 13 2026 16:32:54 GMT-0500 (Central Daylight Time),244653.70000000298,iron,900,I,z,z,None,694,495.0,199.0,62,1,2128.5,242525.20000000298,8111,plum,NF,C,240168,240168,238539,239451,238540,240668,239968,239968,240668,13
13,test,1,con,1,z,Wed May 13 2026 16:32:54 GMT-0500 (Central Daylight Time),246719.5,plum,800,I,z,z,None,718,518.0,200.0,57,1,2061.5999999940395,244657.90000000596,8111,plum,NF,C,242201,242201,240672,241484,240672,242734,242001,242001,242734,14
14,test,1,inc,1,m,Wed May 13 2026 16:32:54 GMT-0500 (Central Daylight Time),248785.20000000298,cherry,900,I,m,m,None,631,432.0,199.0,70,1,2061.2999999970198,246723.90000000596,8111,bronze,NF,C,244367,244367,242738,243650,242738,244799,244167,244167,244799,15
15,test,1,con,1,m,Wed May 13 2026 16:32:54 GMT-0500 (Central Daylight Time),250934.79999999702,bronze,900,I,m,m,None,701,502.0,199.0,66,1,2145.5,248789.29999999702,8111,bronze,NF,C,246433,246433,244803,245716,244804,246949,246233,246233,246949,16
16,test,1,con,1,m,Wed May 13 2026 16:32:54 GMT-0500 (Central Daylight Time),253217.59999999404,cobalt,1100,I,m,m,None,648,449.0,199.0,92,1,2278.5999999940395,250939.0,8111,cobalt,NF,C,248782,248782,246953,248065,246953,249232,248582,248582,249232,17
17,test,1,con,1,m,Wed May 13 2026 16:32:54 GMT-0500 (Central Daylight Time),255233.29999999702,gold,900,I,m,m,None,574,373.0,201.0,98,1,2011.7999999970198,253221.5,8111,gold,NF,C,250866,250866,249236,250148,249236,251247,250664,250664,251247,18
18,test,1,con,1,m,Wed May 13 2026 16:32:54 GMT-0500 (Central Daylight Time),257332.59999999404,bronze,1000,I,m,m,None,561,362.0,199.0,67,1,2095.5,255237.09999999404,8111,bronze,NF,C,252981,252981,251251,252264,251252,253347,252781,252781,253347,19
19,test,1,con,1,z,Wed May 13 2026 16:32:54 GMT-0500 (Central Daylight Time),259215.59999999404,lime,800,I,z,z,None,535,335.0,200.0,33,1,1879.0999999940395,257336.5,8111,lime,NF,C,254880,254880,253351,254165,253351,255230,254680,254680,255230,20
20,test,1,con,1,z,Wed May 13 2026 16:32:54 GMT-0500 (Central Daylight Time),261307.29999999702,kiwi,800,I,z,z,None,757,557.0,200.0,49,1,2087.5,259219.79999999702,8111,kiwi,NF,C,256764,256764,255234,256046,255234,257321,256563,256563,257321,21
21,test,1,inc,1,z,Wed May 13 2026 16:32:54 GMT-0500 (Central Daylight Time),263430.90000000596,copper,900,I,z,z,None,684,485.0,199.0,6,1,2118.300000011921,261312.59999999404,8111,banana,NF,C,258946,258946,257327,258229,257327,259445,258746,258746,259445,22
22,test,1,con,1,m,Wed May 13 2026 16:32:54 GMT-0500 (Central Daylight Time),265996.799999997,lead,1100,I,m,m,None,929,729.0,200.0,124,1,2562.0999999940395,263434.700000003,8111,lead,NF,C,261278,261278,259449,260562,259449,262011,261078,261078,262011,23
23,test,1,con,1,z,Wed May 13 2026 16:32:54 GMT-0500 (Central Daylight Time),268129.09999999404,orange,1000,I,z,z,None,590,390.0,200.0,19,1,2127.8999999910593,266001.200000003,8111,orange,NF,C,263744,263744,262015,263027,262016,264143,263544,263544,264143,24
24,test,1,inc,1,z,Wed May 13 2026 16:32:54 GMT-0500 (Central Daylight Time),270345.40000000596,silver,1000,I,z,z,None,666,466.0,200.0,31,1,2211.9000000059605,268133.5,8111,raisin,NF,C,265877,265877,264148,265160,264148,266359,265676,265676,266359,25
25,test,1,inc,1,m,Wed May 13 2026 16:32:54 GMT-0500 (Central Daylight Time),272345.90000000596,banana,800,I,m,m,None,658,459.0,199.0,69,1,1996.5,270349.40000000596,8111,bronze,NF,C,267893,267893,266363,267176,266364,268360,267693,267693,268360,26
26,test,1,con,1,z,Wed May 13 2026 16:32:54 GMT-0500 (Central Daylight Time),274410.799999997,pear,900,I,z,z,None,631,431.0,200.0,42,1,2060.5999999940395,272350.200000003,8111,pear,NF,C,269992,269992,268364,269275,268364,270425,269792,269792,270425,27
27,test,1,con,1,m,Wed May 13 2026 16:32:54 GMT-0500 (Central Daylight Time),276410.299999997,silver,800,I,m,m,None,657,457.0,200.0,81,1,1995.2999999970198,274415.0,8111,silver,NF,C,271958,271958,270429,271242,270429,272424,271758,271758,272424,28
28,test,1,inc,1,z,Wed May 13 2026 16:32:54 GMT-0500 (Central Daylight Time),278659.40000000596,cobalt,1100,I,z,z,None,614,414.0,200.0,24,1,2245.2000000029802,276414.200000003,8111,orange,NF,C,274257,274257,272428,273541,272428,274673,274057,274057,274673,29
29,test,1,con,1,z,Wed May 13 2026 16:32:54 GMT-0500 (Central Daylight Time),280725.40000000596,cherry,800,I,z,z,None,719,520.0,199.0,9,1,2061.800000011921,278663.59999999404,8111,cherry,NF,C,276207,276207,274678,275491,274678,276739,276007,276007,276739,30
30,test,1,inc,1,z,Wed May 13 2026 16:32:54 GMT-0500 (Central Daylight Time),282824.799999997,silver,1000,I,z,z,None,558,359.0,199.0,7,1,2095.7000000029802,280729.09999999404,8111,banana,NF,C,278472,278472,276743,277756,276743,278839,278273,278273,278839,31
31,test,1,con,1,m,Wed May 13 2026 16:32:54 GMT-0500 (Central Daylight Time),285140.799999997,copper,1100,I,m,m,None,670,407.0,263.0,76,1,2311.7999999970198,282829.0,8111,copper,NF,C,280736,280736,278843,279955,278843,281155,280473,280473,281155,32
32,test,1,con,1,m,Wed May 13 2026 16:32:54 GMT-0500 (Central Daylight Time),287390.0,cobalt,900,I,m,m,None,810,611.0,199.0,90,1,2245.2000000029802,285144.799999997,8111,cobalt,NF,C,282788,282788,281159,282071,281159,283404,282588,282588,283404,33
33,test,1,con,1,z,Wed May 13 2026 16:32:54 GMT-0500 (Central Daylight Time),289239.700000003,banana,800,I,z,z,None,502,302.0,200.0,1,1,1846.0,287393.700000003,8111,banana,NF,C,284937,284937,283408,284221,283408,285254,284737,284737,285254,34
34,test,1,inc,1,z,Wed May 13 2026 16:32:54 GMT-0500 (Central Daylight Time),291423.09999999404,silver,1000,I,z,z,None,635,436.0,199.0,15,1,2179.7999999970198,289243.299999997,8111,cherry,NF,C,286987,286987,285257,286270,285258,287437,286787,286787,287437,35
35,test,1,con,1,m,Wed May 13 2026 16:32:54 GMT-0500 (Central Daylight Time),293638.0,zinc,900,I,m,m,None,778,578.0,200.0,114,1,2210.7000000029802,291427.299999997,8111,zinc,NF,C,289069,289069,287441,288353,287442,289652,288869,288869,289652,36
36,test,1,con,1,m,Wed May 13 2026 16:32:54 GMT-0500 (Central Daylight Time),295604.0,iron,900,I,m,m,None,522,322.0,200.0,106,1,1962.2999999970198,293641.700000003,8111,iron,NF,C,291285,291285,289656,290569,289656,291618,291085,291085,291618,37
37,test,1,con,1,z,Wed May 13 2026 16:32:54 GMT-0500 (Central Daylight Time),297753.5,lime,1100,I,z,z,None,508,308.0,200.0,36,1,2145.5999999940395,295607.90000000596,8111,lime,NF,C,293451,293451,291622,292735,291622,293768,293251,293251,293768,38
38,test,1,con,1,m,Wed May 13 2026 16:32:54 GMT-0500 (Central Daylight Time),299836.200000003,zinc,1000,I,m,m,None,546,347.0,199.0,115,1,2078.7999999970198,297757.40000000596,8111,zinc,NF,C,295500,295500,293771,294784,293772,295850,295301,295301,295850,39
39,test,1,inc,1,m,Wed May 13 2026 16:32:54 GMT-0500 (Central Daylight Time),301970.0,orange,1000,I,m,m,None,584,384.0,200.0,79,1,2129.5999999940395,299840.40000000596,8111,copper,NF,C,297583,297583,295854,296867,295855,297984,297383,297383,297984,40
40,test,1,inc,1,z,Wed May 13 2026 16:32:54 GMT-0500 (Central Daylight Time),304334.799999997,silver,1000,I,z,z,None,826,627.0,199.0,23,1,2360.8999999910593,301973.90000000596,8111,orange,NF,C,299716,299716,297988,298999,297988,300349,299516,299516,300349,41
41,test,1,con,1,m,Wed May 13 2026 16:32:54 GMT-0500 (Central Daylight Time),306567.40000000596,silver,1100,I,m,m,None,584,385.0,199.0,84,1,2228.300000011921,304339.09999999404,8111,silver,NF,C,302182,302182,300353,301465,300353,302581,301982,301982,302581,42
42,test,1,inc,1,z,Wed May 13 2026 16:32:54 GMT-0500 (Central Daylight Time),308683.200000003,iron,900,I,z,z,None,680,416.0,264.0,54,1,2112.1000000089407,306571.09999999404,8111,kiwi,NF,C,304279,304279,302585,303498,302585,304697,304015,304015,304697,43
43,test,1,inc,1,m,Wed May 13 2026 16:32:54 GMT-0500 (Central Daylight Time),310899.299999997,cherry,900,I,m,m,None,771,572.0,199.0,78,1,2212.3999999910593,308686.90000000596,8111,copper,NF,C,306331,306331,304701,305614,304701,306913,306131,306131,306913,44
44,test,1,con,1,m,Wed May 13 2026 16:32:54 GMT-0500 (Central Daylight Time),313265.299999997,lead,1000,I,m,m,None,816,617.0,199.0,123,1,2362.2000000029802,310903.09999999404,8111,lead,NF,C,308646,308646,306917,307930,306917,309279,308447,308447,309279,45
45,test,1,con,1,m,Wed May 13 2026 16:32:54 GMT-0500 (Central Daylight Time),315231.200000003,silver,900,I,m,m,None,526,327.0,199.0,82,1,1962.2000000029802,313269.0,8111,silver,NF,C,310912,310912,309283,310196,309283,311245,310713,310713,311245,46
46,test,1,con,1,m,Wed May 13 2026 16:32:54 GMT-0500 (Central Daylight Time),317297.40000000596,cobalt,1000,I,m,m,None,515,300.0,215.0,91,1,2062.1000000089407,315235.299999997,8111,cobalt,NF,C,312995,312995,311249,312262,311250,313311,312780,312780,313311,47
47,test,1,inc,1,m,Wed May 13 2026 16:32:54 GMT-0500 (Central Daylight Time),319446.59999999404,kiwi,1000,I,m,m,None,611,411.0,200.0,119,1,2145.5999999940395,317301.0,8111,zinc,NF,C,315044,315044,313315,314328,313315,315461,314844,314844,315461,48
48,test,1,inc,1,z,Wed May 13 2026 16:32:54 GMT-0500 (Central Daylight Time),321545.59999999404,zinc,1000,I,z,z,None,565,365.0,200.0,55,1,2095.2999999970198,319450.299999997,8111,kiwi,NF,C,317194,317194,315464,316477,315464,317560,316994,316994,317560,49
49,test,1,inc,1,z,Wed May 13 2026 16:32:54 GMT-0500 (Central Daylight Time),323878.5,lead,1100,I,z,z,None,702,503.0,199.0,40,1,2329.2000000029802,321549.299999997,8111,lime,NF,C,319376,319376,317563,318676,317564,319893,319177,319177,319892,50
50,test,1,con,1,z,Wed May 13 2026 16:32:54 GMT-0500 (Central Daylight Time),325811.40000000596,cherry,900,I,z,z,None,496,297.0,199.0,10,1,1929.300000011921,323882.09999999404,8111,cherry,NF,C,321526,321526,319896,320809,319896,321826,321326,321326,321825,51
51,test,1,inc,1,z,Wed May 13 2026 16:32:54 GMT-0500 (Central Daylight Time),327744.299999997,gold,800,I,z,z,None,584,384.0,200.0,53,1,1928.8999999910593,325815.40000000596,8111,kiwi,NF,C,323358,323359,321829,322642,321830,323758,323158,323158,323758,52
52,test,1,inc,1,m,Wed May 13 2026 16:32:54 GMT-0500 (Central Daylight Time),329743.5,cherry,900,I,m,m,None,552,352.0,200.0,86,1,1995.2000000029802,327748.299999997,8111,silver,NF,C,325391,325391,323762,324675,323763,325758,325191,325191,325757,53
53,test,1,inc,1,z,Wed May 13 2026 16:32:54 GMT-0500 (Central Daylight Time),331970.799999997,zinc,1000,I,z,z,None,611,412.0,199.0,39,1,2223.7000000029802,329747.09999999404,8111,lime,NF,C,327491,327491,325761,326774,325761,327985,327290,327291,327985,54
54,test,1,con,1,m,Wed May 13 2026 16:32:54 GMT-0500 (Central Daylight Time),333842.09999999404,lead,800,I,m,m,None,565,366.0,199.0,121,1,1867.199999988079,331974.90000000596,8111,lead,NF,C,329490,329490,327989,328790,327989,329856,329291,329291,329856,55
55,test,1,con,1,z,Wed May 13 2026 16:32:54 GMT-0500 (Central Daylight Time),335824.90000000596,banana,900,I,z,z,None,534,334.0,200.0,2,1,1979.4000000059605,333845.5,8111,banana,NF,C,331489,331489,329860,330773,329860,331839,331289,331289,331839,56
56,test,1,inc,1,m,Wed May 13 2026 16:32:54 GMT-0500 (Central Daylight Time),338124.299999997,orange,1000,I,m,m,None,755,555.0,200.0,95,1,2295.2999999970198,335829.0,8111,cobalt,NF,C,333572,333572,331843,332856,331843,334138,333372,333372,334138,57
57,test,1,con,1,z,Wed May 13 2026 16:32:54 GMT-0500 (Central Daylight Time),340040.5,kiwi,900,I,z,z,None,476,276.0,200.0,50,1,1912.5,338128.0,8111,kiwi,NF,C,335771,335771,334142,335055,334142,336055,335571,335571,336055,58
58,test,1,con,1,z,Wed May 13 2026 16:32:54 GMT-0500 (Central Daylight Time),342339.40000000596,raisin,1100,I,z,z,None,656,456.0,200.0,28,1,2295.300000011921,340044.09999999404,8111,raisin,NF,C,337887,337887,336058,337171,336058,338353,337687,337687,338353,59
59,test,1,inc,1,z,Wed May 13 2026 16:32:54 GMT-0500 (Central Daylight Time),344538.799999997,bronze,800,I,z,z,None,863,648.0,215.0,13,1,2195.7999999970198,342343.0,8111,cherry,NF,C,339903,339903,338357,339170,338357,340553,339688,339688,340553,60
60,test,1,inc,1,m,Wed May 13 2026 16:32:54 GMT-0500 (Central Daylight Time),346705.0,orange,1000,I,m,m,None,617,417.0,200.0,71,1,2162.4000000059605,344542.59999999404,8111,bronze,NF,C,342286,342286,340557,341569,340557,342719,342086,342086,342719,61
61,test,1,con,1,m,Wed May 13 2026 16:32:54 GMT-0500 (Central Daylight Time),349137.40000000596,bronze,1100,I,m,m,None,782,583.0,199.0,68,1,2428.2000000029802,346709.200000003,8111,bronze,NF,C,344552,344552,342723,343835,342724,345152,344352,344352,345151,62
62,test,1,inc,1,m,Wed May 13 2026 16:32:54 GMT-0500 (Central Daylight Time),351203.40000000596,pear,900,I,m,m,None,630,431.0,199.0,118,1,2061.800000011921,349141.59999999404,8111,zinc,NF,C,346784,346784,345156,346068,345156,347218,346585,346585,347217,63
63,test,1,inc,1,m,Wed May 13 2026 16:32:54 GMT-0500 (Central Daylight Time),353235.700000003,pear,900,I,m,m,None,587,388.0,199.0,126,1,2028.5,351207.200000003,8111,lead,NF,C,348851,348851,347221,348135,347221,349250,348651,348651,349250,64
64,test,1,con,1,z,Wed May 13 2026 16:32:54 GMT-0500 (Central Daylight Time),355513.700000003,raisin,1000,I,z,z,None,598,398.0,200.0,27,1,2274.2000000029802,353239.5,8111,raisin,NF,C,350983,350983,349254,350266,349254,351528,350783,350783,351528,65
65,test,1,inc,1,z,Wed May 13 2026 16:32:54 GMT-0500 (Central Daylight Time),357517.90000000596,iron,900,I,z,z,None,553,353.0,200.0,38,1,1999.800000011921,355518.09999999404,8111,lime,NF,C,353166,353166,351532,352449,351532,353532,352966,352966,353532,66
66,test,1,con,1,m,Wed May 13 2026 16:32:54 GMT-0500 (Central Daylight Time),359700.700000003,zinc,1100,I,m,m,None,546,346.0,200.0,116,1,2179.2000000029802,357521.5,8111,zinc,NF,C,355365,355365,353536,354649,353536,355715,355165,355165,355715,67
67,test,1,con,1,z,Wed May 13 2026 16:32:54 GMT-0500 (Central Daylight Time),361866.5,plum,1000,I,z,z,None,631,431.0,200.0,59,1,2162.0999999940395,359704.40000000596,8111,plum,NF,C,357448,357448,355718,356732,355719,357881,357248,357248,357880,68
68,test,1,inc,1,z,Wed May 13 2026 16:32:54 GMT-0500 (Central Daylight Time),363767.09999999404,gold,800,I,z,z,None,561,361.0,200.0,37,1,1896.699999988079,361870.40000000596,8111,lime,NF,C,359414,359414,357884,358697,357885,359781,359214,359214,359781,69
69,test,1,inc,1,m,Wed May 13 2026 16:32:54 GMT-0500 (Central Daylight Time),366015.5,plum,1100,I,m,m,None,611,411.0,200.0,112,1,2244.5,363771.0,8111,iron,NF,C,361613,361613,359785,360897,359785,362030,361413,361413,362029,70
70,test,1,con,1,m,Wed May 13 2026 16:32:54 GMT-0500 (Central Daylight Time),368099.09999999404,cobalt,800,I,m,m,None,747,548.0,199.0,89,1,2079.199999988079,366019.90000000596,8111,cobalt,NF,C,363563,363563,362034,362846,362034,364113,363363,363363,364113,71
71,test,1,inc,1,z,Wed May 13 2026 16:32:54 GMT-0500 (Central Daylight Time),370315.0,cobalt,1100,I,z,z,None,582,382.0,200.0,8,1,2212.0,368103.0,8111,banana,NF,C,365945,365945,364117,365229,364117,366329,365745,365745,366329,72
72,test,1,con,1,z,Wed May 13 2026 16:32:54 GMT-0500 (Central Daylight Time),372480.200000003,pear,1100,I,z,z,None,518,318.0,200.0,44,1,2161.2999999970198,370318.90000000596,8111,pear,NF,C,368161,368161,366333,367445,366333,368494,367961,367961,368494,73
73,test,1,con,1,m,Wed May 13 2026 16:32:54 GMT-0500 (Central Daylight Time),374295.90000000596,gold,800,I,m,m,None,468,268.0,200.0,97,1,1811.800000011921,372484.09999999404,8111,gold,NF,C,370027,370027,368498,369311,368498,370310,369827,369827,370310,74
74,test,1,inc,1,m,Wed May 13 2026 16:32:54 GMT-0500 (Central Daylight Time),376362.200000003,kiwi,1000,I,m,m,None,532,333.0,199.0,103,1,2062.7000000029802,374299.5,8111,gold,NF,C,372043,372043,370314,371327,370314,372376,371844,371844,372376,75
75,test,1,con,1,z,Wed May 13 2026 16:32:54 GMT-0500 (Central Daylight Time),378228.40000000596,lime,900,I,z,z,None,422,221.0,201.0,34,1,1862.6000000089407,376365.799999997,8111,lime,NF,C,374010,374010,372380,373293,372380,374242,373809,373809,374242,76
76,test,1,inc,1,z,Wed May 13 2026 16:32:54 GMT-0500 (Central Daylight Time),380244.299999997,bronze,800,I,z,z,None,621,421.0,200.0,29,1,2012.2000000029802,378232.09999999404,8111,raisin,NF,C,375825,375826,374246,375120,374247,376258,375625,375625,376258,77
77,test,1,inc,1,m,Wed May 13 2026 16:32:54 GMT-0500 (Central Daylight Time),382226.799999997,banana,800,I,m,m,None,640,440.0,200.0,93,1,1978.7999999970198,380248.0,8111,cobalt,NF,C,377791,377791,376262,377075,376262,378241,377591,377591,378241,78
78,test,1,inc,1,m,Wed May 13 2026 16:32:54 GMT-0500 (Central Daylight Time),384342.90000000596,kiwi,1000,I,m,m,None,577,376.0,201.0,111,1,2112.4000000059605,382230.5,8111,iron,NF,C,379975,379975,378245,379258,378245,380357,379774,379774,380357,79
79,test,1,inc,1,z,Wed May 13 2026 16:32:54 GMT-0500 (Central Daylight Time),386242.59999999404,bronze,800,I,z,z,None,558,358.0,200.0,21,1,1895.7999999970198,384346.799999997,8111,orange,NF,C,381890,381890,380361,381174,380361,382257,381690,381690,382257,80
80,test,1,inc,1,m,Wed May 13 2026 16:32:54 GMT-0500 (Central Daylight Time),388559.200000003,raisin,1100,I,m,m,None,670,470.0,200.0,96,1,2313.0,386246.200000003,8111,cobalt,NF,C,384089,384089,382260,383373,382260,384573,383889,383889,384573,81
81,test,1,inc,1,z,Wed May 13 2026 16:32:54 GMT-0500 (Central Daylight Time),390691.09999999404,zinc,1000,I,z,z,None,589,390.0,199.0,47,1,2127.7999999970198,388563.299999997,8111,pear,NF,C,386305,386306,384577,385589,384578,386705,386106,386106,386705,82
82,test,1,inc,1,m,Wed May 13 2026 16:32:54 GMT-0500 (Central Daylight Time),392673.90000000596,pear,900,I,m,m,None,550,350.0,200.0,110,1,1979.300000011921,390694.59999999404,8111,iron,NF,C,388338,388338,386709,387622,386709,388688,388138,388138,388688,83
83,test,1,inc,1,z,Wed May 13 2026 16:32:54 GMT-0500 (Central Daylight Time),394673.09999999404,iron,900,I,z,z,None,558,358.0,200.0,46,1,1995.5999999940395,392677.5,8111,pear,NF,C,390321,390321,388692,389604,388692,390687,390121,390121,390687,84
84,test,1,inc,1,z,Wed May 13 2026 16:32:54 GMT-0500 (Central Daylight Time),396605.799999997,gold,800,I,z,z,None,586,386.0,200.0,61,1,1928.7000000029802,394677.09999999404,8111,plum,NF,C,392221,392221,390691,391504,390691,392620,392020,392020,392620,85
85,test,1,inc,1,m,Wed May 13 2026 16:32:54 GMT-0500 (Central Daylight Time),398688.700000003,kiwi,1000,I,m,m,None,533,334.0,199.0,127,1,2079.1000000089407,396609.59999999404,8111,lead,NF,C,394353,394353,392624,393636,392624,394703,394154,394154,394703,86
86,test,1,con,1,z,Wed May 13 2026 16:32:54 GMT-0500 (Central Daylight Time),400721.200000003,cherry,1000,I,z,z,None,482,283.0,199.0,11,1,2028.5,398692.700000003,8111,cherry,NF,C,396436,396436,394707,395719,394707,396735,396236,396236,396735,87
87,test,1,con,1,z,Wed May 13 2026 16:32:54 GMT-0500 (Central Daylight Time),402970.5,banana,1100,I,z,z,None,607,407.0,200.0,4,1,2245.5,400725.0,8111,banana,NF,C,398568,398568,396739,397852,396739,398985,398368,398368,398985,88
88,test,1,inc,1,z,Wed May 13 2026 16:32:54 GMT-0500 (Central Daylight Time),405136.40000000596,lead,1100,I,z,z,None,525,325.0,200.0,48,1,2161.9000000059605,402974.5,8111,pear,NF,C,400818,400818,398989,400101,398989,401150,400618,400618,401150,89
89,test,1,inc,1,m,Wed May 13 2026 16:32:54 GMT-0500 (Central Daylight Time),407002.59999999404,lime,800,I,m,m,None,523,323.0,200.0,109,1,1862.199999988079,405140.40000000596,8111,iron,NF,C,402684,402684,401154,401967,401155,403017,402484,402484,403017,90
90,test,1,inc,1,m,Wed May 13 2026 16:32:54 GMT-0500 (Central Daylight Time),409351.59999999404,plum,1100,I,m,m,None,701,502.0,199.0,128,1,2345.2999999970198,407006.299999997,8111,lead,NF,C,404849,404849,403020,404133,403021,405366,404650,404650,405366,91
91,test,1,inc,1,m,Wed May 13 2026 16:32:54 GMT-0500 (Central Daylight Time),411451.09999999404,cherry,900,I,m,m,None,664,463.0,201.0,94,1,2095.5999999940395,409355.5,8111,cobalt,NF,C,407000,407000,405370,406282,405370,407465,406799,406799,407465,92
92,test,1,inc,1,z,Wed May 13 2026 16:32:54 GMT-0500 (Central Daylight Time),413334.700000003,bronze,800,I,z,z,None,560,345.0,215.0,5,1,1879.9000000059605,411454.799999997,8111,banana,NF,C,408998,408998,407469,408282,407469,409349,408783,408783,409349,93
93,test,1,con,1,m,Wed May 13 2026 16:32:54 GMT-0500 (Central Daylight Time),415533.40000000596,gold,1000,I,m,m,None,654,454.0,200.0,99,1,2194.9000000059605,413338.5,8111,gold,NF,C,411081,411081,409353,410364,409353,411547,410881,410881,411547,94
94,test,1,con,1,z,Wed May 13 2026 16:32:54 GMT-0500 (Central Daylight Time),417949.200000003,orange,900,I,z,z,None,971,771.0,200.0,18,1,2412.2999999970198,415536.90000000596,8111,orange,NF,C,413180,413180,411551,412464,411551,413963,412980,412980,413963,95
95,test,1,con,1,z,Wed May 13 2026 16:32:54 GMT-0500 (Central Daylight Time),420081.799999997,kiwi,1000,I,z,z,None,591,391.0,200.0,51,1,2129.0,417952.799999997,8111,kiwi,NF,C,415696,415696,413967,414980,413967,416096,415496,415496,416096,96
96,test,1,inc,1,m,Wed May 13 2026 16:32:54 GMT-0500 (Central Daylight Time),422197.59999999404,orange,1000,I,m,m,None,578,378.0,200.0,87,1,2111.7999999970198,420085.799999997,8111,silver,NF,C,417829,417829,416100,417112,416100,418212,417629,417629,418212,97
97,test,1,con,1,z,Wed May 13 2026 16:32:54 GMT-0500 (Central Daylight Time),424214.0,raisin,900,I,z,z,None,570,370.0,200.0,26,1,2012.7000000029802,422201.299999997,8111,raisin,NF,C,419845,419845,418215,419128,418216,420228,419645,419645,420228,98
98,test,1,con,1,z,Wed May 13 2026 16:32:54 GMT-0500 (Central Daylight Time),426312.90000000596,banana,1000,I,z,z,None,558,358.0,200.0,3,1,2095.300000011921,424217.59999999404,8111,banana,NF,C,421961,421961,420232,421244,420232,422327,421761,421761,422327,99
99,test,1,con,1,m,Wed May 13 2026 16:32:54 GMT-0500 (Central Daylight Time),428346.799999997,silver,1000,I,m,m,None,499,299.0,200.0,83,1,2027.2000000029802,426319.59999999404,8111,silver,NF,C,424060,424060,422334,423344,422334,424361,423860,423860,424361,100
100,test,1,inc,1,z,Wed May 13 2026 16:32:54 GMT-0500 (Central Daylight Time),430345.299999997,copper,900,I,z,z,None,566,366.0,200.0,22,1,1994.5,428350.799999997,8111,orange,NF,C,425993,425993,424365,425277,424365,426359,425793,425793,426359,101
101,test,1,inc,1,z,Wed May 13 2026 16:32:54 GMT-0500 (Central Daylight Time),432511.200000003,lead,1100,I,z,z,None,527,327.0,200.0,56,1,2162.2999999970198,430348.90000000596,8111,kiwi,NF,C,428192,428192,426363,427476,426363,428525,427992,427992,428525,102
102,test,1,con,1,z,Wed May 13 2026 16:32:54 GMT-0500 (Central Daylight Time),434377.09999999404,pear,800,I,z,z,None,533,333.0,200.0,41,1,1862.2999999970198,432514.799999997,8111,pear,NF,C,430058,430058,428529,429343,428529,430391,429858,429858,430391,103
103,test,1,inc,1,z,Wed May 13 2026 16:32:54 GMT-0500 (Central Daylight Time),436443.40000000596,zinc,1000,I,z,z,None,531,331.0,200.0,63,1,2063.0,434380.40000000596,8111,plum,NF,C,432124,432124,430394,431408,430395,432457,431924,431924,432457,104
104,test,1,con,1,z,Wed May 13 2026 16:32:54 GMT-0500 (Central Daylight Time),438359.5,orange,800,I,z,z,None,567,352.0,215.0,17,1,1912.7000000029802,436446.799999997,8111,orange,NF,C,434007,434007,432461,433275,432461,434374,433792,433792,434374,105
105,test,1,con,1,m,Wed May 13 2026 16:32:54 GMT-0500 (Central Daylight Time),440158.90000000596,copper,800,I,m,m,None,459,260.0,199.0,73,1,1796.0,438362.90000000596,8111,copper,NF,C,435907,435907,434377,435190,434377,436173,435706,435707,436173,106
105,test,1,inc,0,m,Wed May 13 2026 16:32:54 GMT-0500 (Central Daylight Time),441974.90000000596,lime,800,I,z,z,None,469,269.0,200.0,101,1,1812.5,440162.40000000596,8111,gold,NF,C,437706,437706,436176,436989,436177,437989,437506,437506,437989,107
106,test,1,con,1,z,Wed May 13 2026 16:32:54 GMT-0500 (Central Daylight Time),443974.5,raisin,800,I,z,z,None,661,461.0,200.0,25,1,1995.9000000059605,441978.59999999404,8111,raisin,NF,C,439522,439522,437993,438806,437993,439989,439322,439322,439989,108
107,test,1,inc,1,m,Wed May 13 2026 16:32:54 GMT-0500 (Central Daylight Time),446140.200000003,raisin,1100,I,m,m,None,530,330.0,200.0,88,1,2161.7999999970198,443978.40000000596,8111,silver,NF,C,441821,441821,439992,441105,439993,442154,441621,441621,442154,109
108,test,1,con,1,m,Wed May 13 2026 16:32:54 GMT-0500 (Central Daylight Time),448173.09999999404,lead,900,I,m,m,None,588,388.0,200.0,122,1,2028.699999988079,446144.40000000596,8111,lead,NF,C,443787,443787,442158,443071,442159,444187,443587,443587,444187,110
109,test,1,con,1,m,Wed May 13 2026 16:32:54 GMT-0500 (Central Daylight Time),450323.299999997,iron,1000,I,m,m,None,490,282.0,208.0,107,1,2146.2999999970198,448177.0,8111,iron,NF,C,446053,446053,444191,445204,444191,446337,445845,445845,446337,111
110,test,1,con,1,m,Wed May 13 2026 16:32:54 GMT-0500 (Central Daylight Time),452554.90000000596,gold,1100,I,m,m,None,598,398.0,200.0,100,1,2227.5,450327.40000000596,8111,gold,NF,C,448169,448169,446341,447453,446342,448569,447969,447969,448569,112
111,test,1,con,1,z,Wed May 13 2026 16:32:54 GMT-0500 (Central Daylight Time),454720.90000000596,cherry,1100,I,z,z,None,525,325.0,200.0,12,1,2162.300000011921,452558.59999999404,8111,cherry,NF,C,450402,450402,448573,449685,448573,450735,450202,450202,450735,113
112,test,1,inc,1,m,Wed May 13 2026 16:32:54 GMT-0500 (Central Daylight Time),456603.5,lime,800,I,m,m,None,539,339.0,200.0,117,1,1878.9000000059605,454724.59999999404,8111,zinc,NF,C,452268,452268,450739,451552,450739,452618,452068,452068,452618,114
113,test,1,con,1,m,Wed May 13 2026 16:32:54 GMT-0500 (Central Daylight Time),458569.799999997,copper,900,I,m,m,None,523,324.0,199.0,74,1,1962.7000000029802,456607.09999999404,8111,copper,NF,C,454251,454251,452621,453534,452621,454584,454051,454051,454584,115
114,test,1,inc,1,z,Wed May 13 2026 16:32:54 GMT-0500 (Central Daylight Time),460819.0,cobalt,1100,I,z,z,None,614,414.0,200.0,32,1,2245.5999999940395,458573.40000000596,8111,raisin,NF,C,456417,456417,454587,455700,454588,456833,456217,456217,456833,116
115,test,1,inc,1,m,Wed May 13 2026 16:32:54 GMT-0500 (Central Daylight Time),463034.90000000596,raisin,1100,I,m,m,None,581,381.0,200.0,80,1,2212.300000011921,460822.59999999404,8111,copper,NF,C,458666,458666,456837,457950,456837,459049,458466,458466,459049,117
116,test,1,con,1,m,Wed May 13 2026 16:32:54 GMT-0500 (Central Daylight Time),465034.40000000596,bronze,800,I,m,m,None,657,457.0,200.0,65,1,1995.5,463038.90000000596,8111,bronze,NF,C,460582,460582,459053,459866,459053,461048,460382,460382,461048,118
117,test,1,con,1,m,Wed May 13 2026 16:32:54 GMT-0500 (Central Daylight Time),467133.700000003,iron,1100,I,m,m,None,461,262.0,199.0,108,1,2095.7000000029802,465038.0,8111,iron,NF,C,462881,462881,461052,462165,461052,463148,462682,462682,463148,119
118,test,1,con,1,z,Wed May 13 2026 16:32:54 GMT-0500 (Central Daylight Time),469133.0,pear,1000,I,z,z,None,461,262.0,199.0,43,1,1995.7999999970198,467137.200000003,8111,pear,NF,C,464880,464881,463151,464164,463152,465147,464681,464681,465147,120
119,test,1,con,1,m,Wed May 13 2026 16:32:54 GMT-0500 (Central Daylight Time),471082.299999997,iron,800,I,m,m,None,614,415.0,199.0,105,1,1945.7999999970198,469136.5,8111,iron,NF,C,466680,466680,465151,465964,465151,467096,466481,466481,467096,121
120,test,1,con,1,z,Wed May 13 2026 16:32:54 GMT-0500 (Central Daylight Time),473246.40000000596,orange,1100,I,z,z,None,529,330.0,199.0,20,1,2160.6000000089407,471085.799999997,8111,orange,NF,C,468930,468930,467100,468213,467100,469260,468730,468730,469260,122
121,test,1,con,1,m,Wed May 13 2026 16:32:54 GMT-0500 (Central Daylight Time),475281.0,zinc,800,I,m,m,None,690,491.0,199.0,113,1,2030.2999999970198,473250.700000003,8111,zinc,NF,C,470796,470796,469265,470079,469265,471295,470596,470596,471295,123
122,test,1,inc,1,z,Wed May 13 2026 16:32:54 GMT-0500 (Central Daylight Time),477297.200000003,copper,900,I,z,z,None,583,383.0,200.0,14,1,2012.4000000059605,475284.799999997,8111,cherry,NF,C,472928,472928,471299,472212,471299,473311,472728,472728,473311,124
123,test,1,con,1,m,Wed May 13 2026 16:32:54 GMT-0500 (Central Daylight Time),479429.799999997,copper,1000,I,m,m,None,587,387.0,200.0,75,1,2128.7999999970198,477301.0,8111,copper,NF,C,475044,475044,473315,474328,473315,475444,474844,474844,475444,125
124,test,1,inc,1,z,Wed May 13 2026 16:32:54 GMT-0500 (Central Daylight Time),481329.40000000596,gold,800,I,z,z,None,550,350.0,200.0,45,1,1895.7000000029802,479433.700000003,8111,pear,NF,C,476977,476977,475448,476261,475448,477344,476777,476777,477343,126
125,test,1,inc,1,m,Wed May 13 2026 16:32:54 GMT-0500 (Central Daylight Time),483228.700000003,banana,800,I,m,m,None,553,338.0,215.0,77,1,1895.7999999970198,481332.90000000596,8111,copper,NF,C,478893,478893,477347,478160,477347,479243,478678,478678,479243,127
126,test,1,inc,1,z,Wed May 13 2026 16:32:54 GMT-0500 (Central Daylight Time),485594.700000003,lead,1100,I,z,z,None,723,523.0,200.0,64,1,2362.2999999970198,483232.40000000596,8111,plum,NF,C,481076,481076,479246,480359,479247,481609,480876,480876,481609,128
