Q,Q1,Q2,Q3,Q4,acc_sum,block,block_c,correct,correct_response,datetime,endtime,project,response,response_time,row_sel,session_number,squiggle1,squiggle1x,squiggle1y,squiggle2,squiggle2x,squiggle2y,squiggle3,squiggle3x,squiggle3y,squiggle4,squiggle4x,squiggle4y,start_end,starttime,subject_id,target_congruent,task,task_vers,testsquiggle,testsquigglex,testsquiggley,time_practice_delay,time_practice_fixation,time_practice_stimuli,time_practice_study,time_test_delay,time_test_fixation,time_test_stimuli,time_test_study,trial
1,1,0,0,0,1,prac,1,1,z,Tue Aug 12 2025 17:59:50 GMT-0500 (Central Daylight Time),122263.69999980927,O,z,1618,1,1,116.bmp,-120,-120,117.bmp,120,-120,118.bmp,-120,120,119.bmp,120,120,10431.199999809265,111832.5,7215,yes,SM,A,116.bmp,-120,-120,110870,104853,112886,106855,,,,,1
3,0,0,1,0,1,prac,1,0,m,Tue Aug 12 2025 17:59:50 GMT-0500 (Central Daylight Time),133095.5,O,None,2016,2,1,120.bmp,-120,-120,121.bmp,120,-120,122.bmp,-120,120,123.bmp,120,120,10825.800000190735,122269.69999980927,7215,no,SM,A,123.bmp,-120,120,121316,115290,123333,117301,,,,,2
4,0,0,0,1,2,prac,1,1,m,Tue Aug 12 2025 17:59:50 GMT-0500 (Central Daylight Time),143007.69999980927,O,m,1069,3,1,124.bmp,-120,-120,125.bmp,120,-120,126.bmp,-120,120,127.bmp,120,120,9896.099999904633,133111.59999990463,7215,no,SM,A,124.bmp,120,120,132163,126133,134179,128148,,,,,3
2,0,1,0,0,3,prac,1,1,z,Tue Aug 12 2025 17:59:50 GMT-0500 (Central Daylight Time),153687.89999985695,O,z,1835,4,1,128.bmp,-120,-120,129.bmp,120,-120,130.bmp,-120,120,131.bmp,120,120,10663.700000047684,143024.19999980927,7215,yes,SM,A,129.bmp,120,-120,142076,136045,144093,138061,,,,,4
3,0,0,1,0,3,prac,1,0,z,Tue Aug 12 2025 17:59:50 GMT-0500 (Central Daylight Time),164534.09999990463,O,None,2015,5,1,132.bmp,-120,-120,133.bmp,120,-120,134.bmp,-120,120,135.bmp,120,120,10832.299999952316,153701.79999995232,7215,yes,SM,A,134.bmp,-120,120,152756,146723,154772,148740,,,,,5
1,1,0,0,0,3,prac,1,0,m,Tue Aug 12 2025 17:59:50 GMT-0500 (Central Daylight Time),174897.09999990463,O,z,1525,6,1,136.bmp,-120,-120,137.bmp,120,-120,138.bmp,-120,120,139.bmp,120,120,10348.099999904633,164549.0,7215,no,SM,A,139.bmp,-120,-120,163602,157570,165619,159588,,,,,6
2,0,1,0,0,4,prac,1,1,m,Tue Aug 12 2025 17:59:50 GMT-0500 (Central Daylight Time),185444.09999990463,O,m,1715,7,1,140.bmp,-120,-120,141.bmp,120,-120,142.bmp,-120,120,143.bmp,120,120,10529.700000047684,174914.39999985695,7215,no,SM,A,140.bmp,120,-120,173965,167935,175982,169951,,,,,7
4,0,0,0,1,5,prac,1,1,z,Tue Aug 12 2025 17:59:50 GMT-0500 (Central Daylight Time),195991.69999980927,O,z,1704,8,1,144.bmp,-120,-120,145.bmp,120,-120,146.bmp,-120,120,147.bmp,120,120,10532.5,185459.19999980927,7215,yes,SM,A,147.bmp,120,120,184512,178480,186529,180496,,,,,8
4,0,0,0,1,0,test,1,0,m,Tue Aug 12 2025 17:59:50 GMT-0500 (Central Daylight Time),217300.19999980927,O,None,2016,1,1,148.bmp,-120,-120,149.bmp,120,-120,150.bmp,-120,120,143.bmp,120,120,10051.0,207249.19999980927,7215,no,SM,A,150.bmp,120,120,184512,178480,186529,180496,206287.0,200270.0,208304.0,202273.0,1
2,0,1,0,0,1,test,1,1,m,Tue Aug 12 2025 17:59:50 GMT-0500 (Central Daylight Time),226463.69999980927,O,m,1113,2,1,101.bmp,-120,-120,102.bmp,120,-120,103.bmp,-120,120,104.bmp,120,120,9150.5,217313.19999980927,7215,no,SM,A,103.bmp,120,-120,184512,178480,186529,180496,216352.0,210334.0,218368.0,212337.0,2
1,1,0,0,0,2,test,1,1,z,Tue Aug 12 2025 17:59:50 GMT-0500 (Central Daylight Time),235944.0,O,z,1428,3,1,105.bmp,-120,-120,106.bmp,120,-120,107.bmp,-120,120,108.bmp,120,120,9466.5,226477.5,7215,yes,SM,A,105.bmp,-120,-120,184512,178480,186529,180496,225516.0,219498.0,227532.0,221500.0,3
3,0,0,1,0,2,test,1,0,m,Tue Aug 12 2025 17:59:50 GMT-0500 (Central Daylight Time),245357.69999980927,O,z,1366,4,1,109.bmp,-120,-120,110.bmp,120,-120,111.bmp,-120,120,112.bmp,120,120,9400.099999904633,235957.59999990463,7215,no,SM,A,109.bmp,-120,120,184512,178480,186529,180496,234995.0,228978.0,237011.0,230981.0,4
2,0,1,0,0,2,test,1,0,z,Tue Aug 12 2025 17:59:50 GMT-0500 (Central Daylight Time),255421.09999990463,O,None,2015,5,1,113.bmp,-120,-120,114.bmp,120,-120,115.bmp,-120,120,116.bmp,120,120,10050.299999952316,245370.79999995232,7215,yes,SM,A,114.bmp,120,-120,184512,178480,186529,180496,244409.0,238391.0,246426.0,240393.0,5
3,0,0,1,0,2,test,1,0,z,Tue Aug 12 2025 17:59:50 GMT-0500 (Central Daylight Time),265500.89999985695,O,None,2016,6,1,117.bmp,-120,-120,118.bmp,120,-120,119.bmp,-120,120,120.bmp,120,120,10065.399999856949,255435.5,7215,yes,SM,A,119.bmp,-120,120,184512,178480,186529,180496,254489.0,248457.0,256505.0,250474.0,6
4,0,0,0,1,2,test,1,0,z,Tue Aug 12 2025 17:59:50 GMT-0500 (Central Daylight Time),275564.2999999523,O,None,2015,7,1,121.bmp,-120,-120,122.bmp,120,-120,123.bmp,-120,120,124.bmp,120,120,10048.600000143051,265515.69999980927,7215,yes,SM,A,124.bmp,120,120,184512,178480,186529,180496,264553.0,258536.0,266569.0,260538.0,7
2,0,1,0,0,3,test,1,1,m,Tue Aug 12 2025 17:59:50 GMT-0500 (Central Daylight Time),285244.39999985695,O,m,1616,8,1,125.bmp,-120,-120,126.bmp,120,-120,127.bmp,-120,120,128.bmp,120,120,9666.799999952316,275577.59999990463,7215,no,SM,A,125.bmp,120,-120,184512,178480,186529,180496,274616.0,268598.0,276632.0,270601.0,8
3,0,0,1,0,3,test,1,0,m,Tue Aug 12 2025 17:59:50 GMT-0500 (Central Daylight Time),295307.7999999523,O,None,2015,9,1,129.bmp,-120,-120,130.bmp,120,-120,131.bmp,-120,120,132.bmp,120,120,10050.5,285257.2999999523,7215,no,SM,A,130.bmp,-120,120,184512,178480,186529,180496,284296.0,278278.0,286313.0,280281.0,9
4,0,0,0,1,3,test,1,0,z,Tue Aug 12 2025 17:59:50 GMT-0500 (Central Daylight Time),303988.89999985695,O,m,615,10,1,137.bmp,-120,-120,138.bmp,120,-120,139.bmp,-120,120,140.bmp,120,120,8662.299999952316,295326.59999990463,7215,yes,SM,A,140.bmp,120,120,184512,178480,186529,180496,294376.0,288347.0,296393.0,290361.0,10
3,0,0,1,0,4,test,1,1,z,Tue Aug 12 2025 17:59:50 GMT-0500 (Central Daylight Time),313235.2999999523,O,z,1175,11,1,133.bmp,-120,-120,134.bmp,120,-120,135.bmp,-120,120,136.bmp,120,120,9232.600000143051,304002.69999980927,7215,yes,SM,A,135.bmp,-120,120,184512,178480,186529,180496,303057.0,297024.0,305073.0,299042.0,11
2,0,1,0,0,5,test,1,1,m,Tue Aug 12 2025 17:59:50 GMT-0500 (Central Daylight Time),322365.2999999523,O,m,1080,12,1,141.bmp,-120,-120,142.bmp,120,-120,143.bmp,-120,120,144.bmp,120,120,9116.200000047684,313249.09999990463,7215,no,SM,A,141.bmp,120,-120,184512,178480,186529,180496,312287.0,306270.0,314303.0,308272.0,12
3,0,0,1,0,6,test,1,1,m,Tue Aug 12 2025 17:59:50 GMT-0500 (Central Daylight Time),332245.2999999523,O,m,1830,13,1,145.bmp,-120,-120,146.bmp,120,-120,147.bmp,-120,120,148.bmp,120,120,9866.700000047684,322378.59999990463,7215,no,SM,A,146.bmp,-120,120,184512,178480,186529,180496,321417.0,315399.0,323434.0,317402.0,13
1,1,0,0,0,7,test,1,1,z,Tue Aug 12 2025 17:59:50 GMT-0500 (Central Daylight Time),342092.89999985695,O,z,1798,14,1,149.bmp,-120,-120,150.bmp,120,-120,104.bmp,-120,120,101.bmp,120,120,9832.899999856949,332260.0,7215,yes,SM,A,149.bmp,-120,-120,184512,178480,186529,180496,331297.0,325281.0,333314.0,327282.0,14
4,0,0,0,1,7,test,1,0,m,Tue Aug 12 2025 17:59:50 GMT-0500 (Central Daylight Time),351656.09999990463,O,z,1504,15,1,110.bmp,-120,-120,111.bmp,120,-120,112.bmp,-120,120,113.bmp,120,120,9549.5,342106.59999990463,7215,no,SM,A,111.bmp,120,120,184512,178480,186529,180496,341144.0,335127.0,343161.0,337129.0,15
1,1,0,0,0,8,test,1,1,m,Tue Aug 12 2025 17:59:50 GMT-0500 (Central Daylight Time),360853.09999990463,O,m,1148,16,1,102.bmp,-120,-120,103.bmp,120,-120,104.bmp,-120,120,105.bmp,120,120,9183.200000047684,351669.89999985695,7215,no,SM,A,105.bmp,-120,-120,184512,178480,186529,180496,350707.0,344691.0,352724.0,346692.0,16
3,0,0,1,0,9,test,1,1,m,Tue Aug 12 2025 17:59:50 GMT-0500 (Central Daylight Time),370882.89999985695,O,m,1967,17,1,122.bmp,-120,-120,123.bmp,120,-120,124.bmp,-120,120,125.bmp,120,120,10017.0,360865.89999985695,7215,no,SM,A,122.bmp,-120,120,184512,178480,186529,180496,359905.0,353887.0,361921.0,355890.0,17
1,1,0,0,0,10,test,1,1,z,Tue Aug 12 2025 17:59:50 GMT-0500 (Central Daylight Time),379946.7999999523,O,z,1001,18,1,106.bmp,-120,-120,107.bmp,120,-120,108.bmp,-120,120,109.bmp,120,120,9050.600000143051,370896.19999980927,7215,yes,SM,A,106.bmp,-120,-120,184512,178480,186529,180496,369935.0,363917.0,371951.0,365920.0,18
2,0,1,0,0,11,test,1,1,z,Tue Aug 12 2025 17:59:50 GMT-0500 (Central Daylight Time),389177.09999990463,O,z,1170,19,1,126.bmp,-120,-120,127.bmp,120,-120,128.bmp,-120,120,129.bmp,120,120,9217.0,379960.09999990463,7215,yes,SM,A,127.bmp,120,-120,184512,178480,186529,180496,378998.0,372981.0,381015.0,374984.0,19
3,0,0,1,0,11,test,1,0,z,Tue Aug 12 2025 17:59:50 GMT-0500 (Central Daylight Time),398724.0,O,m,1466,20,1,130.bmp,-120,-120,131.bmp,120,-120,132.bmp,-120,120,133.bmp,120,120,9531.100000143051,389192.89999985695,7215,yes,SM,A,132.bmp,-120,120,184512,178480,186529,180496,388245.0,382214.0,390262.0,384230.0,20
1,1,0,0,0,12,test,1,1,m,Tue Aug 12 2025 17:59:50 GMT-0500 (Central Daylight Time),407804.2999999523,O,m,1026,21,1,114.bmp,-120,-120,115.bmp,120,-120,116.bmp,-120,120,117.bmp,120,120,9067.5,398736.7999999523,7215,no,SM,A,116.bmp,-120,-120,184512,178480,186529,180496,397776.0,391758.0,399791.0,393761.0,21
4,0,0,0,1,13,test,1,1,z,Tue Aug 12 2025 17:59:50 GMT-0500 (Central Daylight Time),416668.0,O,z,800,22,1,118.bmp,-120,-120,119.bmp,120,-120,120.bmp,-120,120,121.bmp,120,120,8850.5,407817.5,7215,yes,SM,A,121.bmp,120,120,184512,178480,186529,180496,406856.0,400838.0,408872.0,402841.0,22
1,1,0,0,0,14,test,1,1,m,Tue Aug 12 2025 17:59:50 GMT-0500 (Central Daylight Time),425730.7999999523,O,m,1000,23,1,134.bmp,-120,-120,135.bmp,120,-120,136.bmp,-120,120,137.bmp,120,120,9050.400000095367,416680.39999985695,7215,no,SM,A,137.bmp,-120,-120,184512,178480,186529,180496,415719.0,409701.0,417735.0,411705.0,23
2,0,1,0,0,15,test,1,1,z,Tue Aug 12 2025 17:59:50 GMT-0500 (Central Daylight Time),435061.09999990463,O,z,1271,24,1,142.bmp,-120,-120,143.bmp,120,-120,144.bmp,-120,120,145.bmp,120,120,9326.200000047684,425734.89999985695,7215,yes,SM,A,143.bmp,120,-120,184512,178480,186529,180496,424782.0,418755.0,426800.0,420768.0,24
4,0,0,0,1,16,test,1,1,m,Tue Aug 12 2025 17:59:50 GMT-0500 (Central Daylight Time),444291.5,O,m,1174,25,1,146.bmp,-120,-120,147.bmp,120,-120,148.bmp,-120,120,149.bmp,120,120,9226.700000047684,435064.7999999523,7215,no,SM,A,148.bmp,120,120,184512,178480,186529,180496,434113.0,428085.0,436129.0,430098.0,25
1,1,0,0,0,17,test,1,1,z,Tue Aug 12 2025 17:59:50 GMT-0500 (Central Daylight Time),453988.19999980927,O,z,1648,26,1,138.bmp,-120,-120,139.bmp,120,-120,140.bmp,-120,120,141.bmp,120,120,9692.5,444295.69999980927,7215,yes,SM,A,138.bmp,-120,-120,184512,178480,186529,180496,443344.0,437316.0,445359.0,439328.0,26
4,0,0,0,1,18,test,1,1,z,Tue Aug 12 2025 17:59:50 GMT-0500 (Central Daylight Time),463751.7999999523,O,z,1704,27,1,150.bmp,-120,-120,111.bmp,120,-120,101.bmp,-120,120,102.bmp,120,120,9759.799999952316,453992.0,7215,yes,SM,A,102.bmp,120,120,184512,178480,186529,180496,453041.0,447012.0,455056.0,449025.0,27
3,0,0,1,0,18,test,1,0,m,Tue Aug 12 2025 17:59:50 GMT-0500 (Central Daylight Time),473281.89999985695,O,z,1476,28,1,103.bmp,-120,-120,104.bmp,120,-120,105.bmp,-120,120,106.bmp,120,120,9524.099999904633,463757.7999999523,7215,no,SM,A,103.bmp,-120,120,184512,178480,186529,180496,462804.0,456778.0,464819.0,458788.0,28
2,0,1,0,0,19,test,1,1,z,Tue Aug 12 2025 17:59:50 GMT-0500 (Central Daylight Time),482612.39999985695,O,z,1267,29,1,107.bmp,-120,-120,108.bmp,120,-120,109.bmp,-120,120,110.bmp,120,120,9327.200000047684,473285.19999980927,7215,yes,SM,A,108.bmp,120,-120,184512,178480,186529,180496,472333.0,466305.0,474350.0,468318.0,29
3,0,0,1,0,20,test,1,1,z,Tue Aug 12 2025 17:59:50 GMT-0500 (Central Daylight Time),492375.59999990463,O,z,1711,30,1,111.bmp,-120,-120,112.bmp,120,-120,113.bmp,-120,120,114.bmp,120,120,9757.5,482618.09999990463,7215,yes,SM,A,113.bmp,-120,120,184512,178480,186529,180496,481664.0,475638.0,483680.0,477648.0,30
1,1,0,0,0,21,test,1,1,z,Tue Aug 12 2025 17:59:50 GMT-0500 (Central Daylight Time),501789.2999999523,O,z,1356,31,1,115.bmp,-120,-120,116.bmp,120,-120,117.bmp,-120,120,118.bmp,120,120,9409.400000095367,492379.89999985695,7215,yes,SM,A,115.bmp,-120,-120,184512,178480,186529,180496,491427.0,485400.0,493443.0,487412.0,31
2,0,1,0,0,22,test,1,1,m,Tue Aug 12 2025 17:59:50 GMT-0500 (Central Daylight Time),511103.59999990463,O,m,1255,32,1,119.bmp,-120,-120,120.bmp,120,-120,121.bmp,-120,120,122.bmp,120,120,9310.0,501793.59999990463,7215,no,SM,A,119.bmp,120,-120,184512,178480,186529,180496,500841.0,494814.0,502857.0,496826.0,32
4,0,0,0,1,22,test,1,0,z,Tue Aug 12 2025 17:59:50 GMT-0500 (Central Daylight Time),521183.59999990463,O,None,2017,33,1,131.bmp,-120,-120,132.bmp,120,-120,133.bmp,-120,120,134.bmp,120,120,10065.700000047684,511117.89999985695,7215,yes,SM,A,134.bmp,120,120,184512,178480,186529,180496,510171.0,504139.0,512187.0,506156.0,33
2,0,1,0,0,22,test,1,0,z,Tue Aug 12 2025 17:59:50 GMT-0500 (Central Daylight Time),531247.2999999523,O,None,2015,34,1,123.bmp,-120,-120,124.bmp,120,-120,125.bmp,-120,120,126.bmp,120,120,10050.5,521196.7999999523,7215,yes,SM,A,124.bmp,120,-120,184512,178480,186529,180496,520235.0,514218.0,522252.0,516219.0,34
4,0,0,0,1,23,test,1,1,m,Tue Aug 12 2025 17:59:50 GMT-0500 (Central Daylight Time),540444.2999999523,O,m,1142,35,1,127.bmp,-120,-120,128.bmp,120,-120,129.bmp,-120,120,130.bmp,120,120,9183.799999952316,531260.5,7215,no,SM,A,129.bmp,120,120,184512,178480,186529,180496,530298.0,524281.0,532315.0,526284.0,35
3,0,0,1,0,24,test,1,1,m,Tue Aug 12 2025 17:59:50 GMT-0500 (Central Daylight Time),550357.6999998093,O,m,1865,36,1,135.bmp,-120,-120,136.bmp,120,-120,137.bmp,-120,120,138.bmp,120,120,9900.5,540457.1999998093,7215,no,SM,A,135.bmp,-120,120,184512,178480,186529,180496,539496.0,533478.0,541512.0,535481.0,36
1,1,0,0,0,25,test,1,1,m,Tue Aug 12 2025 17:59:50 GMT-0500 (Central Daylight Time),560204.5999999046,O,m,1784,37,1,139.bmp,-120,-120,140.bmp,120,-120,141.bmp,-120,120,142.bmp,120,120,9834.5,550370.0999999046,7215,no,SM,A,140.bmp,-120,-120,184512,178480,186529,180496,549408.0,543391.0,551425.0,545394.0,37
2,0,1,0,0,25,test,1,0,m,Tue Aug 12 2025 17:59:50 GMT-0500 (Central Daylight Time),570267.6999998093,O,None,2016,38,1,143.bmp,-120,-120,144.bmp,120,-120,145.bmp,-120,120,146.bmp,120,120,10051.0,560216.6999998093,7215,no,SM,A,145.bmp,120,-120,184512,178480,186529,180496,559256.0,553237.0,561272.0,555241.0,38
4,0,0,0,1,25,test,1,0,z,Tue Aug 12 2025 17:59:50 GMT-0500 (Central Daylight Time),579581.1999998093,O,m,1256,39,1,147.bmp,-120,-120,148.bmp,120,-120,149.bmp,-120,120,150.bmp,120,120,9299.299999952316,570281.899999857,7215,yes,SM,A,150.bmp,120,120,184512,178480,186529,180496,569319.0,563303.0,571336.0,565305.0,39
3,0,0,1,0,25,test,1,0,m,Tue Aug 12 2025 17:59:50 GMT-0500 (Central Daylight Time),589644.6999998093,O,None,2016,40,1,104.bmp,-120,-120,105.bmp,120,-120,106.bmp,-120,120,107.bmp,120,120,10050.099999904633,579594.5999999046,7215,no,SM,A,105.bmp,-120,120,184512,178480,186529,180496,578633.0,572615.0,580649.0,574618.0,40
1,1,0,0,0,26,test,1,1,z,Tue Aug 12 2025 17:59:50 GMT-0500 (Central Daylight Time),599441.5,O,z,1736,41,1,108.bmp,-120,-120,109.bmp,120,-120,110.bmp,-120,120,111.bmp,120,120,9783.400000095367,589658.0999999046,7215,yes,SM,A,108.bmp,-120,-120,184512,178480,186529,180496,588697.0,582679.0,590713.0,584681.0,41
4,0,0,0,1,27,test,1,1,z,Tue Aug 12 2025 17:59:50 GMT-0500 (Central Daylight Time),608771.899999857,O,z,1277,42,1,112.bmp,-120,-120,113.bmp,120,-120,114.bmp,-120,120,115.bmp,120,120,9318.399999856949,599453.5,7215,yes,SM,A,115.bmp,120,120,184512,178480,186529,180496,598493.0,592474.0,600508.0,594478.0,42
1,1,0,0,0,28,test,1,1,z,Tue Aug 12 2025 17:59:50 GMT-0500 (Central Daylight Time),618301.6999998093,O,z,1472,43,1,116.bmp,-120,-120,117.bmp,120,-120,118.bmp,-120,120,119.bmp,120,120,9517.399999856949,608784.2999999523,7215,yes,SM,A,116.bmp,-120,-120,184512,178480,186529,180496,607824.0,601805.0,609840.0,603808.0,43
4,0,0,0,1,28,test,1,0,m,Tue Aug 12 2025 17:59:50 GMT-0500 (Central Daylight Time),628364.5,O,None,2014,44,1,104.bmp,-120,-120,101.bmp,120,-120,102.bmp,-120,120,103.bmp,120,120,10057.800000190735,618306.6999998093,7215,no,SM,A,104.bmp,120,120,184512,178480,186529,180496,617354.0,611327.0,619370.0,613339.0,44
1,1,0,0,0,29,test,1,1,m,Tue Aug 12 2025 17:59:50 GMT-0500 (Central Daylight Time),637245.899999857,O,m,824,45,1,128.bmp,-120,-120,129.bmp,120,-120,130.bmp,-120,120,131.bmp,120,120,8877.700000047684,628368.1999998093,7215,no,SM,A,131.bmp,-120,-120,184512,178480,186529,180496,627417.0,621388.0,629433.0,623402.0,45
1,1,0,0,0,30,test,1,1,m,Tue Aug 12 2025 17:59:50 GMT-0500 (Central Daylight Time),646309.1999998093,O,m,1006,46,1,120.bmp,-120,-120,121.bmp,120,-120,122.bmp,-120,120,123.bmp,120,120,9050.299999952316,637258.899999857,7215,no,SM,A,121.bmp,-120,-120,184512,178480,186529,180496,636297.0,630279.0,638314.0,632282.0,46
3,0,0,1,0,31,test,1,1,z,Tue Aug 12 2025 17:59:50 GMT-0500 (Central Daylight Time),655423.0999999046,O,z,1056,47,1,124.bmp,-120,-120,125.bmp,120,-120,126.bmp,-120,120,127.bmp,120,120,9105.200000047684,646317.899999857,7215,yes,SM,A,126.bmp,-120,120,184512,178480,186529,180496,645361.0,639338.0,647377.0,641346.0,47
3,0,0,1,0,32,test,1,1,z,Tue Aug 12 2025 17:59:50 GMT-0500 (Central Daylight Time),665003.2999999523,O,z,1500,48,1,140.bmp,-120,-120,141.bmp,120,-120,142.bmp,-120,120,143.bmp,120,120,9561.700000047684,655441.5999999046,7215,yes,SM,A,142.bmp,-120,120,184512,178480,186529,180496,654491.0,648462.0,656508.0,650476.0,48
2,0,1,0,0,33,test,1,1,z,Tue Aug 12 2025 17:59:50 GMT-0500 (Central Daylight Time),674117.0999999046,O,z,1050,49,1,136.bmp,-120,-120,137.bmp,120,-120,138.bmp,-120,120,139.bmp,120,120,9099.5,665017.5999999046,7215,yes,SM,A,137.bmp,120,-120,184512,178480,186529,180496,664055.0,658038.0,666071.0,660039.0,49
3,0,0,1,0,33,test,1,0,m,Tue Aug 12 2025 17:59:50 GMT-0500 (Central Daylight Time),683780.399999857,O,z,1608,50,1,132.bmp,-120,-120,133.bmp,120,-120,134.bmp,-120,120,135.bmp,120,120,9651.700000047684,674128.6999998093,7215,no,SM,A,132.bmp,-120,120,184512,178480,186529,180496,673169.0,667149.0,675185.0,669154.0,50
2,0,1,0,0,34,test,1,1,z,Tue Aug 12 2025 17:59:50 GMT-0500 (Central Daylight Time),693227.5,O,z,1384,51,1,144.bmp,-120,-120,145.bmp,120,-120,146.bmp,-120,120,147.bmp,120,120,9435.300000190735,683792.1999998093,7215,yes,SM,A,145.bmp,120,-120,184512,178480,186529,180496,682832.0,676813.0,684849.0,678817.0,51
4,0,0,0,1,35,test,1,1,m,Tue Aug 12 2025 17:59:50 GMT-0500 (Central Daylight Time),702191.0999999046,O,m,906,52,1,148.bmp,-120,-120,149.bmp,120,-120,150.bmp,-120,120,131.bmp,120,120,8950.700000047684,693240.399999857,7215,no,SM,A,148.bmp,120,120,184512,178480,186529,180496,692279.0,686261.0,694295.0,688264.0,52
3,0,0,1,0,36,test,1,1,z,Tue Aug 12 2025 17:59:50 GMT-0500 (Central Daylight Time),711853.899999857,O,z,1613,53,1,101.bmp,-120,-120,102.bmp,120,-120,103.bmp,-120,120,104.bmp,120,120,9649.899999856949,702204.0,7215,yes,SM,A,103.bmp,-120,120,184512,178480,186529,180496,701243.0,695225.0,703259.0,697228.0,53
1,1,0,0,0,36,test,1,0,m,Tue Aug 12 2025 17:59:50 GMT-0500 (Central Daylight Time),721917.899999857,O,None,2015,54,1,105.bmp,-120,-120,106.bmp,120,-120,107.bmp,-120,120,108.bmp,120,120,10058.799999952316,711859.0999999046,7215,no,SM,A,107.bmp,-120,-120,184512,178480,186529,180496,710906.0,704879.0,712923.0,706891.0,54
4,0,0,0,1,37,test,1,1,z,Tue Aug 12 2025 17:59:50 GMT-0500 (Central Daylight Time),731548.2999999523,O,z,1566,55,1,109.bmp,-120,-120,110.bmp,120,-120,111.bmp,-120,120,112.bmp,120,120,9617.799999952316,721930.5,7215,yes,SM,A,112.bmp,120,120,184512,178480,186529,180496,720970.0,714951.0,722986.0,716955.0,55
2,0,1,0,0,38,test,1,1,m,Tue Aug 12 2025 17:59:50 GMT-0500 (Central Daylight Time),740728.6999998093,O,m,1121,56,1,113.bmp,-120,-120,114.bmp,120,-120,115.bmp,-120,120,116.bmp,120,120,9167.099999904633,731561.5999999046,7215,no,SM,A,113.bmp,120,-120,184512,178480,186529,180496,730600.0,724582.0,732616.0,726585.0,56
4,0,0,0,1,39,test,1,1,m,Tue Aug 12 2025 17:59:50 GMT-0500 (Central Daylight Time),750192.0,O,m,1404,57,1,117.bmp,-120,-120,118.bmp,120,-120,119.bmp,-120,120,120.bmp,120,120,9450.200000047684,740741.7999999523,7215,no,SM,A,118.bmp,120,120,184512,178480,186529,180496,739780.0,733763.0,741797.0,735765.0,57
3,0,0,1,0,40,test,1,1,z,Tue Aug 12 2025 17:59:50 GMT-0500 (Central Daylight Time),759439.1999998093,O,z,1189,58,1,121.bmp,-120,-120,122.bmp,120,-120,123.bmp,-120,120,124.bmp,120,120,9234.799999952316,750204.399999857,7215,yes,SM,A,123.bmp,-120,120,184512,178480,186529,180496,749243.0,743225.0,751260.0,745229.0,58
2,0,1,0,0,41,test,1,1,m,Tue Aug 12 2025 17:59:50 GMT-0500 (Central Daylight Time),768636.0,O,m,1142,59,1,125.bmp,-120,-120,126.bmp,120,-120,127.bmp,-120,120,128.bmp,120,120,9184.600000143051,759451.399999857,7215,no,SM,A,128.bmp,120,-120,184512,178480,186529,180496,758491.0,752472.0,760507.0,754476.0,59
1,1,0,0,0,42,test,1,1,z,Tue Aug 12 2025 17:59:50 GMT-0500 (Central Daylight Time),777766.2999999523,O,z,1073,60,1,129.bmp,-120,-120,130.bmp,120,-120,131.bmp,-120,120,132.bmp,120,120,9118.100000143051,768648.1999998093,7215,yes,SM,A,129.bmp,-120,-120,184512,178480,186529,180496,767688.0,761669.0,769704.0,763673.0,60
2,0,1,0,0,43,test,1,1,z,Tue Aug 12 2025 17:59:50 GMT-0500 (Central Daylight Time),786829.899999857,O,z,1007,61,1,133.bmp,-120,-120,134.bmp,120,-120,135.bmp,-120,120,136.bmp,120,120,9050.799999952316,777779.0999999046,7215,yes,SM,A,134.bmp,120,-120,184512,178480,186529,180496,776818.0,770800.0,778834.0,772803.0,61
4,0,0,0,1,44,test,1,1,z,Tue Aug 12 2025 17:59:50 GMT-0500 (Central Daylight Time),796260.399999857,O,z,1367,62,1,141.bmp,-120,-120,142.bmp,120,-120,143.bmp,-120,120,144.bmp,120,120,9417.099999904633,786843.2999999523,7215,yes,SM,A,144.bmp,120,120,184512,178480,186529,180496,785882.0,779864.0,787898.0,781865.0,62
1,1,0,0,0,44,test,1,0,m,Tue Aug 12 2025 17:59:50 GMT-0500 (Central Daylight Time),805574.0,O,z,1265,63,1,145.bmp,-120,-120,146.bmp,120,-120,147.bmp,-120,120,148.bmp,120,120,9300.700000047684,796273.2999999523,7215,no,SM,A,145.bmp,-120,120,184512,178480,186529,180496,795312.0,789294.0,797328.0,791297.0,63
2,0,1,0,0,45,test,1,1,z,Tue Aug 12 2025 17:59:50 GMT-0500 (Central Daylight Time),814704.5,O,z,1071,64,1,149.bmp,-120,-120,150.bmp,120,-120,112.bmp,-120,120,101.bmp,120,120,9118.200000047684,805586.2999999523,7215,yes,SM,A,150.bmp,120,-120,184512,178480,186529,180496,804626.0,798607.0,806642.0,800610.0,64
4,0,0,0,1,46,test,1,1,m,Tue Aug 12 2025 17:59:50 GMT-0500 (Central Daylight Time),824101.6999998093,O,m,1349,65,1,102.bmp,-120,-120,103.bmp,120,-120,104.bmp,-120,120,105.bmp,120,120,9385.299999952316,814716.399999857,7215,no,SM,A,104.bmp,120,120,184512,178480,186529,180496,813756.0,807737.0,815772.0,809741.0,65
3,0,0,1,0,47,test,1,1,m,Tue Aug 12 2025 17:59:50 GMT-0500 (Central Daylight Time),833848.0,O,m,1696,66,1,106.bmp,-120,-120,107.bmp,120,-120,108.bmp,-120,120,109.bmp,120,120,9734.900000095367,824113.0999999046,7215,no,SM,A,109.bmp,-120,120,184512,178480,186529,180496,823153.0,817134.0,825169.0,819138.0,66
2,0,1,0,0,48,test,1,1,m,Tue Aug 12 2025 17:59:50 GMT-0500 (Central Daylight Time),843028.1999998093,O,m,1125,67,1,137.bmp,-120,-120,138.bmp,120,-120,139.bmp,-120,120,140.bmp,120,120,9168.699999809265,833859.5,7215,no,SM,A,139.bmp,120,-120,184512,178480,186529,180496,832899.0,826880.0,834916.0,828884.0,67
3,0,0,1,0,49,test,1,1,z,Tue Aug 12 2025 17:59:50 GMT-0500 (Central Daylight Time),852925.1999998093,O,z,1841,68,1,110.bmp,-120,-120,111.bmp,120,-120,112.bmp,-120,120,113.bmp,120,120,9885.5,843039.6999998093,7215,yes,SM,A,112.bmp,-120,120,184512,178480,186529,180496,842080.0,836061.0,844096.0,838065.0,68
1,1,0,0,0,50,test,1,1,m,Tue Aug 12 2025 17:59:50 GMT-0500 (Central Daylight Time),862638.1999998093,O,m,1664,69,1,114.bmp,-120,-120,115.bmp,120,-120,116.bmp,-120,120,117.bmp,120,120,9700.899999856949,852937.2999999523,7215,no,SM,A,115.bmp,-120,-120,184512,178480,186529,180496,851976.0,845958.0,853993.0,847962.0,69
2,0,1,0,0,51,test,1,1,m,Tue Aug 12 2025 17:59:50 GMT-0500 (Central Daylight Time),871435.5999999046,O,m,742,70,1,118.bmp,-120,-120,119.bmp,120,-120,120.bmp,-120,120,121.bmp,120,120,8784.900000095367,862650.6999998093,7215,no,SM,A,120.bmp,120,-120,184512,178480,186529,180496,861690.0,855671.0,863706.0,857675.0,70
4,0,0,0,1,51,test,1,0,z,Tue Aug 12 2025 17:59:50 GMT-0500 (Central Daylight Time),881149.1999998093,O,m,1657,71,1,122.bmp,-120,-120,123.bmp,120,-120,124.bmp,-120,120,125.bmp,120,120,9699.899999856949,871449.2999999523,7215,yes,SM,A,125.bmp,120,120,184512,178480,186529,180496,870487.0,864470.0,872504.0,866472.0,71
1,1,0,0,0,52,test,1,1,z,Tue Aug 12 2025 17:59:50 GMT-0500 (Central Daylight Time),890296.1999998093,O,z,1096,72,1,126.bmp,-120,-120,127.bmp,120,-120,128.bmp,-120,120,129.bmp,120,120,9134.199999809265,881162.0,7215,yes,SM,A,126.bmp,-120,-120,184512,178480,186529,180496,880201.0,874183.0,882217.0,876186.0,72
2,0,1,0,0,53,test,1,1,z,Tue Aug 12 2025 17:59:50 GMT-0500 (Central Daylight Time),899959.899999857,O,z,1605,73,1,130.bmp,-120,-120,131.bmp,120,-120,132.bmp,-120,120,133.bmp,120,120,9650.299999952316,890309.5999999046,7215,yes,SM,A,131.bmp,120,-120,184512,178480,186529,180496,889348.0,883330.0,891364.0,885333.0,73
4,0,0,0,1,54,test,1,1,m,Tue Aug 12 2025 17:59:50 GMT-0500 (Central Daylight Time),909340.0,O,m,1317,74,1,134.bmp,-120,-120,135.bmp,120,-120,136.bmp,-120,120,137.bmp,120,120,9367.600000143051,899972.399999857,7215,no,SM,A,136.bmp,120,120,184512,178480,186529,180496,899011.0,892993.0,901028.0,894996.0,74
2,0,1,0,0,55,test,1,1,m,Tue Aug 12 2025 17:59:50 GMT-0500 (Central Daylight Time),918637.0999999046,O,m,1233,75,1,138.bmp,-120,-120,139.bmp,120,-120,140.bmp,-120,120,141.bmp,120,120,9283.599999904633,909353.5,7215,no,SM,A,141.bmp,120,-120,184512,178480,186529,180496,908392.0,902374.0,910408.0,904377.0,75
1,1,0,0,0,56,test,1,1,z,Tue Aug 12 2025 17:59:50 GMT-0500 (Central Daylight Time),927867.0999999046,O,z,1177,76,1,142.bmp,-120,-120,143.bmp,120,-120,144.bmp,-120,120,145.bmp,120,120,9216.200000047684,918650.899999857,7215,yes,SM,A,142.bmp,-120,-120,184512,178480,186529,180496,917688.0,911672.0,919705.0,913674.0,76
3,0,0,1,0,57,test,1,1,z,Tue Aug 12 2025 17:59:50 GMT-0500 (Central Daylight Time),936697.6999998093,O,z,761,77,1,150.bmp,-120,-120,111.bmp,120,-120,101.bmp,-120,120,102.bmp,120,120,8814.0,927883.6999998093,7215,yes,SM,A,101.bmp,-120,120,184512,178480,186529,180496,926935.0,920904.0,928952.0,922920.0,77
1,1,0,0,0,58,test,1,1,m,Tue Aug 12 2025 17:59:50 GMT-0500 (Central Daylight Time),945794.6999998093,O,m,1035,78,1,146.bmp,-120,-120,147.bmp,120,-120,148.bmp,-120,120,149.bmp,120,120,9082.899999856949,936711.7999999523,7215,no,SM,A,147.bmp,-120,-120,184512,178480,186529,180496,935749.0,929732.0,937766.0,931734.0,78
4,0,0,0,1,59,test,1,1,m,Tue Aug 12 2025 17:59:50 GMT-0500 (Central Daylight Time),954941.6999998093,O,m,1090,79,1,107.bmp,-120,-120,108.bmp,120,-120,109.bmp,-120,120,110.bmp,120,120,9135.0,945806.6999998093,7215,no,SM,A,107.bmp,120,120,184512,178480,186529,180496,944846.0,938827.0,946863.0,940831.0,79
3,0,0,1,0,60,test,1,1,m,Tue Aug 12 2025 17:59:50 GMT-0500 (Central Daylight Time),964087.7999999523,O,m,1094,80,1,103.bmp,-120,-120,104.bmp,120,-120,105.bmp,-120,120,106.bmp,120,120,9134.299999952316,954953.5,7215,no,SM,A,106.bmp,-120,120,184512,178480,186529,180496,953993.0,947974.0,956010.0,949978.0,80
