acc_sum,block,block_c,block_cond,con_img,correct,correct_response,datetime,endtime,face,jitter,line,project,response,response_time,row_sel,session_number,start_end,starttime,subject_id,task,task_vers,trial
0,prac,1,A,haborder.png,0,z,Tue Dec 02 2025 13:57:43 GMT-0600 (Central Standard Time),98773.0,CFD-BM-005-010-A.jpg,1600,solid,O,None,1516,2,1,3898.2000000029802,94874.79999999702,7714,ATS,A,1
0,prac,1,A,haborder.png,0,z,Tue Dec 02 2025 13:57:43 GMT-0600 (Central Standard Time),102671.60000000894,CFD-WF-003-014-A.jpg,1600,solid,O,None,1501,10,1,7796.800000011921,94874.79999999702,7714,ATS,A,2
1,prac,1,A,haborder.png,1,m,Tue Dec 02 2025 13:57:43 GMT-0600 (Central Standard Time),106003.90000000596,CFD-WM-006-013-HC.jpg,1700,solid,O,m,836,9,1,11129.10000000894,94874.79999999702,7714,ATS,A,3
2,prac,1,A,haborder.png,1,m,Tue Dec 02 2025 13:57:43 GMT-0600 (Central Standard Time),109552.40000000596,CFD-WF-017-016-HC.jpg,1500,solid,O,m,1264,11,1,14677.60000000894,94874.79999999702,7714,ATS,A,4
2,prac,1,A,haborder.png,0,z,Tue Dec 02 2025 13:57:43 GMT-0600 (Central Standard Time),113051.29999999702,CFD-BF-039-039-A.jpg,1200,solid,O,None,1514,6,1,18176.5,94874.79999999702,7714,ATS,A,5
3,prac,1,A,haborder.png,1,z,Tue Dec 02 2025 13:57:43 GMT-0600 (Central Standard Time),115616.60000000894,CFD-WF-019-015-A.jpg,1000,solid,O,z,781,12,1,20741.80000001192,94874.79999999702,7714,ATS,A,6
4,prac,1,A,haborder.png,1,m,Tue Dec 02 2025 13:57:43 GMT-0600 (Central Standard Time),118700.0,CFD-WM-004-005-HC.jpg,1400,solid,O,m,895,7,1,23825.20000000298,94874.79999999702,7714,ATS,A,7
5,prac,1,A,haborder.png,1,z,Tue Dec 02 2025 13:57:43 GMT-0600 (Central Standard Time),121366.60000000894,CFD-BF-023-013-A.jpg,1000,solid,O,z,875,4,1,26491.80000001192,94874.79999999702,7714,ATS,A,8
6,prac,1,A,haborder.png,1,m,Tue Dec 02 2025 13:57:43 GMT-0600 (Central Standard Time),124698.70000000298,CFD-BM-017-052-HC.jpg,1700,solid,O,m,847,1,1,29823.90000000596,94874.79999999702,7714,ATS,A,9
6,prac,1,A,haborder.png,0,m,Tue Dec 02 2025 13:57:43 GMT-0600 (Central Standard Time),128496.40000000596,CFD-BM-029-026-HC.jpg,1500,solid,O,None,1515,3,1,33621.60000000894,94874.79999999702,7714,ATS,A,10
7,prac,1,A,haborder.png,1,m,Tue Dec 02 2025 13:57:43 GMT-0600 (Central Standard Time),132346.5,CFD-BF-028-020-HC.jpg,2000,solid,O,m,1039,5,1,37471.70000000298,94874.79999999702,7714,ATS,A,11
8,prac,1,A,haborder.png,1,z,Tue Dec 02 2025 13:57:43 GMT-0600 (Central Standard Time),136278.0,CFD-WM-013-015-A.jpg,1900,solid,O,z,1242,8,1,41403.20000000298,94874.79999999702,7714,ATS,A,12
0,prac,1,B,mfborder.png,0,z,Tue Dec 02 2025 13:57:43 GMT-0600 (Central Standard Time),184527.70000000298,CFD-BF-023-013-A.jpg,1000,dash,O,None,1508,4,1,3296.7000000029802,181231.0,7714,ATS,A,1
1,prac,1,B,mfborder.png,1,z,Tue Dec 02 2025 13:57:43 GMT-0600 (Central Standard Time),187811.29999999702,CFD-WF-003-014-A.jpg,1500,dash,O,z,986,11,1,6580.29999999702,181231.0,7714,ATS,A,2
2,prac,1,B,mfborder.png,1,m,Tue Dec 02 2025 13:57:43 GMT-0600 (Central Standard Time),190427.29999999702,CFD-WM-019-013-A.jpg,1200,dash,O,m,621,6,1,9196.29999999702,181231.0,7714,ATS,A,3
3,prac,1,B,mfborder.png,1,m,Tue Dec 02 2025 13:57:43 GMT-0600 (Central Standard Time),193909.40000000596,CFD-BM-010-019-A.jpg,1600,dash,O,m,1093,2,1,12678.40000000596,181231.0,7714,ATS,A,4
4,prac,1,B,mfborder.png,1,z,Tue Dec 02 2025 13:57:43 GMT-0600 (Central Standard Time),197476.5,CFD-BF-028-020-HC.jpg,1400,dash,O,z,1387,7,1,16245.5,181231.0,7714,ATS,A,5
5,prac,1,B,mfborder.png,1,z,Tue Dec 02 2025 13:57:43 GMT-0600 (Central Standard Time),200491.10000000894,CFD-BF-010-005-HC.jpg,1500,dash,O,z,729,3,1,19260.10000000894,181231.0,7714,ATS,A,6
6,prac,1,B,mfborder.png,1,z,Tue Dec 02 2025 13:57:43 GMT-0600 (Central Standard Time),203823.70000000298,CFD-WF-002-008-HC.jpg,1900,dash,O,z,633,8,1,22592.70000000298,181231.0,7714,ATS,A,7
7,prac,1,B,mfborder.png,1,m,Tue Dec 02 2025 13:57:43 GMT-0600 (Central Standard Time),207038.29999999702,CFD-WM-013-015-A.jpg,1700,dash,O,m,726,9,1,25807.29999999702,181231.0,7714,ATS,A,8
8,prac,1,B,mfborder.png,1,m,Tue Dec 02 2025 13:57:43 GMT-0600 (Central Standard Time),210187.40000000596,CFD-BM-029-026-HC.jpg,1700,dash,O,m,663,1,1,28956.40000000596,181231.0,7714,ATS,A,9
9,prac,1,B,mfborder.png,1,z,Tue Dec 02 2025 13:57:43 GMT-0600 (Central Standard Time),212653.70000000298,CFD-WF-017-016-HC.jpg,1000,dash,O,z,677,12,1,31422.70000000298,181231.0,7714,ATS,A,10
10,prac,1,B,mfborder.png,1,m,Tue Dec 02 2025 13:57:43 GMT-0600 (Central Standard Time),215835.90000000596,CFD-WM-006-013-HC.jpg,1600,dash,O,m,786,10,1,34604.90000000596,181231.0,7714,ATS,A,11
11,prac,1,B,mfborder.png,1,m,Tue Dec 02 2025 13:57:43 GMT-0600 (Central Standard Time),219485.79999999702,CFD-BM-005-010-A.jpg,2000,dash,O,m,836,5,1,38254.79999999702,181231.0,7714,ATS,A,12
1,test,1,A,haborder.png,1,m,Tue Dec 02 2025 13:57:43 GMT-0600 (Central Standard Time),278232.60000000894,CFD-WM-006-013-HC.jpg,1700,solid,O,m,924,9,1,2647.7000000029802,275584.90000000596,7714,ATS,A,1
2,test,1,A,haborder.png,1,z,Tue Dec 02 2025 13:57:43 GMT-0600 (Central Standard Time),280697.200000003,CFD-WF-003-014-A.jpg,1600,solid,O,z,847,10,1,5112.29999999702,275584.90000000596,7714,ATS,A,2
3,test,1,A,haborder.png,1,m,Tue Dec 02 2025 13:57:43 GMT-0600 (Central Standard Time),283946.5,CFD-BF-028-020-HC.jpg,2000,solid,O,m,1230,5,1,8361.59999999404,275584.90000000596,7714,ATS,A,3
4,test,1,A,haborder.png,1,m,Tue Dec 02 2025 13:57:43 GMT-0600 (Central Standard Time),286362.700000003,CFD-BM-029-026-HC.jpg,1500,solid,O,m,888,3,1,10777.79999999702,275584.90000000596,7714,ATS,A,4
5,test,1,A,haborder.png,1,z,Tue Dec 02 2025 13:57:43 GMT-0600 (Central Standard Time),288112.299999997,CFD-WF-019-015-A.jpg,1000,solid,O,z,723,12,1,12527.39999999106,275584.90000000596,7714,ATS,A,5
6,test,1,A,haborder.png,1,z,Tue Dec 02 2025 13:57:43 GMT-0600 (Central Standard Time),289746.5,CFD-WF-019-015-A.jpg,1000,solid,O,z,604,12,1,14161.59999999404,275584.90000000596,7714,ATS,A,6
7,test,1,A,haborder.png,1,z,Tue Dec 02 2025 13:57:43 GMT-0600 (Central Standard Time),291778.90000000596,CFD-BF-039-039-A.jpg,1200,solid,O,z,799,6,1,16194.0,275584.90000000596,7714,ATS,A,7
8,test,1,A,haborder.png,1,m,Tue Dec 02 2025 13:57:43 GMT-0600 (Central Standard Time),294209.90000000596,CFD-BM-017-052-HC.jpg,1700,solid,O,m,705,1,1,18625.0,275584.90000000596,7714,ATS,A,8
9,test,1,A,haborder.png,1,m,Tue Dec 02 2025 13:57:43 GMT-0600 (Central Standard Time),296694.5,CFD-WM-006-013-HC.jpg,1700,solid,O,m,752,9,1,21109.59999999404,275584.90000000596,7714,ATS,A,9
9,test,1,A,haborder.png,0,z,Tue Dec 02 2025 13:57:43 GMT-0600 (Central Standard Time),300117.10000000894,CFD-WM-013-015-A.jpg,1900,solid,O,None,1506,8,1,24532.20000000298,275584.90000000596,7714,ATS,A,10
10,test,1,A,haborder.png,1,z,Tue Dec 02 2025 13:57:43 GMT-0600 (Central Standard Time),302491.0,CFD-WF-003-014-A.jpg,1600,solid,O,z,762,10,1,26906.09999999404,275584.90000000596,7714,ATS,A,11
11,test,1,A,haborder.png,1,m,Tue Dec 02 2025 13:57:43 GMT-0600 (Central Standard Time),304589.799999997,CFD-WM-004-005-HC.jpg,1400,solid,O,m,667,7,1,29004.89999999106,275584.90000000596,7714,ATS,A,12
11,test,1,A,haborder.png,0,m,Tue Dec 02 2025 13:57:43 GMT-0600 (Central Standard Time),307623.5,CFD-BM-029-026-HC.jpg,1500,solid,O,None,1514,3,1,32038.59999999404,275584.90000000596,7714,ATS,A,13
12,test,1,A,haborder.png,1,z,Tue Dec 02 2025 13:57:43 GMT-0600 (Central Standard Time),309438.299999997,CFD-BF-023-013-A.jpg,1000,solid,O,z,794,4,1,33853.39999999106,275584.90000000596,7714,ATS,A,14
13,test,1,A,haborder.png,1,m,Tue Dec 02 2025 13:57:43 GMT-0600 (Central Standard Time),311939.10000000894,CFD-BM-017-052-HC.jpg,1700,solid,O,m,783,1,1,36354.20000000298,275584.90000000596,7714,ATS,A,15
14,test,1,A,haborder.png,1,m,Tue Dec 02 2025 13:57:43 GMT-0600 (Central Standard Time),314138.200000003,CFD-WM-004-005-HC.jpg,1400,solid,O,m,772,7,1,38553.29999999702,275584.90000000596,7714,ATS,A,16
15,test,1,A,haborder.png,1,z,Tue Dec 02 2025 13:57:43 GMT-0600 (Central Standard Time),315937.60000000894,CFD-BF-023-013-A.jpg,1000,solid,O,z,774,4,1,40352.70000000298,275584.90000000596,7714,ATS,A,17
16,test,1,A,haborder.png,1,m,Tue Dec 02 2025 13:57:43 GMT-0600 (Central Standard Time),318436.0,CFD-WF-017-016-HC.jpg,1500,solid,O,m,979,11,1,42851.09999999404,275584.90000000596,7714,ATS,A,18
17,test,1,A,haborder.png,1,m,Tue Dec 02 2025 13:57:43 GMT-0600 (Central Standard Time),320785.200000003,CFD-WF-017-016-HC.jpg,1500,solid,O,m,818,11,1,45200.29999999702,275584.90000000596,7714,ATS,A,19
18,test,1,A,haborder.png,1,z,Tue Dec 02 2025 13:57:43 GMT-0600 (Central Standard Time),323151.40000000596,CFD-BM-005-010-A.jpg,1600,solid,O,z,743,2,1,47566.5,275584.90000000596,7714,ATS,A,20
19,test,1,A,haborder.png,1,m,Tue Dec 02 2025 13:57:43 GMT-0600 (Central Standard Time),326301.299999997,CFD-BF-028-020-HC.jpg,2000,solid,O,m,1128,5,1,50716.39999999106,275584.90000000596,7714,ATS,A,21
20,test,1,A,haborder.png,1,z,Tue Dec 02 2025 13:57:43 GMT-0600 (Central Standard Time),328817.200000003,CFD-BM-005-010-A.jpg,1600,solid,O,z,884,2,1,53232.29999999702,275584.90000000596,7714,ATS,A,22
21,test,1,A,haborder.png,1,z,Tue Dec 02 2025 13:57:43 GMT-0600 (Central Standard Time),331682.10000000894,CFD-WM-013-015-A.jpg,1900,solid,O,z,948,8,1,56097.20000000298,275584.90000000596,7714,ATS,A,23
22,test,1,A,haborder.png,1,z,Tue Dec 02 2025 13:57:43 GMT-0600 (Central Standard Time),333699.10000000894,CFD-BF-039-039-A.jpg,1200,solid,O,z,798,6,1,58114.20000000298,275584.90000000596,7714,ATS,A,24
1,test,1,B,mfborder.png,1,m,Tue Dec 02 2025 13:57:43 GMT-0600 (Central Standard Time),353392.200000003,CFD-BM-005-010-A.jpg,2000,dash,O,m,792,5,1,2815.4000000059605,350576.799999997,7714,ATS,A,1
2,test,1,B,mfborder.png,1,z,Tue Dec 02 2025 13:57:43 GMT-0600 (Central Standard Time),355158.60000000894,CFD-BF-023-013-A.jpg,1000,dash,O,z,735,4,1,4581.800000011921,350576.799999997,7714,ATS,A,2
3,test,1,B,mfborder.png,1,z,Tue Dec 02 2025 13:57:43 GMT-0600 (Central Standard Time),358290.10000000894,CFD-WF-002-008-HC.jpg,1900,dash,O,z,1215,8,1,7713.300000011921,350576.799999997,7714,ATS,A,3
4,test,1,B,mfborder.png,1,z,Tue Dec 02 2025 13:57:43 GMT-0600 (Central Standard Time),360822.90000000596,CFD-WF-002-008-HC.jpg,1900,dash,O,z,608,8,1,10246.10000000894,350576.799999997,7714,ATS,A,4
5,test,1,B,mfborder.png,1,z,Tue Dec 02 2025 13:57:43 GMT-0600 (Central Standard Time),362988.700000003,CFD-WF-003-014-A.jpg,1500,dash,O,z,644,11,1,12411.90000000596,350576.799999997,7714,ATS,A,5
6,test,1,B,mfborder.png,1,z,Tue Dec 02 2025 13:57:43 GMT-0600 (Central Standard Time),365106.200000003,CFD-BF-028-020-HC.jpg,1400,dash,O,z,689,7,1,14529.40000000596,350576.799999997,7714,ATS,A,6
7,test,1,B,mfborder.png,1,z,Tue Dec 02 2025 13:57:43 GMT-0600 (Central Standard Time),367553.200000003,CFD-BF-010-005-HC.jpg,1500,dash,O,z,932,3,1,16976.40000000596,350576.799999997,7714,ATS,A,7
8,test,1,B,mfborder.png,1,z,Tue Dec 02 2025 13:57:43 GMT-0600 (Central Standard Time),370069.799999997,CFD-BF-010-005-HC.jpg,1500,dash,O,z,994,3,1,19493.0,350576.799999997,7714,ATS,A,8
9,test,1,B,mfborder.png,1,m,Tue Dec 02 2025 13:57:43 GMT-0600 (Central Standard Time),372369.5,CFD-BM-029-026-HC.jpg,1700,dash,O,m,568,1,1,21792.70000000298,350576.799999997,7714,ATS,A,9
10,test,1,B,mfborder.png,1,m,Tue Dec 02 2025 13:57:43 GMT-0600 (Central Standard Time),374684.10000000894,CFD-WM-013-015-A.jpg,1700,dash,O,m,595,9,1,24107.30000001192,350576.799999997,7714,ATS,A,10
11,test,1,B,mfborder.png,1,m,Tue Dec 02 2025 13:57:43 GMT-0600 (Central Standard Time),376569.0,CFD-WM-019-013-A.jpg,1200,dash,O,m,658,6,1,25992.20000000298,350576.799999997,7714,ATS,A,11
12,test,1,B,mfborder.png,1,m,Tue Dec 02 2025 13:57:43 GMT-0600 (Central Standard Time),378334.200000003,CFD-WM-019-013-A.jpg,1200,dash,O,m,543,6,1,27757.40000000596,350576.799999997,7714,ATS,A,12
13,test,1,B,mfborder.png,1,m,Tue Dec 02 2025 13:57:43 GMT-0600 (Central Standard Time),381050.200000003,CFD-BM-005-010-A.jpg,2000,dash,O,m,685,5,1,30473.40000000596,350576.799999997,7714,ATS,A,13
14,test,1,B,mfborder.png,1,z,Tue Dec 02 2025 13:57:43 GMT-0600 (Central Standard Time),382732.5,CFD-WF-017-016-HC.jpg,1000,dash,O,z,653,12,1,32155.70000000298,350576.799999997,7714,ATS,A,14
15,test,1,B,mfborder.png,1,z,Tue Dec 02 2025 13:57:43 GMT-0600 (Central Standard Time),384814.5,CFD-BF-028-020-HC.jpg,1400,dash,O,z,658,7,1,34237.70000000298,350576.799999997,7714,ATS,A,15
16,test,1,B,mfborder.png,1,m,Tue Dec 02 2025 13:57:43 GMT-0600 (Central Standard Time),387232.200000003,CFD-BM-010-019-A.jpg,1600,dash,O,m,783,2,1,36655.40000000596,350576.799999997,7714,ATS,A,16
17,test,1,B,mfborder.png,1,z,Tue Dec 02 2025 13:57:43 GMT-0600 (Central Standard Time),388850.0,CFD-WF-017-016-HC.jpg,1000,dash,O,z,592,12,1,38273.20000000298,350576.799999997,7714,ATS,A,17
18,test,1,B,mfborder.png,1,m,Tue Dec 02 2025 13:57:43 GMT-0600 (Central Standard Time),391115.0,CFD-BM-010-019-A.jpg,1600,dash,O,m,633,2,1,40538.20000000298,350576.799999997,7714,ATS,A,18
19,test,1,B,mfborder.png,1,m,Tue Dec 02 2025 13:57:43 GMT-0600 (Central Standard Time),393445.60000000894,CFD-BM-029-026-HC.jpg,1700,dash,O,m,602,1,1,42868.80000001192,350576.799999997,7714,ATS,A,19
20,test,1,B,mfborder.png,1,m,Tue Dec 02 2025 13:57:43 GMT-0600 (Central Standard Time),395695.700000003,CFD-WM-006-013-HC.jpg,1600,dash,O,m,616,10,1,45118.90000000596,350576.799999997,7714,ATS,A,20
21,test,1,B,mfborder.png,1,z,Tue Dec 02 2025 13:57:43 GMT-0600 (Central Standard Time),397810.90000000596,CFD-BF-023-013-A.jpg,1000,dash,O,z,1088,4,1,47234.10000000894,350576.799999997,7714,ATS,A,21
22,test,1,B,mfborder.png,1,m,Tue Dec 02 2025 13:57:43 GMT-0600 (Central Standard Time),400376.5,CFD-WM-006-013-HC.jpg,1600,dash,O,m,940,10,1,49799.70000000298,350576.799999997,7714,ATS,A,22
23,test,1,B,mfborder.png,1,m,Tue Dec 02 2025 13:57:43 GMT-0600 (Central Standard Time),402693.40000000596,CFD-WM-013-015-A.jpg,1700,dash,O,m,595,9,1,52116.60000000894,350576.799999997,7714,ATS,A,23
24,test,1,B,mfborder.png,1,z,Tue Dec 02 2025 13:57:43 GMT-0600 (Central Standard Time),404892.299999997,CFD-WF-003-014-A.jpg,1500,dash,O,z,677,11,1,54315.5,350576.799999997,7714,ATS,A,24
0,prac,1,C,mfborder.png,0,z,Tue Dec 02 2025 13:57:43 GMT-0600 (Central Standard Time),471405.200000003,CFD-WF-017-016-HC.jpg,1600,dash,O,None,1517,1,1,3900.2000000029802,467505.0,7714,ATS,A,1
0,prac,1,C,haborder.png,0,z,Tue Dec 02 2025 13:57:43 GMT-0600 (Central Standard Time),475420.200000003,CFD-BF-039-039-A.jpg,1700,solid,O,None,1518,8,1,7915.20000000298,467505.0,7714,ATS,A,2
1,prac,1,C,haborder.png,1,m,Tue Dec 02 2025 13:57:43 GMT-0600 (Central Standard Time),479103.200000003,CFD-BM-029-026-HC.jpg,1500,solid,O,m,1391,10,1,11598.20000000298,467505.0,7714,ATS,A,3
2,prac,1,C,haborder.png,1,m,Tue Dec 02 2025 13:57:43 GMT-0600 (Central Standard Time),482066.90000000596,CFD-WM-004-005-HC.jpg,1000,dash,O,m,1171,11,1,14561.90000000596,467505.0,7714,ATS,A,4
2,prac,1,C,haborder.png,0,z,Tue Dec 02 2025 13:57:43 GMT-0600 (Central Standard Time),486266.40000000596,CFD-BF-023-013-A.jpg,1900,dash,O,None,1515,7,1,18761.40000000596,467505.0,7714,ATS,A,5
3,prac,1,C,mfborder.png,1,z,Tue Dec 02 2025 13:57:43 GMT-0600 (Central Standard Time),489965.40000000596,CFD-WF-019-015-A.jpg,1500,solid,O,z,1402,2,1,22460.40000000596,467505.0,7714,ATS,A,6
3,prac,1,C,mfborder.png,0,m,Tue Dec 02 2025 13:57:43 GMT-0600 (Central Standard Time),494265.799999997,CFD-BM-017-052-HC.jpg,2000,solid,O,None,1518,4,1,26760.79999999702,467505.0,7714,ATS,A,7
3,prac,1,C,haborder.png,0,z,Tue Dec 02 2025 13:57:43 GMT-0600 (Central Standard Time),498163.299999997,CFD-WF-003-014-A.jpg,1600,dash,O,None,1518,9,1,30658.29999999702,467505.0,7714,ATS,A,8
3,prac,1,C,mfborder.png,0,m,Tue Dec 02 2025 13:57:43 GMT-0600 (Central Standard Time),501662.40000000596,CFD-BM-005-010-A.jpg,1200,dash,O,None,1518,5,1,34157.40000000596,467505.0,7714,ATS,A,9
3,prac,1,C,mfborder.png,0,z,Tue Dec 02 2025 13:57:43 GMT-0600 (Central Standard Time),504945.200000003,CFD-BF-028-020-HC.jpg,1000,dash,O,None,1501,3,1,37440.20000000298,467505.0,7714,ATS,A,10
3,prac,1,C,mfborder.png,0,m,Tue Dec 02 2025 13:57:43 GMT-0600 (Central Standard Time),508943.10000000894,CFD-WM-013-015-A.jpg,1700,solid,O,None,1516,6,1,41438.10000000894,467505.0,7714,ATS,A,11
4,prac,1,C,haborder.png,1,m,Tue Dec 02 2025 13:57:43 GMT-0600 (Central Standard Time),511960.5,CFD-WM-004-005-HC.jpg,1400,solid,O,m,825,12,1,44455.5,467505.0,7714,ATS,A,12
0,prac,2,C,mfborder.png,0,z,Tue Dec 02 2025 13:57:43 GMT-0600 (Central Standard Time),524338.0,CFD-WF-017-016-HC.jpg,1600,dash,O,None,1502,1,1,56833.0,467505.0,7714,ATS,A,1
1,prac,2,C,haborder.png,1,m,Tue Dec 02 2025 13:57:43 GMT-0600 (Central Standard Time),527754.200000003,CFD-WM-004-005-HC.jpg,1400,solid,O,m,1236,12,1,60249.20000000298,467505.0,7714,ATS,A,2
1,prac,2,C,mfborder.png,0,m,Tue Dec 02 2025 13:57:43 GMT-0600 (Central Standard Time),532051.900000006,CFD-BM-017-052-HC.jpg,2000,solid,O,None,1515,4,1,64546.90000000596,467505.0,7714,ATS,A,3
1,prac,2,C,mfborder.png,0,z,Tue Dec 02 2025 13:57:43 GMT-0600 (Central Standard Time),535350.0,CFD-BF-028-020-HC.jpg,1000,dash,O,None,1514,3,1,67845.0,467505.0,7714,ATS,A,4
2,prac,2,C,mfborder.png,1,z,Tue Dec 02 2025 13:57:43 GMT-0600 (Central Standard Time),538882.400000006,CFD-WF-019-015-A.jpg,1500,solid,O,z,1233,2,1,71377.40000000596,467505.0,7714,ATS,A,5
3,prac,2,C,haborder.png,1,m,Tue Dec 02 2025 13:57:43 GMT-0600 (Central Standard Time),542354.799999997,CFD-BM-029-026-HC.jpg,1500,solid,O,m,1192,10,1,74849.79999999702,467505.0,7714,ATS,A,6
3,prac,2,C,mfborder.png,0,m,Tue Dec 02 2025 13:57:43 GMT-0600 (Central Standard Time),545682.5,CFD-BM-005-010-A.jpg,1200,dash,O,z,1348,5,1,78177.5,467505.0,7714,ATS,A,7
4,prac,2,C,haborder.png,1,m,Tue Dec 02 2025 13:57:43 GMT-0600 (Central Standard Time),548663.0,CFD-WM-004-005-HC.jpg,1000,dash,O,m,1166,11,1,81158.0,467505.0,7714,ATS,A,8
4,prac,2,C,mfborder.png,0,m,Tue Dec 02 2025 13:57:43 GMT-0600 (Central Standard Time),552663.700000003,CFD-WM-013-015-A.jpg,1700,solid,O,None,1515,6,1,85158.70000000298,467505.0,7714,ATS,A,9
5,prac,2,C,haborder.png,1,z,Tue Dec 02 2025 13:57:43 GMT-0600 (Central Standard Time),556593.299999997,CFD-BF-023-013-A.jpg,1900,dash,O,z,1238,7,1,89088.29999999702,467505.0,7714,ATS,A,10
6,prac,2,C,haborder.png,1,z,Tue Dec 02 2025 13:57:43 GMT-0600 (Central Standard Time),560476.0,CFD-WF-003-014-A.jpg,1600,dash,O,z,1493,9,1,92971.0,467505.0,7714,ATS,A,11
7,prac,2,C,haborder.png,1,z,Tue Dec 02 2025 13:57:43 GMT-0600 (Central Standard Time),564374.799999997,CFD-BF-039-039-A.jpg,1700,solid,O,z,1400,8,1,96869.79999999702,467505.0,7714,ATS,A,12
1,test,1,C,mfborder.png,1,m,Tue Dec 02 2025 13:57:43 GMT-0600 (Central Standard Time),613242.5,CFD-BM-029-026-HC.jpg,1200,dash,O,m,1289,6,1,2516.2000000029802,610726.299999997,7714,ATS,A,1
1,test,1,C,mfborder.png,0,m,Tue Dec 02 2025 13:57:43 GMT-0600 (Central Standard Time),616774.1000000089,CFD-WM-019-013-A.jpg,2000,dash,O,None,1514,5,1,6047.800000011921,610726.299999997,7714,ATS,A,2
1,test,1,C,haborder.png,0,z,Tue Dec 02 2025 13:57:43 GMT-0600 (Central Standard Time),619557.400000006,CFD-WM-013-015-A.jpg,1400,solid,O,m,1362,7,1,8831.10000000894,610726.299999997,7714,ATS,A,3
2,test,1,C,mfborder.png,1,z,Tue Dec 02 2025 13:57:43 GMT-0600 (Central Standard Time),622226.200000003,CFD-WF-003-014-A.jpg,1500,dash,O,z,1142,3,1,11499.90000000596,610726.299999997,7714,ATS,A,4
2,test,1,C,mfborder.png,0,m,Tue Dec 02 2025 13:57:43 GMT-0600 (Central Standard Time),624755.200000003,CFD-WM-006-013-HC.jpg,1000,dash,O,None,1514,4,1,14028.90000000596,610726.299999997,7714,ATS,A,5
2,test,1,C,mfborder.png,0,m,Tue Dec 02 2025 13:57:43 GMT-0600 (Central Standard Time),627288.0,CFD-WM-006-013-HC.jpg,1000,dash,O,None,1517,4,1,16561.70000000298,610726.299999997,7714,ATS,A,6
2,test,1,C,mfborder.png,0,m,Tue Dec 02 2025 13:57:43 GMT-0600 (Central Standard Time),630772.200000003,CFD-WM-019-013-A.jpg,2000,dash,O,z,1450,5,1,20045.90000000596,610726.299999997,7714,ATS,A,7
3,test,1,C,haborder.png,1,z,Tue Dec 02 2025 13:57:43 GMT-0600 (Central Standard Time),634085.200000003,CFD-BM-005-010-A.jpg,1900,solid,O,z,1393,8,1,23358.90000000596,610726.299999997,7714,ATS,A,8
3,test,1,C,haborder.png,0,z,Tue Dec 02 2025 13:57:43 GMT-0600 (Central Standard Time),637019.1000000089,CFD-WM-013-015-A.jpg,1400,solid,O,None,1516,7,1,26292.80000001192,610726.299999997,7714,ATS,A,9
4,test,1,C,haborder.png,1,z,Tue Dec 02 2025 13:57:43 GMT-0600 (Central Standard Time),639983.700000003,CFD-BM-005-010-A.jpg,1900,solid,O,z,1041,8,1,29257.40000000596,610726.299999997,7714,ATS,A,10
5,test,1,C,mfborder.png,1,z,Tue Dec 02 2025 13:57:43 GMT-0600 (Central Standard Time),642932.700000003,CFD-BF-023-013-A.jpg,1600,dash,O,z,1319,2,1,32206.40000000596,610726.299999997,7714,ATS,A,11
5,test,1,C,haborder.png,0,z,Tue Dec 02 2025 13:57:43 GMT-0600 (Central Standard Time),645715.6000000089,CFD-BM-010-019-A.jpg,1700,solid,O,m,1061,9,1,34989.30000001192,610726.299999997,7714,ATS,A,12
6,test,1,C,mfborder.png,1,z,Tue Dec 02 2025 13:57:43 GMT-0600 (Central Standard Time),648198.200000003,CFD-WF-003-014-A.jpg,1500,dash,O,z,960,3,1,37471.90000000596,610726.299999997,7714,ATS,A,13
6,test,1,C,mfborder.png,0,z,Tue Dec 02 2025 13:57:43 GMT-0600 (Central Standard Time),651429.5,CFD-BF-010-005-HC.jpg,1700,dash,O,None,1515,1,1,40703.20000000298,610726.299999997,7714,ATS,A,14
6,test,1,C,haborder.png,0,m,Tue Dec 02 2025 13:57:43 GMT-0600 (Central Standard Time),654562.900000006,CFD-BF-028-020-HC.jpg,1600,solid,O,None,1514,10,1,43836.60000000894,610726.299999997,7714,ATS,A,15
7,test,1,C,mfborder.png,1,m,Tue Dec 02 2025 13:57:43 GMT-0600 (Central Standard Time),657061.6000000089,CFD-BM-029-026-HC.jpg,1200,dash,O,m,1269,6,1,46335.30000001192,610726.299999997,7714,ATS,A,16
7,test,1,C,haborder.png,0,m,Tue Dec 02 2025 13:57:43 GMT-0600 (Central Standard Time),660079.900000006,CFD-WF-002-008-HC.jpg,1500,solid,O,None,1501,11,1,49353.60000000894,610726.299999997,7714,ATS,A,17
8,test,1,C,haborder.png,1,m,Tue Dec 02 2025 13:57:43 GMT-0600 (Central Standard Time),662594.0,CFD-BF-028-020-HC.jpg,1600,solid,O,m,884,10,1,51867.70000000298,610726.299999997,7714,ATS,A,18
9,test,1,C,haborder.png,1,m,Tue Dec 02 2025 13:57:43 GMT-0600 (Central Standard Time),664793.0,CFD-WF-017-016-HC.jpg,1000,solid,O,m,1173,12,1,54066.70000000298,610726.299999997,7714,ATS,A,19
10,test,1,C,haborder.png,1,m,Tue Dec 02 2025 13:57:43 GMT-0600 (Central Standard Time),667526.0,CFD-WF-002-008-HC.jpg,1500,solid,O,m,1202,11,1,56799.70000000298,610726.299999997,7714,ATS,A,20
11,test,1,C,haborder.png,1,z,Tue Dec 02 2025 13:57:43 GMT-0600 (Central Standard Time),670724.1000000089,CFD-BM-010-019-A.jpg,1700,solid,O,z,1478,9,1,59997.80000001192,610726.299999997,7714,ATS,A,21
12,test,1,C,mfborder.png,1,z,Tue Dec 02 2025 13:57:43 GMT-0600 (Central Standard Time),673657.0,CFD-BF-023-013-A.jpg,1600,dash,O,z,1307,2,1,62930.70000000298,610726.299999997,7714,ATS,A,22
13,test,1,C,mfborder.png,1,z,Tue Dec 02 2025 13:57:43 GMT-0600 (Central Standard Time),676788.900000006,CFD-BF-010-005-HC.jpg,1700,dash,O,z,1412,1,1,66062.60000000894,610726.299999997,7714,ATS,A,23
14,test,1,C,haborder.png,1,m,Tue Dec 02 2025 13:57:43 GMT-0600 (Central Standard Time),679241.400000006,CFD-WF-017-016-HC.jpg,1000,solid,O,m,1427,12,1,68515.10000000894,610726.299999997,7714,ATS,A,24
1,test,2,C,haborder.png,1,m,Tue Dec 02 2025 13:57:43 GMT-0600 (Central Standard Time),692583.900000006,CFD-WM-004-005-HC.jpg,1500,solid,O,m,1243,11,1,2764.5,689819.400000006,7714,ATS,A,1
2,test,2,C,haborder.png,1,m,Tue Dec 02 2025 13:57:43 GMT-0600 (Central Standard Time),694616.900000006,CFD-WM-004-005-HC.jpg,1000,solid,O,m,1000,12,1,4797.5,689819.400000006,7714,ATS,A,2
2,test,2,C,mfborder.png,0,m,Tue Dec 02 2025 13:57:43 GMT-0600 (Central Standard Time),697132.299999997,CFD-BM-017-052-HC.jpg,1000,dash,O,z,1495,4,1,7312.899999991059,689819.400000006,7714,ATS,A,3
2,test,2,C,haborder.png,0,z,Tue Dec 02 2025 13:57:43 GMT-0600 (Central Standard Time),700064.900000006,CFD-BF-023-013-A.jpg,1400,solid,O,None,1516,7,1,10245.5,689819.400000006,7714,ATS,A,4
2,test,2,C,mfborder.png,0,z,Tue Dec 02 2025 13:57:43 GMT-0600 (Central Standard Time),703096.799999997,CFD-BF-028-020-HC.jpg,1500,dash,O,None,1516,3,1,13277.39999999106,689819.400000006,7714,ATS,A,5
3,test,2,C,mfborder.png,1,m,Tue Dec 02 2025 13:57:43 GMT-0600 (Central Standard Time),706478.900000006,CFD-BM-005-010-A.jpg,2000,dash,O,m,1351,5,1,16659.5,689819.400000006,7714,ATS,A,6
4,test,2,C,mfborder.png,1,m,Tue Dec 02 2025 13:57:43 GMT-0600 (Central Standard Time),708746.6000000089,CFD-WM-013-015-A.jpg,1200,dash,O,m,1048,6,1,18927.20000000298,689819.400000006,7714,ATS,A,7
5,test,2,C,haborder.png,1,z,Tue Dec 02 2025 13:57:43 GMT-0600 (Central Standard Time),711576.6000000089,CFD-WF-003-014-A.jpg,1700,solid,O,z,1099,9,1,21757.20000000298,689819.400000006,7714,ATS,A,8
5,test,2,C,mfborder.png,0,m,Tue Dec 02 2025 13:57:43 GMT-0600 (Central Standard Time),714092.799999997,CFD-BM-017-052-HC.jpg,1000,dash,O,z,1493,4,1,24273.39999999106,689819.400000006,7714,ATS,A,9
6,test,2,C,haborder.png,1,m,Tue Dec 02 2025 13:57:43 GMT-0600 (Central Standard Time),716593.299999997,CFD-WM-004-005-HC.jpg,1500,solid,O,m,976,11,1,26773.89999999106,689819.400000006,7714,ATS,A,10
6,test,2,C,mfborder.png,0,z,Tue Dec 02 2025 13:57:43 GMT-0600 (Central Standard Time),719810.5,CFD-WF-017-016-HC.jpg,1700,dash,O,None,1501,1,1,29991.09999999404,689819.400000006,7714,ATS,A,11
7,test,2,C,haborder.png,1,m,Tue Dec 02 2025 13:57:43 GMT-0600 (Central Standard Time),722474.400000006,CFD-BM-029-026-HC.jpg,1600,solid,O,m,1049,10,1,32655.0,689819.400000006,7714,ATS,A,12
7,test,2,C,mfborder.png,0,m,Tue Dec 02 2025 13:57:43 GMT-0600 (Central Standard Time),725206.700000003,CFD-WM-013-015-A.jpg,1200,dash,O,None,1516,6,1,35387.29999999702,689819.400000006,7714,ATS,A,13
8,test,2,C,haborder.png,1,m,Tue Dec 02 2025 13:57:43 GMT-0600 (Central Standard Time),728108.299999997,CFD-BM-029-026-HC.jpg,1600,solid,O,m,1273,10,1,38288.89999999106,689819.400000006,7714,ATS,A,14
9,test,2,C,haborder.png,1,z,Tue Dec 02 2025 13:57:43 GMT-0600 (Central Standard Time),730906.400000006,CFD-BF-023-013-A.jpg,1400,solid,O,z,1372,7,1,41087.0,689819.400000006,7714,ATS,A,15
9,test,2,C,mfborder.png,0,z,Tue Dec 02 2025 13:57:43 GMT-0600 (Central Standard Time),734037.0,CFD-WF-019-015-A.jpg,1600,dash,O,None,1515,2,1,44217.59999999404,689819.400000006,7714,ATS,A,16
9,test,2,C,mfborder.png,0,m,Tue Dec 02 2025 13:57:43 GMT-0600 (Central Standard Time),737586.1000000089,CFD-BM-005-010-A.jpg,2000,dash,O,None,1516,5,1,47766.70000000298,689819.400000006,7714,ATS,A,17
10,test,2,C,mfborder.png,1,z,Tue Dec 02 2025 13:57:43 GMT-0600 (Central Standard Time),740701.400000006,CFD-WF-017-016-HC.jpg,1700,dash,O,z,1393,1,1,50882.0,689819.400000006,7714,ATS,A,18
11,test,2,C,mfborder.png,1,z,Tue Dec 02 2025 13:57:43 GMT-0600 (Central Standard Time),743533.6000000089,CFD-BF-028-020-HC.jpg,1500,dash,O,z,1311,3,1,53714.20000000298,689819.400000006,7714,ATS,A,19
11,test,2,C,haborder.png,0,z,Tue Dec 02 2025 13:57:43 GMT-0600 (Central Standard Time),746967.700000003,CFD-BF-039-039-A.jpg,1900,solid,O,None,1501,8,1,57148.29999999702,689819.400000006,7714,ATS,A,20
12,test,2,C,haborder.png,1,m,Tue Dec 02 2025 13:57:43 GMT-0600 (Central Standard Time),748899.400000006,CFD-WM-004-005-HC.jpg,1000,solid,O,m,905,12,1,59080.0,689819.400000006,7714,ATS,A,21
13,test,2,C,mfborder.png,1,z,Tue Dec 02 2025 13:57:43 GMT-0600 (Central Standard Time),751848.5,CFD-WF-019-015-A.jpg,1600,dash,O,z,1326,2,1,62029.09999999404,689819.400000006,7714,ATS,A,22
14,test,2,C,haborder.png,1,z,Tue Dec 02 2025 13:57:43 GMT-0600 (Central Standard Time),754932.0,CFD-BF-039-039-A.jpg,1900,solid,O,z,1163,8,1,65112.59999999404,689819.400000006,7714,ATS,A,23
15,test,2,C,haborder.png,1,z,Tue Dec 02 2025 13:57:43 GMT-0600 (Central Standard Time),757629.6000000089,CFD-WF-003-014-A.jpg,1700,solid,O,z,969,9,1,67810.20000000298,689819.400000006,7714,ATS,A,24
1,test,3,C,mfborder.png,1,m,Tue Dec 02 2025 13:57:43 GMT-0600 (Central Standard Time),769825.799999997,CFD-WM-006-013-HC.jpg,1000,dash,O,m,1056,4,1,2081.3999999910593,767744.400000006,7714,ATS,A,1
1,test,3,C,haborder.png,0,m,Tue Dec 02 2025 13:57:43 GMT-0600 (Central Standard Time),772542.0,CFD-WF-002-008-HC.jpg,1500,solid,O,z,1177,11,1,4797.5999999940395,767744.400000006,7714,ATS,A,2
1,test,3,C,haborder.png,0,m,Tue Dec 02 2025 13:57:43 GMT-0600 (Central Standard Time),775658.200000003,CFD-BF-028-020-HC.jpg,1600,solid,O,z,1485,10,1,7913.79999999702,767744.400000006,7714,ATS,A,3
2,test,3,C,haborder.png,1,z,Tue Dec 02 2025 13:57:43 GMT-0600 (Central Standard Time),778475.0,CFD-BM-010-019-A.jpg,1700,solid,O,z,1099,9,1,10730.59999999404,767744.400000006,7714,ATS,A,4
3,test,3,C,mfborder.png,1,z,Tue Dec 02 2025 13:57:43 GMT-0600 (Central Standard Time),781455.400000006,CFD-BF-023-013-A.jpg,1600,dash,O,z,1365,2,1,13711.0,767744.400000006,7714,ATS,A,5
4,test,3,C,mfborder.png,1,m,Tue Dec 02 2025 13:57:43 GMT-0600 (Central Standard Time),784559.299999997,CFD-WM-019-013-A.jpg,2000,dash,O,m,1072,5,1,16814.89999999106,767744.400000006,7714,ATS,A,6
4,test,3,C,haborder.png,0,z,Tue Dec 02 2025 13:57:43 GMT-0600 (Central Standard Time),787987.1000000089,CFD-BM-005-010-A.jpg,1900,solid,O,None,1516,8,1,20242.70000000298,767744.400000006,7714,ATS,A,7
4,test,3,C,haborder.png,0,m,Tue Dec 02 2025 13:57:43 GMT-0600 (Central Standard Time),790504.799999997,CFD-WF-017-016-HC.jpg,1000,solid,O,None,1501,12,1,22760.39999999106,767744.400000006,7714,ATS,A,8
5,test,3,C,haborder.png,1,m,Tue Dec 02 2025 13:57:43 GMT-0600 (Central Standard Time),793019.900000006,CFD-BF-028-020-HC.jpg,1600,solid,O,m,900,10,1,25275.5,767744.400000006,7714,ATS,A,9
5,test,3,C,mfborder.png,0,m,Tue Dec 02 2025 13:57:43 GMT-0600 (Central Standard Time),795233.900000006,CFD-WM-006-013-HC.jpg,1000,dash,O,z,1196,4,1,27489.5,767744.400000006,7714,ATS,A,10
6,test,3,C,mfborder.png,1,z,Tue Dec 02 2025 13:57:43 GMT-0600 (Central Standard Time),798382.700000003,CFD-BF-010-005-HC.jpg,1700,dash,O,z,1417,1,1,30638.29999999702,767744.400000006,7714,ATS,A,11
7,test,3,C,mfborder.png,1,m,Tue Dec 02 2025 13:57:43 GMT-0600 (Central Standard Time),801666.299999997,CFD-WM-019-013-A.jpg,2000,dash,O,m,1258,5,1,33921.89999999106,767744.400000006,7714,ATS,A,12
8,test,3,C,mfborder.png,1,m,Tue Dec 02 2025 13:57:43 GMT-0600 (Central Standard Time),803930.799999997,CFD-BM-029-026-HC.jpg,1200,dash,O,m,1038,6,1,36186.39999999106,767744.400000006,7714,ATS,A,13
9,test,3,C,mfborder.png,1,m,Tue Dec 02 2025 13:57:43 GMT-0600 (Central Standard Time),806464.200000003,CFD-BM-029-026-HC.jpg,1200,dash,O,m,1309,6,1,38719.79999999702,767744.400000006,7714,ATS,A,14
10,test,3,C,mfborder.png,1,z,Tue Dec 02 2025 13:57:43 GMT-0600 (Central Standard Time),809415.1000000089,CFD-WF-003-014-A.jpg,1500,dash,O,z,1417,3,1,41670.70000000298,767744.400000006,7714,ATS,A,15
11,test,3,C,haborder.png,1,m,Tue Dec 02 2025 13:57:43 GMT-0600 (Central Standard Time),811529.6000000089,CFD-WF-017-016-HC.jpg,1000,solid,O,m,1074,12,1,43785.20000000298,767744.400000006,7714,ATS,A,16
12,test,3,C,mfborder.png,1,z,Tue Dec 02 2025 13:57:43 GMT-0600 (Central Standard Time),814461.1000000089,CFD-BF-023-013-A.jpg,1600,dash,O,z,1309,2,1,46716.70000000298,767744.400000006,7714,ATS,A,17
12,test,3,C,haborder.png,0,z,Tue Dec 02 2025 13:57:43 GMT-0600 (Central Standard Time),817162.400000006,CFD-WM-013-015-A.jpg,1400,solid,O,m,1265,7,1,49418.0,767744.400000006,7714,ATS,A,18
12,test,3,C,haborder.png,0,m,Tue Dec 02 2025 13:57:43 GMT-0600 (Central Standard Time),820209.299999997,CFD-WF-002-008-HC.jpg,1500,solid,O,None,1515,11,1,52464.89999999106,767744.400000006,7714,ATS,A,19
13,test,3,C,haborder.png,1,z,Tue Dec 02 2025 13:57:43 GMT-0600 (Central Standard Time),823078.700000003,CFD-BM-005-010-A.jpg,1900,solid,O,z,941,8,1,55334.29999999702,767744.400000006,7714,ATS,A,20
14,test,3,C,haborder.png,1,z,Tue Dec 02 2025 13:57:43 GMT-0600 (Central Standard Time),825857.6000000089,CFD-BM-010-019-A.jpg,1700,solid,O,z,1051,9,1,58113.20000000298,767744.400000006,7714,ATS,A,21
15,test,3,C,haborder.png,1,z,Tue Dec 02 2025 13:57:43 GMT-0600 (Central Standard Time),828408.6000000089,CFD-WM-013-015-A.jpg,1400,solid,O,z,1126,7,1,60664.20000000298,767744.400000006,7714,ATS,A,22
16,test,3,C,mfborder.png,1,z,Tue Dec 02 2025 13:57:43 GMT-0600 (Central Standard Time),830906.400000006,CFD-WF-003-014-A.jpg,1500,dash,O,z,972,3,1,63162.0,767744.400000006,7714,ATS,A,23
16,test,3,C,mfborder.png,0,z,Tue Dec 02 2025 13:57:43 GMT-0600 (Central Standard Time),834123.0,CFD-BF-010-005-HC.jpg,1700,dash,O,None,1501,1,1,66378.59999999404,767744.400000006,7714,ATS,A,24
1,test,4,C,mfborder.png,1,z,Tue Dec 02 2025 13:57:43 GMT-0600 (Central Standard Time),846068.1000000089,CFD-BF-028-020-HC.jpg,1500,dash,O,z,1336,3,1,2865.800000011921,843202.299999997,7714,ATS,A,1
2,test,4,C,haborder.png,1,m,Tue Dec 02 2025 13:57:43 GMT-0600 (Central Standard Time),848850.5,CFD-WM-004-005-HC.jpg,1500,solid,O,m,1263,11,1,5648.20000000298,843202.299999997,7714,ATS,A,2
2,test,4,C,mfborder.png,0,z,Tue Dec 02 2025 13:57:43 GMT-0600 (Central Standard Time),852084.400000006,CFD-WF-017-016-HC.jpg,1700,dash,O,None,1516,1,1,8882.10000000894,843202.299999997,7714,ATS,A,3
2,test,4,C,mfborder.png,0,m,Tue Dec 02 2025 13:57:43 GMT-0600 (Central Standard Time),854332.299999997,CFD-BM-017-052-HC.jpg,1000,dash,O,z,1220,4,1,11130.0,843202.299999997,7714,ATS,A,4
3,test,4,C,mfborder.png,1,m,Tue Dec 02 2025 13:57:43 GMT-0600 (Central Standard Time),856765.200000003,CFD-WM-013-015-A.jpg,1200,dash,O,m,1203,6,1,13562.90000000596,843202.299999997,7714,ATS,A,5
4,test,4,C,haborder.png,1,z,Tue Dec 02 2025 13:57:43 GMT-0600 (Central Standard Time),859513.900000006,CFD-BF-023-013-A.jpg,1400,solid,O,z,1315,7,1,16311.60000000894,843202.299999997,7714,ATS,A,6
5,test,4,C,haborder.png,1,z,Tue Dec 02 2025 13:57:43 GMT-0600 (Central Standard Time),862514.400000006,CFD-BF-039-039-A.jpg,1900,solid,O,z,1074,8,1,19312.10000000894,843202.299999997,7714,ATS,A,7
6,test,4,C,mfborder.png,1,z,Tue Dec 02 2025 13:57:43 GMT-0600 (Central Standard Time),865395.6000000089,CFD-BF-028-020-HC.jpg,1500,dash,O,z,1363,3,1,22193.30000001192,843202.299999997,7714,ATS,A,8
6,test,4,C,mfborder.png,0,m,Tue Dec 02 2025 13:57:43 GMT-0600 (Central Standard Time),868928.200000003,CFD-BM-005-010-A.jpg,2000,dash,O,None,1516,5,1,25725.90000000596,843202.299999997,7714,ATS,A,9
7,test,4,C,haborder.png,1,m,Tue Dec 02 2025 13:57:43 GMT-0600 (Central Standard Time),871160.6000000089,CFD-WM-004-005-HC.jpg,1000,solid,O,m,1209,12,1,27958.30000001192,843202.299999997,7714,ATS,A,10
7,test,4,C,mfborder.png,0,m,Tue Dec 02 2025 13:57:43 GMT-0600 (Central Standard Time),873859.700000003,CFD-WM-013-015-A.jpg,1200,dash,O,z,1469,6,1,30657.40000000596,843202.299999997,7714,ATS,A,11
8,test,4,C,haborder.png,1,m,Tue Dec 02 2025 13:57:43 GMT-0600 (Central Standard Time),876741.6000000089,CFD-BM-029-026-HC.jpg,1600,solid,O,m,1260,10,1,33539.30000001192,843202.299999997,7714,ATS,A,12
9,test,4,C,mfborder.png,1,z,Tue Dec 02 2025 13:57:43 GMT-0600 (Central Standard Time),879724.299999997,CFD-WF-019-015-A.jpg,1600,dash,O,z,1353,2,1,36522.0,843202.299999997,7714,ATS,A,13
9,test,4,C,haborder.png,0,z,Tue Dec 02 2025 13:57:43 GMT-0600 (Central Standard Time),882658.299999997,CFD-BF-023-013-A.jpg,1400,solid,O,None,1517,7,1,39456.0,843202.299999997,7714,ATS,A,14
10,test,4,C,haborder.png,1,z,Tue Dec 02 2025 13:57:43 GMT-0600 (Central Standard Time),885239.299999997,CFD-WF-003-014-A.jpg,1700,solid,O,z,849,9,1,42037.0,843202.299999997,7714,ATS,A,15
10,test,4,C,haborder.png,0,m,Tue Dec 02 2025 13:57:43 GMT-0600 (Central Standard Time),888071.0,CFD-BM-029-026-HC.jpg,1600,solid,O,z,1192,10,1,44868.70000000298,843202.299999997,7714,ATS,A,16
10,test,4,C,mfborder.png,0,m,Tue Dec 02 2025 13:57:43 GMT-0600 (Central Standard Time),890237.5,CFD-BM-017-052-HC.jpg,1000,dash,O,z,1146,4,1,47035.20000000298,843202.299999997,7714,ATS,A,17
11,test,4,C,haborder.png,1,m,Tue Dec 02 2025 13:57:43 GMT-0600 (Central Standard Time),892237.200000003,CFD-WM-004-005-HC.jpg,1000,solid,O,m,980,12,1,49034.90000000596,843202.299999997,7714,ATS,A,18
11,test,4,C,haborder.png,0,z,Tue Dec 02 2025 13:57:43 GMT-0600 (Central Standard Time),895453.700000003,CFD-WF-003-014-A.jpg,1700,solid,O,None,1501,9,1,52251.40000000596,843202.299999997,7714,ATS,A,19
11,test,4,C,mfborder.png,0,m,Tue Dec 02 2025 13:57:43 GMT-0600 (Central Standard Time),898983.299999997,CFD-BM-005-010-A.jpg,2000,dash,O,None,1513,5,1,55781.0,843202.299999997,7714,ATS,A,20
12,test,4,C,mfborder.png,1,z,Tue Dec 02 2025 13:57:43 GMT-0600 (Central Standard Time),901916.400000006,CFD-WF-019-015-A.jpg,1600,dash,O,z,1307,2,1,58714.10000000894,843202.299999997,7714,ATS,A,21
12,test,4,C,haborder.png,0,z,Tue Dec 02 2025 13:57:43 GMT-0600 (Central Standard Time),905354.799999997,CFD-BF-039-039-A.jpg,1900,solid,O,None,1522,8,1,62152.5,843202.299999997,7714,ATS,A,22
13,test,4,C,haborder.png,1,m,Tue Dec 02 2025 13:57:43 GMT-0600 (Central Standard Time),907882.299999997,CFD-WM-004-005-HC.jpg,1500,solid,O,m,1016,11,1,64680.0,843202.299999997,7714,ATS,A,23
14,test,4,C,mfborder.png,1,z,Tue Dec 02 2025 13:57:43 GMT-0600 (Central Standard Time),910963.799999997,CFD-WF-017-016-HC.jpg,1700,dash,O,z,1362,1,1,67761.5,843202.299999997,7714,ATS,A,24
