Number,acc_sum,block,block_c,block_cond,con_img,correct,correct_response,datetime,endtime,jitter,project,response,response_time,row_sel,session_number,start_end,starttime,subject_id,task,task_vers,trial
1,0,prac,1,A,circle.png,0,z,Tue May 05 2026 09:09:44 GMT-0500 (Central Daylight Time),70723.60000002384,1000,O,None,1515,1,1,3293.2000000476837,67430.39999997616,7799,NTS,C,1
9,1,prac,1,A,circle.png,1,m,Tue May 05 2026 09:09:44 GMT-0500 (Central Daylight Time),74406.80000007153,1500,O,m,1390,8,1,3678.7000000476837,70728.10000002384,7799,NTS,C,2
2,2,prac,1,A,circle.png,1,z,Tue May 05 2026 09:09:44 GMT-0500 (Central Daylight Time),77771.70000004768,2000,O,z,576,2,1,3360.600000023842,74411.10000002384,7799,NTS,C,3
4,3,prac,1,A,circle.png,1,z,Tue May 05 2026 09:09:44 GMT-0500 (Central Daylight Time),81120.5,1400,O,z,1162,4,1,3343.600000023842,77776.89999997616,7799,NTS,C,4
9,4,prac,1,A,circle.png,1,m,Tue May 05 2026 09:09:44 GMT-0500 (Central Daylight Time),83970.10000002384,1500,O,m,568,8,1,2845.100000023842,81125.0,7799,NTS,C,5
8,5,prac,1,A,circle.png,1,m,Tue May 05 2026 09:09:44 GMT-0500 (Central Daylight Time),86936.39999997616,1600,O,m,588,7,1,2961.7999999523163,83974.60000002384,7799,NTS,C,6
8,6,prac,1,A,circle.png,1,m,Tue May 05 2026 09:09:44 GMT-0500 (Central Daylight Time),89817.80000007153,1600,O,m,509,7,1,2876.7000000476837,86941.10000002384,7799,NTS,C,7
7,7,prac,1,A,circle.png,1,m,Tue May 05 2026 09:09:44 GMT-0500 (Central Daylight Time),93233.5,1700,O,m,929,6,1,3411.1999999284744,89822.30000007153,7799,NTS,C,8
1,8,prac,1,A,circle.png,1,z,Tue May 05 2026 09:09:44 GMT-0500 (Central Daylight Time),95649.30000007153,1000,O,z,622,1,1,2412.0,93237.30000007153,7799,NTS,C,9
2,9,prac,1,A,circle.png,1,z,Tue May 05 2026 09:09:44 GMT-0500 (Central Daylight Time),99198.89999997616,2000,O,z,766,2,1,3545.2999999523163,95653.60000002384,7799,NTS,C,10
3,10,prac,1,A,circle.png,1,z,Tue May 05 2026 09:09:44 GMT-0500 (Central Daylight Time),101664.30000007153,1200,O,z,480,3,1,2461.0,99203.30000007153,7799,NTS,C,11
6,11,prac,1,A,circle.png,1,m,Tue May 05 2026 09:09:44 GMT-0500 (Central Daylight Time),104895.5,1900,O,m,538,5,1,3227.100000023842,101668.39999997616,7799,NTS,C,12
4,1,prac,1,B,triangle.png,1,m,Tue May 05 2026 09:09:44 GMT-0500 (Central Daylight Time),131070.60000002384,1500,O,m,732,4,1,3011.7999999523163,128058.80000007153,7799,NTS,C,1
1,2,prac,1,B,triangle.png,1,z,Tue May 05 2026 09:09:44 GMT-0500 (Central Daylight Time),134420.80000007153,1900,O,z,659,1,1,3345.100000023842,131075.70000004768,7799,NTS,C,2
2,3,prac,1,B,triangle.png,1,m,Tue May 05 2026 09:09:44 GMT-0500 (Central Daylight Time),137635.5,1700,O,m,727,2,1,3208.2999999523163,134427.20000004768,7799,NTS,C,3
7,3,prac,1,B,triangle.png,0,z,Tue May 05 2026 09:09:44 GMT-0500 (Central Daylight Time),141034.70000004768,2000,O,m,603,6,1,3395.2000000476837,137639.5,7799,NTS,C,4
3,4,prac,1,B,triangle.png,1,z,Tue May 05 2026 09:09:44 GMT-0500 (Central Daylight Time),144116.0,1600,O,z,683,3,1,3077.399999976158,141038.60000002384,7799,NTS,C,5
9,5,prac,1,B,triangle.png,1,z,Tue May 05 2026 09:09:44 GMT-0500 (Central Daylight Time),147116.5,1400,O,z,810,8,1,2996.5,144120.0,7799,NTS,C,6
9,6,prac,1,B,triangle.png,1,z,Tue May 05 2026 09:09:44 GMT-0500 (Central Daylight Time),150081.60000002384,1400,O,z,779,8,1,2958.0,147123.60000002384,7799,NTS,C,7
8,7,prac,1,B,triangle.png,1,m,Tue May 05 2026 09:09:44 GMT-0500 (Central Daylight Time),152632.30000007153,1200,O,m,570,7,1,2547.2000000476837,150085.10000002384,7799,NTS,C,8
4,7,prac,1,B,triangle.png,0,m,Tue May 05 2026 09:09:44 GMT-0500 (Central Daylight Time),155880.5,1500,O,z,964,4,1,3237.2999999523163,152643.20000004768,7799,NTS,C,9
2,8,prac,1,B,triangle.png,1,m,Tue May 05 2026 09:09:44 GMT-0500 (Central Daylight Time),158928.70000004768,1700,O,m,579,2,1,3044.3000000715256,155884.39999997616,7799,NTS,C,10
7,9,prac,1,B,triangle.png,1,z,Tue May 05 2026 09:09:44 GMT-0500 (Central Daylight Time),162494.30000007153,2000,O,z,774,6,1,3561.600000023842,158932.70000004768,7799,NTS,C,11
6,10,prac,1,B,triangle.png,1,m,Tue May 05 2026 09:09:44 GMT-0500 (Central Daylight Time),165144.60000002384,1000,O,m,879,5,1,2646.5,162498.10000002384,7799,NTS,C,12
3,1,test,1,A,circle.png,1,z,Tue May 05 2026 09:09:44 GMT-0500 (Central Daylight Time),211511.89999997616,1200,O,z,1029,3,1,2240.6999999284744,209271.20000004768,7799,NTS,C,1
8,2,test,1,A,circle.png,1,m,Tue May 05 2026 09:09:44 GMT-0500 (Central Daylight Time),213832.89999997616,1600,O,m,703,7,1,2318.1999999284744,211514.70000004768,7799,NTS,C,2
6,3,test,1,A,circle.png,1,m,Tue May 05 2026 09:09:44 GMT-0500 (Central Daylight Time),216844.10000002384,1900,O,m,1094,5,1,3008.600000023842,213835.5,7799,NTS,C,3
6,4,test,1,A,circle.png,1,m,Tue May 05 2026 09:09:44 GMT-0500 (Central Daylight Time),219459.89999997616,1900,O,m,688,5,1,2613.399999976158,216846.5,7799,NTS,C,4
3,5,test,1,A,circle.png,1,z,Tue May 05 2026 09:09:44 GMT-0500 (Central Daylight Time),221192.20000004768,1200,O,z,500,3,1,1728.8000000715256,219463.39999997616,7799,NTS,C,5
9,6,test,1,A,circle.png,1,m,Tue May 05 2026 09:09:44 GMT-0500 (Central Daylight Time),223124.39999997616,1500,O,m,409,8,1,1929.2999999523163,221195.10000002384,7799,NTS,C,6
8,7,test,1,A,circle.png,1,m,Tue May 05 2026 09:09:44 GMT-0500 (Central Daylight Time),225158.39999997616,1600,O,m,401,7,1,2031.0,223127.39999997616,7799,NTS,C,7
6,8,test,1,A,circle.png,1,m,Tue May 05 2026 09:09:44 GMT-0500 (Central Daylight Time),227573.80000007153,1900,O,m,484,5,1,2412.9000000953674,225160.89999997616,7799,NTS,C,8
9,9,test,1,A,circle.png,1,m,Tue May 05 2026 09:09:44 GMT-0500 (Central Daylight Time),229624.20000004768,1500,O,m,518,8,1,2047.6000000238419,227576.60000002384,7799,NTS,C,9
4,10,test,1,A,circle.png,1,z,Tue May 05 2026 09:09:44 GMT-0500 (Central Daylight Time),231721.70000004768,1400,O,z,670,4,1,2094.100000023842,229627.60000002384,7799,NTS,C,10
2,11,test,1,A,circle.png,1,z,Tue May 05 2026 09:09:44 GMT-0500 (Central Daylight Time),234287.80000007153,2000,O,z,541,2,1,2563.3000000715256,231724.5,7799,NTS,C,11
9,12,test,1,A,circle.png,1,m,Tue May 05 2026 09:09:44 GMT-0500 (Central Daylight Time),236337.30000007153,1500,O,m,523,8,1,2046.9000000953674,234290.39999997616,7799,NTS,C,12
6,13,test,1,A,circle.png,1,m,Tue May 05 2026 09:09:44 GMT-0500 (Central Daylight Time),238869.60000002384,1900,O,m,609,5,1,2529.7999999523163,236339.80000007153,7799,NTS,C,13
9,14,test,1,A,circle.png,1,m,Tue May 05 2026 09:09:44 GMT-0500 (Central Daylight Time),240818.80000007153,1500,O,m,427,8,1,1945.8000000715256,238873.0,7799,NTS,C,14
2,15,test,1,A,circle.png,1,z,Tue May 05 2026 09:09:44 GMT-0500 (Central Daylight Time),243402.39999997616,2000,O,z,554,2,1,2581.0,240821.39999997616,7799,NTS,C,15
7,16,test,1,A,circle.png,1,m,Tue May 05 2026 09:09:44 GMT-0500 (Central Daylight Time),245701.80000007153,1700,O,m,576,6,1,2296.9000000953674,243404.89999997616,7799,NTS,C,16
3,17,test,1,A,circle.png,1,z,Tue May 05 2026 09:09:44 GMT-0500 (Central Daylight Time),247433.5,1200,O,z,513,3,1,1727.6999999284744,245705.80000007153,7799,NTS,C,17
4,17,test,1,A,circle.png,0,z,Tue May 05 2026 09:09:44 GMT-0500 (Central Daylight Time),249183.70000004768,1400,O,m,317,4,1,1746.5,247437.20000004768,7799,NTS,C,18
1,18,test,1,A,circle.png,1,z,Tue May 05 2026 09:09:44 GMT-0500 (Central Daylight Time),251166.20000004768,1000,O,z,950,1,1,1979.6000000238419,249186.60000002384,7799,NTS,C,19
1,19,test,1,A,circle.png,1,z,Tue May 05 2026 09:09:44 GMT-0500 (Central Daylight Time),252717.0,1000,O,z,528,1,1,1548.1000000238419,251168.89999997616,7799,NTS,C,20
8,20,test,1,A,circle.png,1,m,Tue May 05 2026 09:09:44 GMT-0500 (Central Daylight Time),254831.5,1600,O,m,488,7,1,2111.2999999523163,252720.20000004768,7799,NTS,C,21
2,21,test,1,A,circle.png,1,z,Tue May 05 2026 09:09:44 GMT-0500 (Central Daylight Time),257364.10000002384,2000,O,z,511,2,1,2530.100000023842,254834.0,7799,NTS,C,22
4,22,test,1,A,circle.png,1,z,Tue May 05 2026 09:09:44 GMT-0500 (Central Daylight Time),259896.80000007153,1400,O,z,1116,4,1,2530.100000023842,257366.70000004768,7799,NTS,C,23
7,23,test,1,A,circle.png,1,m,Tue May 05 2026 09:09:44 GMT-0500 (Central Daylight Time),262313.5,1700,O,m,690,6,1,2414.1999999284744,259899.30000007153,7799,NTS,C,24
4,1,test,1,B,triangle.png,1,m,Tue May 05 2026 09:09:44 GMT-0500 (Central Daylight Time),280157.60000002384,1500,O,m,1360,4,1,2880.7000000476837,277276.89999997616,7799,NTS,C,1
6,2,test,1,B,triangle.png,1,m,Tue May 05 2026 09:09:44 GMT-0500 (Central Daylight Time),281739.8000000715,1000,O,m,553,5,1,1579.6000000238419,280160.2000000477,7799,NTS,C,2
1,3,test,1,B,triangle.png,1,z,Tue May 05 2026 09:09:44 GMT-0500 (Central Daylight Time),283588.8000000715,1400,O,z,417,9,1,1845.1000000238419,281743.7000000477,7799,NTS,C,3
4,4,test,1,B,triangle.png,1,m,Tue May 05 2026 09:09:44 GMT-0500 (Central Daylight Time),286105.3000000715,1500,O,m,989,4,1,2513.8000000715256,283591.5,7799,NTS,C,4
8,5,test,1,B,triangle.png,1,m,Tue May 05 2026 09:09:44 GMT-0500 (Central Daylight Time),287820.5,1200,O,m,485,7,1,1712.3999999761581,286108.10000002384,7799,NTS,C,5
3,6,test,1,B,triangle.png,1,z,Tue May 05 2026 09:09:44 GMT-0500 (Central Daylight Time),289987.2000000477,1600,O,z,545,3,1,2164.100000023842,287823.10000002384,7799,NTS,C,6
8,7,test,1,B,triangle.png,1,m,Tue May 05 2026 09:09:44 GMT-0500 (Central Daylight Time),291686.0,1200,O,m,467,7,1,1696.2999999523163,289989.7000000477,7799,NTS,C,7
2,8,test,1,B,triangle.png,1,m,Tue May 05 2026 09:09:44 GMT-0500 (Central Daylight Time),293668.8000000715,1200,O,m,752,10,1,1980.1000000238419,291688.7000000477,7799,NTS,C,8
9,8,test,1,B,triangle.png,0,z,Tue May 05 2026 09:09:44 GMT-0500 (Central Daylight Time),296134.89999997616,1900,O,m,549,16,1,2462.899999976158,293672.0,7799,NTS,C,9
6,9,test,1,B,triangle.png,1,m,Tue May 05 2026 09:09:44 GMT-0500 (Central Daylight Time),297934.60000002384,1000,O,m,774,5,1,1797.0,296137.60000002384,7799,NTS,C,10
1,10,test,1,B,triangle.png,1,z,Tue May 05 2026 09:09:44 GMT-0500 (Central Daylight Time),300383.39999997616,1900,O,z,524,1,1,2446.2999999523163,297937.10000002384,7799,NTS,C,11
6,11,test,1,B,triangle.png,1,m,Tue May 05 2026 09:09:44 GMT-0500 (Central Daylight Time),302466.60000002384,1500,O,m,555,13,1,2080.5,300386.10000002384,7799,NTS,C,12
7,11,test,1,B,triangle.png,0,z,Tue May 05 2026 09:09:44 GMT-0500 (Central Daylight Time),304516.0,1600,O,m,428,14,1,2046.6000000238419,302469.39999997616,7799,NTS,C,13
7,12,test,1,B,triangle.png,1,z,Tue May 05 2026 09:09:44 GMT-0500 (Central Daylight Time),307398.60000002384,2000,O,z,859,6,1,2880.0,304518.60000002384,7799,NTS,C,14
2,13,test,1,B,triangle.png,1,m,Tue May 05 2026 09:09:44 GMT-0500 (Central Daylight Time),309814.89999997616,1700,O,m,685,2,1,2413.5,307401.39999997616,7799,NTS,C,15
9,14,test,1,B,triangle.png,1,z,Tue May 05 2026 09:09:44 GMT-0500 (Central Daylight Time),312530.7000000477,1900,O,z,789,16,1,2713.0,309817.7000000477,7799,NTS,C,16
7,15,test,1,B,triangle.png,1,z,Tue May 05 2026 09:09:44 GMT-0500 (Central Daylight Time),315144.89999997616,1600,O,z,988,14,1,2610.899999976158,312534.0,7799,NTS,C,17
1,16,test,1,B,triangle.png,1,z,Tue May 05 2026 09:09:44 GMT-0500 (Central Daylight Time),317661.60000002384,1900,O,z,593,1,1,2513.7999999523163,315147.8000000715,7799,NTS,C,18
8,17,test,1,B,triangle.png,1,m,Tue May 05 2026 09:09:44 GMT-0500 (Central Daylight Time),320027.8000000715,1700,O,m,638,15,1,2363.7000000476837,317664.10000002384,7799,NTS,C,19
1,18,test,1,B,triangle.png,1,z,Tue May 05 2026 09:09:44 GMT-0500 (Central Daylight Time),322043.7000000477,1400,O,z,587,9,1,2012.8999999761581,320030.8000000715,7799,NTS,C,20
4,19,test,1,B,triangle.png,1,m,Tue May 05 2026 09:09:44 GMT-0500 (Central Daylight Time),323726.3000000715,1000,O,m,651,12,1,1679.6000000238419,322046.7000000477,7799,NTS,C,21
3,20,test,1,B,triangle.png,1,z,Tue May 05 2026 09:09:44 GMT-0500 (Central Daylight Time),325909.2000000477,1600,O,z,560,3,1,2179.8000000715256,323729.39999997616,7799,NTS,C,22
3,21,test,1,B,triangle.png,1,z,Tue May 05 2026 09:09:44 GMT-0500 (Central Daylight Time),328591.7000000477,2000,O,z,657,11,1,2679.8000000715256,325911.89999997616,7799,NTS,C,23
9,21,test,1,B,triangle.png,0,z,Tue May 05 2026 09:09:44 GMT-0500 (Central Daylight Time),330773.8000000715,1400,O,m,750,8,1,2179.600000023842,328594.2000000477,7799,NTS,C,24
9,0,prac,1,C,circle.png,0,m,Tue May 05 2026 09:09:44 GMT-0500 (Central Daylight Time),384240.7000000477,1900,O,None,1516,8,1,4194.5,380046.2000000477,7799,NTS,C,1
6,1,prac,1,C,circle.png,1,m,Tue May 05 2026 09:09:44 GMT-0500 (Central Daylight Time),388338.3000000715,2000,O,m,1310,5,1,4093.5,384244.8000000715,7799,NTS,C,2
1,2,prac,1,C,circle.png,1,z,Tue May 05 2026 09:09:44 GMT-0500 (Central Daylight Time),392138.10000002384,1700,O,z,1313,1,1,3796.0,388342.10000002384,7799,NTS,C,3
7,3,prac,1,C,triangle.png,1,z,Tue May 05 2026 09:09:44 GMT-0500 (Central Daylight Time),395253.8000000715,1200,O,z,1116,6,1,3112.2000000476837,392141.60000002384,7799,NTS,C,4
7,3,prac,1,C,triangle.png,0,z,Tue May 05 2026 09:09:44 GMT-0500 (Central Daylight Time),398737.39999997616,1200,O,None,1515,6,1,3478.899999976158,395258.5,7799,NTS,C,5
3,4,prac,1,C,triangle.png,1,z,Tue May 05 2026 09:09:44 GMT-0500 (Central Daylight Time),401818.5,1500,O,z,786,3,1,3076.2999999523163,398742.2000000477,7799,NTS,C,6
2,5,prac,1,C,triangle.png,1,m,Tue May 05 2026 09:09:44 GMT-0500 (Central Daylight Time),405350.2000000477,1600,O,m,1139,2,1,3527.3000000715256,401822.89999997616,7799,NTS,C,7
8,5,prac,1,C,triangle.png,0,m,Tue May 05 2026 09:09:44 GMT-0500 (Central Daylight Time),408798.8000000715,1400,O,z,1256,7,1,3445.0,405353.8000000715,7799,NTS,C,8
2,6,prac,1,C,triangle.png,1,m,Tue May 05 2026 09:09:44 GMT-0500 (Central Daylight Time),412481.8000000715,1600,O,m,1284,2,1,3678.8000000715256,408803.0,7799,NTS,C,9
4,6,prac,1,C,circle.png,0,z,Tue May 05 2026 09:09:44 GMT-0500 (Central Daylight Time),415447.89999997616,1000,O,m,1173,4,1,2962.0,412485.89999997616,7799,NTS,C,10
1,7,prac,1,C,circle.png,1,z,Tue May 05 2026 09:09:44 GMT-0500 (Central Daylight Time),418579.2000000477,1700,O,z,633,1,1,3126.899999976158,415452.3000000715,7799,NTS,C,11
8,8,prac,1,C,triangle.png,1,m,Tue May 05 2026 09:09:44 GMT-0500 (Central Daylight Time),421845.89999997616,1400,O,m,1099,7,1,3262.6999999284744,418583.2000000477,7799,NTS,C,12
2,0,prac,2,C,triangle.png,0,m,Tue May 05 2026 09:09:44 GMT-0500 (Central Daylight Time),430025.10000002384,1600,O,None,1517,2,1,3893.7000000476837,426131.39999997616,7799,NTS,C,1
2,0,prac,2,C,triangle.png,0,m,Tue May 05 2026 09:09:44 GMT-0500 (Central Daylight Time),433291.8000000715,1600,O,z,868,2,1,3262.4000000953674,430029.39999997616,7799,NTS,C,2
9,1,prac,2,C,circle.png,1,m,Tue May 05 2026 09:09:44 GMT-0500 (Central Daylight Time),436789.7000000477,1900,O,m,815,8,1,3494.0,433295.7000000477,7799,NTS,C,3
7,1,prac,2,C,triangle.png,0,z,Tue May 05 2026 09:09:44 GMT-0500 (Central Daylight Time),439889.5,1200,O,m,1112,6,1,3095.899999976158,436793.60000002384,7799,NTS,C,4
4,1,prac,2,C,circle.png,0,z,Tue May 05 2026 09:09:44 GMT-0500 (Central Daylight Time),442838.60000002384,1000,O,m,1165,4,1,2944.899999976158,439893.7000000477,7799,NTS,C,5
6,2,prac,2,C,circle.png,1,m,Tue May 05 2026 09:09:44 GMT-0500 (Central Daylight Time),446887.5,2000,O,m,1257,5,1,4044.899999976158,442842.60000002384,7799,NTS,C,6
3,2,prac,2,C,triangle.png,0,z,Tue May 05 2026 09:09:44 GMT-0500 (Central Daylight Time),450119.8000000715,1500,O,m,940,3,1,3227.7000000476837,446892.10000002384,7799,NTS,C,7
1,3,prac,2,C,circle.png,1,z,Tue May 05 2026 09:09:44 GMT-0500 (Central Daylight Time),453535.8000000715,1700,O,z,922,1,1,3412.600000023842,450123.2000000477,7799,NTS,C,8
4,3,prac,2,C,circle.png,0,z,Tue May 05 2026 09:09:44 GMT-0500 (Central Daylight Time),456834.39999997616,1000,O,None,1516,4,1,3294.1999999284744,453540.2000000477,7799,NTS,C,9
8,3,prac,2,C,triangle.png,0,m,Tue May 05 2026 09:09:44 GMT-0500 (Central Daylight Time),460532.5,1400,O,None,1517,7,1,3694.399999976158,456838.10000002384,7799,NTS,C,10
9,4,prac,2,C,circle.png,1,m,Tue May 05 2026 09:09:44 GMT-0500 (Central Daylight Time),463966.0,1900,O,m,758,8,1,3427.5,460538.5,7799,NTS,C,11
3,4,prac,2,C,triangle.png,0,z,Tue May 05 2026 09:09:44 GMT-0500 (Central Daylight Time),467013.7000000477,1500,O,m,750,3,1,3043.600000023842,463970.10000002384,7799,NTS,C,12
3,1,prac,3,C,triangle.png,1,z,Tue May 05 2026 09:09:44 GMT-0500 (Central Daylight Time),475461.60000002384,1500,O,z,850,3,1,3145.100000023842,472316.5,7799,NTS,C,1
7,2,prac,3,C,triangle.png,1,z,Tue May 05 2026 09:09:44 GMT-0500 (Central Daylight Time),478261.5,1200,O,z,824,6,1,2794.6999999284744,475466.8000000715,7799,NTS,C,2
8,3,prac,3,C,triangle.png,1,m,Tue May 05 2026 09:09:44 GMT-0500 (Central Daylight Time),481259.39999997616,1400,O,m,801,7,1,2993.7999999523163,478265.60000002384,7799,NTS,C,3
1,4,prac,3,C,circle.png,1,z,Tue May 05 2026 09:09:44 GMT-0500 (Central Daylight Time),484442.89999997616,1700,O,z,711,1,1,3178.1999999284744,481264.7000000477,7799,NTS,C,4
1,5,prac,3,C,circle.png,1,z,Tue May 05 2026 09:09:44 GMT-0500 (Central Daylight Time),487807.2000000477,1700,O,z,881,1,1,3359.899999976158,484447.3000000715,7799,NTS,C,5
9,6,prac,3,C,circle.png,1,m,Tue May 05 2026 09:09:44 GMT-0500 (Central Daylight Time),491489.5,1900,O,m,987,8,1,3678.6999999284744,487810.8000000715,7799,NTS,C,6
6,7,prac,3,C,circle.png,1,m,Tue May 05 2026 09:09:44 GMT-0500 (Central Daylight Time),495105.10000002384,2000,O,m,829,5,1,3611.2000000476837,491493.89999997616,7799,NTS,C,7
7,7,prac,3,C,triangle.png,0,z,Tue May 05 2026 09:09:44 GMT-0500 (Central Daylight Time),498070.7000000477,1200,O,m,981,6,1,2959.600000023842,495111.10000002384,7799,NTS,C,8
2,7,prac,3,C,triangle.png,0,m,Tue May 05 2026 09:09:44 GMT-0500 (Central Daylight Time),501836.10000002384,1600,O,z,1368,2,1,3761.2999999523163,498074.8000000715,7799,NTS,C,9
2,7,prac,3,C,triangle.png,0,m,Tue May 05 2026 09:09:44 GMT-0500 (Central Daylight Time),505735.39999997616,1600,O,None,1517,2,1,3895.2999999523163,501840.10000002384,7799,NTS,C,10
4,7,prac,3,C,circle.png,0,z,Tue May 05 2026 09:09:44 GMT-0500 (Central Daylight Time),508167.39999997616,1000,O,m,645,4,1,2428.399999976158,505739.0,7799,NTS,C,11
3,7,prac,3,C,triangle.png,0,z,Tue May 05 2026 09:09:44 GMT-0500 (Central Daylight Time),511532.7000000477,1500,O,m,1067,3,1,3361.3000000715256,508171.39999997616,7799,NTS,C,12
6,1,prac,4,C,circle.png,1,m,Tue May 05 2026 09:09:44 GMT-0500 (Central Daylight Time),519063.3000000715,2000,O,m,679,5,1,3459.4000000953674,515603.89999997616,7799,NTS,C,1
4,2,prac,4,C,circle.png,1,z,Tue May 05 2026 09:09:44 GMT-0500 (Central Daylight Time),521630.3000000715,1000,O,z,766,4,1,2563.4000000953674,519066.89999997616,7799,NTS,C,2
1,3,prac,4,C,circle.png,1,z,Tue May 05 2026 09:09:44 GMT-0500 (Central Daylight Time),525129.1000000238,1700,O,z,1003,1,1,3491.899999976158,521637.2000000477,7799,NTS,C,3
2,4,prac,4,C,triangle.png,1,m,Tue May 05 2026 09:09:44 GMT-0500 (Central Daylight Time),528828.0,1600,O,m,1301,2,1,3691.100000023842,525136.8999999762,7799,NTS,C,4
9,5,prac,4,C,circle.png,1,m,Tue May 05 2026 09:09:44 GMT-0500 (Central Daylight Time),532377.3000000715,1900,O,m,878,8,1,3543.8000000715256,528833.5,7799,NTS,C,5
4,6,prac,4,C,circle.png,1,z,Tue May 05 2026 09:09:44 GMT-0500 (Central Daylight Time),534942.2000000477,1000,O,z,781,4,1,2561.100000023842,532381.1000000238,7799,NTS,C,6
8,7,prac,4,C,triangle.png,1,m,Tue May 05 2026 09:09:44 GMT-0500 (Central Daylight Time),538357.7000000477,1400,O,m,1231,7,1,3407.899999976158,534949.8000000715,7799,NTS,C,7
7,8,prac,4,C,triangle.png,1,z,Tue May 05 2026 09:09:44 GMT-0500 (Central Daylight Time),541108.6000000238,1200,O,z,754,6,1,2747.600000023842,538361.0,7799,NTS,C,8
1,9,prac,4,C,circle.png,1,z,Tue May 05 2026 09:09:44 GMT-0500 (Central Daylight Time),544173.1000000238,1700,O,z,566,1,1,3057.7000000476837,541115.3999999762,7799,NTS,C,9
3,9,prac,4,C,triangle.png,0,z,Tue May 05 2026 09:09:44 GMT-0500 (Central Daylight Time),547371.6000000238,1500,O,m,902,3,1,3195.100000023842,544176.5,7799,NTS,C,10
6,10,prac,4,C,circle.png,1,m,Tue May 05 2026 09:09:44 GMT-0500 (Central Daylight Time),550853.3000000715,2000,O,m,683,5,1,3477.8000000715256,547375.5,7799,NTS,C,11
2,11,prac,4,C,triangle.png,1,m,Tue May 05 2026 09:09:44 GMT-0500 (Central Daylight Time),554253.2000000477,1600,O,m,1000,2,1,3396.5,550856.7000000477,7799,NTS,C,12
1,1,test,1,C,triangle.png,1,z,Tue May 05 2026 09:09:44 GMT-0500 (Central Daylight Time),585709.6000000238,1900,O,z,959,9,1,2880.5,582829.1000000238,7799,NTS,C,1
8,2,test,1,C,triangle.png,1,m,Tue May 05 2026 09:09:44 GMT-0500 (Central Daylight Time),588158.8999999762,1600,O,m,825,7,1,2446.5,585712.3999999762,7799,NTS,C,2
8,3,test,1,C,triangle.png,1,m,Tue May 05 2026 09:09:44 GMT-0500 (Central Daylight Time),590408.7000000477,1600,O,m,632,23,1,2247.399999976158,588161.3000000715,7799,NTS,C,3
4,4,test,1,C,circle.png,1,z,Tue May 05 2026 09:09:44 GMT-0500 (Central Daylight Time),592741.8000000715,1400,O,z,912,4,1,2329.7000000476837,590412.1000000238,7799,NTS,C,4
3,5,test,1,C,circle.png,1,z,Tue May 05 2026 09:09:44 GMT-0500 (Central Daylight Time),595273.2000000477,1600,O,z,906,19,1,2528.8000000715256,592744.3999999762,7799,NTS,C,5
8,6,test,1,C,circle.png,1,m,Tue May 05 2026 09:09:44 GMT-0500 (Central Daylight Time),597205.8999999762,1200,O,m,701,15,1,1930.0999999046326,595275.8000000715,7799,NTS,C,6
1,7,test,1,C,circle.png,1,z,Tue May 05 2026 09:09:44 GMT-0500 (Central Daylight Time),598872.8000000715,1000,O,z,649,1,1,1664.4000000953674,597208.3999999762,7799,NTS,C,7
2,7,test,1,C,circle.png,0,z,Tue May 05 2026 09:09:44 GMT-0500 (Central Daylight Time),602038.0,1700,O,m,1443,18,1,3162.6999999284744,598875.3000000715,7799,NTS,C,8
3,8,test,1,C,circle.png,1,z,Tue May 05 2026 09:09:44 GMT-0500 (Central Daylight Time),605119.7000000477,1600,O,z,1466,11,1,3079.100000023842,602040.6000000238,7799,NTS,C,9
1,9,test,1,C,triangle.png,1,z,Tue May 05 2026 09:09:44 GMT-0500 (Central Daylight Time),608235.2000000477,1900,O,z,1194,17,1,3112.399999976158,605122.8000000715,7799,NTS,C,10
9,10,test,1,C,triangle.png,1,z,Tue May 05 2026 09:09:44 GMT-0500 (Central Daylight Time),610685.0,1400,O,z,1027,16,1,2446.399999976158,608238.6000000238,7799,NTS,C,11
6,11,test,1,C,triangle.png,1,m,Tue May 05 2026 09:09:44 GMT-0500 (Central Daylight Time),612783.7000000477,1000,O,m,1073,13,1,2095.899999976158,610687.8000000715,7799,NTS,C,12
4,11,test,1,C,triangle.png,0,m,Tue May 05 2026 09:09:44 GMT-0500 (Central Daylight Time),615132.8999999762,1500,O,z,827,20,1,2346.6999999284744,612786.2000000477,7799,NTS,C,13
2,12,test,1,C,triangle.png,1,m,Tue May 05 2026 09:09:44 GMT-0500 (Central Daylight Time),618150.3999999762,2000,O,m,985,2,1,3014.899999976158,615135.5,7799,NTS,C,14
9,13,test,1,C,circle.png,1,m,Tue May 05 2026 09:09:44 GMT-0500 (Central Daylight Time),620764.5,1500,O,m,1086,24,1,2610.100000023842,618154.3999999762,7799,NTS,C,15
2,14,test,1,C,circle.png,1,z,Tue May 05 2026 09:09:44 GMT-0500 (Central Daylight Time),623447.6000000238,1700,O,z,965,10,1,2680.0,620767.6000000238,7799,NTS,C,16
7,15,test,1,C,circle.png,1,m,Tue May 05 2026 09:09:44 GMT-0500 (Central Daylight Time),626496.0,2000,O,m,1024,14,1,3045.6999999284744,623450.3000000715,7799,NTS,C,17
6,16,test,1,C,circle.png,1,m,Tue May 05 2026 09:09:44 GMT-0500 (Central Daylight Time),629245.2000000477,1900,O,m,825,5,1,2746.5,626498.7000000477,7799,NTS,C,18
7,16,test,1,C,triangle.png,0,z,Tue May 05 2026 09:09:44 GMT-0500 (Central Daylight Time),632477.6000000238,1700,O,None,1517,6,1,3228.7999999523163,629248.8000000715,7799,NTS,C,19
4,17,test,1,C,triangle.png,1,m,Tue May 05 2026 09:09:44 GMT-0500 (Central Daylight Time),635193.8999999762,1500,O,m,1190,12,1,2712.6999999284744,632481.2000000477,7799,NTS,C,20
9,18,test,1,C,circle.png,1,m,Tue May 05 2026 09:09:44 GMT-0500 (Central Daylight Time),637659.6000000238,1500,O,m,937,8,1,2463.0,635196.6000000238,7799,NTS,C,21
3,18,test,1,C,triangle.png,0,z,Tue May 05 2026 09:09:44 GMT-0500 (Central Daylight Time),639825.6000000238,1200,O,m,947,3,1,2163.100000023842,637662.5,7799,NTS,C,22
6,19,test,1,C,circle.png,1,m,Tue May 05 2026 09:09:44 GMT-0500 (Central Daylight Time),642940.8000000715,1900,O,m,1193,21,1,3112.5,639828.3000000715,7799,NTS,C,23
7,20,test,1,C,triangle.png,1,z,Tue May 05 2026 09:09:44 GMT-0500 (Central Daylight Time),645673.8999999762,1700,O,z,1005,22,1,2730.5999999046326,642943.3000000715,7799,NTS,C,24
4,0,test,2,C,triangle.png,0,m,Tue May 05 2026 09:09:44 GMT-0500 (Central Daylight Time),650972.5,1500,O,z,1393,20,1,2913.100000023842,648059.3999999762,7799,NTS,C,1
1,1,test,2,C,circle.png,1,z,Tue May 05 2026 09:09:44 GMT-0500 (Central Daylight Time),652888.6000000238,1000,O,z,899,1,1,1913.1000000238419,650975.5,7799,NTS,C,2
8,2,test,2,C,circle.png,1,m,Tue May 05 2026 09:09:44 GMT-0500 (Central Daylight Time),654737.0,1200,O,m,623,23,1,1845.6999999284744,652891.3000000715,7799,NTS,C,3
9,2,test,2,C,triangle.png,0,z,Tue May 05 2026 09:09:44 GMT-0500 (Central Daylight Time),657069.3000000715,1400,O,m,908,24,1,2329.4000000953674,654739.8999999762,7799,NTS,C,4
8,3,test,2,C,circle.png,1,m,Tue May 05 2026 09:09:44 GMT-0500 (Central Daylight Time),659252.3000000715,1200,O,m,950,15,1,2180.0,657072.3000000715,7799,NTS,C,5
1,4,test,2,C,triangle.png,1,z,Tue May 05 2026 09:09:44 GMT-0500 (Central Daylight Time),662001.5,1900,O,z,830,17,1,2746.399999976158,659255.1000000238,7799,NTS,C,6
2,4,test,2,C,circle.png,0,z,Tue May 05 2026 09:09:44 GMT-0500 (Central Daylight Time),664451.3999999762,1700,O,m,728,10,1,2447.1999999284744,662004.2000000477,7799,NTS,C,7
4,5,test,2,C,triangle.png,1,m,Tue May 05 2026 09:09:44 GMT-0500 (Central Daylight Time),667117.3000000715,1500,O,m,1135,12,1,2662.9000000953674,664454.3999999762,7799,NTS,C,8
8,6,test,2,C,triangle.png,1,m,Tue May 05 2026 09:09:44 GMT-0500 (Central Daylight Time),670232.6000000238,1600,O,m,1489,7,1,3112.2999999523163,667120.3000000715,7799,NTS,C,9
9,7,test,2,C,triangle.png,1,z,Tue May 05 2026 09:09:44 GMT-0500 (Central Daylight Time),672581.7000000477,1400,O,z,917,16,1,2346.100000023842,670235.6000000238,7799,NTS,C,10
6,8,test,2,C,triangle.png,1,m,Tue May 05 2026 09:09:44 GMT-0500 (Central Daylight Time),675013.8000000715,1000,O,m,1408,13,1,2428.9000000953674,672584.8999999762,7799,NTS,C,11
2,9,test,2,C,triangle.png,1,m,Tue May 05 2026 09:09:44 GMT-0500 (Central Daylight Time),678312.5,2000,O,m,1274,2,1,3295.600000023842,675016.8999999762,7799,NTS,C,12
3,9,test,2,C,triangle.png,0,z,Tue May 05 2026 09:09:44 GMT-0500 (Central Daylight Time),681046.0,1200,O,None,1516,3,1,2730.5,678315.5,7799,NTS,C,13
2,10,test,2,C,circle.png,1,z,Tue May 05 2026 09:09:44 GMT-0500 (Central Daylight Time),683761.8000000715,1700,O,z,983,18,1,2711.9000000953674,681049.8999999762,7799,NTS,C,14
6,11,test,2,C,circle.png,1,m,Tue May 05 2026 09:09:44 GMT-0500 (Central Daylight Time),686693.8000000715,1900,O,m,1001,5,1,2929.3000000715256,683764.5,7799,NTS,C,15
7,12,test,2,C,circle.png,1,m,Tue May 05 2026 09:09:44 GMT-0500 (Central Daylight Time),689493.6000000238,2000,O,m,777,14,1,2796.899999976158,686696.7000000477,7799,NTS,C,16
3,13,test,2,C,circle.png,1,z,Tue May 05 2026 09:09:44 GMT-0500 (Central Daylight Time),692191.6000000238,1600,O,z,1075,11,1,2694.7999999523163,689496.8000000715,7799,NTS,C,17
7,14,test,2,C,circle.png,1,m,Tue May 05 2026 09:09:44 GMT-0500 (Central Daylight Time),695357.5,2000,O,m,1133,22,1,3162.7999999523163,692194.7000000477,7799,NTS,C,18
4,15,test,2,C,circle.png,1,z,Tue May 05 2026 09:09:44 GMT-0500 (Central Daylight Time),698140.7000000477,1400,O,z,1353,4,1,2780.399999976158,695360.3000000715,7799,NTS,C,19
3,16,test,2,C,circle.png,1,z,Tue May 05 2026 09:09:44 GMT-0500 (Central Daylight Time),700806.7000000477,1600,O,z,1034,19,1,2659.7000000476837,698147.0,7799,NTS,C,20
1,17,test,2,C,triangle.png,1,z,Tue May 05 2026 09:09:44 GMT-0500 (Central Daylight Time),703871.8999999762,1900,O,z,1133,9,1,3062.0,700809.8999999762,7799,NTS,C,21
9,18,test,2,C,circle.png,1,m,Tue May 05 2026 09:09:44 GMT-0500 (Central Daylight Time),706455.0,1500,O,m,1057,8,1,2579.1999999284744,703875.8000000715,7799,NTS,C,22
7,19,test,2,C,triangle.png,1,z,Tue May 05 2026 09:09:44 GMT-0500 (Central Daylight Time),709419.3999999762,1700,O,z,1245,6,1,2961.0,706458.3999999762,7799,NTS,C,23
6,20,test,2,C,triangle.png,1,m,Tue May 05 2026 09:09:44 GMT-0500 (Central Daylight Time),711452.0,1000,O,m,1003,21,1,2029.8999999761581,709422.1000000238,7799,NTS,C,24
2,0,test,3,C,triangle.png,0,m,Tue May 05 2026 09:09:44 GMT-0500 (Central Daylight Time),716469.2000000477,2000,O,None,1515,2,1,3523.8000000715256,712945.3999999762,7799,NTS,C,1
1,1,test,3,C,triangle.png,1,z,Tue May 05 2026 09:09:44 GMT-0500 (Central Daylight Time),719084.5,1900,O,z,694,9,1,2609.0,716475.5,7799,NTS,C,2
9,1,test,3,C,triangle.png,0,z,Tue May 05 2026 09:09:44 GMT-0500 (Central Daylight Time),721150.3000000715,1400,O,m,641,16,1,2060.8000000715256,719089.5,7799,NTS,C,3
8,1,test,3,C,triangle.png,0,m,Tue May 05 2026 09:09:44 GMT-0500 (Central Daylight Time),723866.0,1600,O,z,1088,7,1,2711.1999999284744,721154.8000000715,7799,NTS,C,4
9,2,test,3,C,circle.png,1,m,Tue May 05 2026 09:09:44 GMT-0500 (Central Daylight Time),726465.8999999762,1500,O,m,1073,24,1,2594.399999976158,723871.5,7799,NTS,C,5
7,2,test,3,C,circle.png,0,m,Tue May 05 2026 09:09:44 GMT-0500 (Central Daylight Time),729947.8999999762,2000,O,z,1449,14,1,3477.6999999284744,726470.2000000477,7799,NTS,C,6
3,2,test,3,C,triangle.png,0,z,Tue May 05 2026 09:09:44 GMT-0500 (Central Daylight Time),732679.8999999762,1200,O,None,1514,3,1,2725.5999999046326,729954.3000000715,7799,NTS,C,7
6,3,test,3,C,triangle.png,1,m,Tue May 05 2026 09:09:44 GMT-0500 (Central Daylight Time),734779.3000000715,1000,O,m,1071,13,1,2095.5,732683.8000000715,7799,NTS,C,8
1,4,test,3,C,circle.png,1,z,Tue May 05 2026 09:09:44 GMT-0500 (Central Daylight Time),736561.7000000477,1000,O,z,756,1,1,1776.1000000238419,734785.6000000238,7799,NTS,C,9
4,5,test,3,C,triangle.png,1,m,Tue May 05 2026 09:09:44 GMT-0500 (Central Daylight Time),739194.8000000715,1500,O,m,1105,12,1,2627.5,736567.3000000715,7799,NTS,C,10
6,6,test,3,C,circle.png,1,m,Tue May 05 2026 09:09:44 GMT-0500 (Central Daylight Time),742330.6000000238,1900,O,m,1215,21,1,3130.399999976158,739200.2000000477,7799,NTS,C,11
2,7,test,3,C,circle.png,1,z,Tue May 05 2026 09:09:44 GMT-0500 (Central Daylight Time),744660.1000000238,1700,O,z,603,10,1,2325.100000023842,742335.0,7799,NTS,C,12
1,8,test,3,C,circle.png,1,z,Tue May 05 2026 09:09:44 GMT-0500 (Central Daylight Time),746575.7000000477,1000,O,z,892,17,1,1910.1000000238419,744665.6000000238,7799,NTS,C,13
9,8,test,3,C,circle.png,0,m,Tue May 05 2026 09:09:44 GMT-0500 (Central Daylight Time),749508.5,1500,O,z,1412,8,1,2928.399999976158,746580.1000000238,7799,NTS,C,14
4,8,test,3,C,circle.png,0,z,Tue May 05 2026 09:09:44 GMT-0500 (Central Daylight Time),752356.5,1400,O,m,1418,20,1,2843.600000023842,749512.8999999762,7799,NTS,C,15
8,9,test,3,C,triangle.png,1,m,Tue May 05 2026 09:09:44 GMT-0500 (Central Daylight Time),755406.6000000238,1600,O,m,1426,23,1,3045.0,752361.6000000238,7799,NTS,C,16
2,10,test,3,C,triangle.png,1,m,Tue May 05 2026 09:09:44 GMT-0500 (Central Daylight Time),758439.5,2000,O,m,1009,18,1,3027.100000023842,755412.3999999762,7799,NTS,C,17
7,10,test,3,C,triangle.png,0,z,Tue May 05 2026 09:09:44 GMT-0500 (Central Daylight Time),761323.8999999762,1700,O,m,1169,22,1,2879.2999999523163,758444.6000000238,7799,NTS,C,18
8,11,test,3,C,circle.png,1,m,Tue May 05 2026 09:09:44 GMT-0500 (Central Daylight Time),763538.0,1200,O,m,989,15,1,2209.600000023842,761328.3999999762,7799,NTS,C,19
6,12,test,3,C,circle.png,1,m,Tue May 05 2026 09:09:44 GMT-0500 (Central Daylight Time),766853.1000000238,1900,O,m,1394,5,1,3311.399999976158,763541.7000000477,7799,NTS,C,20
7,13,test,3,C,triangle.png,1,z,Tue May 05 2026 09:09:44 GMT-0500 (Central Daylight Time),769454.1000000238,1700,O,z,879,6,1,2596.7999999523163,766857.3000000715,7799,NTS,C,21
4,14,test,3,C,circle.png,1,z,Tue May 05 2026 09:09:44 GMT-0500 (Central Daylight Time),771950.1000000238,1400,O,z,1065,4,1,2491.2000000476837,769458.8999999762,7799,NTS,C,22
3,14,test,3,C,circle.png,0,z,Tue May 05 2026 09:09:44 GMT-0500 (Central Daylight Time),775083.7000000477,1600,O,None,1517,11,1,3130.7000000476837,771953.0,7799,NTS,C,23
3,14,test,3,C,triangle.png,0,z,Tue May 05 2026 09:09:44 GMT-0500 (Central Daylight Time),777515.8000000715,1200,O,m,1212,19,1,2425.100000023842,775090.7000000477,7799,NTS,C,24
4,1,test,4,C,circle.png,1,z,Tue May 05 2026 09:09:44 GMT-0500 (Central Daylight Time),781181.7000000477,1400,O,z,994,4,1,2411.899999976158,778769.8000000715,7799,NTS,C,1
1,2,test,4,C,circle.png,1,z,Tue May 05 2026 09:09:44 GMT-0500 (Central Daylight Time),783246.0,1000,O,z,1040,17,1,2059.2999999523163,781186.7000000477,7799,NTS,C,2
1,3,test,4,C,triangle.png,1,z,Tue May 05 2026 09:09:44 GMT-0500 (Central Daylight Time),786213.3999999762,1900,O,z,1043,9,1,2963.6999999284744,783249.7000000477,7799,NTS,C,3
4,4,test,4,C,triangle.png,1,m,Tue May 05 2026 09:09:44 GMT-0500 (Central Daylight Time),788979.5,1500,O,m,1238,12,1,2762.100000023842,786217.3999999762,7799,NTS,C,4
3,5,test,4,C,circle.png,1,z,Tue May 05 2026 09:09:44 GMT-0500 (Central Daylight Time),791713.1000000238,1600,O,z,1116,11,1,2727.399999976158,788985.7000000477,7799,NTS,C,5
2,6,test,4,C,triangle.png,1,m,Tue May 05 2026 09:09:44 GMT-0500 (Central Daylight Time),795026.8999999762,2000,O,m,1287,18,1,3308.5,791718.3999999762,7799,NTS,C,6
2,7,test,4,C,circle.png,1,z,Tue May 05 2026 09:09:44 GMT-0500 (Central Daylight Time),797727.5,1700,O,z,976,10,1,2696.899999976158,795030.6000000238,7799,NTS,C,7
3,8,test,4,C,triangle.png,1,z,Tue May 05 2026 09:09:44 GMT-0500 (Central Daylight Time),800125.8000000715,1200,O,z,1177,19,1,2393.5,797732.3000000715,7799,NTS,C,8
6,9,test,4,C,circle.png,1,m,Tue May 05 2026 09:09:44 GMT-0500 (Central Daylight Time),802725.8000000715,1900,O,m,679,5,1,2596.4000000953674,800129.3999999762,7799,NTS,C,9
6,10,test,4,C,circle.png,1,m,Tue May 05 2026 09:09:44 GMT-0500 (Central Daylight Time),805356.3999999762,1900,O,m,702,21,1,2625.399999976158,802731.0,7799,NTS,C,10
8,10,test,4,C,triangle.png,0,m,Tue May 05 2026 09:09:44 GMT-0500 (Central Daylight Time),807906.8999999762,1600,O,z,932,7,1,2546.7999999523163,805360.1000000238,7799,NTS,C,11
7,11,test,4,C,triangle.png,1,z,Tue May 05 2026 09:09:44 GMT-0500 (Central Daylight Time),810889.5,1700,O,z,1255,6,1,2979.600000023842,807909.8999999762,7799,NTS,C,12
8,12,test,4,C,circle.png,1,m,Tue May 05 2026 09:09:44 GMT-0500 (Central Daylight Time),812854.7000000477,1200,O,m,743,15,1,1960.3999999761581,810894.3000000715,7799,NTS,C,13
3,13,test,4,C,triangle.png,1,z,Tue May 05 2026 09:09:44 GMT-0500 (Central Daylight Time),815089.3000000715,1200,O,z,1017,3,1,2230.5,812858.8000000715,7799,NTS,C,14
9,14,test,4,C,triangle.png,1,z,Tue May 05 2026 09:09:44 GMT-0500 (Central Daylight Time),817536.8000000715,1400,O,z,1025,16,1,2443.100000023842,815093.7000000477,7799,NTS,C,15
7,15,test,4,C,triangle.png,1,z,Tue May 05 2026 09:09:44 GMT-0500 (Central Daylight Time),820051.6000000238,1700,O,z,785,22,1,2510.7000000476837,817540.8999999762,7799,NTS,C,16
4,16,test,4,C,circle.png,1,z,Tue May 05 2026 09:09:44 GMT-0500 (Central Daylight Time),822386.0,1400,O,z,907,20,1,2331.0,820055.0,7799,NTS,C,17
9,17,test,4,C,circle.png,1,m,Tue May 05 2026 09:09:44 GMT-0500 (Central Daylight Time),825118.0,1500,O,m,1201,8,1,2727.899999976158,822390.1000000238,7799,NTS,C,18
9,18,test,4,C,circle.png,1,m,Tue May 05 2026 09:09:44 GMT-0500 (Central Daylight Time),827500.1000000238,1500,O,m,851,24,1,2377.600000023842,825122.5,7799,NTS,C,19
2,18,test,4,C,triangle.png,0,m,Tue May 05 2026 09:09:44 GMT-0500 (Central Daylight Time),830665.5,2000,O,z,1139,2,1,3160.7999999523163,827504.7000000477,7799,NTS,C,20
6,18,test,4,C,triangle.png,0,m,Tue May 05 2026 09:09:44 GMT-0500 (Central Daylight Time),832864.5,1000,O,z,1181,13,1,2194.2999999523163,830670.2000000477,7799,NTS,C,21
7,19,test,4,C,circle.png,1,m,Tue May 05 2026 09:09:44 GMT-0500 (Central Daylight Time),835614.1000000238,2000,O,m,718,14,1,2745.100000023842,832869.0,7799,NTS,C,22
1,20,test,4,C,circle.png,1,z,Tue May 05 2026 09:09:44 GMT-0500 (Central Daylight Time),837698.1000000238,1000,O,z,1067,1,1,2078.2999999523163,835619.8000000715,7799,NTS,C,23
8,21,test,4,C,triangle.png,1,m,Tue May 05 2026 09:09:44 GMT-0500 (Central Daylight Time),840363.5,1600,O,m,1047,23,1,2660.600000023842,837702.8999999762,7799,NTS,C,24
