block_c,block_dur,condition,countdown,datetime,endtime,list,multichar_response,project,response,response_time,session_number,start_end,starttime,subject_id,task,task_vers,trial
,,,,Thu Sep 25 2025 18:20:54 GMT-0500 (Central Daylight Time),,,,I,space,288,3,,,8026,WL,A,
prac,,0,,Thu Sep 25 2025 18:20:54 GMT-0500 (Central Daylight Time),,NA,b,I,b,5672,3,,,8026,WL,A,1.0
prac,,0,,Thu Sep 25 2025 18:20:54 GMT-0500 (Central Daylight Time),,NA,bo,I,o,236,3,,,8026,WL,A,1.0
prac,,0,,Thu Sep 25 2025 18:20:54 GMT-0500 (Central Daylight Time),,NA,boo,I,o,154,3,,,8026,WL,A,1.0
prac,,0,,Thu Sep 25 2025 18:20:54 GMT-0500 (Central Daylight Time),,NA,boos,I,s,140,3,,,8026,WL,A,1.0
prac,,0,,Thu Sep 25 2025 18:20:54 GMT-0500 (Central Daylight Time),,NA,boost,I,t,302,3,,,8026,WL,A,1.0
prac,,0,,Thu Sep 25 2025 18:20:54 GMT-0500 (Central Daylight Time),,NA,boostenter,I,enter,1529,3,,,8026,WL,A,1.0
1,2.3329999446868896,learn,57667.00005531311,Thu Sep 25 2025 18:20:54 GMT-0500 (Central Daylight Time),133806.29999998212,A,b,I,b,2314,3,2332.399999976158,131473.90000000596,8026,WL,A,1.0
1,2.5999999046325684,learn,57400.00009536743,Thu Sep 25 2025 18:20:54 GMT-0500 (Central Daylight Time),134072.90000000596,A,bo,I,o,259,3,2599.0,131473.90000000596,8026,WL,A,1.0
1,2.7829999923706055,learn,57217.000007629395,Thu Sep 25 2025 18:20:54 GMT-0500 (Central Daylight Time),134255.69999998808,A,boo,I,o,170,3,2781.7999999821186,131473.90000000596,8026,WL,A,1.0
1,3.0999999046325684,learn,56900.00009536743,Thu Sep 25 2025 18:20:54 GMT-0500 (Central Daylight Time),134572.79999998212,A,book,I,k,308,3,3098.899999976158,131473.90000000596,8026,WL,A,1.0
1,3.749000072479248,learn,56250.99992752075,Thu Sep 25 2025 18:20:54 GMT-0500 (Central Daylight Time),135222.5,A,bookenter,I,enter,639,3,3748.5999999940395,131473.90000000596,8026,WL,A,1.0
1,4.615999937057495,learn,55384.000062942505,Thu Sep 25 2025 18:20:54 GMT-0500 (Central Daylight Time),136088.79999998212,A,t,I,t,845,3,865.8999999761581,135222.90000000596,8026,WL,A,2.0
1,4.815000057220459,learn,55184.99994277954,Thu Sep 25 2025 18:20:54 GMT-0500 (Central Daylight Time),136288.59999999404,A,tr,I,r,187,3,1065.699999988079,135222.90000000596,8026,WL,A,2.0
1,4.9649999141693115,learn,55035.00008583069,Thu Sep 25 2025 18:20:54 GMT-0500 (Central Daylight Time),136438.69999998808,A,tra,I,a,139,3,1215.7999999821186,135222.90000000596,8026,WL,A,2.0
1,5.2149999141693115,learn,54785.00008583069,Thu Sep 25 2025 18:20:54 GMT-0500 (Central Daylight Time),136688.5,A,trai,I,i,229,3,1465.5999999940395,135222.90000000596,8026,WL,A,2.0
1,5.315999984741211,learn,54684.00001525879,Thu Sep 25 2025 18:20:54 GMT-0500 (Central Daylight Time),136788.69999998808,A,train,I,n,92,3,1565.7999999821186,135222.90000000596,8026,WL,A,2.0
1,6.482000112533569,learn,53517.99988746643,Thu Sep 25 2025 18:20:54 GMT-0500 (Central Daylight Time),137954.90000000596,A,trainenter,I,enter,1151,3,2732.0,135222.90000000596,8026,WL,A,2.0
1,7.04800009727478,learn,52951.99990272522,Thu Sep 25 2025 18:20:54 GMT-0500 (Central Daylight Time),138521.40000000596,A,f,I,f,560,3,565.9000000059605,137955.5,8026,WL,A,3.0
1,7.148000001907349,learn,52851.99999809265,Thu Sep 25 2025 18:20:54 GMT-0500 (Central Daylight Time),138621.19999998808,A,fl,I,l,91,3,665.6999999880791,137955.5,8026,WL,A,3.0
1,7.398000001907349,learn,52601.99999809265,Thu Sep 25 2025 18:20:54 GMT-0500 (Central Daylight Time),138871.0,A,flo,I,o,231,3,915.5,137955.5,8026,WL,A,3.0
1,7.615000009536743,learn,52384.99999046326,Thu Sep 25 2025 18:20:54 GMT-0500 (Central Daylight Time),139087.79999998212,A,flow,I,w,196,3,1132.2999999821186,137955.5,8026,WL,A,3.0
1,7.79800009727478,learn,52201.99990272522,Thu Sep 25 2025 18:20:54 GMT-0500 (Central Daylight Time),139271.09999999404,A,flowe,I,e,164,3,1315.5999999940395,137955.5,8026,WL,A,3.0
1,8.881999969482422,learn,51118.00003051758,Thu Sep 25 2025 18:20:54 GMT-0500 (Central Daylight Time),140355.19999998808,A,flower,I,r,1077,3,2399.699999988079,137955.5,8026,WL,A,3.0
1,9.563999891281128,learn,50436.00010871887,Thu Sep 25 2025 18:20:54 GMT-0500 (Central Daylight Time),141037.0,A,flowerenter,I,enter,673,3,3081.5,137955.5,8026,WL,A,3.0
1,10.230999946594238,learn,49769.00005340576,Thu Sep 25 2025 18:20:54 GMT-0500 (Central Daylight Time),141704.19999998808,A,m,I,m,655,3,666.6999999880791,141037.5,8026,WL,A,4.0
1,10.397000074386597,learn,49602.9999256134,Thu Sep 25 2025 18:20:54 GMT-0500 (Central Daylight Time),141870.29999998212,A,me,I,e,148,3,832.7999999821186,141037.5,8026,WL,A,4.0
1,10.563999891281128,learn,49436.00010871887,Thu Sep 25 2025 18:20:54 GMT-0500 (Central Daylight Time),142037.0,A,mea,I,a,150,3,999.5,141037.5,8026,WL,A,4.0
1,10.829999923706055,learn,49170.000076293945,Thu Sep 25 2025 18:20:54 GMT-0500 (Central Daylight Time),142303.59999999404,A,mead,I,d,255,3,1266.0999999940395,141037.5,8026,WL,A,4.0
1,11.114000082015991,learn,48885.99991798401,Thu Sep 25 2025 18:20:54 GMT-0500 (Central Daylight Time),142586.69999998808,A,meado,I,o,269,3,1549.199999988079,141037.5,8026,WL,A,4.0
1,11.480999946594238,learn,48519.00005340576,Thu Sep 25 2025 18:20:54 GMT-0500 (Central Daylight Time),142953.79999998212,A,meadow,I,w,346,3,1916.2999999821186,141037.5,8026,WL,A,4.0
1,12.446000099182129,learn,47553.99990081787,Thu Sep 25 2025 18:20:54 GMT-0500 (Central Daylight Time),143919.59999999404,A,meadowenter,I,enter,946,3,2882.0999999940395,141037.5,8026,WL,A,4.0
1,15.944999933242798,learn,44055.0000667572,Thu Sep 25 2025 18:20:54 GMT-0500 (Central Daylight Time),147418.29999998212,A,r,I,r,3484,3,3498.199999988079,143920.09999999404,8026,WL,A,5.0
1,16.111999988555908,learn,43888.00001144409,Thu Sep 25 2025 18:20:54 GMT-0500 (Central Daylight Time),147585.09999999404,A,ra,I,a,154,3,3665.0,143920.09999999404,8026,WL,A,5.0
1,16.312000036239624,learn,43687.999963760376,Thu Sep 25 2025 18:20:54 GMT-0500 (Central Daylight Time),147785.0,A,rat,I,t,195,3,3864.9000000059605,143920.09999999404,8026,WL,A,5.0
1,16.479000091552734,learn,43520.999908447266,Thu Sep 25 2025 18:20:54 GMT-0500 (Central Daylight Time),147951.69999998808,A,ratt,I,t,155,3,4031.5999999940395,143920.09999999404,8026,WL,A,5.0
1,16.628000020980835,learn,43371.999979019165,Thu Sep 25 2025 18:20:54 GMT-0500 (Central Daylight Time),148101.59999999404,A,rattl,I,l,133,3,4181.5,143920.09999999404,8026,WL,A,5.0
1,16.744999885559082,learn,43255.00011444092,Thu Sep 25 2025 18:20:54 GMT-0500 (Central Daylight Time),148218.5,A,rattle,I,e,103,3,4298.4000000059605,143920.09999999404,8026,WL,A,5.0
1,17.244999885559082,learn,42755.00011444092,Thu Sep 25 2025 18:20:54 GMT-0500 (Central Daylight Time),148718.19999998808,A,rattleenter,I,enter,481,3,4798.0999999940395,143920.09999999404,8026,WL,A,5.0
1,17.628000020980835,learn,42371.999979019165,Thu Sep 25 2025 18:20:54 GMT-0500 (Central Daylight Time),149101.19999998808,A,l,I,l,373,3,382.59999999403954,148718.59999999404,8026,WL,A,6.0
1,17.878000020980835,learn,42121.999979019165,Thu Sep 25 2025 18:20:54 GMT-0500 (Central Daylight Time),149351.29999998212,A,lo,I,o,231,3,632.6999999880791,148718.59999999404,8026,WL,A,6.0
1,18.111000061035156,learn,41888.999938964844,Thu Sep 25 2025 18:20:54 GMT-0500 (Central Daylight Time),149584.5,A,log,I,g,212,3,865.9000000059605,148718.59999999404,8026,WL,A,6.0
1,18.694999933242798,learn,41305.0000667572,Thu Sep 25 2025 18:20:54 GMT-0500 (Central Daylight Time),150167.69999998808,A,logenter,I,enter,572,3,1449.0999999940395,148718.59999999404,8026,WL,A,6.0
1,20.01099991798401,learn,39989.00008201599,Thu Sep 25 2025 18:20:54 GMT-0500 (Central Daylight Time),151483.79999998212,A,c,I,c,1308,3,1315.5999999940395,150168.19999998808,8026,WL,A,7.0
1,20.26099991798401,learn,39739.00008201599,Thu Sep 25 2025 18:20:54 GMT-0500 (Central Daylight Time),151734.09999999404,A,ch,I,h,240,3,1565.9000000059605,150168.19999998808,8026,WL,A,7.0
1,20.51099991798401,learn,39489.00008201599,Thu Sep 25 2025 18:20:54 GMT-0500 (Central Daylight Time),151983.69999998808,A,chi,I,i,230,3,1815.5,150168.19999998808,8026,WL,A,7.0
1,20.793999910354614,learn,39206.000089645386,Thu Sep 25 2025 18:20:54 GMT-0500 (Central Daylight Time),152267.09999999404,A,chim,I,m,277,3,2098.9000000059605,150168.19999998808,8026,WL,A,7.0
1,21.111000061035156,learn,38888.999938964844,Thu Sep 25 2025 18:20:54 GMT-0500 (Central Daylight Time),152583.69999998808,A,chimn,I,n,297,3,2415.5,150168.19999998808,8026,WL,A,7.0
1,21.32699990272522,learn,38673.00009727478,Thu Sep 25 2025 18:20:54 GMT-0500 (Central Daylight Time),152800.40000000596,A,chimne,I,e,196,3,2632.2000000178814,150168.19999998808,8026,WL,A,7.0
1,21.842999935150146,learn,38157.00006484985,Thu Sep 25 2025 18:20:54 GMT-0500 (Central Daylight Time),153316.59999999404,A,chimney,I,y,508,3,3148.4000000059605,150168.19999998808,8026,WL,A,7.0
1,23.026999950408936,learn,36973.000049591064,Thu Sep 25 2025 18:20:54 GMT-0500 (Central Daylight Time),154499.79999998212,A,chimneyenter,I,enter,1176,3,4331.5999999940395,150168.19999998808,8026,WL,A,7.0
1,24.842999935150146,learn,35157.00006484985,Thu Sep 25 2025 18:20:54 GMT-0500 (Central Daylight Time),156316.0,A,s,I,s,1808,3,1815.7000000178814,154500.29999998212,8026,WL,A,8.0
1,25.05900001525879,learn,34940.99998474121,Thu Sep 25 2025 18:20:54 GMT-0500 (Central Daylight Time),156532.29999998212,A,sa,I,a,207,3,2032.0,154500.29999998212,8026,WL,A,8.0
1,25.259000062942505,learn,34740.999937057495,Thu Sep 25 2025 18:20:54 GMT-0500 (Central Daylight Time),156732.19999998808,A,sal,I,l,192,3,2231.9000000059605,154500.29999998212,8026,WL,A,8.0
1,25.77500009536743,learn,34224.99990463257,Thu Sep 25 2025 18:20:54 GMT-0500 (Central Daylight Time),157248.5,A,salt,I,t,496,3,2748.2000000178814,154500.29999998212,8026,WL,A,8.0
1,26.05900001525879,learn,33940.99998474121,Thu Sep 25 2025 18:20:54 GMT-0500 (Central Daylight Time),157532.0,A,saltenter,I,enter,276,3,3031.7000000178814,154500.29999998212,8026,WL,A,8.0
1,26.52500009536743,learn,33474.99990463257,Thu Sep 25 2025 18:20:54 GMT-0500 (Central Daylight Time),157998.40000000596,A,f,I,f,457,3,466.0,157532.40000000596,8026,WL,A,9.0
1,26.72499990463257,learn,33275.00009536743,Thu Sep 25 2025 18:20:54 GMT-0500 (Central Daylight Time),158198.5,A,fi,I,i,190,3,666.0999999940395,157532.40000000596,8026,WL,A,9.0
1,26.924999952316284,learn,33075.000047683716,Thu Sep 25 2025 18:20:54 GMT-0500 (Central Daylight Time),158398.5,A,fin,I,n,182,3,866.0999999940395,157532.40000000596,8026,WL,A,9.0
1,27.242000102996826,learn,32757.999897003174,Thu Sep 25 2025 18:20:54 GMT-0500 (Central Daylight Time),158715.0,A,fing,I,g,302,3,1182.5999999940395,157532.40000000596,8026,WL,A,9.0
1,27.45900011062622,learn,32540.99988937378,Thu Sep 25 2025 18:20:54 GMT-0500 (Central Daylight Time),158931.69999998808,A,finge,I,e,202,3,1399.2999999821186,157532.40000000596,8026,WL,A,9.0
1,27.799999952316284,learn,32200.000047683716,Thu Sep 25 2025 18:20:54 GMT-0500 (Central Daylight Time),159272.90000000596,A,finger,I,r,190,3,1740.5,157532.40000000596,8026,WL,A,9.0
1,27.95799994468689,learn,32042.00005531311,Thu Sep 25 2025 18:20:54 GMT-0500 (Central Daylight Time),159431.5,A,fingerenter,I,enter,139,3,1899.0999999940395,157532.40000000596,8026,WL,A,9.0
1,28.308000087738037,learn,31691.999912261963,Thu Sep 25 2025 18:20:54 GMT-0500 (Central Daylight Time),159781.29999998212,A,a,I,a,340,3,349.39999997615814,159431.90000000596,8026,WL,A,10.0
1,28.591000080108643,learn,31408.999919891357,Thu Sep 25 2025 18:20:54 GMT-0500 (Central Daylight Time),160064.19999998808,A,ap,I,p,263,3,632.2999999821186,159431.90000000596,8026,WL,A,10.0
1,28.70799994468689,learn,31292.00005531311,Thu Sep 25 2025 18:20:54 GMT-0500 (Central Daylight Time),160181.09999999404,A,app,I,p,108,3,749.1999999880791,159431.90000000596,8026,WL,A,10.0
1,28.94099998474121,learn,31059.00001525879,Thu Sep 25 2025 18:20:54 GMT-0500 (Central Daylight Time),160414.5,A,appl,I,l,224,3,982.5999999940395,159431.90000000596,8026,WL,A,10.0
1,29.091000080108643,learn,30908.999919891357,Thu Sep 25 2025 18:20:54 GMT-0500 (Central Daylight Time),160564.29999998212,A,apple,I,e,134,3,1132.3999999761581,159431.90000000596,8026,WL,A,10.0
1,29.591000080108643,learn,30408.999919891357,Thu Sep 25 2025 18:20:54 GMT-0500 (Central Daylight Time),161064.29999998212,A,appleenter,I,enter,479,3,1632.3999999761581,159431.90000000596,8026,WL,A,10.0
1,30.19099998474121,learn,29809.00001525879,Thu Sep 25 2025 18:20:54 GMT-0500 (Central Daylight Time),161664.09999999404,A,r,I,r,580,3,599.3000000119209,161064.79999998212,8026,WL,A,11.0
1,30.69099998474121,learn,29309.00001525879,Thu Sep 25 2025 18:20:54 GMT-0500 (Central Daylight Time),162164.0,A,ru,I,u,492,3,1099.2000000178814,161064.79999998212,8026,WL,A,11.0
1,31.0239999294281,learn,28976.0000705719,Thu Sep 25 2025 18:20:54 GMT-0500 (Central Daylight Time),162497.0,A,rug,I,g,320,3,1432.2000000178814,161064.79999998212,8026,WL,A,11.0
1,31.69099998474121,learn,28309.00001525879,Thu Sep 25 2025 18:20:54 GMT-0500 (Central Daylight Time),163163.79999998212,A,rugenter,I,enter,660,3,2099.0,161064.79999998212,8026,WL,A,11.0
1,57.664000034332275,learn,2335.9999656677246,Thu Sep 25 2025 18:20:54 GMT-0500 (Central Daylight Time),189138.79999998212,A,b,I,b,25969,3,25974.69999998808,163164.09999999404,8026,WL,A,12.0
1,57.930999994277954,learn,2069.000005722046,Thu Sep 25 2025 18:20:54 GMT-0500 (Central Daylight Time),189405.29999998212,A,bu,I,u,248,3,26241.19999998808,163164.09999999404,8026,WL,A,12.0
1,58.180999994277954,learn,1819.000005722046,Thu Sep 25 2025 18:20:54 GMT-0500 (Central Daylight Time),189655.19999998808,A,but,I,t,231,3,26491.09999999404,163164.09999999404,8026,WL,A,12.0
1,58.29800009727478,learn,1701.9999027252197,Thu Sep 25 2025 18:20:54 GMT-0500 (Central Daylight Time),189771.90000000596,A,butt,I,t,101,3,26607.80000001192,163164.09999999404,8026,WL,A,12.0
1,58.680999994277954,learn,1319.000005722046,Thu Sep 25 2025 18:20:54 GMT-0500 (Central Daylight Time),190155.0,A,butto,I,o,368,3,26990.90000000596,163164.09999999404,8026,WL,A,12.0
1,58.81399989128113,learn,1186.000108718872,Thu Sep 25 2025 18:20:54 GMT-0500 (Central Daylight Time),190288.29999998212,A,button,I,n,121,3,27124.19999998808,163164.09999999404,8026,WL,A,12.0
1,59.03099989891052,learn,969.0001010894775,Thu Sep 25 2025 18:20:54 GMT-0500 (Central Daylight Time),190504.90000000596,A,buttonenter,I,enter,212,3,27340.80000001192,163164.09999999404,8026,WL,A,12.0
1,60.013999938964844,learn,-13.99993896484375,Thu Sep 25 2025 18:20:54 GMT-0500 (Central Daylight Time),191488.79999998212,A,None,I,None,979,3,983.5999999940395,190505.19999998808,8026,WL,A,13.0
2,0.75,learn,59250.0,Thu Sep 25 2025 18:20:54 GMT-0500 (Central Daylight Time),261199.40000000596,A,b,I,b,740,3,749.5,260449.90000000596,8026,WL,A,1.0
2,1.0169999599456787,learn,58983.00004005432,Thu Sep 25 2025 18:20:54 GMT-0500 (Central Daylight Time),261466.40000000596,A,bo,I,o,252,3,1016.5,260449.90000000596,8026,WL,A,1.0
2,1.183000087738037,learn,58816.99991226196,Thu Sep 25 2025 18:20:54 GMT-0500 (Central Daylight Time),261632.79999998212,A,boo,I,o,153,3,1182.8999999761581,260449.90000000596,8026,WL,A,1.0
2,1.4160001277923584,learn,58583.99987220764,Thu Sep 25 2025 18:20:54 GMT-0500 (Central Daylight Time),261865.69999998808,A,book,I,k,228,3,1415.7999999821186,260449.90000000596,8026,WL,A,1.0
2,2.115999937057495,learn,57884.000062942505,Thu Sep 25 2025 18:20:54 GMT-0500 (Central Daylight Time),262565.7999999821,A,bookenter,I,enter,682,3,2115.899999976158,260449.90000000596,8026,WL,A,1.0
2,3.2990000247955322,learn,56700.99997520447,Thu Sep 25 2025 18:20:54 GMT-0500 (Central Daylight Time),263748.6999999881,A,f,I,f,1167,3,1182.5999999940395,262566.09999999404,8026,WL,A,2.0
2,3.431999921798706,learn,56568.000078201294,Thu Sep 25 2025 18:20:54 GMT-0500 (Central Daylight Time),263881.59999999404,A,fl,I,l,128,3,1315.5,262566.09999999404,8026,WL,A,2.0
2,3.699000120162964,learn,56300.999879837036,Thu Sep 25 2025 18:20:54 GMT-0500 (Central Daylight Time),264148.59999999404,A,flo,I,o,259,3,1582.5,262566.09999999404,8026,WL,A,2.0
2,3.9160001277923584,learn,56083.99987220764,Thu Sep 25 2025 18:20:54 GMT-0500 (Central Daylight Time),264365.1999999881,A,flow,I,w,208,3,1799.0999999940395,262566.09999999404,8026,WL,A,2.0
2,4.131999969482422,learn,55868.00003051758,Thu Sep 25 2025 18:20:54 GMT-0500 (Central Daylight Time),264581.40000000596,A,flowe,I,e,199,3,2015.300000011921,262566.09999999404,8026,WL,A,2.0
2,4.398999929428101,learn,55601.0000705719,Thu Sep 25 2025 18:20:54 GMT-0500 (Central Daylight Time),264848.40000000596,A,flower,I,r,255,3,2282.300000011921,262566.09999999404,8026,WL,A,2.0
2,5.315000057220459,learn,54684.99994277954,Thu Sep 25 2025 18:20:54 GMT-0500 (Central Daylight Time),265764.5,A,flowerenter,I,enter,908,3,3198.4000000059605,262566.09999999404,8026,WL,A,2.0
2,6.865000009536743,learn,53134.99999046326,Thu Sep 25 2025 18:20:54 GMT-0500 (Central Daylight Time),267314.1999999881,A,t,I,t,1543,3,1549.4000000059605,265764.7999999821,8026,WL,A,3.0
2,7.497999906539917,learn,52502.00009346008,Thu Sep 25 2025 18:20:54 GMT-0500 (Central Daylight Time),267947.59999999404,A,tr,I,r,618,3,2182.800000011921,265764.7999999821,8026,WL,A,3.0
2,7.71399998664856,learn,52286.00001335144,Thu Sep 25 2025 18:20:54 GMT-0500 (Central Daylight Time),268163.90000000596,A,tra,I,a,209,3,2399.100000023842,265764.7999999821,8026,WL,A,3.0
2,7.980999946594238,learn,52019.00005340576,Thu Sep 25 2025 18:20:54 GMT-0500 (Central Daylight Time),268430.40000000596,A,trai,I,i,256,3,2665.600000023842,265764.7999999821,8026,WL,A,3.0
2,8.180999994277954,learn,51819.000005722046,Thu Sep 25 2025 18:20:54 GMT-0500 (Central Daylight Time),268630.2999999821,A,train,I,n,182,3,2865.5,265764.7999999821,8026,WL,A,3.0
2,8.29699993133545,learn,51703.00006866455,Thu Sep 25 2025 18:20:54 GMT-0500 (Central Daylight Time),268746.6999999881,A,trainn,I,n,109,3,2981.9000000059605,265764.7999999821,8026,WL,A,3.0
2,9.097000122070312,learn,50902.99987792969,Thu Sep 25 2025 18:20:54 GMT-0500 (Central Daylight Time),269546.7999999821,A,train,I,backspace,785,3,3782.0,265764.7999999821,8026,WL,A,3.0
2,9.930000066757202,learn,50069.9999332428,Thu Sep 25 2025 18:20:54 GMT-0500 (Central Daylight Time),270379.59999999404,A,trainenter,I,enter,824,3,4614.800000011921,265764.7999999821,8026,WL,A,3.0
2,12.763000011444092,learn,47236.99998855591,Thu Sep 25 2025 18:20:54 GMT-0500 (Central Daylight Time),273212.5,A,m,I,m,2817,3,2832.7000000178814,270379.7999999821,8026,WL,A,4.0
2,12.895999908447266,learn,47104.000091552734,Thu Sep 25 2025 18:20:54 GMT-0500 (Central Daylight Time),273345.40000000596,A,me,I,e,127,3,2965.600000023842,270379.7999999821,8026,WL,A,4.0
2,13.079999923706055,learn,46920.000076293945,Thu Sep 25 2025 18:20:54 GMT-0500 (Central Daylight Time),273529.2999999821,A,mea,I,a,171,3,3149.5,270379.7999999821,8026,WL,A,4.0
2,13.378999948501587,learn,46621.00005149841,Thu Sep 25 2025 18:20:54 GMT-0500 (Central Daylight Time),273828.59999999404,A,mead,I,d,283,3,3448.800000011921,270379.7999999821,8026,WL,A,4.0
2,13.579999923706055,learn,46420.000076293945,Thu Sep 25 2025 18:20:54 GMT-0500 (Central Daylight Time),274028.90000000596,A,meado,I,o,192,3,3649.100000023842,270379.7999999821,8026,WL,A,4.0
2,13.861999988555908,learn,46138.00001144409,Thu Sep 25 2025 18:20:54 GMT-0500 (Central Daylight Time),274311.6999999881,A,meadow,I,w,272,3,3931.9000000059605,270379.7999999821,8026,WL,A,4.0
2,14.361999988555908,learn,45638.00001144409,Thu Sep 25 2025 18:20:54 GMT-0500 (Central Daylight Time),274811.6999999881,A,meadowenter,I,enter,485,3,4431.9000000059605,270379.7999999821,8026,WL,A,4.0
2,15.111999988555908,learn,44888.00001144409,Thu Sep 25 2025 18:20:54 GMT-0500 (Central Daylight Time),275561.6999999881,A,r,I,r,737,3,749.6999999880791,274812.0,8026,WL,A,5.0
2,15.51200008392334,learn,44487.99991607666,Thu Sep 25 2025 18:20:54 GMT-0500 (Central Daylight Time),275961.5,A,ru,I,u,387,3,1149.5,274812.0,8026,WL,A,5.0
2,16.295000076293945,learn,43704.999923706055,Thu Sep 25 2025 18:20:54 GMT-0500 (Central Daylight Time),276744.59999999404,A,rug,I,g,771,3,1932.5999999940395,274812.0,8026,WL,A,5.0
2,19.82800006866455,learn,40171.99993133545,Thu Sep 25 2025 18:20:54 GMT-0500 (Central Daylight Time),280276.7999999821,A,rugenter,I,enter,3524,3,5464.799999982119,274812.0,8026,WL,A,5.0
2,22.342999935150146,learn,37657.00006484985,Thu Sep 25 2025 18:20:54 GMT-0500 (Central Daylight Time),282792.40000000596,A,s,I,s,2495,3,2515.2000000178814,280277.1999999881,8026,WL,A,6.0
2,22.55999994277954,learn,37440.00005722046,Thu Sep 25 2025 18:20:54 GMT-0500 (Central Daylight Time),283009.2999999821,A,sa,I,a,203,3,2732.0999999940395,280277.1999999881,8026,WL,A,6.0
2,22.710000038146973,learn,37289.99996185303,Thu Sep 25 2025 18:20:54 GMT-0500 (Central Daylight Time),283159.5,A,sal,I,l,139,3,2882.300000011921,280277.1999999881,8026,WL,A,6.0
2,23.259000062942505,learn,36740.999937057495,Thu Sep 25 2025 18:20:54 GMT-0500 (Central Daylight Time),283708.59999999404,A,salt,I,t,541,3,3431.4000000059605,280277.1999999881,8026,WL,A,6.0
2,23.694000005722046,learn,36305.999994277954,Thu Sep 25 2025 18:20:54 GMT-0500 (Central Daylight Time),284142.90000000596,A,saltenter,I,enter,414,3,3865.7000000178814,280277.1999999881,8026,WL,A,6.0
2,24.342000007629395,learn,35657.999992370605,Thu Sep 25 2025 18:20:54 GMT-0500 (Central Daylight Time),284791.59999999404,A,f,I,f,629,3,648.5,284143.09999999404,8026,WL,A,7.0
2,24.492000102996826,learn,35507.999897003174,Thu Sep 25 2025 18:20:54 GMT-0500 (Central Daylight Time),284941.5,A,fi,I,i,139,3,798.4000000059605,284143.09999999404,8026,WL,A,7.0
2,24.658999919891357,learn,35341.00008010864,Thu Sep 25 2025 18:20:54 GMT-0500 (Central Daylight Time),285108.2999999821,A,fin,I,n,150,3,965.1999999880791,284143.09999999404,8026,WL,A,7.0
2,24.858999967575073,learn,35141.00003242493,Thu Sep 25 2025 18:20:54 GMT-0500 (Central Daylight Time),285308.40000000596,A,fing,I,g,191,3,1165.300000011921,284143.09999999404,8026,WL,A,7.0
2,25.04200005531311,learn,34957.99994468689,Thu Sep 25 2025 18:20:54 GMT-0500 (Central Daylight Time),285491.40000000596,A,finge,I,e,175,3,1348.300000011921,284143.09999999404,8026,WL,A,7.0
2,25.191999912261963,learn,34808.00008773804,Thu Sep 25 2025 18:20:54 GMT-0500 (Central Daylight Time),285641.2999999821,A,finger,I,r,136,3,1498.199999988079,284143.09999999404,8026,WL,A,7.0
2,25.89199995994568,learn,34108.00004005432,Thu Sep 25 2025 18:20:54 GMT-0500 (Central Daylight Time),286341.0,A,fingerenter,I,enter,690,3,2197.9000000059605,284143.09999999404,8026,WL,A,7.0
2,26.674999952316284,learn,33325.000047683716,Thu Sep 25 2025 18:20:54 GMT-0500 (Central Daylight Time),287124.2999999821,A,a,I,a,766,3,783.0,286341.2999999821,8026,WL,A,8.0
2,26.94099998474121,learn,33059.00001525879,Thu Sep 25 2025 18:20:54 GMT-0500 (Central Daylight Time),287390.59999999404,A,ap,I,p,246,3,1049.300000011921,286341.2999999821,8026,WL,A,8.0
2,27.091000080108643,learn,32908.99991989136,Thu Sep 25 2025 18:20:54 GMT-0500 (Central Daylight Time),287540.90000000596,A,app,I,p,133,3,1199.6000000238419,286341.2999999821,8026,WL,A,8.0
2,27.45799994468689,learn,32542.00005531311,Thu Sep 25 2025 18:20:54 GMT-0500 (Central Daylight Time),287907.40000000596,A,appl,I,l,359,3,1566.1000000238419,286341.2999999821,8026,WL,A,8.0
2,27.72499990463257,learn,32275.00009536743,Thu Sep 25 2025 18:20:54 GMT-0500 (Central Daylight Time),288174.09999999404,A,apple,I,e,256,3,1832.800000011921,286341.2999999821,8026,WL,A,8.0
2,28.308000087738037,learn,31691.999912261963,Thu Sep 25 2025 18:20:54 GMT-0500 (Central Daylight Time),288756.90000000596,A,appleenter,I,enter,573,3,2415.600000023842,286341.2999999821,8026,WL,A,8.0
2,29.374000072479248,learn,30625.999927520752,Thu Sep 25 2025 18:20:54 GMT-0500 (Central Daylight Time),289823.5,A,g,I,g,1046,3,1066.300000011921,288757.1999999881,8026,WL,A,9.0
2,29.54100012779236,learn,30458.99987220764,Thu Sep 25 2025 18:20:54 GMT-0500 (Central Daylight Time),289989.90000000596,A,go,I,o,156,3,1232.7000000178814,288757.1999999881,8026,WL,A,9.0
2,30.10700011253357,learn,29892.99988746643,Thu Sep 25 2025 18:20:54 GMT-0500 (Central Daylight Time),290556.40000000596,A,gol,I,l,549,3,1799.2000000178814,288757.1999999881,8026,WL,A,9.0
2,30.94000005722046,learn,29059.99994277954,Thu Sep 25 2025 18:20:54 GMT-0500 (Central Daylight Time),291389.59999999404,A,gold,I,d,823,3,2632.4000000059605,288757.1999999881,8026,WL,A,9.0
2,31.372999906539917,learn,28627.000093460083,Thu Sep 25 2025 18:20:54 GMT-0500 (Central Daylight Time),291822.59999999404,A,goldenter,I,enter,414,3,3065.4000000059605,288757.1999999881,8026,WL,A,9.0
2,31.990000009536743,learn,28009.999990463257,Thu Sep 25 2025 18:20:54 GMT-0500 (Central Daylight Time),292439.1999999881,A,k,I,k,605,3,616.4000000059605,291822.7999999821,8026,WL,A,10.0
2,32.25600004196167,learn,27743.99995803833,Thu Sep 25 2025 18:20:54 GMT-0500 (Central Daylight Time),292705.6999999881,A,ke,I,e,252,3,882.9000000059605,291822.7999999821,8026,WL,A,10.0
2,32.58999991416931,learn,27410.00008583069,Thu Sep 25 2025 18:20:54 GMT-0500 (Central Daylight Time),293039.0,A,key,I,y,321,3,1216.2000000178814,291822.7999999821,8026,WL,A,10.0
2,33.240999937057495,learn,26759.000062942505,Thu Sep 25 2025 18:20:54 GMT-0500 (Central Daylight Time),293690.2999999821,A,keyenter,I,enter,637,3,1867.5,291822.7999999821,8026,WL,A,10.0
2,34.78999996185303,learn,25210.000038146973,Thu Sep 25 2025 18:20:54 GMT-0500 (Central Daylight Time),295238.90000000596,A,l,I,l,1530,3,1548.2000000178814,293690.6999999881,8026,WL,A,11.0
2,35.371999979019165,learn,24628.000020980835,Thu Sep 25 2025 18:20:54 GMT-0500 (Central Daylight Time),295821.59999999404,A,lo,I,o,565,3,2130.9000000059605,293690.6999999881,8026,WL,A,11.0
2,35.67199993133545,learn,24328.00006866455,Thu Sep 25 2025 18:20:54 GMT-0500 (Central Daylight Time),296121.59999999404,A,log,I,g,294,3,2430.9000000059605,293690.6999999881,8026,WL,A,11.0
2,36.039000034332275,learn,23960.999965667725,Thu Sep 25 2025 18:20:54 GMT-0500 (Central Daylight Time),296488.5,A,logenter,I,enter,355,3,2797.800000011921,293690.6999999881,8026,WL,A,11.0
2,36.57200002670288,learn,23427.99997329712,Thu Sep 25 2025 18:20:54 GMT-0500 (Central Daylight Time),297021.59999999404,A,c,I,c,516,3,532.6999999880791,296488.90000000596,8026,WL,A,12.0
2,36.72099995613098,learn,23279.00004386902,Thu Sep 25 2025 18:20:54 GMT-0500 (Central Daylight Time),297171.1999999881,A,ch,I,h,135,3,682.2999999821186,296488.90000000596,8026,WL,A,12.0
2,36.90499997138977,learn,23095.00002861023,Thu Sep 25 2025 18:20:54 GMT-0500 (Central Daylight Time),297354.40000000596,A,chi,I,i,177,3,865.5,296488.90000000596,8026,WL,A,12.0
2,37.17199993133545,learn,22828.00006866455,Thu Sep 25 2025 18:20:54 GMT-0500 (Central Daylight Time),297621.40000000596,A,chim,I,m,258,3,1132.5,296488.90000000596,8026,WL,A,12.0
2,37.704999923706055,learn,22295.000076293945,Thu Sep 25 2025 18:20:54 GMT-0500 (Central Daylight Time),298155.1999999881,A,chimn,I,n,519,3,1666.2999999821186,296488.90000000596,8026,WL,A,12.0
2,37.98799991607666,learn,22012.00008392334,Thu Sep 25 2025 18:20:54 GMT-0500 (Central Daylight Time),298437.6999999881,A,chimne,I,e,274,3,1948.7999999821186,296488.90000000596,8026,WL,A,12.0
2,38.32100009918213,learn,21678.99990081787,Thu Sep 25 2025 18:20:54 GMT-0500 (Central Daylight Time),298771.09999999404,A,chimney,I,y,319,3,2282.199999988079,296488.90000000596,8026,WL,A,12.0
2,38.770999908447266,learn,21229.000091552734,Thu Sep 25 2025 18:20:54 GMT-0500 (Central Daylight Time),299220.90000000596,A,chimneyenter,I,enter,433,3,2732.0,296488.90000000596,8026,WL,A,12.0
2,41.8199999332428,learn,18180.000066757202,Thu Sep 25 2025 18:20:54 GMT-0500 (Central Daylight Time),302269.7999999821,A,r,I,r,3031,3,3048.5999999940395,299221.1999999881,8026,WL,A,13.0
2,41.95300006866455,learn,18046.99993133545,Thu Sep 25 2025 18:20:54 GMT-0500 (Central Daylight Time),302403.0,A,ra,I,a,119,3,3181.800000011921,299221.1999999881,8026,WL,A,13.0
2,42.170000076293945,learn,17829.999923706055,Thu Sep 25 2025 18:20:54 GMT-0500 (Central Daylight Time),302619.6999999881,A,rat,I,t,201,3,3398.5,299221.1999999881,8026,WL,A,13.0
2,42.30299997329712,learn,17697.00002670288,Thu Sep 25 2025 18:20:54 GMT-0500 (Central Daylight Time),302753.09999999404,A,ratt,I,t,128,3,3531.9000000059605,299221.1999999881,8026,WL,A,13.0
2,42.63700008392334,learn,17362.99991607666,Thu Sep 25 2025 18:20:54 GMT-0500 (Central Daylight Time),303086.40000000596,A,rattl,I,l,324,3,3865.2000000178814,299221.1999999881,8026,WL,A,13.0
2,42.753000020980835,learn,17246.999979019165,Thu Sep 25 2025 18:20:54 GMT-0500 (Central Daylight Time),303203.0,A,rattle,I,e,101,3,3981.800000011921,299221.1999999881,8026,WL,A,13.0
2,43.12000012397766,learn,16879.99987602234,Thu Sep 25 2025 18:20:54 GMT-0500 (Central Daylight Time),303569.5,A,rattleenter,I,enter,354,3,4348.300000011921,299221.1999999881,8026,WL,A,13.0
2,47.68499994277954,learn,12315.000057220459,Thu Sep 25 2025 18:20:54 GMT-0500 (Central Daylight Time),308134.7999999821,A,h,I,h,4555,3,4565.0,303569.7999999821,8026,WL,A,14.0
2,47.78500008583069,learn,12214.999914169312,Thu Sep 25 2025 18:20:54 GMT-0500 (Central Daylight Time),308234.59999999404,A,ha,I,a,93,3,4664.800000011921,303569.7999999821,8026,WL,A,14.0
2,48.28500008583069,learn,11714.999914169312,Thu Sep 25 2025 18:20:54 GMT-0500 (Central Daylight Time),308734.40000000596,A,har,I,r,482,3,5164.600000023842,303569.7999999821,8026,WL,A,14.0
2,48.568000078201294,learn,11431.999921798706,Thu Sep 25 2025 18:20:54 GMT-0500 (Central Daylight Time),309017.7999999821,A,harp,I,p,270,3,5448.0,303569.7999999821,8026,WL,A,14.0
2,48.96799993515015,learn,11032.000064849854,Thu Sep 25 2025 18:20:54 GMT-0500 (Central Daylight Time),309417.59999999404,A,harpenter,I,enter,386,3,5847.800000011921,303569.7999999821,8026,WL,A,14.0
2,60.015000104904175,learn,-15.000104904174805,Thu Sep 25 2025 18:20:54 GMT-0500 (Central Daylight Time),320465.1999999881,A,None,I,None,11042,3,11047.0,309418.1999999881,8026,WL,A,15.0
3,0.5499999523162842,learn,59450.000047683716,Thu Sep 25 2025 18:20:54 GMT-0500 (Central Daylight Time),389709.09999999404,A,b,I,b,542,3,549.5999999940395,389159.5,8026,WL,A,1.0
3,0.8329999446868896,learn,59167.00005531311,Thu Sep 25 2025 18:20:54 GMT-0500 (Central Daylight Time),389992.5,A,bo,I,o,278,3,833.0,389159.5,8026,WL,A,1.0
3,1.0,learn,59000.0,Thu Sep 25 2025 18:20:54 GMT-0500 (Central Daylight Time),390158.7999999821,A,boo,I,o,148,3,999.2999999821186,389159.5,8026,WL,A,1.0
3,1.2999999523162842,learn,58700.000047683716,Thu Sep 25 2025 18:20:54 GMT-0500 (Central Daylight Time),390458.90000000596,A,book,I,k,284,3,1299.4000000059605,389159.5,8026,WL,A,1.0
3,1.6989998817443848,learn,58301.000118255615,Thu Sep 25 2025 18:20:54 GMT-0500 (Central Daylight Time),390858.6999999881,A,bookenter,I,enter,386,3,1699.199999988079,389159.5,8026,WL,A,1.0
3,2.632999897003174,learn,57367.000102996826,Thu Sep 25 2025 18:20:54 GMT-0500 (Central Daylight Time),391791.90000000596,A,f,I,f,914,3,932.9000000059605,390859.0,8026,WL,A,2.0
3,2.7319998741149902,learn,57268.00012588501,Thu Sep 25 2025 18:20:54 GMT-0500 (Central Daylight Time),391891.6999999881,A,fl,I,l,84,3,1032.699999988079,390859.0,8026,WL,A,2.0
3,2.9819998741149902,learn,57018.00012588501,Thu Sep 25 2025 18:20:54 GMT-0500 (Central Daylight Time),392141.59999999404,A,flo,I,o,233,3,1282.5999999940395,390859.0,8026,WL,A,2.0
3,3.1659998893737793,learn,56834.00011062622,Thu Sep 25 2025 18:20:54 GMT-0500 (Central Daylight Time),392324.7999999821,A,flow,I,w,166,3,1465.7999999821186,390859.0,8026,WL,A,2.0
3,3.2990000247955322,learn,56700.99997520447,Thu Sep 25 2025 18:20:54 GMT-0500 (Central Daylight Time),392458.0,A,flowe,I,e,128,3,1599.0,390859.0,8026,WL,A,2.0
3,3.7149999141693115,learn,56285.00008583069,Thu Sep 25 2025 18:20:54 GMT-0500 (Central Daylight Time),392874.6999999881,A,flower,I,r,411,3,2015.699999988079,390859.0,8026,WL,A,2.0
3,4.398999929428101,learn,55601.0000705719,Thu Sep 25 2025 18:20:54 GMT-0500 (Central Daylight Time),393557.7999999821,A,flowerenter,I,enter,665,3,2698.7999999821186,390859.0,8026,WL,A,2.0
3,5.131999969482422,learn,54868.00003051758,Thu Sep 25 2025 18:20:54 GMT-0500 (Central Daylight Time),394291.0,A,t,I,t,727,3,732.9000000059605,393558.09999999404,8026,WL,A,3.0
3,5.758999824523926,learn,54241.000175476074,Thu Sep 25 2025 18:20:54 GMT-0500 (Central Daylight Time),394918.09999999404,A,tr,I,r,622,3,1360.0,393558.09999999404,8026,WL,A,3.0
3,5.931999921798706,learn,54068.000078201294,Thu Sep 25 2025 18:20:54 GMT-0500 (Central Daylight Time),395091.40000000596,A,tra,I,a,151,3,1533.300000011921,393558.09999999404,8026,WL,A,3.0
3,6.115000009536743,learn,53884.99999046326,Thu Sep 25 2025 18:20:54 GMT-0500 (Central Daylight Time),395274.0,A,trai,I,i,159,3,1715.9000000059605,393558.09999999404,8026,WL,A,3.0
3,6.264999866485596,learn,53735.000133514404,Thu Sep 25 2025 18:20:54 GMT-0500 (Central Daylight Time),395423.90000000596,A,train,I,n,137,3,1865.800000011921,393558.09999999404,8026,WL,A,3.0
3,6.597999811172485,learn,53402.000188827515,Thu Sep 25 2025 18:20:54 GMT-0500 (Central Daylight Time),395757.09999999404,A,trainenter,I,enter,317,3,2199.0,393558.09999999404,8026,WL,A,3.0
3,7.447999954223633,learn,52552.00004577637,Thu Sep 25 2025 18:20:54 GMT-0500 (Central Daylight Time),396606.7999999821,A,r,I,r,832,3,849.3999999761581,395757.40000000596,8026,WL,A,4.0
3,9.429999828338623,learn,50570.00017166138,Thu Sep 25 2025 18:20:54 GMT-0500 (Central Daylight Time),398589.59999999404,A,ru,I,u,1973,3,2832.199999988079,395757.40000000596,8026,WL,A,4.0
3,9.929999828338623,learn,50070.00017166138,Thu Sep 25 2025 18:20:54 GMT-0500 (Central Daylight Time),399089.40000000596,A,rug,I,g,495,3,3332.0,395757.40000000596,8026,WL,A,4.0
3,11.413999795913696,learn,48586.000204086304,Thu Sep 25 2025 18:20:54 GMT-0500 (Central Daylight Time),400572.90000000596,A,rugenter,I,enter,1475,3,4815.5,395757.40000000596,8026,WL,A,4.0
3,12.513000011444092,learn,47486.99998855591,Thu Sep 25 2025 18:20:54 GMT-0500 (Central Daylight Time),401672.2999999821,A,m,I,m,1088,3,1099.199999988079,400573.09999999404,8026,WL,A,5.0
3,12.678999900817871,learn,47321.00009918213,Thu Sep 25 2025 18:20:54 GMT-0500 (Central Daylight Time),401838.59999999404,A,me,I,e,148,3,1265.5,400573.09999999404,8026,WL,A,5.0
3,12.828999996185303,learn,47171.0000038147,Thu Sep 25 2025 18:20:54 GMT-0500 (Central Daylight Time),401988.2999999821,A,mea,I,a,142,3,1415.199999988079,400573.09999999404,8026,WL,A,5.0
3,13.11299991607666,learn,46887.00008392334,Thu Sep 25 2025 18:20:54 GMT-0500 (Central Daylight Time),402271.7999999821,A,mead,I,d,272,3,1698.699999988079,400573.09999999404,8026,WL,A,5.0
3,13.36299991607666,learn,46637.00008392334,Thu Sep 25 2025 18:20:54 GMT-0500 (Central Daylight Time),402521.90000000596,A,meado,I,o,237,3,1948.800000011921,400573.09999999404,8026,WL,A,5.0
3,13.562999963760376,learn,46437.000036239624,Thu Sep 25 2025 18:20:54 GMT-0500 (Central Daylight Time),402721.90000000596,A,meadow,I,w,187,3,2148.800000011921,400573.09999999404,8026,WL,A,5.0
3,14.211999893188477,learn,45788.00010681152,Thu Sep 25 2025 18:20:54 GMT-0500 (Central Daylight Time),403371.5,A,meadowenter,I,enter,635,3,2798.4000000059605,400573.09999999404,8026,WL,A,5.0
3,15.727999925613403,learn,44272.0000743866,Thu Sep 25 2025 18:20:54 GMT-0500 (Central Daylight Time),404887.59999999404,A,c,I,c,1505,3,1515.800000011921,403371.7999999821,8026,WL,A,6.0
3,15.944999933242798,learn,44055.0000667572,Thu Sep 25 2025 18:20:54 GMT-0500 (Central Daylight Time),405104.09999999404,A,ch,I,h,205,3,1732.300000011921,403371.7999999821,8026,WL,A,6.0
3,16.161999940872192,learn,43838.00005912781,Thu Sep 25 2025 18:20:54 GMT-0500 (Central Daylight Time),405320.90000000596,A,chi,I,i,196,3,1949.1000000238419,403371.7999999821,8026,WL,A,6.0
3,16.527999877929688,learn,43472.00012207031,Thu Sep 25 2025 18:20:54 GMT-0500 (Central Daylight Time),405687.2999999821,A,chim,I,m,356,3,2315.5,403371.7999999821,8026,WL,A,6.0
3,16.860999822616577,learn,43139.00017738342,Thu Sep 25 2025 18:20:54 GMT-0500 (Central Daylight Time),406020.59999999404,A,chimn,I,n,317,3,2648.800000011921,403371.7999999821,8026,WL,A,6.0
3,16.977999925613403,learn,43022.0000743866,Thu Sep 25 2025 18:20:54 GMT-0500 (Central Daylight Time),406137.09999999404,A,chimne,I,e,96,3,2765.300000011921,403371.7999999821,8026,WL,A,6.0
3,17.360999822616577,learn,42639.00017738342,Thu Sep 25 2025 18:20:54 GMT-0500 (Central Daylight Time),406520.59999999404,A,chimney,I,y,363,3,3148.800000011921,403371.7999999821,8026,WL,A,6.0
3,18.16100001335144,learn,41838.99998664856,Thu Sep 25 2025 18:20:54 GMT-0500 (Central Daylight Time),407320.1999999881,A,chimneyenter,I,enter,788,3,3948.4000000059605,403371.7999999821,8026,WL,A,6.0
3,20.310999870300293,learn,39689.00012969971,Thu Sep 25 2025 18:20:54 GMT-0500 (Central Daylight Time),409469.7999999821,A,b,I,b,2140,3,2149.199999988079,407320.59999999404,8026,WL,A,7.0
3,20.592999935150146,learn,39407.00006484985,Thu Sep 25 2025 18:20:54 GMT-0500 (Central Daylight Time),409752.6999999881,A,bu,I,u,271,3,2432.0999999940395,407320.59999999404,8026,WL,A,7.0
3,20.944000005722046,learn,39055.999994277954,Thu Sep 25 2025 18:20:54 GMT-0500 (Central Daylight Time),410102.7999999821,A,but,I,t,332,3,2782.199999988079,407320.59999999404,8026,WL,A,7.0
3,21.092999935150146,learn,38907.00006484985,Thu Sep 25 2025 18:20:54 GMT-0500 (Central Daylight Time),410252.5,A,butt,I,t,134,3,2931.9000000059605,407320.59999999404,8026,WL,A,7.0
3,21.342999935150146,learn,38657.00006484985,Thu Sep 25 2025 18:20:54 GMT-0500 (Central Daylight Time),410502.5,A,butto,I,o,240,3,3181.9000000059605,407320.59999999404,8026,WL,A,7.0
3,21.625999927520752,learn,38374.00007247925,Thu Sep 25 2025 18:20:54 GMT-0500 (Central Daylight Time),410785.6999999881,A,button,I,n,278,3,3465.0999999940395,407320.59999999404,8026,WL,A,7.0
3,22.625999927520752,learn,37374.00007247925,Thu Sep 25 2025 18:20:54 GMT-0500 (Central Daylight Time),411785.40000000596,A,buttonenter,I,enter,987,3,4464.800000011921,407320.59999999404,8026,WL,A,7.0
3,23.54199981689453,learn,36458.00018310547,Thu Sep 25 2025 18:20:54 GMT-0500 (Central Daylight Time),412701.59999999404,A,l,I,l,906,3,915.8000000119209,411785.7999999821,8026,WL,A,8.0
3,23.758999824523926,learn,36241.000175476074,Thu Sep 25 2025 18:20:54 GMT-0500 (Central Daylight Time),412918.40000000596,A,lo,I,o,207,3,1132.6000000238419,411785.7999999821,8026,WL,A,8.0
3,24.709999799728394,learn,35290.00020027161,Thu Sep 25 2025 18:20:54 GMT-0500 (Central Daylight Time),413869.1999999881,A,log,I,g,933,3,2083.4000000059605,411785.7999999821,8026,WL,A,8.0
3,25.875,learn,34125.0,Thu Sep 25 2025 18:20:54 GMT-0500 (Central Daylight Time),415034.5,A,logenter,I,enter,1151,3,3248.7000000178814,411785.7999999821,8026,WL,A,8.0
3,27.840999841690063,learn,32159.000158309937,Thu Sep 25 2025 18:20:54 GMT-0500 (Central Daylight Time),417000.6999999881,A,h,I,h,1954,3,1965.7999999821186,415034.90000000596,8026,WL,A,9.0
3,27.94099998474121,learn,32059.00001525879,Thu Sep 25 2025 18:20:54 GMT-0500 (Central Daylight Time),417100.5,A,ha,I,a,91,3,2065.5999999940395,415034.90000000596,8026,WL,A,9.0
3,28.207000017166138,learn,31792.999982833862,Thu Sep 25 2025 18:20:54 GMT-0500 (Central Daylight Time),417367.09999999404,A,har,I,r,255,3,2332.199999988079,415034.90000000596,8026,WL,A,9.0
3,28.590999841690063,learn,31409.000158309937,Thu Sep 25 2025 18:20:54 GMT-0500 (Central Daylight Time),417750.40000000596,A,harp,I,p,366,3,2715.5,415034.90000000596,8026,WL,A,9.0
3,29.006999969482422,learn,30993.000030517578,Thu Sep 25 2025 18:20:54 GMT-0500 (Central Daylight Time),418166.90000000596,A,harpenter,I,enter,406,3,3132.0,415034.90000000596,8026,WL,A,9.0
3,33.27300000190735,learn,26726.99999809265,Thu Sep 25 2025 18:20:54 GMT-0500 (Central Daylight Time),422432.1999999881,A,g,I,g,4254,3,4265.0,418167.1999999881,8026,WL,A,10.0
3,33.45599985122681,learn,26544.000148773193,Thu Sep 25 2025 18:20:54 GMT-0500 (Central Daylight Time),422615.1999999881,A,go,I,o,171,3,4448.0,418167.1999999881,8026,WL,A,10.0
3,33.888999938964844,learn,26111.000061035156,Thu Sep 25 2025 18:20:54 GMT-0500 (Central Daylight Time),423048.5,A,gol,I,l,414,3,4881.300000011921,418167.1999999881,8026,WL,A,10.0
3,34.28999996185303,learn,25710.000038146973,Thu Sep 25 2025 18:20:54 GMT-0500 (Central Daylight Time),423449.2999999821,A,gold,I,d,396,3,5282.0999999940395,418167.1999999881,8026,WL,A,10.0
3,34.638999938964844,learn,25361.000061035156,Thu Sep 25 2025 18:20:54 GMT-0500 (Central Daylight Time),423798.40000000596,A,goldenter,I,enter,339,3,5631.200000017881,418167.1999999881,8026,WL,A,10.0
3,35.105000019073486,learn,24894.999980926514,Thu Sep 25 2025 18:20:54 GMT-0500 (Central Daylight Time),424264.59999999404,A,k,I,k,453,3,466.0,423798.59999999404,8026,WL,A,11.0
3,35.22199988365173,learn,24778.000116348267,Thu Sep 25 2025 18:20:54 GMT-0500 (Central Daylight Time),424381.5,A,ke,I,e,100,3,582.9000000059605,423798.59999999404,8026,WL,A,11.0
3,35.53999996185303,learn,24460.000038146973,Thu Sep 25 2025 18:20:54 GMT-0500 (Central Daylight Time),424699.1999999881,A,key,I,y,311,3,900.5999999940395,423798.59999999404,8026,WL,A,11.0
3,35.787999868392944,learn,24212.000131607056,Thu Sep 25 2025 18:20:54 GMT-0500 (Central Daylight Time),424948.0,A,keyenter,I,enter,241,3,1149.4000000059605,423798.59999999404,8026,WL,A,11.0
3,37.13800001144409,learn,22861.99998855591,Thu Sep 25 2025 18:20:54 GMT-0500 (Central Daylight Time),426297.40000000596,A,r,I,r,1337,3,1349.0,424948.40000000596,8026,WL,A,12.0
3,37.30399990081787,learn,22696.00009918213,Thu Sep 25 2025 18:20:54 GMT-0500 (Central Daylight Time),426464.1999999881,A,ra,I,a,155,3,1515.7999999821186,424948.40000000596,8026,WL,A,12.0
3,37.520999908447266,learn,22479.000091552734,Thu Sep 25 2025 18:20:54 GMT-0500 (Central Daylight Time),426680.6999999881,A,rat,I,t,196,3,1732.2999999821186,424948.40000000596,8026,WL,A,12.0
3,37.63800001144409,learn,22361.99998855591,Thu Sep 25 2025 18:20:54 GMT-0500 (Central Daylight Time),426797.5,A,ratt,I,t,108,3,1849.0999999940395,424948.40000000596,8026,WL,A,12.0
3,38.28699994087219,learn,21713.000059127808,Thu Sep 25 2025 18:20:54 GMT-0500 (Central Daylight Time),427447.09999999404,A,rattl,I,l,631,3,2498.699999988079,424948.40000000596,8026,WL,A,12.0
3,38.436999797821045,learn,21563.000202178955,Thu Sep 25 2025 18:20:54 GMT-0500 (Central Daylight Time),427597.09999999404,A,rattle,I,e,141,3,2648.699999988079,424948.40000000596,8026,WL,A,12.0
3,39.020999908447266,learn,20979.000091552734,Thu Sep 25 2025 18:20:54 GMT-0500 (Central Daylight Time),428180.40000000596,A,rattleenter,I,enter,567,3,3232.0,424948.40000000596,8026,WL,A,12.0
3,43.9689998626709,learn,16031.000137329102,Thu Sep 25 2025 18:20:54 GMT-0500 (Central Daylight Time),433128.7999999821,A,s,I,s,4936,3,4948.0,428180.7999999821,8026,WL,A,13.0
3,44.168999910354614,learn,15831.000089645386,Thu Sep 25 2025 18:20:54 GMT-0500 (Central Daylight Time),433329.09999999404,A,sa,I,a,180,3,5148.300000011921,428180.7999999821,8026,WL,A,13.0
3,44.30199980735779,learn,15698.000192642212,Thu Sep 25 2025 18:20:54 GMT-0500 (Central Daylight Time),433462.0,A,sal,I,l,122,3,5281.200000017881,428180.7999999821,8026,WL,A,13.0
3,44.80199980735779,learn,15198.000192642212,Thu Sep 25 2025 18:20:54 GMT-0500 (Central Daylight Time),433961.59999999404,A,salt,I,t,494,3,5780.800000011921,428180.7999999821,8026,WL,A,13.0
3,46.20199990272522,learn,13798.00009727478,Thu Sep 25 2025 18:20:54 GMT-0500 (Central Daylight Time),435361.2999999821,A,saltenter,I,enter,1395,3,7180.5,428180.7999999821,8026,WL,A,13.0
3,46.584999799728394,learn,13415.000200271606,Thu Sep 25 2025 18:20:54 GMT-0500 (Central Daylight Time),435744.59999999404,A,f,I,f,371,3,383.0,435361.59999999404,8026,WL,A,14.0
3,46.71799993515015,learn,13282.000064849854,Thu Sep 25 2025 18:20:54 GMT-0500 (Central Daylight Time),435877.7999999821,A,fi,I,i,116,3,516.1999999880791,435361.59999999404,8026,WL,A,14.0
3,46.85199999809265,learn,13148.000001907349,Thu Sep 25 2025 18:20:54 GMT-0500 (Central Daylight Time),436011.2999999821,A,fin,I,n,118,3,649.6999999880791,435361.59999999404,8026,WL,A,14.0
3,47.03499984741211,learn,12965.00015258789,Thu Sep 25 2025 18:20:54 GMT-0500 (Central Daylight Time),436194.40000000596,A,fing,I,g,177,3,832.8000000119209,435361.59999999404,8026,WL,A,14.0
3,47.234999895095825,learn,12765.000104904175,Thu Sep 25 2025 18:20:54 GMT-0500 (Central Daylight Time),436394.2999999821,A,finge,I,e,186,3,1032.699999988079,435361.59999999404,8026,WL,A,14.0
3,47.38499999046326,learn,12615.000009536743,Thu Sep 25 2025 18:20:54 GMT-0500 (Central Daylight Time),436544.59999999404,A,finger,I,r,129,3,1183.0,435361.59999999404,8026,WL,A,14.0
3,47.78499984741211,learn,12215.00015258789,Thu Sep 25 2025 18:20:54 GMT-0500 (Central Daylight Time),436944.40000000596,A,fingerenter,I,enter,380,3,1582.800000011921,435361.59999999404,8026,WL,A,14.0
3,48.151000022888184,learn,11848.999977111816,Thu Sep 25 2025 18:20:54 GMT-0500 (Central Daylight Time),437310.7999999821,A,a,I,a,356,3,366.09999999403954,436944.6999999881,8026,WL,A,15.0
3,48.300999879837036,learn,11699.000120162964,Thu Sep 25 2025 18:20:54 GMT-0500 (Central Daylight Time),437460.6999999881,A,ap,I,p,134,3,516.0,436944.6999999881,8026,WL,A,15.0
3,48.43400001525879,learn,11565.999984741211,Thu Sep 25 2025 18:20:54 GMT-0500 (Central Daylight Time),437593.90000000596,A,app,I,p,128,3,649.2000000178814,436944.6999999881,8026,WL,A,15.0
3,48.651000022888184,learn,11348.999977111816,Thu Sep 25 2025 18:20:54 GMT-0500 (Central Daylight Time),437810.2999999821,A,appl,I,l,210,3,865.5999999940395,436944.6999999881,8026,WL,A,15.0
3,48.75099992752075,learn,11249.000072479248,Thu Sep 25 2025 18:20:54 GMT-0500 (Central Daylight Time),437910.6999999881,A,apple,I,e,82,3,966.0,436944.6999999881,8026,WL,A,15.0
3,48.98399996757507,learn,11016.000032424927,Thu Sep 25 2025 18:20:54 GMT-0500 (Central Daylight Time),438143.7999999821,A,appleenter,I,enter,213,3,1199.0999999940395,436944.6999999881,8026,WL,A,15.0
4,0.8000001907348633,learn,59199.99980926514,Thu Sep 25 2025 18:20:54 GMT-0500 (Central Daylight Time),508271.90000000596,A,b,I,b,788,3,799.7000000178814,507472.1999999881,8026,WL,A,1.0
4,1.0830001831054688,learn,58916.99981689453,Thu Sep 25 2025 18:20:54 GMT-0500 (Central Daylight Time),508554.7999999821,A,bo,I,o,274,3,1082.5999999940395,507472.1999999881,8026,WL,A,1.0
4,1.249000072479248,learn,58750.99992752075,Thu Sep 25 2025 18:20:54 GMT-0500 (Central Daylight Time),508721.40000000596,A,boo,I,o,161,3,1249.2000000178814,507472.1999999881,8026,WL,A,1.0
4,1.5490000247955322,learn,58450.99997520447,Thu Sep 25 2025 18:20:54 GMT-0500 (Central Daylight Time),509021.2999999821,A,book,I,k,282,3,1549.0999999940395,507472.1999999881,8026,WL,A,1.0
4,1.9660000801086426,learn,58033.99991989136,Thu Sep 25 2025 18:20:54 GMT-0500 (Central Daylight Time),509437.90000000596,A,bookenter,I,enter,406,3,1965.7000000178814,507472.1999999881,8026,WL,A,1.0
4,2.7330000400543213,learn,57266.99995994568,Thu Sep 25 2025 18:20:54 GMT-0500 (Central Daylight Time),510204.6999999881,A,f,I,f,758,3,766.5,509438.1999999881,8026,WL,A,2.0
4,3.0820000171661377,learn,56917.99998283386,Thu Sep 25 2025 18:20:54 GMT-0500 (Central Daylight Time),510554.5,A,fl,I,l,336,3,1116.300000011921,509438.1999999881,8026,WL,A,2.0
4,3.3990001678466797,learn,56600.99983215332,Thu Sep 25 2025 18:20:54 GMT-0500 (Central Daylight Time),510871.0,A,flo,I,o,306,3,1432.800000011921,509438.1999999881,8026,WL,A,2.0
4,3.615000009536743,learn,56384.99999046326,Thu Sep 25 2025 18:20:54 GMT-0500 (Central Daylight Time),511087.59999999404,A,flow,I,w,204,3,1649.4000000059605,509438.1999999881,8026,WL,A,2.0
4,3.765000104904175,learn,56234.999895095825,Thu Sep 25 2025 18:20:54 GMT-0500 (Central Daylight Time),511237.5,A,flowe,I,e,133,3,1799.300000011921,509438.1999999881,8026,WL,A,2.0
4,3.999000072479248,learn,56000.99992752075,Thu Sep 25 2025 18:20:54 GMT-0500 (Central Daylight Time),511470.6999999881,A,flower,I,r,215,3,2032.5,509438.1999999881,8026,WL,A,2.0
4,4.498000144958496,learn,55501.999855041504,Thu Sep 25 2025 18:20:54 GMT-0500 (Central Daylight Time),511970.5,A,flowerenter,I,enter,494,3,2532.300000011921,509438.1999999881,8026,WL,A,2.0
4,5.313000202178955,learn,54686.999797821045,Thu Sep 25 2025 18:20:54 GMT-0500 (Central Daylight Time),512785.0,A,t,I,t,810,3,814.3000000119209,511970.6999999881,8026,WL,A,3.0
4,5.5320000648498535,learn,54467.99993515015,Thu Sep 25 2025 18:20:54 GMT-0500 (Central Daylight Time),513003.6999999881,A,tr,I,r,210,3,1033.0,511970.6999999881,8026,WL,A,3.0
4,5.815000057220459,learn,54184.99994277954,Thu Sep 25 2025 18:20:54 GMT-0500 (Central Daylight Time),513287.09999999404,A,tra,I,a,265,3,1316.4000000059605,511970.6999999881,8026,WL,A,3.0
4,6.015000104904175,learn,53984.999895095825,Thu Sep 25 2025 18:20:54 GMT-0500 (Central Daylight Time),513486.7999999821,A,trai,I,i,181,3,1516.0999999940395,511970.6999999881,8026,WL,A,3.0
4,6.148000001907349,learn,53851.99999809265,Thu Sep 25 2025 18:20:54 GMT-0500 (Central Daylight Time),513620.2999999821,A,train,I,n,117,3,1649.5999999940395,511970.6999999881,8026,WL,A,3.0
4,6.731000185012817,learn,53268.99981498718,Thu Sep 25 2025 18:20:54 GMT-0500 (Central Daylight Time),514203.2999999821,A,trainenter,I,enter,568,3,2232.5999999940395,511970.6999999881,8026,WL,A,3.0
4,7.430999994277954,learn,52569.000005722046,Thu Sep 25 2025 18:20:54 GMT-0500 (Central Daylight Time),514903.40000000596,A,r,I,r,681,3,699.7000000178814,514203.6999999881,8026,WL,A,4.0
4,7.680999994277954,learn,52319.000005722046,Thu Sep 25 2025 18:20:54 GMT-0500 (Central Daylight Time),515152.7999999821,A,ru,I,u,243,3,949.0999999940395,514203.6999999881,8026,WL,A,4.0
4,8.63100004196167,learn,51368.99995803833,Thu Sep 25 2025 18:20:54 GMT-0500 (Central Daylight Time),516102.7999999821,A,rug,I,g,932,3,1899.0999999940395,514203.6999999881,8026,WL,A,4.0
4,9.264000177383423,learn,50735.99982261658,Thu Sep 25 2025 18:20:54 GMT-0500 (Central Daylight Time),516735.7999999821,A,rugenter,I,enter,613,3,2532.0999999940395,514203.6999999881,8026,WL,A,4.0
4,11.34600019454956,learn,48653.99980545044,Thu Sep 25 2025 18:20:54 GMT-0500 (Central Daylight Time),518818.59999999404,A,n,I,n,2069,3,2082.5,516736.09999999404,8026,WL,A,5.0
4,12.196000099182129,learn,47803.99990081787,Thu Sep 25 2025 18:20:54 GMT-0500 (Central Daylight Time),519668.1999999881,A,,I,backspace,842,3,2932.0999999940395,516736.09999999404,8026,WL,A,5.0
4,12.546000003814697,learn,47453.9999961853,Thu Sep 25 2025 18:20:54 GMT-0500 (Central Daylight Time),520017.90000000596,A,m,I,m,345,3,3281.800000011921,516736.09999999404,8026,WL,A,5.0
4,12.696000099182129,learn,47303.99990081787,Thu Sep 25 2025 18:20:54 GMT-0500 (Central Daylight Time),520167.7999999821,A,me,I,e,137,3,3431.699999988079,516736.09999999404,8026,WL,A,5.0
4,12.879000186920166,learn,47120.999813079834,Thu Sep 25 2025 18:20:54 GMT-0500 (Central Daylight Time),520351.0,A,mea,I,a,171,3,3614.9000000059605,516736.09999999404,8026,WL,A,5.0
4,13.146000146865845,learn,46853.999853134155,Thu Sep 25 2025 18:20:54 GMT-0500 (Central Daylight Time),520617.6999999881,A,mead,I,d,261,3,3881.5999999940395,516736.09999999404,8026,WL,A,5.0
4,13.42900013923645,learn,46570.99986076355,Thu Sep 25 2025 18:20:54 GMT-0500 (Central Daylight Time),520900.90000000596,A,meado,I,o,266,3,4164.800000011921,516736.09999999404,8026,WL,A,5.0
4,13.545000076293945,learn,46454.999923706055,Thu Sep 25 2025 18:20:54 GMT-0500 (Central Daylight Time),521017.59999999404,A,meadow,I,w,111,3,4281.5,516736.09999999404,8026,WL,A,5.0
4,13.979000091552734,learn,46020.999908447266,Thu Sep 25 2025 18:20:54 GMT-0500 (Central Daylight Time),521450.7999999821,A,meadowenter,I,enter,417,3,4714.699999988079,516736.09999999404,8026,WL,A,5.0
4,14.545000076293945,learn,45454.999923706055,Thu Sep 25 2025 18:20:54 GMT-0500 (Central Daylight Time),522017.1999999881,A,c,I,c,553,3,566.1999999880791,521451.0,8026,WL,A,6.0
4,14.729000091552734,learn,45270.999908447266,Thu Sep 25 2025 18:20:54 GMT-0500 (Central Daylight Time),522200.7999999821,A,ch,I,h,178,3,749.7999999821186,521451.0,8026,WL,A,6.0
4,14.945000171661377,learn,45054.99982833862,Thu Sep 25 2025 18:20:54 GMT-0500 (Central Daylight Time),522417.09999999404,A,chi,I,i,210,3,966.0999999940395,521451.0,8026,WL,A,6.0
4,15.195000171661377,learn,44804.99982833862,Thu Sep 25 2025 18:20:54 GMT-0500 (Central Daylight Time),522667.09999999404,A,chim,I,m,234,3,1216.0999999940395,521451.0,8026,WL,A,6.0
4,15.695000171661377,learn,44304.99982833862,Thu Sep 25 2025 18:20:54 GMT-0500 (Central Daylight Time),523166.7999999821,A,chimn,I,n,481,3,1715.7999999821186,521451.0,8026,WL,A,6.0
4,15.945000171661377,learn,44054.99982833862,Thu Sep 25 2025 18:20:54 GMT-0500 (Central Daylight Time),523417.09999999404,A,chimne,I,e,237,3,1966.0999999940395,521451.0,8026,WL,A,6.0
4,16.195000171661377,learn,43804.99982833862,Thu Sep 25 2025 18:20:54 GMT-0500 (Central Daylight Time),523667.1999999881,A,chimner,I,r,235,3,2216.199999988079,521451.0,8026,WL,A,6.0
4,17.278000116348267,learn,42721.99988365173,Thu Sep 25 2025 18:20:54 GMT-0500 (Central Daylight Time),524749.900000006,A,chimne,I,backspace,1065,3,3298.9000000059605,521451.0,8026,WL,A,6.0
4,17.778000116348267,learn,42221.99988365173,Thu Sep 25 2025 18:20:54 GMT-0500 (Central Daylight Time),525249.7999999821,A,chimney,I,y,479,3,3798.7999999821186,521451.0,8026,WL,A,6.0
4,18.694000005722046,learn,41305.999994277954,Thu Sep 25 2025 18:20:54 GMT-0500 (Central Daylight Time),526166.5,A,chimneyenter,I,enter,899,3,4715.5,521451.0,8026,WL,A,6.0
4,20.360000133514404,learn,39639.999866485596,Thu Sep 25 2025 18:20:54 GMT-0500 (Central Daylight Time),527832.400000006,A,b,I,b,1654,3,1665.6000000238419,526166.7999999821,8026,WL,A,7.0
4,20.5770001411438,learn,39422.9998588562,Thu Sep 25 2025 18:20:54 GMT-0500 (Central Daylight Time),528049.099999994,A,bu,I,u,196,3,1882.300000011921,526166.7999999821,8026,WL,A,7.0
4,20.826000213623047,learn,39173.99978637695,Thu Sep 25 2025 18:20:54 GMT-0500 (Central Daylight Time),528298.6999999881,A,but,I,t,236,3,2131.9000000059605,526166.7999999821,8026,WL,A,7.0
4,20.993000030517578,learn,39006.99996948242,Thu Sep 25 2025 18:20:54 GMT-0500 (Central Daylight Time),528465.5,A,butt,I,t,154,3,2298.7000000178814,526166.7999999821,8026,WL,A,7.0
4,21.177000045776367,learn,38822.99995422363,Thu Sep 25 2025 18:20:54 GMT-0500 (Central Daylight Time),528648.7999999821,A,butto,I,o,179,3,2482.0,526166.7999999821,8026,WL,A,7.0
4,21.39400005340576,learn,38605.99994659424,Thu Sep 25 2025 18:20:54 GMT-0500 (Central Daylight Time),528865.6999999881,A,button,I,n,204,3,2698.9000000059605,526166.7999999821,8026,WL,A,7.0
4,23.743000030517578,learn,36256.99996948242,Thu Sep 25 2025 18:20:54 GMT-0500 (Central Daylight Time),531214.599999994,A,buttonenter,I,enter,2338,3,5047.800000011921,526166.7999999821,8026,WL,A,7.0
4,24.12600016593933,learn,35873.99983406067,Thu Sep 25 2025 18:20:54 GMT-0500 (Central Daylight Time),531597.900000006,A,l,I,l,374,3,382.90000000596046,531215.0,8026,WL,A,8.0
4,24.342000007629395,learn,35657.999992370605,Thu Sep 25 2025 18:20:54 GMT-0500 (Central Daylight Time),531814.5,A,lo,I,o,206,3,599.5,531215.0,8026,WL,A,8.0
4,24.55900001525879,learn,35440.99998474121,Thu Sep 25 2025 18:20:54 GMT-0500 (Central Daylight Time),532031.099999994,A,log,I,g,198,3,816.0999999940395,531215.0,8026,WL,A,8.0
4,25.04200005531311,learn,34957.99994468689,Thu Sep 25 2025 18:20:54 GMT-0500 (Central Daylight Time),532514.5,A,logenter,I,enter,470,3,1299.5,531215.0,8026,WL,A,8.0
4,27.19100022315979,learn,32808.99977684021,Thu Sep 25 2025 18:20:54 GMT-0500 (Central Daylight Time),534663.5,A,s,I,s,2138,3,2148.800000011921,532514.6999999881,8026,WL,A,9.0
4,27.407999992370605,learn,32592.000007629395,Thu Sep 25 2025 18:20:54 GMT-0500 (Central Daylight Time),534880.1999999881,A,sa,I,a,205,3,2365.5,532514.6999999881,8026,WL,A,9.0
4,27.575000047683716,learn,32424.999952316284,Thu Sep 25 2025 18:20:54 GMT-0500 (Central Daylight Time),535046.900000006,A,sal,I,l,156,3,2532.2000000178814,532514.6999999881,8026,WL,A,9.0
4,27.95800018310547,learn,32041.99981689453,Thu Sep 25 2025 18:20:54 GMT-0500 (Central Daylight Time),535429.6999999881,A,salt,I,t,374,3,2915.0,532514.6999999881,8026,WL,A,9.0
4,28.90500020980835,learn,31094.99979019165,Thu Sep 25 2025 18:20:54 GMT-0500 (Central Daylight Time),536377.1999999881,A,saltenter,I,enter,943,3,3862.5,532514.6999999881,8026,WL,A,9.0
4,29.390000104904175,learn,30609.999895095825,Thu Sep 25 2025 18:20:54 GMT-0500 (Central Daylight Time),536862.7999999821,A,f,I,f,475,3,485.2999999821186,536377.5,8026,WL,A,10.0
4,29.490000009536743,learn,30509.999990463257,Thu Sep 25 2025 18:20:54 GMT-0500 (Central Daylight Time),536962.7999999821,A,fi,I,i,94,3,585.2999999821186,536377.5,8026,WL,A,10.0
4,29.674000024795532,learn,30325.999975204468,Thu Sep 25 2025 18:20:54 GMT-0500 (Central Daylight Time),537146.5,A,fin,I,n,170,3,769.0,536377.5,8026,WL,A,10.0
4,29.92300009727478,learn,30076.99990272522,Thu Sep 25 2025 18:20:54 GMT-0500 (Central Daylight Time),537396.0,A,fing,I,g,234,3,1018.5,536377.5,8026,WL,A,10.0
4,30.10700011253357,learn,29892.99988746643,Thu Sep 25 2025 18:20:54 GMT-0500 (Central Daylight Time),537579.1999999881,A,finge,I,e,176,3,1201.699999988079,536377.5,8026,WL,A,10.0
4,30.240000009536743,learn,29759.999990463257,Thu Sep 25 2025 18:20:54 GMT-0500 (Central Daylight Time),537712.5,A,finger,I,r,121,3,1335.0,536377.5,8026,WL,A,10.0
4,30.623000144958496,learn,29376.999855041504,Thu Sep 25 2025 18:20:54 GMT-0500 (Central Daylight Time),538095.7999999821,A,fingerenter,I,enter,372,3,1718.2999999821186,536377.5,8026,WL,A,10.0
4,31.290000200271606,learn,28709.999799728394,Thu Sep 25 2025 18:20:54 GMT-0500 (Central Daylight Time),538762.099999994,A,a,I,a,653,3,665.9000000059605,538096.1999999881,8026,WL,A,11.0
4,31.573000192642212,learn,28426.999807357788,Thu Sep 25 2025 18:20:54 GMT-0500 (Central Daylight Time),539045.599999994,A,ap,I,p,274,3,949.4000000059605,538096.1999999881,8026,WL,A,11.0
4,31.740000009536743,learn,28259.999990463257,Thu Sep 25 2025 18:20:54 GMT-0500 (Central Daylight Time),539212.400000006,A,app,I,p,151,3,1116.2000000178814,538096.1999999881,8026,WL,A,11.0
4,31.973000049591064,learn,28026.999950408936,Thu Sep 25 2025 18:20:54 GMT-0500 (Central Daylight Time),539445.400000006,A,appl,I,l,223,3,1349.2000000178814,538096.1999999881,8026,WL,A,11.0
4,32.140000104904175,learn,27859.999895095825,Thu Sep 25 2025 18:20:54 GMT-0500 (Central Daylight Time),539612.1999999881,A,apple,I,e,159,3,1516.0,538096.1999999881,8026,WL,A,11.0
4,33.97200012207031,learn,26027.999877929688,Thu Sep 25 2025 18:20:54 GMT-0500 (Central Daylight Time),541444.599999994,A,appleenter,I,enter,1825,3,3348.4000000059605,538096.1999999881,8026,WL,A,11.0
4,34.705000162124634,learn,25294.999837875366,Thu Sep 25 2025 18:20:54 GMT-0500 (Central Daylight Time),542177.7999999821,A,h,I,h,720,3,732.7999999821186,541445.0,8026,WL,A,12.0
4,34.872000217437744,learn,25127.999782562256,Thu Sep 25 2025 18:20:54 GMT-0500 (Central Daylight Time),542344.5,A,ha,I,a,155,3,899.5,541445.0,8026,WL,A,12.0
4,35.08800005912781,learn,24911.999940872192,Thu Sep 25 2025 18:20:54 GMT-0500 (Central Daylight Time),542560.900000006,A,har,I,r,196,3,1115.9000000059605,541445.0,8026,WL,A,12.0
4,35.48800015449524,learn,24511.99984550476,Thu Sep 25 2025 18:20:54 GMT-0500 (Central Daylight Time),542960.6999999881,A,harp,I,p,380,3,1515.699999988079,541445.0,8026,WL,A,12.0
4,36.355000019073486,learn,23644.999980926514,Thu Sep 25 2025 18:20:54 GMT-0500 (Central Daylight Time),543827.099999994,A,harpenter,I,enter,860,3,2382.0999999940395,541445.0,8026,WL,A,12.0
4,39.021000146865845,learn,20978.999853134155,Thu Sep 25 2025 18:20:54 GMT-0500 (Central Daylight Time),546493.1999999881,A,k,I,k,2649,3,2665.5999999940395,543827.599999994,8026,WL,A,13.0
4,39.28700017929077,learn,20712.99982070923,Thu Sep 25 2025 18:20:54 GMT-0500 (Central Daylight Time),546759.7999999821,A,ke,I,e,247,3,2932.199999988079,543827.599999994,8026,WL,A,13.0
4,39.63700008392334,learn,20362.99991607666,Thu Sep 25 2025 18:20:54 GMT-0500 (Central Daylight Time),547109.6999999881,A,key,I,y,341,3,3282.0999999940395,543827.599999994,8026,WL,A,13.0
4,39.97000002861023,learn,20029.99997138977,Thu Sep 25 2025 18:20:54 GMT-0500 (Central Daylight Time),547442.7999999821,A,keyenter,I,enter,319,3,3615.199999988079,543827.599999994,8026,WL,A,13.0
4,40.82000017166138,learn,19179.999828338623,Thu Sep 25 2025 18:20:54 GMT-0500 (Central Daylight Time),548292.5,A,g,I,g,841,3,849.5,547443.0,8026,WL,A,14.0
4,41.003000020980835,learn,18996.999979019165,Thu Sep 25 2025 18:20:54 GMT-0500 (Central Daylight Time),548475.6999999881,A,go,I,o,176,3,1032.699999988079,547443.0,8026,WL,A,14.0
4,41.920000076293945,learn,18079.999923706055,Thu Sep 25 2025 18:20:54 GMT-0500 (Central Daylight Time),549392.400000006,A,gol,I,l,897,3,1949.4000000059605,547443.0,8026,WL,A,14.0
4,42.36900019645691,learn,17630.99980354309,Thu Sep 25 2025 18:20:54 GMT-0500 (Central Daylight Time),549842.0,A,gold,I,d,436,3,2399.0,547443.0,8026,WL,A,14.0
4,42.76900005340576,learn,17230.99994659424,Thu Sep 25 2025 18:20:54 GMT-0500 (Central Daylight Time),550242.0,A,goldenter,I,enter,387,3,2799.0,547443.0,8026,WL,A,14.0
4,43.253000020980835,learn,16746.999979019165,Thu Sep 25 2025 18:20:54 GMT-0500 (Central Daylight Time),550725.099999994,A,r,I,r,467,3,482.90000000596046,550242.1999999881,8026,WL,A,15.0
4,43.36900019645691,learn,16630.99980354309,Thu Sep 25 2025 18:20:54 GMT-0500 (Central Daylight Time),550841.6999999881,A,ra,I,a,104,3,599.5,550242.1999999881,8026,WL,A,15.0
4,43.57000017166138,learn,16429.999828338623,Thu Sep 25 2025 18:20:54 GMT-0500 (Central Daylight Time),551042.099999994,A,rat,I,t,196,3,799.9000000059605,550242.1999999881,8026,WL,A,15.0
4,43.7020001411438,learn,16297.999858856201,Thu Sep 25 2025 18:20:54 GMT-0500 (Central Daylight Time),551175.0,A,ratt,I,t,123,3,932.8000000119209,550242.1999999881,8026,WL,A,15.0
4,43.902000188827515,learn,16097.999811172485,Thu Sep 25 2025 18:20:54 GMT-0500 (Central Daylight Time),551374.7999999821,A,rattl,I,l,182,3,1132.5999999940395,550242.1999999881,8026,WL,A,15.0
4,44.152000188827515,learn,15847.999811172485,Thu Sep 25 2025 18:20:54 GMT-0500 (Central Daylight Time),551624.7999999821,A,rattle,I,e,230,3,1382.5999999940395,550242.1999999881,8026,WL,A,15.0
4,44.53500008583069,learn,15464.999914169312,Thu Sep 25 2025 18:20:54 GMT-0500 (Central Daylight Time),552007.900000006,A,rattled,I,d,372,3,1765.7000000178814,550242.1999999881,8026,WL,A,15.0
4,44.88499999046326,learn,15115.000009536743,Thu Sep 25 2025 18:20:54 GMT-0500 (Central Daylight Time),552357.900000006,A,rattledenter,I,enter,341,3,2115.7000000178814,550242.1999999881,8026,WL,A,15.0
5,0.6669998168945312,learn,60000.0,Thu Sep 25 2025 18:20:54 GMT-0500 (Central Daylight Time),632432.900000006,A,b,I,b,655,3,666.2000000178814,631766.6999999881,8026,WL,A,1.0
5,0.8999998569488525,learn,60000.0,Thu Sep 25 2025 18:20:54 GMT-0500 (Central Daylight Time),632666.0,A,bo,I,o,228,3,899.3000000119209,631766.6999999881,8026,WL,A,1.0
5,1.066999912261963,learn,60000.0,Thu Sep 25 2025 18:20:54 GMT-0500 (Central Daylight Time),632832.900000006,A,boo,I,o,146,3,1066.2000000178814,631766.6999999881,8026,WL,A,1.0
5,1.3499999046325684,learn,60000.0,Thu Sep 25 2025 18:20:54 GMT-0500 (Central Daylight Time),633115.7999999821,A,book,I,k,268,3,1349.0999999940395,631766.6999999881,8026,WL,A,1.0
5,2.0829999446868896,learn,60000.0,Thu Sep 25 2025 18:20:54 GMT-0500 (Central Daylight Time),633849.099999994,A,bookenter,I,enter,729,3,2082.4000000059605,631766.6999999881,8026,WL,A,1.0
5,2.8999998569488525,learn,60000.0,Thu Sep 25 2025 18:20:54 GMT-0500 (Central Daylight Time),634665.599999994,A,f,I,f,796,3,816.3000000119209,633849.2999999821,8026,WL,A,2.0
5,3.0159997940063477,learn,60000.0,Thu Sep 25 2025 18:20:54 GMT-0500 (Central Daylight Time),634782.0,A,fl,I,l,107,3,932.7000000178814,633849.2999999821,8026,WL,A,2.0
5,3.2159998416900635,learn,60000.0,Thu Sep 25 2025 18:20:54 GMT-0500 (Central Daylight Time),634982.099999994,A,flo,I,o,190,3,1132.800000011921,633849.2999999821,8026,WL,A,2.0
5,3.3489999771118164,learn,60000.0,Thu Sep 25 2025 18:20:54 GMT-0500 (Central Daylight Time),635115.2999999821,A,flow,I,w,126,3,1266.0,633849.2999999821,8026,WL,A,2.0
5,3.548999786376953,learn,60000.0,Thu Sep 25 2025 18:20:54 GMT-0500 (Central Daylight Time),635315.400000006,A,flowe,I,e,185,3,1466.1000000238419,633849.2999999821,8026,WL,A,2.0
5,3.798999786376953,learn,60000.0,Thu Sep 25 2025 18:20:54 GMT-0500 (Central Daylight Time),635565.1999999881,A,flower,I,r,232,3,1715.9000000059605,633849.2999999821,8026,WL,A,2.0
5,4.43399977684021,learn,60000.0,Thu Sep 25 2025 18:20:54 GMT-0500 (Central Daylight Time),636199.599999994,A,flowerenter,I,enter,615,3,2350.300000011921,633849.2999999821,8026,WL,A,2.0
5,5.431999921798706,learn,60000.0,Thu Sep 25 2025 18:20:54 GMT-0500 (Central Daylight Time),637198.0,A,t,I,t,980,3,998.0999999940395,636199.900000006,8026,WL,A,3.0
5,5.748999834060669,learn,60000.0,Thu Sep 25 2025 18:20:54 GMT-0500 (Central Daylight Time),637514.7999999821,A,tr,I,r,303,3,1314.8999999761581,636199.900000006,8026,WL,A,3.0
5,5.947999954223633,learn,60000.0,Thu Sep 25 2025 18:20:54 GMT-0500 (Central Daylight Time),637714.400000006,A,tra,I,a,186,3,1514.5,636199.900000006,8026,WL,A,3.0
5,6.2149999141693115,learn,60000.0,Thu Sep 25 2025 18:20:54 GMT-0500 (Central Daylight Time),637981.099999994,A,trai,I,i,249,3,1781.199999988079,636199.900000006,8026,WL,A,3.0
5,6.364999771118164,learn,60000.0,Thu Sep 25 2025 18:20:54 GMT-0500 (Central Daylight Time),638131.099999994,A,train,I,n,142,3,1931.199999988079,636199.900000006,8026,WL,A,3.0
5,6.898000001907349,learn,60000.0,Thu Sep 25 2025 18:20:54 GMT-0500 (Central Daylight Time),638664.2999999821,A,trainenter,I,enter,520,3,2464.399999976158,636199.900000006,8026,WL,A,3.0
5,7.630999803543091,learn,60000.0,Thu Sep 25 2025 18:20:54 GMT-0500 (Central Daylight Time),639397.400000006,A,r,I,r,715,3,732.7000000178814,638664.6999999881,8026,WL,A,4.0
5,7.997999906539917,learn,60000.0,Thu Sep 25 2025 18:20:54 GMT-0500 (Central Daylight Time),639763.900000006,A,ru,I,u,351,3,1099.2000000178814,638664.6999999881,8026,WL,A,4.0
5,8.347999811172485,learn,60000.0,Thu Sep 25 2025 18:20:54 GMT-0500 (Central Daylight Time),640113.6999999881,A,rug,I,g,335,3,1449.0,638664.6999999881,8026,WL,A,4.0
5,9.21399998664856,learn,60000.0,Thu Sep 25 2025 18:20:54 GMT-0500 (Central Daylight Time),640980.1999999881,A,rugenter,I,enter,859,3,2315.5,638664.6999999881,8026,WL,A,4.0
5,10.52999997138977,learn,60000.0,Thu Sep 25 2025 18:20:54 GMT-0500 (Central Daylight Time),642296.400000006,A,m,I,m,1304,3,1315.800000011921,640980.599999994,8026,WL,A,5.0
5,10.663999795913696,learn,60000.0,Thu Sep 25 2025 18:20:54 GMT-0500 (Central Daylight Time),642429.900000006,A,me,I,e,116,3,1449.300000011921,640980.599999994,8026,WL,A,5.0
5,10.863999843597412,learn,60000.0,Thu Sep 25 2025 18:20:54 GMT-0500 (Central Daylight Time),642629.6999999881,A,mea,I,a,181,3,1649.0999999940395,640980.599999994,8026,WL,A,5.0
5,11.096999883651733,learn,60000.0,Thu Sep 25 2025 18:20:54 GMT-0500 (Central Daylight Time),642862.900000006,A,mead,I,d,215,3,1882.300000011921,640980.599999994,8026,WL,A,5.0
5,11.312999963760376,learn,60000.0,Thu Sep 25 2025 18:20:54 GMT-0500 (Central Daylight Time),643079.400000006,A,meado,I,o,198,3,2098.800000011921,640980.599999994,8026,WL,A,5.0
5,11.462999820709229,learn,60000.0,Thu Sep 25 2025 18:20:54 GMT-0500 (Central Daylight Time),643229.400000006,A,meadow,I,w,142,3,2248.800000011921,640980.599999994,8026,WL,A,5.0
5,12.329999923706055,learn,60000.0,Thu Sep 25 2025 18:20:54 GMT-0500 (Central Daylight Time),644095.6999999881,A,meadowenter,I,enter,847,3,3115.0999999940395,640980.599999994,8026,WL,A,5.0
5,13.129999876022339,learn,60000.0,Thu Sep 25 2025 18:20:54 GMT-0500 (Central Daylight Time),644895.599999994,A,c,I,c,780,3,799.5999999940395,644096.0,8026,WL,A,6.0
5,13.36299991607666,learn,60000.0,Thu Sep 25 2025 18:20:54 GMT-0500 (Central Daylight Time),645128.7999999821,A,ch,I,h,221,3,1032.7999999821186,644096.0,8026,WL,A,6.0
5,13.546000003814697,learn,60000.0,Thu Sep 25 2025 18:20:54 GMT-0500 (Central Daylight Time),645311.900000006,A,chi,I,i,172,3,1215.9000000059605,644096.0,8026,WL,A,6.0
5,13.94599986076355,learn,60000.0,Thu Sep 25 2025 18:20:54 GMT-0500 (Central Daylight Time),645712.2999999821,A,chim,I,m,380,3,1616.2999999821186,644096.0,8026,WL,A,6.0
5,14.428999900817871,learn,60000.0,Thu Sep 25 2025 18:20:54 GMT-0500 (Central Daylight Time),646195.2999999821,A,chimn,I,n,467,3,2099.2999999821186,644096.0,8026,WL,A,6.0
5,14.578999996185303,learn,60000.0,Thu Sep 25 2025 18:20:54 GMT-0500 (Central Daylight Time),646345.1999999881,A,chimne,I,e,129,3,2249.199999988079,644096.0,8026,WL,A,6.0
5,15.411999940872192,learn,60000.0,Thu Sep 25 2025 18:20:54 GMT-0500 (Central Daylight Time),647178.1999999881,A,chimney,I,y,819,3,3082.199999988079,644096.0,8026,WL,A,6.0
5,16.244999885559082,learn,60000.0,Thu Sep 25 2025 18:20:54 GMT-0500 (Central Daylight Time),648011.1999999881,A,chimneyenter,I,enter,819,3,3915.199999988079,644096.0,8026,WL,A,6.0
5,17.194999933242798,learn,60000.0,Thu Sep 25 2025 18:20:54 GMT-0500 (Central Daylight Time),648961.099999994,A,h,I,h,937,3,949.5,648011.599999994,8026,WL,A,7.0
5,17.34499979019165,learn,60000.0,Thu Sep 25 2025 18:20:54 GMT-0500 (Central Daylight Time),649110.900000006,A,ha,I,a,131,3,1099.300000011921,648011.599999994,8026,WL,A,7.0
5,17.694999933242798,learn,60000.0,Thu Sep 25 2025 18:20:54 GMT-0500 (Central Daylight Time),649460.6999999881,A,har,I,r,333,3,1449.0999999940395,648011.599999994,8026,WL,A,7.0
5,18.244999885559082,learn,60000.0,Thu Sep 25 2025 18:20:54 GMT-0500 (Central Daylight Time),650010.6999999881,A,harp,I,p,544,3,1999.0999999940395,648011.599999994,8026,WL,A,7.0
5,19.393999814987183,learn,60000.0,Thu Sep 25 2025 18:20:54 GMT-0500 (Central Daylight Time),651160.400000006,A,harpenter,I,enter,1138,3,3148.800000011921,648011.599999994,8026,WL,A,7.0
5,23.575999975204468,learn,60000.0,Thu Sep 25 2025 18:20:54 GMT-0500 (Central Daylight Time),655342.0,A,s,I,s,4171,3,4181.200000017881,651160.7999999821,8026,WL,A,8.0
5,23.842999935150146,learn,60000.0,Thu Sep 25 2025 18:20:54 GMT-0500 (Central Daylight Time),655608.599999994,A,sa,I,a,253,3,4447.800000011921,651160.7999999821,8026,WL,A,8.0
5,23.991999864578247,learn,60000.0,Thu Sep 25 2025 18:20:54 GMT-0500 (Central Daylight Time),655758.400000006,A,sal,I,l,131,3,4597.600000023842,651160.7999999821,8026,WL,A,8.0
5,24.408999919891357,learn,60000.0,Thu Sep 25 2025 18:20:54 GMT-0500 (Central Daylight Time),656175.2999999821,A,salt,I,t,398,3,5014.5,651160.7999999821,8026,WL,A,8.0
5,24.70899987220764,learn,60000.0,Thu Sep 25 2025 18:20:54 GMT-0500 (Central Daylight Time),656475.2999999821,A,saltenter,I,enter,293,3,5314.5,651160.7999999821,8026,WL,A,8.0
5,25.108999967575073,learn,60000.0,Thu Sep 25 2025 18:20:54 GMT-0500 (Central Daylight Time),656875.1999999881,A,f,I,f,393,3,399.59999999403954,656475.599999994,8026,WL,A,9.0
5,25.358999967575073,learn,60000.0,Thu Sep 25 2025 18:20:54 GMT-0500 (Central Daylight Time),657125.2999999821,A,fi,I,i,234,3,649.6999999880791,656475.599999994,8026,WL,A,9.0
5,25.524999856948853,learn,60000.0,Thu Sep 25 2025 18:20:54 GMT-0500 (Central Daylight Time),657291.599999994,A,fin,I,n,151,3,816.0,656475.599999994,8026,WL,A,9.0
5,25.70899987220764,learn,60000.0,Thu Sep 25 2025 18:20:54 GMT-0500 (Central Daylight Time),657475.0,A,fing,I,g,177,3,999.4000000059605,656475.599999994,8026,WL,A,9.0
5,25.908999919891357,learn,60000.0,Thu Sep 25 2025 18:20:54 GMT-0500 (Central Daylight Time),657674.900000006,A,finge,I,e,193,3,1199.300000011921,656475.599999994,8026,WL,A,9.0
5,26.024999856948853,learn,60000.0,Thu Sep 25 2025 18:20:54 GMT-0500 (Central Daylight Time),657791.599999994,A,finger,I,r,99,3,1316.0,656475.599999994,8026,WL,A,9.0
5,26.875,learn,60000.0,Thu Sep 25 2025 18:20:54 GMT-0500 (Central Daylight Time),658641.1999999881,A,fingerenter,I,enter,837,3,2165.5999999940395,656475.599999994,8026,WL,A,9.0
5,27.274999856948853,learn,60000.0,Thu Sep 25 2025 18:20:54 GMT-0500 (Central Daylight Time),659041.599999994,A,a,I,a,388,3,400.0,658641.599999994,8026,WL,A,10.0
5,27.524999856948853,learn,60000.0,Thu Sep 25 2025 18:20:54 GMT-0500 (Central Daylight Time),659291.099999994,A,ap,I,p,242,3,649.5,658641.599999994,8026,WL,A,10.0
5,27.70799994468689,learn,60000.0,Thu Sep 25 2025 18:20:54 GMT-0500 (Central Daylight Time),659474.2999999821,A,app,I,p,169,3,832.6999999880791,658641.599999994,8026,WL,A,10.0
5,27.95799994468689,learn,60000.0,Thu Sep 25 2025 18:20:54 GMT-0500 (Central Daylight Time),659724.5,A,appl,I,l,234,3,1082.9000000059605,658641.599999994,8026,WL,A,10.0
5,28.090999841690063,learn,60000.0,Thu Sep 25 2025 18:20:54 GMT-0500 (Central Daylight Time),659857.6999999881,A,apple,I,e,121,3,1216.0999999940395,658641.599999994,8026,WL,A,10.0
5,29.04099988937378,learn,60000.0,Thu Sep 25 2025 18:20:54 GMT-0500 (Central Daylight Time),660807.2999999821,A,appleenter,I,enter,939,3,2165.699999988079,658641.599999994,8026,WL,A,10.0
5,30.0239999294281,learn,60000.0,Thu Sep 25 2025 18:20:54 GMT-0500 (Central Daylight Time),661790.1999999881,A,b,I,b,974,3,982.5,660807.6999999881,8026,WL,A,11.0
5,30.306999921798706,learn,60000.0,Thu Sep 25 2025 18:20:54 GMT-0500 (Central Daylight Time),662073.2999999821,A,bu,I,u,269,3,1265.5999999940395,660807.6999999881,8026,WL,A,11.0
5,30.573999881744385,learn,60000.0,Thu Sep 25 2025 18:20:54 GMT-0500 (Central Daylight Time),662340.0,A,but,I,t,260,3,1532.300000011921,660807.6999999881,8026,WL,A,11.0
5,30.70699977874756,learn,60000.0,Thu Sep 25 2025 18:20:54 GMT-0500 (Central Daylight Time),662473.5,A,butt,I,t,120,3,1665.800000011921,660807.6999999881,8026,WL,A,11.0
5,30.95699977874756,learn,60000.0,Thu Sep 25 2025 18:20:54 GMT-0500 (Central Daylight Time),662723.2999999821,A,butto,I,o,243,3,1915.5999999940395,660807.6999999881,8026,WL,A,11.0
5,31.473999977111816,learn,60000.0,Thu Sep 25 2025 18:20:54 GMT-0500 (Central Daylight Time),663239.900000006,A,button,I,n,506,3,2432.2000000178814,660807.6999999881,8026,WL,A,11.0
5,33.37299990653992,learn,60000.0,Thu Sep 25 2025 18:20:54 GMT-0500 (Central Daylight Time),665139.1999999881,A,buttonenter,I,enter,1892,3,4331.5,660807.6999999881,8026,WL,A,11.0
5,33.788999795913696,learn,60000.0,Thu Sep 25 2025 18:20:54 GMT-0500 (Central Daylight Time),665555.7999999821,A,l,I,l,409,3,416.39999997615814,665139.400000006,8026,WL,A,12.0
5,34.07299995422363,learn,60000.0,Thu Sep 25 2025 18:20:54 GMT-0500 (Central Daylight Time),665839.099999994,A,lo,I,o,264,3,699.6999999880791,665139.400000006,8026,WL,A,12.0
5,34.35599994659424,learn,60000.0,Thu Sep 25 2025 18:20:54 GMT-0500 (Central Daylight Time),666122.099999994,A,log,I,g,277,3,982.6999999880791,665139.400000006,8026,WL,A,12.0
5,35.138999938964844,learn,60000.0,Thu Sep 25 2025 18:20:54 GMT-0500 (Central Daylight Time),666905.599999994,A,logenter,I,enter,771,3,1766.199999988079,665139.400000006,8026,WL,A,12.0
5,36.08899998664856,learn,60000.0,Thu Sep 25 2025 18:20:54 GMT-0500 (Central Daylight Time),667854.900000006,A,g,I,g,931,3,949.1000000238419,666905.7999999821,8026,WL,A,13.0
5,36.288999795913696,learn,60000.0,Thu Sep 25 2025 18:20:54 GMT-0500 (Central Daylight Time),668054.900000006,A,go,I,o,189,3,1149.1000000238419,666905.7999999821,8026,WL,A,13.0
5,37.00499987602234,learn,60000.0,Thu Sep 25 2025 18:20:54 GMT-0500 (Central Daylight Time),668771.2999999821,A,gol,I,l,710,3,1865.5,666905.7999999821,8026,WL,A,13.0
5,37.287999868392944,learn,60000.0,Thu Sep 25 2025 18:20:54 GMT-0500 (Central Daylight Time),669054.7999999821,A,gold,I,d,273,3,2149.0,666905.7999999821,8026,WL,A,13.0
5,37.75499987602234,learn,60000.0,Thu Sep 25 2025 18:20:54 GMT-0500 (Central Daylight Time),669521.099999994,A,goldenter,I,enter,445,3,2615.300000011921,666905.7999999821,8026,WL,A,13.0
5,38.47099995613098,learn,60000.0,Thu Sep 25 2025 18:20:54 GMT-0500 (Central Daylight Time),670237.400000006,A,k,I,k,700,3,716.0,669521.400000006,8026,WL,A,14.0
5,38.620999813079834,learn,60000.0,Thu Sep 25 2025 18:20:54 GMT-0500 (Central Daylight Time),670387.6999999881,A,ke,I,e,143,3,866.2999999821186,669521.400000006,8026,WL,A,14.0
5,38.98899984359741,learn,60000.0,Thu Sep 25 2025 18:20:54 GMT-0500 (Central Daylight Time),670755.099999994,A,key,I,y,360,3,1233.699999988079,669521.400000006,8026,WL,A,14.0
5,39.47099995613098,learn,60000.0,Thu Sep 25 2025 18:20:54 GMT-0500 (Central Daylight Time),671237.1999999881,A,keyenter,I,enter,473,3,1715.7999999821186,669521.400000006,8026,WL,A,14.0
5,40.7039999961853,learn,60000.0,Thu Sep 25 2025 18:20:54 GMT-0500 (Central Daylight Time),672470.2999999821,A,r,I,r,1215,3,1232.7999999821186,671237.5,8026,WL,A,15.0
5,40.83699989318848,learn,60000.0,Thu Sep 25 2025 18:20:54 GMT-0500 (Central Daylight Time),672603.599999994,A,ra,I,a,126,3,1366.0999999940395,671237.5,8026,WL,A,15.0
5,41.03699994087219,learn,60000.0,Thu Sep 25 2025 18:20:54 GMT-0500 (Central Daylight Time),672803.5,A,rat,I,t,193,3,1566.0,671237.5,8026,WL,A,15.0
5,41.186999797821045,learn,60000.0,Thu Sep 25 2025 18:20:54 GMT-0500 (Central Daylight Time),672953.5,A,ratt,I,t,129,3,1716.0,671237.5,8026,WL,A,15.0
5,41.38699984550476,learn,60000.0,Thu Sep 25 2025 18:20:54 GMT-0500 (Central Daylight Time),673153.2999999821,A,rattl,I,l,186,3,1915.7999999821186,671237.5,8026,WL,A,15.0
5,41.53699994087219,learn,60000.0,Thu Sep 25 2025 18:20:54 GMT-0500 (Central Daylight Time),673303.1999999881,A,rattle,I,e,139,3,2065.699999988079,671237.5,8026,WL,A,15.0
5,43.21999979019165,learn,60000.0,Thu Sep 25 2025 18:20:54 GMT-0500 (Central Daylight Time),674986.099999994,A,rattleenter,I,enter,1670,3,3748.5999999940395,671237.5,8026,WL,A,15.0
6,0.8999998569488525,distr,59100.00014305115,Thu Sep 25 2025 18:20:54 GMT-0500 (Central Daylight Time),745664.099999994,B,c,I,c,880,3,899.5999999940395,744764.5,8026,WL,A,1.0
6,1.066999912261963,distr,58933.00008773804,Thu Sep 25 2025 18:20:54 GMT-0500 (Central Daylight Time),745830.599999994,B,ch,I,h,156,3,1066.0999999940395,744764.5,8026,WL,A,1.0
6,1.25,distr,58750.0,Thu Sep 25 2025 18:20:54 GMT-0500 (Central Daylight Time),746013.6999999881,B,cha,I,a,166,3,1249.199999988079,744764.5,8026,WL,A,1.0
6,1.5999999046325684,distr,58400.00009536743,Thu Sep 25 2025 18:20:54 GMT-0500 (Central Daylight Time),746363.7999999821,B,chai,I,i,342,3,1599.2999999821186,744764.5,8026,WL,A,1.0
6,1.815999984741211,distr,58184.00001525879,Thu Sep 25 2025 18:20:54 GMT-0500 (Central Daylight Time),746580.2999999821,B,chair,I,r,201,3,1815.7999999821186,744764.5,8026,WL,A,1.0
6,2.0999999046325684,distr,57900.00009536743,Thu Sep 25 2025 18:20:54 GMT-0500 (Central Daylight Time),746863.599999994,B,chairenter,I,enter,272,3,2099.0999999940395,744764.5,8026,WL,A,1.0
6,2.9489998817443848,distr,57051.000118255615,Thu Sep 25 2025 18:20:54 GMT-0500 (Central Daylight Time),747713.0,B,s,I,s,845,3,849.0999999940395,746863.900000006,8026,WL,A,2.0
6,3.1659998893737793,distr,56834.00011062622,Thu Sep 25 2025 18:20:54 GMT-0500 (Central Daylight Time),747929.900000006,B,se,I,e,195,3,1066.0,746863.900000006,8026,WL,A,2.0
6,3.315999984741211,distr,56684.00001525879,Thu Sep 25 2025 18:20:54 GMT-0500 (Central Daylight Time),748079.7999999821,B,see,I,e,130,3,1215.8999999761581,746863.900000006,8026,WL,A,2.0
6,3.5329999923706055,distr,56467.000007629395,Thu Sep 25 2025 18:20:54 GMT-0500 (Central Daylight Time),748296.400000006,B,seed,I,d,196,3,1432.5,746863.900000006,8026,WL,A,2.0
6,4.365999937057495,distr,55634.000062942505,Thu Sep 25 2025 18:20:54 GMT-0500 (Central Daylight Time),749129.2999999821,B,seeds,I,s,827,3,2265.399999976158,746863.900000006,8026,WL,A,2.0
6,4.98199987411499,distr,55018.00012588501,Thu Sep 25 2025 18:20:54 GMT-0500 (Central Daylight Time),749745.6999999881,B,seed,I,backspace,611,3,2881.7999999821186,746863.900000006,8026,WL,A,2.0
6,5.664999961853027,distr,54335.00003814697,Thu Sep 25 2025 18:20:54 GMT-0500 (Central Daylight Time),750429.0,B,seedenter,I,enter,667,3,3565.0999999940395,746863.900000006,8026,WL,A,2.0
6,5.98199987411499,distr,54018.00012588501,Thu Sep 25 2025 18:20:54 GMT-0500 (Central Daylight Time),750745.599999994,B,s,I,s,304,3,316.40000000596046,750429.1999999881,8026,WL,A,3.0
6,6.115000009536743,distr,53884.99999046326,Thu Sep 25 2025 18:20:54 GMT-0500 (Central Daylight Time),750878.7999999821,B,sh,I,h,115,3,449.59999999403954,750429.1999999881,8026,WL,A,3.0
6,6.514999866485596,distr,53485.000133514404,Thu Sep 25 2025 18:20:54 GMT-0500 (Central Daylight Time),751278.6999999881,B,she,I,e,382,3,849.5,750429.1999999881,8026,WL,A,3.0
6,6.631999969482422,distr,53368.00003051758,Thu Sep 25 2025 18:20:54 GMT-0500 (Central Daylight Time),751395.599999994,B,shee,I,e,102,3,966.4000000059605,750429.1999999881,8026,WL,A,3.0
6,6.947999954223633,distr,53052.00004577637,Thu Sep 25 2025 18:20:54 GMT-0500 (Central Daylight Time),751712.0,B,sheep,I,p,296,3,1282.800000011921,750429.1999999881,8026,WL,A,3.0
6,7.847999811172485,distr,52152.000188827515,Thu Sep 25 2025 18:20:54 GMT-0500 (Central Daylight Time),752611.900000006,B,sheepenter,I,enter,892,3,2182.7000000178814,750429.1999999881,8026,WL,A,3.0
6,9.763999938964844,distr,50236.000061035156,Thu Sep 25 2025 18:20:54 GMT-0500 (Central Daylight Time),754527.599999994,B,p,I,p,1896,3,1915.300000011921,752612.2999999821,8026,WL,A,4.0
6,9.898000001907349,distr,50101.99999809265,Thu Sep 25 2025 18:20:54 GMT-0500 (Central Daylight Time),754661.2999999821,B,pe,I,e,117,3,2049.0,752612.2999999821,8026,WL,A,4.0
6,10.04699993133545,distr,49953.00006866455,Thu Sep 25 2025 18:20:54 GMT-0500 (Central Daylight Time),754811.099999994,B,pea,I,a,143,3,2198.800000011921,752612.2999999821,8026,WL,A,4.0
6,10.38099980354309,distr,49619.00019645691,Thu Sep 25 2025 18:20:54 GMT-0500 (Central Daylight Time),755144.400000006,B,peac,I,c,314,3,2532.100000023842,752612.2999999821,8026,WL,A,4.0
6,10.613999843597412,distr,49386.00015640259,Thu Sep 25 2025 18:20:54 GMT-0500 (Central Daylight Time),755377.6999999881,B,peach,I,h,220,3,2765.4000000059605,752612.2999999821,8026,WL,A,4.0
6,10.996999979019165,distr,49003.000020980835,Thu Sep 25 2025 18:20:54 GMT-0500 (Central Daylight Time),755760.6999999881,B,peachenter,I,enter,379,3,3148.4000000059605,752612.2999999821,8026,WL,A,4.0
6,11.413999795913696,distr,48586.000204086304,Thu Sep 25 2025 18:20:54 GMT-0500 (Central Daylight Time),756177.2999999821,B,p,I,p,412,3,416.0,755761.2999999821,8026,WL,A,5.0
6,11.812999963760376,distr,48187.000036239624,Thu Sep 25 2025 18:20:54 GMT-0500 (Central Daylight Time),756577.0,B,po,I,o,395,3,815.7000000178814,755761.2999999821,8026,WL,A,5.0
6,11.996999979019165,distr,48003.000020980835,Thu Sep 25 2025 18:20:54 GMT-0500 (Central Daylight Time),756760.599999994,B,poo,I,o,171,3,999.3000000119209,755761.2999999821,8026,WL,A,5.0
6,12.29699993133545,distr,47703.00006866455,Thu Sep 25 2025 18:20:54 GMT-0500 (Central Daylight Time),757060.400000006,B,pook,I,k,292,3,1299.1000000238419,755761.2999999821,8026,WL,A,5.0
6,13.263000011444092,distr,46736.99998855591,Thu Sep 25 2025 18:20:54 GMT-0500 (Central Daylight Time),758026.900000006,B,poo,I,backspace,951,3,2265.600000023842,755761.2999999821,8026,WL,A,5.0
6,13.629999876022339,distr,46370.00012397766,Thu Sep 25 2025 18:20:54 GMT-0500 (Central Daylight Time),758393.400000006,B,pool,I,l,354,3,2632.100000023842,755761.2999999821,8026,WL,A,5.0
6,14.02899980545044,distr,45971.00019454956,Thu Sep 25 2025 18:20:54 GMT-0500 (Central Daylight Time),758793.1999999881,B,poolenter,I,enter,386,3,3031.9000000059605,755761.2999999821,8026,WL,A,5.0
6,15.11299991607666,distr,44887.00008392334,Thu Sep 25 2025 18:20:54 GMT-0500 (Central Daylight Time),759876.1999999881,B,b,I,b,1076,3,1082.7999999821186,758793.400000006,8026,WL,A,6.0
6,15.27899980545044,distr,44721.00019454956,Thu Sep 25 2025 18:20:54 GMT-0500 (Central Daylight Time),760042.7999999821,B,bo,I,o,159,3,1249.3999999761581,758793.400000006,8026,WL,A,6.0
6,15.711999893188477,distr,44288.00010681152,Thu Sep 25 2025 18:20:54 GMT-0500 (Central Daylight Time),760476.0,B,bow,I,w,418,3,1682.5999999940395,758793.400000006,8026,WL,A,6.0
6,15.995999813079834,distr,44004.000186920166,Thu Sep 25 2025 18:20:54 GMT-0500 (Central Daylight Time),760759.400000006,B,bowl,I,l,264,3,1966.0,758793.400000006,8026,WL,A,6.0
6,16.661999940872192,distr,43338.00005912781,Thu Sep 25 2025 18:20:54 GMT-0500 (Central Daylight Time),761425.7999999821,B,bowlenter,I,enter,653,3,2632.399999976158,758793.400000006,8026,WL,A,6.0
6,17.144999980926514,distr,42855.000019073486,Thu Sep 25 2025 18:20:54 GMT-0500 (Central Daylight Time),761908.900000006,B,i,I,i,467,3,482.80000001192093,761426.099999994,8026,WL,A,7.0
6,17.32799983024597,distr,42672.00016975403,Thu Sep 25 2025 18:20:54 GMT-0500 (Central Daylight Time),762092.099999994,B,in,I,n,168,3,666.0,761426.099999994,8026,WL,A,7.0
6,17.561999797821045,distr,42438.000202178955,Thu Sep 25 2025 18:20:54 GMT-0500 (Central Daylight Time),762325.400000006,B,ins,I,s,215,3,899.3000000119209,761426.099999994,8026,WL,A,7.0
6,17.710999965667725,distr,42289.000034332275,Thu Sep 25 2025 18:20:54 GMT-0500 (Central Daylight Time),762475.1999999881,B,inse,I,e,143,3,1049.0999999940395,761426.099999994,8026,WL,A,7.0
6,18.044999837875366,distr,41955.000162124634,Thu Sep 25 2025 18:20:54 GMT-0500 (Central Daylight Time),762808.6999999881,B,insec,I,c,313,3,1382.5999999940395,761426.099999994,8026,WL,A,7.0
6,18.34499979019165,distr,41655.00020980835,Thu Sep 25 2025 18:20:54 GMT-0500 (Central Daylight Time),763108.6999999881,B,insect,I,t,292,3,1682.5999999940395,761426.099999994,8026,WL,A,7.0
6,19.09499979019165,distr,40905.00020980835,Thu Sep 25 2025 18:20:54 GMT-0500 (Central Daylight Time),763858.2999999821,B,insectenter,I,enter,736,3,2432.199999988079,761426.099999994,8026,WL,A,7.0
6,20.310999870300293,distr,39689.00012969971,Thu Sep 25 2025 18:20:54 GMT-0500 (Central Daylight Time),765074.2999999821,B,c,I,c,1202,3,1215.5999999940395,763858.6999999881,8026,WL,A,8.0
6,20.426999807357788,distr,39573.00019264221,Thu Sep 25 2025 18:20:54 GMT-0500 (Central Daylight Time),765191.1999999881,B,co,I,o,106,3,1332.5,763858.6999999881,8026,WL,A,8.0
6,20.49399995803833,distr,39506.00004196167,Thu Sep 25 2025 18:20:54 GMT-0500 (Central Daylight Time),765257.400000006,B,cou,I,u,61,3,1398.7000000178814,763858.6999999881,8026,WL,A,8.0
6,20.759999990463257,distr,39240.00000953674,Thu Sep 25 2025 18:20:54 GMT-0500 (Central Daylight Time),765524.099999994,B,coun,I,n,259,3,1665.4000000059605,763858.6999999881,8026,WL,A,8.0
6,21.060999870300293,distr,38939.00012969971,Thu Sep 25 2025 18:20:54 GMT-0500 (Central Daylight Time),765824.599999994,B,count,I,t,279,3,1965.9000000059605,763858.6999999881,8026,WL,A,8.0
6,21.376999855041504,distr,38623.000144958496,Thu Sep 25 2025 18:20:54 GMT-0500 (Central Daylight Time),766140.6999999881,B,county,I,y,307,3,2282.0,763858.6999999881,8026,WL,A,8.0
6,21.82799983024597,distr,38172.00016975403,Thu Sep 25 2025 18:20:54 GMT-0500 (Central Daylight Time),766592.0,B,countyenter,I,enter,432,3,2733.300000011921,763858.6999999881,8026,WL,A,8.0
6,25.45899987220764,distr,34541.00012779236,Thu Sep 25 2025 18:20:54 GMT-0500 (Central Daylight Time),770223.099999994,B,j,I,j,3619,3,3630.699999988079,766592.400000006,8026,WL,A,9.0
6,25.70899987220764,distr,34291.00012779236,Thu Sep 25 2025 18:20:54 GMT-0500 (Central Daylight Time),770472.900000006,B,ju,I,u,229,3,3880.5,766592.400000006,8026,WL,A,9.0
6,26.29199981689453,distr,33708.00018310547,Thu Sep 25 2025 18:20:54 GMT-0500 (Central Daylight Time),771056.1999999881,B,jud,I,d,563,3,4463.799999982119,766592.400000006,8026,WL,A,9.0
6,27.14199995994568,distr,32858.00004005432,Thu Sep 25 2025 18:20:54 GMT-0500 (Central Daylight Time),771905.5,B,judg,I,g,835,3,5313.0999999940395,766592.400000006,8026,WL,A,9.0
6,27.324999809265137,distr,32675.000190734863,Thu Sep 25 2025 18:20:54 GMT-0500 (Central Daylight Time),772088.5,B,judge,I,e,178,3,5496.0999999940395,766592.400000006,8026,WL,A,9.0
6,27.72499990463257,distr,32275.00009536743,Thu Sep 25 2025 18:20:54 GMT-0500 (Central Daylight Time),772488.7999999821,B,judgeenter,I,enter,395,3,5896.399999976158,766592.400000006,8026,WL,A,9.0
6,30.45799994468689,distr,29542.00005531311,Thu Sep 25 2025 18:20:54 GMT-0500 (Central Daylight Time),775221.400000006,B,p,I,p,2724,3,2732.4000000059605,772489.0,8026,WL,A,10.0
6,30.674000024795532,distr,29325.999975204468,Thu Sep 25 2025 18:20:54 GMT-0500 (Central Daylight Time),775438.099999994,B,pl,I,l,207,3,2949.0999999940395,772489.0,8026,WL,A,10.0
6,31.006999969482422,distr,28993.000030517578,Thu Sep 25 2025 18:20:54 GMT-0500 (Central Daylight Time),775771.0,B,pla,I,a,326,3,3282.0,772489.0,8026,WL,A,10.0
6,31.19099998474121,distr,28809.00001525879,Thu Sep 25 2025 18:20:54 GMT-0500 (Central Daylight Time),775954.2999999821,B,plan,I,n,170,3,3465.2999999821186,772489.0,8026,WL,A,10.0
6,31.323999881744385,distr,28676.000118255615,Thu Sep 25 2025 18:20:54 GMT-0500 (Central Daylight Time),776087.7999999821,B,plane,I,e,122,3,3598.7999999821186,772489.0,8026,WL,A,10.0
6,31.557999849319458,distr,28442.000150680542,Thu Sep 25 2025 18:20:54 GMT-0500 (Central Daylight Time),776321.5,B,planeenter,I,enter,220,3,3832.5,772489.0,8026,WL,A,10.0
6,51.86699986457825,distr,8133.000135421753,Thu Sep 25 2025 18:20:54 GMT-0500 (Central Daylight Time),796631.2999999821,B,n,I,n,20291,3,20309.5,776321.7999999821,8026,WL,A,11.0
6,52.36699986457825,distr,7633.000135421753,Thu Sep 25 2025 18:20:54 GMT-0500 (Central Daylight Time),797131.099999994,B,,I,backspace,485,3,20809.30000001192,776321.7999999821,8026,WL,A,11.0
6,52.633999824523926,distr,7366.000175476074,Thu Sep 25 2025 18:20:54 GMT-0500 (Central Daylight Time),797398.0,B,m,I,m,250,3,21076.20000001788,776321.7999999821,8026,WL,A,11.0
6,52.73299980163574,distr,7267.000198364258,Thu Sep 25 2025 18:20:54 GMT-0500 (Central Daylight Time),797497.400000006,B,me,I,e,93,3,21175.600000023842,776321.7999999821,8026,WL,A,11.0
6,52.91699981689453,distr,7083.000183105469,Thu Sep 25 2025 18:20:54 GMT-0500 (Central Daylight Time),797681.0,B,mea,I,a,163,3,21359.20000001788,776321.7999999821,8026,WL,A,11.0
6,53.36699986457825,distr,6633.000135421753,Thu Sep 25 2025 18:20:54 GMT-0500 (Central Daylight Time),798130.599999994,B,meal,I,l,442,3,21808.80000001192,776321.7999999821,8026,WL,A,11.0
6,53.61699986457825,distr,6383.000135421753,Thu Sep 25 2025 18:20:54 GMT-0500 (Central Daylight Time),798380.900000006,B,mealenter,I,enter,242,3,22059.100000023842,776321.7999999821,8026,WL,A,11.0
6,60.014999866485596,distr,-14.999866485595703,Thu Sep 25 2025 18:20:54 GMT-0500 (Central Daylight Time),804778.6999999881,B,None,I,None,6393,3,6397.5,798381.1999999881,8026,WL,A,12.0
7,0.5499999523162842,immed,59450.000047683716,Thu Sep 25 2025 18:20:54 GMT-0500 (Central Daylight Time),828921.0,A,b,I,b,538,3,549.7000000178814,828371.2999999821,8026,WL,A,1.0
7,0.7330000400543213,immed,59266.99995994568,Thu Sep 25 2025 18:20:54 GMT-0500 (Central Daylight Time),829104.5,A,bo,I,o,170,3,733.2000000178814,828371.2999999821,8026,WL,A,1.0
7,0.9000000953674316,immed,59099.99990463257,Thu Sep 25 2025 18:20:54 GMT-0500 (Central Daylight Time),829271.1999999881,A,boo,I,o,148,3,899.9000000059605,828371.2999999821,8026,WL,A,1.0
7,1.1159999370574951,immed,58884.000062942505,Thu Sep 25 2025 18:20:54 GMT-0500 (Central Daylight Time),829487.5,A,book,I,k,197,3,1116.2000000178814,828371.2999999821,8026,WL,A,1.0
7,1.8329999446868896,immed,58167.00005531311,Thu Sep 25 2025 18:20:54 GMT-0500 (Central Daylight Time),830204.1999999881,A,bookenter,I,enter,709,3,1832.9000000059605,828371.2999999821,8026,WL,A,1.0
7,2.7660000324249268,immed,57233.99996757507,Thu Sep 25 2025 18:20:54 GMT-0500 (Central Daylight Time),831137.0,A,f,I,f,920,3,932.5,830204.5,8026,WL,A,2.0
7,2.9160001277923584,immed,57083.99987220764,Thu Sep 25 2025 18:20:54 GMT-0500 (Central Daylight Time),831287.099999994,A,fl,I,l,140,3,1082.5999999940395,830204.5,8026,WL,A,2.0
7,3.1660001277923584,immed,56833.99987220764,Thu Sep 25 2025 18:20:54 GMT-0500 (Central Daylight Time),831537.400000006,A,flo,I,o,229,3,1332.9000000059605,830204.5,8026,WL,A,2.0
7,3.365999937057495,immed,56634.000062942505,Thu Sep 25 2025 18:20:54 GMT-0500 (Central Daylight Time),831736.900000006,A,flow,I,w,178,3,1532.4000000059605,830204.5,8026,WL,A,2.0
7,3.499000072479248,immed,56500.99992752075,Thu Sep 25 2025 18:20:54 GMT-0500 (Central Daylight Time),831870.099999994,A,flowe,I,e,124,3,1665.5999999940395,830204.5,8026,WL,A,2.0
7,3.7820000648498535,immed,56217.99993515015,Thu Sep 25 2025 18:20:54 GMT-0500 (Central Daylight Time),832153.2999999821,A,flower,I,r,262,3,1948.7999999821186,830204.5,8026,WL,A,2.0
7,4.199000120162964,immed,55800.999879837036,Thu Sep 25 2025 18:20:54 GMT-0500 (Central Daylight Time),832569.7999999821,A,flowerenter,I,enter,410,3,2365.2999999821186,830204.5,8026,WL,A,2.0
7,4.8480000495910645,immed,55151.999950408936,Thu Sep 25 2025 18:20:54 GMT-0500 (Central Daylight Time),833219.599999994,A,t,I,t,634,3,649.5,832570.099999994,8026,WL,A,3.0
7,5.2820000648498535,immed,54717.99993515015,Thu Sep 25 2025 18:20:54 GMT-0500 (Central Daylight Time),833652.900000006,A,tr,I,r,417,3,1082.800000011921,832570.099999994,8026,WL,A,3.0
7,5.465000152587891,immed,54534.99984741211,Thu Sep 25 2025 18:20:54 GMT-0500 (Central Daylight Time),833836.1999999881,A,tra,I,a,168,3,1266.0999999940395,832570.099999994,8026,WL,A,3.0
7,5.631999969482422,immed,54368.00003051758,Thu Sep 25 2025 18:20:54 GMT-0500 (Central Daylight Time),834002.900000006,A,trai,I,i,152,3,1432.800000011921,832570.099999994,8026,WL,A,3.0
7,5.799000024795532,immed,54200.99997520447,Thu Sep 25 2025 18:20:54 GMT-0500 (Central Daylight Time),834169.7999999821,A,train,I,n,154,3,1599.699999988079,832570.099999994,8026,WL,A,3.0
7,6.215000152587891,immed,53784.99984741211,Thu Sep 25 2025 18:20:54 GMT-0500 (Central Daylight Time),834585.900000006,A,trainenter,I,enter,403,3,2015.800000011921,832570.099999994,8026,WL,A,3.0
7,7.013999938964844,immed,52986.000061035156,Thu Sep 25 2025 18:20:54 GMT-0500 (Central Daylight Time),835385.5,A,r,I,r,778,3,799.4000000059605,834586.099999994,8026,WL,A,4.0
7,7.29800009727478,immed,52701.99990272522,Thu Sep 25 2025 18:20:54 GMT-0500 (Central Daylight Time),835669.1999999881,A,ru,I,u,267,3,1083.0999999940395,834586.099999994,8026,WL,A,4.0
7,7.79800009727478,immed,52201.99990272522,Thu Sep 25 2025 18:20:54 GMT-0500 (Central Daylight Time),836168.7999999821,A,rug,I,g,487,3,1582.699999988079,834586.099999994,8026,WL,A,4.0
7,8.513999938964844,immed,51486.000061035156,Thu Sep 25 2025 18:20:54 GMT-0500 (Central Daylight Time),836885.400000006,A,rugenter,I,enter,700,3,2299.300000011921,834586.099999994,8026,WL,A,4.0
7,9.312999963760376,immed,50687.000036239624,Thu Sep 25 2025 18:20:54 GMT-0500 (Central Daylight Time),837684.6999999881,A,m,I,m,783,3,799.0999999940395,836885.599999994,8026,WL,A,5.0
7,9.44700002670288,immed,50552.99997329712,Thu Sep 25 2025 18:20:54 GMT-0500 (Central Daylight Time),837818.2999999821,A,me,I,e,120,3,932.6999999880791,836885.599999994,8026,WL,A,5.0
7,9.61299991607666,immed,50387.00008392334,Thu Sep 25 2025 18:20:54 GMT-0500 (Central Daylight Time),837984.900000006,A,mea,I,a,161,3,1099.300000011921,836885.599999994,8026,WL,A,5.0
7,9.896000146865845,immed,50103.999853134155,Thu Sep 25 2025 18:20:54 GMT-0500 (Central Daylight Time),838268.0,A,mead,I,d,275,3,1382.4000000059605,836885.599999994,8026,WL,A,5.0
7,10.11299991607666,immed,49887.00008392334,Thu Sep 25 2025 18:20:54 GMT-0500 (Central Daylight Time),838484.6999999881,A,meado,I,o,209,3,1599.0999999940395,836885.599999994,8026,WL,A,5.0
7,10.397000074386597,immed,49602.9999256134,Thu Sep 25 2025 18:20:54 GMT-0500 (Central Daylight Time),838768.599999994,A,meadow,I,w,279,3,1883.0,836885.599999994,8026,WL,A,5.0
7,10.812999963760376,immed,49187.000036239624,Thu Sep 25 2025 18:20:54 GMT-0500 (Central Daylight Time),839184.599999994,A,meadowenter,I,enter,395,3,2299.0,836885.599999994,8026,WL,A,5.0
7,11.663000106811523,immed,48336.99989318848,Thu Sep 25 2025 18:20:54 GMT-0500 (Central Daylight Time),840034.2999999821,A,h,I,h,844,3,849.3999999761581,839184.900000006,8026,WL,A,6.0
7,11.829999923706055,immed,48170.000076293945,Thu Sep 25 2025 18:20:54 GMT-0500 (Central Daylight Time),840201.099999994,A,ha,I,a,162,3,1016.1999999880791,839184.900000006,8026,WL,A,6.0
7,12.062000036239624,immed,47937.999963760376,Thu Sep 25 2025 18:20:54 GMT-0500 (Central Daylight Time),840433.7999999821,A,har,I,r,227,3,1248.8999999761581,839184.900000006,8026,WL,A,6.0
7,12.42900013923645,immed,47570.99986076355,Thu Sep 25 2025 18:20:54 GMT-0500 (Central Daylight Time),840800.6999999881,A,harp,I,p,346,3,1615.7999999821186,839184.900000006,8026,WL,A,6.0
7,13.479000091552734,immed,46520.999908447266,Thu Sep 25 2025 18:20:54 GMT-0500 (Central Daylight Time),841850.400000006,A,harpenter,I,enter,1036,3,2665.5,839184.900000006,8026,WL,A,6.0
7,14.279000043869019,immed,45720.99995613098,Thu Sep 25 2025 18:20:54 GMT-0500 (Central Daylight Time),842650.900000006,A,c,I,c,793,3,800.1000000238419,841850.7999999821,8026,WL,A,7.0
7,14.621999979019165,immed,45378.000020980835,Thu Sep 25 2025 18:20:54 GMT-0500 (Central Daylight Time),842993.1999999881,A,ch,I,h,319,3,1142.4000000059605,841850.7999999821,8026,WL,A,7.0
7,14.712000131607056,immed,45287.999868392944,Thu Sep 25 2025 18:20:54 GMT-0500 (Central Daylight Time),843083.599999994,A,chi,I,i,70,3,1232.800000011921,841850.7999999821,8026,WL,A,7.0
7,15.045000076293945,immed,44954.999923706055,Thu Sep 25 2025 18:20:54 GMT-0500 (Central Daylight Time),843416.400000006,A,chim,I,m,321,3,1565.6000000238419,841850.7999999821,8026,WL,A,7.0
7,15.611000061035156,immed,44388.999938964844,Thu Sep 25 2025 18:20:54 GMT-0500 (Central Daylight Time),843982.7999999821,A,chimn,I,n,547,3,2132.0,841850.7999999821,8026,WL,A,7.0
7,15.760999917984009,immed,44239.00008201599,Thu Sep 25 2025 18:20:54 GMT-0500 (Central Daylight Time),844133.0,A,chimne,I,e,134,3,2282.2000000178814,841850.7999999821,8026,WL,A,7.0
7,16.24500012397766,immed,43754.99987602234,Thu Sep 25 2025 18:20:54 GMT-0500 (Central Daylight Time),844616.1999999881,A,chimney,I,y,472,3,2765.4000000059605,841850.7999999821,8026,WL,A,7.0
7,16.710999965667725,immed,43289.000034332275,Thu Sep 25 2025 18:20:54 GMT-0500 (Central Daylight Time),845082.7999999821,A,chimneyenter,I,enter,461,3,3232.0,841850.7999999821,8026,WL,A,7.0
7,17.294000148773193,immed,42705.99985122681,Thu Sep 25 2025 18:20:54 GMT-0500 (Central Daylight Time),845665.900000006,A,b,I,b,569,3,582.9000000059605,845083.0,8026,WL,A,8.0
7,17.544000148773193,immed,42455.99985122681,Thu Sep 25 2025 18:20:54 GMT-0500 (Central Daylight Time),845915.900000006,A,bu,I,u,234,3,832.9000000059605,845083.0,8026,WL,A,8.0
7,17.91100001335144,immed,42088.99998664856,Thu Sep 25 2025 18:20:54 GMT-0500 (Central Daylight Time),846282.099999994,A,but,I,t,361,3,1199.0999999940395,845083.0,8026,WL,A,8.0
7,18.05999994277954,immed,41940.00005722046,Thu Sep 25 2025 18:20:54 GMT-0500 (Central Daylight Time),846432.0,A,buto,I,o,138,3,1349.0,845083.0,8026,WL,A,8.0
7,18.227999925613403,immed,41772.0000743866,Thu Sep 25 2025 18:20:54 GMT-0500 (Central Daylight Time),846599.0,A,buton,I,n,149,3,1516.0,845083.0,8026,WL,A,8.0
7,19.026999950408936,immed,40973.000049591064,Thu Sep 25 2025 18:20:54 GMT-0500 (Central Daylight Time),847398.599999994,A,butonl,I,l,790,3,2315.5999999940395,845083.0,8026,WL,A,8.0
7,19.294000148773193,immed,40705.99985122681,Thu Sep 25 2025 18:20:54 GMT-0500 (Central Daylight Time),847665.099999994,A,butonlo,I,o,262,3,2582.0999999940395,845083.0,8026,WL,A,8.0
