block_c,block_dur,condition,countdown,datetime,endtime,list,multichar_response,project,response,response_time,session_number,start_end,starttime,subject_id,task,task_vers,trial
,,,,Tue Dec 09 2025 14:12:51 GMT-0600 (Central Standard Time),,,,O,space,475,1,,,7243,WL,A,
prac,,0,,Tue Dec 09 2025 14:12:51 GMT-0600 (Central Standard Time),,NA,b,O,b,2681,1,,,7243,WL,A,1.0
prac,,0,,Tue Dec 09 2025 14:12:51 GMT-0600 (Central Standard Time),,NA,bo,O,o,128,1,,,7243,WL,A,1.0
prac,,0,,Tue Dec 09 2025 14:12:51 GMT-0600 (Central Standard Time),,NA,boo,O,o,128,1,,,7243,WL,A,1.0
prac,,0,,Tue Dec 09 2025 14:12:51 GMT-0600 (Central Standard Time),,NA,boos,O,s,105,1,,,7243,WL,A,1.0
prac,,0,,Tue Dec 09 2025 14:12:51 GMT-0600 (Central Standard Time),,NA,boost,O,t,53,1,,,7243,WL,A,1.0
prac,,0,,Tue Dec 09 2025 14:12:51 GMT-0600 (Central Standard Time),,NA,boostenter,O,enter,2084,1,,,7243,WL,A,1.0
1,2.9659998416900635,learn,57034.00015830994,Tue Dec 09 2025 14:12:51 GMT-0600 (Central Standard Time),150700.39999997616,A,b,O,b,2951,1,2964.800000011921,147735.59999996424,7243,WL,A,1.0
1,3.1999998092651367,learn,56800.00019073486,Tue Dec 09 2025 14:12:51 GMT-0600 (Central Standard Time),150934.89999997616,A,bo,O,o,227,1,3199.300000011921,147735.59999996424,7243,WL,A,1.0
1,3.3339998722076416,learn,56666.00012779236,Tue Dec 09 2025 14:12:51 GMT-0600 (Central Standard Time),151068.79999995232,A,boo,O,o,110,1,3333.199999988079,147735.59999996424,7243,WL,A,1.0
1,3.5829999446868896,learn,56417.00005531311,Tue Dec 09 2025 14:12:51 GMT-0600 (Central Standard Time),151317.19999998808,A,book,O,k,237,1,3581.600000023842,147735.59999996424,7243,WL,A,1.0
1,5.447999954223633,learn,54552.00004577637,Tue Dec 09 2025 14:12:51 GMT-0600 (Central Standard Time),153182.79999995232,A,bookenter,O,enter,1860,1,5447.199999988079,147735.59999996424,7243,WL,A,1.0
1,6.680999994277954,learn,53319.000005722046,Tue Dec 09 2025 14:12:51 GMT-0600 (Central Standard Time),154415.59999996424,A,f,O,f,1224,1,1232.3999999761581,153183.19999998808,7243,WL,A,2.0
1,6.7809998989105225,learn,53219.00010108948,Tue Dec 09 2025 14:12:51 GMT-0600 (Central Standard Time),154516.0,A,fl,O,l,87,1,1332.800000011921,153183.19999998808,7243,WL,A,2.0
1,6.930999994277954,learn,53069.000005722046,Tue Dec 09 2025 14:12:51 GMT-0600 (Central Standard Time),154665.79999995232,A,flo,O,o,138,1,1482.5999999642372,153183.19999998808,7243,WL,A,2.0
1,6.996999979019165,learn,53003.000020980835,Tue Dec 09 2025 14:12:51 GMT-0600 (Central Standard Time),154732.19999998808,A,flow,O,w,52,1,1549.0,153183.19999998808,7243,WL,A,2.0
1,7.080999851226807,learn,52919.00014877319,Tue Dec 09 2025 14:12:51 GMT-0600 (Central Standard Time),154815.59999996424,A,flowe,O,e,73,1,1632.3999999761581,153183.19999998808,7243,WL,A,2.0
1,7.163999795913696,learn,52836.000204086304,Tue Dec 09 2025 14:12:51 GMT-0600 (Central Standard Time),154899.0,A,flower,O,r,60,1,1715.800000011921,153183.19999998808,7243,WL,A,2.0
1,7.264999866485596,learn,52735.000133514404,Tue Dec 09 2025 14:12:51 GMT-0600 (Central Standard Time),154999.59999996424,A,flowerenter,O,enter,90,1,1816.3999999761581,153183.19999998808,7243,WL,A,2.0
1,7.947000026702881,learn,52052.99997329712,Tue Dec 09 2025 14:12:51 GMT-0600 (Central Standard Time),155681.89999997616,A,c,O,c,662,1,681.8999999761581,155000.0,7243,WL,A,3.0
1,8.063999891281128,learn,51936.00010871887,Tue Dec 09 2025 14:12:51 GMT-0600 (Central Standard Time),155798.79999995232,A,ch,O,h,102,1,798.7999999523163,155000.0,7243,WL,A,3.0
1,8.180999994277954,learn,51819.000005722046,Tue Dec 09 2025 14:12:51 GMT-0600 (Central Standard Time),155915.79999995232,A,chi,O,i,96,1,915.7999999523163,155000.0,7243,WL,A,3.0
1,8.399999856948853,learn,51600.00014305115,Tue Dec 09 2025 14:12:51 GMT-0600 (Central Standard Time),156134.69999998808,A,chim,O,m,213,1,1134.699999988079,155000.0,7243,WL,A,3.0
1,8.879999876022339,learn,51120.00012397766,Tue Dec 09 2025 14:12:51 GMT-0600 (Central Standard Time),156614.59999996424,A,chimn,O,n,465,1,1614.5999999642372,155000.0,7243,WL,A,3.0
1,9.096999883651733,learn,50903.00011634827,Tue Dec 09 2025 14:12:51 GMT-0600 (Central Standard Time),156832.09999996424,A,chimne,O,e,209,1,1832.0999999642372,155000.0,7243,WL,A,3.0
1,9.246999979019165,learn,50753.000020980835,Tue Dec 09 2025 14:12:51 GMT-0600 (Central Standard Time),156982.29999995232,A,chimney,O,y,142,1,1982.2999999523163,155000.0,7243,WL,A,3.0
1,9.530999898910522,learn,50469.00010108948,Tue Dec 09 2025 14:12:51 GMT-0600 (Central Standard Time),157265.29999995232,A,chimneyenter,O,enter,263,1,2265.2999999523163,155000.0,7243,WL,A,3.0
1,11.38099980354309,learn,48619.00019645691,Tue Dec 09 2025 14:12:51 GMT-0600 (Central Standard Time),159116.0,A,l,O,l,1837,1,1850.4000000357628,157265.59999996424,7243,WL,A,4.0
1,11.54699993133545,learn,48453.00006866455,Tue Dec 09 2025 14:12:51 GMT-0600 (Central Standard Time),159282.19999998808,A,lo,O,o,155,1,2016.6000000238419,157265.59999996424,7243,WL,A,4.0
1,11.730000019073486,learn,48269.999980926514,Tue Dec 09 2025 14:12:51 GMT-0600 (Central Standard Time),159464.69999998808,A,log,O,g,166,1,2199.100000023842,157265.59999996424,7243,WL,A,4.0
1,11.895999908447266,learn,48104.000091552734,Tue Dec 09 2025 14:12:51 GMT-0600 (Central Standard Time),159630.39999997616,A,logenter,O,enter,149,1,2364.800000011921,157265.59999996424,7243,WL,A,4.0
1,18.82799983024597,learn,41172.00016975403,Tue Dec 09 2025 14:12:51 GMT-0600 (Central Standard Time),166562.39999997616,A,f,O,f,6921,1,6931.800000011921,159630.59999996424,7243,WL,A,5.0
1,18.959999799728394,learn,41040.00020027161,Tue Dec 09 2025 14:12:51 GMT-0600 (Central Standard Time),166695.0,A,fl,O,l,128,1,7064.400000035763,159630.59999996424,7243,WL,A,5.0
1,19.128000020980835,learn,40871.999979019165,Tue Dec 09 2025 14:12:51 GMT-0600 (Central Standard Time),166862.89999997616,A,flo,O,o,152,1,7232.300000011921,159630.59999996424,7243,WL,A,5.0
1,19.192999839782715,learn,40807.000160217285,Tue Dec 09 2025 14:12:51 GMT-0600 (Central Standard Time),166927.59999996424,A,flow,O,w,57,1,7297.0,159630.59999996424,7243,WL,A,5.0
1,19.294999837875366,learn,40705.000162124634,Tue Dec 09 2025 14:12:51 GMT-0600 (Central Standard Time),167030.0,A,flowe,O,e,79,1,7399.400000035763,159630.59999996424,7243,WL,A,5.0
1,19.359999895095825,learn,40640.000104904175,Tue Dec 09 2025 14:12:51 GMT-0600 (Central Standard Time),167094.19999998808,A,flower,O,r,47,1,7463.600000023842,159630.59999996424,7243,WL,A,5.0
1,19.542999982833862,learn,40457.00001716614,Tue Dec 09 2025 14:12:51 GMT-0600 (Central Standard Time),167277.5,A,flowerenter,O,enter,170,1,7646.900000035763,159630.59999996424,7243,WL,A,5.0
1,27.607999801635742,learn,32392.000198364258,Tue Dec 09 2025 14:12:51 GMT-0600 (Central Standard Time),175342.89999997616,A,o,O,o,8050,1,8065.199999988079,167277.69999998808,7243,WL,A,6.0
1,27.70899987220764,learn,32291.00012779236,Tue Dec 09 2025 14:12:51 GMT-0600 (Central Standard Time),175443.29999995232,A,or,O,r,89,1,8165.599999964237,167277.69999998808,7243,WL,A,6.0
1,27.840999841690063,learn,32159.000158309937,Tue Dec 09 2025 14:12:51 GMT-0600 (Central Standard Time),175575.29999995232,A,ore,O,e,116,1,8297.599999964237,167277.69999998808,7243,WL,A,6.0
1,28.008999824523926,learn,31991.000175476074,Tue Dec 09 2025 14:12:51 GMT-0600 (Central Standard Time),175743.69999998808,A,oreenter,O,enter,162,1,8466.0,167277.69999998808,7243,WL,A,6.0
1,48.06599998474121,learn,11934.000015258789,Tue Dec 09 2025 14:12:51 GMT-0600 (Central Standard Time),195802.89999997616,A,enter,O,enter,20047,1,20059.0,175743.89999997616,7243,WL,A,7.0
1,48.99899983406067,learn,11001.000165939331,Tue Dec 09 2025 14:12:51 GMT-0600 (Central Standard Time),196735.39999997616,A,enter,O,enter,926,1,932.1999999880791,195803.19999998808,7243,WL,A,8.0
1,49.531999826431274,learn,10468.000173568726,Tue Dec 09 2025 14:12:51 GMT-0600 (Central Standard Time),197269.09999996424,A,enter,O,enter,513,1,533.3999999761581,196735.69999998808,7243,WL,A,9.0
1,50.78399991989136,learn,9216.000080108643,Tue Dec 09 2025 14:12:51 GMT-0600 (Central Standard Time),198520.79999995232,A,enter,O,enter,1235,1,1251.3999999761581,197269.39999997616,7243,WL,A,10.0
1,51.36800003051758,learn,8631.999969482422,Tue Dec 09 2025 14:12:51 GMT-0600 (Central Standard Time),199104.69999998808,A,enter,O,enter,567,1,583.6000000238419,198521.09999996424,7243,WL,A,11.0
1,51.63099980354309,learn,8369.00019645691,Tue Dec 09 2025 14:12:51 GMT-0600 (Central Standard Time),199368.0,A,enter,O,enter,246,1,262.9000000357628,199105.09999996424,7243,WL,A,12.0
1,51.83200001716614,learn,8167.999982833862,Tue Dec 09 2025 14:12:51 GMT-0600 (Central Standard Time),199568.69999998808,A,enter,O,enter,192,1,200.4000000357628,199368.29999995232,7243,WL,A,13.0
1,52.23199987411499,learn,7768.00012588501,Tue Dec 09 2025 14:12:51 GMT-0600 (Central Standard Time),199968.89999997616,A,enter,O,enter,391,1,400.0,199568.89999997616,7243,WL,A,14.0
1,52.78099989891052,learn,7219.0001010894775,Tue Dec 09 2025 14:12:51 GMT-0600 (Central Standard Time),200517.59999996424,A,enter,O,enter,543,1,548.3999999761581,199969.19999998808,7243,WL,A,15.0
2,0.8990001678466797,learn,59100.99983215332,Tue Dec 09 2025 14:12:51 GMT-0600 (Central Standard Time),270578.0,A,l,O,l,891,1,899.0,269679.0,7243,WL,A,1.0
2,1.065000057220459,learn,58934.99994277954,Tue Dec 09 2025 14:12:51 GMT-0600 (Central Standard Time),270744.1999999881,A,lo,O,o,158,1,1065.199999988079,269679.0,7243,WL,A,1.0
2,1.1490001678466797,learn,58850.99983215332,Tue Dec 09 2025 14:12:51 GMT-0600 (Central Standard Time),270828.09999996424,A,log,O,g,81,1,1149.0999999642372,269679.0,7243,WL,A,1.0
2,2.183000087738037,learn,57816.99991226196,Tue Dec 09 2025 14:12:51 GMT-0600 (Central Standard Time),271861.5,A,logenter,O,enter,1030,1,2182.5,269679.0,7243,WL,A,1.0
2,2.8000001907348633,learn,57199.99980926514,Tue Dec 09 2025 14:12:51 GMT-0600 (Central Standard Time),272478.39999997616,A,k,O,k,601,1,616.6000000238419,271861.7999999523,7243,WL,A,2.0
2,2.932000160217285,learn,57067.999839782715,Tue Dec 09 2025 14:12:51 GMT-0600 (Central Standard Time),272611.0,A,ke,O,e,122,1,749.2000000476837,271861.7999999523,7243,WL,A,2.0
2,3.0830001831054688,learn,56916.99981689453,Tue Dec 09 2025 14:12:51 GMT-0600 (Central Standard Time),272761.2999999523,A,key,O,y,139,1,899.5,271861.7999999523,7243,WL,A,2.0
2,3.4650001525878906,learn,56534.99984741211,Tue Dec 09 2025 14:12:51 GMT-0600 (Central Standard Time),273143.7999999523,A,keyenter,O,enter,377,1,1282.0,271861.7999999523,7243,WL,A,2.0
2,3.632000207901001,learn,56367.999792099,Tue Dec 09 2025 14:12:51 GMT-0600 (Central Standard Time),273311.09999996424,A,r,O,r,159,1,167.0,273144.09999996424,7243,WL,A,3.0
2,3.8330001831054688,learn,56166.99981689453,Tue Dec 09 2025 14:12:51 GMT-0600 (Central Standard Time),273511.39999997616,A,ra,O,a,185,1,367.30000001192093,273144.09999996424,7243,WL,A,3.0
2,4.016000032424927,learn,55983.99996757507,Tue Dec 09 2025 14:12:51 GMT-0600 (Central Standard Time),273694.89999997616,A,rat,O,t,169,1,550.8000000119209,273144.09999996424,7243,WL,A,3.0
2,4.14900016784668,learn,55850.99983215332,Tue Dec 09 2025 14:12:51 GMT-0600 (Central Standard Time),273827.5,A,ratt,O,t,122,1,683.4000000357628,273144.09999996424,7243,WL,A,3.0
2,5.132000207901001,learn,54867.999792099,Tue Dec 09 2025 14:12:51 GMT-0600 (Central Standard Time),274810.89999997616,A,rattl,O,l,964,1,1666.800000011921,273144.09999996424,7243,WL,A,3.0
2,5.249000072479248,learn,54750.99992752075,Tue Dec 09 2025 14:12:51 GMT-0600 (Central Standard Time),274927.1999999881,A,rattle,O,e,108,1,1783.1000000238419,273144.09999996424,7243,WL,A,3.0
2,5.366000175476074,learn,54633.999824523926,Tue Dec 09 2025 14:12:51 GMT-0600 (Central Standard Time),275044.39999997616,A,rattleenter,O,enter,103,1,1900.300000011921,273144.09999996424,7243,WL,A,3.0
2,5.949000120162964,learn,54050.999879837036,Tue Dec 09 2025 14:12:51 GMT-0600 (Central Standard Time),275627.5,A,g,O,g,563,1,582.9000000357628,275044.59999996424,7243,WL,A,4.0
2,6.082000017166138,learn,53917.99998283386,Tue Dec 09 2025 14:12:51 GMT-0600 (Central Standard Time),275760.39999997616,A,go,O,o,124,1,715.8000000119209,275044.59999996424,7243,WL,A,4.0
2,6.265000104904175,learn,53734.999895095825,Tue Dec 09 2025 14:12:51 GMT-0600 (Central Standard Time),275943.7999999523,A,gol,O,l,172,1,899.1999999880791,275044.59999996424,7243,WL,A,4.0
2,6.365000009536743,learn,53634.99999046326,Tue Dec 09 2025 14:12:51 GMT-0600 (Central Standard Time),276043.59999996424,A,gold,O,d,89,1,999.0,275044.59999996424,7243,WL,A,4.0
2,6.481000185012817,learn,53518.99981498718,Tue Dec 09 2025 14:12:51 GMT-0600 (Central Standard Time),276159.59999996424,A,goldenter,O,enter,101,1,1115.0,275044.59999996424,7243,WL,A,4.0
2,7.184000015258789,learn,52815.99998474121,Tue Dec 09 2025 14:12:51 GMT-0600 (Central Standard Time),276862.2999999523,A,f,O,f,698,1,702.5,276159.7999999523,7243,WL,A,5.0
2,7.281000137329102,learn,52718.9998626709,Tue Dec 09 2025 14:12:51 GMT-0600 (Central Standard Time),276960.0,A,fl,O,l,88,1,800.2000000476837,276159.7999999523,7243,WL,A,5.0
2,7.432000160217285,learn,52567.999839782715,Tue Dec 09 2025 14:12:51 GMT-0600 (Central Standard Time),277111.0,A,flo,O,o,144,1,951.2000000476837,276159.7999999523,7243,WL,A,5.0
2,7.515000104904175,learn,52484.999895095825,Tue Dec 09 2025 14:12:51 GMT-0600 (Central Standard Time),277193.7999999523,A,flow,O,w,65,1,1034.0,276159.7999999523,7243,WL,A,5.0
2,7.564000129699707,learn,52435.99987030029,Tue Dec 09 2025 14:12:51 GMT-0600 (Central Standard Time),277242.59999996424,A,flowe,O,e,28,1,1082.800000011921,276159.7999999523,7243,WL,A,5.0
2,7.647000074386597,learn,52352.9999256134,Tue Dec 09 2025 14:12:51 GMT-0600 (Central Standard Time),277326.0,A,flower,O,r,70,1,1166.2000000476837,276159.7999999523,7243,WL,A,5.0
2,7.748000144958496,learn,52251.999855041504,Tue Dec 09 2025 14:12:51 GMT-0600 (Central Standard Time),277427.1999999881,A,flowerenter,O,enter,82,1,1267.4000000357628,276159.7999999523,7243,WL,A,5.0
2,8.314000129699707,learn,51685.99987030029,Tue Dec 09 2025 14:12:51 GMT-0600 (Central Standard Time),277993.0,A,c,O,c,549,1,565.7000000476837,277427.2999999523,7243,WL,A,6.0
2,8.415000200271606,learn,51584.99979972839,Tue Dec 09 2025 14:12:51 GMT-0600 (Central Standard Time),278093.2999999523,A,ch,O,h,96,1,666.0,277427.2999999523,7243,WL,A,6.0
2,9.29800009727478,learn,50701.99990272522,Tue Dec 09 2025 14:12:51 GMT-0600 (Central Standard Time),278976.39999997616,A,chi,O,i,878,1,1549.1000000238419,277427.2999999523,7243,WL,A,6.0
2,9.397000074386597,learn,50602.9999256134,Tue Dec 09 2025 14:12:51 GMT-0600 (Central Standard Time),279076.0,A,chim,O,m,87,1,1648.7000000476837,277427.2999999523,7243,WL,A,6.0
2,9.598000049591064,learn,50401.999950408936,Tue Dec 09 2025 14:12:51 GMT-0600 (Central Standard Time),279276.6999999881,A,chimn,O,n,181,1,1849.4000000357628,277427.2999999523,7243,WL,A,6.0
2,9.731000185012817,learn,50268.99981498718,Tue Dec 09 2025 14:12:51 GMT-0600 (Central Standard Time),279410.0,A,chimne,O,e,115,1,1982.7000000476837,277427.2999999523,7243,WL,A,6.0
2,9.865000009536743,learn,50134.99999046326,Tue Dec 09 2025 14:12:51 GMT-0600 (Central Standard Time),279543.2999999523,A,chimney,O,y,116,1,2116.0,277427.2999999523,7243,WL,A,6.0
2,10.13100004196167,learn,49868.99995803833,Tue Dec 09 2025 14:12:51 GMT-0600 (Central Standard Time),279810.0,A,chimneyenter,O,enter,248,1,2382.7000000476837,277427.2999999523,7243,WL,A,6.0
2,10.682000160217285,learn,49317.999839782715,Tue Dec 09 2025 14:12:51 GMT-0600 (Central Standard Time),280360.7999999523,A,l,O,l,534,1,550.5,279810.2999999523,7243,WL,A,7.0
2,11.830000162124634,learn,48169.999837875366,Tue Dec 09 2025 14:12:51 GMT-0600 (Central Standard Time),281508.2999999523,A,,O,backspace,1127,1,1698.0,279810.2999999523,7243,WL,A,7.0
2,12.114000082015991,learn,47885.99991798401,Tue Dec 09 2025 14:12:51 GMT-0600 (Central Standard Time),281792.2999999523,A,a,O,a,267,1,1982.0,279810.2999999523,7243,WL,A,7.0
2,12.180000066757202,learn,47819.9999332428,Tue Dec 09 2025 14:12:51 GMT-0600 (Central Standard Time),281858.7999999523,A,ap,O,p,54,1,2048.5,279810.2999999523,7243,WL,A,7.0
2,12.34600019454956,learn,47653.99980545044,Tue Dec 09 2025 14:12:51 GMT-0600 (Central Standard Time),282024.5,A,app,O,p,150,1,2214.2000000476837,279810.2999999523,7243,WL,A,7.0
2,12.517000198364258,learn,47482.99980163574,Tue Dec 09 2025 14:12:51 GMT-0600 (Central Standard Time),282195.2999999523,A,appl,O,l,159,1,2385.0,279810.2999999523,7243,WL,A,7.0
2,12.597000122070312,learn,47402.99987792969,Tue Dec 09 2025 14:12:51 GMT-0600 (Central Standard Time),282275.6999999881,A,apple,O,e,60,1,2465.400000035763,279810.2999999523,7243,WL,A,7.0
2,12.796000003814697,learn,47203.9999961853,Tue Dec 09 2025 14:12:51 GMT-0600 (Central Standard Time),282474.2999999523,A,appleenter,O,enter,179,1,2664.0,279810.2999999523,7243,WL,A,7.0
2,19.97699999809265,learn,40023.00000190735,Tue Dec 09 2025 14:12:51 GMT-0600 (Central Standard Time),289655.2999999523,A,t,O,t,7165,1,7180.699999988079,282474.59999996424,7243,WL,A,8.0
2,20.210000038146973,learn,39789.99996185303,Tue Dec 09 2025 14:12:51 GMT-0600 (Central Standard Time),289889.0,A,tr,O,r,223,1,7414.400000035763,282474.59999996424,7243,WL,A,8.0
2,20.4280002117157,learn,39571.9997882843,Tue Dec 09 2025 14:12:51 GMT-0600 (Central Standard Time),290106.5,A,tra,O,a,201,1,7631.900000035763,282474.59999996424,7243,WL,A,8.0
2,20.5770001411438,learn,39422.9998588562,Tue Dec 09 2025 14:12:51 GMT-0600 (Central Standard Time),290255.7999999523,A,trai,O,i,142,1,7781.199999988079,282474.59999996424,7243,WL,A,8.0
2,20.728000164031982,learn,39271.99983596802,Tue Dec 09 2025 14:12:51 GMT-0600 (Central Standard Time),290406.39999997616,A,train,O,n,137,1,7931.800000011921,282474.59999996424,7243,WL,A,8.0
2,21.0770001411438,learn,38922.9998588562,Tue Dec 09 2025 14:12:51 GMT-0600 (Central Standard Time),290755.39999997616,A,trainenter,O,enter,336,1,8280.800000011921,282474.59999996424,7243,WL,A,8.0
2,25.72699999809265,learn,34273.00000190735,Tue Dec 09 2025 14:12:51 GMT-0600 (Central Standard Time),295405.5,A,enter,O,enter,4645,1,4649.800000011921,290755.6999999881,7243,WL,A,9.0
2,25.89300012588501,learn,34106.99987411499,Tue Dec 09 2025 14:12:51 GMT-0600 (Central Standard Time),295571.2999999523,A,enter,O,enter,156,1,165.5,295405.7999999523,7243,WL,A,10.0
2,26.026000022888184,learn,33973.99997711182,Tue Dec 09 2025 14:12:51 GMT-0600 (Central Standard Time),295705.0,A,enter,O,enter,125,1,133.5,295571.5,7243,WL,A,11.0
2,26.142000198364258,learn,33857.99980163574,Tue Dec 09 2025 14:12:51 GMT-0600 (Central Standard Time),295820.89999997616,A,enter,O,enter,102,1,115.60000002384186,295705.2999999523,7243,WL,A,12.0
2,26.492000102996826,learn,33507.999897003174,Tue Dec 09 2025 14:12:51 GMT-0600 (Central Standard Time),296170.2999999523,A,enter,O,enter,330,1,349.0999999642372,295821.1999999881,7243,WL,A,13.0
2,26.759000062942505,learn,33240.999937057495,Tue Dec 09 2025 14:12:51 GMT-0600 (Central Standard Time),296437.2999999523,A,enter,O,enter,262,1,266.69999998807907,296170.59999996424,7243,WL,A,14.0
2,27.27500009536743,learn,32724.99990463257,Tue Dec 09 2025 14:12:51 GMT-0600 (Central Standard Time),296953.7999999523,A,enter,O,enter,498,1,516.1999999880791,296437.59999996424,7243,WL,A,15.0
3,1.0170001983642578,learn,58982.99980163574,Tue Dec 09 2025 14:12:51 GMT-0600 (Central Standard Time),363916.1999999881,A,l,O,l,994,1,1016.1999999880791,362900.0,7243,WL,A,1.0
3,1.183000087738037,learn,58816.99991226196,Tue Dec 09 2025 14:12:51 GMT-0600 (Central Standard Time),364082.39999997616,A,lo,O,o,157,1,1182.3999999761581,362900.0,7243,WL,A,1.0
3,1.3660001754760742,learn,58633.999824523926,Tue Dec 09 2025 14:12:51 GMT-0600 (Central Standard Time),364266.0,A,log,O,g,163,1,1366.0,362900.0,7243,WL,A,1.0
3,1.6480000019073486,learn,58351.99999809265,Tue Dec 09 2025 14:12:51 GMT-0600 (Central Standard Time),364548.1999999881,A,logenter,O,enter,267,1,1648.199999988079,362900.0,7243,WL,A,1.0
3,2.0490000247955322,learn,57950.99997520447,Tue Dec 09 2025 14:12:51 GMT-0600 (Central Standard Time),364949.09999996424,A,r,O,r,389,1,400.69999998807907,364548.39999997616,7243,WL,A,2.0
3,2.199000120162964,learn,57800.999879837036,Tue Dec 09 2025 14:12:51 GMT-0600 (Central Standard Time),365098.2999999523,A,ra,O,a,137,1,549.8999999761581,364548.39999997616,7243,WL,A,2.0
3,2.3500001430511475,learn,57649.99985694885,Tue Dec 09 2025 14:12:51 GMT-0600 (Central Standard Time),365249.5,A,rat,O,t,132,1,701.1000000238419,364548.39999997616,7243,WL,A,2.0
3,2.7150001525878906,learn,57284.99984741211,Tue Dec 09 2025 14:12:51 GMT-0600 (Central Standard Time),365614.89999997616,A,ratt,O,t,347,1,1066.5,364548.39999997616,7243,WL,A,2.0
3,3.0,learn,57000.0,Tue Dec 09 2025 14:12:51 GMT-0600 (Central Standard Time),365899.89999997616,A,rattl,O,l,272,1,1351.5,364548.39999997616,7243,WL,A,2.0
3,3.1500000953674316,learn,56849.99990463257,Tue Dec 09 2025 14:12:51 GMT-0600 (Central Standard Time),366049.7999999523,A,rattle,O,e,130,1,1501.3999999761581,364548.39999997616,7243,WL,A,2.0
3,3.3010001182556152,learn,56698.999881744385,Tue Dec 09 2025 14:12:51 GMT-0600 (Central Standard Time),366200.7999999523,A,rattleenter,O,enter,133,1,1652.3999999761581,364548.39999997616,7243,WL,A,2.0
3,4.465000152587891,learn,55534.99984741211,Tue Dec 09 2025 14:12:51 GMT-0600 (Central Standard Time),367365.09999996424,A,g,O,g,1142,1,1164.0,366201.09999996424,7243,WL,A,3.0
3,4.5980000495910645,learn,55401.999950408936,Tue Dec 09 2025 14:12:51 GMT-0600 (Central Standard Time),367497.59999996424,A,go,O,o,122,1,1296.5,366201.09999996424,7243,WL,A,3.0
3,4.814000129699707,learn,55185.99987030029,Tue Dec 09 2025 14:12:51 GMT-0600 (Central Standard Time),367714.0,A,gol,O,l,197,1,1512.9000000357628,366201.09999996424,7243,WL,A,3.0
3,4.88100004196167,learn,55118.99995803833,Tue Dec 09 2025 14:12:51 GMT-0600 (Central Standard Time),367780.39999997616,A,gold,O,d,62,1,1579.300000011921,366201.09999996424,7243,WL,A,3.0
3,5.148000001907349,learn,54851.99999809265,Tue Dec 09 2025 14:12:51 GMT-0600 (Central Standard Time),368048.0,A,goldenter,O,enter,260,1,1846.9000000357628,366201.09999996424,7243,WL,A,3.0
3,6.13100004196167,learn,53868.99995803833,Tue Dec 09 2025 14:12:51 GMT-0600 (Central Standard Time),369030.5,A,b,O,b,970,1,982.3000000119209,368048.1999999881,7243,WL,A,4.0
3,6.231000185012817,learn,53768.99981498718,Tue Dec 09 2025 14:12:51 GMT-0600 (Central Standard Time),369130.5,A,bo,O,o,90,1,1082.300000011921,368048.1999999881,7243,WL,A,4.0
3,6.365000009536743,learn,53634.99999046326,Tue Dec 09 2025 14:12:51 GMT-0600 (Central Standard Time),369264.5,A,boo,O,o,124,1,1216.300000011921,368048.1999999881,7243,WL,A,4.0
3,6.499000072479248,learn,53500.99992752075,Tue Dec 09 2025 14:12:51 GMT-0600 (Central Standard Time),369398.7999999523,A,book,O,k,119,1,1350.5999999642372,368048.1999999881,7243,WL,A,4.0
3,7.180999994277954,learn,52819.000005722046,Tue Dec 09 2025 14:12:51 GMT-0600 (Central Standard Time),370081.09999996424,A,bookenter,O,enter,664,1,2032.8999999761581,368048.1999999881,7243,WL,A,4.0
3,7.733000040054321,learn,52266.99995994568,Tue Dec 09 2025 14:12:51 GMT-0600 (Central Standard Time),370632.5,A,f,O,f,545,1,551.1000000238419,370081.39999997616,7243,WL,A,5.0
3,7.831000089645386,learn,52168.999910354614,Tue Dec 09 2025 14:12:51 GMT-0600 (Central Standard Time),370730.39999997616,A,fl,O,l,80,1,649.0,370081.39999997616,7243,WL,A,5.0
3,7.981000185012817,learn,52018.99981498718,Tue Dec 09 2025 14:12:51 GMT-0600 (Central Standard Time),370880.39999997616,A,flo,O,o,133,1,799.0,370081.39999997616,7243,WL,A,5.0
3,8.063000202178955,learn,51936.999797821045,Tue Dec 09 2025 14:12:51 GMT-0600 (Central Standard Time),370962.6999999881,A,flow,O,w,70,1,881.3000000119209,370081.39999997616,7243,WL,A,5.0
3,8.130000114440918,learn,51869.99988555908,Tue Dec 09 2025 14:12:51 GMT-0600 (Central Standard Time),371030.0,A,flowe,O,e,45,1,948.6000000238419,370081.39999997616,7243,WL,A,5.0
3,8.199000120162964,learn,51800.999879837036,Tue Dec 09 2025 14:12:51 GMT-0600 (Central Standard Time),371098.6999999881,A,flower,O,r,48,1,1017.3000000119209,370081.39999997616,7243,WL,A,5.0
3,8.347000122070312,learn,51652.99987792969,Tue Dec 09 2025 14:12:51 GMT-0600 (Central Standard Time),371247.09999996424,A,flowerenter,O,enter,142,1,1165.699999988079,370081.39999997616,7243,WL,A,5.0
3,9.014000177383423,learn,50985.99982261658,Tue Dec 09 2025 14:12:51 GMT-0600 (Central Standard Time),371913.39999997616,A,t,O,t,648,1,665.8999999761581,371247.5,7243,WL,A,6.0
3,9.180000066757202,learn,50819.9999332428,Tue Dec 09 2025 14:12:51 GMT-0600 (Central Standard Time),372080.09999996424,A,tr,O,r,159,1,832.5999999642372,371247.5,7243,WL,A,6.0
3,9.315999984741211,learn,50684.00001525879,Tue Dec 09 2025 14:12:51 GMT-0600 (Central Standard Time),372215.1999999881,A,tra,O,a,129,1,967.6999999880791,371247.5,7243,WL,A,6.0
3,9.364000082015991,learn,50635.99991798401,Tue Dec 09 2025 14:12:51 GMT-0600 (Central Standard Time),372263.7999999523,A,trai,O,i,41,1,1016.2999999523163,371247.5,7243,WL,A,6.0
3,9.480000019073486,learn,50519.999980926514,Tue Dec 09 2025 14:12:51 GMT-0600 (Central Standard Time),372380.0,A,train,O,n,105,1,1132.5,371247.5,7243,WL,A,6.0
3,9.898000001907349,learn,50101.99999809265,Tue Dec 09 2025 14:12:51 GMT-0600 (Central Standard Time),372797.59999996424,A,trainenter,O,enter,404,1,1550.0999999642372,371247.5,7243,WL,A,6.0
3,10.481000185012817,learn,49518.99981498718,Tue Dec 09 2025 14:12:51 GMT-0600 (Central Standard Time),373381.09999996424,A,r,O,r,562,1,583.3000000119209,372797.7999999523,7243,WL,A,7.0
3,10.665000200271606,learn,49334.99979972839,Tue Dec 09 2025 14:12:51 GMT-0600 (Central Standard Time),373564.2999999523,A,ru,O,u,164,1,766.5,372797.7999999523,7243,WL,A,7.0
3,10.864000082015991,learn,49135.99991798401,Tue Dec 09 2025 14:12:51 GMT-0600 (Central Standard Time),373763.6999999881,A,rug,O,g,188,1,965.9000000357628,372797.7999999523,7243,WL,A,7.0
3,11.013000011444092,learn,48986.99998855591,Tue Dec 09 2025 14:12:51 GMT-0600 (Central Standard Time),373912.89999997616,A,rugenter,O,enter,129,1,1115.1000000238419,372797.7999999523,7243,WL,A,7.0
3,11.44700002670288,learn,48552.99997329712,Tue Dec 09 2025 14:12:51 GMT-0600 (Central Standard Time),374346.2999999523,A,a,O,a,416,1,433.19999998807907,373913.09999996424,7243,WL,A,8.0
3,11.563000202178955,learn,48436.999797821045,Tue Dec 09 2025 14:12:51 GMT-0600 (Central Standard Time),374462.6999999881,A,ap,O,p,108,1,549.6000000238419,373913.09999996424,7243,WL,A,8.0
3,11.77999997138977,learn,48220.00002861023,Tue Dec 09 2025 14:12:51 GMT-0600 (Central Standard Time),374679.7999999523,A,app,O,p,209,1,766.6999999880791,373913.09999996424,7243,WL,A,8.0
3,12.196000099182129,learn,47803.99990081787,Tue Dec 09 2025 14:12:51 GMT-0600 (Central Standard Time),375095.7999999523,A,appl,O,l,399,1,1182.699999988079,373913.09999996424,7243,WL,A,8.0
3,12.38100004196167,learn,47618.99995803833,Tue Dec 09 2025 14:12:51 GMT-0600 (Central Standard Time),375280.39999997616,A,apple,O,e,167,1,1367.300000011921,373913.09999996424,7243,WL,A,8.0
3,12.563000202178955,learn,47436.999797821045,Tue Dec 09 2025 14:12:51 GMT-0600 (Central Standard Time),375462.59999996424,A,appleenter,O,enter,167,1,1549.5,373913.09999996424,7243,WL,A,8.0
3,13.812000036239624,learn,46187.999963760376,Tue Dec 09 2025 14:12:51 GMT-0600 (Central Standard Time),376711.89999997616,A,l,O,l,1227,1,1249.1000000238419,375462.7999999523,7243,WL,A,9.0
3,13.979000091552734,learn,46020.999908447266,Tue Dec 09 2025 14:12:51 GMT-0600 (Central Standard Time),376878.1999999881,A,lo,O,o,148,1,1415.4000000357628,375462.7999999523,7243,WL,A,9.0
3,14.129000186920166,learn,45870.999813079834,Tue Dec 09 2025 14:12:51 GMT-0600 (Central Standard Time),377029.2999999523,A,log,O,g,137,1,1566.5,375462.7999999523,7243,WL,A,9.0
3,14.496000051498413,learn,45503.99994850159,Tue Dec 09 2025 14:12:51 GMT-0600 (Central Standard Time),377395.2999999523,A,logenter,O,enter,344,1,1932.5,375462.7999999523,7243,WL,A,9.0
3,23.95800018310547,learn,36041.99981689453,Tue Dec 09 2025 14:12:51 GMT-0600 (Central Standard Time),386858.0,A,enter,O,enter,9453,1,9462.5,377395.5,7243,WL,A,10.0
3,24.159000158309937,learn,35840.99984169006,Tue Dec 09 2025 14:12:51 GMT-0600 (Central Standard Time),387058.89999997616,A,enter,O,enter,181,1,200.5,386858.39999997616,7243,WL,A,11.0
3,24.325999975204468,learn,35674.00002479553,Tue Dec 09 2025 14:12:51 GMT-0600 (Central Standard Time),387225.5,A,enter,O,enter,156,1,166.30000001192093,387059.1999999881,7243,WL,A,12.0
3,24.45900011062622,learn,35540.99988937378,Tue Dec 09 2025 14:12:51 GMT-0600 (Central Standard Time),387358.6999999881,A,enter,O,enter,125,1,132.9000000357628,387225.7999999523,7243,WL,A,13.0
3,24.825999975204468,learn,35174.00002479553,Tue Dec 09 2025 14:12:51 GMT-0600 (Central Standard Time),387725.89999997616,A,enter,O,enter,361,1,366.89999997615814,387359.0,7243,WL,A,14.0
3,25.342000007629395,learn,34657.999992370605,Tue Dec 09 2025 14:12:51 GMT-0600 (Central Standard Time),388241.59999996424,A,enter,O,enter,498,1,515.3999999761581,387726.1999999881,7243,WL,A,15.0
4,2.199000120162964,learn,57800.999879837036,Tue Dec 09 2025 14:12:51 GMT-0600 (Central Standard Time),455853.6999999881,A,h,O,h,2187,1,2198.900000035763,453654.7999999523,7243,WL,A,1.0
4,2.3489999771118164,learn,57651.00002288818,Tue Dec 09 2025 14:12:51 GMT-0600 (Central Standard Time),456003.09999996424,A,ha,O,a,139,1,2348.300000011921,453654.7999999523,7243,WL,A,1.0
4,4.381999969482422,learn,55618.00003051758,Tue Dec 09 2025 14:12:51 GMT-0600 (Central Standard Time),458036.1999999881,A,har,O,r,2015,1,4381.400000035763,453654.7999999523,7243,WL,A,1.0
4,4.54800009727478,learn,55451.99990272522,Tue Dec 09 2025 14:12:51 GMT-0600 (Central Standard Time),458202.6999999881,A,harp,O,p,148,1,4547.900000035763,453654.7999999523,7243,WL,A,1.0
4,4.732000112533569,learn,55267.99988746643,Tue Dec 09 2025 14:12:51 GMT-0600 (Central Standard Time),458386.39999997616,A,harpenter,O,enter,170,1,4731.600000023842,453654.7999999523,7243,WL,A,1.0
4,6.3470001220703125,learn,53652.99987792969,Tue Dec 09 2025 14:12:51 GMT-0600 (Central Standard Time),460002.09999996424,A,a,O,a,1598,1,1615.5,458386.59999996424,7243,WL,A,2.0
4,6.481000185012817,learn,53518.99981498718,Tue Dec 09 2025 14:12:51 GMT-0600 (Central Standard Time),460135.1999999881,A,ap,O,p,122,1,1748.6000000238419,458386.59999996424,7243,WL,A,2.0
4,6.650000095367432,learn,53349.99990463257,Tue Dec 09 2025 14:12:51 GMT-0600 (Central Standard Time),460304.1999999881,A,app,O,p,151,1,1917.6000000238419,458386.59999996424,7243,WL,A,2.0
4,6.79800009727478,learn,53201.99990272522,Tue Dec 09 2025 14:12:51 GMT-0600 (Central Standard Time),460452.39999997616,A,appl,O,l,124,1,2065.800000011921,458386.59999996424,7243,WL,A,2.0
4,6.930000066757202,learn,53069.9999332428,Tue Dec 09 2025 14:12:51 GMT-0600 (Central Standard Time),460585.09999996424,A,apple,O,e,115,1,2198.5,458386.59999996424,7243,WL,A,2.0
4,7.0299999713897705,learn,52970.00002861023,Tue Dec 09 2025 14:12:51 GMT-0600 (Central Standard Time),460684.2999999523,A,appleenter,O,enter,84,1,2297.699999988079,458386.59999996424,7243,WL,A,2.0
4,8.097000122070312,learn,51902.99987792969,Tue Dec 09 2025 14:12:51 GMT-0600 (Central Standard Time),461751.7999999523,A,l,O,l,1062,1,1067.2999999523163,460684.5,7243,WL,A,3.0
4,8.263000011444092,learn,51736.99998855591,Tue Dec 09 2025 14:12:51 GMT-0600 (Central Standard Time),461918.0,A,lo,O,o,150,1,1233.5,460684.5,7243,WL,A,3.0
4,8.52999997138977,learn,51470.00002861023,Tue Dec 09 2025 14:12:51 GMT-0600 (Central Standard Time),462184.6999999881,A,log,O,g,256,1,1500.199999988079,460684.5,7243,WL,A,3.0
4,8.69700002670288,learn,51302.99997329712,Tue Dec 09 2025 14:12:51 GMT-0600 (Central Standard Time),462351.59999996424,A,logenter,O,enter,154,1,1667.0999999642372,460684.5,7243,WL,A,3.0
4,9.580000162124634,learn,50419.999837875366,Tue Dec 09 2025 14:12:51 GMT-0600 (Central Standard Time),463234.1999999881,A,c,O,c,865,1,882.4000000357628,462351.7999999523,7243,WL,A,4.0
4,9.680000066757202,learn,50319.9999332428,Tue Dec 09 2025 14:12:51 GMT-0600 (Central Standard Time),463334.39999997616,A,ch,O,h,83,1,982.6000000238419,462351.7999999523,7243,WL,A,4.0
4,9.797000169754028,learn,50202.99983024597,Tue Dec 09 2025 14:12:51 GMT-0600 (Central Standard Time),463451.5,A,chi,O,i,97,1,1099.7000000476837,462351.7999999523,7243,WL,A,4.0
4,10.062999963760376,learn,49937.000036239624,Tue Dec 09 2025 14:12:51 GMT-0600 (Central Standard Time),463717.7999999523,A,chim,O,m,251,1,1366.0,462351.7999999523,7243,WL,A,4.0
4,11.062000036239624,learn,48937.999963760376,Tue Dec 09 2025 14:12:51 GMT-0600 (Central Standard Time),464717.0,A,chimn,O,n,980,1,2365.2000000476837,462351.7999999523,7243,WL,A,4.0
4,11.21399998664856,learn,48786.00001335144,Tue Dec 09 2025 14:12:51 GMT-0600 (Central Standard Time),464868.7999999523,A,chimne,O,e,137,1,2517.0,462351.7999999523,7243,WL,A,4.0
4,11.361999988555908,learn,48638.00001144409,Tue Dec 09 2025 14:12:51 GMT-0600 (Central Standard Time),465016.89999997616,A,chimney,O,y,135,1,2665.100000023842,462351.7999999523,7243,WL,A,4.0
4,11.664999961853027,learn,48335.00003814697,Tue Dec 09 2025 14:12:51 GMT-0600 (Central Standard Time),465319.89999997616,A,chimneyenter,O,enter,282,1,2968.100000023842,462351.7999999523,7243,WL,A,4.0
4,12.34500002861023,learn,47654.99997138977,Tue Dec 09 2025 14:12:51 GMT-0600 (Central Standard Time),466000.09999996424,A,r,O,r,672,1,679.8999999761581,465320.1999999881,7243,WL,A,5.0
4,12.546000003814697,learn,47453.9999961853,Tue Dec 09 2025 14:12:51 GMT-0600 (Central Standard Time),466200.2999999523,A,ra,O,a,190,1,880.0999999642372,465320.1999999881,7243,WL,A,5.0
4,12.680000066757202,learn,47319.9999332428,Tue Dec 09 2025 14:12:51 GMT-0600 (Central Standard Time),466334.89999997616,A,rat,O,t,118,1,1014.6999999880791,465320.1999999881,7243,WL,A,5.0
4,12.946000099182129,learn,47053.99990081787,Tue Dec 09 2025 14:12:51 GMT-0600 (Central Standard Time),466600.7999999523,A,ratt,O,t,246,1,1280.5999999642372,465320.1999999881,7243,WL,A,5.0
4,13.229000091552734,learn,46770.999908447266,Tue Dec 09 2025 14:12:51 GMT-0600 (Central Standard Time),466883.39999997616,A,rattl,O,l,257,1,1563.199999988079,465320.1999999881,7243,WL,A,5.0
4,13.34500002861023,learn,46654.99997138977,Tue Dec 09 2025 14:12:51 GMT-0600 (Central Standard Time),467000.09999996424,A,rattle,O,e,100,1,1679.8999999761581,465320.1999999881,7243,WL,A,5.0
4,13.529000043869019,learn,46470.99995613098,Tue Dec 09 2025 14:12:51 GMT-0600 (Central Standard Time),467183.2999999523,A,rattleenter,O,enter,161,1,1863.0999999642372,465320.1999999881,7243,WL,A,5.0
4,14.26200008392334,learn,45737.99991607666,Tue Dec 09 2025 14:12:51 GMT-0600 (Central Standard Time),467916.2999999523,A,b,O,b,721,1,732.7999999523163,467183.5,7243,WL,A,6.0
4,14.495000123977661,learn,45504.99987602234,Tue Dec 09 2025 14:12:51 GMT-0600 (Central Standard Time),468150.0,A,bo,O,o,224,1,966.5,467183.5,7243,WL,A,6.0
4,14.611999988555908,learn,45388.00001144409,Tue Dec 09 2025 14:12:51 GMT-0600 (Central Standard Time),468267.09999996424,A,boo,O,o,97,1,1083.5999999642372,467183.5,7243,WL,A,6.0
4,14.812000036239624,learn,45187.999963760376,Tue Dec 09 2025 14:12:51 GMT-0600 (Central Standard Time),468466.5,A,book,O,k,177,1,1283.0,467183.5,7243,WL,A,6.0
4,15.044000148773193,learn,44955.99985122681,Tue Dec 09 2025 14:12:51 GMT-0600 (Central Standard Time),468698.6999999881,A,bookenter,O,enter,220,1,1515.199999988079,467183.5,7243,WL,A,6.0
4,15.378000020980835,learn,44621.999979019165,Tue Dec 09 2025 14:12:51 GMT-0600 (Central Standard Time),469032.6999999881,A,f,O,f,325,1,333.80000001192093,468698.89999997616,7243,WL,A,7.0
4,15.462000131607056,learn,44537.999868392944,Tue Dec 09 2025 14:12:51 GMT-0600 (Central Standard Time),469116.89999997616,A,fl,O,l,69,1,418.0,468698.89999997616,7243,WL,A,7.0
4,15.646000146865845,learn,44353.999853134155,Tue Dec 09 2025 14:12:51 GMT-0600 (Central Standard Time),469300.39999997616,A,flo,O,o,163,1,601.5,468698.89999997616,7243,WL,A,7.0
4,15.728000164031982,learn,44271.99983596802,Tue Dec 09 2025 14:12:51 GMT-0600 (Central Standard Time),469382.1999999881,A,flow,O,w,73,1,683.3000000119209,468698.89999997616,7243,WL,A,7.0
4,15.827000141143799,learn,44172.9998588562,Tue Dec 09 2025 14:12:51 GMT-0600 (Central Standard Time),469481.5,A,flowe,O,e,78,1,782.6000000238419,468698.89999997616,7243,WL,A,7.0
4,15.91100001335144,learn,44088.99998664856,Tue Dec 09 2025 14:12:51 GMT-0600 (Central Standard Time),469565.7999999523,A,flower,O,r,77,1,866.8999999761581,468698.89999997616,7243,WL,A,7.0
4,16.0770001411438,learn,43922.9998588562,Tue Dec 09 2025 14:12:51 GMT-0600 (Central Standard Time),469731.5,A,flowerenter,O,enter,152,1,1032.6000000238419,468698.89999997616,7243,WL,A,7.0
4,16.776999950408936,learn,43223.000049591064,Tue Dec 09 2025 14:12:51 GMT-0600 (Central Standard Time),470432.1999999881,A,t,O,t,685,1,700.4000000357628,469731.7999999523,7243,WL,A,8.0
4,16.927000045776367,learn,43072.99995422363,Tue Dec 09 2025 14:12:51 GMT-0600 (Central Standard Time),470581.89999997616,A,tr,O,r,132,1,850.1000000238419,469731.7999999523,7243,WL,A,8.0
4,17.07800006866455,learn,42921.99993133545,Tue Dec 09 2025 14:12:51 GMT-0600 (Central Standard Time),470732.7999999523,A,tra,O,a,136,1,1001.0,469731.7999999523,7243,WL,A,8.0
4,17.14300012588501,learn,42856.99987411499,Tue Dec 09 2025 14:12:51 GMT-0600 (Central Standard Time),470798.0,A,trai,O,i,42,1,1066.2000000476837,469731.7999999523,7243,WL,A,8.0
4,17.261000156402588,learn,42738.99984359741,Tue Dec 09 2025 14:12:51 GMT-0600 (Central Standard Time),470915.2999999523,A,train,O,n,105,1,1183.5,469731.7999999523,7243,WL,A,8.0
4,17.47699999809265,learn,42523.00000190735,Tue Dec 09 2025 14:12:51 GMT-0600 (Central Standard Time),471131.1999999881,A,trainenter,O,enter,195,1,1399.4000000357628,469731.7999999523,7243,WL,A,8.0
4,31.854000091552734,learn,28145.999908447266,Tue Dec 09 2025 14:12:51 GMT-0600 (Central Standard Time),485510.09999996424,A,enter,O,enter,14373,1,14378.699999988079,471131.39999997616,7243,WL,A,9.0
4,32.05400013923645,learn,27945.99986076355,Tue Dec 09 2025 14:12:51 GMT-0600 (Central Standard Time),485710.7999999523,A,enter,O,enter,194,1,200.39999997615814,485510.39999997616,7243,WL,A,10.0
4,32.23699998855591,learn,27763.00001144409,Tue Dec 09 2025 14:12:51 GMT-0600 (Central Standard Time),485893.0,A,enter,O,enter,168,1,181.9000000357628,485711.09999996424,7243,WL,A,11.0
4,32.38800001144409,learn,27611.99998855591,Tue Dec 09 2025 14:12:51 GMT-0600 (Central Standard Time),486044.1999999881,A,enter,O,enter,131,1,150.80000001192093,485893.39999997616,7243,WL,A,12.0
4,32.7039999961853,learn,27296.000003814697,Tue Dec 09 2025 14:12:51 GMT-0600 (Central Standard Time),486360.39999997616,A,enter,O,enter,308,1,315.89999997615814,486044.5,7243,WL,A,13.0
4,33.07000017166138,learn,26929.999828338623,Tue Dec 09 2025 14:12:51 GMT-0600 (Central Standard Time),486726.39999997616,A,enter,O,enter,345,1,365.80000001192093,486360.59999996424,7243,WL,A,14.0
4,33.604000091552734,learn,26395.999908447266,Tue Dec 09 2025 14:12:51 GMT-0600 (Central Standard Time),487260.39999997616,A,enter,O,enter,522,1,533.8000000119209,486726.59999996424,7243,WL,A,15.0
5,0.7829999923706055,learn,60000.0,Tue Dec 09 2025 14:12:51 GMT-0600 (Central Standard Time),556571.7999999523,A,m,O,m,770,1,783.1999999880791,555788.5999999642,7243,WL,A,1.0
5,0.8659999370574951,learn,60000.0,Tue Dec 09 2025 14:12:51 GMT-0600 (Central Standard Time),556654.6999999881,A,me,O,e,67,1,866.1000000238419,555788.5999999642,7243,WL,A,1.0
5,1.0160000324249268,learn,60000.0,Tue Dec 09 2025 14:12:51 GMT-0600 (Central Standard Time),556804.6999999881,A,mea,O,a,139,1,1016.1000000238419,555788.5999999642,7243,WL,A,1.0
5,1.25,learn,60000.0,Tue Dec 09 2025 14:12:51 GMT-0600 (Central Standard Time),557038.5999999642,A,meas,O,s,219,1,1250.0,555788.5999999642,7243,WL,A,1.0
5,1.4659998416900635,learn,60000.0,Tue Dec 09 2025 14:12:51 GMT-0600 (Central Standard Time),557254.7999999523,A,measo,O,o,201,1,1466.199999988079,555788.5999999642,7243,WL,A,1.0
5,1.566999912261963,learn,60000.0,Tue Dec 09 2025 14:12:51 GMT-0600 (Central Standard Time),557355.0,A,meason,O,n,89,1,1566.4000000357628,555788.5999999642,7243,WL,A,1.0
5,1.931999921798706,learn,60000.0,Tue Dec 09 2025 14:12:51 GMT-0600 (Central Standard Time),557720.1999999881,A,measo,O,backspace,349,1,1931.6000000238419,555788.5999999642,7243,WL,A,1.0
5,2.066999912261963,learn,60000.0,Tue Dec 09 2025 14:12:51 GMT-0600 (Central Standard Time),557855.6999999881,A,meas,O,backspace,118,1,2067.100000023842,555788.5999999642,7243,WL,A,1.0
5,2.1649999618530273,learn,60000.0,Tue Dec 09 2025 14:12:51 GMT-0600 (Central Standard Time),557953.5,A,mea,O,backspace,88,1,2164.900000035763,555788.5999999642,7243,WL,A,1.0
5,2.315999984741211,learn,60000.0,Tue Dec 09 2025 14:12:51 GMT-0600 (Central Standard Time),558104.1999999881,A,mead,O,d,133,1,2315.600000023842,555788.5999999642,7243,WL,A,1.0
5,2.997999906539917,learn,60000.0,Tue Dec 09 2025 14:12:51 GMT-0600 (Central Standard Time),558786.3999999762,A,meado,O,o,671,1,2997.800000011921,555788.5999999642,7243,WL,A,1.0
5,3.115999937057495,learn,60000.0,Tue Dec 09 2025 14:12:51 GMT-0600 (Central Standard Time),558904.0999999642,A,meadow,O,w,110,1,3115.5,555788.5999999642,7243,WL,A,1.0
5,3.2990000247955322,learn,60000.0,Tue Dec 09 2025 14:12:51 GMT-0600 (Central Standard Time),559087.6999999881,A,meadowenter,O,enter,168,1,3299.100000023842,555788.5999999642,7243,WL,A,1.0
5,3.8329999446868896,learn,60000.0,Tue Dec 09 2025 14:12:51 GMT-0600 (Central Standard Time),559621.2999999523,A,h,O,h,520,1,533.2999999523163,559088.0,7243,WL,A,2.0
5,4.014999866485596,learn,60000.0,Tue Dec 09 2025 14:12:51 GMT-0600 (Central Standard Time),559803.6999999881,A,ha,O,a,172,1,715.6999999880791,559088.0,7243,WL,A,2.0
5,4.148000001907349,learn,60000.0,Tue Dec 09 2025 14:12:51 GMT-0600 (Central Standard Time),559936.5,A,har,O,r,123,1,848.5,559088.0,7243,WL,A,2.0
5,5.065000057220459,learn,60000.0,Tue Dec 09 2025 14:12:51 GMT-0600 (Central Standard Time),560853.7999999523,A,harl,O,l,913,1,1765.7999999523163,559088.0,7243,WL,A,2.0
5,6.046999931335449,learn,60000.0,Tue Dec 09 2025 14:12:51 GMT-0600 (Central Standard Time),561835.5,A,harlp,O,p,964,1,2747.5,559088.0,7243,WL,A,2.0
5,6.414999961853027,learn,60000.0,Tue Dec 09 2025 14:12:51 GMT-0600 (Central Standard Time),562203.7999999523,A,harl,O,backspace,349,1,3115.7999999523163,559088.0,7243,WL,A,2.0
5,6.563999891281128,learn,60000.0,Tue Dec 09 2025 14:12:51 GMT-0600 (Central Standard Time),562352.7999999523,A,har,O,backspace,130,1,3264.7999999523163,559088.0,7243,WL,A,2.0
5,6.7809998989105225,learn,60000.0,Tue Dec 09 2025 14:12:51 GMT-0600 (Central Standard Time),562569.7999999523,A,harp,O,p,200,1,3481.7999999523163,559088.0,7243,WL,A,2.0
5,7.047999858856201,learn,60000.0,Tue Dec 09 2025 14:12:51 GMT-0600 (Central Standard Time),562835.7999999523,A,harpenter,O,enter,254,1,3747.7999999523163,559088.0,7243,WL,A,2.0
5,7.579999923706055,learn,60000.0,Tue Dec 09 2025 14:12:51 GMT-0600 (Central Standard Time),563368.5999999642,A,s,O,s,525,1,532.5,562836.0999999642,7243,WL,A,3.0
5,7.680999994277954,learn,60000.0,Tue Dec 09 2025 14:12:51 GMT-0600 (Central Standard Time),563469.0,A,sa,O,a,95,1,632.9000000357628,562836.0999999642,7243,WL,A,3.0
5,7.830999851226807,learn,60000.0,Tue Dec 09 2025 14:12:51 GMT-0600 (Central Standard Time),563619.5,A,sal,O,l,129,1,783.4000000357628,562836.0999999642,7243,WL,A,3.0
5,8.013999938964844,learn,60000.0,Tue Dec 09 2025 14:12:51 GMT-0600 (Central Standard Time),563802.0999999642,A,salt,O,t,162,1,966.0,562836.0999999642,7243,WL,A,3.0
5,8.315000057220459,learn,60000.0,Tue Dec 09 2025 14:12:51 GMT-0600 (Central Standard Time),564103.5,A,saltenter,O,enter,297,1,1267.4000000357628,562836.0999999642,7243,WL,A,3.0
5,8.863999843597412,learn,60000.0,Tue Dec 09 2025 14:12:51 GMT-0600 (Central Standard Time),564652.5,A,b,O,b,544,1,548.9000000357628,564103.5999999642,7243,WL,A,4.0
5,9.030999898910522,learn,60000.0,Tue Dec 09 2025 14:12:51 GMT-0600 (Central Standard Time),564819.0999999642,A,bu,O,u,157,1,715.5,564103.5999999642,7243,WL,A,4.0
5,9.178999900817871,learn,60000.0,Tue Dec 09 2025 14:12:51 GMT-0600 (Central Standard Time),564967.7999999523,A,but,O,t,132,1,864.1999999880791,564103.5999999642,7243,WL,A,4.0
5,9.315000057220459,learn,60000.0,Tue Dec 09 2025 14:12:51 GMT-0600 (Central Standard Time),565103.5,A,butt,O,t,114,1,999.9000000357628,564103.5999999642,7243,WL,A,4.0
5,9.379999876022339,learn,60000.0,Tue Dec 09 2025 14:12:51 GMT-0600 (Central Standard Time),565168.6999999881,A,butto,O,o,49,1,1065.1000000238419,564103.5999999642,7243,WL,A,4.0
5,9.480000019073486,learn,60000.0,Tue Dec 09 2025 14:12:51 GMT-0600 (Central Standard Time),565268.6999999881,A,button,O,n,78,1,1165.1000000238419,564103.5999999642,7243,WL,A,4.0
5,9.746999979019165,learn,60000.0,Tue Dec 09 2025 14:12:51 GMT-0600 (Central Standard Time),565535.6999999881,A,buttonenter,O,enter,262,1,1432.1000000238419,564103.5999999642,7243,WL,A,4.0
5,10.513999938964844,learn,60000.0,Tue Dec 09 2025 14:12:51 GMT-0600 (Central Standard Time),566302.0,A,l,O,l,753,1,766.1000000238419,565535.8999999762,7243,WL,A,5.0
5,10.664000034332275,learn,60000.0,Tue Dec 09 2025 14:12:51 GMT-0600 (Central Standard Time),566452.5999999642,A,lo,O,o,131,1,916.6999999880791,565535.8999999762,7243,WL,A,5.0
5,10.763000011444092,learn,60000.0,Tue Dec 09 2025 14:12:51 GMT-0600 (Central Standard Time),566551.5,A,log,O,g,94,1,1015.6000000238419,565535.8999999762,7243,WL,A,5.0
5,10.914999961853027,learn,60000.0,Tue Dec 09 2025 14:12:51 GMT-0600 (Central Standard Time),566703.0,A,logenter,O,enter,135,1,1167.1000000238419,565535.8999999762,7243,WL,A,5.0
5,11.79699993133545,learn,60000.0,Tue Dec 09 2025 14:12:51 GMT-0600 (Central Standard Time),567584.8999999762,A,b,O,b,865,1,881.6000000238419,566703.2999999523,7243,WL,A,6.0
5,11.878999948501587,learn,60000.0,Tue Dec 09 2025 14:12:51 GMT-0600 (Central Standard Time),567667.3999999762,A,bo,O,o,71,1,964.1000000238419,566703.2999999523,7243,WL,A,6.0
5,12.013000011444092,learn,60000.0,Tue Dec 09 2025 14:12:51 GMT-0600 (Central Standard Time),567801.0999999642,A,boo,O,o,117,1,1097.800000011921,566703.2999999523,7243,WL,A,6.0
5,12.129999876022339,learn,60000.0,Tue Dec 09 2025 14:12:51 GMT-0600 (Central Standard Time),567918.2999999523,A,book,O,k,111,1,1215.0,566703.2999999523,7243,WL,A,6.0
5,12.395999908447266,learn,60000.0,Tue Dec 09 2025 14:12:51 GMT-0600 (Central Standard Time),568184.0999999642,A,bookenter,O,enter,257,1,1480.800000011921,566703.2999999523,7243,WL,A,6.0
5,17.65999984741211,learn,60000.0,Tue Dec 09 2025 14:12:51 GMT-0600 (Central Standard Time),573448.7999999523,A,t,O,t,5257,1,5264.399999976158,568184.3999999762,7243,WL,A,7.0
5,17.8439998626709,learn,60000.0,Tue Dec 09 2025 14:12:51 GMT-0600 (Central Standard Time),573632.6999999881,A,tr,O,r,167,1,5448.300000011921,568184.3999999762,7243,WL,A,7.0
5,17.977999925613403,learn,60000.0,Tue Dec 09 2025 14:12:51 GMT-0600 (Central Standard Time),573766.2999999523,A,tra,O,a,129,1,5581.899999976158,568184.3999999762,7243,WL,A,7.0
5,18.07699990272522,learn,60000.0,Tue Dec 09 2025 14:12:51 GMT-0600 (Central Standard Time),573865.2999999523,A,trai,O,i,89,1,5680.899999976158,568184.3999999762,7243,WL,A,7.0
5,18.194000005722046,learn,60000.0,Tue Dec 09 2025 14:12:51 GMT-0600 (Central Standard Time),573982.5,A,train,O,n,100,1,5798.100000023842,568184.3999999762,7243,WL,A,7.0
5,18.40999984741211,learn,60000.0,Tue Dec 09 2025 14:12:51 GMT-0600 (Central Standard Time),574198.1999999881,A,trainenter,O,enter,200,1,6013.800000011921,568184.3999999762,7243,WL,A,7.0
5,18.876999855041504,learn,60000.0,Tue Dec 09 2025 14:12:51 GMT-0600 (Central Standard Time),574665.5,A,a,O,a,449,1,467.10000002384186,574198.3999999762,7243,WL,A,8.0
5,18.960999965667725,learn,60000.0,Tue Dec 09 2025 14:12:51 GMT-0600 (Central Standard Time),574748.8999999762,A,ap,O,p,63,1,550.5,574198.3999999762,7243,WL,A,8.0
5,19.526999950408936,learn,60000.0,Tue Dec 09 2025 14:12:51 GMT-0600 (Central Standard Time),575315.0999999642,A,app,O,p,555,1,1116.699999988079,574198.3999999762,7243,WL,A,8.0
5,19.72699999809265,learn,60000.0,Tue Dec 09 2025 14:12:51 GMT-0600 (Central Standard Time),575515.5,A,appl,O,l,181,1,1317.1000000238419,574198.3999999762,7243,WL,A,8.0
5,19.861000061035156,learn,60000.0,Tue Dec 09 2025 14:12:51 GMT-0600 (Central Standard Time),575648.8999999762,A,apple,O,e,116,1,1450.5,574198.3999999762,7243,WL,A,8.0
5,20.043999910354614,learn,60000.0,Tue Dec 09 2025 14:12:51 GMT-0600 (Central Standard Time),575832.1999999881,A,appleenter,O,enter,176,1,1633.800000011921,574198.3999999762,7243,WL,A,8.0
5,24.658999919891357,learn,60000.0,Tue Dec 09 2025 14:12:51 GMT-0600 (Central Standard Time),580447.6999999881,A,g,O,g,4599,1,4615.300000011921,575832.3999999762,7243,WL,A,9.0
5,24.757999897003174,learn,60000.0,Tue Dec 09 2025 14:12:51 GMT-0600 (Central Standard Time),580546.7999999523,A,go,O,o,77,1,4714.399999976158,575832.3999999762,7243,WL,A,9.0
5,24.925999879837036,learn,60000.0,Tue Dec 09 2025 14:12:51 GMT-0600 (Central Standard Time),580714.6999999881,A,gol,O,l,145,1,4882.300000011921,575832.3999999762,7243,WL,A,9.0
5,25.04200005531311,learn,60000.0,Tue Dec 09 2025 14:12:51 GMT-0600 (Central Standard Time),580830.5,A,gold,O,d,98,1,4998.100000023842,575832.3999999762,7243,WL,A,9.0
5,25.2260000705719,learn,60000.0,Tue Dec 09 2025 14:12:51 GMT-0600 (Central Standard Time),581014.0999999642,A,goldenter,O,enter,169,1,5181.699999988079,575832.3999999762,7243,WL,A,9.0
5,35.52199983596802,learn,60000.0,Tue Dec 09 2025 14:12:51 GMT-0600 (Central Standard Time),591310.3999999762,A,enter,O,enter,10282,1,10296.100000023842,581014.2999999523,7243,WL,A,10.0
5,35.68899989128113,learn,60000.0,Tue Dec 09 2025 14:12:51 GMT-0600 (Central Standard Time),591477.2999999523,A,enter,O,enter,154,1,166.69999998807907,591310.5999999642,7243,WL,A,11.0
5,35.855000019073486,learn,60000.0,Tue Dec 09 2025 14:12:51 GMT-0600 (Central Standard Time),591643.5,A,enter,O,enter,146,1,166.0,591477.5,7243,WL,A,12.0
5,35.98899984359741,learn,60000.0,Tue Dec 09 2025 14:12:51 GMT-0600 (Central Standard Time),591776.7999999523,A,enter,O,enter,117,1,133.0,591643.7999999523,7243,WL,A,13.0
5,36.3050000667572,learn,60000.0,Tue Dec 09 2025 14:12:51 GMT-0600 (Central Standard Time),592093.3999999762,A,enter,O,enter,311,1,316.30000001192093,591777.0999999642,7243,WL,A,14.0
5,36.704999923706055,learn,60000.0,Tue Dec 09 2025 14:12:51 GMT-0600 (Central Standard Time),592493.5,A,enter,O,enter,386,1,399.5,592094.0,7243,WL,A,15.0
6,1.1339998245239258,distr,58866.000175476074,Tue Dec 09 2025 14:12:51 GMT-0600 (Central Standard Time),669418.6999999881,B,c,O,c,1124,1,1133.1000000238419,668285.5999999642,7243,WL,A,1.0
6,1.2159998416900635,distr,58784.00015830994,Tue Dec 09 2025 14:12:51 GMT-0600 (Central Standard Time),669501.0999999642,B,co,O,o,69,1,1215.5,668285.5999999642,7243,WL,A,1.0
6,1.3350000381469727,distr,58664.99996185303,Tue Dec 09 2025 14:12:51 GMT-0600 (Central Standard Time),669619.6999999881,B,cou,O,u,107,1,1334.1000000238419,668285.5999999642,7243,WL,A,1.0
6,1.5339999198913574,distr,58466.00008010864,Tue Dec 09 2025 14:12:51 GMT-0600 (Central Standard Time),669819.1999999881,B,coun,O,n,175,1,1533.6000000238419,668285.5999999642,7243,WL,A,1.0
6,1.616999864578247,distr,58383.00013542175,Tue Dec 09 2025 14:12:51 GMT-0600 (Central Standard Time),669901.7999999523,B,count,O,t,76,1,1616.199999988079,668285.5999999642,7243,WL,A,1.0
6,1.815999984741211,distr,58184.00001525879,Tue Dec 09 2025 14:12:51 GMT-0600 (Central Standard Time),670101.2999999523,B,countr,O,r,187,1,1815.699999988079,668285.5999999642,7243,WL,A,1.0
6,1.932999849319458,distr,58067.00015068054,Tue Dec 09 2025 14:12:51 GMT-0600 (Central Standard Time),670218.3999999762,B,country,O,y,105,1,1932.800000011921,668285.5999999642,7243,WL,A,1.0
6,2.384999990463257,distr,57615.00000953674,Tue Dec 09 2025 14:12:51 GMT-0600 (Central Standard Time),670669.6999999881,B,countryenter,O,enter,435,1,2384.100000023842,668285.5999999642,7243,WL,A,1.0
6,3.2819998264312744,distr,56718.000173568726,Tue Dec 09 2025 14:12:51 GMT-0600 (Central Standard Time),671567.5,B,b,O,b,891,1,897.6000000238419,670669.8999999762,7243,WL,A,2.0
6,3.381999969482422,distr,56618.00003051758,Tue Dec 09 2025 14:12:51 GMT-0600 (Central Standard Time),671667.5,B,bo,O,o,88,1,997.6000000238419,670669.8999999762,7243,WL,A,2.0
6,3.5329999923706055,distr,56467.000007629395,Tue Dec 09 2025 14:12:51 GMT-0600 (Central Standard Time),671817.7999999523,B,bow,O,w,131,1,1147.8999999761581,670669.8999999762,7243,WL,A,2.0
6,3.6499998569488525,distr,56350.00014305115,Tue Dec 09 2025 14:12:51 GMT-0600 (Central Standard Time),671934.7999999523,B,bowl,O,l,103,1,1264.8999999761581,670669.8999999762,7243,WL,A,2.0
6,4.0,distr,56000.0,Tue Dec 09 2025 14:12:51 GMT-0600 (Central Standard Time),672284.7999999523,B,bowlenter,O,enter,335,1,1614.8999999761581,670669.8999999762,7243,WL,A,2.0
6,18.044999837875366,distr,41955.000162124634,Tue Dec 09 2025 14:12:51 GMT-0600 (Central Standard Time),686330.2999999523,B,enter,O,enter,14027,1,14045.199999988079,672285.0999999642,7243,WL,A,3.0
6,18.194999933242798,distr,41805.0000667572,Tue Dec 09 2025 14:12:51 GMT-0600 (Central Standard Time),686479.6999999881,B,enter,O,enter,142,1,149.19999998807907,686330.5,7243,WL,A,4.0
6,18.361999988555908,distr,41638.00001144409,Tue Dec 09 2025 14:12:51 GMT-0600 (Central Standard Time),686647.0,B,enter,O,enter,160,1,167.10000002384186,686479.8999999762,7243,WL,A,5.0
6,18.495999813079834,distr,41504.000186920166,Tue Dec 09 2025 14:12:51 GMT-0600 (Central Standard Time),686780.6999999881,B,enter,O,enter,129,1,133.4000000357628,686647.2999999523,7243,WL,A,6.0
6,18.644999980926514,distr,41355.000019073486,Tue Dec 09 2025 14:12:51 GMT-0600 (Central Standard Time),686930.3999999762,B,enter,O,enter,132,1,149.39999997615814,686781.0,7243,WL,A,7.0
6,18.77899980545044,distr,41221.00019454956,Tue Dec 09 2025 14:12:51 GMT-0600 (Central Standard Time),687063.7999999523,B,enter,O,enter,119,1,133.19999998807907,686930.5999999642,7243,WL,A,8.0
6,19.027999877929688,distr,40972.00012207031,Tue Dec 09 2025 14:12:51 GMT-0600 (Central Standard Time),687312.6999999881,B,enter,O,enter,232,1,248.5,687064.1999999881,7243,WL,A,9.0
6,19.360999822616577,distr,40639.00017738342,Tue Dec 09 2025 14:12:51 GMT-0600 (Central Standard Time),687646.5,B,enter,O,enter,321,1,333.60000002384186,687312.8999999762,7243,WL,A,10.0
6,19.644999980926514,distr,40355.000019073486,Tue Dec 09 2025 14:12:51 GMT-0600 (Central Standard Time),687930.5,B,enter,O,enter,274,1,283.7000000476837,687646.7999999523,7243,WL,A,11.0
6,19.960999965667725,distr,40039.000034332275,Tue Dec 09 2025 14:12:51 GMT-0600 (Central Standard Time),688246.0,B,enter,O,enter,311,1,315.30000001192093,687930.6999999881,7243,WL,A,12.0
6,20.40999984741211,distr,39590.00015258789,Tue Dec 09 2025 14:12:51 GMT-0600 (Central Standard Time),688695.2999999523,B,enter,O,enter,442,1,448.7999999523163,688246.5,7243,WL,A,13.0
6,20.876999855041504,distr,39123.000144958496,Tue Dec 09 2025 14:12:51 GMT-0600 (Central Standard Time),689162.1999999881,B,enter,O,enter,448,1,466.60000002384186,688695.5999999642,7243,WL,A,14.0
6,21.513000011444092,distr,38486.99998855591,Tue Dec 09 2025 14:12:51 GMT-0600 (Central Standard Time),689797.5,B,enter,O,enter,632,1,635.0,689162.5,7243,WL,A,15.0
7,0.7660000324249268,immed,59233.99996757507,Tue Dec 09 2025 14:12:51 GMT-0600 (Central Standard Time),703574.7999999523,A,l,O,l,758,1,765.6999999880791,702809.0999999642,7243,WL,A,1.0
7,0.9330000877380371,immed,59066.99991226196,Tue Dec 09 2025 14:12:51 GMT-0600 (Central Standard Time),703742.1999999881,A,lo,O,o,161,1,933.1000000238419,702809.0999999642,7243,WL,A,1.0
7,1.0980000495910645,immed,58901.999950408936,Tue Dec 09 2025 14:12:51 GMT-0600 (Central Standard Time),703907.5,A,log,O,g,152,1,1098.4000000357628,702809.0999999642,7243,WL,A,1.0
7,1.249000072479248,immed,58750.99992752075,Tue Dec 09 2025 14:12:51 GMT-0600 (Central Standard Time),704058.0,A,logenter,O,enter,133,1,1248.9000000357628,702809.0999999642,7243,WL,A,1.0
7,2.200000047683716,immed,57799.999952316284,Tue Dec 09 2025 14:12:51 GMT-0600 (Central Standard Time),705008.7999999523,A,r,O,r,934,1,950.5999999642372,704058.1999999881,7243,WL,A,2.0
7,2.3989999294281006,immed,57601.0000705719,Tue Dec 09 2025 14:12:51 GMT-0600 (Central Standard Time),705207.6999999881,A,ra,O,a,184,1,1149.5,704058.1999999881,7243,WL,A,2.0
7,2.5980000495910645,immed,57401.999950408936,Tue Dec 09 2025 14:12:51 GMT-0600 (Central Standard Time),705407.0,A,rat,O,t,184,1,1348.800000011921,704058.1999999881,7243,WL,A,2.0
7,2.7980000972747803,immed,57201.99990272522,Tue Dec 09 2025 14:12:51 GMT-0600 (Central Standard Time),705607.2999999523,A,ratt,O,t,191,1,1549.0999999642372,704058.1999999881,7243,WL,A,2.0
7,3.0320000648498535,immed,56967.99993515015,Tue Dec 09 2025 14:12:51 GMT-0600 (Central Standard Time),705841.5,A,rattl,O,l,216,1,1783.300000011921,704058.1999999881,7243,WL,A,2.0
7,3.2149999141693115,immed,56785.00008583069,Tue Dec 09 2025 14:12:51 GMT-0600 (Central Standard Time),706024.0999999642,A,rattle,O,e,177,1,1965.8999999761581,704058.1999999881,7243,WL,A,2.0
7,3.4159998893737793,immed,56584.00011062622,Tue Dec 09 2025 14:12:51 GMT-0600 (Central Standard Time),706224.5999999642,A,rattleenter,O,enter,183,1,2166.399999976158,704058.1999999881,7243,WL,A,2.0
7,5.147000074386597,immed,54852.9999256134,Tue Dec 09 2025 14:12:51 GMT-0600 (Central Standard Time),707956.5,A,g,O,g,1719,1,1731.6000000238419,706224.8999999762,7243,WL,A,3.0
7,5.233999967575073,immed,54766.00003242493,Tue Dec 09 2025 14:12:51 GMT-0600 (Central Standard Time),708042.6999999881,A,go,O,o,74,1,1817.800000011921,706224.8999999762,7243,WL,A,3.0
7,5.430999994277954,immed,54569.000005722046,Tue Dec 09 2025 14:12:51 GMT-0600 (Central Standard Time),708239.5999999642,A,gol,O,l,180,1,2014.699999988079,706224.8999999762,7243,WL,A,3.0
7,5.513999938964844,immed,54486.000061035156,Tue Dec 09 2025 14:12:51 GMT-0600 (Central Standard Time),708323.1999999881,A,gold,O,d,69,1,2098.300000011921,706224.8999999762,7243,WL,A,3.0
7,5.680000066757202,immed,54319.9999332428,Tue Dec 09 2025 14:12:51 GMT-0600 (Central Standard Time),708488.5999999642,A,goldenter,O,enter,149,1,2263.699999988079,706224.8999999762,7243,WL,A,3.0
7,11.098000049591064,immed,48901.999950408936,Tue Dec 09 2025 14:12:51 GMT-0600 (Central Standard Time),713906.8999999762,A,c,O,c,5407,1,5418.100000023842,708488.7999999523,7243,WL,A,4.0
7,11.36299991607666,immed,48637.00008392334,Tue Dec 09 2025 14:12:51 GMT-0600 (Central Standard Time),714171.8999999762,A,ch,O,h,244,1,5683.100000023842,708488.7999999523,7243,WL,A,4.0
7,11.595999956130981,immed,48404.00004386902,Tue Dec 09 2025 14:12:51 GMT-0600 (Central Standard Time),714404.6999999881,A,chi,O,i,211,1,5915.900000035763,708488.7999999523,7243,WL,A,4.0
7,11.82800006866455,immed,48171.99993133545,Tue Dec 09 2025 14:12:51 GMT-0600 (Central Standard Time),714637.0,A,chim,O,m,216,1,6148.200000047684,708488.7999999523,7243,WL,A,4.0
7,12.111999988555908,immed,47888.00001144409,Tue Dec 09 2025 14:12:51 GMT-0600 (Central Standard Time),714921.0999999642,A,chimn,O,n,277,1,6432.300000011921,708488.7999999523,7243,WL,A,4.0
7,12.266000032424927,immed,47733.99996757507,Tue Dec 09 2025 14:12:51 GMT-0600 (Central Standard Time),715074.6999999881,A,chimne,O,e,135,1,6585.900000035763,708488.7999999523,7243,WL,A,4.0
7,12.477999925613403,immed,47522.0000743866,Tue Dec 09 2025 14:12:51 GMT-0600 (Central Standard Time),715287.5,A,chimney,O,y,190,1,6798.700000047684,708488.7999999523,7243,WL,A,4.0
7,12.746000051498413,immed,47253.99994850159,Tue Dec 09 2025 14:12:51 GMT-0600 (Central Standard Time),715554.5,A,chimneyenter,O,enter,248,1,7065.700000047684,708488.7999999523,7243,WL,A,4.0
7,14.545000076293945,immed,45454.999923706055,Tue Dec 09 2025 14:12:51 GMT-0600 (Central Standard Time),717353.6999999881,A,l,O,l,1789,1,1798.9000000357628,715554.7999999523,7243,WL,A,5.0
7,14.711999893188477,immed,45288.00010681152,Tue Dec 09 2025 14:12:51 GMT-0600 (Central Standard Time),717521.3999999762,A,lo,O,o,152,1,1966.6000000238419,715554.7999999523,7243,WL,A,5.0
7,14.878000020980835,immed,45121.999979019165,Tue Dec 09 2025 14:12:51 GMT-0600 (Central Standard Time),717686.5999999642,A,log,O,g,150,1,2131.800000011921,715554.7999999523,7243,WL,A,5.0
7,15.027999877929688,immed,44972.00012207031,Tue Dec 09 2025 14:12:51 GMT-0600 (Central Standard Time),717837.0999999642,A,logenter,O,enter,137,1,2282.300000011921,715554.7999999523,7243,WL,A,5.0
7,19.657999992370605,immed,40342.000007629395,Tue Dec 09 2025 14:12:51 GMT-0600 (Central Standard Time),722469.0,A,m,O,m,4611,1,4631.700000047684,717837.2999999523,7243,WL,A,6.0
7,19.707000017166138,immed,40292.99998283386,Tue Dec 09 2025 14:12:51 GMT-0600 (Central Standard Time),722517.2999999523,A,me,O,e,32,1,4680.0,717837.2999999523,7243,WL,A,6.0
7,19.875999927520752,immed,40124.00007247925,Tue Dec 09 2025 14:12:51 GMT-0600 (Central Standard Time),722686.5,A,mea,O,a,156,1,4849.200000047684,717837.2999999523,7243,WL,A,6.0
7,20.308000087738037,immed,39691.99991226196,Tue Dec 09 2025 14:12:51 GMT-0600 (Central Standard Time),723118.5,A,mead,O,d,424,1,5281.200000047684,717837.2999999523,7243,WL,A,6.0
7,20.441999912261963,immed,39558.00008773804,Tue Dec 09 2025 14:12:51 GMT-0600 (Central Standard Time),723253.1999999881,A,meado,O,o,121,1,5415.900000035763,717837.2999999523,7243,WL,A,6.0
7,20.60800004005432,immed,39391.99995994568,Tue Dec 09 2025 14:12:51 GMT-0600 (Central Standard Time),723419.0999999642,A,meadow,O,w,156,1,5581.800000011921,717837.2999999523,7243,WL,A,6.0
7,20.891000032424927,immed,39108.99996757507,Tue Dec 09 2025 14:12:51 GMT-0600 (Central Standard Time),723702.1999999881,A,meadowenter,O,enter,259,1,5864.900000035763,717837.2999999523,7243,WL,A,6.0
7,29.47099995613098,immed,30529.00004386902,Tue Dec 09 2025 14:12:51 GMT-0600 (Central Standard Time),732282.1999999881,A,enter,O,enter,8572,1,8579.699999988079,723702.5,7243,WL,A,7.0
7,29.63700008392334,immed,30362.99991607666,Tue Dec 09 2025 14:12:51 GMT-0600 (Central Standard Time),732447.7999999523,A,enter,O,enter,157,1,165.29999995231628,732282.5,7243,WL,A,8.0
7,29.786999940872192,immed,30213.000059127808,Tue Dec 09 2025 14:12:51 GMT-0600 (Central Standard Time),732598.0999999642,A,enter,O,enter,135,1,149.89999997615814,732448.1999999881,7243,WL,A,9.0
7,29.90499997138977,immed,30095.00002861023,Tue Dec 09 2025 14:12:51 GMT-0600 (Central Standard Time),732715.7999999523,A,enter,O,enter,106,1,117.39999997615814,732598.3999999762,7243,WL,A,10.0
7,30.020999908447266,immed,29979.000091552734,Tue Dec 09 2025 14:12:51 GMT-0600 (Central Standard Time),732831.5999999642,A,enter,O,enter,107,1,115.5,732716.0999999642,7243,WL,A,11.0
7,30.15400004386902,immed,29845.99995613098,Tue Dec 09 2025 14:12:51 GMT-0600 (Central Standard Time),732964.5999999642,A,enter,O,enter,121,1,132.80000001192093,732831.7999999523,7243,WL,A,12.0
7,30.40400004386902,immed,29595.99995613098,Tue Dec 09 2025 14:12:51 GMT-0600 (Central Standard Time),733215.0999999642,A,enter,O,enter,244,1,250.19999998807907,732964.8999999762,7243,WL,A,13.0
7,30.73799991607666,immed,29262.00008392334,Tue Dec 09 2025 14:12:51 GMT-0600 (Central Standard Time),733548.6999999881,A,enter,O,enter,321,1,333.30000001192093,733215.3999999762,7243,WL,A,14.0
7,31.088000059127808,immed,28911.999940872192,Tue Dec 09 2025 14:12:51 GMT-0600 (Central Standard Time),733898.6999999881,A,enter,O,enter,331,1,349.69999998807907,733549.0,7243,WL,A,15.0
