acc_sum,block,block_c,condition,correct,correct_response,datetime,endtime,flanker,jitter,project,response,response_test_buffer_response,response_test_target_response,response_time,response_time_test_buffer_response,response_time_test_target_response,row_sel,session_number,start_end,starttime,subject_id,target,task,task_vers,time_test_buffer,time_test_buffer_response,time_test_constants,time_test_flanker,time_test_jitter,time_test_logger,time_test_target,time_test_target_response,time_test_variables,trial
1,prac,1,con,1,m,Fri May 09 2025 07:58:30 GMT-0500 (Central Daylight Time),167443.10000002384,bronze,800,I,m,,,1341,,,9,1,3445.600000023842,163997.5,7139,bronze,NF,C,,,,,,,,,,1
2,prac,1,inc,1,m,Fri May 09 2025 07:58:30 GMT-0500 (Central Daylight Time),170278.60000002384,cherry,900,I,m,,,645,,,10,1,2831.100000023842,167447.5,7139,copper,NF,C,,,,,,,,,,2
3,prac,1,inc,1,z,Fri May 09 2025 07:58:30 GMT-0500 (Central Daylight Time),173710.30000001192,lead,1100,I,z,,,1048,,,8,1,3424.600000023842,170285.69999998808,7139,plum,NF,C,,,,,,,,,,3
4,prac,1,inc,1,m,Fri May 09 2025 07:58:30 GMT-0500 (Central Daylight Time),176825.19999998808,plum,1100,I,m,,,724,,,16,1,3108.0,173717.19999998808,7139,lead,NF,C,,,,,,,,,,4
5,prac,1,inc,1,z,Fri May 09 2025 07:58:30 GMT-0500 (Central Daylight Time),179789.69999998808,iron,900,I,z,,,753,,,6,1,2958.5,176831.19999998808,7139,pear,NF,C,,,,,,,,,,5
6,prac,1,inc,1,m,Fri May 09 2025 07:58:30 GMT-0500 (Central Daylight Time),182940.40000003576,raisin,1100,I,m,,,732,,,12,1,3144.0,179796.40000003576,7139,cobalt,NF,C,,,,,,,,,,6
7,prac,1,inc,1,z,Fri May 09 2025 07:58:30 GMT-0500 (Central Daylight Time),185888.10000002384,copper,900,I,z,,,734,,,2,1,2941.900000035763,182946.19999998808,7139,cherry,NF,C,,,,,,,,,,7
8,prac,1,con,1,z,Fri May 09 2025 07:58:30 GMT-0500 (Central Daylight Time),189038.69999998808,orange,1000,I,z,,,837,,,3,1,3142.599999964237,185896.10000002384,7139,orange,NF,C,,,,,,,,,,8
9,prac,1,con,1,z,Fri May 09 2025 07:58:30 GMT-0500 (Central Daylight Time),192070.60000002384,lime,800,I,z,,,921,,,5,1,3026.5,189044.10000002384,7139,lime,NF,C,,,,,,,,,,9
10,prac,1,inc,1,m,Fri May 09 2025 07:58:30 GMT-0500 (Central Daylight Time),194951.60000002384,pear,900,I,m,,,678,,,14,1,2875.900000035763,192075.69999998808,7139,iron,NF,C,,,,,,,,,,10
11,prac,1,inc,1,z,Fri May 09 2025 07:58:30 GMT-0500 (Central Daylight Time),198235.10000002384,cobalt,1100,I,z,,,883,,,4,1,3278.400000035763,194956.69999998808,7139,raisin,NF,C,,,,,,,,,,11
12,prac,1,con,1,m,Fri May 09 2025 07:58:30 GMT-0500 (Central Daylight Time),201016.80000001192,gold,800,I,m,,,678,,,13,1,2777.199999988079,198239.60000002384,7139,gold,NF,C,,,,,,,,,,12
13,prac,1,con,1,m,Fri May 09 2025 07:58:30 GMT-0500 (Central Daylight Time),204150.0,zinc,1000,I,m,,,821,,,15,1,3127.800000011921,201022.19999998808,7139,zinc,NF,C,,,,,,,,,,13
14,prac,1,con,1,z,Fri May 09 2025 07:58:30 GMT-0500 (Central Daylight Time),207516.5,kiwi,1000,I,z,,,1051,,,7,1,3361.099999964237,204155.40000003576,7139,kiwi,NF,C,,,,,,,,,,14
15,prac,1,con,1,z,Fri May 09 2025 07:58:30 GMT-0500 (Central Daylight Time),210414.19999998808,banana,800,I,z,,,813,,,1,1,2892.7999999523163,207521.40000003576,7139,banana,NF,C,,,,,,,,,,15
16,prac,1,con,1,m,Fri May 09 2025 07:58:30 GMT-0500 (Central Daylight Time),213596.19999998808,silver,1000,I,m,,,874,,,11,1,3176.199999988079,210420.0,7139,silver,NF,C,,,,,,,,,,16
1,test,1,con,1,m,Fri May 09 2025 07:58:30 GMT-0500 (Central Daylight Time),241237.60000002384,copper,1100,I,m,m,None,641,441.0,200.0,76,1,2276.600000023842,238961.0,7139,copper,NF,C,236998,236998,235170,236280,235170,237447,236797,236797,237447,1
2,test,1,con,1,m,Fri May 09 2025 07:58:30 GMT-0500 (Central Daylight Time),243353.40000003576,copper,900,I,m,m,None,671,471.0,200.0,74,1,2111.100000023842,241242.30000001192,7139,copper,NF,C,239080,239080,237451,238364,237452,239563,238880,238880,239562,2
3,test,1,inc,1,z,Fri May 09 2025 07:58:30 GMT-0500 (Central Daylight Time),245655.10000002384,lead,1100,I,z,z,None,667,468.0,199.0,64,1,2296.600000023842,243358.5,7139,plum,NF,C,241396,241396,239568,240682,239568,241864,241197,241197,241864,3
4,test,1,con,1,z,Fri May 09 2025 07:58:30 GMT-0500 (Central Daylight Time),247870.80000001192,kiwi,900,I,z,z,None,783,583.0,200.0,50,1,2206.699999988079,245664.10000002384,7139,kiwi,NF,C,243496,243496,241873,242781,241874,244080,243295,243295,244080,4
5,test,1,con,1,z,Fri May 09 2025 07:58:30 GMT-0500 (Central Daylight Time),250284.40000003576,banana,1100,I,z,z,None,773,574.0,199.0,4,1,2403.100000023842,247881.30000001192,7139,banana,NF,C,245913,245913,244090,245195,244091,246493,245713,245713,246493,5
6,test,1,con,1,z,Fri May 09 2025 07:58:30 GMT-0500 (Central Daylight Time),252518.5,orange,900,I,z,z,None,798,598.0,200.0,18,1,2226.099999964237,250292.40000003576,7139,orange,NF,C,248129,248129,246501,247411,246502,248728,247928,247928,248728,6
7,test,1,inc,1,m,Fri May 09 2025 07:58:30 GMT-0500 (Central Daylight Time),254751.40000003576,orange,1000,I,m,m,None,688,474.0,214.0,95,1,2223.300000011921,252528.10000002384,7139,cobalt,NF,C,250477,250477,248737,249743,248738,250961,250262,250262,250960,7
8,test,1,con,1,m,Fri May 09 2025 07:58:30 GMT-0500 (Central Daylight Time),257115.30000001192,gold,900,I,m,m,None,925,710.0,215.0,98,1,2355.699999988079,254759.60000002384,7139,gold,NF,C,252608,252608,250969,251878,250969,253324,252393,252393,253324,8
9,test,1,inc,1,m,Fri May 09 2025 07:58:30 GMT-0500 (Central Daylight Time),259582.90000003576,raisin,1100,I,m,m,None,824,624.0,200.0,96,1,2460.5,257122.40000003576,7139,cobalt,NF,C,255159,255159,253331,254442,253332,255792,254958,254958,255792,9
10,test,1,con,1,z,Fri May 09 2025 07:58:30 GMT-0500 (Central Daylight Time),261782.90000003576,plum,800,I,z,z,None,865,651.0,214.0,57,1,2191.2000000476837,259591.69999998808,7139,plum,NF,C,257324,257324,255801,256608,255801,257992,257110,257110,257992,10
11,test,1,con,1,m,Fri May 09 2025 07:58:30 GMT-0500 (Central Daylight Time),264396.5,iron,1000,I,m,m,None,1065,851.0,214.0,107,1,2602.800000011921,261793.69999998808,7139,iron,NF,C,259740,259740,258003,259007,258003,260606,259525,259525,260605,11
12,test,1,inc,1,z,Fri May 09 2025 07:58:30 GMT-0500 (Central Daylight Time),267028.90000003576,lead,1100,I,z,z,None,992,791.0,201.0,48,1,2624.600000023842,264404.3000000119,7139,pear,NF,C,262440,262440,260613,261722,260614,263238,262239,262239,263238,12
13,test,1,inc,1,m,Fri May 09 2025 07:58:30 GMT-0500 (Central Daylight Time),269161.3000000119,banana,800,I,m,m,None,793,594.0,199.0,69,1,2123.300000011921,267038.0,7139,bronze,NF,C,264773,264773,263247,264057,263248,265370,264573,264573,265370,13
14,test,1,con,1,m,Fri May 09 2025 07:58:30 GMT-0500 (Central Daylight Time),271295.1999999881,iron,800,I,m,m,None,812,598.0,214.0,105,1,2124.099999964237,269171.10000002384,7139,iron,NF,C,266905,266905,265380,266187,265381,267504,266689,266690,267504,14
15,test,1,inc,1,m,Fri May 09 2025 07:58:30 GMT-0500 (Central Daylight Time),273477.10000002384,lime,800,I,m,m,None,841,642.0,199.0,125,1,2173.800000011921,271303.3000000119,7139,lead,NF,C,269037,269037,267512,268321,267513,269686,268837,268838,269686,15
16,test,1,inc,1,z,Fri May 09 2025 07:58:30 GMT-0500 (Central Daylight Time),275910.10000002384,silver,1000,I,z,z,None,890,690.0,200.0,7,1,2426.5,273483.60000002384,7139,banana,NF,C,271420,271420,269693,270703,269693,272119,271220,271220,272119,16
17,test,1,con,1,m,Fri May 09 2025 07:58:30 GMT-0500 (Central Daylight Time),278508.90000003576,bronze,1100,I,m,m,None,955,742.0,213.0,68,1,2594.300000011921,275914.60000002384,7139,bronze,NF,C,273969,273969,272124,273236,272124,274718,273755,273755,274718,17
18,test,1,inc,1,m,Fri May 09 2025 07:58:30 GMT-0500 (Central Daylight Time),280991.60000002384,plum,1100,I,m,m,None,837,638.0,199.0,104,1,2477.699999988079,278513.90000003576,7139,gold,NF,C,276553,276553,274723,275836,274723,277201,276353,276353,277201,18
19,test,1,con,1,z,Fri May 09 2025 07:58:30 GMT-0500 (Central Daylight Time),283672.6999999881,cherry,1100,I,z,z,None,1036,821.0,215.0,12,1,2675.599999964237,280997.10000002384,7139,cherry,NF,C,279050,279050,277206,278318,277206,279882,278835,278835,279882,19
20,test,1,inc,1,m,Fri May 09 2025 07:58:30 GMT-0500 (Central Daylight Time),286271.90000003576,cherry,900,I,m,m,None,1155,955.0,200.0,86,1,2594.2000000476837,283677.6999999881,7139,silver,NF,C,281515,281515,279887,280798,279887,282481,281315,281315,282481,20
21,test,1,con,1,z,Fri May 09 2025 07:58:30 GMT-0500 (Central Daylight Time),288656.10000002384,banana,900,I,z,z,None,965,766.0,199.0,2,1,2380.800000011921,286275.3000000119,7139,banana,NF,C,284099,284099,282484,283397,282485,284865,283899,283899,284865,21
22,test,1,con,1,z,Fri May 09 2025 07:58:30 GMT-0500 (Central Daylight Time),290972.8000000119,pear,900,I,z,z,None,875,660.0,215.0,42,1,2311.199999988079,288661.60000002384,7139,pear,NF,C,286515,286515,284871,285782,284871,287182,286299,286299,287182,22
23,test,1,inc,1,z,Fri May 09 2025 07:58:30 GMT-0500 (Central Daylight Time),293422.10000002384,silver,1000,I,z,z,None,909,709.0,200.0,23,1,2444.600000023842,290977.5,7139,orange,NF,C,288914,288914,287187,288199,287187,289631,288714,288714,289631,23
24,test,1,inc,1,m,Fri May 09 2025 07:58:30 GMT-0500 (Central Daylight Time),295871.3000000119,banana,800,I,m,m,None,1106,906.0,200.0,77,1,2443.300000011921,293428.0,7139,copper,NF,C,291164,291164,289637,290448,289637,292080,290964,290964,292080,24
25,test,1,con,1,m,Fri May 09 2025 07:58:30 GMT-0500 (Central Daylight Time),298469.6999999881,silver,1000,I,m,m,None,1057,841.0,216.0,83,1,2593.7999999523163,295875.90000003576,7139,silver,NF,C,293830,293830,292085,293096,292085,294679,293614,293614,294679,25
26,test,1,inc,1,z,Fri May 09 2025 07:58:30 GMT-0500 (Central Daylight Time),300985.3000000119,iron,900,I,z,z,None,1077,878.0,199.0,38,1,2510.899999976158,298474.40000003576,7139,lime,NF,C,296312,296313,294683,295595,294684,297194,296112,296112,297194,26
27,test,1,inc,1,z,Fri May 09 2025 07:58:30 GMT-0500 (Central Daylight Time),303416.6999999881,bronze,800,I,z,z,None,1083,884.0,199.0,13,1,2425.099999964237,300991.60000002384,7139,cherry,NF,C,298729,298729,297201,298013,297201,299626,298529,298529,299626,27
27,test,1,inc,0,z,Fri May 09 2025 07:58:30 GMT-0500 (Central Daylight Time),306750.60000002384,gold,800,I,None,None,None,1799,1799.0,200.0,37,1,3329.199999988079,303421.40000003576,7139,lime,NF,C,301161,301161,299630,300443,299631,302960,300961,300961,302960,28
28,test,1,inc,1,z,Fri May 09 2025 07:58:30 GMT-0500 (Central Daylight Time),309432.5,lead,1100,I,z,z,None,1055,840.0,215.0,56,1,2677.099999964237,306755.40000003576,7139,kiwi,NF,C,304792,304792,302964,304075,302965,305642,304577,304577,305642,29
29,test,1,con,1,z,Fri May 09 2025 07:58:30 GMT-0500 (Central Daylight Time),311847.8000000119,banana,1000,I,z,z,None,894,679.0,215.0,3,1,2410.600000023842,309437.1999999881,7139,banana,NF,C,307376,307376,305646,306658,305646,308057,307160,307160,308057,30
30,test,1,con,1,z,Fri May 09 2025 07:58:30 GMT-0500 (Central Daylight Time),314147.60000002384,orange,1000,I,z,z,None,749,535.0,214.0,19,1,2293.800000011921,311853.8000000119,7139,orange,NF,C,309807,309807,308063,309074,308063,310357,309593,309593,310357,31
31,test,1,inc,1,z,Fri May 09 2025 07:58:30 GMT-0500 (Central Daylight Time),316712.40000003576,lead,1100,I,z,z,None,927,728.0,199.0,40,1,2557.400000035763,314155.0,7139,lime,NF,C,312190,312190,310364,311474,310365,312921,311991,311991,312921,32
32,test,1,con,1,m,Fri May 09 2025 07:58:30 GMT-0500 (Central Daylight Time),319063.60000002384,silver,1100,I,m,m,None,706,491.0,215.0,84,1,2347.300000011921,316716.3000000119,7139,silver,NF,C,314772,314772,312925,314039,312926,315273,314557,314557,315273,33
33,test,1,con,1,m,Fri May 09 2025 07:58:30 GMT-0500 (Central Daylight Time),321511.6999999881,cobalt,1100,I,m,m,None,814,615.0,199.0,92,1,2443.0,319068.6999999881,7139,cobalt,NF,C,317104,317104,315278,316389,315278,317721,316905,316905,317721,34
34,test,1,con,1,m,Fri May 09 2025 07:58:30 GMT-0500 (Central Daylight Time),323878.0,zinc,900,I,m,m,None,924,724.0,200.0,114,1,2361.899999976158,321516.10000002384,7139,zinc,NF,C,319355,319355,317725,318639,317725,320087,319155,319155,320087,35
35,test,1,inc,1,m,Fri May 09 2025 07:58:30 GMT-0500 (Central Daylight Time),326197.10000002384,pear,900,I,m,m,None,869,668.0,201.0,126,1,2314.199999988079,323882.90000003576,7139,lead,NF,C,321722,321722,320092,321004,320092,322406,321520,321520,322406,36
36,test,1,con,1,z,Fri May 09 2025 07:58:30 GMT-0500 (Central Daylight Time),328659.90000003576,lime,1000,I,z,z,None,915,701.0,214.0,35,1,2458.2000000476837,326201.6999999881,7139,lime,NF,C,324153,324153,322411,323420,322411,324869,323938,323938,324869,37
37,test,1,inc,1,m,Fri May 09 2025 07:58:30 GMT-0500 (Central Daylight Time),331142.40000003576,kiwi,1000,I,m,m,None,941,725.0,216.0,103,1,2477.300000011921,328665.10000002384,7139,gold,NF,C,326619,326619,324874,325885,324874,327351,326403,326403,327351,38
38,test,1,inc,1,m,Fri May 09 2025 07:58:30 GMT-0500 (Central Daylight Time),333641.60000002384,kiwi,1000,I,m,m,None,963,747.0,216.0,127,1,2494.600000023842,331147.0,7139,lead,NF,C,329100,329100,327356,328369,327356,329851,328884,328884,329851,39
39,test,1,con,1,m,Fri May 09 2025 07:58:30 GMT-0500 (Central Daylight Time),335974.6999999881,lead,1000,I,m,m,None,789,590.0,199.0,123,1,2328.699999988079,333646.0,7139,lead,NF,C,331585,331585,329855,330868,329855,332184,331385,331385,332184,40
40,test,1,con,1,z,Fri May 09 2025 07:58:30 GMT-0500 (Central Daylight Time),338175.3000000119,cherry,800,I,z,z,None,883,683.0,200.0,9,1,2195.5,335979.8000000119,7139,cherry,NF,C,333701,333701,332189,332999,332189,334384,333500,333500,334384,41
41,test,1,inc,1,m,Fri May 09 2025 07:58:30 GMT-0500 (Central Daylight Time),340423.10000002384,banana,800,I,m,m,None,900,699.0,201.0,93,1,2242.600000023842,338180.5,7139,cobalt,NF,C,335917,335917,334390,335200,334390,336632,335716,335716,336632,42
42,test,1,inc,1,m,Fri May 09 2025 07:58:30 GMT-0500 (Central Daylight Time),342821.6999999881,cherry,900,I,m,m,None,974,774.0,200.0,94,1,2392.399999976158,340429.3000000119,7139,cobalt,NF,C,338249,338249,336638,337548,336639,339031,338049,338049,339031,43
43,test,1,inc,1,z,Fri May 09 2025 07:58:30 GMT-0500 (Central Daylight Time),345286.5,cobalt,1100,I,z,z,None,831,632.0,199.0,32,1,2460.0,342826.5,7139,raisin,NF,C,340863,340863,339036,340147,339036,341496,340663,340663,341496,44
44,test,1,con,1,z,Fri May 09 2025 07:58:30 GMT-0500 (Central Daylight Time),347720.6999999881,kiwi,1100,I,z,z,None,792,591.0,201.0,52,1,2431.2999999523163,345289.40000003576,7139,kiwi,NF,C,343328,343328,341498,342612,341499,343930,343127,343127,343930,45
45,test,1,con,1,z,Fri May 09 2025 07:58:30 GMT-0500 (Central Daylight Time),350203.1999999881,kiwi,1000,I,z,z,None,933,719.0,214.0,51,1,2477.2999999523163,347725.90000003576,7139,kiwi,NF,C,345679,345679,343935,344946,343935,346412,345465,345465,346412,46
46,test,1,inc,1,m,Fri May 09 2025 07:58:30 GMT-0500 (Central Daylight Time),352552.5,pear,900,I,m,m,None,917,702.0,215.0,102,1,2343.800000011921,350208.6999999881,7139,gold,NF,C,348059,348059,346418,347327,346418,348762,347844,347844,348761,47
47,test,1,inc,1,m,Fri May 09 2025 07:58:30 GMT-0500 (Central Daylight Time),354868.60000002384,cherry,900,I,m,m,None,876,677.0,199.0,70,1,2310.900000035763,352557.6999999881,7139,bronze,NF,C,350394,350394,348767,349679,348767,351078,350194,350194,351078,48
48,test,1,con,1,m,Fri May 09 2025 07:58:30 GMT-0500 (Central Daylight Time),357417.10000002384,iron,900,I,m,m,None,1104,905.0,199.0,106,1,2543.600000023842,354873.5,7139,iron,NF,C,352710,352710,351083,351994,351083,353626,352510,352511,353626,49
49,test,1,con,1,m,Fri May 09 2025 07:58:30 GMT-0500 (Central Daylight Time),359866.0,iron,1100,I,m,m,None,812,611.0,201.0,108,1,2443.699999988079,357422.3000000119,7139,iron,NF,C,355460,355460,353631,354743,353632,356075,355259,355259,356075,50
50,test,1,inc,1,m,Fri May 09 2025 07:58:30 GMT-0500 (Central Daylight Time),362166.10000002384,banana,800,I,m,m,None,955,741.0,214.0,85,1,2295.100000023842,359871.0,7139,silver,NF,C,357625,357625,356080,356895,356080,358375,357410,357410,358375,51
51,test,1,con,1,m,Fri May 09 2025 07:58:30 GMT-0500 (Central Daylight Time),364332.90000003576,copper,800,I,m,m,None,818,618.0,200.0,73,1,2161.7000000476837,362171.1999999881,7139,copper,NF,C,359908,359908,358380,359192,358381,360542,359707,359707,360542,52
52,test,1,inc,1,m,Fri May 09 2025 07:58:30 GMT-0500 (Central Daylight Time),366747.1999999881,kiwi,1000,I,m,m,None,868,667.0,201.0,111,1,2408.899999976158,364338.3000000119,7139,iron,NF,C,362274,362275,360547,361559,360548,362956,362073,362073,362956,53
53,test,1,inc,1,m,Fri May 09 2025 07:58:30 GMT-0500 (Central Daylight Time),369246.6999999881,raisin,1100,I,m,m,None,856,654.0,202.0,88,1,2492.7999999523163,366753.90000003576,7139,silver,NF,C,364792,364792,362963,364074,362963,365456,364590,364590,365456,54
54,test,1,con,1,z,Fri May 09 2025 07:58:30 GMT-0500 (Central Daylight Time),371664.0,pear,1100,I,z,z,None,783,583.0,200.0,44,1,2411.899999976158,369252.10000002384,7139,pear,NF,C,367290,367290,365461,366572,365461,367873,367089,367089,367873,55
55,test,1,con,1,z,Fri May 09 2025 07:58:30 GMT-0500 (Central Daylight Time),374263.3000000119,raisin,900,I,z,z,None,1166,967.0,199.0,26,1,2593.800000011921,371669.5,7139,raisin,NF,C,369505,369505,367879,368788,367879,370472,369306,369306,370472,56
56,test,1,inc,1,z,Fri May 09 2025 07:58:30 GMT-0500 (Central Daylight Time),376496.10000002384,copper,900,I,z,z,None,816,617.0,199.0,6,1,2229.5,374266.60000002384,7139,banana,NF,C,372088,372088,370476,371387,370476,372705,371888,371888,372705,57
57,test,1,inc,1,m,Fri May 09 2025 07:58:30 GMT-0500 (Central Daylight Time),378695.8000000119,lime,800,I,m,m,None,867,666.0,201.0,101,1,2194.699999988079,376501.10000002384,7139,gold,NF,C,374222,374222,372710,373519,372710,374905,374020,374020,374905,58
58,test,1,con,1,m,Fri May 09 2025 07:58:30 GMT-0500 (Central Daylight Time),380859.60000002384,cobalt,800,I,m,m,None,825,626.0,199.0,89,1,2155.400000035763,378704.1999999881,7139,cobalt,NF,C,376437,376437,374913,375721,374914,377069,376237,376237,377069,59
59,test,1,inc,1,z,Fri May 09 2025 07:58:30 GMT-0500 (Central Daylight Time),382960.40000003576,bronze,800,I,z,z,None,764,550.0,214.0,5,1,2096.0,380864.40000003576,7139,banana,NF,C,378619,378619,377073,377886,377074,379169,378404,378404,379169,60
60,test,1,inc,1,z,Fri May 09 2025 07:58:30 GMT-0500 (Central Daylight Time),385276.10000002384,gold,800,I,z,z,None,967,751.0,216.0,61,1,2310.100000023842,382966.0,7139,plum,NF,C,380719,380719,379175,379986,379175,381485,380503,380503,381485,61
61,test,1,con,1,m,Fri May 09 2025 07:58:30 GMT-0500 (Central Daylight Time),387892.90000003576,zinc,1000,I,m,m,None,1082,867.0,215.0,115,1,2611.900000035763,385281.0,7139,zinc,NF,C,383235,383235,381490,382500,381490,384102,383020,383020,384102,62
62,test,1,inc,1,m,Fri May 09 2025 07:58:30 GMT-0500 (Central Daylight Time),390207.90000003576,cherry,900,I,m,m,None,880,664.0,216.0,78,1,2309.7000000476837,387898.1999999881,7139,copper,NF,C,385752,385752,384107,385017,384108,386417,385535,385535,386417,63
63,test,1,inc,1,z,Fri May 09 2025 07:58:30 GMT-0500 (Central Daylight Time),392390.60000002384,iron,900,I,z,z,None,757,558.0,199.0,62,1,2175.5,390215.10000002384,7139,plum,NF,C,388033,388033,386424,387333,386425,388600,387834,387834,388600,64
64,test,1,con,1,z,Fri May 09 2025 07:58:30 GMT-0500 (Central Daylight Time),394657.60000002384,lime,900,I,z,z,None,833,634.0,199.0,34,1,2260.300000011921,392397.3000000119,7139,lime,NF,C,390232,390232,388606,389517,388607,390867,390033,390033,390867,65
65,test,1,inc,1,z,Fri May 09 2025 07:58:30 GMT-0500 (Central Daylight Time),397171.40000003576,silver,1000,I,z,z,None,967,768.0,199.0,15,1,2508.400000035763,394663.0,7139,cherry,NF,C,392598,392598,390872,391881,390873,393381,392399,392399,393380,66
66,test,1,con,1,m,Fri May 09 2025 07:58:30 GMT-0500 (Central Daylight Time),399488.5,gold,1000,I,m,m,None,783,567.0,216.0,99,1,2311.699999988079,397176.8000000119,7139,gold,NF,C,395130,395130,393386,394398,393386,395698,394914,394914,395698,67
67,test,1,con,1,m,Fri May 09 2025 07:58:30 GMT-0500 (Central Daylight Time),401620.3000000119,silver,800,I,m,m,None,786,585.0,201.0,81,1,2127.399999976158,399492.90000003576,7139,silver,NF,C,397230,397230,395702,396514,395702,397829,397029,397029,397829,68
68,test,1,inc,1,z,Fri May 09 2025 07:58:30 GMT-0500 (Central Daylight Time),404100.60000002384,zinc,1000,I,z,z,None,931,731.0,200.0,63,1,2474.699999988079,401625.90000003576,7139,plum,NF,C,399563,399563,397835,398846,397835,400310,399362,399362,400310,69
69,test,1,inc,1,m,Fri May 09 2025 07:58:30 GMT-0500 (Central Daylight Time),406386.0,pear,900,I,m,m,None,865,650.0,215.0,110,1,2281.5,404104.5,7139,iron,NF,C,401945,401945,400314,401227,400314,402595,401730,401730,402595,70
70,test,1,con,1,z,Fri May 09 2025 07:58:30 GMT-0500 (Central Daylight Time),408784.60000002384,raisin,1000,I,z,z,None,865,664.0,201.0,27,1,2393.900000035763,406390.6999999881,7139,raisin,NF,C,404329,404329,402600,403613,402600,404994,404128,404128,404994,71
71,test,1,con,1,m,Fri May 09 2025 07:58:30 GMT-0500 (Central Daylight Time),410950.8000000119,gold,800,I,m,m,None,824,624.0,200.0,97,1,2160.800000011921,408790.0,7139,gold,NF,C,406527,406527,404999,405811,404999,407160,406327,406327,407160,72
72,test,1,con,1,z,Fri May 09 2025 07:58:30 GMT-0500 (Central Daylight Time),413465.40000003576,plum,1100,I,z,z,None,882,681.0,201.0,60,1,2510.5,410954.90000003576,7139,plum,NF,C,408993,408993,407164,408276,407164,409674,408792,408792,409674,73
73,test,1,con,1,z,Fri May 09 2025 07:58:30 GMT-0500 (Central Daylight Time),415915.1999999881,raisin,1100,I,z,z,None,803,600.0,203.0,28,1,2445.5,413469.6999999881,7139,raisin,NF,C,411510,411510,409679,410792,409679,412124,411307,411307,412124,74
74,test,1,inc,1,z,Fri May 09 2025 07:58:30 GMT-0500 (Central Daylight Time),418064.60000002384,bronze,800,I,z,z,None,805,606.0,199.0,29,1,2145.100000023842,415919.5,7139,raisin,NF,C,413657,413657,412129,412942,412129,414274,413457,413457,414274,75
75,test,1,inc,1,z,Fri May 09 2025 07:58:30 GMT-0500 (Central Daylight Time),420396.60000002384,gold,800,I,z,z,None,989,790.0,199.0,53,1,2326.600000023842,418070.0,7139,kiwi,NF,C,415807,415807,414279,415091,414279,416606,415607,415607,416606,76
76,test,1,con,1,m,Fri May 09 2025 07:58:30 GMT-0500 (Central Daylight Time),422631.10000002384,bronze,800,I,m,m,None,900,700.0,200.0,65,1,2229.300000011921,420401.8000000119,7139,bronze,NF,C,418140,418140,416611,417423,416611,418840,417940,417940,418840,77
77,test,1,con,1,z,Fri May 09 2025 07:58:30 GMT-0500 (Central Daylight Time),425029.60000002384,raisin,800,I,z,z,None,1058,843.0,215.0,25,1,2393.600000023842,422636.0,7139,raisin,NF,C,420389,420389,418845,419656,418845,421239,420173,420173,421239,78
78,test,1,inc,1,z,Fri May 09 2025 07:58:30 GMT-0500 (Central Daylight Time),427560.90000003576,cobalt,1100,I,z,z,None,888,687.0,201.0,8,1,2526.900000035763,425034.0,7139,banana,NF,C,423072,423072,421243,422355,421243,423770,422871,422871,423770,79
79,test,1,inc,1,m,Fri May 09 2025 07:58:30 GMT-0500 (Central Daylight Time),429760.40000003576,lime,800,I,m,m,None,862,663.0,199.0,109,1,2195.0,427565.40000003576,7139,iron,NF,C,425304,425304,423774,424588,423775,425970,425104,425104,425969,80
80,test,1,inc,1,m,Fri May 09 2025 07:58:30 GMT-0500 (Central Daylight Time),432242.1999999881,plum,1100,I,m,m,None,842,643.0,199.0,120,1,2476.099999964237,429766.10000002384,7139,zinc,NF,C,427804,427804,425975,427088,425975,428451,427604,427604,428451,81
81,test,1,inc,1,z,Fri May 09 2025 07:58:30 GMT-0500 (Central Daylight Time),434443.90000003576,copper,900,I,z,z,None,752,552.0,200.0,22,1,2197.400000035763,432246.5,7139,orange,NF,C,430086,430087,428456,429369,428456,430653,429886,429886,430653,82
82,test,1,con,1,m,Fri May 09 2025 07:58:30 GMT-0500 (Central Daylight Time),436908.3000000119,bronze,900,I,m,m,None,1016,801.0,215.0,66,1,2457.699999988079,434450.60000002384,7139,bronze,NF,C,432302,432302,430660,431569,430660,433117,432086,432086,433117,83
83,test,1,inc,1,m,Fri May 09 2025 07:58:30 GMT-0500 (Central Daylight Time),439074.0,lime,800,I,m,m,None,835,618.0,217.0,117,1,2160.300000011921,436913.6999999881,7139,zinc,NF,C,434652,434652,433123,433933,433123,435283,434435,434435,435283,84
84,test,1,con,1,z,Fri May 09 2025 07:58:30 GMT-0500 (Central Daylight Time),441223.10000002384,lime,800,I,z,z,None,811,596.0,215.0,33,1,2144.300000011921,439078.8000000119,7139,lime,NF,C,436835,436835,435288,436101,435288,437432,436618,436618,437432,85
85,test,1,con,1,z,Fri May 09 2025 07:58:30 GMT-0500 (Central Daylight Time),443538.40000003576,plum,900,I,z,z,None,868,668.0,200.0,58,1,2310.0,441228.40000003576,7139,plum,NF,C,439066,439066,437437,438350,437438,439747,438866,438866,439747,86
86,test,1,con,1,m,Fri May 09 2025 07:58:30 GMT-0500 (Central Daylight Time),445806.40000003576,cobalt,900,I,m,m,None,817,616.0,201.0,90,1,2262.300000011921,443544.10000002384,7139,cobalt,NF,C,441383,441383,439753,440666,439754,442015,441182,441182,442015,87
87,test,1,inc,1,m,Fri May 09 2025 07:58:30 GMT-0500 (Central Daylight Time),448104.6999999881,orange,1000,I,m,m,None,764,563.0,201.0,79,1,2292.899999976158,445811.8000000119,7139,copper,NF,C,443749,443749,442021,443031,442021,444314,443547,443547,444314,88
88,test,1,con,1,m,Fri May 09 2025 07:58:30 GMT-0500 (Central Daylight Time),450523.3000000119,lead,800,I,m,m,None,1070,870.0,200.0,121,1,2413.100000023842,448110.1999999881,7139,lead,NF,C,445848,445848,444319,445132,444320,446732,445648,445648,446732,89
89,test,1,inc,1,z,Fri May 09 2025 07:58:30 GMT-0500 (Central Daylight Time),452970.10000002384,cobalt,1100,I,z,z,None,811,612.0,199.0,16,1,2440.400000035763,450529.6999999881,7139,cherry,NF,C,448563,448563,446739,447846,446739,449179,448363,448363,449179,90
90,test,1,inc,1,z,Fri May 09 2025 07:58:30 GMT-0500 (Central Daylight Time),455319.3000000119,zinc,1000,I,z,z,None,805,606.0,199.0,55,1,2344.300000011921,452975.0,7139,kiwi,NF,C,450912,450912,449184,450196,449184,451528,450713,450713,451528,91
91,test,1,inc,1,m,Fri May 09 2025 07:58:30 GMT-0500 (Central Daylight Time),457752.8000000119,plum,1100,I,m,m,None,788,589.0,199.0,128,1,2428.199999988079,455324.60000002384,7139,lead,NF,C,453361,453361,451534,452645,451534,453962,453162,453162,453962,92
92,test,1,inc,1,m,Fri May 09 2025 07:58:30 GMT-0500 (Central Daylight Time),460117.8000000119,raisin,1100,I,m,m,None,723,524.0,199.0,80,1,2359.899999976158,457757.90000003576,7139,copper,NF,C,455795,455795,453967,455077,453967,456327,455595,455595,456327,93
93,test,1,inc,1,z,Fri May 09 2025 07:58:30 GMT-0500 (Central Daylight Time),462550.10000002384,cobalt,1100,I,z,z,None,790,591.0,199.0,24,1,2427.0,460123.10000002384,7139,orange,NF,C,458160,458160,456332,457445,456332,458759,457961,457961,458759,94
94,test,1,con,1,z,Fri May 09 2025 07:58:30 GMT-0500 (Central Daylight Time),464882.3000000119,plum,1000,I,z,z,None,795,580.0,215.0,59,1,2327.399999976158,462554.90000003576,7139,plum,NF,C,460507,460507,458764,459777,458764,461091,460292,460292,461091,95
95,test,1,con,1,m,Fri May 09 2025 07:58:30 GMT-0500 (Central Daylight Time),467232.3000000119,cobalt,1000,I,m,m,None,805,606.0,199.0,91,1,2345.399999976158,464886.90000003576,7139,cobalt,NF,C,462825,462825,461096,462109,461096,463441,462625,462625,463441,96
96,test,1,inc,1,z,Fri May 09 2025 07:58:30 GMT-0500 (Central Daylight Time),469615.3000000119,zinc,1000,I,z,z,None,839,640.0,199.0,39,1,2377.199999988079,467238.10000002384,7139,lime,NF,C,465175,465175,463447,464458,463447,465824,464975,464975,465824,97
97,test,1,con,1,z,Fri May 09 2025 07:58:30 GMT-0500 (Central Daylight Time),472080.8000000119,orange,1100,I,z,z,None,824,622.0,202.0,20,1,2460.699999988079,469620.10000002384,7139,orange,NF,C,467658,467658,465829,466942,465829,468290,467456,467456,468290,98
98,test,1,inc,1,z,Fri May 09 2025 07:58:30 GMT-0500 (Central Daylight Time),474280.5,copper,900,I,z,z,None,756,556.0,200.0,14,1,2194.199999988079,472086.3000000119,7139,cherry,NF,C,469923,469923,468295,469208,468296,470490,469722,469722,470490,99
99,test,1,con,1,m,Fri May 09 2025 07:58:30 GMT-0500 (Central Daylight Time),476378.90000003576,silver,900,I,m,m,None,660,444.0,216.0,82,1,2092.800000011921,474286.10000002384,7139,silver,NF,C,472139,472139,470495,471407,470496,472588,471923,471923,472588,100
100,test,1,inc,1,m,Fri May 09 2025 07:58:30 GMT-0500 (Central Daylight Time),478663.40000003576,pear,900,I,m,m,None,865,666.0,199.0,118,1,2280.2000000476837,476383.1999999881,7139,zinc,NF,C,474206,474206,472592,473504,472593,474873,474006,474006,474872,101
101,test,1,con,1,z,Fri May 09 2025 07:58:30 GMT-0500 (Central Daylight Time),480777.40000003576,orange,800,I,z,z,None,776,562.0,214.0,17,1,2109.600000023842,478667.8000000119,7139,orange,NF,C,476422,476422,474877,475689,474877,476986,476206,476207,476986,102
102,test,1,con,1,z,Fri May 09 2025 07:58:30 GMT-0500 (Central Daylight Time),483175.90000003576,pear,1000,I,z,z,None,861,647.0,214.0,43,1,2393.0,480782.90000003576,7139,pear,NF,C,478736,478736,476992,478004,476992,479385,478522,478522,479385,103
103,test,1,inc,1,z,Fri May 09 2025 07:58:30 GMT-0500 (Central Daylight Time),485359.3000000119,iron,900,I,z,z,None,738,539.0,199.0,54,1,2176.800000011921,483182.5,7139,kiwi,NF,C,481020,481020,479392,480303,479392,481568,480820,480820,481568,104
104,test,1,inc,1,z,Fri May 09 2025 07:58:30 GMT-0500 (Central Daylight Time),487574.8000000119,silver,1000,I,z,z,None,697,497.0,200.0,31,1,2211.600000023842,485363.1999999881,7139,raisin,NF,C,483286,483286,481572,482585,481573,483784,483086,483086,483784,105
105,test,1,con,1,m,Fri May 09 2025 07:58:30 GMT-0500 (Central Daylight Time),489794.40000003576,gold,1100,I,m,m,None,573,373.0,200.0,100,1,2216.5,487577.90000003576,7139,gold,NF,C,485618,485618,483787,484902,483787,486004,485417,485417,486003,106
106,test,1,con,1,z,Fri May 09 2025 07:58:30 GMT-0500 (Central Daylight Time),491725.0,banana,800,I,z,z,None,591,392.0,199.0,1,1,1925.5,489799.5,7139,banana,NF,C,487535,487535,486009,486818,486009,487934,487336,487336,487934,107
107,test,1,inc,1,z,Fri May 09 2025 07:58:30 GMT-0500 (Central Daylight Time),493957.1999999881,copper,900,I,z,z,None,786,586.0,200.0,30,1,2226.099999964237,491731.10000002384,7139,raisin,NF,C,489567,489567,487940,488852,487941,490166,489367,489367,490166,108
108,test,1,con,1,z,Fri May 09 2025 07:58:30 GMT-0500 (Central Daylight Time),496121.8000000119,pear,800,I,z,z,None,826,627.0,199.0,41,1,2160.699999988079,493961.10000002384,7139,pear,NF,C,491700,491700,490170,490984,490171,492331,491501,491501,492331,109
109,test,1,con,1,m,Fri May 09 2025 07:58:30 GMT-0500 (Central Daylight Time),498355.90000003576,bronze,1000,I,m,m,None,694,493.0,201.0,67,1,2230.0,496125.90000003576,7139,bronze,NF,C,494066,494066,492335,493349,492335,494565,493864,493864,494565,110
110,test,1,inc,1,z,Fri May 09 2025 07:58:30 GMT-0500 (Central Daylight Time),500454.1999999881,gold,800,I,z,z,None,751,551.0,200.0,45,1,2093.099999964237,498361.10000002384,7139,pear,NF,C,496095,496095,494570,495383,494570,496663,495895,495895,496663,111
111,test,1,con,1,m,Fri May 09 2025 07:58:30 GMT-0500 (Central Daylight Time),502821.8000000119,zinc,1100,I,m,m,None,716,516.0,200.0,116,1,2364.600000023842,500457.1999999881,7139,zinc,NF,C,498497,498498,496666,497781,496666,499031,498297,498297,499031,112
112,test,1,inc,1,m,Fri May 09 2025 07:58:30 GMT-0500 (Central Daylight Time),505271.8000000119,orange,1000,I,m,m,None,918,716.0,202.0,87,1,2445.399999976158,502826.40000003576,7139,silver,NF,C,500764,500764,499035,500048,499036,501481,500562,500562,501481,113
113,test,1,inc,1,m,Fri May 09 2025 07:58:30 GMT-0500 (Central Daylight Time),507702.40000003576,raisin,1100,I,m,m,None,805,589.0,216.0,72,1,2425.0,505277.40000003576,7139,bronze,NF,C,503313,503313,501486,502596,501487,503911,503097,503097,503911,114
114,test,1,con,1,z,Fri May 09 2025 07:58:30 GMT-0500 (Central Daylight Time),509835.90000003576,kiwi,800,I,z,z,None,784,568.0,216.0,49,1,2128.800000011921,507707.10000002384,7139,kiwi,NF,C,505462,505462,503916,504730,503917,506045,505246,505246,506045,115
115,test,1,con,1,m,Fri May 09 2025 07:58:30 GMT-0500 (Central Daylight Time),511984.40000003576,zinc,800,I,m,m,None,804,605.0,199.0,113,1,2143.800000011921,509840.60000002384,7139,zinc,NF,C,507578,507578,506050,506863,506050,508193,507379,507379,508193,116
116,test,1,con,1,m,Fri May 09 2025 07:58:30 GMT-0500 (Central Daylight Time),514067.0,lead,900,I,m,m,None,635,435.0,200.0,122,1,2077.699999988079,511989.3000000119,7139,lead,NF,C,509827,509827,508198,509112,508199,510276,509627,509627,510276,117
117,test,1,con,1,m,Fri May 09 2025 07:58:30 GMT-0500 (Central Daylight Time),516450.6999999881,lead,1100,I,m,m,None,744,544.0,200.0,124,1,2378.199999988079,514072.5,7139,lead,NF,C,512111,512111,510282,511394,510282,512660,511910,511910,512660,118
118,test,1,con,1,z,Fri May 09 2025 07:58:30 GMT-0500 (Central Daylight Time),518866.3000000119,lime,1100,I,z,z,None,769,554.0,215.0,36,1,2410.800000011921,516455.5,7139,lime,NF,C,514508,514508,512665,513776,512665,515075,514293,514293,515075,119
119,test,1,inc,1,z,Fri May 09 2025 07:58:30 GMT-0500 (Central Daylight Time),521148.10000002384,iron,900,I,z,z,None,832,616.0,216.0,46,1,2277.800000011921,518870.3000000119,7139,pear,NF,C,516726,516726,515079,515992,515080,517357,516509,516509,517357,120
120,test,1,inc,1,z,Fri May 09 2025 07:58:30 GMT-0500 (Central Daylight Time),523464.1999999881,zinc,1000,I,z,z,None,780,579.0,201.0,47,1,2310.0,521154.1999999881,7139,pear,NF,C,519092,519092,517363,518374,517364,519673,518890,518890,519673,121
121,test,1,inc,1,m,Fri May 09 2025 07:58:30 GMT-0500 (Central Daylight Time),525712.5,kiwi,1000,I,m,m,None,704,503.0,201.0,119,1,2243.800000011921,523468.6999999881,7139,zinc,NF,C,521407,521407,519678,520690,519678,521922,521206,521206,521922,122
122,test,1,con,1,z,Fri May 09 2025 07:58:30 GMT-0500 (Central Daylight Time),527961.6000000238,cherry,900,I,z,z,None,823,611.0,212.0,10,1,2243.600000023842,525718.0,7139,cherry,NF,C,523555,523555,521927,522840,521927,524171,523342,523342,524171,123
123,test,1,inc,1,m,Fri May 09 2025 07:58:30 GMT-0500 (Central Daylight Time),530328.6000000238,plum,1100,I,m,m,None,732,533.0,199.0,112,1,2362.5,527966.1000000238,7139,iron,NF,C,526004,526004,524175,525290,524175,526538,525805,525805,526538,124
124,test,1,con,1,z,Fri May 09 2025 07:58:30 GMT-0500 (Central Daylight Time),532679.6000000238,cherry,1000,I,z,z,None,816,617.0,199.0,11,1,2346.800000011921,530332.8000000119,7139,cherry,NF,C,528271,528271,526542,527554,526542,528889,528072,528072,528889,125
125,test,1,con,1,m,Fri May 09 2025 07:58:30 GMT-0500 (Central Daylight Time),534960.6999999881,copper,1000,I,m,m,None,738,538.0,200.0,75,1,2276.2999999523163,532684.4000000358,7139,copper,NF,C,530621,530621,528893,529905,528894,531170,530421,530421,531170,126
126,test,1,inc,1,m,Fri May 09 2025 07:58:30 GMT-0500 (Central Daylight Time),537311.1000000238,orange,1000,I,m,m,None,808,609.0,199.0,71,1,2344.699999988079,534966.4000000358,7139,bronze,NF,C,532902,532902,531175,532187,531176,533520,532703,532703,533520,127
127,test,1,inc,1,z,Fri May 09 2025 07:58:30 GMT-0500 (Central Daylight Time),539857.9000000358,bronze,800,I,z,z,None,1200,986.0,214.0,21,1,2542.0,537315.9000000358,7139,orange,NF,C,535068,535068,533525,534339,533525,536067,534854,534854,536067,128
