acc_sum,block,block_c,change,condition,correct,correct_response,datetime,endtime,face,project,response,response_time,row_sel,session_number,start_end,starttime,subject_id,task,task_vers,trial
0,prac,1,,1-Back,,,Fri May 23 2025 18:22:25 GMT-0500 (Central Daylight Time),,005_o_f_d_a.png,O,space,14495,1,1,,,7156,VNB,B,0
0,prac,1,0.0,1-Back,0,m,Fri May 23 2025 18:22:25 GMT-0500 (Central Daylight Time),193595.40000000037,020_y_f_n_a.png,O,None,2017,2,1,2891.3000000002794,190704.1000000001,7156,VNB,B,1
1,prac,1,0.0,1-Back,1,m,Fri May 23 2025 18:22:25 GMT-0500 (Central Daylight Time),195677.90000000037,007_m_m_h_a.png,O,m,1210,3,1,2072.7000000001863,193605.2000000002,7156,VNB,B,2
1,prac,1,0.0,1-Back,0,m,Fri May 23 2025 18:22:25 GMT-0500 (Central Daylight Time),197662.0,016_y_m_d_a.png,O,z,1104,4,1,1974.8999999999069,195687.1000000001,7156,VNB,B,3
2,prac,1,0.0,1-Back,1,m,Fri May 23 2025 18:22:25 GMT-0500 (Central Daylight Time),199525.40000000037,005_o_f_n_a.png,O,m,972,5,1,1854.1000000000931,197671.30000000028,7156,VNB,B,4
3,prac,1,1.0,1-Back,1,z,Fri May 23 2025 18:22:25 GMT-0500 (Central Daylight Time),201424.7000000002,016_y_m_n_a.png,O,z,1009,6,1,1888.1000000000931,199536.6000000001,7156,VNB,B,5
4,prac,1,0.0,1-Back,1,m,Fri May 23 2025 18:22:25 GMT-0500 (Central Daylight Time),203325.0,004_o_m_h_a.png,O,m,1029,7,1,1891.5999999996275,201433.40000000037,7156,VNB,B,6
4,prac,1,0.0,1-Back,0,m,Fri May 23 2025 18:22:25 GMT-0500 (Central Daylight Time),205108.30000000028,011_m_f_d_a.png,O,z,908,8,1,1773.7000000001863,203334.6000000001,7156,VNB,B,7
5,prac,1,1.0,1-Back,1,z,Fri May 23 2025 18:22:25 GMT-0500 (Central Daylight Time),207422.80000000028,020_y_f_d_a.png,O,z,1442,9,1,2306.7000000001863,205116.1000000001,7156,VNB,B,8
6,prac,1,0.0,1-Back,1,m,Fri May 23 2025 18:22:25 GMT-0500 (Central Daylight Time),209288.6000000001,007_m_m_n_a.png,O,m,972,10,1,1857.1000000000931,207431.5,7156,VNB,B,9
7,prac,1,0.0,1-Back,1,m,Fri May 23 2025 18:22:25 GMT-0500 (Central Daylight Time),211422.30000000028,005_o_f_h_a.png,O,m,1248,11,1,2125.2000000001863,209297.1000000001,7156,VNB,B,10
8,prac,1,0.0,1-Back,1,m,Fri May 23 2025 18:22:25 GMT-0500 (Central Daylight Time),213405.0,016_y_m_d_a.png,O,m,1099,12,1,1973.8999999999069,211431.1000000001,7156,VNB,B,11
0,test,1,0.0,1-Back,,,Fri May 23 2025 18:22:25 GMT-0500 (Central Daylight Time),213405.0,020_y_f_d_a.png,O,space,10980,1,1,1973.8999999999069,211431.1000000001,7156,VNB,B,0
1,test,1,0.0,1-Back,1,m,Fri May 23 2025 18:22:25 GMT-0500 (Central Daylight Time),237715.1000000001,011_m_f_n_a.png,O,m,1533,2,1,2542.100000000093,235173.0,7156,VNB,B,1
2,test,1,0.0,1-Back,1,m,Fri May 23 2025 18:22:25 GMT-0500 (Central Daylight Time),239895.5,004_o_m_h_a.png,O,m,1162,3,1,2174.0,237721.5,7156,VNB,B,2
3,test,1,1.0,1-Back,1,z,Fri May 23 2025 18:22:25 GMT-0500 (Central Daylight Time),241661.80000000028,007_m_m_h_a.png,O,z,738,4,1,1759.2000000001863,239902.6000000001,7156,VNB,B,3
4,test,1,0.0,1-Back,1,m,Fri May 23 2025 18:22:25 GMT-0500 (Central Daylight Time),243427.5,005_o_f_n_a.png,O,m,731,5,1,1758.1999999997206,241669.30000000028,7156,VNB,B,4
5,test,1,0.0,1-Back,1,m,Fri May 23 2025 18:22:25 GMT-0500 (Central Daylight Time),245559.90000000037,016_y_m_d_a.png,O,m,1102,6,1,2124.0,243435.90000000037,7156,VNB,B,5
6,test,1,1.0,1-Back,1,z,Fri May 23 2025 18:22:25 GMT-0500 (Central Daylight Time),247841.7000000002,011_m_f_d_a.png,O,z,1247,7,1,2274.600000000093,245567.1000000001,7156,VNB,B,6
7,test,1,0.0,1-Back,1,m,Fri May 23 2025 18:22:25 GMT-0500 (Central Daylight Time),249842.0,020_y_f_h_a.png,O,m,968,8,1,1997.3999999999069,247844.6000000001,7156,VNB,B,7
8,test,1,0.0,1-Back,1,m,Fri May 23 2025 18:22:25 GMT-0500 (Central Daylight Time),251891.2000000002,004_o_m_n_a.png,O,m,1016,9,1,2040.6000000000931,249850.6000000001,7156,VNB,B,8
9,test,1,0.0,1-Back,1,m,Fri May 23 2025 18:22:25 GMT-0500 (Central Daylight Time),254058.6000000001,016_y_m_h_a.png,O,m,1133,10,1,2159.2999999998137,251899.30000000028,7156,VNB,B,9
10,test,1,0.0,1-Back,1,m,Fri May 23 2025 18:22:25 GMT-0500 (Central Daylight Time),255990.90000000037,004_o_m_d_a.png,O,m,913,11,1,1924.0,254066.90000000037,7156,VNB,B,10
10,test,1,1.0,1-Back,0,z,Fri May 23 2025 18:22:25 GMT-0500 (Central Daylight Time),257991.6000000001,005_o_f_d_a.png,O,m,966,12,1,1993.0,255998.6000000001,7156,VNB,B,11
11,test,1,0.0,1-Back,1,m,Fri May 23 2025 18:22:25 GMT-0500 (Central Daylight Time),260237.80000000028,007_m_m_n_a.png,O,m,1227,13,1,2238.399999999907,257999.40000000037,7156,VNB,B,12
12,test,1,1.0,1-Back,1,z,Fri May 23 2025 18:22:25 GMT-0500 (Central Daylight Time),262338.6000000001,020_y_f_n_a.png,O,z,1075,14,1,2095.899999999907,260242.7000000002,7156,VNB,B,13
13,test,1,0.0,1-Back,1,m,Fri May 23 2025 18:22:25 GMT-0500 (Central Daylight Time),264138.4000000004,011_m_f_h_a.png,O,m,776,15,1,1791.2000000001863,262347.2000000002,7156,VNB,B,14
14,test,1,0.0,1-Back,1,m,Fri May 23 2025 18:22:25 GMT-0500 (Central Daylight Time),266252.9000000004,007_m_m_d_a.png,O,m,1096,16,1,2106.2000000001863,264146.7000000002,7156,VNB,B,15
14,test,1,0.0,1-Back,0,m,Fri May 23 2025 18:22:25 GMT-0500 (Central Daylight Time),268721.3000000003,016_y_m_n_a.png,O,z,1436,17,1,2465.600000000093,266255.7000000002,7156,VNB,B,16
15,test,1,0.0,1-Back,1,m,Fri May 23 2025 18:22:25 GMT-0500 (Central Daylight Time),270702.5,005_o_f_h_a.png,O,m,962,18,1,1974.5999999996275,268727.9000000004,7156,VNB,B,17
0,test,2,0.0,1-Back,,,Fri May 23 2025 18:22:25 GMT-0500 (Central Daylight Time),270702.5,016_y_m_n_a.png,O,space,1612,1,1,1974.5999999996275,268727.9000000004,7156,VNB,B,0
1,test,2,0.0,1-Back,1,m,Fri May 23 2025 18:22:25 GMT-0500 (Central Daylight Time),276384.1000000001,020_y_f_h_a.png,O,m,1027,2,1,2041.3999999999069,274342.7000000002,7156,VNB,B,1
2,test,2,1.0,1-Back,1,m,Fri May 23 2025 18:22:25 GMT-0500 (Central Daylight Time),278269.5,004_o_m_n_a.png,O,m,868,3,1,1876.6999999997206,276392.8000000003,7156,VNB,B,2
3,test,2,0.0,1-Back,1,m,Fri May 23 2025 18:22:25 GMT-0500 (Central Daylight Time),280765.9000000004,011_m_f_d_a.png,O,m,1478,4,1,2490.2000000001863,278275.7000000002,7156,VNB,B,3
4,test,2,0.0,1-Back,1,z,Fri May 23 2025 18:22:25 GMT-0500 (Central Daylight Time),282682.4000000004,007_m_m_d_a.png,O,z,892,5,1,1909.7000000001863,280772.7000000002,7156,VNB,B,4
5,test,2,0.0,1-Back,1,m,Fri May 23 2025 18:22:25 GMT-0500 (Central Daylight Time),284465.2000000002,016_y_m_h_a.png,O,m,750,6,1,1775.4000000003725,282689.7999999998,7156,VNB,B,5
6,test,2,1.0,1-Back,1,z,Fri May 23 2025 18:22:25 GMT-0500 (Central Daylight Time),286614.4000000004,005_o_f_h_a.png,O,z,1132,7,1,2140.2999999998137,284474.10000000056,7156,VNB,B,6
7,test,2,0.0,1-Back,1,m,Fri May 23 2025 18:22:25 GMT-0500 (Central Daylight Time),288364.2999999998,011_m_f_n_a.png,O,m,724,8,1,1746.3999999994412,286617.9000000004,7156,VNB,B,7
8,test,2,0.0,1-Back,1,m,Fri May 23 2025 18:22:25 GMT-0500 (Central Daylight Time),290146.2999999998,020_y_f_d_a.png,O,m,757,9,1,1773.0999999996275,288373.2000000002,7156,VNB,B,8
9,test,2,0.0,1-Back,1,m,Fri May 23 2025 18:22:25 GMT-0500 (Central Daylight Time),291845.5,007_m_m_n_a.png,O,m,670,10,1,1692.5999999996275,290152.9000000004,7156,VNB,B,9
10,test,2,1.0,1-Back,1,m,Fri May 23 2025 18:22:25 GMT-0500 (Central Daylight Time),293678.7000000002,011_m_f_h_a.png,O,m,804,11,1,1825.5999999996275,291853.10000000056,7156,VNB,B,10
11,test,2,0.0,1-Back,1,z,Fri May 23 2025 18:22:25 GMT-0500 (Central Daylight Time),295444.7000000002,004_o_m_h_a.png,O,z,739,12,1,1757.7000000001863,293687.0,7156,VNB,B,11
12,test,2,0.0,1-Back,1,m,Fri May 23 2025 18:22:25 GMT-0500 (Central Daylight Time),297060.60000000056,016_y_m_d_a.png,O,m,590,13,1,1608.800000000745,295451.7999999998,7156,VNB,B,12
13,test,2,0.0,1-Back,1,m,Fri May 23 2025 18:22:25 GMT-0500 (Central Daylight Time),298810.5,005_o_f_n_a.png,O,m,725,14,1,1740.5999999996275,297069.9000000004,7156,VNB,B,13
13,test,2,0.0,1-Back,0,z,Fri May 23 2025 18:22:25 GMT-0500 (Central Daylight Time),300543.2000000002,020_y_f_n_a.png,O,m,711,15,1,1724.4000000003725,298818.7999999998,7156,VNB,B,14
14,test,2,1.0,1-Back,1,m,Fri May 23 2025 18:22:25 GMT-0500 (Central Daylight Time),302694.0,007_m_m_h_a.png,O,m,1133,16,1,2142.0999999996275,300551.9000000004,7156,VNB,B,15
15,test,2,0.0,1-Back,1,m,Fri May 23 2025 18:22:25 GMT-0500 (Central Daylight Time),304575.0,005_o_f_d_a.png,O,m,861,17,1,1872.0,302703.0,7156,VNB,B,16
16,test,2,1.0,1-Back,1,z,Fri May 23 2025 18:22:25 GMT-0500 (Central Daylight Time),306424.9000000004,004_o_m_d_a.png,O,z,819,18,1,1841.1000000005588,304583.7999999998,7156,VNB,B,17
0,test,3,1.0,1-Back,,,Fri May 23 2025 18:22:25 GMT-0500 (Central Daylight Time),306424.9000000004,005_o_f_h_a.png,O,space,1042,1,1,1841.1000000005588,304583.7999999998,7156,VNB,B,0
1,test,3,0.0,1-Back,1,m,Fri May 23 2025 18:22:25 GMT-0500 (Central Daylight Time),311537.9000000004,011_m_f_d_a.png,O,m,914,2,1,1941.1000000005588,309596.7999999998,7156,VNB,B,1
2,test,3,1.0,1-Back,1,m,Fri May 23 2025 18:22:25 GMT-0500 (Central Daylight Time),313387.7999999998,007_m_m_n_a.png,O,m,824,3,1,1847.3999999994412,311540.4000000004,7156,VNB,B,2
3,test,3,0.0,1-Back,1,z,Fri May 23 2025 18:22:25 GMT-0500 (Central Daylight Time),315254.60000000056,005_o_f_n_a.png,O,z,845,4,1,1858.4000000003725,313396.2000000002,7156,VNB,B,3
4,test,3,1.0,1-Back,1,m,Fri May 23 2025 18:22:25 GMT-0500 (Central Daylight Time),317104.5,004_o_m_d_a.png,O,m,827,5,1,1840.2999999998137,315264.2000000002,7156,VNB,B,4
5,test,3,0.0,1-Back,1,m,Fri May 23 2025 18:22:25 GMT-0500 (Central Daylight Time),319220.9000000004,020_y_f_h_a.png,O,m,1088,6,1,2108.7000000001863,317112.2000000002,7156,VNB,B,5
6,test,3,0.0,1-Back,1,z,Fri May 23 2025 18:22:25 GMT-0500 (Central Daylight Time),320770.2000000002,016_y_m_h_a.png,O,z,518,7,1,1542.5999999996275,319227.60000000056,7156,VNB,B,6
7,test,3,0.0,1-Back,1,m,Fri May 23 2025 18:22:25 GMT-0500 (Central Daylight Time),322471.0,011_m_f_n_a.png,O,m,683,8,1,1692.5999999996275,320778.4000000004,7156,VNB,B,7
7,test,3,0.0,1-Back,0,m,Fri May 23 2025 18:22:25 GMT-0500 (Central Daylight Time),324318.2999999998,020_y_f_d_a.png,O,z,828,9,1,1838.7999999998137,322479.5,7156,VNB,B,8
8,test,3,1.0,1-Back,1,m,Fri May 23 2025 18:22:25 GMT-0500 (Central Daylight Time),326352.10000000056,004_o_m_n_a.png,O,m,1012,10,1,2026.800000000745,324325.2999999998,7156,VNB,B,9
9,test,3,0.0,1-Back,1,m,Fri May 23 2025 18:22:25 GMT-0500 (Central Daylight Time),328435.2999999998,007_m_m_h_a.png,O,m,1067,11,1,2076.199999999255,326359.10000000056,7156,VNB,B,10
10,test,3,0.0,1-Back,1,z,Fri May 23 2025 18:22:25 GMT-0500 (Central Daylight Time),329966.2999999998,011_m_f_h_a.png,O,z,503,12,1,1525.8999999994412,328440.4000000004,7156,VNB,B,11
11,test,3,1.0,1-Back,1,m,Fri May 23 2025 18:22:25 GMT-0500 (Central Daylight Time),331682.60000000056,005_o_f_d_a.png,O,m,691,13,1,1708.2000000001863,329974.4000000004,7156,VNB,B,12
12,test,3,0.0,1-Back,1,z,Fri May 23 2025 18:22:25 GMT-0500 (Central Daylight Time),333915.7000000002,007_m_m_d_a.png,O,z,1206,14,1,2224.0999999996275,331691.60000000056,7156,VNB,B,13
13,test,3,0.0,1-Back,1,m,Fri May 23 2025 18:22:25 GMT-0500 (Central Daylight Time),335682.0,016_y_m_n_a.png,O,m,735,15,1,1760.2000000001863,333921.7999999998,7156,VNB,B,14
13,test,3,1.0,1-Back,0,m,Fri May 23 2025 18:22:25 GMT-0500 (Central Daylight Time),337516.0,004_o_m_h_a.png,O,z,817,16,1,1827.2000000001863,335688.7999999998,7156,VNB,B,15
14,test,3,0.0,1-Back,1,m,Fri May 23 2025 18:22:25 GMT-0500 (Central Daylight Time),339713.7999999998,016_y_m_d_a.png,O,m,1174,17,1,2189.899999999441,337523.9000000004,7156,VNB,B,16
15,test,3,1.0,1-Back,1,m,Fri May 23 2025 18:22:25 GMT-0500 (Central Daylight Time),341531.0,020_y_f_n_a.png,O,m,785,18,1,1809.7999999998137,339721.2000000002,7156,VNB,B,17
0,test,4,1.0,1-Back,,,Fri May 23 2025 18:22:25 GMT-0500 (Central Daylight Time),341531.0,007_m_m_d_a.png,O,space,1023,1,1,1809.7999999998137,339721.2000000002,7156,VNB,B,0
1,test,4,0.0,1-Back,1,z,Fri May 23 2025 18:22:25 GMT-0500 (Central Daylight Time),347110.4000000004,004_o_m_d_a.png,O,z,1502,2,1,2522.100000000559,344588.2999999998,7156,VNB,B,1
2,test,4,0.0,1-Back,1,m,Fri May 23 2025 18:22:25 GMT-0500 (Central Daylight Time),349010.7999999998,016_y_m_h_a.png,O,m,874,3,1,1893.199999999255,347117.60000000056,7156,VNB,B,2
3,test,4,0.0,1-Back,1,m,Fri May 23 2025 18:22:25 GMT-0500 (Central Daylight Time),350828.2000000002,011_m_f_n_a.png,O,m,799,4,1,1809.4000000003725,349018.7999999998,7156,VNB,B,3
4,test,4,1.0,1-Back,1,m,Fri May 23 2025 18:22:25 GMT-0500 (Central Daylight Time),352776.7000000002,005_o_f_h_a.png,O,m,917,5,1,1939.2000000001863,350837.5,7156,VNB,B,4
5,test,4,0.0,1-Back,1,m,Fri May 23 2025 18:22:25 GMT-0500 (Central Daylight Time),354725.7999999998,007_m_m_n_a.png,O,m,922,6,1,1941.5999999996275,352784.2000000002,7156,VNB,B,5
6,test,4,0.0,1-Back,1,m,Fri May 23 2025 18:22:25 GMT-0500 (Central Daylight Time),356807.7000000002,016_y_m_d_a.png,O,m,1062,7,1,2075.5,354732.2000000002,7156,VNB,B,6
7,test,4,1.0,1-Back,1,z,Fri May 23 2025 18:22:25 GMT-0500 (Central Daylight Time),358708.0,020_y_f_d_a.png,O,z,873,8,1,1895.0,356813.0,7156,VNB,B,7
8,test,4,0.0,1-Back,1,m,Fri May 23 2025 18:22:25 GMT-0500 (Central Daylight Time),360707.5,011_m_f_h_a.png,O,m,973,9,1,1992.7999999998137,358714.7000000002,7156,VNB,B,8
9,test,4,0.0,1-Back,1,z,Fri May 23 2025 18:22:25 GMT-0500 (Central Daylight Time),362324.5,004_o_m_h_a.png,O,z,591,10,1,1609.3999999994412,360715.10000000056,7156,VNB,B,9
10,test,4,1.0,1-Back,1,m,Fri May 23 2025 18:22:25 GMT-0500 (Central Daylight Time),364122.60000000056,005_o_f_n_a.png,O,m,774,11,1,1789.7000000001863,362332.9000000004,7156,VNB,B,10
11,test,4,0.0,1-Back,1,m,Fri May 23 2025 18:22:25 GMT-0500 (Central Daylight Time),366121.10000000056,011_m_f_d_a.png,O,m,968,12,1,1990.0,364131.10000000056,7156,VNB,B,11
12,test,4,0.0,1-Back,1,m,Fri May 23 2025 18:22:25 GMT-0500 (Central Daylight Time),368103.7000000002,020_y_f_n_a.png,O,m,958,13,1,1975.2000000001863,366128.5,7156,VNB,B,12
13,test,4,0.0,1-Back,1,m,Fri May 23 2025 18:22:25 GMT-0500 (Central Daylight Time),370471.5,005_o_f_d_a.png,O,m,1345,14,1,2365.2000000001863,368106.2999999998,7156,VNB,B,13
14,test,4,0.0,1-Back,1,m,Fri May 23 2025 18:22:25 GMT-0500 (Central Daylight Time),372587.2000000002,020_y_f_h_a.png,O,m,1100,15,1,2108.2000000001863,370479.0,7156,VNB,B,14
15,test,4,1.0,1-Back,1,z,Fri May 23 2025 18:22:25 GMT-0500 (Central Daylight Time),374484.7999999998,007_m_m_h_a.png,O,z,867,16,1,1887.8999999994412,372596.9000000004,7156,VNB,B,15
16,test,4,0.0,1-Back,1,m,Fri May 23 2025 18:22:25 GMT-0500 (Central Daylight Time),376168.5,004_o_m_n_a.png,O,m,660,17,1,1675.2999999998137,374493.2000000002,7156,VNB,B,16
17,test,4,1.0,1-Back,1,z,Fri May 23 2025 18:22:25 GMT-0500 (Central Daylight Time),378201.2999999998,016_y_m_n_a.png,O,z,1008,18,1,2025.5,376175.7999999998,7156,VNB,B,17
0,test,5,1.0,1-Back,,,Fri May 23 2025 18:22:25 GMT-0500 (Central Daylight Time),378201.2999999998,004_o_m_n_a.png,O,space,1344,1,1,2025.5,376175.7999999998,7156,VNB,B,0
1,test,5,1.0,1-Back,1,m,Fri May 23 2025 18:22:25 GMT-0500 (Central Daylight Time),383466.7999999998,005_o_f_h_a.png,O,m,867,2,1,1890.0999999996275,381576.7000000002,7156,VNB,B,1
2,test,5,0.0,1-Back,1,m,Fri May 23 2025 18:22:25 GMT-0500 (Central Daylight Time),385698.60000000056,016_y_m_d_a.png,O,m,1206,3,1,2223.5,383475.10000000056,7156,VNB,B,2
3,test,5,0.0,1-Back,1,z,Fri May 23 2025 18:22:25 GMT-0500 (Central Daylight Time),387499.60000000056,004_o_m_d_a.png,O,z,782,4,1,1794.800000000745,385704.7999999998,7156,VNB,B,3
4,test,5,0.0,1-Back,1,m,Fri May 23 2025 18:22:25 GMT-0500 (Central Daylight Time),389299.7000000002,011_m_f_h_a.png,O,m,768,5,1,1793.5999999996275,387506.10000000056,7156,VNB,B,4
5,test,5,0.0,1-Back,1,m,Fri May 23 2025 18:22:25 GMT-0500 (Central Daylight Time),391263.4000000004,020_y_f_n_a.png,O,m,944,6,1,1957.7000000001863,389305.7000000002,7156,VNB,B,5
6,test,5,1.0,1-Back,1,z,Fri May 23 2025 18:22:25 GMT-0500 (Central Daylight Time),393146.2000000002,005_o_f_n_a.png,O,z,857,7,1,1877.5,391268.7000000002,7156,VNB,B,6
7,test,5,0.0,1-Back,1,m,Fri May 23 2025 18:22:25 GMT-0500 (Central Daylight Time),394980.5,011_m_f_d_a.png,O,m,816,8,1,1827.7999999998137,393152.7000000002,7156,VNB,B,7
8,test,5,0.0,1-Back,1,m,Fri May 23 2025 18:22:25 GMT-0500 (Central Daylight Time),396895.60000000056,016_y_m_h_a.png,O,m,894,9,1,1908.2000000001863,394987.4000000004,7156,VNB,B,8
8,test,5,0.0,1-Back,0,m,Fri May 23 2025 18:22:25 GMT-0500 (Central Daylight Time),398694.10000000056,020_y_f_d_a.png,O,z,770,10,1,1791.2000000001863,396902.9000000004,7156,VNB,B,9
9,test,5,0.0,1-Back,1,m,Fri May 23 2025 18:22:25 GMT-0500 (Central Daylight Time),400693.5,007_m_m_n_a.png,O,m,980,11,1,1992.0,398701.5,7156,VNB,B,10
10,test,5,1.0,1-Back,1,z,Fri May 23 2025 18:22:25 GMT-0500 (Central Daylight Time),403043.2999999998,011_m_f_n_a.png,O,z,1324,12,1,2343.199999999255,400700.10000000056,7156,VNB,B,11
11,test,5,0.0,1-Back,1,m,Fri May 23 2025 18:22:25 GMT-0500 (Central Daylight Time),404845.2999999998,004_o_m_h_a.png,O,m,775,13,1,1793.8999999994412,403051.4000000004,7156,VNB,B,12
12,test,5,0.0,1-Back,1,z,Fri May 23 2025 18:22:25 GMT-0500 (Central Daylight Time),406792.9000000004,007_m_m_h_a.png,O,z,917,14,1,1940.4000000003725,404852.5,7156,VNB,B,13
13,test,5,1.0,1-Back,1,m,Fri May 23 2025 18:22:25 GMT-0500 (Central Daylight Time),408492.60000000056,005_o_f_d_a.png,O,m,672,15,1,1693.2000000001863,406799.4000000004,7156,VNB,B,14
14,test,5,0.0,1-Back,1,m,Fri May 23 2025 18:22:25 GMT-0500 (Central Daylight Time),410357.7000000002,016_y_m_n_a.png,O,m,848,16,1,1858.2999999998137,408499.4000000004,7156,VNB,B,15
15,test,5,0.0,1-Back,1,m,Fri May 23 2025 18:22:25 GMT-0500 (Central Daylight Time),412107.4000000004,020_y_f_h_a.png,O,m,728,17,1,1742.7999999998137,410364.60000000056,7156,VNB,B,16
16,test,5,0.0,1-Back,1,m,Fri May 23 2025 18:22:25 GMT-0500 (Central Daylight Time),413825.7999999998,007_m_m_d_a.png,O,m,686,18,1,1712.2999999998137,412113.5,7156,VNB,B,17
0,prac,1,0.0,2-Back,,,Fri May 23 2025 18:22:25 GMT-0500 (Central Daylight Time),413825.7999999998,011_m_f_n_a.png,O,space,11727,1,1,1712.2999999998137,412113.5,7156,VNB,B,0
0,prac,1,0.0,2-Back,,,Fri May 23 2025 18:22:25 GMT-0500 (Central Daylight Time),413825.7999999998,005_o_f_h_a.png,O,space,11727,2,1,1712.2999999998137,412113.5,7156,VNB,B,0
1,prac,1,0.0,2-Back,1,m,Fri May 23 2025 18:22:25 GMT-0500 (Central Daylight Time),533918.2999999998,004_o_m_d_a.png,O,m,1615,3,1,2471.899999999441,531446.4000000004,7156,VNB,B,1
2,prac,1,1.0,2-Back,1,z,Fri May 23 2025 18:22:25 GMT-0500 (Central Daylight Time),536052.1000000006,007_m_m_h_a.png,O,z,1246,4,1,2124.2000000001863,533927.9000000004,7156,VNB,B,2
3,prac,1,0.0,2-Back,1,m,Fri May 23 2025 18:22:25 GMT-0500 (Central Daylight Time),537917.7000000002,020_y_f_n_a.png,O,m,996,5,1,1857.0999999996275,536060.6000000006,7156,VNB,B,3
4,prac,1,1.0,2-Back,1,z,Fri May 23 2025 18:22:25 GMT-0500 (Central Daylight Time),540050.4000000004,004_o_m_h_a.png,O,z,1254,6,1,2124.0,537926.4000000004,7156,VNB,B,4
5,prac,1,1.0,2-Back,1,z,Fri May 23 2025 18:22:25 GMT-0500 (Central Daylight Time),542401.9000000004,016_y_m_n_a.png,O,z,1453,7,1,2341.4000000003725,540060.5,7156,VNB,B,5
6,prac,1,0.0,2-Back,1,m,Fri May 23 2025 18:22:25 GMT-0500 (Central Daylight Time),544466.7000000002,011_m_f_d_a.png,O,m,1177,8,1,2056.2999999998137,542410.4000000004,7156,VNB,B,6
7,prac,1,0.0,2-Back,1,m,Fri May 23 2025 18:22:25 GMT-0500 (Central Daylight Time),546466.2000000002,005_o_f_d_a.png,O,m,1109,9,1,1990.5,544475.7000000002,7156,VNB,B,7
7,prac,1,0.0,2-Back,0,m,Fri May 23 2025 18:22:25 GMT-0500 (Central Daylight Time),548163.2000000002,007_m_m_h_a.png,O,z,915,10,1,1690.2999999998137,546472.9000000004,7156,VNB,B,8
7,prac,1,1.0,2-Back,0,z,Fri May 23 2025 18:22:25 GMT-0500 (Central Daylight Time),550447.6000000006,020_y_f_d_a.png,O,m,1405,11,1,2279.5,548168.1000000006,7156,VNB,B,9
8,prac,1,0.0,2-Back,1,m,Fri May 23 2025 18:22:25 GMT-0500 (Central Daylight Time),552527.7999999998,004_o_m_n_a.png,O,m,1222,12,1,2071.2999999998137,550456.5,7156,VNB,B,10
0,test,1,0.0,2-Back,,,Fri May 23 2025 18:22:25 GMT-0500 (Central Daylight Time),552527.7999999998,016_y_m_h_a.png,O,space,14364,1,1,2071.2999999998137,550456.5,7156,VNB,B,0
0,test,1,0.0,2-Back,,,Fri May 23 2025 18:22:25 GMT-0500 (Central Daylight Time),552527.7999999998,005_o_f_n_a.png,O,space,14364,2,1,2071.2999999998137,550456.5,7156,VNB,B,0
1,test,1,0.0,2-Back,1,z,Fri May 23 2025 18:22:25 GMT-0500 (Central Daylight Time),579637.4000000004,004_o_m_h_a.png,O,z,1271,3,1,2291.2999999998137,577346.1000000006,7156,VNB,B,1
2,test,1,0.0,2-Back,1,m,Fri May 23 2025 18:22:25 GMT-0500 (Central Daylight Time),581654.6000000006,011_m_f_d_a.png,O,m,999,4,1,2011.300000000745,579643.2999999998,7156,VNB,B,2
3,test,1,1.0,2-Back,1,m,Fri May 23 2025 18:22:25 GMT-0500 (Central Daylight Time),583619.2000000002,016_y_m_n_a.png,O,m,942,5,1,1955.5999999996275,581663.6000000006,7156,VNB,B,3
3,test,1,0.0,2-Back,0,z,Fri May 23 2025 18:22:25 GMT-0500 (Central Daylight Time),585669.2000000002,020_y_f_d_a.png,O,m,1031,6,1,2042.5999999996275,583626.6000000006,7156,VNB,B,4
4,test,1,0.0,2-Back,1,m,Fri May 23 2025 18:22:25 GMT-0500 (Central Daylight Time),587685.5,007_m_m_h_a.png,O,m,989,7,1,2007.7999999998137,585677.7000000002,7156,VNB,B,5
4,test,1,1.0,2-Back,0,m,Fri May 23 2025 18:22:25 GMT-0500 (Central Daylight Time),589667.6000000006,020_y_f_n_a.png,O,z,957,8,1,1974.7000000001863,587692.9000000004,7156,VNB,B,6
5,test,1,0.0,2-Back,1,z,Fri May 23 2025 18:22:25 GMT-0500 (Central Daylight Time),591734.5,005_o_f_h_a.png,O,z,1041,9,1,2060.399999999441,589674.1000000006,7156,VNB,B,7
6,test,1,0.0,2-Back,1,m,Fri May 23 2025 18:22:25 GMT-0500 (Central Daylight Time),593633.4000000004,004_o_m_d_a.png,O,m,876,10,1,1892.0,591741.4000000004,7156,VNB,B,8
7,test,1,1.0,2-Back,1,m,Fri May 23 2025 18:22:25 GMT-0500 (Central Daylight Time),595716.2999999998,007_m_m_d_a.png,O,m,1049,11,1,2076.5,593639.7999999998,7156,VNB,B,9
7,test,1,0.0,2-Back,0,m,Fri May 23 2025 18:22:25 GMT-0500 (Central Daylight Time),598015.2999999998,011_m_f_n_a.png,O,z,1269,12,1,2292.0,595723.2999999998,7156,VNB,B,10
7,test,1,0.0,2-Back,0,m,Fri May 23 2025 18:22:25 GMT-0500 (Central Daylight Time),600331.2999999998,020_y_f_h_a.png,O,z,1283,13,1,2309.0999999996275,598022.2000000002,7156,VNB,B,11
7,test,1,0.0,2-Back,0,z,Fri May 23 2025 18:22:25 GMT-0500 (Central Daylight Time),602379.9000000004,007_m_m_n_a.png,O,m,1025,14,1,2041.7999999998137,600338.1000000006,7156,VNB,B,12
8,test,1,0.0,2-Back,1,m,Fri May 23 2025 18:22:25 GMT-0500 (Central Daylight Time),604546.7000000002,016_y_m_d_a.png,O,m,1135,15,1,2160.2000000001863,602386.5,7156,VNB,B,13
9,test,1,1.0,2-Back,1,m,Fri May 23 2025 18:22:25 GMT-0500 (Central Daylight Time),606512.2999999998,011_m_f_h_a.png,O,m,942,16,1,1960.3999999994412,604551.9000000004,7156,VNB,B,14
9,test,1,0.0,2-Back,0,z,Fri May 23 2025 18:22:25 GMT-0500 (Central Daylight Time),609128.1000000006,005_o_f_d_a.png,O,m,1593,17,1,2609.0,606519.1000000006,7156,VNB,B,15
10,test,1,0.0,2-Back,1,m,Fri May 23 2025 18:22:25 GMT-0500 (Central Daylight Time),611160.1000000006,004_o_m_n_a.png,O,m,1009,18,1,2023.7000000001863,609136.4000000004,7156,VNB,B,16
0,test,2,0.0,2-Back,,,Fri May 23 2025 18:22:25 GMT-0500 (Central Daylight Time),611160.1000000006,007_m_m_h_a.png,O,space,2386,1,1,2023.7000000001863,609136.4000000004,7156,VNB,B,0
0,test,2,0.0,2-Back,,,Fri May 23 2025 18:22:25 GMT-0500 (Central Daylight Time),611160.1000000006,020_y_f_n_a.png,O,space,2386,2,1,2023.7000000001863,609136.4000000004,7156,VNB,B,0
1,test,2,1.0,2-Back,1,z,Fri May 23 2025 18:22:25 GMT-0500 (Central Daylight Time),620845.0,005_o_f_h_a.png,O,z,1019,3,1,2044.5,618800.5,7156,VNB,B,1
2,test,2,0.0,2-Back,1,m,Fri May 23 2025 18:22:25 GMT-0500 (Central Daylight Time),623023.5,004_o_m_d_a.png,O,m,1161,4,1,2171.399999999441,620852.1000000006,7156,VNB,B,2
3,test,2,0.0,2-Back,1,m,Fri May 23 2025 18:22:25 GMT-0500 (Central Daylight Time),625857.1000000006,011_m_f_d_a.png,O,m,1810,5,1,2828.2000000001863,623028.9000000004,7156,VNB,B,3
3,test,2,0.0,2-Back,0,m,Fri May 23 2025 18:22:25 GMT-0500 (Central Daylight Time),627872.0,016_y_m_h_a.png,O,z,993,6,1,2012.3999999994412,625859.6000000006,7156,VNB,B,4
4,test,2,0.0,2-Back,1,m,Fri May 23 2025 18:22:25 GMT-0500 (Central Daylight Time),630174.9000000004,005_o_f_n_a.png,O,m,1285,7,1,2296.9000000003725,627878.0,7156,VNB,B,5
5,test,2,1.0,2-Back,1,z,Fri May 23 2025 18:22:25 GMT-0500 (Central Daylight Time),632238.7000000002,004_o_m_h_a.png,O,z,1039,8,1,2054.9000000003725,630183.7999999998,7156,VNB,B,6
6,test,2,0.0,2-Back,1,m,Fri May 23 2025 18:22:25 GMT-0500 (Central Daylight Time),634503.7999999998,020_y_f_d_a.png,O,m,1237,9,1,2257.2999999998137,632246.5,7156,VNB,B,7
7,test,2,0.0,2-Back,1,m,Fri May 23 2025 18:22:25 GMT-0500 (Central Daylight Time),636670.0,016_y_m_d_a.png,O,m,1136,10,1,2158.0,634512.0,7156,VNB,B,8
8,test,2,0.0,2-Back,1,m,Fri May 23 2025 18:22:25 GMT-0500 (Central Daylight Time),638836.1000000006,007_m_m_n_a.png,O,m,1151,11,1,2162.9000000003725,636673.2000000002,7156,VNB,B,9
8,test,2,0.0,2-Back,0,m,Fri May 23 2025 18:22:25 GMT-0500 (Central Daylight Time),640668.1000000006,011_m_f_h_a.png,O,z,815,12,1,1826.300000000745,638841.7999999998,7156,VNB,B,10
9,test,2,1.0,2-Back,1,z,Fri May 23 2025 18:22:25 GMT-0500 (Central Daylight Time),642701.2000000002,004_o_m_n_a.png,O,z,1002,13,1,2026.2999999998137,640674.9000000004,7156,VNB,B,11
10,test,2,0.0,2-Back,1,m,Fri May 23 2025 18:22:25 GMT-0500 (Central Daylight Time),644766.9000000004,005_o_f_d_a.png,O,m,1037,14,1,2058.100000000559,642708.7999999998,7156,VNB,B,12
11,test,2,0.0,2-Back,1,m,Fri May 23 2025 18:22:25 GMT-0500 (Central Daylight Time),647067.7000000002,020_y_f_h_a.png,O,m,1267,15,1,2293.2999999998137,644774.4000000004,7156,VNB,B,13
12,test,2,0.0,2-Back,1,z,Fri May 23 2025 18:22:25 GMT-0500 (Central Daylight Time),649331.1000000006,007_m_m_d_a.png,O,z,1241,16,1,2256.2000000001863,647074.9000000004,7156,VNB,B,14
13,test,2,0.0,2-Back,1,m,Fri May 23 2025 18:22:25 GMT-0500 (Central Daylight Time),651315.0,016_y_m_n_a.png,O,m,950,17,1,1976.8999999994412,649338.1000000006,7156,VNB,B,15
14,test,2,1.0,2-Back,1,m,Fri May 23 2025 18:22:25 GMT-0500 (Central Daylight Time),653714.4000000004,011_m_f_n_a.png,O,m,1366,18,1,2392.2000000001863,651322.2000000002,7156,VNB,B,16
0,test,3,1.0,2-Back,,,Fri May 23 2025 18:22:25 GMT-0500 (Central Daylight Time),653714.4000000004,004_o_m_n_a.png,O,space,4640,1,1,2392.2000000001863,651322.2000000002,7156,VNB,B,0
0,test,3,1.0,2-Back,,,Fri May 23 2025 18:22:25 GMT-0500 (Central Daylight Time),653714.4000000004,005_o_f_d_a.png,O,space,4640,2,1,2392.2000000001863,651322.2000000002,7156,VNB,B,0
1,test,3,0.0,2-Back,1,m,Fri May 23 2025 18:22:25 GMT-0500 (Central Daylight Time),665559.9000000004,020_y_f_h_a.png,O,m,1119,3,1,2139.7000000001863,663420.2000000002,7156,VNB,B,1
2,test,3,0.0,2-Back,1,z,Fri May 23 2025 18:22:25 GMT-0500 (Central Daylight Time),667775.6000000006,011_m_f_d_a.png,O,z,1196,4,1,2207.5,665568.1000000006,7156,VNB,B,2
2,test,3,1.0,2-Back,0,m,Fri May 23 2025 18:22:25 GMT-0500 (Central Daylight Time),670541.4000000004,016_y_m_n_a.png,O,z,1746,5,1,2759.2999999998137,667782.1000000006,7156,VNB,B,3
2,test,3,0.0,2-Back,0,m,Fri May 23 2025 18:22:25 GMT-0500 (Central Daylight Time),672725.7000000002,004_o_m_h_a.png,O,z,1156,6,1,2175.7999999998137,670549.9000000004,7156,VNB,B,4
2,test,3,0.0,2-Back,0,z,Fri May 23 2025 18:22:25 GMT-0500 (Central Daylight Time),674607.2999999998,020_y_f_n_a.png,O,m,854,7,1,1874.2999999998137,672733.0,7156,VNB,B,5
3,test,3,1.0,2-Back,1,m,Fri May 23 2025 18:22:25 GMT-0500 (Central Daylight Time),676706.4000000004,007_m_m_d_a.png,O,m,1075,8,1,2091.0,674615.4000000004,7156,VNB,B,6
4,test,3,0.0,2-Back,1,m,Fri May 23 2025 18:22:25 GMT-0500 (Central Daylight Time),678655.5,016_y_m_d_a.png,O,m,928,9,1,1943.0999999996275,676712.4000000004,7156,VNB,B,7
5,test,3,0.0,2-Back,1,m,Fri May 23 2025 18:22:25 GMT-0500 (Central Daylight Time),680589.2000000002,005_o_f_h_a.png,O,m,900,10,1,1927.2999999998137,678661.9000000004,7156,VNB,B,8
6,test,3,1.0,2-Back,1,m,Fri May 23 2025 18:22:25 GMT-0500 (Central Daylight Time),682789.5,011_m_f_n_a.png,O,m,1184,11,1,2192.7999999998137,680596.7000000002,7156,VNB,B,9
7,test,3,1.0,2-Back,1,z,Fri May 23 2025 18:22:25 GMT-0500 (Central Daylight Time),684772.5,007_m_m_h_a.png,O,z,951,12,1,1977.3999999994412,682795.1000000006,7156,VNB,B,10
8,test,3,0.0,2-Back,1,m,Fri May 23 2025 18:22:25 GMT-0500 (Central Daylight Time),686852.9000000004,020_y_f_d_a.png,O,m,1055,13,1,2073.2999999998137,684779.6000000006,7156,VNB,B,11
8,test,3,0.0,2-Back,0,m,Fri May 23 2025 18:22:25 GMT-0500 (Central Daylight Time),689003.7000000002,005_o_f_n_a.png,O,z,1118,14,1,2143.2999999998137,686860.4000000004,7156,VNB,B,12
8,test,3,0.0,2-Back,0,z,Fri May 23 2025 18:22:25 GMT-0500 (Central Daylight Time),691201.9000000004,004_o_m_d_a.png,O,m,1168,15,1,2190.4000000003725,689011.5,7156,VNB,B,13
8,test,3,1.0,2-Back,0,m,Fri May 23 2025 18:22:25 GMT-0500 (Central Daylight Time),693199.9000000004,011_m_f_h_a.png,O,z,968,16,1,1990.7999999998137,691209.1000000006,7156,VNB,B,14
9,test,3,0.0,2-Back,1,m,Fri May 23 2025 18:22:25 GMT-0500 (Central Daylight Time),695468.7999999998,007_m_m_n_a.png,O,m,1251,17,1,2266.199999999255,693202.6000000006,7156,VNB,B,15
10,test,3,0.0,2-Back,1,z,Fri May 23 2025 18:22:25 GMT-0500 (Central Daylight Time),697416.7000000002,016_y_m_h_a.png,O,z,928,18,1,1937.5999999996275,695479.1000000006,7156,VNB,B,16
0,test,4,0.0,2-Back,,,Fri May 23 2025 18:22:25 GMT-0500 (Central Daylight Time),697416.7000000002,011_m_f_n_a.png,O,space,1105,1,1,1937.5999999996275,695479.1000000006,7156,VNB,B,0
0,test,4,0.0,2-Back,,,Fri May 23 2025 18:22:25 GMT-0500 (Central Daylight Time),697416.7000000002,004_o_m_n_a.png,O,space,1105,2,1,1937.5999999996275,695479.1000000006,7156,VNB,B,0
1,test,4,1.0,2-Back,1,m,Fri May 23 2025 18:22:25 GMT-0500 (Central Daylight Time),705562.6000000006,016_y_m_h_a.png,O,m,782,3,1,1789.4000000003725,703773.2000000002,7156,VNB,B,1
2,test,4,1.0,2-Back,1,m,Fri May 23 2025 18:22:25 GMT-0500 (Central Daylight Time),707796.1000000006,005_o_f_d_a.png,O,m,1217,4,1,2230.9000000003725,705565.2000000002,7156,VNB,B,2
3,test,4,0.0,2-Back,1,z,Fri May 23 2025 18:22:25 GMT-0500 (Central Daylight Time),709679.6000000006,004_o_m_h_a.png,O,z,852,5,1,1878.300000000745,707801.2999999998,7156,VNB,B,3
4,test,4,0.0,2-Back,1,m,Fri May 23 2025 18:22:25 GMT-0500 (Central Daylight Time),711478.4000000004,007_m_m_n_a.png,O,m,783,6,1,1790.0,709688.4000000004,7156,VNB,B,4
5,test,4,0.0,2-Back,1,m,Fri May 23 2025 18:22:25 GMT-0500 (Central Daylight Time),713527.9000000004,011_m_f_d_a.png,O,m,1027,7,1,2043.4000000003725,711484.5,7156,VNB,B,5
5,test,4,0.0,2-Back,0,z,Fri May 23 2025 18:22:25 GMT-0500 (Central Daylight Time),715560.4000000004,020_y_f_n_a.png,O,m,1011,8,1,2026.2999999998137,713534.1000000006,7156,VNB,B,6
5,test,4,1.0,2-Back,0,m,Fri May 23 2025 18:22:25 GMT-0500 (Central Daylight Time),717444.5,005_o_f_h_a.png,O,z,851,9,1,1878.2999999998137,715566.2000000002,7156,VNB,B,7
6,test,4,0.0,2-Back,1,m,Fri May 23 2025 18:22:25 GMT-0500 (Central Daylight Time),719377.7999999998,007_m_m_h_a.png,O,m,911,10,1,1926.8999999994412,717450.9000000004,7156,VNB,B,8
7,test,4,0.0,2-Back,1,m,Fri May 23 2025 18:22:25 GMT-0500 (Central Daylight Time),721343.2000000002,020_y_f_d_a.png,O,m,933,11,1,1958.4000000003725,719384.7999999998,7156,VNB,B,9
8,test,4,0.0,2-Back,1,m,Fri May 23 2025 18:22:25 GMT-0500 (Central Daylight Time),723142.5,016_y_m_n_a.png,O,m,773,12,1,1791.8999999994412,721350.6000000006,7156,VNB,B,10
9,test,4,0.0,2-Back,1,z,Fri May 23 2025 18:22:25 GMT-0500 (Central Daylight Time),725091.9000000004,004_o_m_d_a.png,O,z,931,13,1,1941.5,723150.4000000004,7156,VNB,B,11
10,test,4,1.0,2-Back,1,m,Fri May 23 2025 18:22:25 GMT-0500 (Central Daylight Time),727108.4000000004,011_m_f_h_a.png,O,m,1000,14,1,2010.7000000001863,725097.7000000002,7156,VNB,B,12
11,test,4,1.0,2-Back,1,m,Fri May 23 2025 18:22:25 GMT-0500 (Central Daylight Time),729371.7000000002,020_y_f_h_a.png,O,m,1239,15,1,2254.9000000003725,727116.7999999998,7156,VNB,B,13
12,test,4,0.0,2-Back,1,m,Fri May 23 2025 18:22:25 GMT-0500 (Central Daylight Time),731255.9000000004,005_o_f_n_a.png,O,m,863,16,1,1881.4000000003725,729374.5,7156,VNB,B,14
12,test,4,0.0,2-Back,0,m,Fri May 23 2025 18:22:25 GMT-0500 (Central Daylight Time),733221.0,016_y_m_d_a.png,O,z,933,17,1,1957.3999999994412,731263.6000000006,7156,VNB,B,15
13,test,4,1.0,2-Back,1,m,Fri May 23 2025 18:22:25 GMT-0500 (Central Daylight Time),735671.6000000006,007_m_m_d_a.png,O,m,1432,18,1,2443.600000000559,733228.0,7156,VNB,B,16
0,test,5,1.0,2-Back,,,Fri May 23 2025 18:22:25 GMT-0500 (Central Daylight Time),735671.6000000006,020_y_f_d_a.png,O,space,1058,1,1,2443.600000000559,733228.0,7156,VNB,B,0
0,test,5,1.0,2-Back,,,Fri May 23 2025 18:22:25 GMT-0500 (Central Daylight Time),735671.6000000006,005_o_f_h_a.png,O,space,1058,2,1,2443.600000000559,733228.0,7156,VNB,B,0
1,test,5,1.0,2-Back,1,z,Fri May 23 2025 18:22:25 GMT-0500 (Central Daylight Time),743935.7000000002,004_o_m_d_a.png,O,z,937,3,1,1960.0,741975.7000000002,7156,VNB,B,1
1,test,5,1.0,2-Back,0,m,Fri May 23 2025 18:22:25 GMT-0500 (Central Daylight Time),746168.0,011_m_f_n_a.png,O,z,1210,4,1,2225.399999999441,743942.6000000006,7156,VNB,B,2
2,test,5,0.0,2-Back,1,m,Fri May 23 2025 18:22:25 GMT-0500 (Central Daylight Time),748085.1000000006,007_m_m_h_a.png,O,m,899,5,1,1909.9000000003725,746175.2000000002,7156,VNB,B,3
2,test,5,0.0,2-Back,0,z,Fri May 23 2025 18:22:25 GMT-0500 (Central Daylight Time),750467.5,020_y_f_n_a.png,O,m,1351,6,1,2375.5999999996275,748091.9000000004,7156,VNB,B,4
3,test,5,0.0,2-Back,1,m,Fri May 23 2025 18:22:25 GMT-0500 (Central Daylight Time),752599.2000000002,005_o_f_d_a.png,O,m,1105,7,1,2122.4000000003725,750476.7999999998,7156,VNB,B,5
4,test,5,0.0,2-Back,1,m,Fri May 23 2025 18:22:25 GMT-0500 (Central Daylight Time),754532.2999999998,004_o_m_h_a.png,O,m,900,8,1,1926.7999999998137,752605.5,7156,VNB,B,6
5,test,5,1.0,2-Back,1,z,Fri May 23 2025 18:22:25 GMT-0500 (Central Daylight Time),756398.1000000006,011_m_f_d_a.png,O,z,837,9,1,1857.4000000003725,754540.7000000002,7156,VNB,B,7
6,test,5,0.0,2-Back,1,m,Fri May 23 2025 18:22:25 GMT-0500 (Central Daylight Time),758298.6000000006,016_y_m_n_a.png,O,m,884,10,1,1893.2000000001863,756405.4000000004,7156,VNB,B,8
6,test,5,0.0,2-Back,0,m,Fri May 23 2025 18:22:25 GMT-0500 (Central Daylight Time),760463.5,007_m_m_n_a.png,O,z,1145,11,1,2157.5,758306.0,7156,VNB,B,9
7,test,5,0.0,2-Back,1,m,Fri May 23 2025 18:22:25 GMT-0500 (Central Daylight Time),762797.2000000002,020_y_f_h_a.png,O,m,1317,12,1,2327.2000000001863,760470.0,7156,VNB,B,10
8,test,5,0.0,2-Back,1,m,Fri May 23 2025 18:22:25 GMT-0500 (Central Daylight Time),765229.2000000002,016_y_m_d_a.png,O,m,1410,13,1,2424.0999999996275,762805.1000000006,7156,VNB,B,11
9,test,5,1.0,2-Back,1,z,Fri May 23 2025 18:22:25 GMT-0500 (Central Daylight Time),767211.2999999998,011_m_f_h_a.png,O,z,958,14,1,1975.5999999996275,765235.7000000002,7156,VNB,B,12
9,test,5,0.0,2-Back,0,m,Fri May 23 2025 18:22:25 GMT-0500 (Central Daylight Time),769261.0,004_o_m_n_a.png,O,z,1022,15,1,2041.2999999998137,767219.7000000002,7156,VNB,B,13
10,test,5,0.0,2-Back,1,m,Fri May 23 2025 18:22:25 GMT-0500 (Central Daylight Time),771558.7999999998,007_m_m_d_a.png,O,m,1278,16,1,2292.2999999998137,769266.5,7156,VNB,B,14
11,test,5,0.0,2-Back,1,z,Fri May 23 2025 18:22:25 GMT-0500 (Central Daylight Time),773825.6000000006,005_o_f_n_a.png,O,z,1235,17,1,2260.2000000001863,771565.4000000004,7156,VNB,B,15
12,test,5,1.0,2-Back,1,m,Fri May 23 2025 18:22:25 GMT-0500 (Central Daylight Time),775875.4000000004,016_y_m_h_a.png,O,m,1025,18,1,2041.5,773833.9000000004,7156,VNB,B,16
