block_c,block_dur,condition,countdown,datetime,endtime,list,multichar_response,project,response,response_time,session_number,start_end,starttime,subject_id,task,task_vers,trial
,,,,Mon Jun 09 2025 10:40:51 GMT-0500 (Central Daylight Time),,,,O,space,532,1,,,7161,WL,C,
prac,,0,,Mon Jun 09 2025 10:40:51 GMT-0500 (Central Daylight Time),,NA,b,O,b,2181,1,,,7161,WL,C,1.0
prac,,0,,Mon Jun 09 2025 10:40:51 GMT-0500 (Central Daylight Time),,NA,bo,O,o,224,1,,,7161,WL,C,1.0
prac,,0,,Mon Jun 09 2025 10:40:51 GMT-0500 (Central Daylight Time),,NA,boo,O,o,128,1,,,7161,WL,C,1.0
prac,,0,,Mon Jun 09 2025 10:40:51 GMT-0500 (Central Daylight Time),,NA,boos,O,s,187,1,,,7161,WL,C,1.0
prac,,0,,Mon Jun 09 2025 10:40:51 GMT-0500 (Central Daylight Time),,NA,boost,O,t,227,1,,,7161,WL,C,1.0
prac,,0,,Mon Jun 09 2025 10:40:51 GMT-0500 (Central Daylight Time),,NA,boostenter,O,enter,1689,1,,,7161,WL,C,1.0
1,3.7990000247955322,learn,56200.99997520447,Mon Jun 09 2025 10:40:51 GMT-0500 (Central Daylight Time),166326.30000001192,A,t,O,t,3781,1,3798.599999964237,162527.70000004768,7161,WL,C,1.0
1,3.9660000801086426,learn,56033.99991989136,Mon Jun 09 2025 10:40:51 GMT-0500 (Central Daylight Time),166493.0,A,to,O,o,149,1,3965.2999999523163,162527.70000004768,7161,WL,C,1.0
1,4.366000175476074,learn,55633.999824523926,Mon Jun 09 2025 10:40:51 GMT-0500 (Central Daylight Time),166892.80000001192,A,tow,O,w,383,1,4365.099999964237,162527.70000004768,7161,WL,C,1.0
1,4.616000175476074,learn,55383.999824523926,Mon Jun 09 2025 10:40:51 GMT-0500 (Central Daylight Time),167142.60000002384,A,towe,O,e,240,1,4614.899999976158,162527.70000004768,7161,WL,C,1.0
1,4.716000080108643,learn,55283.99991989136,Mon Jun 09 2025 10:40:51 GMT-0500 (Central Daylight Time),167242.60000002384,A,tower,O,r,86,1,4714.899999976158,162527.70000004768,7161,WL,C,1.0
1,5.632000207901001,learn,54367.999792099,Mon Jun 09 2025 10:40:51 GMT-0500 (Central Daylight Time),168159.0,A,towerenter,O,enter,898,1,5631.299999952316,162527.70000004768,7161,WL,C,1.0
1,6.1650002002716064,learn,53834.99979972839,Mon Jun 09 2025 10:40:51 GMT-0500 (Central Daylight Time),168692.10000002384,A,w,O,w,525,1,532.5,168159.60000002384,7161,WL,C,2.0
1,6.315000057220459,learn,53684.99994277954,Mon Jun 09 2025 10:40:51 GMT-0500 (Central Daylight Time),168842.30000001192,A,wh,O,h,128,1,682.6999999880791,168159.60000002384,7161,WL,C,2.0
1,6.448000192642212,learn,53551.99980735779,Mon Jun 09 2025 10:40:51 GMT-0500 (Central Daylight Time),168975.30000001192,A,whe,O,e,114,1,815.6999999880791,168159.60000002384,7161,WL,C,2.0
1,6.6650002002716064,learn,53334.99979972839,Mon Jun 09 2025 10:40:51 GMT-0500 (Central Daylight Time),169191.90000003576,A,whea,O,a,197,1,1032.300000011921,168159.60000002384,7161,WL,C,2.0
1,6.832000017166138,learn,53167.99998283386,Mon Jun 09 2025 10:40:51 GMT-0500 (Central Daylight Time),169358.70000004768,A,wheat,O,t,148,1,1199.1000000238419,168159.60000002384,7161,WL,C,2.0
1,8.331000089645386,learn,51668.999910354614,Mon Jun 09 2025 10:40:51 GMT-0500 (Central Daylight Time),170858.10000002384,A,wheatenter,O,enter,1478,1,2698.5,168159.60000002384,7161,WL,C,2.0
1,11.19700002670288,learn,48802.99997329712,Mon Jun 09 2025 10:40:51 GMT-0500 (Central Daylight Time),173724.0,A,q,O,q,2859,1,2865.2999999523163,170858.70000004768,7161,WL,C,3.0
1,11.397000074386597,learn,48602.9999256134,Mon Jun 09 2025 10:40:51 GMT-0500 (Central Daylight Time),173923.70000004768,A,qu,O,u,185,1,3065.0,170858.70000004768,7161,WL,C,3.0
1,11.597000122070312,learn,48402.99987792969,Mon Jun 09 2025 10:40:51 GMT-0500 (Central Daylight Time),174123.70000004768,A,que,O,e,193,1,3265.0,170858.70000004768,7161,WL,C,3.0
1,12.44700002670288,learn,47552.99997329712,Mon Jun 09 2025 10:40:51 GMT-0500 (Central Daylight Time),174973.60000002384,A,quee,O,e,833,1,4114.899999976158,170858.70000004768,7161,WL,C,3.0
1,12.61300015449524,learn,47386.99984550476,Mon Jun 09 2025 10:40:51 GMT-0500 (Central Daylight Time),175140.30000001192,A,queen,O,n,151,1,4281.599999964237,170858.70000004768,7161,WL,C,3.0
1,14.862000226974487,learn,45137.99977302551,Mon Jun 09 2025 10:40:51 GMT-0500 (Central Daylight Time),177389.30000001192,A,queenenter,O,enter,2233,1,6530.599999964237,170858.70000004768,7161,WL,C,3.0
1,16.278000116348267,learn,43721.99988365173,Mon Jun 09 2025 10:40:51 GMT-0500 (Central Daylight Time),178805.5,A,d,O,d,1399,1,1416.0,177389.5,7161,WL,C,4.0
1,16.378000020980835,learn,43621.999979019165,Mon Jun 09 2025 10:40:51 GMT-0500 (Central Daylight Time),178905.60000002384,A,do,O,o,87,1,1516.1000000238419,177389.5,7161,WL,C,4.0
1,16.528000116348267,learn,43471.99988365173,Mon Jun 09 2025 10:40:51 GMT-0500 (Central Daylight Time),179055.70000004768,A,doc,O,c,131,1,1666.2000000476837,177389.5,7161,WL,C,4.0
1,16.861000061035156,learn,43138.999938964844,Mon Jun 09 2025 10:40:51 GMT-0500 (Central Daylight Time),179388.80000001192,A,doct,O,t,317,1,1999.300000011921,177389.5,7161,WL,C,4.0
1,16.945000171661377,learn,43054.99982833862,Mon Jun 09 2025 10:40:51 GMT-0500 (Central Daylight Time),179472.10000002384,A,docto,O,o,64,1,2082.600000023842,177389.5,7161,WL,C,4.0
1,17.07800006866455,learn,42921.99993133545,Mon Jun 09 2025 10:40:51 GMT-0500 (Central Daylight Time),179605.30000001192,A,doctor,O,r,125,1,2215.800000011921,177389.5,7161,WL,C,4.0
1,17.561000108718872,learn,42438.99989128113,Mon Jun 09 2025 10:40:51 GMT-0500 (Central Daylight Time),180088.60000002384,A,doctorenter,O,enter,464,1,2699.100000023842,177389.5,7161,WL,C,4.0
1,18.294000148773193,learn,41705.99985122681,Mon Jun 09 2025 10:40:51 GMT-0500 (Central Daylight Time),180821.80000001192,A,b,O,b,716,1,732.8000000119209,180089.0,7161,WL,C,5.0
1,18.544000148773193,learn,41455.99985122681,Mon Jun 09 2025 10:40:51 GMT-0500 (Central Daylight Time),181071.60000002384,A,bo,O,o,239,1,982.6000000238419,180089.0,7161,WL,C,5.0
1,19.027000188827515,learn,40972.999811172485,Mon Jun 09 2025 10:40:51 GMT-0500 (Central Daylight Time),181554.80000001192,A,boy,O,y,470,1,1465.800000011921,180089.0,7161,WL,C,5.0
1,19.91000008583069,learn,40089.99991416931,Mon Jun 09 2025 10:40:51 GMT-0500 (Central Daylight Time),182437.80000001192,A,boyc,O,c,874,1,2348.800000011921,180089.0,7161,WL,C,5.0
1,20.027000188827515,learn,39972.999811172485,Mon Jun 09 2025 10:40:51 GMT-0500 (Central Daylight Time),182554.40000003576,A,boyco,O,o,111,1,2465.400000035763,180089.0,7161,WL,C,5.0
1,20.210000038146973,learn,39789.99996185303,Mon Jun 09 2025 10:40:51 GMT-0500 (Central Daylight Time),182737.70000004768,A,boycor,O,r,171,1,2648.7000000476837,180089.0,7161,WL,C,5.0
1,20.66000008583069,learn,39339.99991416931,Mon Jun 09 2025 10:40:51 GMT-0500 (Central Daylight Time),183187.60000002384,A,boycorn,O,n,435,1,3098.600000023842,180089.0,7161,WL,C,5.0
1,22.360000133514404,learn,37639.999866485596,Mon Jun 09 2025 10:40:51 GMT-0500 (Central Daylight Time),184887.20000004768,A,boycornenter,O,enter,1689,1,4798.200000047684,180089.0,7161,WL,C,5.0
1,22.79300022125244,learn,37206.99977874756,Mon Jun 09 2025 10:40:51 GMT-0500 (Central Daylight Time),185320.5,A,l,O,l,422,1,432.89999997615814,184887.60000002384,7161,WL,C,6.0
1,22.97699999809265,learn,37023.00000190735,Mon Jun 09 2025 10:40:51 GMT-0500 (Central Daylight Time),185504.60000002384,A,le,O,e,163,1,617.0,184887.60000002384,7161,WL,C,6.0
1,23.20900011062622,learn,36790.99988937378,Mon Jun 09 2025 10:40:51 GMT-0500 (Central Daylight Time),185736.70000004768,A,let,O,t,220,1,849.1000000238419,184887.60000002384,7161,WL,C,6.0
1,23.359000205993652,learn,36640.99979400635,Mon Jun 09 2025 10:40:51 GMT-0500 (Central Daylight Time),185886.80000001192,A,lett,O,t,132,1,999.1999999880791,184887.60000002384,7161,WL,C,6.0
1,23.526000022888184,learn,36473.99997711182,Mon Jun 09 2025 10:40:51 GMT-0500 (Central Daylight Time),186053.40000003576,A,lette,O,e,151,1,1165.800000011921,184887.60000002384,7161,WL,C,6.0
1,23.64300012588501,learn,36356.99987411499,Mon Jun 09 2025 10:40:51 GMT-0500 (Central Daylight Time),186170.10000002384,A,letter,O,r,112,1,1282.5,184887.60000002384,7161,WL,C,6.0
1,24.759000062942505,learn,35240.999937057495,Mon Jun 09 2025 10:40:51 GMT-0500 (Central Daylight Time),187286.40000003576,A,letterenter,O,enter,1099,1,2398.800000011921,184887.60000002384,7161,WL,C,6.0
1,26.675000190734863,learn,33324.99980926514,Mon Jun 09 2025 10:40:51 GMT-0500 (Central Daylight Time),189202.30000001192,A,s,O,s,1895,1,1915.3999999761581,187286.90000003576,7161,WL,C,7.0
1,26.77500009536743,learn,33224.99990463257,Mon Jun 09 2025 10:40:51 GMT-0500 (Central Daylight Time),189302.30000001192,A,sh,O,h,91,1,2015.3999999761581,187286.90000003576,7161,WL,C,7.0
1,26.907999992370605,learn,33092.000007629395,Mon Jun 09 2025 10:40:51 GMT-0500 (Central Daylight Time),189435.60000002384,A,sho,O,o,127,1,2148.699999988079,187286.90000003576,7161,WL,C,7.0
1,27.075000047683716,learn,32924.999952316284,Mon Jun 09 2025 10:40:51 GMT-0500 (Central Daylight Time),189602.60000002384,A,shor,O,r,153,1,2315.699999988079,187286.90000003576,7161,WL,C,7.0
1,27.19100022315979,learn,32808.99977684021,Mon Jun 09 2025 10:40:51 GMT-0500 (Central Daylight Time),189718.80000001192,A,shore,O,e,99,1,2431.899999976158,187286.90000003576,7161,WL,C,7.0
1,27.508000135421753,learn,32491.999864578247,Mon Jun 09 2025 10:40:51 GMT-0500 (Central Daylight Time),190035.30000001192,A,shoreenter,O,enter,302,1,2748.399999976158,187286.90000003576,7161,WL,C,7.0
1,28.04100012779236,learn,31958.99987220764,Mon Jun 09 2025 10:40:51 GMT-0500 (Central Daylight Time),190568.70000004768,A,c,O,c,514,1,532.9000000357628,190035.80000001192,7161,WL,C,8.0
1,28.19100022315979,learn,31808.99977684021,Mon Jun 09 2025 10:40:51 GMT-0500 (Central Daylight Time),190718.60000002384,A,ca,O,a,140,1,682.8000000119209,190035.80000001192,7161,WL,C,8.0
1,29.074000120162964,learn,30925.999879837036,Mon Jun 09 2025 10:40:51 GMT-0500 (Central Daylight Time),191601.70000004768,A,cam,O,m,863,1,1565.9000000357628,190035.80000001192,7161,WL,C,8.0
1,29.424000024795532,learn,30575.999975204468,Mon Jun 09 2025 10:40:51 GMT-0500 (Central Daylight Time),191951.40000003576,A,camp,O,p,339,1,1915.6000000238419,190035.80000001192,7161,WL,C,8.0
1,30.424000024795532,learn,29575.999975204468,Mon Jun 09 2025 10:40:51 GMT-0500 (Central Daylight Time),192951.10000002384,A,campenter,O,enter,982,1,2915.300000011921,190035.80000001192,7161,WL,C,8.0
1,30.907000064849854,learn,29092.999935150146,Mon Jun 09 2025 10:40:51 GMT-0500 (Central Daylight Time),193434.30000001192,A,h,O,h,470,1,482.80000001192093,192951.5,7161,WL,C,9.0
1,31.09000015258789,learn,28909.99984741211,Mon Jun 09 2025 10:40:51 GMT-0500 (Central Daylight Time),193617.70000004768,A,ho,O,o,163,1,666.2000000476837,192951.5,7161,WL,C,9.0
1,31.290000200271606,learn,28709.999799728394,Mon Jun 09 2025 10:40:51 GMT-0500 (Central Daylight Time),193817.80000001192,A,hom,O,m,180,1,866.3000000119209,192951.5,7161,WL,C,9.0
1,31.60700011253357,learn,28392.99988746643,Mon Jun 09 2025 10:40:51 GMT-0500 (Central Daylight Time),194134.10000002384,A,home,O,e,308,1,1182.6000000238419,192951.5,7161,WL,C,9.0
1,34.0220000743866,learn,25977.999925613403,Mon Jun 09 2025 10:40:51 GMT-0500 (Central Daylight Time),196550.0,A,homeenter,O,enter,2407,1,3598.5,192951.5,7161,WL,C,9.0
1,57.71500015258789,learn,2284.9998474121094,Mon Jun 09 2025 10:40:51 GMT-0500 (Central Daylight Time),220242.80000001192,A,h,O,h,23672,1,23692.599999964237,196550.20000004768,7161,WL,C,10.0
1,57.83200001716614,learn,2167.9999828338623,Mon Jun 09 2025 10:40:51 GMT-0500 (Central Daylight Time),220359.10000002384,A,ho,O,o,106,1,23808.899999976158,196550.20000004768,7161,WL,C,10.0
1,57.91600012779236,learn,2083.9998722076416,Mon Jun 09 2025 10:40:51 GMT-0500 (Central Daylight Time),220443.30000001192,A,hom,O,m,78,1,23893.099999964237,196550.20000004768,7161,WL,C,10.0
1,58.39800000190735,learn,1601.9999980926514,Mon Jun 09 2025 10:40:51 GMT-0500 (Central Daylight Time),220925.90000003576,A,home,O,e,465,1,24375.69999998808,196550.20000004768,7161,WL,C,10.0
1,59.081000089645386,learn,918.9999103546143,Mon Jun 09 2025 10:40:51 GMT-0500 (Central Daylight Time),221608.90000003576,A,homeenter,O,enter,663,1,25058.69999998808,196550.20000004768,7161,WL,C,10.0
1,60.015000104904175,learn,-15.000104904174805,Mon Jun 09 2025 10:40:51 GMT-0500 (Central Daylight Time),222542.10000002384,A,None,O,None,928,1,932.6000000238419,221609.5,7161,WL,C,11.0
2,1.1659998893737793,learn,58834.00011062622,Mon Jun 09 2025 10:40:51 GMT-0500 (Central Daylight Time),291803.2000000477,A,t,O,t,1161,1,1165.800000011921,290637.40000003576,7161,WL,C,1.0
2,1.4159998893737793,learn,58584.00011062622,Mon Jun 09 2025 10:40:51 GMT-0500 (Central Daylight Time),292053.5,A,to,O,o,242,1,1416.0999999642372,290637.40000003576,7161,WL,C,1.0
2,1.8329999446868896,learn,58167.00005531311,Mon Jun 09 2025 10:40:51 GMT-0500 (Central Daylight Time),292470.10000002384,A,tow,O,w,400,1,1832.699999988079,290637.40000003576,7161,WL,C,1.0
2,2.065999984741211,learn,57934.00001525879,Mon Jun 09 2025 10:40:51 GMT-0500 (Central Daylight Time),292703.10000002384,A,towe,O,e,215,1,2065.699999988079,290637.40000003576,7161,WL,C,1.0
2,2.182999849319458,learn,57817.00015068054,Mon Jun 09 2025 10:40:51 GMT-0500 (Central Daylight Time),292819.90000003576,A,tower,O,r,110,1,2182.5,290637.40000003576,7161,WL,C,1.0
2,3.115999937057495,learn,56884.000062942505,Mon Jun 09 2025 10:40:51 GMT-0500 (Central Daylight Time),293753.0,A,towerenter,O,enter,922,1,3115.599999964237,290637.40000003576,7161,WL,C,1.0
2,3.9489998817443848,learn,56051.000118255615,Mon Jun 09 2025 10:40:51 GMT-0500 (Central Daylight Time),294586.10000002384,A,w,O,w,812,1,832.6999999880791,293753.40000003576,7161,WL,C,2.0
2,4.281999826431274,learn,55718.000173568726,Mon Jun 09 2025 10:40:51 GMT-0500 (Central Daylight Time),294919.3000000119,A,wh,O,h,323,1,1165.8999999761581,293753.40000003576,7161,WL,C,2.0
2,4.48199987411499,learn,55518.00012588501,Mon Jun 09 2025 10:40:51 GMT-0500 (Central Daylight Time),295119.2000000477,A,whe,O,e,182,1,1365.800000011921,293753.40000003576,7161,WL,C,2.0
2,4.781999826431274,learn,55218.000173568726,Mon Jun 09 2025 10:40:51 GMT-0500 (Central Daylight Time),295419.2000000477,A,whea,O,a,286,1,1665.800000011921,293753.40000003576,7161,WL,C,2.0
2,5.048999786376953,learn,54951.00021362305,Mon Jun 09 2025 10:40:51 GMT-0500 (Central Daylight Time),295685.7000000477,A,wheat,O,t,258,1,1932.300000011921,293753.40000003576,7161,WL,C,2.0
2,6.664999961853027,learn,53335.00003814697,Mon Jun 09 2025 10:40:51 GMT-0500 (Central Daylight Time),297302.10000002384,A,wheatenter,O,enter,1600,1,3548.699999988079,293753.40000003576,7161,WL,C,2.0
2,7.380999803543091,learn,52619.00019645691,Mon Jun 09 2025 10:40:51 GMT-0500 (Central Daylight Time),298018.2000000477,A,q,O,q,703,1,715.6000000238419,297302.60000002384,7161,WL,C,3.0
2,7.5309998989105225,learn,52469.00010108948,Mon Jun 09 2025 10:40:51 GMT-0500 (Central Daylight Time),298168.2000000477,A,qu,O,u,131,1,865.6000000238419,297302.60000002384,7161,WL,C,3.0
2,7.746999979019165,learn,52253.000020980835,Mon Jun 09 2025 10:40:51 GMT-0500 (Central Daylight Time),298385.0,A,que,O,e,205,1,1082.3999999761581,297302.60000002384,7161,WL,C,3.0
2,7.930999994277954,learn,52069.000005722046,Mon Jun 09 2025 10:40:51 GMT-0500 (Central Daylight Time),298568.2000000477,A,quee,O,e,164,1,1265.6000000238419,297302.60000002384,7161,WL,C,3.0
2,8.246999979019165,learn,51753.000020980835,Mon Jun 09 2025 10:40:51 GMT-0500 (Central Daylight Time),298884.8000000119,A,queen,O,n,309,1,1582.199999988079,297302.60000002384,7161,WL,C,3.0
2,9.11299991607666,learn,50887.00008392334,Mon Jun 09 2025 10:40:51 GMT-0500 (Central Daylight Time),299751.10000002384,A,queenenter,O,enter,857,1,2448.5,297302.60000002384,7161,WL,C,3.0
2,9.629999876022339,learn,50370.00012397766,Mon Jun 09 2025 10:40:51 GMT-0500 (Central Daylight Time),300267.60000002384,A,l,O,l,502,1,516.1000000238419,299751.5,7161,WL,C,4.0
2,10.27999997138977,learn,49720.00002861023,Mon Jun 09 2025 10:40:51 GMT-0500 (Central Daylight Time),300917.40000003576,A,le,O,e,642,1,1165.9000000357628,299751.5,7161,WL,C,4.0
2,10.52999997138977,learn,49470.00002861023,Mon Jun 09 2025 10:40:51 GMT-0500 (Central Daylight Time),301167.10000002384,A,let,O,t,231,1,1415.6000000238419,299751.5,7161,WL,C,4.0
2,10.679999828338623,learn,49320.00017166138,Mon Jun 09 2025 10:40:51 GMT-0500 (Central Daylight Time),301317.40000003576,A,lett,O,t,134,1,1565.9000000357628,299751.5,7161,WL,C,4.0
2,10.86299991607666,learn,49137.00008392334,Mon Jun 09 2025 10:40:51 GMT-0500 (Central Daylight Time),301500.5,A,lette,O,e,176,1,1749.0,299751.5,7161,WL,C,4.0
2,10.980000019073486,learn,49019.999980926514,Mon Jun 09 2025 10:40:51 GMT-0500 (Central Daylight Time),301617.10000002384,A,letter,O,r,97,1,1865.6000000238419,299751.5,7161,WL,C,4.0
2,11.895999908447266,learn,48104.000091552734,Mon Jun 09 2025 10:40:51 GMT-0500 (Central Daylight Time),302533.5,A,letterenter,O,enter,908,1,2782.0,299751.5,7161,WL,C,4.0
2,12.212999820709229,learn,47787.00017929077,Mon Jun 09 2025 10:40:51 GMT-0500 (Central Daylight Time),302850.2000000477,A,b,O,b,296,1,316.4000000357628,302533.8000000119,7161,WL,C,5.0
2,12.495999813079834,learn,47504.000186920166,Mon Jun 09 2025 10:40:51 GMT-0500 (Central Daylight Time),303133.2000000477,A,bo,O,o,267,1,599.4000000357628,302533.8000000119,7161,WL,C,5.0
2,12.828999996185303,learn,47171.0000038147,Mon Jun 09 2025 10:40:51 GMT-0500 (Central Daylight Time),303466.5,A,boy,O,y,328,1,932.6999999880791,302533.8000000119,7161,WL,C,5.0
2,13.26199984550476,learn,46738.00015449524,Mon Jun 09 2025 10:40:51 GMT-0500 (Central Daylight Time),303899.8000000119,A,boyenter,O,enter,427,1,1366.0,302533.8000000119,7161,WL,C,5.0
2,13.76199984550476,learn,46238.00015449524,Mon Jun 09 2025 10:40:51 GMT-0500 (Central Daylight Time),304399.60000002384,A,d,O,d,489,1,499.60000002384186,303900.0,7161,WL,C,6.0
2,13.894999980926514,learn,46105.000019073486,Mon Jun 09 2025 10:40:51 GMT-0500 (Central Daylight Time),304533.0,A,do,O,o,118,1,633.0,303900.0,7161,WL,C,6.0
2,14.02899980545044,learn,45971.00019454956,Mon Jun 09 2025 10:40:51 GMT-0500 (Central Daylight Time),304666.2000000477,A,doc,O,c,120,1,766.2000000476837,303900.0,7161,WL,C,6.0
2,14.311999797821045,learn,45688.000202178955,Mon Jun 09 2025 10:40:51 GMT-0500 (Central Daylight Time),304949.60000002384,A,doct,O,t,275,1,1049.6000000238419,303900.0,7161,WL,C,6.0
2,14.428999900817871,learn,45571.00009918213,Mon Jun 09 2025 10:40:51 GMT-0500 (Central Daylight Time),305066.2000000477,A,docto,O,o,104,1,1166.2000000476837,303900.0,7161,WL,C,6.0
2,14.628000020980835,learn,45371.999979019165,Mon Jun 09 2025 10:40:51 GMT-0500 (Central Daylight Time),305266.0,A,doctor,O,r,179,1,1366.0,303900.0,7161,WL,C,6.0
2,15.260999917984009,learn,44739.00008201599,Mon Jun 09 2025 10:40:51 GMT-0500 (Central Daylight Time),305898.90000003576,A,doctorenter,O,enter,627,1,1998.9000000357628,303900.0,7161,WL,C,6.0
2,15.860999822616577,learn,44139.00017738342,Mon Jun 09 2025 10:40:51 GMT-0500 (Central Daylight Time),306499.0,A,h,O,h,587,1,599.8999999761581,305899.10000002384,7161,WL,C,7.0
2,16.161999940872192,learn,43838.00005912781,Mon Jun 09 2025 10:40:51 GMT-0500 (Central Daylight Time),306799.40000003576,A,ho,O,o,290,1,900.3000000119209,305899.10000002384,7161,WL,C,7.0
2,16.244999885559082,learn,43755.00011444092,Mon Jun 09 2025 10:40:51 GMT-0500 (Central Daylight Time),306882.2000000477,A,hom,O,m,69,1,983.1000000238419,305899.10000002384,7161,WL,C,7.0
2,16.460999965667725,learn,43539.000034332275,Mon Jun 09 2025 10:40:51 GMT-0500 (Central Daylight Time),307098.60000002384,A,home,O,e,211,1,1199.5,305899.10000002384,7161,WL,C,7.0
2,17.17799997329712,learn,42822.00002670288,Mon Jun 09 2025 10:40:51 GMT-0500 (Central Daylight Time),307815.40000003576,A,homeenter,O,enter,707,1,1916.300000011921,305899.10000002384,7161,WL,C,7.0
2,17.543999910354614,learn,42456.000089645386,Mon Jun 09 2025 10:40:51 GMT-0500 (Central Daylight Time),308181.8000000119,A,c,O,c,350,1,366.0,307815.8000000119,7161,WL,C,8.0
2,17.710999965667725,learn,42289.000034332275,Mon Jun 09 2025 10:40:51 GMT-0500 (Central Daylight Time),308348.3000000119,A,ca,O,a,151,1,532.5,307815.8000000119,7161,WL,C,8.0
2,17.944000005722046,learn,42055.999994277954,Mon Jun 09 2025 10:40:51 GMT-0500 (Central Daylight Time),308581.60000002384,A,cat,O,t,217,1,765.8000000119209,307815.8000000119,7161,WL,C,8.0
2,18.060999870300293,learn,41939.00012969971,Mon Jun 09 2025 10:40:51 GMT-0500 (Central Daylight Time),308698.40000003576,A,catt,O,t,97,1,882.6000000238419,307815.8000000119,7161,WL,C,8.0
2,18.643999814987183,learn,41356.00018501282,Mon Jun 09 2025 10:40:51 GMT-0500 (Central Daylight Time),309281.60000002384,A,cattl,O,l,563,1,1465.800000011921,307815.8000000119,7161,WL,C,8.0
2,18.810999870300293,learn,41189.00012969971,Mon Jun 09 2025 10:40:51 GMT-0500 (Central Daylight Time),309448.2000000477,A,cattle,O,e,147,1,1632.4000000357628,307815.8000000119,7161,WL,C,8.0
2,19.24399995803833,learn,40756.00004196167,Mon Jun 09 2025 10:40:51 GMT-0500 (Central Daylight Time),309881.3000000119,A,cattleenter,O,enter,413,1,2065.5,307815.8000000119,7161,WL,C,8.0
2,19.72699999809265,learn,40273.00000190735,Mon Jun 09 2025 10:40:51 GMT-0500 (Central Daylight Time),310364.5,A,c,O,c,468,1,482.89999997615814,309881.60000002384,7161,WL,C,9.0
2,19.90999984741211,learn,40090.00015258789,Mon Jun 09 2025 10:40:51 GMT-0500 (Central Daylight Time),310547.8000000119,A,ca,O,a,169,1,666.1999999880791,309881.60000002384,7161,WL,C,9.0
2,20.176999807357788,learn,39823.00019264221,Mon Jun 09 2025 10:40:51 GMT-0500 (Central Daylight Time),310814.3000000119,A,cam,O,m,258,1,932.6999999880791,309881.60000002384,7161,WL,C,9.0
2,20.575999975204468,learn,39424.00002479553,Mon Jun 09 2025 10:40:51 GMT-0500 (Central Daylight Time),311214.10000002384,A,camp,O,p,383,1,1332.5,309881.60000002384,7161,WL,C,9.0
2,21.275999784469604,learn,38724.000215530396,Mon Jun 09 2025 10:40:51 GMT-0500 (Central Daylight Time),311913.90000003576,A,campenter,O,enter,679,1,2032.300000011921,309881.60000002384,7161,WL,C,9.0
2,21.675999879837036,learn,38324.000120162964,Mon Jun 09 2025 10:40:51 GMT-0500 (Central Daylight Time),312314.0,A,b,O,b,396,1,399.69999998807907,311914.3000000119,7161,WL,C,10.0
2,21.858999967575073,learn,38141.00003242493,Mon Jun 09 2025 10:40:51 GMT-0500 (Central Daylight Time),312497.0,A,bo,O,o,171,1,582.6999999880791,311914.3000000119,7161,WL,C,10.0
2,22.47599983215332,learn,37524.00016784668,Mon Jun 09 2025 10:40:51 GMT-0500 (Central Daylight Time),313113.8000000119,A,bod,O,d,596,1,1199.5,311914.3000000119,7161,WL,C,10.0
2,22.608999967575073,learn,37391.00003242493,Mon Jun 09 2025 10:40:51 GMT-0500 (Central Daylight Time),313246.8000000119,A,body,O,y,115,1,1332.5,311914.3000000119,7161,WL,C,10.0
2,23.191999912261963,learn,36808.00008773804,Mon Jun 09 2025 10:40:51 GMT-0500 (Central Daylight Time),313830.10000002384,A,bodyenter,O,enter,574,1,1915.800000011921,311914.3000000119,7161,WL,C,10.0
2,23.80900001525879,learn,36190.99998474121,Mon Jun 09 2025 10:40:51 GMT-0500 (Central Daylight Time),314446.5,A,s,O,s,600,1,616.0999999642372,313830.40000003576,7161,WL,C,11.0
2,23.925999879837036,learn,36074.000120162964,Mon Jun 09 2025 10:40:51 GMT-0500 (Central Daylight Time),314563.10000002384,A,su,O,u,103,1,732.6999999880791,313830.40000003576,7161,WL,C,11.0
2,24.324999809265137,learn,35675.00019073486,Mon Jun 09 2025 10:40:51 GMT-0500 (Central Daylight Time),314962.8000000119,A,sug,O,g,394,1,1132.3999999761581,313830.40000003576,7161,WL,C,11.0
2,24.574999809265137,learn,35425.00019073486,Mon Jun 09 2025 10:40:51 GMT-0500 (Central Daylight Time),315212.90000003576,A,suga,O,a,235,1,1382.5,313830.40000003576,7161,WL,C,11.0
2,24.875,learn,35125.0,Mon Jun 09 2025 10:40:51 GMT-0500 (Central Daylight Time),315512.40000003576,A,sugar,O,r,280,1,1682.0,313830.40000003576,7161,WL,C,11.0
2,26.607999801635742,learn,33392.00019836426,Mon Jun 09 2025 10:40:51 GMT-0500 (Central Daylight Time),317245.5,A,sugarenter,O,enter,1725,1,3415.099999964237,313830.40000003576,7161,WL,C,11.0
2,28.94099998474121,learn,31059.00001525879,Mon Jun 09 2025 10:40:51 GMT-0500 (Central Daylight Time),319578.10000002384,A,c,O,c,2320,1,2332.300000011921,317245.8000000119,7161,WL,C,12.0
2,29.090999841690063,learn,30909.000158309937,Mon Jun 09 2025 10:40:51 GMT-0500 (Central Daylight Time),319728.40000003576,A,co,O,o,139,1,2482.600000023842,317245.8000000119,7161,WL,C,12.0
2,29.37399983406067,learn,30626.00016593933,Mon Jun 09 2025 10:40:51 GMT-0500 (Central Daylight Time),320011.3000000119,A,cor,O,r,269,1,2765.5,317245.8000000119,7161,WL,C,12.0
2,29.590999841690063,learn,30409.000158309937,Mon Jun 09 2025 10:40:51 GMT-0500 (Central Daylight Time),320228.10000002384,A,corn,O,n,210,1,2982.300000011921,317245.8000000119,7161,WL,C,12.0
2,31.77300000190735,learn,28226.99999809265,Mon Jun 09 2025 10:40:51 GMT-0500 (Central Daylight Time),322410.60000002384,A,cornenter,O,enter,2169,1,5164.800000011921,317245.8000000119,7161,WL,C,12.0
2,33.93899989128113,learn,26061.000108718872,Mon Jun 09 2025 10:40:51 GMT-0500 (Central Daylight Time),324576.60000002384,A,h,O,h,2147,1,2165.600000023842,322411.0,7161,WL,C,13.0
2,34.038999795913696,learn,25961.000204086304,Mon Jun 09 2025 10:40:51 GMT-0500 (Central Daylight Time),324676.5,A,ho,O,o,85,1,2265.5,322411.0,7161,WL,C,13.0
2,34.40599989891052,learn,25594.000101089478,Mon Jun 09 2025 10:40:51 GMT-0500 (Central Daylight Time),325043.10000002384,A,hom,O,m,353,1,2632.100000023842,322411.0,7161,WL,C,13.0
2,34.638999938964844,learn,25361.000061035156,Mon Jun 09 2025 10:40:51 GMT-0500 (Central Daylight Time),325276.5,A,home,O,e,218,1,2865.5,322411.0,7161,WL,C,13.0
2,35.055999994277954,learn,24944.000005722046,Mon Jun 09 2025 10:40:51 GMT-0500 (Central Daylight Time),325693.2000000477,A,homeenter,O,enter,409,1,3282.2000000476837,322411.0,7161,WL,C,13.0
2,40.38699984550476,learn,19613.00015449524,Mon Jun 09 2025 10:40:51 GMT-0500 (Central Daylight Time),331024.60000002384,A,n,O,n,5312,1,5331.100000023842,325693.5,7161,WL,C,14.0
2,40.753000020980835,learn,19246.999979019165,Mon Jun 09 2025 10:40:51 GMT-0500 (Central Daylight Time),331391.0,A,na,O,a,348,1,5697.5,325693.5,7161,WL,C,14.0
2,41.00399994850159,learn,18996.000051498413,Mon Jun 09 2025 10:40:51 GMT-0500 (Central Daylight Time),331641.10000002384,A,nai,O,i,238,1,5947.600000023842,325693.5,7161,WL,C,14.0
2,41.11999988555908,learn,18880.000114440918,Mon Jun 09 2025 10:40:51 GMT-0500 (Central Daylight Time),331757.7000000477,A,nail,O,l,100,1,6064.200000047684,325693.5,7161,WL,C,14.0
2,43.43599987030029,learn,16564.000129699707,Mon Jun 09 2025 10:40:51 GMT-0500 (Central Daylight Time),334073.90000003576,A,nailenter,O,enter,2303,1,8380.400000035763,325693.5,7161,WL,C,14.0
2,46.984999895095825,learn,13015.000104904175,Mon Jun 09 2025 10:40:51 GMT-0500 (Central Daylight Time),337622.60000002384,A,l,O,l,3531,1,3548.399999976158,334074.2000000477,7161,WL,C,15.0
2,47.71799993515015,learn,12282.000064849854,Mon Jun 09 2025 10:40:51 GMT-0500 (Central Daylight Time),338355.8000000119,A,le,O,e,727,1,4281.599999964237,334074.2000000477,7161,WL,C,15.0
2,48.067999839782715,learn,11932.000160217285,Mon Jun 09 2025 10:40:51 GMT-0500 (Central Daylight Time),338705.60000002384,A,let,O,t,330,1,4631.399999976158,334074.2000000477,7161,WL,C,15.0
2,48.18499994277954,learn,11815.000057220459,Mon Jun 09 2025 10:40:51 GMT-0500 (Central Daylight Time),338822.2000000477,A,lett,O,t,108,1,4748.0,334074.2000000477,7161,WL,C,15.0
2,48.300999879837036,learn,11699.000120162964,Mon Jun 09 2025 10:40:51 GMT-0500 (Central Daylight Time),338938.60000002384,A,lette,O,e,111,1,4864.399999976158,334074.2000000477,7161,WL,C,15.0
2,48.38499999046326,learn,11615.000009536743,Mon Jun 09 2025 10:40:51 GMT-0500 (Central Daylight Time),339022.2000000477,A,letter,O,r,75,1,4948.0,334074.2000000477,7161,WL,C,15.0
2,50.217000007629395,learn,9782.999992370605,Mon Jun 09 2025 10:40:51 GMT-0500 (Central Daylight Time),340855.0,A,letterenter,O,enter,1823,1,6780.799999952316,334074.2000000477,7161,WL,C,15.0
3,1.1329998970031738,learn,58867.000102996826,Mon Jun 09 2025 10:40:51 GMT-0500 (Central Daylight Time),408450.40000003576,A,t,O,t,1121,1,1132.699999988079,407317.7000000477,7161,WL,C,1.0
3,1.4000000953674316,learn,58599.99990463257,Mon Jun 09 2025 10:40:51 GMT-0500 (Central Daylight Time),408717.0,A,to,O,o,250,1,1399.2999999523163,407317.7000000477,7161,WL,C,1.0
3,1.7829999923706055,learn,58217.000007629395,Mon Jun 09 2025 10:40:51 GMT-0500 (Central Daylight Time),409100.3000000119,A,tow,O,w,369,1,1782.5999999642372,407317.7000000477,7161,WL,C,1.0
3,2.0329999923706055,learn,57967.000007629395,Mon Jun 09 2025 10:40:51 GMT-0500 (Central Daylight Time),409350.2000000477,A,towe,O,e,241,1,2032.5,407317.7000000477,7161,WL,C,1.0
3,2.132999897003174,learn,57867.000102996826,Mon Jun 09 2025 10:40:51 GMT-0500 (Central Daylight Time),409450.0,A,tower,O,r,87,1,2132.2999999523163,407317.7000000477,7161,WL,C,1.0
3,3.183000087738037,learn,56816.99991226196,Mon Jun 09 2025 10:40:51 GMT-0500 (Central Daylight Time),410499.60000002384,A,towerenter,O,enter,1035,1,3181.899999976158,407317.7000000477,7161,WL,C,1.0
3,3.7320001125335693,learn,56267.99988746643,Mon Jun 09 2025 10:40:51 GMT-0500 (Central Daylight Time),411049.5,A,w,O,w,538,1,549.5,410500.0,7161,WL,C,2.0
3,3.9660000801086426,learn,56033.99991989136,Mon Jun 09 2025 10:40:51 GMT-0500 (Central Daylight Time),411282.7000000477,A,wh,O,h,228,1,782.7000000476837,410500.0,7161,WL,C,2.0
3,4.249000072479248,learn,55750.99992752075,Mon Jun 09 2025 10:40:51 GMT-0500 (Central Daylight Time),411566.2000000477,A,whe,O,e,275,1,1066.2000000476837,410500.0,7161,WL,C,2.0
3,4.482000112533569,learn,55517.99988746643,Mon Jun 09 2025 10:40:51 GMT-0500 (Central Daylight Time),411799.40000003576,A,whea,O,a,215,1,1299.4000000357628,410500.0,7161,WL,C,2.0
3,4.699000120162964,learn,55300.999879837036,Mon Jun 09 2025 10:40:51 GMT-0500 (Central Daylight Time),412016.3000000119,A,wheat,O,t,198,1,1516.300000011921,410500.0,7161,WL,C,2.0
3,5.949000120162964,learn,54050.999879837036,Mon Jun 09 2025 10:40:51 GMT-0500 (Central Daylight Time),413265.40000003576,A,wheatenter,O,enter,1237,1,2765.400000035763,410500.0,7161,WL,C,2.0
3,6.865000009536743,learn,53134.99999046326,Mon Jun 09 2025 10:40:51 GMT-0500 (Central Daylight Time),414181.90000003576,A,q,O,q,900,1,915.9000000357628,413266.0,7161,WL,C,3.0
3,7.0320000648498535,learn,52967.99993515015,Mon Jun 09 2025 10:40:51 GMT-0500 (Central Daylight Time),414348.5,A,qu,O,u,152,1,1082.5,413266.0,7161,WL,C,3.0
3,7.515000104904175,learn,52484.999895095825,Mon Jun 09 2025 10:40:51 GMT-0500 (Central Daylight Time),414831.90000003576,A,que,O,e,465,1,1565.9000000357628,413266.0,7161,WL,C,3.0
3,7.664999961853027,learn,52335.00003814697,Mon Jun 09 2025 10:40:51 GMT-0500 (Central Daylight Time),414981.7000000477,A,quee,O,e,142,1,1715.7000000476837,413266.0,7161,WL,C,3.0
3,7.88100004196167,learn,52118.99995803833,Mon Jun 09 2025 10:40:51 GMT-0500 (Central Daylight Time),415198.10000002384,A,queen,O,n,200,1,1932.1000000238419,413266.0,7161,WL,C,3.0
3,10.030999898910522,learn,49969.00010108948,Mon Jun 09 2025 10:40:51 GMT-0500 (Central Daylight Time),417347.5,A,queenenter,O,enter,2143,1,4081.5,413266.0,7161,WL,C,3.0
3,10.46399998664856,learn,49536.00001335144,Mon Jun 09 2025 10:40:51 GMT-0500 (Central Daylight Time),417781.0,A,s,O,s,418,1,433.19999998807907,417347.8000000119,7161,WL,C,4.0
3,10.579999923706055,learn,49420.000076293945,Mon Jun 09 2025 10:40:51 GMT-0500 (Central Daylight Time),417897.3000000119,A,su,O,u,104,1,549.5,417347.8000000119,7161,WL,C,4.0
3,10.996999979019165,learn,49003.000020980835,Mon Jun 09 2025 10:40:51 GMT-0500 (Central Daylight Time),418314.2000000477,A,sug,O,g,404,1,966.4000000357628,417347.8000000119,7161,WL,C,4.0
3,11.19700002670288,learn,48802.99997329712,Mon Jun 09 2025 10:40:51 GMT-0500 (Central Daylight Time),418514.10000002384,A,suga,O,a,179,1,1166.300000011921,417347.8000000119,7161,WL,C,4.0
3,11.413000106811523,learn,48586.99989318848,Mon Jun 09 2025 10:40:51 GMT-0500 (Central Daylight Time),418730.40000003576,A,sugar,O,r,203,1,1382.6000000238419,417347.8000000119,7161,WL,C,4.0
3,12.61299991607666,learn,47387.00008392334,Mon Jun 09 2025 10:40:51 GMT-0500 (Central Daylight Time),419930.2000000477,A,sugarenter,O,enter,1179,1,2582.400000035763,417347.8000000119,7161,WL,C,4.0
3,13.078999996185303,learn,46921.0000038147,Mon Jun 09 2025 10:40:51 GMT-0500 (Central Daylight Time),420396.60000002384,A,h,O,h,451,1,466.0,419930.60000002384,7161,WL,C,5.0
3,13.513000011444092,learn,46486.99998855591,Mon Jun 09 2025 10:40:51 GMT-0500 (Central Daylight Time),420829.8000000119,A,ho,O,o,417,1,899.1999999880791,419930.60000002384,7161,WL,C,5.0
3,13.578999996185303,learn,46421.0000038147,Mon Jun 09 2025 10:40:51 GMT-0500 (Central Daylight Time),420896.7000000477,A,hom,O,m,56,1,966.1000000238419,419930.60000002384,7161,WL,C,5.0
3,13.913000106811523,learn,46086.99989318848,Mon Jun 09 2025 10:40:51 GMT-0500 (Central Daylight Time),421229.8000000119,A,home,O,e,317,1,1299.199999988079,419930.60000002384,7161,WL,C,5.0
3,15.01200008392334,learn,44987.99991607666,Mon Jun 09 2025 10:40:51 GMT-0500 (Central Daylight Time),422329.3000000119,A,homeenter,O,enter,1080,1,2398.699999988079,419930.60000002384,7161,WL,C,5.0
3,15.479000091552734,learn,44520.999908447266,Mon Jun 09 2025 10:40:51 GMT-0500 (Central Daylight Time),422795.90000003576,A,l,O,l,460,1,466.19999998807907,422329.7000000477,7161,WL,C,6.0
3,15.694999933242798,learn,44305.0000667572,Mon Jun 09 2025 10:40:51 GMT-0500 (Central Daylight Time),423012.5,A,le,O,e,209,1,682.7999999523163,422329.7000000477,7161,WL,C,6.0
3,15.994999885559082,learn,44005.00011444092,Mon Jun 09 2025 10:40:51 GMT-0500 (Central Daylight Time),423312.3000000119,A,let,O,t,289,1,982.5999999642372,422329.7000000477,7161,WL,C,6.0
3,16.144999980926514,learn,43855.000019073486,Mon Jun 09 2025 10:40:51 GMT-0500 (Central Daylight Time),423462.3000000119,A,lett,O,t,133,1,1132.5999999642372,422329.7000000477,7161,WL,C,6.0
3,16.32800006866455,learn,43671.99993133545,Mon Jun 09 2025 10:40:51 GMT-0500 (Central Daylight Time),423645.60000002384,A,lette,O,e,175,1,1315.8999999761581,422329.7000000477,7161,WL,C,6.0
3,16.42799997329712,learn,43572.00002670288,Mon Jun 09 2025 10:40:51 GMT-0500 (Central Daylight Time),423745.60000002384,A,letter,O,r,88,1,1415.8999999761581,422329.7000000477,7161,WL,C,6.0
3,20.844000101089478,learn,39155.99989891052,Mon Jun 09 2025 10:40:51 GMT-0500 (Central Daylight Time),428160.90000003576,A,letterenter,O,enter,4403,1,5831.199999988079,422329.7000000477,7161,WL,C,6.0
3,21.427000045776367,learn,38572.99995422363,Mon Jun 09 2025 10:40:51 GMT-0500 (Central Daylight Time),428744.10000002384,A,s,O,s,565,1,582.8999999761581,428161.2000000477,7161,WL,C,7.0
3,21.57699990272522,learn,38423.00009727478,Mon Jun 09 2025 10:40:51 GMT-0500 (Central Daylight Time),428894.10000002384,A,sh,O,h,141,1,732.8999999761581,428161.2000000477,7161,WL,C,7.0
3,21.89400005340576,learn,38105.99994659424,Mon Jun 09 2025 10:40:51 GMT-0500 (Central Daylight Time),429210.8000000119,A,sho,O,o,295,1,1049.5999999642372,428161.2000000477,7161,WL,C,7.0
3,22.177000045776367,learn,37822.99995422363,Mon Jun 09 2025 10:40:51 GMT-0500 (Central Daylight Time),429493.8000000119,A,shor,O,r,267,1,1332.5999999642372,428161.2000000477,7161,WL,C,7.0
3,22.292999982833862,learn,37707.00001716614,Mon Jun 09 2025 10:40:51 GMT-0500 (Central Daylight Time),429610.40000003576,A,shore,O,e,111,1,1449.199999988079,428161.2000000477,7161,WL,C,7.0
3,22.710000038146973,learn,37289.99996185303,Mon Jun 09 2025 10:40:51 GMT-0500 (Central Daylight Time),430026.8000000119,A,shoreenter,O,enter,411,1,1865.5999999642372,428161.2000000477,7161,WL,C,7.0
3,23.125999927520752,learn,36874.00007247925,Mon Jun 09 2025 10:40:51 GMT-0500 (Central Daylight Time),430443.5,A,b,O,b,403,1,416.5,430027.0,7161,WL,C,8.0
3,23.30900001525879,learn,36690.99998474121,Mon Jun 09 2025 10:40:51 GMT-0500 (Central Daylight Time),430626.60000002384,A,bo,O,o,178,1,599.6000000238419,430027.0,7161,WL,C,8.0
3,24.003999948501587,learn,35996.00005149841,Mon Jun 09 2025 10:40:51 GMT-0500 (Central Daylight Time),431321.60000002384,A,bod,O,d,690,1,1294.6000000238419,430027.0,7161,WL,C,8.0
3,24.026000022888184,learn,35973.99997711182,Mon Jun 09 2025 10:40:51 GMT-0500 (Central Daylight Time),431342.90000003576,A,body,O,y,11,1,1315.9000000357628,430027.0,7161,WL,C,8.0
3,25.108999967575073,learn,34891.00003242493,Mon Jun 09 2025 10:40:51 GMT-0500 (Central Daylight Time),432426.2000000477,A,bodyenter,O,enter,1064,1,2399.2000000476837,430027.0,7161,WL,C,8.0
3,25.39199995994568,learn,34608.00004005432,Mon Jun 09 2025 10:40:51 GMT-0500 (Central Daylight Time),432709.40000003576,A,c,O,c,267,1,282.80000001192093,432426.60000002384,7161,WL,C,9.0
3,25.592000007629395,learn,34407.999992370605,Mon Jun 09 2025 10:40:51 GMT-0500 (Central Daylight Time),432909.5,A,ca,O,a,192,1,482.89999997615814,432426.60000002384,7161,WL,C,9.0
3,26.85800004005432,learn,33141.99995994568,Mon Jun 09 2025 10:40:51 GMT-0500 (Central Daylight Time),434175.7000000477,A,cam,O,m,1256,1,1749.1000000238419,432426.60000002384,7161,WL,C,9.0
3,27.157999992370605,learn,32842.000007629395,Mon Jun 09 2025 10:40:51 GMT-0500 (Central Daylight Time),434475.7000000477,A,camp,O,p,286,1,2049.100000023842,432426.60000002384,7161,WL,C,9.0
3,27.72499990463257,learn,32275.00009536743,Mon Jun 09 2025 10:40:51 GMT-0500 (Central Daylight Time),435042.2000000477,A,campenter,O,enter,554,1,2615.600000023842,432426.60000002384,7161,WL,C,9.0
3,28.174999952316284,learn,31825.000047683716,Mon Jun 09 2025 10:40:51 GMT-0500 (Central Daylight Time),435492.0,A,b,O,b,443,1,449.5,435042.5,7161,WL,C,10.0
3,28.874000072479248,learn,31125.999927520752,Mon Jun 09 2025 10:40:51 GMT-0500 (Central Daylight Time),436191.7000000477,A,bo,O,o,689,1,1149.2000000476837,435042.5,7161,WL,C,10.0
3,29.02500009536743,learn,30974.99990463257,Mon Jun 09 2025 10:40:51 GMT-0500 (Central Daylight Time),436341.7000000477,A,boy,O,y,142,1,1299.2000000476837,435042.5,7161,WL,C,10.0
3,29.85800004005432,learn,30141.99995994568,Mon Jun 09 2025 10:40:51 GMT-0500 (Central Daylight Time),437174.7000000477,A,boyenter,O,enter,824,1,2132.2000000476837,435042.5,7161,WL,C,10.0
3,30.60700011253357,learn,29392.99988746643,Mon Jun 09 2025 10:40:51 GMT-0500 (Central Daylight Time),437924.5,A,d,O,d,743,1,749.3999999761581,437175.10000002384,7161,WL,C,11.0
3,30.740999937057495,learn,29259.000062942505,Mon Jun 09 2025 10:40:51 GMT-0500 (Central Daylight Time),438057.8000000119,A,do,O,o,121,1,882.6999999880791,437175.10000002384,7161,WL,C,11.0
3,30.891000032424927,learn,29108.999967575073,Mon Jun 09 2025 10:40:51 GMT-0500 (Central Daylight Time),438207.90000003576,A,doc,O,c,132,1,1032.800000011921,437175.10000002384,7161,WL,C,11.0
3,31.256999969482422,learn,28743.000030517578,Mon Jun 09 2025 10:40:51 GMT-0500 (Central Daylight Time),438574.40000003576,A,doct,O,t,350,1,1399.300000011921,437175.10000002384,7161,WL,C,11.0
3,31.390000104904175,learn,28609.999895095825,Mon Jun 09 2025 10:40:51 GMT-0500 (Central Daylight Time),438707.60000002384,A,docto,O,o,127,1,1532.5,437175.10000002384,7161,WL,C,11.0
3,31.640000104904175,learn,28359.999895095825,Mon Jun 09 2025 10:40:51 GMT-0500 (Central Daylight Time),438957.2000000477,A,doctor,O,r,234,1,1782.1000000238419,437175.10000002384,7161,WL,C,11.0
3,32.78999996185303,learn,27210.000038146973,Mon Jun 09 2025 10:40:51 GMT-0500 (Central Daylight Time),440107.2000000477,A,doctorenter,O,enter,1136,1,2932.100000023842,437175.10000002384,7161,WL,C,11.0
3,33.10599994659424,learn,26894.00005340576,Mon Jun 09 2025 10:40:51 GMT-0500 (Central Daylight Time),440423.7000000477,A,f,O,f,307,1,316.10000002384186,440107.60000002384,7161,WL,C,12.0
3,33.28999996185303,learn,26710.000038146973,Mon Jun 09 2025 10:40:51 GMT-0500 (Central Daylight Time),440607.2000000477,A,fl,O,l,166,1,499.60000002384186,440107.60000002384,7161,WL,C,12.0
3,33.77300000190735,learn,26226.99999809265,Mon Jun 09 2025 10:40:51 GMT-0500 (Central Daylight Time),441090.40000003576,A,fla,O,a,478,1,982.8000000119209,440107.60000002384,7161,WL,C,12.0
3,34.223000049591064,learn,25776.999950408936,Mon Jun 09 2025 10:40:51 GMT-0500 (Central Daylight Time),441540.0,A,flag,O,g,435,1,1432.3999999761581,440107.60000002384,7161,WL,C,12.0
3,37.204999923706055,learn,22795.000076293945,Mon Jun 09 2025 10:40:51 GMT-0500 (Central Daylight Time),444522.3000000119,A,flagenter,O,enter,2969,1,4414.699999988079,440107.60000002384,7161,WL,C,12.0
3,39.270999908447266,learn,20729.000091552734,Mon Jun 09 2025 10:40:51 GMT-0500 (Central Daylight Time),446588.60000002384,A,c,O,c,2051,1,2065.899999976158,444522.7000000477,7161,WL,C,13.0
3,39.38800001144409,learn,20611.99998855591,Mon Jun 09 2025 10:40:51 GMT-0500 (Central Daylight Time),446705.10000002384,A,co,O,o,105,1,2182.399999976158,444522.7000000477,7161,WL,C,13.0
3,39.604000091552734,learn,20395.999908447266,Mon Jun 09 2025 10:40:51 GMT-0500 (Central Daylight Time),446921.7000000477,A,cor,O,r,196,1,2399.0,444522.7000000477,7161,WL,C,13.0
3,39.770999908447266,learn,20229.000091552734,Mon Jun 09 2025 10:40:51 GMT-0500 (Central Daylight Time),447088.5,A,corn,O,n,148,1,2565.7999999523163,444522.7000000477,7161,WL,C,13.0
3,40.937000036239624,learn,19062.999963760376,Mon Jun 09 2025 10:40:51 GMT-0500 (Central Daylight Time),448254.5,A,cornenter,O,enter,1149,1,3731.7999999523163,444522.7000000477,7161,WL,C,13.0
3,48.66799998283386,learn,11332.000017166138,Mon Jun 09 2025 10:40:51 GMT-0500 (Central Daylight Time),455985.5,A,b,O,b,7711,1,7730.599999964237,448254.90000003576,7161,WL,C,14.0
3,48.85199999809265,learn,11148.000001907349,Mon Jun 09 2025 10:40:51 GMT-0500 (Central Daylight Time),456168.8000000119,A,bo,O,o,171,1,7913.899999976158,448254.90000003576,7161,WL,C,14.0
3,49.401000022888184,learn,10598.999977111816,Mon Jun 09 2025 10:40:51 GMT-0500 (Central Daylight Time),456718.5,A,bod,O,d,533,1,8463.599999964237,448254.90000003576,7161,WL,C,14.0
3,49.50099992752075,learn,10499.000072479248,Mon Jun 09 2025 10:40:51 GMT-0500 (Central Daylight Time),456818.5,A,body,O,y,95,1,8563.599999964237,448254.90000003576,7161,WL,C,14.0
3,50.318000078201294,learn,9681.999921798706,Mon Jun 09 2025 10:40:51 GMT-0500 (Central Daylight Time),457634.90000003576,A,bodyenter,O,enter,811,1,9380.0,448254.90000003576,7161,WL,C,14.0
3,60.015000104904175,learn,-15.000104904174805,Mon Jun 09 2025 10:40:51 GMT-0500 (Central Daylight Time),467332.2000000477,A,None,O,None,9692,1,9697.0,457635.2000000477,7161,WL,C,15.0
4,1.633000135421753,learn,58366.99986457825,Mon Jun 09 2025 10:40:51 GMT-0500 (Central Daylight Time),537076.8000000119,A,t,O,t,1618,1,1632.8999999761581,535443.9000000358,7161,WL,C,1.0
4,1.9170000553131104,learn,58082.99994468689,Mon Jun 09 2025 10:40:51 GMT-0500 (Central Daylight Time),537360.0,A,to,O,o,272,1,1916.0999999642372,535443.9000000358,7161,WL,C,1.0
4,2.315999984741211,learn,57684.00001525879,Mon Jun 09 2025 10:40:51 GMT-0500 (Central Daylight Time),537759.9000000358,A,tow,O,w,389,1,2316.0,535443.9000000358,7161,WL,C,1.0
4,2.565999984741211,learn,57434.00001525879,Mon Jun 09 2025 10:40:51 GMT-0500 (Central Daylight Time),538009.8000000119,A,towe,O,e,238,1,2565.899999976158,535443.9000000358,7161,WL,C,1.0
4,2.815999984741211,learn,57184.00001525879,Mon Jun 09 2025 10:40:51 GMT-0500 (Central Daylight Time),538259.7000000477,A,tower,O,r,236,1,2815.800000011921,535443.9000000358,7161,WL,C,1.0
4,3.7330000400543213,learn,56266.99995994568,Mon Jun 09 2025 10:40:51 GMT-0500 (Central Daylight Time),539176.3000000119,A,towerw,O,w,897,1,3732.399999976158,535443.9000000358,7161,WL,C,1.0
4,3.8489999771118164,learn,56151.00002288818,Mon Jun 09 2025 10:40:51 GMT-0500 (Central Daylight Time),539292.7000000477,A,towerwh,O,h,109,1,3848.800000011921,535443.9000000358,7161,WL,C,1.0
4,3.999000072479248,learn,56000.99992752075,Mon Jun 09 2025 10:40:51 GMT-0500 (Central Daylight Time),539442.5,A,towerwhe,O,e,137,1,3998.599999964237,535443.9000000358,7161,WL,C,1.0
4,4.348999977111816,learn,55651.00002288818,Mon Jun 09 2025 10:40:51 GMT-0500 (Central Daylight Time),539792.6000000238,A,towerwhea,O,a,339,1,4348.699999988079,535443.9000000358,7161,WL,C,1.0
4,4.515000104904175,learn,55484.999895095825,Mon Jun 09 2025 10:40:51 GMT-0500 (Central Daylight Time),539959.2000000477,A,towerwheat,O,t,157,1,4515.300000011921,535443.9000000358,7161,WL,C,1.0
4,6.79800009727478,learn,53201.99990272522,Mon Jun 09 2025 10:40:51 GMT-0500 (Central Daylight Time),542242.0,A,towerwhea,O,backspace,2262,1,6798.099999964237,535443.9000000358,7161,WL,C,1.0
4,8.183000087738037,learn,51816.99991226196,Mon Jun 09 2025 10:40:51 GMT-0500 (Central Daylight Time),543626.4000000358,A,towerwhe,O,backspace,1371,1,8182.5,535443.9000000358,7161,WL,C,1.0
4,8.314000129699707,learn,51685.99987030029,Mon Jun 09 2025 10:40:51 GMT-0500 (Central Daylight Time),543758.0,A,towerwh,O,backspace,123,1,8314.099999964237,535443.9000000358,7161,WL,C,1.0
4,8.680999994277954,learn,51319.000005722046,Mon Jun 09 2025 10:40:51 GMT-0500 (Central Daylight Time),544124.4000000358,A,towerw,O,backspace,359,1,8680.5,535443.9000000358,7161,WL,C,1.0
4,9.031000137329102,learn,50968.9998626709,Mon Jun 09 2025 10:40:51 GMT-0500 (Central Daylight Time),544474.4000000358,A,tower,O,backspace,330,1,9030.5,535443.9000000358,7161,WL,C,1.0
4,10.014000177383423,learn,49985.99982261658,Mon Jun 09 2025 10:40:51 GMT-0500 (Central Daylight Time),545457.5,A,towerenter,O,enter,963,1,10013.599999964237,535443.9000000358,7161,WL,C,1.0
4,11.297000169754028,learn,48702.99983024597,Mon Jun 09 2025 10:40:51 GMT-0500 (Central Daylight Time),546740.5,A,w,O,w,1276,1,1282.5999999642372,545457.9000000358,7161,WL,C,2.0
4,11.480000019073486,learn,48519.999980926514,Mon Jun 09 2025 10:40:51 GMT-0500 (Central Daylight Time),546923.4000000358,A,we,O,e,177,1,1465.5,545457.9000000358,7161,WL,C,2.0
4,11.61300015449524,learn,48386.99984550476,Mon Jun 09 2025 10:40:51 GMT-0500 (Central Daylight Time),547057.1000000238,A,weh,O,h,122,1,1599.199999988079,545457.9000000358,7161,WL,C,2.0
4,11.797000169754028,learn,48202.99983024597,Mon Jun 09 2025 10:40:51 GMT-0500 (Central Daylight Time),547240.4000000358,A,weha,O,a,173,1,1782.5,545457.9000000358,7161,WL,C,2.0
4,12.02999997138977,learn,47970.00002861023,Mon Jun 09 2025 10:40:51 GMT-0500 (Central Daylight Time),547473.8000000119,A,wehat,O,t,213,1,2015.8999999761581,545457.9000000358,7161,WL,C,2.0
4,13.674000024795532,learn,46325.99997520447,Mon Jun 09 2025 10:40:51 GMT-0500 (Central Daylight Time),549117.4000000358,A,wehatenter,O,enter,1638,1,3659.5,545457.9000000358,7161,WL,C,2.0
4,14.062999963760376,learn,45937.000036239624,Mon Jun 09 2025 10:40:51 GMT-0500 (Central Daylight Time),549506.2000000477,A,q,O,q,368,1,388.5,549117.7000000477,7161,WL,C,3.0
4,14.212000131607056,learn,45787.999868392944,Mon Jun 09 2025 10:40:51 GMT-0500 (Central Daylight Time),549656.0,A,qu,O,u,139,1,538.2999999523163,549117.7000000477,7161,WL,C,3.0
4,14.51200008392334,learn,45487.99991607666,Mon Jun 09 2025 10:40:51 GMT-0500 (Central Daylight Time),549956.1000000238,A,que,O,e,285,1,838.3999999761581,549117.7000000477,7161,WL,C,3.0
4,14.92900013923645,learn,45070.99986076355,Mon Jun 09 2025 10:40:51 GMT-0500 (Central Daylight Time),550372.5,A,quee,O,e,409,1,1254.7999999523163,549117.7000000477,7161,WL,C,3.0
4,15.295000076293945,learn,44704.999923706055,Mon Jun 09 2025 10:40:51 GMT-0500 (Central Daylight Time),550738.9000000358,A,queen,O,n,361,1,1621.199999988079,549117.7000000477,7161,WL,C,3.0
4,17.761000156402588,learn,42238.99984359741,Mon Jun 09 2025 10:40:51 GMT-0500 (Central Daylight Time),553205.1000000238,A,queenenter,O,enter,2459,1,4087.399999976158,549117.7000000477,7161,WL,C,3.0
4,19.444000005722046,learn,40555.999994277954,Mon Jun 09 2025 10:40:51 GMT-0500 (Central Daylight Time),554888.1000000238,A,s,O,s,1664,1,1682.6000000238419,553205.5,7161,WL,C,4.0
4,19.594000101089478,learn,40405.99989891052,Mon Jun 09 2025 10:40:51 GMT-0500 (Central Daylight Time),555037.9000000358,A,su,O,u,141,1,1832.4000000357628,553205.5,7161,WL,C,4.0
4,19.962000131607056,learn,40037.999868392944,Mon Jun 09 2025 10:40:51 GMT-0500 (Central Daylight Time),555405.5,A,sug,O,g,359,1,2200.0,553205.5,7161,WL,C,4.0
4,20.360000133514404,learn,39639.999866485596,Mon Jun 09 2025 10:40:51 GMT-0500 (Central Daylight Time),555804.1000000238,A,suga,O,a,384,1,2598.600000023842,553205.5,7161,WL,C,4.0
4,20.610000133514404,learn,39389.999866485596,Mon Jun 09 2025 10:40:51 GMT-0500 (Central Daylight Time),556054.2000000477,A,sugar,O,r,233,1,2848.7000000476837,553205.5,7161,WL,C,4.0
4,20.91000008583069,learn,39089.99991416931,Mon Jun 09 2025 10:40:51 GMT-0500 (Central Daylight Time),556354.2000000477,A,sugarenter,O,enter,287,1,3148.7000000476837,553205.5,7161,WL,C,4.0
4,21.344000101089478,learn,38655.99989891052,Mon Jun 09 2025 10:40:51 GMT-0500 (Central Daylight Time),556787.3000000119,A,h,O,h,419,1,432.69999998807907,556354.6000000238,7161,WL,C,5.0
4,21.89300012588501,learn,38106.99987411499,Mon Jun 09 2025 10:40:51 GMT-0500 (Central Daylight Time),557337.1000000238,A,ho,O,o,530,1,982.5,556354.6000000238,7161,WL,C,5.0
4,21.943000078201294,learn,38056.999921798706,Mon Jun 09 2025 10:40:51 GMT-0500 (Central Daylight Time),557386.9000000358,A,hom,O,m,36,1,1032.300000011921,556354.6000000238,7161,WL,C,5.0
4,22.127000093460083,learn,37872.99990653992,Mon Jun 09 2025 10:40:51 GMT-0500 (Central Daylight Time),557570.3000000119,A,home,O,e,170,1,1215.699999988079,556354.6000000238,7161,WL,C,5.0
4,23.37600016593933,learn,36623.99983406067,Mon Jun 09 2025 10:40:51 GMT-0500 (Central Daylight Time),558820.0,A,homeenter,O,enter,1244,1,2465.399999976158,556354.6000000238,7161,WL,C,5.0
4,27.641000032424927,learn,32358.999967575073,Mon Jun 09 2025 10:40:51 GMT-0500 (Central Daylight Time),563085.2000000477,A,d,O,d,4258,1,4264.800000011921,558820.4000000358,7161,WL,C,6.0
4,27.825000047683716,learn,32174.999952316284,Mon Jun 09 2025 10:40:51 GMT-0500 (Central Daylight Time),563268.8000000119,A,do,O,o,168,1,4448.399999976158,558820.4000000358,7161,WL,C,6.0
4,28.04100012779236,learn,31958.99987220764,Mon Jun 09 2025 10:40:51 GMT-0500 (Central Daylight Time),563485.2000000477,A,doc,O,c,208,1,4664.800000011921,558820.4000000358,7161,WL,C,6.0
4,28.342000007629395,learn,31657.999992370605,Mon Jun 09 2025 10:40:51 GMT-0500 (Central Daylight Time),563785.5,A,doco,O,o,288,1,4965.099999964237,558820.4000000358,7161,WL,C,6.0
4,28.508000135421753,learn,31491.999864578247,Mon Jun 09 2025 10:40:51 GMT-0500 (Central Daylight Time),563951.6000000238,A,docot,O,t,148,1,5131.199999988079,558820.4000000358,7161,WL,C,6.0
4,28.808000087738037,learn,31191.999912261963,Mon Jun 09 2025 10:40:51 GMT-0500 (Central Daylight Time),564251.5,A,docotr,O,r,286,1,5431.099999964237,558820.4000000358,7161,WL,C,6.0
4,30.091000080108643,learn,29908.999919891357,Mon Jun 09 2025 10:40:51 GMT-0500 (Central Daylight Time),565534.5,A,docotrenter,O,enter,1274,1,6714.099999964237,558820.4000000358,7161,WL,C,6.0
4,31.60700011253357,learn,28392.99988746643,Mon Jun 09 2025 10:40:51 GMT-0500 (Central Daylight Time),567050.6000000238,A,b,O,b,1503,1,1515.800000011921,565534.8000000119,7161,WL,C,7.0
4,31.807000160217285,learn,28192.999839782715,Mon Jun 09 2025 10:40:51 GMT-0500 (Central Daylight Time),567250.7000000477,A,bo,O,o,179,1,1715.9000000357628,565534.8000000119,7161,WL,C,7.0
4,32.07300019264221,learn,27926.999807357788,Mon Jun 09 2025 10:40:51 GMT-0500 (Central Daylight Time),567517.1000000238,A,boy,O,y,259,1,1982.300000011921,565534.8000000119,7161,WL,C,7.0
4,32.45700001716614,learn,27542.999982833862,Mon Jun 09 2025 10:40:51 GMT-0500 (Central Daylight Time),567900.7000000477,A,boyenter,O,enter,376,1,2365.900000035763,565534.8000000119,7161,WL,C,7.0
4,33.140000104904175,learn,26859.999895095825,Mon Jun 09 2025 10:40:51 GMT-0500 (Central Daylight Time),568583.4000000358,A,c,O,c,665,1,682.5,567900.9000000358,7161,WL,C,8.0
4,33.555999994277954,learn,26444.000005722046,Mon Jun 09 2025 10:40:51 GMT-0500 (Central Daylight Time),569000.1000000238,A,ca,O,a,406,1,1099.199999988079,567900.9000000358,7161,WL,C,8.0
4,33.99000000953674,learn,26009.999990463257,Mon Jun 09 2025 10:40:51 GMT-0500 (Central Daylight Time),569433.3000000119,A,cam,O,m,414,1,1532.3999999761581,567900.9000000358,7161,WL,C,8.0
4,34.956000089645386,learn,25043.999910354614,Mon Jun 09 2025 10:40:51 GMT-0500 (Central Daylight Time),570399.6000000238,A,camp,O,p,956,1,2498.699999988079,567900.9000000358,7161,WL,C,8.0
4,37.82200002670288,learn,22177.99997329712,Mon Jun 09 2025 10:40:51 GMT-0500 (Central Daylight Time),573265.6000000238,A,campenter,O,enter,2846,1,5364.699999988079,567900.9000000358,7161,WL,C,8.0
4,39.32100009918213,learn,20678.99990081787,Mon Jun 09 2025 10:40:51 GMT-0500 (Central Daylight Time),574765.2000000477,A,f,O,f,1491,1,1499.1000000238419,573266.1000000238,7161,WL,C,9.0
4,39.47099995613098,learn,20529.00004386902,Mon Jun 09 2025 10:40:51 GMT-0500 (Central Daylight Time),574914.8000000119,A,fl,O,l,144,1,1648.699999988079,573266.1000000238,7161,WL,C,9.0
4,40.187999963760376,learn,19812.000036239624,Mon Jun 09 2025 10:40:51 GMT-0500 (Central Daylight Time),575631.4000000358,A,fla,O,a,699,1,2365.300000011921,573266.1000000238,7161,WL,C,9.0
4,40.55400013923645,learn,19445.99986076355,Mon Jun 09 2025 10:40:51 GMT-0500 (Central Daylight Time),575998.1000000238,A,flag,O,g,350,1,2732.0,573266.1000000238,7161,WL,C,9.0
4,41.271000146865845,learn,18728.999853134155,Mon Jun 09 2025 10:40:51 GMT-0500 (Central Daylight Time),576714.6000000238,A,flagenter,O,enter,695,1,3448.5,573266.1000000238,7161,WL,C,9.0
4,42.687000036239624,learn,17312.999963760376,Mon Jun 09 2025 10:40:51 GMT-0500 (Central Daylight Time),578130.6000000238,A,n,O,n,1396,1,1415.699999988079,576714.9000000358,7161,WL,C,10.0
4,42.87000012397766,learn,17129.99987602234,Mon Jun 09 2025 10:40:51 GMT-0500 (Central Daylight Time),578313.9000000358,A,na,O,a,170,1,1599.0,576714.9000000358,7161,WL,C,10.0
4,43.004000186920166,learn,16995.999813079834,Mon Jun 09 2025 10:40:51 GMT-0500 (Central Daylight Time),578447.2000000477,A,nai,O,i,116,1,1732.300000011921,576714.9000000358,7161,WL,C,10.0
4,43.22000002861023,learn,16779.99997138977,Mon Jun 09 2025 10:40:51 GMT-0500 (Central Daylight Time),578663.6000000238,A,nail,O,l,206,1,1948.699999988079,576714.9000000358,7161,WL,C,10.0
4,43.736000061035156,learn,16263.999938964844,Mon Jun 09 2025 10:40:51 GMT-0500 (Central Daylight Time),579180.0,A,nailenter,O,enter,510,1,2465.099999964237,576714.9000000358,7161,WL,C,10.0
4,44.45300006866455,learn,15546.99993133545,Mon Jun 09 2025 10:40:51 GMT-0500 (Central Daylight Time),579896.6000000238,A,l,O,l,705,1,716.1000000238419,579180.5,7161,WL,C,11.0
4,44.62000012397766,learn,15379.999876022339,Mon Jun 09 2025 10:40:51 GMT-0500 (Central Daylight Time),580063.3000000119,A,le,O,e,149,1,882.8000000119209,579180.5,7161,WL,C,11.0
4,44.88600015640259,learn,15113.999843597412,Mon Jun 09 2025 10:40:51 GMT-0500 (Central Daylight Time),580329.9000000358,A,let,O,t,254,1,1149.4000000357628,579180.5,7161,WL,C,11.0
4,45.03600001335144,learn,14963.99998664856,Mon Jun 09 2025 10:40:51 GMT-0500 (Central Daylight Time),580480.0,A,lett,O,t,140,1,1299.5,579180.5,7161,WL,C,11.0
4,45.28600001335144,learn,14713.99998664856,Mon Jun 09 2025 10:40:51 GMT-0500 (Central Daylight Time),580729.7000000477,A,lette,O,e,238,1,1549.2000000476837,579180.5,7161,WL,C,11.0
4,45.38600015640259,learn,14613.999843597412,Mon Jun 09 2025 10:40:51 GMT-0500 (Central Daylight Time),580829.9000000358,A,letter,O,r,92,1,1649.4000000357628,579180.5,7161,WL,C,11.0
4,46.819000005722046,learn,13180.999994277954,Mon Jun 09 2025 10:40:51 GMT-0500 (Central Daylight Time),582262.6000000238,A,letterenter,O,enter,1416,1,3082.100000023842,579180.5,7161,WL,C,11.0
4,47.83500003814697,learn,12164.999961853027,Mon Jun 09 2025 10:40:51 GMT-0500 (Central Daylight Time),583279.0,A,c,O,c,1007,1,1016.0999999642372,582262.9000000358,7161,WL,C,12.0
4,47.9520001411438,learn,12047.999858856201,Mon Jun 09 2025 10:40:51 GMT-0500 (Central Daylight Time),583395.5,A,co,O,o,103,1,1132.5999999642372,582262.9000000358,7161,WL,C,12.0
4,48.18500018119812,learn,11814.99981880188,Mon Jun 09 2025 10:40:51 GMT-0500 (Central Daylight Time),583628.9000000358,A,cor,O,r,226,1,1366.0,582262.9000000358,7161,WL,C,12.0
4,48.41900014877319,learn,11580.999851226807,Mon Jun 09 2025 10:40:51 GMT-0500 (Central Daylight Time),583862.3000000119,A,corn,O,n,225,1,1599.3999999761581,582262.9000000358,7161,WL,C,12.0
4,49.10199999809265,learn,10898.000001907349,Mon Jun 09 2025 10:40:51 GMT-0500 (Central Daylight Time),584545.3000000119,A,cornenter,O,enter,663,1,2282.399999976158,582262.9000000358,7161,WL,C,12.0
4,49.3510000705719,learn,10648.9999294281,Mon Jun 09 2025 10:40:51 GMT-0500 (Central Daylight Time),584795.0,A,c,O,c,244,1,249.29999995231628,584545.7000000477,7161,WL,C,13.0
4,49.568000078201294,learn,10431.999921798706,Mon Jun 09 2025 10:40:51 GMT-0500 (Central Daylight Time),585011.7000000477,A,ca,O,a,211,1,466.0,584545.7000000477,7161,WL,C,13.0
4,49.88499999046326,learn,10115.000009536743,Mon Jun 09 2025 10:40:51 GMT-0500 (Central Daylight Time),585328.6000000238,A,cat,O,t,306,1,782.8999999761581,584545.7000000477,7161,WL,C,13.0
4,50.01800012588501,learn,9981.99987411499,Mon Jun 09 2025 10:40:51 GMT-0500 (Central Daylight Time),585461.7000000477,A,catt,O,t,125,1,916.0,584545.7000000477,7161,WL,C,13.0
4,50.18500018119812,learn,9814.99981880188,Mon Jun 09 2025 10:40:51 GMT-0500 (Central Daylight Time),585628.4000000358,A,cattl,O,l,160,1,1082.699999988079,584545.7000000477,7161,WL,C,13.0
4,50.318000078201294,learn,9681.999921798706,Mon Jun 09 2025 10:40:51 GMT-0500 (Central Daylight Time),585761.4000000358,A,cattle,O,e,121,1,1215.699999988079,584545.7000000477,7161,WL,C,13.0
4,53.31700015068054,learn,6682.999849319458,Mon Jun 09 2025 10:40:51 GMT-0500 (Central Daylight Time),588760.6000000238,A,cattleenter,O,enter,2980,1,4214.899999976158,584545.7000000477,7161,WL,C,13.0
4,54.51600003242493,learn,5483.999967575073,Mon Jun 09 2025 10:40:51 GMT-0500 (Central Daylight Time),589960.2000000477,A,s,O,s,1189,1,1199.4000000357628,588760.8000000119,7161,WL,C,14.0
4,54.75,learn,5250.0,Mon Jun 09 2025 10:40:51 GMT-0500 (Central Daylight Time),590193.4000000358,A,sh,O,h,221,1,1432.6000000238419,588760.8000000119,7161,WL,C,14.0
4,55.01600003242493,learn,4983.999967575073,Mon Jun 09 2025 10:40:51 GMT-0500 (Central Daylight Time),590460.1000000238,A,sho,O,o,260,1,1699.300000011921,588760.8000000119,7161,WL,C,14.0
4,55.31599998474121,learn,4684.000015258789,Mon Jun 09 2025 10:40:51 GMT-0500 (Central Daylight Time),590760.0,A,shor,O,r,281,1,1999.199999988079,588760.8000000119,7161,WL,C,14.0
4,55.46600008010864,learn,4533.999919891357,Mon Jun 09 2025 10:40:51 GMT-0500 (Central Daylight Time),590909.8000000119,A,shore,O,e,141,1,2149.0,588760.8000000119,7161,WL,C,14.0
4,56.83300018310547,learn,3166.9998168945312,Mon Jun 09 2025 10:40:51 GMT-0500 (Central Daylight Time),592276.2000000477,A,shoreenter,O,enter,1360,1,3515.400000035763,588760.8000000119,7161,WL,C,14.0
4,57.432000160217285,learn,2567.999839782715,Mon Jun 09 2025 10:40:51 GMT-0500 (Central Daylight Time),592876.0,A,b,O,b,585,1,599.3999999761581,592276.6000000238,7161,WL,C,15.0
4,57.616000175476074,learn,2383.999824523926,Mon Jun 09 2025 10:40:51 GMT-0500 (Central Daylight Time),593059.2000000477,A,bo,O,o,178,1,782.6000000238419,592276.6000000238,7161,WL,C,15.0
4,58.28200006484985,learn,1717.9999351501465,Mon Jun 09 2025 10:40:51 GMT-0500 (Central Daylight Time),593725.6000000238,A,bod,O,d,658,1,1449.0,592276.6000000238,7161,WL,C,15.0
4,58.432000160217285,learn,1567.9998397827148,Mon Jun 09 2025 10:40:51 GMT-0500 (Central Daylight Time),593875.6000000238,A,body,O,y,144,1,1599.0,592276.6000000238,7161,WL,C,15.0
4,60.015000104904175,learn,-15.000104904174805,Mon Jun 09 2025 10:40:51 GMT-0500 (Central Daylight Time),595458.4000000358,A,bodyNone,O,None,1578,1,3181.800000011921,592276.6000000238,7161,WL,C,15.0
5,0.8670001029968262,learn,60000.0,Mon Jun 09 2025 10:40:51 GMT-0500 (Central Daylight Time),666119.7000000477,A,t,O,t,857,1,866.3000000119209,665253.4000000358,7161,WL,C,1.0
5,1.0829999446868896,learn,60000.0,Mon Jun 09 2025 10:40:51 GMT-0500 (Central Daylight Time),666336.5,A,to,O,o,205,1,1083.0999999642372,665253.4000000358,7161,WL,C,1.0
5,1.6600000858306885,learn,60000.0,Mon Jun 09 2025 10:40:51 GMT-0500 (Central Daylight Time),666912.6000000238,A,tow,O,w,425,1,1659.199999988079,665253.4000000358,7161,WL,C,1.0
5,1.7009999752044678,learn,60000.0,Mon Jun 09 2025 10:40:51 GMT-0500 (Central Daylight Time),666954.0,A,towe,O,e,21,1,1700.5999999642372,665253.4000000358,7161,WL,C,1.0
5,1.9830000400543213,learn,60000.0,Mon Jun 09 2025 10:40:51 GMT-0500 (Central Daylight Time),667236.0,A,tower,O,r,266,1,1982.5999999642372,665253.4000000358,7161,WL,C,1.0
5,2.8489999771118164,learn,60000.0,Mon Jun 09 2025 10:40:51 GMT-0500 (Central Daylight Time),668102.4000000358,A,towerenter,O,enter,849,1,2849.0,665253.4000000358,7161,WL,C,1.0
5,3.4820001125335693,learn,60000.0,Mon Jun 09 2025 10:40:51 GMT-0500 (Central Daylight Time),668735.5,A,w,O,w,623,1,632.6999999880791,668102.8000000119,7161,WL,C,2.0
5,4.131999969482422,learn,60000.0,Mon Jun 09 2025 10:40:51 GMT-0500 (Central Daylight Time),669385.5,A,wh,O,h,630,1,1282.699999988079,668102.8000000119,7161,WL,C,2.0
5,4.299000024795532,learn,60000.0,Mon Jun 09 2025 10:40:51 GMT-0500 (Central Daylight Time),669552.0,A,whe,O,e,148,1,1449.199999988079,668102.8000000119,7161,WL,C,2.0
5,4.89900016784668,learn,60000.0,Mon Jun 09 2025 10:40:51 GMT-0500 (Central Daylight Time),670151.8000000119,A,whea,O,a,589,1,2049.0,668102.8000000119,7161,WL,C,2.0
5,5.115000009536743,learn,60000.0,Mon Jun 09 2025 10:40:51 GMT-0500 (Central Daylight Time),670368.7000000477,A,wheat,O,t,205,1,2265.900000035763,668102.8000000119,7161,WL,C,2.0
5,5.697999954223633,learn,60000.0,Mon Jun 09 2025 10:40:51 GMT-0500 (Central Daylight Time),670951.5,A,wheatenter,O,enter,565,1,2848.699999988079,668102.8000000119,7161,WL,C,2.0
5,7.14900016784668,learn,60000.0,Mon Jun 09 2025 10:40:51 GMT-0500 (Central Daylight Time),672402.1000000238,A,q,O,q,1430,1,1450.1000000238419,670952.0,7161,WL,C,3.0
5,7.3480000495910645,learn,60000.0,Mon Jun 09 2025 10:40:51 GMT-0500 (Central Daylight Time),672601.0,A,qu,O,u,179,1,1649.0,670952.0,7161,WL,C,3.0
5,7.732000112533569,learn,60000.0,Mon Jun 09 2025 10:40:51 GMT-0500 (Central Daylight Time),672985.0,A,que,O,e,364,1,2033.0,670952.0,7161,WL,C,3.0
5,7.864000082015991,learn,60000.0,Mon Jun 09 2025 10:40:51 GMT-0500 (Central Daylight Time),673117.3000000119,A,quee,O,e,125,1,2165.300000011921,670952.0,7161,WL,C,3.0
5,8.064000129699707,learn,60000.0,Mon Jun 09 2025 10:40:51 GMT-0500 (Central Daylight Time),673317.6000000238,A,queen,O,n,191,1,2365.600000023842,670952.0,7161,WL,C,3.0
5,9.914000034332275,learn,60000.0,Mon Jun 09 2025 10:40:51 GMT-0500 (Central Daylight Time),675166.8000000119,A,queenenter,O,enter,1840,1,4214.800000011921,670952.0,7161,WL,C,3.0
5,10.847000122070312,learn,60000.0,Mon Jun 09 2025 10:40:51 GMT-0500 (Central Daylight Time),676099.9000000358,A,s,O,s,919,1,932.6999999880791,675167.2000000477,7161,WL,C,4.0
5,10.980000019073486,learn,60000.0,Mon Jun 09 2025 10:40:51 GMT-0500 (Central Daylight Time),676233.4000000358,A,su,O,u,114,1,1066.199999988079,675167.2000000477,7161,WL,C,4.0
5,11.297000169754028,learn,60000.0,Mon Jun 09 2025 10:40:51 GMT-0500 (Central Daylight Time),676549.7000000477,A,sug,O,g,308,1,1382.5,675167.2000000477,7161,WL,C,4.0
5,11.430000066757202,learn,60000.0,Mon Jun 09 2025 10:40:51 GMT-0500 (Central Daylight Time),676683.3000000119,A,suga,O,a,120,1,1516.0999999642372,675167.2000000477,7161,WL,C,4.0
5,11.595999956130981,learn,60000.0,Mon Jun 09 2025 10:40:51 GMT-0500 (Central Daylight Time),676849.6000000238,A,sugar,O,r,154,1,1682.3999999761581,675167.2000000477,7161,WL,C,4.0
5,12.413000106811523,learn,60000.0,Mon Jun 09 2025 10:40:51 GMT-0500 (Central Daylight Time),677666.0,A,sugarenter,O,enter,804,1,2498.7999999523163,675167.2000000477,7161,WL,C,4.0
5,13.595999956130981,learn,60000.0,Mon Jun 09 2025 10:40:51 GMT-0500 (Central Daylight Time),678849.1000000238,A,h,O,h,1172,1,1182.800000011921,677666.3000000119,7161,WL,C,5.0
5,13.894999980926514,learn,60000.0,Mon Jun 09 2025 10:40:51 GMT-0500 (Central Daylight Time),679148.6000000238,A,ho,O,o,292,1,1482.300000011921,677666.3000000119,7161,WL,C,5.0
5,13.979000091552734,learn,60000.0,Mon Jun 09 2025 10:40:51 GMT-0500 (Central Daylight Time),679231.9000000358,A,hom,O,m,65,1,1565.6000000238419,677666.3000000119,7161,WL,C,5.0
5,14.229000091552734,learn,60000.0,Mon Jun 09 2025 10:40:51 GMT-0500 (Central Daylight Time),679482.3000000119,A,home,O,e,229,1,1816.0,677666.3000000119,7161,WL,C,5.0
5,15.229000091552734,learn,60000.0,Mon Jun 09 2025 10:40:51 GMT-0500 (Central Daylight Time),680481.8000000119,A,homeenter,O,enter,987,1,2815.5,677666.3000000119,7161,WL,C,5.0
5,16.478000164031982,learn,60000.0,Mon Jun 09 2025 10:40:51 GMT-0500 (Central Daylight Time),681731.4000000358,A,b,O,b,1236,1,1249.300000011921,680482.1000000238,7161,WL,C,6.0
5,16.710999965667725,learn,60000.0,Mon Jun 09 2025 10:40:51 GMT-0500 (Central Daylight Time),681964.6000000238,A,bo,O,o,226,1,1482.5,680482.1000000238,7161,WL,C,6.0
5,17.09500002861023,learn,60000.0,Mon Jun 09 2025 10:40:51 GMT-0500 (Central Daylight Time),682347.9000000358,A,boy,O,y,369,1,1865.800000011921,680482.1000000238,7161,WL,C,6.0
5,17.394999980926514,learn,60000.0,Mon Jun 09 2025 10:40:51 GMT-0500 (Central Daylight Time),682648.0,A,boyenter,O,enter,282,1,2165.899999976158,680482.1000000238,7161,WL,C,6.0
5,18.09500002861023,learn,60000.0,Mon Jun 09 2025 10:40:51 GMT-0500 (Central Daylight Time),683347.7000000477,A,d,O,d,685,1,699.3000000119209,682648.4000000358,7161,WL,C,7.0
5,18.294000148773193,learn,60000.0,Mon Jun 09 2025 10:40:51 GMT-0500 (Central Daylight Time),683547.5,A,do,O,o,186,1,899.0999999642372,682648.4000000358,7161,WL,C,7.0
5,18.478000164031982,learn,60000.0,Mon Jun 09 2025 10:40:51 GMT-0500 (Central Daylight Time),683730.7000000477,A,doc,O,c,170,1,1082.300000011921,682648.4000000358,7161,WL,C,7.0
5,18.844000101089478,learn,60000.0,Mon Jun 09 2025 10:40:51 GMT-0500 (Central Daylight Time),684097.4000000358,A,doct,O,t,347,1,1449.0,682648.4000000358,7161,WL,C,7.0
5,19.511000156402588,learn,60000.0,Mon Jun 09 2025 10:40:51 GMT-0500 (Central Daylight Time),684763.8000000119,A,docto,O,o,652,1,2115.399999976158,682648.4000000358,7161,WL,C,7.0
5,19.64400005340576,learn,60000.0,Mon Jun 09 2025 10:40:51 GMT-0500 (Central Daylight Time),684897.4000000358,A,doctor,O,r,113,1,2249.0,682648.4000000358,7161,WL,C,7.0
5,20.22699999809265,learn,60000.0,Mon Jun 09 2025 10:40:51 GMT-0500 (Central Daylight Time),685480.4000000358,A,doctorenter,O,enter,564,1,2832.0,682648.4000000358,7161,WL,C,7.0
5,20.91000008583069,learn,60000.0,Mon Jun 09 2025 10:40:51 GMT-0500 (Central Daylight Time),686163.2000000477,A,c,O,c,677,1,682.5,685480.7000000477,7161,WL,C,8.0
5,21.47699999809265,learn,60000.0,Mon Jun 09 2025 10:40:51 GMT-0500 (Central Daylight Time),686729.9000000358,A,ca,O,a,555,1,1249.199999988079,685480.7000000477,7161,WL,C,8.0
5,21.72699999809265,learn,60000.0,Mon Jun 09 2025 10:40:51 GMT-0500 (Central Daylight Time),686979.8000000119,A,cam,O,m,236,1,1499.0999999642372,685480.7000000477,7161,WL,C,8.0
5,21.97699999809265,learn,60000.0,Mon Jun 09 2025 10:40:51 GMT-0500 (Central Daylight Time),687230.0,A,camp,O,p,234,1,1749.2999999523163,685480.7000000477,7161,WL,C,8.0
5,22.593000173568726,learn,60000.0,Mon Jun 09 2025 10:40:51 GMT-0500 (Central Daylight Time),687846.2000000477,A,campenter,O,enter,607,1,2365.5,685480.7000000477,7161,WL,C,8.0
5,23.542999982833862,learn,60000.0,Mon Jun 09 2025 10:40:51 GMT-0500 (Central Daylight Time),688795.9000000358,A,f,O,f,935,1,949.4000000357628,687846.5,7161,WL,C,9.0
5,23.710000038146973,learn,60000.0,Mon Jun 09 2025 10:40:51 GMT-0500 (Central Daylight Time),688963.0,A,fl,O,l,154,1,1116.5,687846.5,7161,WL,C,9.0
5,23.858999967575073,learn,60000.0,Mon Jun 09 2025 10:40:51 GMT-0500 (Central Daylight Time),689112.6000000238,A,fla,O,a,138,1,1266.1000000238419,687846.5,7161,WL,C,9.0
5,24.593000173568726,learn,60000.0,Mon Jun 09 2025 10:40:51 GMT-0500 (Central Daylight Time),689845.7000000477,A,flag,O,g,717,1,1999.2000000476837,687846.5,7161,WL,C,9.0
5,25.526999950408936,learn,60000.0,Mon Jun 09 2025 10:40:51 GMT-0500 (Central Daylight Time),690779.8000000119,A,flagenter,O,enter,920,1,2933.300000011921,687846.5,7161,WL,C,9.0
5,26.009000062942505,learn,60000.0,Mon Jun 09 2025 10:40:51 GMT-0500 (Central Daylight Time),691261.8000000119,A,l,O,l,474,1,481.5999999642372,690780.2000000477,7161,WL,C,10.0
5,26.225000143051147,learn,60000.0,Mon Jun 09 2025 10:40:51 GMT-0500 (Central Daylight Time),691478.3000000119,A,le,O,e,200,1,698.0999999642372,690780.2000000477,7161,WL,C,10.0
5,26.492000102996826,learn,60000.0,Mon Jun 09 2025 10:40:51 GMT-0500 (Central Daylight Time),691745.1000000238,A,let,O,t,255,1,964.8999999761581,690780.2000000477,7161,WL,C,10.0
5,26.625,learn,60000.0,Mon Jun 09 2025 10:40:51 GMT-0500 (Central Daylight Time),691878.7000000477,A,lett,O,t,117,1,1098.5,690780.2000000477,7161,WL,C,10.0
5,26.875,learn,60000.0,Mon Jun 09 2025 10:40:51 GMT-0500 (Central Daylight Time),692128.1000000238,A,lette,O,e,231,1,1347.8999999761581,690780.2000000477,7161,WL,C,10.0
5,26.975000143051147,learn,60000.0,Mon Jun 09 2025 10:40:51 GMT-0500 (Central Daylight Time),692228.2000000477,A,letter,O,r,85,1,1448.0,690780.2000000477,7161,WL,C,10.0
5,27.424999952316284,learn,60000.0,Mon Jun 09 2025 10:40:51 GMT-0500 (Central Daylight Time),692677.9000000358,A,letterenter,O,enter,433,1,1897.699999988079,690780.2000000477,7161,WL,C,10.0
5,28.308000087738037,learn,60000.0,Mon Jun 09 2025 10:40:51 GMT-0500 (Central Daylight Time),693561.2000000477,A,c,O,c,872,1,882.9000000357628,692678.3000000119,7161,WL,C,11.0
5,28.45799994468689,learn,60000.0,Mon Jun 09 2025 10:40:51 GMT-0500 (Central Daylight Time),693711.2000000477,A,co,O,o,140,1,1032.9000000357628,692678.3000000119,7161,WL,C,11.0
5,28.991000175476074,learn,60000.0,Mon Jun 09 2025 10:40:51 GMT-0500 (Central Daylight Time),694244.4000000358,A,cor,O,r,518,1,1566.1000000238419,692678.3000000119,7161,WL,C,11.0
5,29.19099998474121,learn,60000.0,Mon Jun 09 2025 10:40:51 GMT-0500 (Central Daylight Time),694443.8000000119,A,corn,O,n,185,1,1765.5,692678.3000000119,7161,WL,C,11.0
5,29.723999977111816,learn,60000.0,Mon Jun 09 2025 10:40:51 GMT-0500 (Central Daylight Time),694977.3000000119,A,cornenter,O,enter,513,1,2299.0,692678.3000000119,7161,WL,C,11.0
5,30.10700011253357,learn,60000.0,Mon Jun 09 2025 10:40:51 GMT-0500 (Central Daylight Time),695360.6000000238,A,c,O,c,364,1,382.89999997615814,694977.7000000477,7161,WL,C,12.0
5,30.29100012779236,learn,60000.0,Mon Jun 09 2025 10:40:51 GMT-0500 (Central Daylight Time),695543.9000000358,A,ca,O,a,165,1,566.1999999880791,694977.7000000477,7161,WL,C,12.0
5,30.624000072479248,learn,60000.0,Mon Jun 09 2025 10:40:51 GMT-0500 (Central Daylight Time),695877.1000000238,A,cat,O,t,317,1,899.3999999761581,694977.7000000477,7161,WL,C,12.0
5,30.756999969482422,learn,60000.0,Mon Jun 09 2025 10:40:51 GMT-0500 (Central Daylight Time),696010.5,A,catt,O,t,129,1,1032.7999999523163,694977.7000000477,7161,WL,C,12.0
5,30.957000017166138,learn,60000.0,Mon Jun 09 2025 10:40:51 GMT-0500 (Central Daylight Time),696210.1000000238,A,cattl,O,l,179,1,1232.3999999761581,694977.7000000477,7161,WL,C,12.0
5,32.20700001716614,learn,60000.0,Mon Jun 09 2025 10:40:51 GMT-0500 (Central Daylight Time),697459.9000000358,A,cattle,O,e,1235,1,2482.199999988079,694977.7000000477,7161,WL,C,12.0
5,33.52300000190735,learn,60000.0,Mon Jun 09 2025 10:40:51 GMT-0500 (Central Daylight Time),698775.9000000358,A,cattlen,O,n,1298,1,3798.199999988079,694977.7000000477,7161,WL,C,12.0
5,34.07299995422363,learn,60000.0,Mon Jun 09 2025 10:40:51 GMT-0500 (Central Daylight Time),699326.3000000119,A,cattlena,O,a,542,1,4348.599999964237,694977.7000000477,7161,WL,C,12.0
5,34.289000034332275,learn,60000.0,Mon Jun 09 2025 10:40:51 GMT-0500 (Central Daylight Time),699542.5,A,cattlenai,O,i,207,1,4564.799999952316,694977.7000000477,7161,WL,C,12.0
5,34.38900017738342,learn,60000.0,Mon Jun 09 2025 10:40:51 GMT-0500 (Central Daylight Time),699642.5,A,cattlenail,O,l,87,1,4664.799999952316,694977.7000000477,7161,WL,C,12.0
5,36.75500011444092,learn,60000.0,Mon Jun 09 2025 10:40:51 GMT-0500 (Central Daylight Time),702008.5,A,cattlenai,O,backspace,2355,1,7030.799999952316,694977.7000000477,7161,WL,C,12.0
5,36.871999979019165,learn,60000.0,Mon Jun 09 2025 10:40:51 GMT-0500 (Central Daylight Time),702125.1000000238,A,cattlena,O,backspace,101,1,7147.399999976158,694977.7000000477,7161,WL,C,12.0
5,37.03800010681152,learn,60000.0,Mon Jun 09 2025 10:40:51 GMT-0500 (Central Daylight Time),702291.5,A,cattlen,O,backspace,160,1,7313.799999952316,694977.7000000477,7161,WL,C,12.0
5,37.32200002670288,learn,60000.0,Mon Jun 09 2025 10:40:51 GMT-0500 (Central Daylight Time),702574.9000000358,A,cattle,O,backspace,266,1,7597.199999988079,694977.7000000477,7161,WL,C,12.0
5,38.38800001144409,learn,60000.0,Mon Jun 09 2025 10:40:51 GMT-0500 (Central Daylight Time),703641.5,A,cattleenter,O,enter,1054,1,8663.799999952316,694977.7000000477,7161,WL,C,12.0
5,39.48800015449524,learn,60000.0,Mon Jun 09 2025 10:40:51 GMT-0500 (Central Daylight Time),704741.0,A,n,O,n,1092,1,1099.0999999642372,703641.9000000358,7161,WL,C,13.0
5,39.771000146865845,learn,60000.0,Mon Jun 09 2025 10:40:51 GMT-0500 (Central Daylight Time),705024.3000000119,A,na,O,a,264,1,1382.3999999761581,703641.9000000358,7161,WL,C,13.0
5,39.98800015449524,learn,60000.0,Mon Jun 09 2025 10:40:51 GMT-0500 (Central Daylight Time),705240.9000000358,A,nai,O,i,205,1,1599.0,703641.9000000358,7161,WL,C,13.0
5,40.0550000667572,learn,60000.0,Mon Jun 09 2025 10:40:51 GMT-0500 (Central Daylight Time),705308.5,A,nail,O,l,61,1,1666.5999999642372,703641.9000000358,7161,WL,C,13.0
5,40.9539999961853,learn,60000.0,Mon Jun 09 2025 10:40:51 GMT-0500 (Central Daylight Time),706207.2000000477,A,nailenter,O,enter,881,1,2565.300000011921,703641.9000000358,7161,WL,C,13.0
5,41.437000036239624,learn,60000.0,Mon Jun 09 2025 10:40:51 GMT-0500 (Central Daylight Time),706690.4000000358,A,b,O,b,462,1,482.9000000357628,706207.5,7161,WL,C,14.0
5,41.72000002861023,learn,60000.0,Mon Jun 09 2025 10:40:51 GMT-0500 (Central Daylight Time),706973.5,A,bo,O,o,275,1,766.0,706207.5,7161,WL,C,14.0
5,42.30400013923645,learn,60000.0,Mon Jun 09 2025 10:40:51 GMT-0500 (Central Daylight Time),707556.7000000477,A,bod,O,d,568,1,1349.2000000476837,706207.5,7161,WL,C,14.0
5,42.48699998855591,learn,60000.0,Mon Jun 09 2025 10:40:51 GMT-0500 (Central Daylight Time),707739.9000000358,A,body,O,y,169,1,1532.4000000357628,706207.5,7161,WL,C,14.0
5,43.78600001335144,learn,60000.0,Mon Jun 09 2025 10:40:51 GMT-0500 (Central Daylight Time),709039.6000000238,A,bodyenter,O,enter,1289,1,2832.100000023842,706207.5,7161,WL,C,14.0
5,45.05299997329712,learn,60000.0,Mon Jun 09 2025 10:40:51 GMT-0500 (Central Daylight Time),710305.8000000119,A,s,O,s,1246,1,1265.800000011921,709040.0,7161,WL,C,15.0
5,45.18600010871887,learn,60000.0,Mon Jun 09 2025 10:40:51 GMT-0500 (Central Daylight Time),710439.3000000119,A,sh,O,h,124,1,1399.300000011921,709040.0,7161,WL,C,15.0
5,45.46900010108948,learn,60000.0,Mon Jun 09 2025 10:40:51 GMT-0500 (Central Daylight Time),710722.4000000358,A,sho,O,o,262,1,1682.4000000357628,709040.0,7161,WL,C,15.0
5,45.75200009346008,learn,60000.0,Mon Jun 09 2025 10:40:51 GMT-0500 (Central Daylight Time),711005.7000000477,A,shor,O,r,275,1,1965.7000000476837,709040.0,7161,WL,C,15.0
5,45.85300016403198,learn,60000.0,Mon Jun 09 2025 10:40:51 GMT-0500 (Central Daylight Time),711105.8000000119,A,shore,O,e,80,1,2065.800000011921,709040.0,7161,WL,C,15.0
5,46.11899995803833,learn,60000.0,Mon Jun 09 2025 10:40:51 GMT-0500 (Central Daylight Time),711372.2000000477,A,shoreenter,O,enter,252,1,2332.2000000476837,709040.0,7161,WL,C,15.0
6,1.7159998416900635,distr,58284.00015830994,Mon Jun 09 2025 10:40:51 GMT-0500 (Central Daylight Time),780800.4000000358,B,s,O,s,1698,1,1716.1000000238419,779084.3000000119,7161,WL,C,1.0
6,2.248999834060669,distr,57751.00016593933,Mon Jun 09 2025 10:40:51 GMT-0500 (Central Daylight Time),781333.6000000238,B,sk,O,k,523,1,2249.300000011921,779084.3000000119,7161,WL,C,1.0
6,2.7319998741149902,distr,57268.00012588501,Mon Jun 09 2025 10:40:51 GMT-0500 (Central Daylight Time),781816.7000000477,B,sky,O,y,464,1,2732.400000035763,779084.3000000119,7161,WL,C,1.0
6,3.631999969482422,distr,56368.00003051758,Mon Jun 09 2025 10:40:51 GMT-0500 (Central Daylight Time),782716.8000000119,B,skyenter,O,enter,893,1,3632.5,779084.3000000119,7161,WL,C,1.0
6,4.23199987411499,distr,55768.00012588501,Mon Jun 09 2025 10:40:51 GMT-0500 (Central Daylight Time),783316.2000000477,B,d,O,d,585,1,599.1000000238419,782717.1000000238,7161,WL,C,2.0
6,4.31499981880188,distr,55685.00018119812,Mon Jun 09 2025 10:40:51 GMT-0500 (Central Daylight Time),783399.6000000238,B,do,O,o,73,1,682.5,782717.1000000238,7161,WL,C,2.0
6,4.597999811172485,distr,55402.000188827515,Mon Jun 09 2025 10:40:51 GMT-0500 (Central Daylight Time),783682.7000000477,B,dol,O,l,270,1,965.6000000238419,782717.1000000238,7161,WL,C,2.0
6,4.747999906539917,distr,55252.00009346008,Mon Jun 09 2025 10:40:51 GMT-0500 (Central Daylight Time),783832.7000000477,B,doll,O,l,131,1,1115.6000000238419,782717.1000000238,7161,WL,C,2.0
6,5.148999929428101,distr,54851.0000705719,Mon Jun 09 2025 10:40:51 GMT-0500 (Central Daylight Time),784232.8000000119,B,dolla,O,a,389,1,1515.699999988079,782717.1000000238,7161,WL,C,2.0
6,5.440999984741211,distr,54559.00001525879,Mon Jun 09 2025 10:40:51 GMT-0500 (Central Daylight Time),784525.6000000238,B,dollar,O,r,288,1,1808.5,782717.1000000238,7161,WL,C,2.0
6,7.0309998989105225,distr,52969.00010108948,Mon Jun 09 2025 10:40:51 GMT-0500 (Central Daylight Time),786115.2000000477,B,dollarenter,O,enter,1584,1,3398.100000023842,782717.1000000238,7161,WL,C,2.0
6,10.146999835968018,distr,49853.00016403198,Mon Jun 09 2025 10:40:51 GMT-0500 (Central Daylight Time),789231.2000000477,B,v,O,v,3099,1,3115.7000000476837,786115.5,7161,WL,C,3.0
6,10.36299991607666,distr,49637.00008392334,Mon Jun 09 2025 10:40:51 GMT-0500 (Central Daylight Time),789447.7000000477,B,va,O,a,206,1,3332.2000000476837,786115.5,7161,WL,C,3.0
6,10.763000011444092,distr,49236.99998855591,Mon Jun 09 2025 10:40:51 GMT-0500 (Central Daylight Time),789847.5,B,val,O,l,382,1,3732.0,786115.5,7161,WL,C,3.0
6,10.879999876022339,distr,49120.00012397766,Mon Jun 09 2025 10:40:51 GMT-0500 (Central Daylight Time),789964.3000000119,B,vall,O,l,103,1,3848.800000011921,786115.5,7161,WL,C,3.0
6,11.429999828338623,distr,48570.00017166138,Mon Jun 09 2025 10:40:51 GMT-0500 (Central Daylight Time),790514.3000000119,B,valle,O,e,529,1,4398.800000011921,786115.5,7161,WL,C,3.0
6,11.595999956130981,distr,48404.00004386902,Mon Jun 09 2025 10:40:51 GMT-0500 (Central Daylight Time),790680.6000000238,B,valley,O,y,147,1,4565.100000023842,786115.5,7161,WL,C,3.0
6,13.27899980545044,distr,46721.00019454956,Mon Jun 09 2025 10:40:51 GMT-0500 (Central Daylight Time),792363.4000000358,B,valleyenter,O,enter,1669,1,6247.900000035763,786115.5,7161,WL,C,3.0
6,16.444999933242798,distr,43555.0000667572,Mon Jun 09 2025 10:40:51 GMT-0500 (Central Daylight Time),795529.3000000119,B,b,O,b,3146,1,3165.5,792363.8000000119,7161,WL,C,4.0
6,16.611999988555908,distr,43388.00001144409,Mon Jun 09 2025 10:40:51 GMT-0500 (Central Daylight Time),795695.8000000119,B,bu,O,u,156,1,3332.0,792363.8000000119,7161,WL,C,4.0
6,16.860999822616577,distr,43139.00017738342,Mon Jun 09 2025 10:40:51 GMT-0500 (Central Daylight Time),795945.6000000238,B,but,O,t,238,1,3581.800000011921,792363.8000000119,7161,WL,C,4.0
6,17.027999877929688,distr,42972.00012207031,Mon Jun 09 2025 10:40:51 GMT-0500 (Central Daylight Time),796112.2000000477,B,butt,O,t,148,1,3748.400000035763,792363.8000000119,7161,WL,C,4.0
6,17.26099991798401,distr,42739.00008201599,Mon Jun 09 2025 10:40:51 GMT-0500 (Central Daylight Time),796345.5,B,butte,O,e,221,1,3981.699999988079,792363.8000000119,7161,WL,C,4.0
6,17.360999822616577,distr,42639.00017738342,Mon Jun 09 2025 10:40:51 GMT-0500 (Central Daylight Time),796445.7000000477,B,butter,O,r,93,1,4081.900000035763,792363.8000000119,7161,WL,C,4.0
6,17.694999933242798,distr,42305.0000667572,Mon Jun 09 2025 10:40:51 GMT-0500 (Central Daylight Time),796778.9000000358,B,butterenter,O,enter,313,1,4415.100000023842,792363.8000000119,7161,WL,C,4.0
6,18.194000005722046,distr,41805.999994277954,Mon Jun 09 2025 10:40:51 GMT-0500 (Central Daylight Time),797278.5,B,h,O,h,491,1,499.2999999523163,796779.2000000477,7161,WL,C,5.0
6,18.393999814987183,distr,41606.00018501282,Mon Jun 09 2025 10:40:51 GMT-0500 (Central Daylight Time),797478.5,B,ha,O,a,191,1,699.2999999523163,796779.2000000477,7161,WL,C,5.0
6,18.960999965667725,distr,41039.000034332275,Mon Jun 09 2025 10:40:51 GMT-0500 (Central Daylight Time),798045.0,B,hal,O,l,559,1,1265.7999999523163,796779.2000000477,7161,WL,C,5.0
6,19.0939998626709,distr,40906.0001373291,Mon Jun 09 2025 10:40:51 GMT-0500 (Central Daylight Time),798178.7000000477,B,hall,O,l,128,1,1399.5,796779.2000000477,7161,WL,C,5.0
6,22.025999784469604,distr,37974.000215530396,Mon Jun 09 2025 10:40:51 GMT-0500 (Central Daylight Time),801110.7000000477,B,hallenter,O,enter,2915,1,4331.5,796779.2000000477,7161,WL,C,5.0
6,26.607999801635742,distr,33392.00019836426,Mon Jun 09 2025 10:40:51 GMT-0500 (Central Daylight Time),805692.6000000238,B,c,O,c,4575,1,4581.600000023842,801111.0,7161,WL,C,6.0
6,26.757999897003174,distr,33242.000102996826,Mon Jun 09 2025 10:40:51 GMT-0500 (Central Daylight Time),805842.6000000238,B,ch,O,h,145,1,4731.600000023842,801111.0,7161,WL,C,6.0
6,27.20799994468689,distr,32792.00005531311,Mon Jun 09 2025 10:40:51 GMT-0500 (Central Daylight Time),806292.5,B,chr,O,r,435,1,5181.5,801111.0,7161,WL,C,6.0
6,27.45799994468689,distr,32542.00005531311,Mon Jun 09 2025 10:40:51 GMT-0500 (Central Daylight Time),806542.7000000477,B,chri,O,i,234,1,5431.700000047684,801111.0,7161,WL,C,6.0
6,27.72499990463257,distr,32275.00009536743,Mon Jun 09 2025 10:40:51 GMT-0500 (Central Daylight Time),806809.0,B,chris,O,s,247,1,5698.0,801111.0,7161,WL,C,6.0
6,27.991999864578247,distr,32008.000135421753,Mon Jun 09 2025 10:40:51 GMT-0500 (Central Daylight Time),807075.8000000119,B,christ,O,t,253,1,5964.800000011921,801111.0,7161,WL,C,6.0
6,29.19099998474121,distr,30809.00001525879,Mon Jun 09 2025 10:40:51 GMT-0500 (Central Daylight Time),808274.9000000358,B,christm,O,m,1185,1,7163.900000035763,801111.0,7161,WL,C,6.0
6,29.306999921798706,distr,30693.000078201294,Mon Jun 09 2025 10:40:51 GMT-0500 (Central Daylight Time),808391.6000000238,B,christma,O,a,106,1,7280.600000023842,801111.0,7161,WL,C,6.0
6,29.656999826431274,distr,30343.000173568726,Mon Jun 09 2025 10:40:51 GMT-0500 (Central Daylight Time),808741.7000000477,B,christmas,O,s,334,1,7630.700000047684,801111.0,7161,WL,C,6.0
6,30.0239999294281,distr,29976.0000705719,Mon Jun 09 2025 10:40:51 GMT-0500 (Central Daylight Time),809108.6000000238,B,christmasenter,O,enter,360,1,7997.600000023842,801111.0,7161,WL,C,6.0
6,30.58999991416931,distr,29410.00008583069,Mon Jun 09 2025 10:40:51 GMT-0500 (Central Daylight Time),809674.7000000477,B,d,O,d,561,1,565.8000000119209,809108.9000000358,7161,WL,C,7.0
6,30.70699977874756,distr,29293.00022125244,Mon Jun 09 2025 10:40:51 GMT-0500 (Central Daylight Time),809791.2000000477,B,di,O,i,107,1,682.3000000119209,809108.9000000358,7161,WL,C,7.0
6,30.85699987411499,distr,29143.00012588501,Mon Jun 09 2025 10:40:51 GMT-0500 (Central Daylight Time),809941.5,B,dia,O,a,134,1,832.5999999642372,809108.9000000358,7161,WL,C,7.0
6,31.12399983406067,distr,28876.00016593933,Mon Jun 09 2025 10:40:51 GMT-0500 (Central Daylight Time),810208.0,B,diam,O,m,256,1,1099.0999999642372,809108.9000000358,7161,WL,C,7.0
6,31.37399983406067,distr,28626.00016593933,Mon Jun 09 2025 10:40:51 GMT-0500 (Central Daylight Time),810457.9000000358,B,diamo,O,o,238,1,1349.0,809108.9000000358,7161,WL,C,7.0
6,31.490000009536743,distr,28509.999990463257,Mon Jun 09 2025 10:40:51 GMT-0500 (Central Daylight Time),810574.8000000119,B,diamon,O,n,100,1,1465.8999999761581,809108.9000000358,7161,WL,C,7.0
6,32.10699987411499,distr,27893.00012588501,Mon Jun 09 2025 10:40:51 GMT-0500 (Central Daylight Time),811191.1000000238,B,diamond,O,d,608,1,2082.199999988079,809108.9000000358,7161,WL,C,7.0
6,32.50699996948242,distr,27493.000030517578,Mon Jun 09 2025 10:40:51 GMT-0500 (Central Daylight Time),811591.0,B,diamondenter,O,enter,391,1,2482.099999964237,809108.9000000358,7161,WL,C,7.0
6,33.389999866485596,distr,26610.000133514404,Mon Jun 09 2025 10:40:51 GMT-0500 (Central Daylight Time),812473.8000000119,B,m,O,m,871,1,882.5,811591.3000000119,7161,WL,C,8.0
6,33.60599994659424,distr,26394.00005340576,Mon Jun 09 2025 10:40:51 GMT-0500 (Central Daylight Time),812690.5,B,mo,O,o,204,1,1099.199999988079,811591.3000000119,7161,WL,C,8.0
6,33.90599989891052,distr,26094.000101089478,Mon Jun 09 2025 10:40:51 GMT-0500 (Central Daylight Time),812990.5,B,mot,O,t,292,1,1399.199999988079,811591.3000000119,7161,WL,C,8.0
6,33.98899984359741,distr,26011.000156402588,Mon Jun 09 2025 10:40:51 GMT-0500 (Central Daylight Time),813073.8000000119,B,moth,O,h,71,1,1482.5,811591.3000000119,7161,WL,C,8.0
6,34.25599980354309,distr,25744.00019645691,Mon Jun 09 2025 10:40:51 GMT-0500 (Central Daylight Time),813340.5,B,mothe,O,e,251,1,1749.199999988079,811591.3000000119,7161,WL,C,8.0
6,34.33899998664856,distr,25661.00001335144,Mon Jun 09 2025 10:40:51 GMT-0500 (Central Daylight Time),813423.4000000358,B,mother,O,r,73,1,1832.1000000238419,811591.3000000119,7161,WL,C,8.0
6,36.52199983596802,distr,23478.000164031982,Mon Jun 09 2025 10:40:51 GMT-0500 (Central Daylight Time),815606.3000000119,B,motherenter,O,enter,2166,1,4015.0,811591.3000000119,7161,WL,C,8.0
6,36.92199993133545,distr,23078.00006866455,Mon Jun 09 2025 10:40:51 GMT-0500 (Central Daylight Time),816006.3000000119,B,m,O,m,391,1,399.69999998807907,815606.6000000238,7161,WL,C,9.0
6,37.10499978065491,distr,22895.000219345093,Mon Jun 09 2025 10:40:51 GMT-0500 (Central Daylight Time),816189.4000000358,B,me,O,e,167,1,582.8000000119209,815606.6000000238,7161,WL,C,9.0
6,37.30499982833862,distr,22695.000171661377,Mon Jun 09 2025 10:40:51 GMT-0500 (Central Daylight Time),816389.3000000119,B,mea,O,a,192,1,782.6999999880791,815606.6000000238,7161,WL,C,9.0
6,37.60499978065491,distr,22395.000219345093,Mon Jun 09 2025 10:40:51 GMT-0500 (Central Daylight Time),816688.9000000358,B,meat,O,t,288,1,1082.300000011921,815606.6000000238,7161,WL,C,9.0
6,43.90299987792969,distr,16097.000122070312,Mon Jun 09 2025 10:40:51 GMT-0500 (Central Daylight Time),822987.0,B,meatenter,O,enter,6292,1,7380.399999976158,815606.6000000238,7161,WL,C,9.0
6,58.46499991416931,distr,1535.0000858306885,Mon Jun 09 2025 10:40:51 GMT-0500 (Central Daylight Time),837549.4000000358,B,f,O,f,14546,1,14562.100000023842,822987.3000000119,7161,WL,C,10.0
6,58.64699983596802,distr,1353.0001640319824,Mon Jun 09 2025 10:40:51 GMT-0500 (Central Daylight Time),837732.5,B,fo,O,o,176,1,14745.199999988079,822987.3000000119,7161,WL,C,10.0
6,58.81399989128113,distr,1186.000108718872,Mon Jun 09 2025 10:40:51 GMT-0500 (Central Daylight Time),837899.2000000477,B,for,O,r,146,1,14911.900000035763,822987.3000000119,7161,WL,C,10.0
6,59.01300001144409,distr,986.9999885559082,Mon Jun 09 2025 10:40:51 GMT-0500 (Central Daylight Time),838099.0,B,fore,O,e,194,1,15111.699999988079,822987.3000000119,7161,WL,C,10.0
6,59.34699988365173,distr,653.0001163482666,Mon Jun 09 2025 10:40:51 GMT-0500 (Central Daylight Time),838432.2000000477,B,fores,O,s,315,1,15444.900000035763,822987.3000000119,7161,WL,C,10.0
6,59.52999997138977,distr,470.0000286102295,Mon Jun 09 2025 10:40:51 GMT-0500 (Central Daylight Time),838615.8000000119,B,forest,O,t,174,1,15628.5,822987.3000000119,7161,WL,C,10.0
6,60.01300001144409,distr,-13.000011444091797,Mon Jun 09 2025 10:40:51 GMT-0500 (Central Daylight Time),839098.8000000119,B,forestNone,O,None,478,1,16111.5,822987.3000000119,7161,WL,C,10.0
7,13.450999975204468,immed,46549.00002479553,Mon Jun 09 2025 10:40:51 GMT-0500 (Central Daylight Time),868639.7000000477,A,t,O,t,13442,1,13451.300000011921,855188.4000000358,7161,WL,C,1.0
7,13.6010000705719,immed,46398.9999294281,Mon Jun 09 2025 10:40:51 GMT-0500 (Central Daylight Time),868789.5,A,to,O,o,141,1,13601.099999964237,855188.4000000358,7161,WL,C,1.0
7,13.983999967575073,immed,46016.00003242493,Mon Jun 09 2025 10:40:51 GMT-0500 (Central Daylight Time),869172.7000000477,A,tow,O,w,376,1,13984.300000011921,855188.4000000358,7161,WL,C,1.0
7,14.283999919891357,immed,45716.00008010864,Mon Jun 09 2025 10:40:51 GMT-0500 (Central Daylight Time),869472.8000000119,A,towe,O,e,281,1,14284.399999976158,855188.4000000358,7161,WL,C,1.0
7,14.384000062942505,immed,45615.999937057495,Mon Jun 09 2025 10:40:51 GMT-0500 (Central Daylight Time),869572.8000000119,A,tower,O,r,84,1,14384.399999976158,855188.4000000358,7161,WL,C,1.0
7,15.184000015258789,immed,44815.99998474121,Mon Jun 09 2025 10:40:51 GMT-0500 (Central Daylight Time),870372.2000000477,A,towerenter,O,enter,793,1,15183.800000011921,855188.4000000358,7161,WL,C,1.0
7,16.116999864578247,immed,43883.00013542175,Mon Jun 09 2025 10:40:51 GMT-0500 (Central Daylight Time),871305.4000000358,A,q,O,q,921,1,932.9000000357628,870372.5,7161,WL,C,2.0
7,16.25,immed,43750.0,Mon Jun 09 2025 10:40:51 GMT-0500 (Central Daylight Time),871438.8000000119,A,qu,O,u,124,1,1066.300000011921,870372.5,7161,WL,C,2.0
7,16.59999990463257,immed,43400.00009536743,Mon Jun 09 2025 10:40:51 GMT-0500 (Central Daylight Time),871788.7000000477,A,que,O,e,334,1,1416.2000000476837,870372.5,7161,WL,C,2.0
7,16.75,immed,43250.0,Mon Jun 09 2025 10:40:51 GMT-0500 (Central Daylight Time),871938.8000000119,A,quee,O,e,130,1,1566.300000011921,870372.5,7161,WL,C,2.0
7,16.966000080108643,immed,43033.99991989136,Mon Jun 09 2025 10:40:51 GMT-0500 (Central Daylight Time),872155.0,A,queen,O,n,211,1,1782.5,870372.5,7161,WL,C,2.0
7,18.299999952316284,immed,41700.000047683716,Mon Jun 09 2025 10:40:51 GMT-0500 (Central Daylight Time),873488.1000000238,A,queenenter,O,enter,1315,1,3115.600000023842,870372.5,7161,WL,C,2.0
7,19.098999977111816,immed,40901.00002288818,Mon Jun 09 2025 10:40:51 GMT-0500 (Central Daylight Time),874287.8000000119,A,s,O,s,782,1,799.3999999761581,873488.4000000358,7161,WL,C,3.0
7,19.216000080108643,immed,40783.99991989136,Mon Jun 09 2025 10:40:51 GMT-0500 (Central Daylight Time),874404.6000000238,A,su,O,u,110,1,916.1999999880791,873488.4000000358,7161,WL,C,3.0
7,19.48199987411499,immed,40518.00012588501,Mon Jun 09 2025 10:40:51 GMT-0500 (Central Daylight Time),874670.7000000477,A,sug,O,g,249,1,1182.300000011921,873488.4000000358,7161,WL,C,3.0
7,19.66599988937378,immed,40334.00011062622,Mon Jun 09 2025 10:40:51 GMT-0500 (Central Daylight Time),874854.4000000358,A,suga,O,a,175,1,1366.0,873488.4000000358,7161,WL,C,3.0
7,19.98199987411499,immed,40018.00012588501,Mon Jun 09 2025 10:40:51 GMT-0500 (Central Daylight Time),875170.6000000238,A,sugar,O,r,303,1,1682.199999988079,873488.4000000358,7161,WL,C,3.0
7,21.131999969482422,immed,38868.00003051758,Mon Jun 09 2025 10:40:51 GMT-0500 (Central Daylight Time),876320.6000000238,A,sugarenter,O,enter,1139,1,2832.199999988079,873488.4000000358,7161,WL,C,3.0
7,21.98199987411499,immed,38018.00012588501,Mon Jun 09 2025 10:40:51 GMT-0500 (Central Daylight Time),877170.3000000119,A,h,O,h,829,1,849.3999999761581,876320.9000000358,7161,WL,C,4.0
7,22.197999954223633,immed,37802.00004577637,Mon Jun 09 2025 10:40:51 GMT-0500 (Central Daylight Time),877386.9000000358,A,ho,O,o,203,1,1066.0,876320.9000000358,7161,WL,C,4.0
7,22.264999866485596,immed,37735.000133514404,Mon Jun 09 2025 10:40:51 GMT-0500 (Central Daylight Time),877453.4000000358,A,hom,O,m,50,1,1132.5,876320.9000000358,7161,WL,C,4.0
7,23.0479998588562,immed,36952.0001411438,Mon Jun 09 2025 10:40:51 GMT-0500 (Central Daylight Time),878236.5,A,home,O,e,776,1,1915.5999999642372,876320.9000000358,7161,WL,C,4.0
7,23.282000064849854,immed,36717.99993515015,Mon Jun 09 2025 10:40:51 GMT-0500 (Central Daylight Time),878470.0,A,homeenter,O,enter,217,1,2149.099999964237,876320.9000000358,7161,WL,C,4.0
7,24.098000049591064,immed,35901.999950408936,Mon Jun 09 2025 10:40:51 GMT-0500 (Central Daylight Time),879286.2000000477,A,w,O,w,809,1,815.9000000357628,878470.3000000119,7161,WL,C,5.0
7,24.197999954223633,immed,35802.00004577637,Mon Jun 09 2025 10:40:51 GMT-0500 (Central Daylight Time),879386.2000000477,A,wh,O,h,79,1,915.9000000357628,878470.3000000119,7161,WL,C,5.0
7,24.313999891281128,immed,35686.00010871887,Mon Jun 09 2025 10:40:51 GMT-0500 (Central Daylight Time),879502.9000000358,A,whe,O,e,99,1,1032.6000000238419,878470.3000000119,7161,WL,C,5.0
7,24.530999898910522,immed,35469.00010108948,Mon Jun 09 2025 10:40:51 GMT-0500 (Central Daylight Time),879719.5,A,whea,O,a,199,1,1249.199999988079,878470.3000000119,7161,WL,C,5.0
7,24.69700002670288,immed,35302.99997329712,Mon Jun 09 2025 10:40:51 GMT-0500 (Central Daylight Time),879886.0,A,wheat,O,t,150,1,1415.699999988079,878470.3000000119,7161,WL,C,5.0
7,25.313999891281128,immed,34686.00010871887,Mon Jun 09 2025 10:40:51 GMT-0500 (Central Daylight Time),880502.5,A,wheatenter,O,enter,607,1,2032.199999988079,878470.3000000119,7161,WL,C,5.0
7,25.897000074386597,immed,34102.9999256134,Mon Jun 09 2025 10:40:51 GMT-0500 (Central Daylight Time),881085.6000000238,A,c,O,c,575,1,582.6999999880791,880502.9000000358,7161,WL,C,6.0
7,26.730000019073486,immed,33269.999980926514,Mon Jun 09 2025 10:40:51 GMT-0500 (Central Daylight Time),881918.7000000477,A,ca,O,a,816,1,1415.800000011921,880502.9000000358,7161,WL,C,6.0
7,26.846999883651733,immed,33153.00011634827,Mon Jun 09 2025 10:40:51 GMT-0500 (Central Daylight Time),882035.1000000238,A,cam,O,m,111,1,1532.199999988079,880502.9000000358,7161,WL,C,6.0
7,27.11299991607666,immed,32887.00008392334,Mon Jun 09 2025 10:40:51 GMT-0500 (Central Daylight Time),882302.0,A,camp,O,p,259,1,1799.0999999642372,880502.9000000358,7161,WL,C,6.0
7,27.680000066757202,immed,32319.999933242798,Mon Jun 09 2025 10:40:51 GMT-0500 (Central Daylight Time),882868.5,A,campenter,O,enter,552,1,2365.599999964237,880502.9000000358,7161,WL,C,6.0
7,28.44599986076355,immed,31554.00013923645,Mon Jun 09 2025 10:40:51 GMT-0500 (Central Daylight Time),883634.8000000119,A,d,O,d,746,1,766.0,882868.8000000119,7161,WL,C,7.0
7,28.579999923706055,immed,31420.000076293945,Mon Jun 09 2025 10:40:51 GMT-0500 (Central Daylight Time),883768.4000000358,A,do,O,o,123,1,899.6000000238419,882868.8000000119,7161,WL,C,7.0
7,28.713000059127808,immed,31286.999940872192,Mon Jun 09 2025 10:40:51 GMT-0500 (Central Daylight Time),883901.1000000238,A,doc,O,c,126,1,1032.300000011921,882868.8000000119,7161,WL,C,7.0
7,29.079999923706055,immed,30920.000076293945,Mon Jun 09 2025 10:40:51 GMT-0500 (Central Daylight Time),884268.2000000477,A,doct,O,t,360,1,1399.4000000357628,882868.8000000119,7161,WL,C,7.0
7,29.19599986076355,immed,30804.00013923645,Mon Jun 09 2025 10:40:51 GMT-0500 (Central Daylight Time),884384.9000000358,A,docto,O,o,105,1,1516.1000000238419,882868.8000000119,7161,WL,C,7.0
7,29.34599995613098,immed,30654.00004386902,Mon Jun 09 2025 10:40:51 GMT-0500 (Central Daylight Time),884534.5,A,doctor,O,r,133,1,1665.699999988079,882868.8000000119,7161,WL,C,7.0
7,29.728999853134155,immed,30271.000146865845,Mon Jun 09 2025 10:40:51 GMT-0500 (Central Daylight Time),884918.1000000238,A,doctorenter,O,enter,367,1,2049.300000011921,882868.8000000119,7161,WL,C,7.0
7,30.246999979019165,immed,29753.000020980835,Mon Jun 09 2025 10:40:51 GMT-0500 (Central Daylight Time),885435.6000000238,A,b,O,b,497,1,517.3000000119209,884918.3000000119,7161,WL,C,8.0
7,30.44599986076355,immed,29554.00013923645,Mon Jun 09 2025 10:40:51 GMT-0500 (Central Daylight Time),885634.2000000477,A,bo,O,o,186,1,715.9000000357628,884918.3000000119,7161,WL,C,8.0
7,30.861999988555908,immed,29138.00001144409,Mon Jun 09 2025 10:40:51 GMT-0500 (Central Daylight Time),886050.7000000477,A,boy,O,y,404,1,1132.4000000357628,884918.3000000119,7161,WL,C,8.0
7,32.7279999256134,immed,27272.000074386597,Mon Jun 09 2025 10:40:51 GMT-0500 (Central Daylight Time),887916.8000000119,A,boyenter,O,enter,1859,1,2998.5,884918.3000000119,7161,WL,C,8.0
7,33.795000076293945,immed,26204.999923706055,Mon Jun 09 2025 10:40:51 GMT-0500 (Central Daylight Time),888983.1000000238,A,f,O,f,1057,1,1066.1000000238419,887917.0,7161,WL,C,9.0
7,33.9779999256134,immed,26022.000074386597,Mon Jun 09 2025 10:40:51 GMT-0500 (Central Daylight Time),889166.6000000238,A,fl,O,l,167,1,1249.6000000238419,887917.0,7161,WL,C,9.0
7,34.16100001335144,immed,25838.99998664856,Mon Jun 09 2025 10:40:51 GMT-0500 (Central Daylight Time),889349.6000000238,A,fla,O,a,176,1,1432.6000000238419,887917.0,7161,WL,C,9.0
7,34.861000061035156,immed,25138.999938964844,Mon Jun 09 2025 10:40:51 GMT-0500 (Central Daylight Time),890049.4000000358,A,flag,O,g,680,1,2132.400000035763,887917.0,7161,WL,C,9.0
7,36.543999910354614,immed,23456.000089645386,Mon Jun 09 2025 10:40:51 GMT-0500 (Central Daylight Time),891732.4000000358,A,flagenter,O,enter,1669,1,3815.400000035763,887917.0,7161,WL,C,9.0
7,37.276999950408936,immed,22723.000049591064,Mon Jun 09 2025 10:40:51 GMT-0500 (Central Daylight Time),892465.5,A,n,O,n,713,1,732.6999999880791,891732.8000000119,7161,WL,C,10.0
7,37.42700004577637,immed,22572.999954223633,Mon Jun 09 2025 10:40:51 GMT-0500 (Central Daylight Time),892615.4000000358,A,na,O,a,132,1,882.6000000238419,891732.8000000119,7161,WL,C,10.0
7,37.626999855041504,immed,22373.000144958496,Mon Jun 09 2025 10:40:51 GMT-0500 (Central Daylight Time),892815.5,A,nai,O,i,190,1,1082.699999988079,891732.8000000119,7161,WL,C,10.0
7,37.71000003814697,immed,22289.999961853027,Mon Jun 09 2025 10:40:51 GMT-0500 (Central Daylight Time),892898.5,A,nail,O,l,63,1,1165.699999988079,891732.8000000119,7161,WL,C,10.0
7,38.876999855041504,immed,21123.000144958496,Mon Jun 09 2025 10:40:51 GMT-0500 (Central Daylight Time),894065.0,A,nailenter,O,enter,1156,1,2332.199999988079,891732.8000000119,7161,WL,C,10.0
7,39.59299993515015,immed,20407.000064849854,Mon Jun 09 2025 10:40:51 GMT-0500 (Central Daylight Time),894781.5,A,s,O,s,701,1,716.0999999642372,894065.4000000358,7161,WL,C,11.0
7,39.675999879837036,immed,20324.000120162964,Mon Jun 09 2025 10:40:51 GMT-0500 (Central Daylight Time),894864.6000000238,A,sh,O,h,72,1,799.1999999880791,894065.4000000358,7161,WL,C,11.0
7,39.925999879837036,immed,20074.000120162964,Mon Jun 09 2025 10:40:51 GMT-0500 (Central Daylight Time),895114.8000000119,A,sho,O,o,238,1,1049.3999999761581,894065.4000000358,7161,WL,C,11.0
7,40.15899991989136,immed,19841.000080108643,Mon Jun 09 2025 10:40:51 GMT-0500 (Central Daylight Time),895347.8000000119,A,shor,O,r,219,1,1282.3999999761581,894065.4000000358,7161,WL,C,11.0
7,40.24300003051758,immed,19756.999969482422,Mon Jun 09 2025 10:40:51 GMT-0500 (Central Daylight Time),895431.6000000238,A,shore,O,e,66,1,1366.199999988079,894065.4000000358,7161,WL,C,11.0
7,41.62599992752075,immed,18374.000072479248,Mon Jun 09 2025 10:40:51 GMT-0500 (Central Daylight Time),896814.2000000477,A,shoreenter,O,enter,1365,1,2748.800000011921,894065.4000000358,7161,WL,C,11.0
7,42.92400002479553,immed,17075.999975204468,Mon Jun 09 2025 10:40:51 GMT-0500 (Central Daylight Time),898113.8000000119,A,c,O,c,1289,1,1299.199999988079,896814.6000000238,7161,WL,C,12.0
