Number,acc_sum,block,block_c,block_cond,con_img,correct,correct_response,datetime,endtime,jitter,project,response,response_time,row_sel,session_number,start_end,starttime,subject_id,task,task_vers,trial
7,1,prac,1,A,circle.png,1,m,Tue May 27 2025 16:27:07 GMT-0500 (Central Daylight Time),66603.89999999851,1700,I,m,937,6,1,3427.2999999970198,63176.60000000149,8046,NTS,C,1
9,2,prac,1,A,circle.png,1,m,Tue May 27 2025 16:27:07 GMT-0500 (Central Daylight Time),69736.5,1500,I,m,839,8,1,3126.300000000745,66610.19999999925,8046,NTS,C,2
6,3,prac,1,A,circle.png,1,m,Tue May 27 2025 16:27:07 GMT-0500 (Central Daylight Time),73035.30000000075,1900,I,m,613,5,1,3293.400000002235,69741.89999999851,8046,NTS,C,3
8,4,prac,1,A,circle.png,1,m,Tue May 27 2025 16:27:07 GMT-0500 (Central Daylight Time),75984.39999999851,1600,I,m,550,7,1,2943.599999997765,73040.80000000075,8046,NTS,C,4
1,5,prac,1,A,circle.png,1,z,Tue May 27 2025 16:27:07 GMT-0500 (Central Daylight Time),78466.89999999851,1000,I,z,688,1,1,2476.7999999970198,75990.10000000149,8046,NTS,C,5
1,6,prac,1,A,circle.png,1,z,Tue May 27 2025 16:27:07 GMT-0500 (Central Daylight Time),80866.39999999851,1000,I,z,614,1,1,2394.5,78471.89999999851,8046,NTS,C,6
4,7,prac,1,A,circle.png,1,z,Tue May 27 2025 16:27:07 GMT-0500 (Central Daylight Time),83632.0,1400,I,z,567,4,1,2760.300000000745,80871.69999999925,8046,NTS,C,7
3,8,prac,1,A,circle.png,1,z,Tue May 27 2025 16:27:07 GMT-0500 (Central Daylight Time),86131.19999999925,1200,I,z,505,3,1,2493.89999999851,83637.30000000075,8046,NTS,C,8
2,9,prac,1,A,circle.png,1,z,Tue May 27 2025 16:27:07 GMT-0500 (Central Daylight Time),89396.89999999851,2000,I,z,470,2,1,3260.099999997765,86136.80000000075,8046,NTS,C,9
2,10,prac,1,A,circle.png,1,z,Tue May 27 2025 16:27:07 GMT-0500 (Central Daylight Time),92995.69999999925,2000,I,z,791,2,1,3593.599999997765,89402.10000000149,8046,NTS,C,10
8,11,prac,1,A,circle.png,1,m,Tue May 27 2025 16:27:07 GMT-0500 (Central Daylight Time),96111.30000000075,1600,I,m,726,7,1,3110.699999999255,93000.60000000149,8046,NTS,C,11
7,12,prac,1,A,circle.png,1,m,Tue May 27 2025 16:27:07 GMT-0500 (Central Daylight Time),99110.30000000075,1700,I,m,510,6,1,2993.900000002235,96116.39999999851,8046,NTS,C,12
9,0,prac,1,B,triangle.png,0,z,Tue May 27 2025 16:27:07 GMT-0500 (Central Daylight Time),125085.60000000149,1400,I,None,1516,8,1,3694.7000000029802,121390.89999999851,8046,NTS,C,1
4,1,prac,1,B,triangle.png,1,m,Tue May 27 2025 16:27:07 GMT-0500 (Central Daylight Time),128184.69999999925,1500,I,m,808,4,1,3094.099999997765,125090.60000000149,8046,NTS,C,2
9,2,prac,1,B,triangle.png,1,z,Tue May 27 2025 16:27:07 GMT-0500 (Central Daylight Time),131800.19999999925,1400,I,z,1416,8,1,3610.699999999255,128189.5,8046,NTS,C,3
7,3,prac,1,B,triangle.png,1,z,Tue May 27 2025 16:27:07 GMT-0500 (Central Daylight Time),135399.1000000015,2000,I,z,809,6,1,3593.800000000745,131805.30000000075,8046,NTS,C,4
3,4,prac,1,B,triangle.png,1,z,Tue May 27 2025 16:27:07 GMT-0500 (Central Daylight Time),138558.69999999925,1600,I,z,730,3,1,3154.39999999851,135404.30000000075,8046,NTS,C,5
6,5,prac,1,B,triangle.png,1,m,Tue May 27 2025 16:27:07 GMT-0500 (Central Daylight Time),141430.5,1000,I,m,1068,5,1,2866.699999999255,138563.80000000075,8046,NTS,C,6
7,6,prac,1,B,triangle.png,1,z,Tue May 27 2025 16:27:07 GMT-0500 (Central Daylight Time),145046.0,2000,I,z,827,6,1,3610.5,141435.5,8046,NTS,C,7
6,6,prac,1,B,triangle.png,0,m,Tue May 27 2025 16:27:07 GMT-0500 (Central Daylight Time),147495.30000000075,1000,I,z,659,5,1,2444.60000000149,145050.69999999925,8046,NTS,C,8
3,7,prac,1,B,triangle.png,1,z,Tue May 27 2025 16:27:07 GMT-0500 (Central Daylight Time),150494.5,1600,I,z,610,3,1,2994.39999999851,147500.1000000015,8046,NTS,C,9
1,8,prac,1,B,triangle.png,1,z,Tue May 27 2025 16:27:07 GMT-0500 (Central Daylight Time),153793.69999999925,1900,I,z,607,1,1,3294.5,150499.19999999925,8046,NTS,C,10
2,8,prac,1,B,triangle.png,0,m,Tue May 27 2025 16:27:07 GMT-0500 (Central Daylight Time),156926.80000000075,1700,I,z,652,2,1,3128.300000000745,153798.5,8046,NTS,C,11
8,9,prac,1,B,triangle.png,1,m,Tue May 27 2025 16:27:07 GMT-0500 (Central Daylight Time),159824.80000000075,1200,I,m,907,7,1,2892.60000000149,156932.19999999925,8046,NTS,C,12
8,0,test,1,A,circle.png,0,m,Tue May 27 2025 16:27:07 GMT-0500 (Central Daylight Time),177302.69999999925,1600,I,None,1516,7,1,3128.099999997765,174174.6000000015,8046,NTS,C,1
7,0,test,1,A,circle.png,0,m,Tue May 27 2025 16:27:07 GMT-0500 (Central Daylight Time),179751.80000000075,1700,I,z,718,6,1,2445.0,177306.80000000075,8046,NTS,C,2
8,1,test,1,A,circle.png,1,m,Tue May 27 2025 16:27:07 GMT-0500 (Central Daylight Time),181984.30000000075,1600,I,m,609,7,1,2228.300000000745,179756.0,8046,NTS,C,3
2,2,test,1,A,circle.png,1,z,Tue May 27 2025 16:27:07 GMT-0500 (Central Daylight Time),184533.6000000015,2000,I,z,528,2,1,2545.5,181988.1000000015,8046,NTS,C,4
7,3,test,1,A,circle.png,1,m,Tue May 27 2025 16:27:07 GMT-0500 (Central Daylight Time),187033.0,1700,I,m,767,6,1,2495.800000000745,184537.19999999925,8046,NTS,C,5
8,4,test,1,A,circle.png,1,m,Tue May 27 2025 16:27:07 GMT-0500 (Central Daylight Time),189215.3999999985,1600,I,m,552,7,1,2179.099999997765,187036.30000000075,8046,NTS,C,6
1,5,test,1,A,circle.png,1,z,Tue May 27 2025 16:27:07 GMT-0500 (Central Daylight Time),190865.0,1000,I,z,618,1,1,1645.8999999985099,189219.1000000015,8046,NTS,C,7
6,6,test,1,A,circle.png,1,m,Tue May 27 2025 16:27:07 GMT-0500 (Central Daylight Time),193397.5,1900,I,m,604,5,1,2528.699999999255,190868.80000000075,8046,NTS,C,8
1,7,test,1,A,circle.png,1,z,Tue May 27 2025 16:27:07 GMT-0500 (Central Daylight Time),195047.1000000015,1000,I,z,627,1,1,1646.2000000029802,193400.8999999985,8046,NTS,C,9
3,8,test,1,A,circle.png,1,z,Tue May 27 2025 16:27:07 GMT-0500 (Central Daylight Time),196779.69999999925,1200,I,z,506,3,1,1729.0,195050.69999999925,8046,NTS,C,10
2,9,test,1,A,circle.png,1,z,Tue May 27 2025 16:27:07 GMT-0500 (Central Daylight Time),199412.30000000075,2000,I,z,613,2,1,2628.60000000149,196783.69999999925,8046,NTS,C,11
4,10,test,1,A,circle.png,1,z,Tue May 27 2025 16:27:07 GMT-0500 (Central Daylight Time),201661.69999999925,1400,I,z,821,4,1,2245.699999999255,199416.0,8046,NTS,C,12
2,11,test,1,A,circle.png,1,z,Tue May 27 2025 16:27:07 GMT-0500 (Central Daylight Time),204344.1000000015,2000,I,z,659,2,1,2678.7000000029802,201665.3999999985,8046,NTS,C,13
3,12,test,1,A,circle.png,1,z,Tue May 27 2025 16:27:07 GMT-0500 (Central Daylight Time),206360.30000000075,1200,I,z,785,3,1,2012.6000000014901,204347.69999999925,8046,NTS,C,14
7,13,test,1,A,circle.png,1,m,Tue May 27 2025 16:27:07 GMT-0500 (Central Daylight Time),208775.8999999985,1700,I,m,693,6,1,2411.89999999851,206364.0,8046,NTS,C,15
9,14,test,1,A,circle.png,1,m,Tue May 27 2025 16:27:07 GMT-0500 (Central Daylight Time),210892.0,1500,I,m,597,8,1,2112.5,208779.5,8046,NTS,C,16
4,15,test,1,A,circle.png,1,z,Tue May 27 2025 16:27:07 GMT-0500 (Central Daylight Time),213074.80000000075,1400,I,z,750,4,1,2179.199999999255,210895.6000000015,8046,NTS,C,17
3,16,test,1,A,circle.png,1,z,Tue May 27 2025 16:27:07 GMT-0500 (Central Daylight Time),215007.3999999985,1200,I,z,710,3,1,1928.8999999985099,213078.5,8046,NTS,C,18
1,17,test,1,A,circle.png,1,z,Tue May 27 2025 16:27:07 GMT-0500 (Central Daylight Time),216723.6000000015,1000,I,z,698,1,1,1712.5,215011.1000000015,8046,NTS,C,19
8,18,test,1,A,circle.png,1,m,Tue May 27 2025 16:27:07 GMT-0500 (Central Daylight Time),218906.3999999985,1600,I,m,558,7,1,2179.2999999970198,216727.1000000015,8046,NTS,C,20
1,19,test,1,A,circle.png,1,z,Tue May 27 2025 16:27:07 GMT-0500 (Central Daylight Time),220522.19999999925,1000,I,z,591,1,1,1612.300000000745,218909.8999999985,8046,NTS,C,21
6,20,test,1,A,circle.png,1,m,Tue May 27 2025 16:27:07 GMT-0500 (Central Daylight Time),223138.30000000075,1900,I,m,684,5,1,2612.5,220525.80000000075,8046,NTS,C,22
4,21,test,1,A,circle.png,1,z,Tue May 27 2025 16:27:07 GMT-0500 (Central Daylight Time),225220.80000000075,1400,I,z,662,4,1,2078.900000002235,223141.8999999985,8046,NTS,C,23
9,22,test,1,A,circle.png,1,m,Tue May 27 2025 16:27:07 GMT-0500 (Central Daylight Time),227404.6000000015,1500,I,m,664,8,1,2180.300000000745,225224.30000000075,8046,NTS,C,24
9,1,test,1,B,triangle.png,1,z,Tue May 27 2025 16:27:07 GMT-0500 (Central Daylight Time),237800.19999999925,1400,I,z,935,8,1,2362.699999999255,235437.5,8046,NTS,C,1
7,2,test,1,B,triangle.png,1,z,Tue May 27 2025 16:27:07 GMT-0500 (Central Daylight Time),240082.69999999925,1600,I,z,665,14,1,2277.89999999851,237804.80000000075,8046,NTS,C,2
4,3,test,1,B,triangle.png,1,m,Tue May 27 2025 16:27:07 GMT-0500 (Central Daylight Time),241715.80000000075,1000,I,m,614,12,1,1629.800000000745,240086.0,8046,NTS,C,3
7,3,test,1,B,triangle.png,0,z,Tue May 27 2025 16:27:07 GMT-0500 (Central Daylight Time),244414.8999999985,2000,I,m,678,6,1,2695.5,241719.3999999985,8046,NTS,C,4
8,4,test,1,B,triangle.png,1,m,Tue May 27 2025 16:27:07 GMT-0500 (Central Daylight Time),246347.5,1200,I,m,715,7,1,1928.6000000014901,244418.8999999985,8046,NTS,C,5
1,5,test,1,B,triangle.png,1,z,Tue May 27 2025 16:27:07 GMT-0500 (Central Daylight Time),248413.69999999925,1400,I,z,646,9,1,2062.699999999255,246351.0,8046,NTS,C,6
2,6,test,1,B,triangle.png,1,m,Tue May 27 2025 16:27:07 GMT-0500 (Central Daylight Time),250762.80000000075,1700,I,m,632,2,1,2345.60000000149,248417.19999999925,8046,NTS,C,7
9,7,test,1,B,triangle.png,1,z,Tue May 27 2025 16:27:07 GMT-0500 (Central Daylight Time),253361.8999999985,1900,I,z,674,16,1,2595.7999999970198,250766.1000000015,8046,NTS,C,8
6,8,test,1,B,triangle.png,1,m,Tue May 27 2025 16:27:07 GMT-0500 (Central Daylight Time),255212.5,1000,I,m,831,5,1,1847.1000000014901,253365.3999999985,8046,NTS,C,9
6,9,test,1,B,triangle.png,1,m,Tue May 27 2025 16:27:07 GMT-0500 (Central Daylight Time),257744.3999999985,1500,I,m,1002,13,1,2527.7999999970198,255216.6000000015,8046,NTS,C,10
3,10,test,1,B,triangle.png,1,z,Tue May 27 2025 16:27:07 GMT-0500 (Central Daylight Time),259993.30000000075,1600,I,z,625,3,1,2245.400000002235,257747.8999999985,8046,NTS,C,11
6,11,test,1,B,triangle.png,1,m,Tue May 27 2025 16:27:07 GMT-0500 (Central Daylight Time),261692.8999999985,1000,I,m,680,5,1,1696.0,259996.8999999985,8046,NTS,C,12
1,12,test,1,B,triangle.png,1,z,Tue May 27 2025 16:27:07 GMT-0500 (Central Daylight Time),264442.1000000015,1900,I,z,825,1,1,2745.60000000149,261696.5,8046,NTS,C,13
4,13,test,1,B,triangle.png,1,m,Tue May 27 2025 16:27:07 GMT-0500 (Central Daylight Time),266741.3999999985,1500,I,m,771,4,1,2295.7999999970198,264445.6000000015,8046,NTS,C,14
8,14,test,1,B,triangle.png,1,m,Tue May 27 2025 16:27:07 GMT-0500 (Central Daylight Time),269207.0,1700,I,m,744,15,1,2462.0,266745.0,8046,NTS,C,15
2,15,test,1,B,triangle.png,1,m,Tue May 27 2025 16:27:07 GMT-0500 (Central Daylight Time),271173.1000000015,1200,I,m,746,10,1,1962.300000000745,269210.80000000075,8046,NTS,C,16
6,16,test,1,B,triangle.png,1,m,Tue May 27 2025 16:27:07 GMT-0500 (Central Daylight Time),273505.80000000075,1500,I,m,808,13,1,2329.10000000149,271176.69999999925,8046,NTS,C,17
3,17,test,1,B,triangle.png,1,z,Tue May 27 2025 16:27:07 GMT-0500 (Central Daylight Time),276338.30000000075,2000,I,z,816,11,1,2829.10000000149,273509.19999999925,8046,NTS,C,18
9,18,test,1,B,triangle.png,1,z,Tue May 27 2025 16:27:07 GMT-0500 (Central Daylight Time),279437.6000000015,1900,I,z,1171,16,1,3096.10000000149,276341.5,8046,NTS,C,19
1,19,test,1,B,triangle.png,1,z,Tue May 27 2025 16:27:07 GMT-0500 (Central Daylight Time),281936.69999999925,1900,I,z,568,1,1,2495.699999999255,279441.0,8046,NTS,C,20
4,20,test,1,B,triangle.png,1,m,Tue May 27 2025 16:27:07 GMT-0500 (Central Daylight Time),283602.19999999925,1000,I,m,648,12,1,1661.699999999255,281940.5,8046,NTS,C,21
7,21,test,1,B,triangle.png,1,z,Tue May 27 2025 16:27:07 GMT-0500 (Central Daylight Time),286268.30000000075,2000,I,z,647,6,1,2662.5,283605.80000000075,8046,NTS,C,22
8,22,test,1,B,triangle.png,1,m,Tue May 27 2025 16:27:07 GMT-0500 (Central Daylight Time),288817.69999999925,1700,I,m,825,15,1,2545.800000000745,286271.8999999985,8046,NTS,C,23
3,23,test,1,B,triangle.png,1,z,Tue May 27 2025 16:27:07 GMT-0500 (Central Daylight Time),291367.0,2000,I,z,528,11,1,2545.800000000745,288821.19999999925,8046,NTS,C,24
4,0,prac,1,C,circle.png,0,z,Tue May 27 2025 16:27:07 GMT-0500 (Central Daylight Time),322173.69999999925,1000,I,None,1515,4,1,3295.099999997765,318878.6000000015,8046,NTS,C,1
6,1,prac,1,C,circle.png,1,m,Tue May 27 2025 16:27:07 GMT-0500 (Central Daylight Time),325972.80000000075,2000,I,m,1012,5,1,3794.199999999255,322178.6000000015,8046,NTS,C,2
8,2,prac,1,C,triangle.png,1,m,Tue May 27 2025 16:27:07 GMT-0500 (Central Daylight Time),329588.5,1400,I,m,1421,7,1,3610.800000000745,325977.69999999925,8046,NTS,C,3
9,3,prac,1,C,circle.png,1,m,Tue May 27 2025 16:27:07 GMT-0500 (Central Daylight Time),333520.19999999925,1900,I,m,1233,8,1,3926.0,329594.19999999925,8046,NTS,C,4
1,4,prac,1,C,circle.png,1,z,Tue May 27 2025 16:27:07 GMT-0500 (Central Daylight Time),336769.19999999925,1700,I,z,765,1,1,3244.199999999255,333525.0,8046,NTS,C,5
4,5,prac,1,C,circle.png,1,z,Tue May 27 2025 16:27:07 GMT-0500 (Central Daylight Time),339568.3999999985,1000,I,z,1008,4,1,2794.39999999851,336774.0,8046,NTS,C,6
3,6,prac,1,C,triangle.png,1,z,Tue May 27 2025 16:27:07 GMT-0500 (Central Daylight Time),342950.80000000075,1500,I,z,1093,3,1,3377.400000002235,339573.3999999985,8046,NTS,C,7
8,7,prac,1,C,triangle.png,1,m,Tue May 27 2025 16:27:07 GMT-0500 (Central Daylight Time),346316.30000000075,1400,I,m,1178,7,1,3360.800000000745,342955.5,8046,NTS,C,8
2,7,prac,1,C,triangle.png,0,m,Tue May 27 2025 16:27:07 GMT-0500 (Central Daylight Time),350215.19999999925,1600,I,None,1516,2,1,3894.0,346321.19999999925,8046,NTS,C,9
9,8,prac,1,C,circle.png,1,m,Tue May 27 2025 16:27:07 GMT-0500 (Central Daylight Time),354097.30000000075,1900,I,m,1190,8,1,3877.199999999255,350220.1000000015,8046,NTS,C,10
1,9,prac,1,C,circle.png,1,z,Tue May 27 2025 16:27:07 GMT-0500 (Central Daylight Time),357229.6000000015,1700,I,z,643,1,1,3127.5,354102.1000000015,8046,NTS,C,11
7,10,prac,1,C,triangle.png,1,z,Tue May 27 2025 16:27:07 GMT-0500 (Central Daylight Time),360028.6000000015,1200,I,z,804,6,1,2794.10000000149,357234.5,8046,NTS,C,12
6,0,test,1,C,triangle.png,0,m,Tue May 27 2025 16:27:07 GMT-0500 (Central Daylight Time),368076.1000000015,1000,I,None,1516,13,1,2529.400000002235,365546.69999999925,8046,NTS,C,1
3,1,test,1,C,circle.png,1,z,Tue May 27 2025 16:27:07 GMT-0500 (Central Daylight Time),370408.80000000075,1600,I,z,709,11,1,2328.800000000745,368080.0,8046,NTS,C,2
7,2,test,1,C,triangle.png,1,z,Tue May 27 2025 16:27:07 GMT-0500 (Central Daylight Time),373474.3999999985,1700,I,z,1339,22,1,3061.89999999851,370412.5,8046,NTS,C,3
4,3,test,1,C,triangle.png,1,m,Tue May 27 2025 16:27:07 GMT-0500 (Central Daylight Time),376090.19999999925,1500,I,m,1091,12,1,2612.099999997765,373478.1000000015,8046,NTS,C,4
2,4,test,1,C,triangle.png,1,m,Tue May 27 2025 16:27:07 GMT-0500 (Central Daylight Time),379322.6000000015,2000,I,m,1207,2,1,3228.60000000149,376094.0,8046,NTS,C,5
1,5,test,1,C,circle.png,1,z,Tue May 27 2025 16:27:07 GMT-0500 (Central Daylight Time),381038.8999999985,1000,I,z,695,1,1,1710.5,379328.3999999985,8046,NTS,C,6
7,5,test,1,C,circle.png,0,m,Tue May 27 2025 16:27:07 GMT-0500 (Central Daylight Time),384571.0,2000,I,None,1516,14,1,3528.300000000745,381042.69999999925,8046,NTS,C,7
4,5,test,1,C,triangle.png,0,m,Tue May 27 2025 16:27:07 GMT-0500 (Central Daylight Time),387370.19999999925,1500,I,z,1266,20,1,2795.39999999851,384574.80000000075,8046,NTS,C,8
1,6,test,1,C,triangle.png,1,z,Tue May 27 2025 16:27:07 GMT-0500 (Central Daylight Time),390252.3999999985,1900,I,z,962,9,1,2878.2999999970198,387374.1000000015,8046,NTS,C,9
7,7,test,1,C,triangle.png,1,z,Tue May 27 2025 16:27:07 GMT-0500 (Central Daylight Time),393085.0,1700,I,z,1105,6,1,2828.800000000745,390256.19999999925,8046,NTS,C,10
4,7,test,1,C,circle.png,0,z,Tue May 27 2025 16:27:07 GMT-0500 (Central Daylight Time),395950.80000000075,1400,I,m,1444,4,1,2862.10000000149,393088.69999999925,8046,NTS,C,11
3,7,test,1,C,triangle.png,0,z,Tue May 27 2025 16:27:07 GMT-0500 (Central Daylight Time),398683.19999999925,1200,I,None,1515,3,1,2728.800000000745,395954.3999999985,8046,NTS,C,12
1,8,test,1,C,triangle.png,1,z,Tue May 27 2025 16:27:07 GMT-0500 (Central Daylight Time),401232.3999999985,1900,I,z,618,17,1,2545.7999999970198,398686.6000000015,8046,NTS,C,13
3,8,test,1,C,circle.png,0,z,Tue May 27 2025 16:27:07 GMT-0500 (Central Daylight Time),404364.69999999925,1600,I,None,1516,19,1,3128.300000000745,401236.3999999985,8046,NTS,C,14
8,9,test,1,C,circle.png,1,m,Tue May 27 2025 16:27:07 GMT-0500 (Central Daylight Time),406447.30000000075,1200,I,m,860,15,1,2078.800000000745,404368.5,8046,NTS,C,15
6,10,test,1,C,circle.png,1,m,Tue May 27 2025 16:27:07 GMT-0500 (Central Daylight Time),409279.8999999985,1900,I,m,910,21,1,2829.0,406450.8999999985,8046,NTS,C,16
8,11,test,1,C,triangle.png,1,m,Tue May 27 2025 16:27:07 GMT-0500 (Central Daylight Time),411545.80000000075,1600,I,m,633,7,1,2262.400000002235,409283.3999999985,8046,NTS,C,17
9,11,test,1,C,triangle.png,0,z,Tue May 27 2025 16:27:07 GMT-0500 (Central Daylight Time),414478.19999999925,1400,I,None,1515,16,1,2928.800000000745,411549.3999999985,8046,NTS,C,18
9,12,test,1,C,circle.png,1,m,Tue May 27 2025 16:27:07 GMT-0500 (Central Daylight Time),416794.5,1500,I,m,791,8,1,2312.60000000149,414481.8999999985,8046,NTS,C,19
2,13,test,1,C,circle.png,1,z,Tue May 27 2025 16:27:07 GMT-0500 (Central Daylight Time),419709.69999999925,1700,I,z,1195,18,1,2911.599999997765,416798.1000000015,8046,NTS,C,20
6,14,test,1,C,circle.png,1,m,Tue May 27 2025 16:27:07 GMT-0500 (Central Daylight Time),423125.3999999985,1900,I,m,1487,5,1,3412.199999999255,419713.19999999925,8046,NTS,C,21
9,14,test,1,C,circle.png,0,m,Tue May 27 2025 16:27:07 GMT-0500 (Central Daylight Time),426158.1000000015,1500,I,None,1516,24,1,3027.0,423131.1000000015,8046,NTS,C,22
8,14,test,1,C,triangle.png,0,m,Tue May 27 2025 16:27:07 GMT-0500 (Central Daylight Time),429123.69999999925,1600,I,z,1348,23,1,2962.0,426161.69999999925,8046,NTS,C,23
2,14,test,1,C,circle.png,0,z,Tue May 27 2025 16:27:07 GMT-0500 (Central Daylight Time),432356.19999999925,1700,I,None,1516,10,1,3228.800000000745,429127.3999999985,8046,NTS,C,24
9,0,test,2,C,triangle.png,0,z,Tue May 27 2025 16:27:07 GMT-0500 (Central Daylight Time),438670.69999999925,1400,I,None,1516,24,1,2929.199999999255,435741.5,8046,NTS,C,1
7,1,test,2,C,circle.png,1,m,Tue May 27 2025 16:27:07 GMT-0500 (Central Daylight Time),441969.5,2000,I,m,1267,22,1,3294.699999999255,438674.80000000075,8046,NTS,C,2
2,2,test,2,C,circle.png,1,z,Tue May 27 2025 16:27:07 GMT-0500 (Central Daylight Time),444912.69999999925,1700,I,z,1226,10,1,2939.099999997765,441973.6000000015,8046,NTS,C,3
4,2,test,2,C,triangle.png,0,m,Tue May 27 2025 16:27:07 GMT-0500 (Central Daylight Time),447951.0,1500,I,None,1515,20,1,3034.0,444917.0,8046,NTS,C,4
9,2,test,2,C,circle.png,0,m,Tue May 27 2025 16:27:07 GMT-0500 (Central Daylight Time),450983.6000000015,1500,I,None,1516,8,1,3028.800000000745,447954.80000000075,8046,NTS,C,5
1,3,test,2,C,circle.png,1,z,Tue May 27 2025 16:27:07 GMT-0500 (Central Daylight Time),453432.69999999925,1000,I,z,1418,1,1,2445.599999997765,450987.1000000015,8046,NTS,C,6
2,3,test,2,C,triangle.png,0,m,Tue May 27 2025 16:27:07 GMT-0500 (Central Daylight Time),456964.8999999985,2000,I,None,1516,2,1,3528.39999999851,453436.5,8046,NTS,C,7
4,4,test,2,C,triangle.png,1,m,Tue May 27 2025 16:27:07 GMT-0500 (Central Daylight Time),459164.30000000075,1500,I,m,680,12,1,2195.699999999255,456968.6000000015,8046,NTS,C,8
3,5,test,2,C,circle.png,1,z,Tue May 27 2025 16:27:07 GMT-0500 (Central Daylight Time),461796.8999999985,1600,I,z,1013,19,1,2628.89999999851,459168.0,8046,NTS,C,9
6,6,test,2,C,triangle.png,1,m,Tue May 27 2025 16:27:07 GMT-0500 (Central Daylight Time),463946.1000000015,1000,I,m,1117,13,1,2145.0,461801.1000000015,8046,NTS,C,10
7,7,test,2,C,circle.png,1,m,Tue May 27 2025 16:27:07 GMT-0500 (Central Daylight Time),467145.19999999925,2000,I,m,1167,14,1,3195.39999999851,463949.80000000075,8046,NTS,C,11
8,8,test,2,C,triangle.png,1,m,Tue May 27 2025 16:27:07 GMT-0500 (Central Daylight Time),469877.3999999985,1600,I,m,1104,7,1,2728.7999999970198,467148.6000000015,8046,NTS,C,12
8,9,test,2,C,circle.png,1,m,Tue May 27 2025 16:27:07 GMT-0500 (Central Daylight Time),471743.8999999985,1200,I,m,643,15,1,1862.5999999977648,469881.30000000075,8046,NTS,C,13
3,10,test,2,C,circle.png,1,z,Tue May 27 2025 16:27:07 GMT-0500 (Central Daylight Time),474192.80000000075,1600,I,z,818,11,1,2445.0,471747.80000000075,8046,NTS,C,14
2,11,test,2,C,circle.png,1,z,Tue May 27 2025 16:27:07 GMT-0500 (Central Daylight Time),477058.6000000015,1700,I,z,1141,18,1,2862.0,474196.6000000015,8046,NTS,C,15
4,12,test,2,C,circle.png,1,z,Tue May 27 2025 16:27:07 GMT-0500 (Central Daylight Time),479557.8999999985,1400,I,z,1079,4,1,2495.699999999255,477062.19999999925,8046,NTS,C,16
6,13,test,2,C,triangle.png,1,m,Tue May 27 2025 16:27:07 GMT-0500 (Central Daylight Time),481707.19999999925,1000,I,m,1123,21,1,2145.89999999851,479561.30000000075,8046,NTS,C,17
9,13,test,2,C,triangle.png,0,z,Tue May 27 2025 16:27:07 GMT-0500 (Central Daylight Time),483956.3999999985,1400,I,m,830,16,1,2245.39999999851,481711.0,8046,NTS,C,18
1,14,test,2,C,triangle.png,1,z,Tue May 27 2025 16:27:07 GMT-0500 (Central Daylight Time),486855.69999999925,1900,I,z,977,17,1,2895.39999999851,483960.30000000075,8046,NTS,C,19
1,15,test,2,C,triangle.png,1,z,Tue May 27 2025 16:27:07 GMT-0500 (Central Daylight Time),489421.3999999985,1900,I,z,638,9,1,2561.89999999851,486859.5,8046,NTS,C,20
8,16,test,2,C,circle.png,1,m,Tue May 27 2025 16:27:07 GMT-0500 (Central Daylight Time),491354.1000000015,1200,I,m,708,23,1,1928.6000000014901,489425.5,8046,NTS,C,21
3,17,test,2,C,triangle.png,1,z,Tue May 27 2025 16:27:07 GMT-0500 (Central Daylight Time),493403.5,1200,I,z,823,3,1,2045.699999999255,491357.80000000075,8046,NTS,C,22
6,18,test,2,C,circle.png,1,m,Tue May 27 2025 16:27:07 GMT-0500 (Central Daylight Time),496169.19999999925,1900,I,m,834,5,1,2761.800000000745,493407.3999999985,8046,NTS,C,23
7,18,test,2,C,triangle.png,0,z,Tue May 27 2025 16:27:07 GMT-0500 (Central Daylight Time),499401.6000000015,1700,I,None,1516,6,1,3228.5,496173.1000000015,8046,NTS,C,24
6,1,test,3,C,triangle.png,1,m,Tue May 27 2025 16:27:07 GMT-0500 (Central Daylight Time),504433.6000000015,1000,I,m,851,13,1,1879.800000000745,502553.80000000075,8046,NTS,C,1
9,2,test,3,C,circle.png,1,m,Tue May 27 2025 16:27:07 GMT-0500 (Central Daylight Time),506982.69999999925,1500,I,m,1020,24,1,2545.5,504437.19999999925,8046,NTS,C,2
3,3,test,3,C,triangle.png,1,z,Tue May 27 2025 16:27:07 GMT-0500 (Central Daylight Time),509448.6000000015,1200,I,z,1235,19,1,2462.300000000745,506986.30000000075,8046,NTS,C,3
6,4,test,3,C,circle.png,1,m,Tue May 27 2025 16:27:07 GMT-0500 (Central Daylight Time),511997.6000000015,1900,I,m,621,21,1,2545.0,509452.6000000015,8046,NTS,C,4
2,4,test,3,C,triangle.png,0,m,Tue May 27 2025 16:27:07 GMT-0500 (Central Daylight Time),514880.30000000075,2000,I,z,860,2,1,2879.0,512001.30000000075,8046,NTS,C,5
9,4,test,3,C,triangle.png,0,z,Tue May 27 2025 16:27:07 GMT-0500 (Central Daylight Time),517479.19999999925,1400,I,m,1177,16,1,2595.39999999851,514883.80000000075,8046,NTS,C,6
8,5,test,3,C,triangle.png,1,m,Tue May 27 2025 16:27:07 GMT-0500 (Central Daylight Time),520178.3999999985,1600,I,m,1082,23,1,2695.39999999851,517483.0,8046,NTS,C,7
8,6,test,3,C,circle.png,1,m,Tue May 27 2025 16:27:07 GMT-0500 (Central Daylight Time),522061.19999999925,1200,I,m,655,15,1,1879.199999999255,520182.0,8046,NTS,C,8
9,7,test,3,C,circle.png,1,m,Tue May 27 2025 16:27:07 GMT-0500 (Central Daylight Time),524826.8000000007,1500,I,m,1248,8,1,2761.900000002235,522064.8999999985,8046,NTS,C,9
4,7,test,3,C,circle.png,0,z,Tue May 27 2025 16:27:07 GMT-0500 (Central Daylight Time),527175.8999999985,1400,I,m,926,20,1,2345.7999999970198,524830.1000000015,8046,NTS,C,10
3,8,test,3,C,circle.png,1,z,Tue May 27 2025 16:27:07 GMT-0500 (Central Daylight Time),530108.6000000015,1600,I,z,1305,11,1,2928.900000002235,527179.6999999993,8046,NTS,C,11
7,8,test,3,C,triangle.png,0,z,Tue May 27 2025 16:27:07 GMT-0500 (Central Daylight Time),533342.1999999993,1700,I,None,1517,6,1,3229.599999997765,530112.6000000015,8046,NTS,C,12
4,8,test,3,C,circle.png,0,z,Tue May 27 2025 16:27:07 GMT-0500 (Central Daylight Time),535607.0,1400,I,m,844,4,1,2260.699999999255,533346.3000000007,8046,NTS,C,13
8,8,test,3,C,triangle.png,0,m,Tue May 27 2025 16:27:07 GMT-0500 (Central Daylight Time),538739.3999999985,1600,I,None,1516,7,1,3128.7999999970198,535610.6000000015,8046,NTS,C,14
1,9,test,3,C,triangle.png,1,z,Tue May 27 2025 16:27:07 GMT-0500 (Central Daylight Time),541571.8000000007,1900,I,z,906,9,1,2828.699999999255,538743.1000000015,8046,NTS,C,15
7,9,test,3,C,circle.png,0,m,Tue May 27 2025 16:27:07 GMT-0500 (Central Daylight Time),544937.3999999985,2000,I,z,1342,14,1,3361.89999999851,541575.5,8046,NTS,C,16
2,10,test,3,C,circle.png,1,z,Tue May 27 2025 16:27:07 GMT-0500 (Central Daylight Time),547803.3000000007,1700,I,z,1140,10,1,2862.10000000149,544941.1999999993,8046,NTS,C,17
4,11,test,3,C,triangle.png,1,m,Tue May 27 2025 16:27:07 GMT-0500 (Central Daylight Time),550585.6000000015,1500,I,m,1250,12,1,2778.7000000029802,547806.8999999985,8046,NTS,C,18
1,12,test,3,C,circle.png,1,z,Tue May 27 2025 16:27:07 GMT-0500 (Central Daylight Time),552618.3999999985,1000,I,z,999,1,1,2029.199999999255,550589.1999999993,8046,NTS,C,19
1,13,test,3,C,circle.png,1,z,Tue May 27 2025 16:27:07 GMT-0500 (Central Daylight Time),554517.5,1000,I,z,879,17,1,1895.699999999255,552621.8000000007,8046,NTS,C,20
6,13,test,3,C,circle.png,0,m,Tue May 27 2025 16:27:07 GMT-0500 (Central Daylight Time),557950.1000000015,1900,I,None,1516,5,1,3429.10000000149,554521.0,8046,NTS,C,21
2,14,test,3,C,triangle.png,1,m,Tue May 27 2025 16:27:07 GMT-0500 (Central Daylight Time),561232.1999999993,2000,I,m,1259,18,1,3278.099999997765,557954.1000000015,8046,NTS,C,22
3,15,test,3,C,triangle.png,1,z,Tue May 27 2025 16:27:07 GMT-0500 (Central Daylight Time),563698.1000000015,1200,I,z,1155,3,1,2462.2000000029802,561235.8999999985,8046,NTS,C,23
7,16,test,3,C,triangle.png,1,z,Tue May 27 2025 16:27:07 GMT-0500 (Central Daylight Time),566414.1000000015,1700,I,z,987,22,1,2710.7000000029802,563703.3999999985,8046,NTS,C,24
9,1,test,4,C,triangle.png,1,z,Tue May 27 2025 16:27:07 GMT-0500 (Central Daylight Time),570929.5,1400,I,z,1084,16,1,2513.0,568416.5,8046,NTS,C,1
8,2,test,4,C,triangle.png,1,m,Tue May 27 2025 16:27:07 GMT-0500 (Central Daylight Time),573428.3999999985,1600,I,m,880,7,1,2495.199999999255,570933.1999999993,8046,NTS,C,2
3,3,test,4,C,triangle.png,1,z,Tue May 27 2025 16:27:07 GMT-0500 (Central Daylight Time),575394.6999999993,1200,I,z,750,3,1,1962.8999999985099,573431.8000000007,8046,NTS,C,3
9,4,test,4,C,circle.png,1,m,Tue May 27 2025 16:27:07 GMT-0500 (Central Daylight Time),577643.8999999985,1500,I,m,723,24,1,2245.599999997765,575398.3000000007,8046,NTS,C,4
7,5,test,4,C,triangle.png,1,z,Tue May 27 2025 16:27:07 GMT-0500 (Central Daylight Time),580376.1999999993,1700,I,z,1002,22,1,2728.5,577647.6999999993,8046,NTS,C,5
2,5,test,4,C,triangle.png,0,m,Tue May 27 2025 16:27:07 GMT-0500 (Central Daylight Time),583292.3000000007,2000,I,z,897,18,1,2912.400000002235,580379.8999999985,8046,NTS,C,6
4,5,test,4,C,circle.png,0,z,Tue May 27 2025 16:27:07 GMT-0500 (Central Daylight Time),586231.8000000007,1400,I,None,1523,20,1,2935.699999999255,583296.1000000015,8046,NTS,C,7
6,5,test,4,C,triangle.png,0,m,Tue May 27 2025 16:27:07 GMT-0500 (Central Daylight Time),588757.0,1000,I,None,1516,13,1,2521.199999999255,586235.8000000007,8046,NTS,C,8
1,6,test,4,C,circle.png,1,z,Tue May 27 2025 16:27:07 GMT-0500 (Central Daylight Time),590639.6999999993,1000,I,z,859,17,1,1878.8999999985099,588760.8000000007,8046,NTS,C,9
1,7,test,4,C,triangle.png,1,z,Tue May 27 2025 16:27:07 GMT-0500 (Central Daylight Time),593272.3000000007,1900,I,z,702,9,1,2628.800000000745,590643.5,8046,NTS,C,10
3,8,test,4,C,circle.png,1,z,Tue May 27 2025 16:27:07 GMT-0500 (Central Daylight Time),595738.5,1600,I,z,834,11,1,2462.300000000745,593276.1999999993,8046,NTS,C,11
7,9,test,4,C,circle.png,1,m,Tue May 27 2025 16:27:07 GMT-0500 (Central Daylight Time),598903.8999999985,2000,I,m,1135,14,1,3162.099999997765,595741.8000000007,8046,NTS,C,12
1,10,test,4,C,circle.png,1,z,Tue May 27 2025 16:27:07 GMT-0500 (Central Daylight Time),601053.3000000007,1000,I,z,1129,1,1,2145.5,598907.8000000007,8046,NTS,C,13
8,11,test,4,C,triangle.png,1,m,Tue May 27 2025 16:27:07 GMT-0500 (Central Daylight Time),603836.6999999993,1600,I,m,1164,23,1,2779.5,601057.1999999993,8046,NTS,C,14
2,12,test,4,C,circle.png,1,z,Tue May 27 2025 16:27:07 GMT-0500 (Central Daylight Time),606618.1999999993,1700,I,z,1050,10,1,2777.699999999255,603840.5,8046,NTS,C,15
2,13,test,4,C,triangle.png,1,m,Tue May 27 2025 16:27:07 GMT-0500 (Central Daylight Time),610133.6000000015,2000,I,m,1496,2,1,3511.2000000029802,606622.3999999985,8046,NTS,C,16
8,14,test,4,C,circle.png,1,m,Tue May 27 2025 16:27:07 GMT-0500 (Central Daylight Time),612716.1999999993,1200,I,m,1364,15,1,2578.89999999851,610137.3000000007,8046,NTS,C,17
6,15,test,4,C,circle.png,1,m,Tue May 27 2025 16:27:07 GMT-0500 (Central Daylight Time),615332.0,1900,I,m,697,21,1,2612.199999999255,612719.8000000007,8046,NTS,C,18
3,16,test,4,C,triangle.png,1,z,Tue May 27 2025 16:27:07 GMT-0500 (Central Daylight Time),617564.5,1200,I,z,1005,19,1,2228.89999999851,615335.6000000015,8046,NTS,C,19
4,17,test,4,C,triangle.png,1,m,Tue May 27 2025 16:27:07 GMT-0500 (Central Daylight Time),620547.0,1500,I,m,1456,12,1,2978.60000000149,617568.3999999985,8046,NTS,C,20
9,17,test,4,C,circle.png,0,m,Tue May 27 2025 16:27:07 GMT-0500 (Central Daylight Time),623579.3999999985,1500,I,None,1515,8,1,3028.5,620550.8999999985,8046,NTS,C,21
4,18,test,4,C,circle.png,1,z,Tue May 27 2025 16:27:07 GMT-0500 (Central Daylight Time),626128.6999999993,1400,I,z,1118,4,1,2545.800000000745,623582.8999999985,8046,NTS,C,22
6,19,test,4,C,circle.png,1,m,Tue May 27 2025 16:27:07 GMT-0500 (Central Daylight Time),628994.5,1900,I,m,949,5,1,2861.800000000745,626132.6999999993,8046,NTS,C,23
7,20,test,4,C,triangle.png,1,z,Tue May 27 2025 16:27:07 GMT-0500 (Central Daylight Time),631960.1999999993,1700,I,z,1235,6,1,2962.199999999255,628998.0,8046,NTS,C,24
