acc_sum,block,block_c,change,condition,correct,correct_response,datetime,endtime,face,project,response,response_time,row_sel,session_number,start_end,starttime,subject_id,task,task_vers,trial
0,prac,1,,1-Back,,,Fri Jul 18 2025 14:04:02 GMT-0500 (Central Daylight Time),,050_m_f_n_a.png,I,space,3812,1,2,,,8038,NNB,A,0
0,prac,1,0.0,1-Back,0.0,m,Fri Jul 18 2025 14:04:02 GMT-0500 (Central Daylight Time),82373.39999997616,063_y_f_n_a.png,I,None,2005,2,2,2805.3000000715256,79568.09999990463,8038,NNB,A,1
0,prac,1,1.0,1-Back,0.0,z,Fri Jul 18 2025 14:04:02 GMT-0500 (Central Daylight Time),84340.0,063_y_f_n_a.png,I,m,1192,3,2,1955.4000000953674,82384.59999990463,8038,NNB,A,2
1,prac,1,0.0,1-Back,1.0,m,Fri Jul 18 2025 14:04:02 GMT-0500 (Central Daylight Time),85955.29999995232,053_o_m_n_a.png,I,m,814,4,2,1605.0,84350.29999995232,8038,NNB,A,3
2,prac,1,0.0,1-Back,1.0,m,Fri Jul 18 2025 14:04:02 GMT-0500 (Central Daylight Time),87322.59999990463,058_m_m_n_a.png,I,m,552,5,2,1357.5,85965.09999990463,8038,NNB,A,4
3,prac,1,1.0,1-Back,1.0,z,Fri Jul 18 2025 14:04:02 GMT-0500 (Central Daylight Time),88786.29999995232,058_m_m_n_a.png,I,z,676,6,2,1454.1000000238419,87332.19999992847,8038,NNB,A,5
3,prac,1,0.0,1-Back,0.0,m,Fri Jul 18 2025 14:04:02 GMT-0500 (Central Daylight Time),90236.89999997616,047_o_f_n_a.png,I,z,683,7,2,1440.3000000715256,88796.59999990463,8038,NNB,A,6
4,prac,1,0.0,1-Back,1.0,m,Fri Jul 18 2025 14:04:02 GMT-0500 (Central Daylight Time),91787.59999990463,045_m_m_n_a.png,I,m,761,8,2,1540.1999999284744,90247.39999997616,8038,NNB,A,7
5,prac,1,0.0,1-Back,1.0,m,Fri Jul 18 2025 14:04:02 GMT-0500 (Central Daylight Time),93187.0,050_m_f_n_a.png,I,m,612,9,2,1390.1000000238419,91796.89999997616,8038,NNB,A,8
6,prac,1,1.0,1-Back,1.0,z,Fri Jul 18 2025 14:04:02 GMT-0500 (Central Daylight Time),94518.09999990463,050_m_f_n_a.png,I,z,540,10,2,1321.0,93197.09999990463,8038,NNB,A,9
7,prac,1,0.0,1-Back,1.0,m,Fri Jul 18 2025 14:04:02 GMT-0500 (Central Daylight Time),96019.59999990463,053_o_m_n_a.png,I,m,726,11,2,1489.0,94530.59999990463,8038,NNB,A,10
8,prac,1,0.0,1-Back,1.0,m,Fri Jul 18 2025 14:04:02 GMT-0500 (Central Daylight Time),97618.19999992847,010_y_f_n_a.png,I,m,777,12,2,1587.2999999523163,96030.89999997616,8038,NNB,A,11
0,test,1,0.0,1-Back,,,Fri Jul 18 2025 14:04:02 GMT-0500 (Central Daylight Time),97618.19999992847,063_y_f_n_a.png,I,space,7714,1,2,1587.2999999523163,96030.89999997616,8038,NNB,A,0
1,test,1,0.0,1-Back,1.0,m,Fri Jul 18 2025 14:04:02 GMT-0500 (Central Daylight Time),115844.79999995232,043_m_f_n_a.png,I,m,669,2,2,1688.6000000238419,114156.19999992847,8038,NNB,A,1
2,test,1,0.0,1-Back,1.0,m,Fri Jul 18 2025 14:04:02 GMT-0500 (Central Daylight Time),117641.89999997616,010_y_f_n_a.png,I,m,776,3,2,1787.6000000238419,115854.29999995232,8038,NNB,A,2
3,test,1,1.0,1-Back,1.0,z,Fri Jul 18 2025 14:04:02 GMT-0500 (Central Daylight Time),119310.09999990463,010_y_f_n_a.png,I,z,638,4,2,1659.0,117651.09999990463,8038,NNB,A,3
4,test,1,0.0,1-Back,1.0,m,Fri Jul 18 2025 14:04:02 GMT-0500 (Central Daylight Time),120843.89999997616,043_m_f_n_a.png,I,m,516,5,2,1525.3000000715256,119318.59999990463,8038,NNB,A,4
5,test,1,0.0,1-Back,1.0,m,Fri Jul 18 2025 14:04:02 GMT-0500 (Central Daylight Time),122593.09999990463,053_o_m_n_a.png,I,m,715,6,2,1739.5999999046326,120853.5,8038,NNB,A,5
6,test,1,1.0,1-Back,1.0,z,Fri Jul 18 2025 14:04:02 GMT-0500 (Central Daylight Time),124259.69999992847,053_o_m_n_a.png,I,z,639,7,2,1657.6000000238419,122602.09999990463,8038,NNB,A,6
7,test,1,0.0,1-Back,1.0,m,Fri Jul 18 2025 14:04:02 GMT-0500 (Central Daylight Time),125941.29999995232,058_m_m_n_a.png,I,m,653,8,2,1672.2000000476837,124269.09999990463,8038,NNB,A,7
8,test,1,0.0,1-Back,1.0,m,Fri Jul 18 2025 14:04:02 GMT-0500 (Central Daylight Time),127608.59999990463,047_o_f_n_a.png,I,m,634,9,2,1658.6999999284744,125949.89999997616,8038,NNB,A,8
9,test,1,0.0,1-Back,1.0,m,Fri Jul 18 2025 14:04:02 GMT-0500 (Central Daylight Time),129173.39999997616,058_m_m_n_a.png,I,m,535,10,2,1556.3000000715256,127617.09999990463,8038,NNB,A,9
10,test,1,0.0,1-Back,1.0,m,Fri Jul 18 2025 14:04:02 GMT-0500 (Central Daylight Time),130806.29999995232,041_y_m_n_a.png,I,m,602,11,2,1624.2000000476837,129182.09999990463,8038,NNB,A,10
11,test,1,1.0,1-Back,1.0,z,Fri Jul 18 2025 14:04:02 GMT-0500 (Central Daylight Time),132389.79999995232,041_y_m_n_a.png,I,z,553,12,2,1575.6000000238419,130814.19999992847,8038,NNB,A,11
12,test,1,0.0,1-Back,1.0,m,Fri Jul 18 2025 14:04:02 GMT-0500 (Central Daylight Time),133972.19999992847,044_o_f_n_a.png,I,m,552,13,2,1573.0,132399.19999992847,8038,NNB,A,12
13,test,1,1.0,1-Back,1.0,z,Fri Jul 18 2025 14:04:02 GMT-0500 (Central Daylight Time),135655.69999992847,044_o_f_n_a.png,I,z,660,14,2,1674.0,133981.69999992847,8038,NNB,A,13
14,test,1,0.0,1-Back,1.0,m,Fri Jul 18 2025 14:04:02 GMT-0500 (Central Daylight Time),137321.79999995232,008_y_m_n_a.png,I,m,634,15,2,1659.8999999761581,135661.89999997616,8038,NNB,A,14
15,test,1,0.0,1-Back,1.0,m,Fri Jul 18 2025 14:04:02 GMT-0500 (Central Daylight Time),139286.79999995232,050_m_f_n_a.png,I,m,942,16,2,1955.6000000238419,137331.19999992847,8038,NNB,A,15
16,test,1,0.0,1-Back,1.0,m,Fri Jul 18 2025 14:04:02 GMT-0500 (Central Daylight Time),140885.19999992847,046_o_m_n_a.png,I,m,575,17,2,1587.8999999761581,139297.29999995232,8038,NNB,A,16
17,test,1,0.0,1-Back,1.0,m,Fri Jul 18 2025 14:04:02 GMT-0500 (Central Daylight Time),142536.69999992847,050_m_f_n_a.png,I,m,626,18,2,1642.5,140894.19999992847,8038,NNB,A,17
0,test,2,0.0,1-Back,,,Fri Jul 18 2025 14:04:02 GMT-0500 (Central Daylight Time),142536.69999992847,058_m_m_n_a.png,I,space,1951,1,2,1642.5,140894.19999992847,8038,NNB,A,0
1,test,2,0.0,1-Back,1.0,m,Fri Jul 18 2025 14:04:02 GMT-0500 (Central Daylight Time),148052.19999992847,043_m_f_n_a.png,I,m,515,2,2,1522.6999999284744,146529.5,8038,NNB,A,1
2,test,2,1.0,1-Back,1.0,z,Fri Jul 18 2025 14:04:02 GMT-0500 (Central Daylight Time),149834.19999992847,043_m_f_n_a.png,I,z,753,3,2,1772.0,148062.19999992847,8038,NNB,A,2
3,test,2,0.0,1-Back,1.0,m,Fri Jul 18 2025 14:04:02 GMT-0500 (Central Daylight Time),151366.59999990463,058_m_m_n_a.png,I,m,501,4,2,1522.8999999761581,149843.69999992847,8038,NNB,A,3
4,test,2,0.0,1-Back,1.0,m,Fri Jul 18 2025 14:04:02 GMT-0500 (Central Daylight Time),153033.5,041_y_m_n_a.png,I,m,634,5,2,1656.1000000238419,151377.39999997616,8038,NNB,A,4
5,test,2,0.0,1-Back,1.0,m,Fri Jul 18 2025 14:04:02 GMT-0500 (Central Daylight Time),154732.79999995232,063_y_f_n_a.png,I,m,671,6,2,1690.0,153042.79999995232,8038,NNB,A,5
6,test,2,1.0,1-Back,1.0,z,Fri Jul 18 2025 14:04:02 GMT-0500 (Central Daylight Time),156316.39999997616,063_y_f_n_a.png,I,z,566,7,2,1572.5,154743.89999997616,8038,NNB,A,6
7,test,2,0.0,1-Back,1.0,m,Fri Jul 18 2025 14:04:02 GMT-0500 (Central Daylight Time),157881.69999992847,041_y_m_n_a.png,I,m,533,8,2,1557.7999999523163,156323.89999997616,8038,NNB,A,7
8,test,2,0.0,1-Back,1.0,m,Fri Jul 18 2025 14:04:02 GMT-0500 (Central Daylight Time),159532.09999990463,044_o_f_n_a.png,I,m,632,9,2,1639.5999999046326,157892.5,8038,NNB,A,8
9,test,2,0.0,1-Back,1.0,m,Fri Jul 18 2025 14:04:02 GMT-0500 (Central Daylight Time),161114.19999992847,045_m_m_n_a.png,I,m,556,10,2,1573.6000000238419,159540.59999990463,8038,NNB,A,9
10,test,2,1.0,1-Back,1.0,z,Fri Jul 18 2025 14:04:02 GMT-0500 (Central Daylight Time),162546.89999997616,045_m_m_n_a.png,I,z,404,11,2,1423.3000000715256,161123.59999990463,8038,NNB,A,10
11,test,2,0.0,1-Back,1.0,m,Fri Jul 18 2025 14:04:02 GMT-0500 (Central Daylight Time),164113.5,044_o_f_n_a.png,I,m,533,12,2,1557.1000000238419,162556.39999997616,8038,NNB,A,11
12,test,2,0.0,1-Back,1.0,m,Fri Jul 18 2025 14:04:02 GMT-0500 (Central Daylight Time),165828.89999997616,047_o_f_n_a.png,I,m,688,13,2,1706.1000000238419,164122.79999995232,8038,NNB,A,12
13,test,2,0.0,1-Back,1.0,m,Fri Jul 18 2025 14:04:02 GMT-0500 (Central Daylight Time),167344.19999992847,053_o_m_n_a.png,I,m,492,14,2,1508.2999999523163,165835.89999997616,8038,NNB,A,13
14,test,2,0.0,1-Back,1.0,m,Fri Jul 18 2025 14:04:02 GMT-0500 (Central Daylight Time),168945.89999997616,046_o_m_n_a.png,I,m,570,15,2,1597.0,167348.89999997616,8038,NNB,A,14
15,test,2,1.0,1-Back,1.0,z,Fri Jul 18 2025 14:04:02 GMT-0500 (Central Daylight Time),170427.69999992847,046_o_m_n_a.png,I,z,452,16,2,1472.8999999761581,168954.79999995232,8038,NNB,A,15
16,test,2,0.0,1-Back,1.0,m,Fri Jul 18 2025 14:04:02 GMT-0500 (Central Daylight Time),172011.39999997616,008_y_m_n_a.png,I,m,550,17,2,1574.5,170436.89999997616,8038,NNB,A,16
17,test,2,1.0,1-Back,1.0,z,Fri Jul 18 2025 14:04:02 GMT-0500 (Central Daylight Time),173577.79999995232,008_y_m_n_a.png,I,z,543,18,2,1560.2000000476837,172017.59999990463,8038,NNB,A,17
0,test,3,1.0,1-Back,,,Fri Jul 18 2025 14:04:02 GMT-0500 (Central Daylight Time),173577.79999995232,010_y_f_n_a.png,I,space,1854,1,2,1560.2000000476837,172017.59999990463,8038,NNB,A,0
1,test,3,0.0,1-Back,1.0,m,Fri Jul 18 2025 14:04:02 GMT-0500 (Central Daylight Time),179057.79999995232,046_o_m_n_a.png,I,m,520,2,2,1538.1000000238419,177519.69999992847,8038,NNB,A,1
2,test,3,1.0,1-Back,1.0,z,Fri Jul 18 2025 14:04:02 GMT-0500 (Central Daylight Time),180707.19999992847,046_o_m_n_a.png,I,z,621,3,2,1640.7999999523163,179066.39999997616,8038,NNB,A,2
3,test,3,0.0,1-Back,1.0,m,Fri Jul 18 2025 14:04:02 GMT-0500 (Central Daylight Time),182424.5,050_m_f_n_a.png,I,m,700,4,2,1707.4000000953674,180717.09999990463,8038,NNB,A,3
4,test,3,1.0,1-Back,1.0,z,Fri Jul 18 2025 14:04:02 GMT-0500 (Central Daylight Time),183957.79999995232,050_m_f_n_a.png,I,z,502,5,2,1524.2000000476837,182433.59999990463,8038,NNB,A,4
5,test,3,0.0,1-Back,1.0,m,Fri Jul 18 2025 14:04:02 GMT-0500 (Central Daylight Time),185573.0,044_o_f_n_a.png,I,m,596,6,2,1606.3000000715256,183966.69999992847,8038,NNB,A,5
6,test,3,0.0,1-Back,1.0,m,Fri Jul 18 2025 14:04:02 GMT-0500 (Central Daylight Time),187122.39999997616,041_y_m_n_a.png,I,m,519,7,2,1540.7000000476837,185581.69999992847,8038,NNB,A,6
7,test,3,0.0,1-Back,1.0,m,Fri Jul 18 2025 14:04:02 GMT-0500 (Central Daylight Time),188706.69999992847,044_o_f_n_a.png,I,m,557,8,2,1575.3999999761581,187131.29999995232,8038,NNB,A,7
8,test,3,0.0,1-Back,1.0,m,Fri Jul 18 2025 14:04:02 GMT-0500 (Central Daylight Time),190236.89999997616,008_y_m_n_a.png,I,m,510,9,2,1520.8999999761581,188716.0,8038,NNB,A,8
9,test,3,1.0,1-Back,1.0,z,Fri Jul 18 2025 14:04:02 GMT-0500 (Central Daylight Time),191737.09999990463,008_y_m_n_a.png,I,z,474,10,2,1490.3999999761581,190246.69999992847,8038,NNB,A,9
10,test,3,0.0,1-Back,1.0,m,Fri Jul 18 2025 14:04:02 GMT-0500 (Central Daylight Time),193334.69999992847,043_m_f_n_a.png,I,m,564,11,2,1588.6999999284744,191746.0,8038,NNB,A,10
11,test,3,0.0,1-Back,1.0,m,Fri Jul 18 2025 14:04:02 GMT-0500 (Central Daylight Time),194837.0,063_y_f_n_a.png,I,m,484,12,2,1497.2000000476837,193339.79999995232,8038,NNB,A,11
12,test,3,1.0,1-Back,1.0,z,Fri Jul 18 2025 14:04:02 GMT-0500 (Central Daylight Time),196269.5,063_y_f_n_a.png,I,z,401,13,2,1423.4000000953674,194846.09999990463,8038,NNB,A,12
13,test,3,0.0,1-Back,1.0,m,Fri Jul 18 2025 14:04:02 GMT-0500 (Central Daylight Time),197951.19999992847,043_m_f_n_a.png,I,m,659,14,2,1670.6999999284744,196280.5,8038,NNB,A,13
14,test,3,0.0,1-Back,1.0,m,Fri Jul 18 2025 14:04:02 GMT-0500 (Central Daylight Time),199635.19999992847,058_m_m_n_a.png,I,m,652,15,2,1676.3999999761581,197958.79999995232,8038,NNB,A,14
15,test,3,1.0,1-Back,1.0,z,Fri Jul 18 2025 14:04:02 GMT-0500 (Central Daylight Time),201184.59999990463,058_m_m_n_a.png,I,z,524,16,2,1539.8999999761581,199644.69999992847,8038,NNB,A,15
16,test,3,0.0,1-Back,1.0,m,Fri Jul 18 2025 14:04:02 GMT-0500 (Central Daylight Time),202733.59999990463,047_o_f_n_a.png,I,m,518,17,2,1540.0999999046326,201193.5,8038,NNB,A,16
17,test,3,1.0,1-Back,1.0,z,Fri Jul 18 2025 14:04:02 GMT-0500 (Central Daylight Time),204151.29999995232,047_o_f_n_a.png,I,z,392,18,2,1408.7999999523163,202742.5,8038,NNB,A,17
0,test,4,1.0,1-Back,,,Fri Jul 18 2025 14:04:02 GMT-0500 (Central Daylight Time),204151.29999995232,050_m_f_n_a.png,I,space,1609,1,2,1408.7999999523163,202742.5,8038,NNB,A,0
0,test,4,0.0,1-Back,0.0,m,Fri Jul 18 2025 14:04:02 GMT-0500 (Central Daylight Time),209332.29999995232,046_o_m_n_a.png,I,z,518,2,2,1542.8999999761581,207789.39999997616,8038,NNB,A,1
1,test,4,0.0,1-Back,1.0,m,Fri Jul 18 2025 14:04:02 GMT-0500 (Central Daylight Time),211233.79999995232,050_m_f_n_a.png,I,m,868,3,2,1891.3999999761581,209342.39999997616,8038,NNB,A,2
2,test,4,0.0,1-Back,1.0,m,Fri Jul 18 2025 14:04:02 GMT-0500 (Central Daylight Time),212948.0,044_o_f_n_a.png,I,m,685,4,2,1705.3000000715256,211242.69999992847,8038,NNB,A,3
3,test,4,1.0,1-Back,1.0,z,Fri Jul 18 2025 14:04:02 GMT-0500 (Central Daylight Time),214445.59999990463,044_o_f_n_a.png,I,z,467,5,2,1486.8999999761581,212958.69999992847,8038,NNB,A,4
4,test,4,0.0,1-Back,1.0,m,Fri Jul 18 2025 14:04:02 GMT-0500 (Central Daylight Time),216080.39999997616,063_y_f_n_a.png,I,m,603,6,2,1626.8000000715256,214453.59999990463,8038,NNB,A,5
5,test,4,0.0,1-Back,1.0,m,Fri Jul 18 2025 14:04:02 GMT-0500 (Central Daylight Time),217645.19999992847,041_y_m_n_a.png,I,m,543,7,2,1555.6999999284744,216089.5,8038,NNB,A,6
6,test,4,1.0,1-Back,1.0,z,Fri Jul 18 2025 14:04:02 GMT-0500 (Central Daylight Time),219195.19999992847,041_y_m_n_a.png,I,z,518,8,2,1540.6999999284744,217654.5,8038,NNB,A,7
7,test,4,0.0,1-Back,1.0,m,Fri Jul 18 2025 14:04:02 GMT-0500 (Central Daylight Time),220845.09999990463,063_y_f_n_a.png,I,m,620,9,2,1640.1999999284744,219204.89999997616,8038,NNB,A,8
8,test,4,0.0,1-Back,1.0,m,Fri Jul 18 2025 14:04:02 GMT-0500 (Central Daylight Time),222444.19999992847,045_m_m_n_a.png,I,m,584,10,2,1588.1999999284744,220856.0,8038,NNB,A,9
9,test,4,1.0,1-Back,1.0,z,Fri Jul 18 2025 14:04:02 GMT-0500 (Central Daylight Time),224010.69999992847,045_m_m_n_a.png,I,z,533,11,2,1556.1999999284744,222454.5,8038,NNB,A,10
10,test,4,0.0,1-Back,1.0,m,Fri Jul 18 2025 14:04:02 GMT-0500 (Central Daylight Time),225525.69999992847,047_o_f_n_a.png,I,m,494,12,2,1506.8999999761581,224018.79999995232,8038,NNB,A,11
11,test,4,0.0,1-Back,1.0,m,Fri Jul 18 2025 14:04:02 GMT-0500 (Central Daylight Time),227024.79999995232,053_o_m_n_a.png,I,m,476,13,2,1494.2000000476837,225530.59999990463,8038,NNB,A,12
12,test,4,0.0,1-Back,1.0,m,Fri Jul 18 2025 14:04:02 GMT-0500 (Central Daylight Time),228741.59999990463,047_o_f_n_a.png,I,m,695,14,2,1711.3999999761581,227030.19999992847,8038,NNB,A,13
13,test,4,0.0,1-Back,1.0,m,Fri Jul 18 2025 14:04:02 GMT-0500 (Central Daylight Time),230325.29999995232,010_y_f_n_a.png,I,m,553,15,2,1574.7000000476837,228750.59999990463,8038,NNB,A,14
14,test,4,1.0,1-Back,1.0,z,Fri Jul 18 2025 14:04:02 GMT-0500 (Central Daylight Time),231976.5,010_y_f_n_a.png,I,z,634,16,2,1641.1000000238419,230335.39999997616,8038,NNB,A,15
15,test,4,0.0,1-Back,1.0,m,Fri Jul 18 2025 14:04:02 GMT-0500 (Central Daylight Time),233540.19999992847,043_m_f_n_a.png,I,m,535,17,2,1555.6000000238419,231984.59999990463,8038,NNB,A,16
16,test,4,1.0,1-Back,1.0,z,Fri Jul 18 2025 14:04:02 GMT-0500 (Central Daylight Time),234972.79999995232,043_m_f_n_a.png,I,z,412,18,2,1424.0,233548.79999995232,8038,NNB,A,17
0,test,5,1.0,1-Back,,,Fri Jul 18 2025 14:04:02 GMT-0500 (Central Daylight Time),234972.79999995232,053_o_m_n_a.png,I,space,1566,1,2,1424.0,233548.79999995232,8038,NNB,A,0
1,test,5,1.0,1-Back,1.0,z,Fri Jul 18 2025 14:04:02 GMT-0500 (Central Daylight Time),240271.09999990463,053_o_m_n_a.png,I,z,675,2,2,1687.2999999523163,238583.79999995232,8038,NNB,A,1
2,test,5,0.0,1-Back,1.0,m,Fri Jul 18 2025 14:04:02 GMT-0500 (Central Daylight Time),242021.5,063_y_f_n_a.png,I,m,719,3,2,1741.9000000953674,240279.59999990463,8038,NNB,A,2
3,test,5,0.0,1-Back,1.0,m,Fri Jul 18 2025 14:04:02 GMT-0500 (Central Daylight Time),243521.29999995232,041_y_m_n_a.png,I,m,474,4,2,1489.8999999761581,242031.39999997616,8038,NNB,A,3
4,test,5,0.0,1-Back,1.0,m,Fri Jul 18 2025 14:04:02 GMT-0500 (Central Daylight Time),244969.09999990463,063_y_f_n_a.png,I,m,422,5,2,1438.5,243530.59999990463,8038,NNB,A,4
5,test,5,0.0,1-Back,1.0,m,Fri Jul 18 2025 14:04:02 GMT-0500 (Central Daylight Time),246520.19999992847,058_m_m_n_a.png,I,m,519,6,2,1544.6000000238419,244975.59999990463,8038,NNB,A,5
6,test,5,1.0,1-Back,1.0,z,Fri Jul 18 2025 14:04:02 GMT-0500 (Central Daylight Time),247952.29999995232,058_m_m_n_a.png,I,z,400,7,2,1423.3999999761581,246528.89999997616,8038,NNB,A,6
7,test,5,0.0,1-Back,1.0,m,Fri Jul 18 2025 14:04:02 GMT-0500 (Central Daylight Time),249486.29999995232,010_y_f_n_a.png,I,m,501,8,2,1526.6000000238419,247959.69999992847,8038,NNB,A,7
8,test,5,0.0,1-Back,1.0,m,Fri Jul 18 2025 14:04:02 GMT-0500 (Central Daylight Time),251018.5,008_y_m_n_a.png,I,m,504,9,2,1522.5,249496.0,8038,NNB,A,8
9,test,5,0.0,1-Back,1.0,m,Fri Jul 18 2025 14:04:02 GMT-0500 (Central Daylight Time),252685.19999992847,010_y_f_n_a.png,I,m,638,10,2,1657.1999999284744,251028.0,8038,NNB,A,9
10,test,5,0.0,1-Back,1.0,m,Fri Jul 18 2025 14:04:02 GMT-0500 (Central Daylight Time),254218.69999992847,047_o_f_n_a.png,I,m,503,11,2,1524.6999999284744,252694.0,8038,NNB,A,10
10,test,5,1.0,1-Back,0.0,z,Fri Jul 18 2025 14:04:02 GMT-0500 (Central Daylight Time),255668.29999995232,047_o_f_n_a.png,I,m,432,12,2,1443.6000000238419,254224.69999992847,8038,NNB,A,11
11,test,5,0.0,1-Back,1.0,m,Fri Jul 18 2025 14:04:02 GMT-0500 (Central Daylight Time),257349.89999997616,046_o_m_n_a.png,I,m,652,13,2,1672.1000000238419,255677.79999995232,8038,NNB,A,12
12,test,5,0.0,1-Back,1.0,m,Fri Jul 18 2025 14:04:02 GMT-0500 (Central Daylight Time),258932.0,050_m_f_n_a.png,I,m,563,14,2,1573.0,257359.0,8038,NNB,A,13
13,test,5,1.0,1-Back,1.0,z,Fri Jul 18 2025 14:04:02 GMT-0500 (Central Daylight Time),260466.79999995232,050_m_f_n_a.png,I,z,501,15,2,1524.7999999523163,258942.0,8038,NNB,A,14
14,test,5,0.0,1-Back,1.0,m,Fri Jul 18 2025 14:04:02 GMT-0500 (Central Daylight Time),262130.69999992847,046_o_m_n_a.png,I,m,638,16,2,1655.1000000238419,260475.59999990463,8038,NNB,A,15
15,test,5,0.0,1-Back,1.0,m,Fri Jul 18 2025 14:04:02 GMT-0500 (Central Daylight Time),263680.7999999523,043_m_f_n_a.png,I,m,516,17,2,1541.2000000476837,262139.59999990463,8038,NNB,A,16
16,test,5,0.0,1-Back,1.0,m,Fri Jul 18 2025 14:04:02 GMT-0500 (Central Daylight Time),265197.59999990463,045_m_m_n_a.png,I,m,494,18,2,1507.1999999284744,263690.39999997616,8038,NNB,A,17
0,prac,1,0.0,2-Back,,,Fri Jul 18 2025 14:04:02 GMT-0500 (Central Daylight Time),265197.59999990463,008_y_m_n_a.png,I,space,3789,1,2,1507.1999999284744,263690.39999997616,8038,NNB,A,0
0,prac,1,0.0,2-Back,,,Fri Jul 18 2025 14:04:02 GMT-0500 (Central Daylight Time),265197.59999990463,043_m_f_n_a.png,I,space,3789,2,2,1507.1999999284744,263690.39999997616,8038,NNB,A,0
1,prac,1,1.0,2-Back,1.0,m,Fri Jul 18 2025 14:04:02 GMT-0500 (Central Daylight Time),351689.39999997616,046_o_m_n_a.png,I,m,1291,3,2,2074.0,349615.39999997616,8038,NNB,A,1
2,prac,1,0.0,2-Back,1.0,m,Fri Jul 18 2025 14:04:02 GMT-0500 (Central Daylight Time),353570.1999999285,047_o_f_n_a.png,I,m,1040,4,2,1871.0,351699.1999999285,8038,NNB,A,2
3,prac,1,0.0,2-Back,1.0,z,Fri Jul 18 2025 14:04:02 GMT-0500 (Central Daylight Time),354986.2999999523,046_o_m_n_a.png,I,z,643,5,2,1404.8999999761581,353581.39999997616,8038,NNB,A,3
4,prac,1,1.0,2-Back,1.0,z,Fri Jul 18 2025 14:04:02 GMT-0500 (Central Daylight Time),356718.59999990463,047_o_f_n_a.png,I,z,948,6,2,1721.8999999761581,354996.6999999285,8038,NNB,A,4
5,prac,1,0.0,2-Back,1.0,m,Fri Jul 18 2025 14:04:02 GMT-0500 (Central Daylight Time),358451.0,045_m_m_n_a.png,I,m,934,7,2,1723.2000000476837,356727.7999999523,8038,NNB,A,5
6,prac,1,0.0,2-Back,1.0,m,Fri Jul 18 2025 14:04:02 GMT-0500 (Central Daylight Time),360034.59999990463,053_o_m_n_a.png,I,m,784,8,2,1574.0999999046326,358460.5,8038,NNB,A,6
7,prac,1,0.0,2-Back,1.0,m,Fri Jul 18 2025 14:04:02 GMT-0500 (Central Daylight Time),361634.1999999285,010_y_f_n_a.png,I,m,782,9,2,1589.1000000238419,360045.09999990463,8038,NNB,A,7
8,prac,1,1.0,2-Back,1.0,z,Fri Jul 18 2025 14:04:02 GMT-0500 (Central Daylight Time),363082.59999990463,053_o_m_n_a.png,I,z,671,10,2,1438.0,361644.59999990463,8038,NNB,A,8
9,prac,1,0.0,2-Back,1.0,m,Fri Jul 18 2025 14:04:02 GMT-0500 (Central Daylight Time),365283.6999999285,063_y_f_n_a.png,I,m,1385,11,2,2192.5,363091.1999999285,8038,NNB,A,9
10,prac,1,0.0,2-Back,1.0,m,Fri Jul 18 2025 14:04:02 GMT-0500 (Central Daylight Time),367198.2999999523,045_m_m_n_a.png,I,m,1124,12,2,1904.5,365293.7999999523,8038,NNB,A,10
0,test,1,0.0,2-Back,,,Fri Jul 18 2025 14:04:02 GMT-0500 (Central Daylight Time),367198.2999999523,041_y_m_n_a.png,I,space,3814,1,2,1904.5,365293.7999999523,8038,NNB,A,0
0,test,1,0.0,2-Back,,,Fri Jul 18 2025 14:04:02 GMT-0500 (Central Daylight Time),367198.2999999523,041_y_m_n_a.png,I,space,3814,2,2,1904.5,365293.7999999523,8038,NNB,A,0
1,test,1,0.0,2-Back,1.0,m,Fri Jul 18 2025 14:04:02 GMT-0500 (Central Daylight Time),385042.59999990463,047_o_f_n_a.png,I,m,901,3,2,1922.5999999046326,383120.0,8038,NNB,A,1
2,test,1,0.0,2-Back,1.0,m,Fri Jul 18 2025 14:04:02 GMT-0500 (Central Daylight Time),386775.7999999523,058_m_m_n_a.png,I,m,700,4,2,1725.2000000476837,385050.59999990463,8038,NNB,A,2
3,test,1,1.0,2-Back,1.0,z,Fri Jul 18 2025 14:04:02 GMT-0500 (Central Daylight Time),388374.2999999523,047_o_f_n_a.png,I,z,576,5,2,1588.8999999761581,386785.39999997616,8038,NNB,A,3
4,test,1,0.0,2-Back,1.0,m,Fri Jul 18 2025 14:04:02 GMT-0500 (Central Daylight Time),390057.09999990463,063_y_f_n_a.png,I,m,657,6,2,1673.1999999284744,388383.89999997616,8038,NNB,A,4
5,test,1,0.0,2-Back,1.0,m,Fri Jul 18 2025 14:04:02 GMT-0500 (Central Daylight Time),391722.6999999285,058_m_m_n_a.png,I,m,635,7,2,1657.0,390065.6999999285,8038,NNB,A,5
6,test,1,1.0,2-Back,1.0,z,Fri Jul 18 2025 14:04:02 GMT-0500 (Central Daylight Time),393507.6999999285,063_y_f_n_a.png,I,z,766,8,2,1777.7999999523163,391729.89999997616,8038,NNB,A,6
7,test,1,0.0,2-Back,1.0,m,Fri Jul 18 2025 14:04:02 GMT-0500 (Central Daylight Time),395339.09999990463,008_y_m_n_a.png,I,m,804,9,2,1821.3999999761581,393517.6999999285,8038,NNB,A,7
8,test,1,0.0,2-Back,1.0,m,Fri Jul 18 2025 14:04:02 GMT-0500 (Central Daylight Time),397037.6999999285,044_o_f_n_a.png,I,m,677,10,2,1692.3999999761581,395345.2999999523,8038,NNB,A,8
9,test,1,1.0,2-Back,1.0,z,Fri Jul 18 2025 14:04:02 GMT-0500 (Central Daylight Time),398654.5,008_y_m_n_a.png,I,z,583,11,2,1608.3000000715256,397046.1999999285,8038,NNB,A,9
10,test,1,0.0,2-Back,1.0,m,Fri Jul 18 2025 14:04:02 GMT-0500 (Central Daylight Time),400503.89999997616,043_m_f_n_a.png,I,m,824,12,2,1838.8999999761581,398665.0,8038,NNB,A,10
10,test,1,0.0,2-Back,0.0,m,Fri Jul 18 2025 14:04:02 GMT-0500 (Central Daylight Time),402353.59999990463,043_m_f_n_a.png,I,z,817,13,2,1841.0999999046326,400512.5,8038,NNB,A,11
11,test,1,0.0,2-Back,1.0,m,Fri Jul 18 2025 14:04:02 GMT-0500 (Central Daylight Time),404302.6999999285,046_o_m_n_a.png,I,m,917,14,2,1939.7999999523163,402362.89999997616,8038,NNB,A,12
12,test,1,0.0,2-Back,1.0,m,Fri Jul 18 2025 14:04:02 GMT-0500 (Central Daylight Time),406051.0,044_o_f_n_a.png,I,m,731,15,2,1739.5,404311.5,8038,NNB,A,13
13,test,1,1.0,2-Back,1.0,z,Fri Jul 18 2025 14:04:02 GMT-0500 (Central Daylight Time),407667.2999999523,046_o_m_n_a.png,I,z,589,16,2,1611.2999999523163,406056.0,8038,NNB,A,14
14,test,1,0.0,2-Back,1.0,m,Fri Jul 18 2025 14:04:02 GMT-0500 (Central Daylight Time),409517.1999999285,050_m_f_n_a.png,I,m,825,17,2,1843.5,407673.6999999285,8038,NNB,A,15
15,test,1,0.0,2-Back,1.0,m,Fri Jul 18 2025 14:04:02 GMT-0500 (Central Daylight Time),411100.39999997616,045_m_m_n_a.png,I,m,555,18,2,1574.7000000476837,409525.6999999285,8038,NNB,A,16
0,test,2,0.0,2-Back,,,Fri Jul 18 2025 14:04:02 GMT-0500 (Central Daylight Time),411100.39999997616,045_m_m_n_a.png,I,space,1388,1,2,1574.7000000476837,409525.6999999285,8038,NNB,A,0
0,test,2,0.0,2-Back,,,Fri Jul 18 2025 14:04:02 GMT-0500 (Central Daylight Time),411100.39999997616,010_y_f_n_a.png,I,space,1388,2,2,1574.7000000476837,409525.6999999285,8038,NNB,A,0
1,test,2,1.0,2-Back,1.0,z,Fri Jul 18 2025 14:04:02 GMT-0500 (Central Daylight Time),419515.0,045_m_m_n_a.png,I,z,900,3,2,1923.4000000953674,417591.59999990463,8038,NNB,A,1
2,test,2,0.0,2-Back,1.0,m,Fri Jul 18 2025 14:04:02 GMT-0500 (Central Daylight Time),421350.09999990463,050_m_f_n_a.png,I,m,801,4,2,1827.0999999046326,419523.0,8038,NNB,A,2
2,test,2,0.0,2-Back,0.0,m,Fri Jul 18 2025 14:04:02 GMT-0500 (Central Daylight Time),423215.2999999523,010_y_f_n_a.png,I,z,828,5,2,1854.7999999523163,421360.5,8038,NNB,A,3
3,test,2,0.0,2-Back,1.0,m,Fri Jul 18 2025 14:04:02 GMT-0500 (Central Daylight Time),425329.0,046_o_m_n_a.png,I,m,1083,6,2,2104.7000000476837,423224.2999999523,8038,NNB,A,4
4,test,2,0.0,2-Back,1.0,m,Fri Jul 18 2025 14:04:02 GMT-0500 (Central Daylight Time),427180.7999999523,063_y_f_n_a.png,I,m,818,7,2,1843.5,425337.2999999523,8038,NNB,A,5
5,test,2,1.0,2-Back,1.0,z,Fri Jul 18 2025 14:04:02 GMT-0500 (Central Daylight Time),428894.6999999285,046_o_m_n_a.png,I,z,685,8,2,1704.6999999284744,427190.0,8038,NNB,A,6
6,test,2,0.0,2-Back,1.0,m,Fri Jul 18 2025 14:04:02 GMT-0500 (Central Daylight Time),430762.0,008_y_m_n_a.png,I,m,840,9,2,1858.4000000953674,428903.59999990463,8038,NNB,A,7
7,test,2,0.0,2-Back,1.0,m,Fri Jul 18 2025 14:04:02 GMT-0500 (Central Daylight Time),432509.6999999285,008_y_m_n_a.png,I,m,718,10,2,1738.0,430771.6999999285,8038,NNB,A,8
8,test,2,0.0,2-Back,1.0,m,Fri Jul 18 2025 14:04:02 GMT-0500 (Central Daylight Time),434292.6999999285,043_m_f_n_a.png,I,m,761,11,2,1771.2999999523163,432521.39999997616,8038,NNB,A,9
9,test,2,0.0,2-Back,1.0,m,Fri Jul 18 2025 14:04:02 GMT-0500 (Central Daylight Time),435959.7999999523,010_y_f_n_a.png,I,m,633,12,2,1657.6000000238419,434302.1999999285,8038,NNB,A,10
10,test,2,1.0,2-Back,1.0,z,Fri Jul 18 2025 14:04:02 GMT-0500 (Central Daylight Time),437559.0,043_m_f_n_a.png,I,z,566,13,2,1590.3000000715256,435968.6999999285,8038,NNB,A,11
11,test,2,0.0,2-Back,1.0,m,Fri Jul 18 2025 14:04:02 GMT-0500 (Central Daylight Time),439675.39999997616,053_o_m_n_a.png,I,m,1089,14,2,2107.0,437568.39999997616,8038,NNB,A,12
12,test,2,0.0,2-Back,1.0,m,Fri Jul 18 2025 14:04:02 GMT-0500 (Central Daylight Time),441324.39999997616,053_o_m_n_a.png,I,m,618,15,2,1638.8000000715256,439685.59999990463,8038,NNB,A,13
13,test,2,0.0,2-Back,1.0,m,Fri Jul 18 2025 14:04:02 GMT-0500 (Central Daylight Time),443061.7999999523,044_o_f_n_a.png,I,m,705,16,2,1728.2000000476837,441333.59999990463,8038,NNB,A,14
14,test,2,0.0,2-Back,1.0,m,Fri Jul 18 2025 14:04:02 GMT-0500 (Central Daylight Time),444641.09999990463,058_m_m_n_a.png,I,m,558,17,2,1573.5999999046326,443067.5,8038,NNB,A,15
14,test,2,1.0,2-Back,0.0,z,Fri Jul 18 2025 14:04:02 GMT-0500 (Central Daylight Time),446389.59999990463,044_o_f_n_a.png,I,m,718,18,2,1739.2999999523163,444650.2999999523,8038,NNB,A,16
0,test,3,1.0,2-Back,,,Fri Jul 18 2025 14:04:02 GMT-0500 (Central Daylight Time),446389.59999990463,041_y_m_n_a.png,I,space,1251,1,2,1739.2999999523163,444650.2999999523,8038,NNB,A,0
0,test,3,1.0,2-Back,,,Fri Jul 18 2025 14:04:02 GMT-0500 (Central Daylight Time),446389.59999990463,041_y_m_n_a.png,I,space,1251,2,2,1739.2999999523163,444650.2999999523,8038,NNB,A,0
1,test,3,0.0,2-Back,1.0,m,Fri Jul 18 2025 14:04:02 GMT-0500 (Central Daylight Time),454787.5,044_o_f_n_a.png,I,m,1038,3,2,2056.7000000476837,452730.7999999523,8038,NNB,A,1
2,test,3,0.0,2-Back,1.0,m,Fri Jul 18 2025 14:04:02 GMT-0500 (Central Daylight Time),456619.5,045_m_m_n_a.png,I,m,801,4,2,1823.7000000476837,454795.7999999523,8038,NNB,A,2
3,test,3,1.0,2-Back,1.0,z,Fri Jul 18 2025 14:04:02 GMT-0500 (Central Daylight Time),458251.7999999523,044_o_f_n_a.png,I,z,605,5,2,1622.6000000238419,456629.1999999285,8038,NNB,A,3
4,test,3,0.0,2-Back,1.0,m,Fri Jul 18 2025 14:04:02 GMT-0500 (Central Daylight Time),460069.39999997616,008_y_m_n_a.png,I,m,799,6,2,1808.8999999761581,458260.5,8038,NNB,A,4
5,test,3,0.0,2-Back,1.0,m,Fri Jul 18 2025 14:04:02 GMT-0500 (Central Daylight Time),462133.6999999285,045_m_m_n_a.png,I,m,1034,7,2,2055.100000023842,460078.59999990463,8038,NNB,A,5
6,test,3,1.0,2-Back,1.0,z,Fri Jul 18 2025 14:04:02 GMT-0500 (Central Daylight Time),463866.59999990463,008_y_m_n_a.png,I,z,706,8,2,1723.7999999523163,462142.7999999523,8038,NNB,A,6
7,test,3,0.0,2-Back,1.0,m,Fri Jul 18 2025 14:04:02 GMT-0500 (Central Daylight Time),465865.1999999285,010_y_f_n_a.png,I,m,966,9,2,1989.1999999284744,463876.0,8038,NNB,A,7
8,test,3,0.0,2-Back,1.0,m,Fri Jul 18 2025 14:04:02 GMT-0500 (Central Daylight Time),467531.59999990463,058_m_m_n_a.png,I,m,642,10,2,1661.3999999761581,465870.1999999285,8038,NNB,A,8
9,test,3,1.0,2-Back,1.0,z,Fri Jul 18 2025 14:04:02 GMT-0500 (Central Daylight Time),469464.89999997616,010_y_f_n_a.png,I,z,901,11,2,1927.8999999761581,467537.0,8038,NNB,A,9
10,test,3,1.0,2-Back,1.0,z,Fri Jul 18 2025 14:04:02 GMT-0500 (Central Daylight Time),471215.2999999523,058_m_m_n_a.png,I,z,717,12,2,1745.0,469470.2999999523,8038,NNB,A,10
11,test,3,0.0,2-Back,1.0,m,Fri Jul 18 2025 14:04:02 GMT-0500 (Central Daylight Time),473014.6999999285,044_o_f_n_a.png,I,m,769,13,2,1790.1000000238419,471224.59999990463,8038,NNB,A,11
12,test,3,0.0,2-Back,1.0,m,Fri Jul 18 2025 14:04:02 GMT-0500 (Central Daylight Time),474864.09999990463,050_m_f_n_a.png,I,m,817,14,2,1840.1999999284744,473023.89999997616,8038,NNB,A,12
13,test,3,0.0,2-Back,1.0,m,Fri Jul 18 2025 14:04:02 GMT-0500 (Central Daylight Time),476629.1999999285,046_o_m_n_a.png,I,m,745,15,2,1754.6999999284744,474874.5,8038,NNB,A,13
14,test,3,1.0,2-Back,1.0,z,Fri Jul 18 2025 14:04:02 GMT-0500 (Central Daylight Time),478279.89999997616,050_m_f_n_a.png,I,z,627,16,2,1640.8000000715256,476639.09999990463,8038,NNB,A,14
15,test,3,0.0,2-Back,1.0,m,Fri Jul 18 2025 14:04:02 GMT-0500 (Central Daylight Time),480227.1999999285,047_o_f_n_a.png,I,m,919,17,2,1938.0,478289.1999999285,8038,NNB,A,15
16,test,3,0.0,2-Back,1.0,m,Fri Jul 18 2025 14:04:02 GMT-0500 (Central Daylight Time),481995.2999999523,047_o_f_n_a.png,I,m,733,18,2,1758.6000000238419,480236.6999999285,8038,NNB,A,16
0,test,4,0.0,2-Back,,,Fri Jul 18 2025 14:04:02 GMT-0500 (Central Daylight Time),481995.2999999523,053_o_m_n_a.png,I,space,1799,1,2,1758.6000000238419,480236.6999999285,8038,NNB,A,0
0,test,4,0.0,2-Back,,,Fri Jul 18 2025 14:04:02 GMT-0500 (Central Daylight Time),481995.2999999523,063_y_f_n_a.png,I,space,1799,2,2,1758.6000000238419,480236.6999999285,8038,NNB,A,0
1,test,4,1.0,2-Back,1.0,z,Fri Jul 18 2025 14:04:02 GMT-0500 (Central Daylight Time),490376.7999999523,053_o_m_n_a.png,I,z,445,3,2,1458.2999999523163,488918.5,8038,NNB,A,1
2,test,4,1.0,2-Back,1.0,z,Fri Jul 18 2025 14:04:02 GMT-0500 (Central Daylight Time),492009.39999997616,063_y_f_n_a.png,I,z,608,4,2,1626.8999999761581,490382.5,8038,NNB,A,2
3,test,4,0.0,2-Back,1.0,m,Fri Jul 18 2025 14:04:02 GMT-0500 (Central Daylight Time),493589.89999997616,044_o_f_n_a.png,I,m,550,5,2,1571.6000000238419,492018.2999999523,8038,NNB,A,3
4,test,4,0.0,2-Back,1.0,m,Fri Jul 18 2025 14:04:02 GMT-0500 (Central Daylight Time),495224.1999999285,044_o_f_n_a.png,I,m,600,6,2,1624.0,493600.1999999285,8038,NNB,A,4
5,test,4,0.0,2-Back,1.0,m,Fri Jul 18 2025 14:04:02 GMT-0500 (Central Daylight Time),496907.0,043_m_f_n_a.png,I,m,655,7,2,1673.2000000476837,495233.7999999523,8038,NNB,A,5
6,test,4,0.0,2-Back,1.0,m,Fri Jul 18 2025 14:04:02 GMT-0500 (Central Daylight Time),498506.2999999523,008_y_m_n_a.png,I,m,572,8,2,1590.0,496916.2999999523,8038,NNB,A,6
7,test,4,1.0,2-Back,1.0,z,Fri Jul 18 2025 14:04:02 GMT-0500 (Central Daylight Time),499988.1999999285,043_m_f_n_a.png,I,z,454,9,2,1472.6000000238419,498515.59999990463,8038,NNB,A,7
8,test,4,0.0,2-Back,1.0,m,Fri Jul 18 2025 14:04:02 GMT-0500 (Central Daylight Time),501756.7999999523,058_m_m_n_a.png,I,m,738,10,2,1758.7000000476837,499998.09999990463,8038,NNB,A,8
8,test,4,0.0,2-Back,0.0,m,Fri Jul 18 2025 14:04:02 GMT-0500 (Central Daylight Time),503438.6999999285,008_y_m_n_a.png,I,z,652,11,2,1673.7999999523163,501764.89999997616,8038,NNB,A,9
9,test,4,0.0,2-Back,1.0,m,Fri Jul 18 2025 14:04:02 GMT-0500 (Central Daylight Time),505354.6999999285,047_o_f_n_a.png,I,m,885,12,2,1906.6000000238419,503448.09999990463,8038,NNB,A,10
10,test,4,0.0,2-Back,1.0,m,Fri Jul 18 2025 14:04:02 GMT-0500 (Central Daylight Time),507069.39999997616,041_y_m_n_a.png,I,m,685,13,2,1705.0,505364.39999997616,8038,NNB,A,11
11,test,4,1.0,2-Back,1.0,z,Fri Jul 18 2025 14:04:02 GMT-0500 (Central Daylight Time),508835.6999999285,047_o_f_n_a.png,I,z,735,14,2,1758.1999999284744,507077.5,8038,NNB,A,12
11,test,4,1.0,2-Back,0.0,z,Fri Jul 18 2025 14:04:02 GMT-0500 (Central Daylight Time),510618.6999999285,041_y_m_n_a.png,I,m,751,15,2,1773.8999999761581,508844.7999999523,8038,NNB,A,13
12,test,4,0.0,2-Back,1.0,m,Fri Jul 18 2025 14:04:02 GMT-0500 (Central Daylight Time),512818.39999997616,045_m_m_n_a.png,I,m,1173,16,2,2190.5,510627.89999997616,8038,NNB,A,14
13,test,4,0.0,2-Back,1.0,m,Fri Jul 18 2025 14:04:02 GMT-0500 (Central Daylight Time),514452.89999997616,050_m_f_n_a.png,I,m,599,17,2,1626.3999999761581,512826.5,8038,NNB,A,15
14,test,4,1.0,2-Back,1.0,z,Fri Jul 18 2025 14:04:02 GMT-0500 (Central Daylight Time),515884.89999997616,045_m_m_n_a.png,I,z,416,18,2,1423.0,514461.89999997616,8038,NNB,A,16
0,test,5,1.0,2-Back,,,Fri Jul 18 2025 14:04:02 GMT-0500 (Central Daylight Time),515884.89999997616,041_y_m_n_a.png,I,space,1323,1,2,1423.0,514461.89999997616,8038,NNB,A,0
0,test,5,1.0,2-Back,,,Fri Jul 18 2025 14:04:02 GMT-0500 (Central Daylight Time),515884.89999997616,050_m_f_n_a.png,I,space,1323,2,2,1423.0,514461.89999997616,8038,NNB,A,0
1,test,5,1.0,2-Back,1.0,z,Fri Jul 18 2025 14:04:02 GMT-0500 (Central Daylight Time),523814.0,041_y_m_n_a.png,I,z,525,3,2,1539.5,522274.5,8038,NNB,A,1
2,test,5,1.0,2-Back,1.0,z,Fri Jul 18 2025 14:04:02 GMT-0500 (Central Daylight Time),525413.6999999285,050_m_f_n_a.png,I,z,576,4,2,1590.1000000238419,523823.59999990463,8038,NNB,A,2
3,test,5,0.0,2-Back,1.0,m,Fri Jul 18 2025 14:04:02 GMT-0500 (Central Daylight Time),527065.8999999762,047_o_f_n_a.png,I,m,634,5,2,1647.1000000238419,525418.7999999523,8038,NNB,A,3
4,test,5,0.0,2-Back,1.0,m,Fri Jul 18 2025 14:04:02 GMT-0500 (Central Daylight Time),528662.5999999046,041_y_m_n_a.png,I,m,575,6,2,1587.0999999046326,527075.5,8038,NNB,A,4
5,test,5,0.0,2-Back,1.0,m,Fri Jul 18 2025 14:04:02 GMT-0500 (Central Daylight Time),530312.3999999762,010_y_f_n_a.png,I,m,627,7,2,1639.5,528672.8999999762,8038,NNB,A,5
6,test,5,0.0,2-Back,1.0,m,Fri Jul 18 2025 14:04:02 GMT-0500 (Central Daylight Time),531963.1999999285,047_o_f_n_a.png,I,m,617,8,2,1641.6000000238419,530321.5999999046,8038,NNB,A,6
7,test,5,1.0,2-Back,1.0,z,Fri Jul 18 2025 14:04:02 GMT-0500 (Central Daylight Time),533562.3999999762,010_y_f_n_a.png,I,z,567,9,2,1588.7000000476837,531973.6999999285,8038,NNB,A,7
8,test,5,0.0,2-Back,1.0,m,Fri Jul 18 2025 14:04:02 GMT-0500 (Central Daylight Time),535377.5,046_o_m_n_a.png,I,m,790,10,2,1804.6000000238419,533572.8999999762,8038,NNB,A,8
9,test,5,0.0,2-Back,1.0,m,Fri Jul 18 2025 14:04:02 GMT-0500 (Central Daylight Time),537161.1999999285,043_m_f_n_a.png,I,m,750,11,2,1774.6000000238419,535386.5999999046,8038,NNB,A,9
10,test,5,0.0,2-Back,1.0,m,Fri Jul 18 2025 14:04:02 GMT-0500 (Central Daylight Time),538776.0999999046,058_m_m_n_a.png,I,m,591,12,2,1605.7999999523163,537170.2999999523,8038,NNB,A,10
11,test,5,0.0,2-Back,1.0,m,Fri Jul 18 2025 14:04:02 GMT-0500 (Central Daylight Time),540559.3999999762,046_o_m_n_a.png,I,m,758,13,2,1773.5,538785.8999999762,8038,NNB,A,11
12,test,5,1.0,2-Back,1.0,z,Fri Jul 18 2025 14:04:02 GMT-0500 (Central Daylight Time),542291.0,058_m_m_n_a.png,I,z,705,14,2,1721.3000000715256,540569.6999999285,8038,NNB,A,12
13,test,5,0.0,2-Back,1.0,m,Fri Jul 18 2025 14:04:02 GMT-0500 (Central Daylight Time),544125.0999999046,063_y_f_n_a.png,I,m,804,15,2,1824.5,542300.5999999046,8038,NNB,A,13
14,test,5,0.0,2-Back,1.0,m,Fri Jul 18 2025 14:04:02 GMT-0500 (Central Daylight Time),545841.5,053_o_m_n_a.png,I,m,684,16,2,1707.2000000476837,544134.2999999523,8038,NNB,A,14
15,test,5,0.0,2-Back,1.0,m,Fri Jul 18 2025 14:04:02 GMT-0500 (Central Daylight Time),547539.8999999762,043_m_f_n_a.png,I,m,670,17,2,1689.8000000715256,545850.0999999046,8038,NNB,A,15
16,test,5,1.0,2-Back,1.0,z,Fri Jul 18 2025 14:04:02 GMT-0500 (Central Daylight Time),549222.8999999762,053_o_m_n_a.png,I,z,650,18,2,1674.1000000238419,547548.7999999523,8038,NNB,A,16
