acc_sum,block,block_c,change,condition,correct,correct_response,datetime,endtime,face,project,response,response_time,row_sel,session_number,start_end,starttime,subject_id,task,task_vers,trial
0,prac,1,,1-Back,,,Tue Apr 21 2026 13:30:08 GMT-0500 (Central Daylight Time),,093_m_f_n_a.png,O,space,7049,1,1,,,7790,NNB,C,0
1,prac,1,0.0,1-Back,1.0,m,Tue Apr 21 2026 13:30:08 GMT-0500 (Central Daylight Time),233375.29999995232,098_y_f_n_a.png,O,m,589,2,1,1418.2999999523163,231957.0,7790,NNB,C,1
2,prac,1,1.0,1-Back,1.0,z,Tue Apr 21 2026 13:30:08 GMT-0500 (Central Daylight Time),235240.39999997616,098_y_f_n_a.png,O,z,1077,3,1,1854.6000000238419,233385.79999995232,7790,NNB,C,2
3,prac,1,0.0,1-Back,1.0,m,Tue Apr 21 2026 13:30:08 GMT-0500 (Central Daylight Time),236924.39999997616,059_o_m_n_a.png,O,m,825,4,1,1673.2000000476837,235251.19999992847,7790,NNB,C,3
4,prac,1,0.0,1-Back,1.0,m,Tue Apr 21 2026 13:30:08 GMT-0500 (Central Daylight Time),238590.5,092_m_m_n_a.png,O,m,816,5,1,1656.7000000476837,236933.79999995232,7790,NNB,C,4
5,prac,1,1.0,1-Back,1.0,z,Tue Apr 21 2026 13:30:08 GMT-0500 (Central Daylight Time),240055.79999995232,092_m_m_n_a.png,O,z,687,6,1,1454.8999999761581,238600.89999997616,7790,NNB,C,5
6,prac,1,0.0,1-Back,1.0,m,Tue Apr 21 2026 13:30:08 GMT-0500 (Central Daylight Time),241804.79999995232,130_o_f_n_a.png,O,m,872,7,1,1740.3999999761581,240064.39999997616,7790,NNB,C,6
6,prac,1,0.0,1-Back,0.0,m,Tue Apr 21 2026 13:30:08 GMT-0500 (Central Daylight Time),243738.59999990463,082_m_m_n_a.png,O,z,1072,8,1,1924.6999999284744,241813.89999997616,7790,NNB,C,7
7,prac,1,0.0,1-Back,1.0,m,Tue Apr 21 2026 13:30:08 GMT-0500 (Central Daylight Time),246437.29999995232,093_m_f_n_a.png,O,m,1916,9,1,2690.100000023842,243747.19999992847,7790,NNB,C,8
7,prac,1,1.0,1-Back,0.0,z,Tue Apr 21 2026 13:30:08 GMT-0500 (Central Daylight Time),249219.0,093_m_f_n_a.png,O,None,2007,10,1,2772.3000000715256,246446.69999992847,7790,NNB,C,9
7,prac,1,0.0,1-Back,0.0,m,Tue Apr 21 2026 13:30:08 GMT-0500 (Central Daylight Time),252002.39999997616,059_o_m_n_a.png,O,None,2005,11,1,2772.3000000715256,249230.09999990463,7790,NNB,C,10
8,prac,1,0.0,1-Back,1.0,m,Tue Apr 21 2026 13:30:08 GMT-0500 (Central Daylight Time),254418.0,028_y_f_n_a.png,O,m,1575,12,1,2404.7000000476837,252013.29999995232,7790,NNB,C,11
0,prac,2,0.0,1-Back,,,Tue Apr 21 2026 13:30:08 GMT-0500 (Central Daylight Time),254418.0,093_m_f_n_a.png,O,a,7400,1,1,2404.7000000476837,252013.29999995232,7790,NNB,C,0
1,prac,2,0.0,1-Back,1.0,m,Tue Apr 21 2026 13:30:08 GMT-0500 (Central Daylight Time),266431.2999999523,098_y_f_n_a.png,O,m,711,2,1,1558.5,264872.7999999523,7790,NNB,C,1
2,prac,2,1.0,1-Back,1.0,z,Tue Apr 21 2026 13:30:08 GMT-0500 (Central Daylight Time),268197.5,098_y_f_n_a.png,O,z,989,3,1,1755.7000000476837,266441.7999999523,7790,NNB,C,2
3,prac,2,0.0,1-Back,1.0,m,Tue Apr 21 2026 13:30:08 GMT-0500 (Central Daylight Time),269729.89999997616,059_o_m_n_a.png,O,m,752,4,1,1523.3999999761581,268206.5,7790,NNB,C,3
3,prac,2,0.0,1-Back,0.0,m,Tue Apr 21 2026 13:30:08 GMT-0500 (Central Daylight Time),271394.59999990463,092_m_m_n_a.png,O,z,820,5,1,1655.5999999046326,269739.0,7790,NNB,C,4
4,prac,2,1.0,1-Back,1.0,z,Tue Apr 21 2026 13:30:08 GMT-0500 (Central Daylight Time),273461.89999997616,092_m_m_n_a.png,O,z,1289,6,1,2062.8000000715256,271399.09999990463,7790,NNB,C,5
4,prac,2,0.0,1-Back,0.0,m,Tue Apr 21 2026 13:30:08 GMT-0500 (Central Daylight Time),276329.1999999285,130_o_f_n_a.png,O,None,2004,7,1,2859.600000023842,273469.59999990463,7790,NNB,C,6
5,prac,2,0.0,1-Back,1.0,m,Tue Apr 21 2026 13:30:08 GMT-0500 (Central Daylight Time),278478.6999999285,082_m_m_n_a.png,O,m,1318,8,1,2142.7999999523163,276335.89999997616,7790,NNB,C,7
6,prac,2,0.0,1-Back,1.0,m,Tue Apr 21 2026 13:30:08 GMT-0500 (Central Daylight Time),280226.6999999285,093_m_f_n_a.png,O,m,957,9,1,1737.1999999284744,278489.5,7790,NNB,C,8
7,prac,2,1.0,1-Back,1.0,z,Tue Apr 21 2026 13:30:08 GMT-0500 (Central Daylight Time),281875.89999997616,093_m_f_n_a.png,O,z,868,10,1,1640.6000000238419,280235.2999999523,7790,NNB,C,9
8,prac,2,0.0,1-Back,1.0,m,Tue Apr 21 2026 13:30:08 GMT-0500 (Central Daylight Time),283442.5,059_o_m_n_a.png,O,m,777,11,1,1556.6000000238419,281885.89999997616,7790,NNB,C,10
9,prac,2,0.0,1-Back,1.0,m,Tue Apr 21 2026 13:30:08 GMT-0500 (Central Daylight Time),285125.09999990463,028_y_f_n_a.png,O,m,828,12,1,1674.6999999284744,283450.39999997616,7790,NNB,C,11
0,prac,3,0.0,1-Back,,,Tue Apr 21 2026 13:30:08 GMT-0500 (Central Daylight Time),285125.09999990463,093_m_f_n_a.png,O,a,3686,1,1,1674.6999999284744,283450.39999997616,7790,NNB,C,0
1,prac,3,0.0,1-Back,1.0,m,Tue Apr 21 2026 13:30:08 GMT-0500 (Central Daylight Time),293322.6999999285,098_y_f_n_a.png,O,m,605,2,1,1454.1000000238419,291868.59999990463,7790,NNB,C,1
2,prac,3,1.0,1-Back,1.0,z,Tue Apr 21 2026 13:30:08 GMT-0500 (Central Daylight Time),294922.6999999285,098_y_f_n_a.png,O,z,821,3,1,1590.0,293332.6999999285,7790,NNB,C,2
3,prac,3,0.0,1-Back,1.0,m,Tue Apr 21 2026 13:30:08 GMT-0500 (Central Daylight Time),296455.7999999523,059_o_m_n_a.png,O,m,756,4,1,1523.6000000238419,294932.1999999285,7790,NNB,C,3
4,prac,3,0.0,1-Back,1.0,m,Tue Apr 21 2026 13:30:08 GMT-0500 (Central Daylight Time),298304.5,092_m_m_n_a.png,O,m,988,5,1,1841.8000000715256,296462.6999999285,7790,NNB,C,4
5,prac,3,1.0,1-Back,1.0,z,Tue Apr 21 2026 13:30:08 GMT-0500 (Central Daylight Time),299837.1999999285,092_m_m_n_a.png,O,z,750,6,1,1523.1999999284744,298314.0,7790,NNB,C,5
6,prac,3,0.0,1-Back,1.0,m,Tue Apr 21 2026 13:30:08 GMT-0500 (Central Daylight Time),301871.1999999285,130_o_f_n_a.png,O,m,1185,7,1,2024.1999999284744,299847.0,7790,NNB,C,6
7,prac,3,0.0,1-Back,1.0,m,Tue Apr 21 2026 13:30:08 GMT-0500 (Central Daylight Time),304036.5,082_m_m_n_a.png,O,m,1300,8,1,2156.3000000715256,301880.1999999285,7790,NNB,C,7
8,prac,3,0.0,1-Back,1.0,m,Tue Apr 21 2026 13:30:08 GMT-0500 (Central Daylight Time),305802.0,093_m_f_n_a.png,O,m,977,9,1,1756.9000000953674,304045.09999990463,7790,NNB,C,8
9,prac,3,1.0,1-Back,1.0,z,Tue Apr 21 2026 13:30:08 GMT-0500 (Central Daylight Time),307518.09999990463,093_m_f_n_a.png,O,z,923,10,1,1706.8999999761581,305811.1999999285,7790,NNB,C,9
10,prac,3,0.0,1-Back,1.0,m,Tue Apr 21 2026 13:30:08 GMT-0500 (Central Daylight Time),309100.5,059_o_m_n_a.png,O,m,793,11,1,1574.5,307526.0,7790,NNB,C,10
11,prac,3,0.0,1-Back,1.0,m,Tue Apr 21 2026 13:30:08 GMT-0500 (Central Daylight Time),311217.6999999285,028_y_f_n_a.png,O,m,1266,12,1,2109.2999999523163,309108.39999997616,7790,NNB,C,11
0,test,1,0.0,1-Back,,,Tue Apr 21 2026 13:30:08 GMT-0500 (Central Daylight Time),311217.6999999285,098_y_f_n_a.png,O,space,8426,1,1,2109.2999999523163,309108.39999997616,7790,NNB,C,0
1,test,1,0.0,1-Back,1.0,m,Tue Apr 21 2026 13:30:08 GMT-0500 (Central Daylight Time),347021.59999990463,006_m_f_n_a.png,O,m,1816,2,1,2839.899999976158,344181.6999999285,7790,NNB,C,1
2,test,1,0.0,1-Back,1.0,m,Tue Apr 21 2026 13:30:08 GMT-0500 (Central Daylight Time),348872.89999997616,028_y_f_n_a.png,O,m,818,3,1,1845.1000000238419,347027.7999999523,7790,NNB,C,2
3,test,1,1.0,1-Back,1.0,z,Tue Apr 21 2026 13:30:08 GMT-0500 (Central Daylight Time),350753.89999997616,028_y_f_n_a.png,O,z,856,4,1,1875.0,348878.89999997616,7790,NNB,C,3
3,test,1,0.0,1-Back,0.0,m,Tue Apr 21 2026 13:30:08 GMT-0500 (Central Daylight Time),352668.0,006_m_f_n_a.png,O,z,883,5,1,1906.7000000476837,350761.2999999523,7790,NNB,C,4
4,test,1,0.0,1-Back,1.0,m,Tue Apr 21 2026 13:30:08 GMT-0500 (Central Daylight Time),355202.89999997616,059_o_m_n_a.png,O,m,1506,6,1,2530.7000000476837,352672.1999999285,7790,NNB,C,5
5,test,1,1.0,1-Back,1.0,z,Tue Apr 21 2026 13:30:08 GMT-0500 (Central Daylight Time),357000.59999990463,059_o_m_n_a.png,O,z,771,7,1,1789.5999999046326,355211.0,7790,NNB,C,6
6,test,1,0.0,1-Back,1.0,m,Tue Apr 21 2026 13:30:08 GMT-0500 (Central Daylight Time),359768.2999999523,092_m_m_n_a.png,O,m,1734,8,1,2760.7000000476837,357007.59999990463,7790,NNB,C,7
7,test,1,0.0,1-Back,1.0,m,Tue Apr 21 2026 13:30:08 GMT-0500 (Central Daylight Time),361968.39999997616,130_o_f_n_a.png,O,m,1183,9,1,2192.399999976158,359776.0,7790,NNB,C,8
8,test,1,0.0,1-Back,1.0,m,Tue Apr 21 2026 13:30:08 GMT-0500 (Central Daylight Time),364032.6999999285,092_m_m_n_a.png,O,m,1033,10,1,2056.6999999284744,361976.0,7790,NNB,C,9
9,test,1,0.0,1-Back,1.0,m,Tue Apr 21 2026 13:30:08 GMT-0500 (Central Daylight Time),365997.7999999523,057_y_m_n_a.png,O,m,942,11,1,1954.7999999523163,364043.0,7790,NNB,C,10
10,test,1,1.0,1-Back,1.0,z,Tue Apr 21 2026 13:30:08 GMT-0500 (Central Daylight Time),367881.1999999285,057_y_m_n_a.png,O,z,863,12,1,1880.7999999523163,366000.39999997616,7790,NNB,C,11
11,test,1,0.0,1-Back,1.0,m,Tue Apr 21 2026 13:30:08 GMT-0500 (Central Daylight Time),370780.7999999523,030_o_f_n_a.png,O,m,1869,13,1,2894.899999976158,367885.89999997616,7790,NNB,C,12
12,test,1,1.0,1-Back,1.0,z,Tue Apr 21 2026 13:30:08 GMT-0500 (Central Daylight Time),372646.2999999523,030_o_f_n_a.png,O,z,835,14,1,1856.7000000476837,370789.59999990463,7790,NNB,C,13
13,test,1,0.0,1-Back,1.0,m,Tue Apr 21 2026 13:30:08 GMT-0500 (Central Daylight Time),374946.5,031_y_m_n_a.png,O,m,1272,15,1,2293.9000000953674,372652.59999990463,7790,NNB,C,14
14,test,1,0.0,1-Back,1.0,m,Tue Apr 21 2026 13:30:08 GMT-0500 (Central Daylight Time),376828.7999999523,093_m_f_n_a.png,O,m,852,16,1,1876.1000000238419,374952.6999999285,7790,NNB,C,15
15,test,1,0.0,1-Back,1.0,m,Tue Apr 21 2026 13:30:08 GMT-0500 (Central Daylight Time),378628.09999990463,146_o_m_n_a.png,O,m,777,17,1,1792.8999999761581,376835.1999999285,7790,NNB,C,16
16,test,1,0.0,1-Back,1.0,m,Tue Apr 21 2026 13:30:08 GMT-0500 (Central Daylight Time),380544.09999990463,093_m_f_n_a.png,O,m,891,18,1,1908.5999999046326,378635.5,7790,NNB,C,17
0,test,2,0.0,1-Back,,,Tue Apr 21 2026 13:30:08 GMT-0500 (Central Daylight Time),380544.09999990463,092_m_m_n_a.png,O,space,2383,1,1,1908.5999999046326,378635.5,7790,NNB,C,0
1,test,2,0.0,1-Back,1.0,m,Tue Apr 21 2026 13:30:08 GMT-0500 (Central Daylight Time),386991.89999997616,006_m_f_n_a.png,O,m,1024,2,1,2043.7000000476837,384948.1999999285,7790,NNB,C,1
2,test,2,1.0,1-Back,1.0,z,Tue Apr 21 2026 13:30:08 GMT-0500 (Central Daylight Time),388808.0,006_m_f_n_a.png,O,z,789,3,1,1809.2000000476837,386998.7999999523,7790,NNB,C,2
3,test,2,0.0,1-Back,1.0,m,Tue Apr 21 2026 13:30:08 GMT-0500 (Central Daylight Time),390591.6999999285,092_m_m_n_a.png,O,m,749,4,1,1778.0,388813.6999999285,7790,NNB,C,3
3,test,2,0.0,1-Back,0.0,m,Tue Apr 21 2026 13:30:08 GMT-0500 (Central Daylight Time),392405.89999997616,057_y_m_n_a.png,O,z,781,5,1,1807.7000000476837,390598.1999999285,7790,NNB,C,4
4,test,2,0.0,1-Back,1.0,m,Tue Apr 21 2026 13:30:08 GMT-0500 (Central Daylight Time),394655.7999999523,098_y_f_n_a.png,O,m,1222,6,1,2246.2000000476837,392409.59999990463,7790,NNB,C,5
5,test,2,1.0,1-Back,1.0,z,Tue Apr 21 2026 13:30:08 GMT-0500 (Central Daylight Time),396423.39999997616,098_y_f_n_a.png,O,z,750,7,1,1760.6000000238419,394662.7999999523,7790,NNB,C,6
6,test,2,0.0,1-Back,1.0,m,Tue Apr 21 2026 13:30:08 GMT-0500 (Central Daylight Time),398805.39999997616,057_y_m_n_a.png,O,m,1361,8,1,2377.8000000715256,396427.59999990463,7790,NNB,C,7
7,test,2,0.0,1-Back,1.0,m,Tue Apr 21 2026 13:30:08 GMT-0500 (Central Daylight Time),400737.7999999523,030_o_f_n_a.png,O,m,906,9,1,1925.2999999523163,398812.5,7790,NNB,C,8
8,test,2,0.0,1-Back,1.0,m,Tue Apr 21 2026 13:30:08 GMT-0500 (Central Daylight Time),402488.89999997616,082_m_m_n_a.png,O,m,734,10,1,1746.3000000715256,400742.59999990463,7790,NNB,C,9
9,test,2,1.0,1-Back,1.0,z,Tue Apr 21 2026 13:30:08 GMT-0500 (Central Daylight Time),404308.5,082_m_m_n_a.png,O,z,798,11,1,1813.7000000476837,402494.7999999523,7790,NNB,C,10
10,test,2,0.0,1-Back,1.0,m,Tue Apr 21 2026 13:30:08 GMT-0500 (Central Daylight Time),406219.2999999523,030_o_f_n_a.png,O,m,887,12,1,1907.8999999761581,404311.39999997616,7790,NNB,C,11
11,test,2,0.0,1-Back,1.0,m,Tue Apr 21 2026 13:30:08 GMT-0500 (Central Daylight Time),408520.39999997616,130_o_f_n_a.png,O,m,1283,13,1,2294.399999976158,406226.0,7790,NNB,C,12
12,test,2,0.0,1-Back,1.0,m,Tue Apr 21 2026 13:30:08 GMT-0500 (Central Daylight Time),410184.59999990463,059_o_m_n_a.png,O,m,640,14,1,1656.7999999523163,408527.7999999523,7790,NNB,C,13
13,test,2,0.0,1-Back,1.0,m,Tue Apr 21 2026 13:30:08 GMT-0500 (Central Daylight Time),411884.59999990463,146_o_m_n_a.png,O,m,678,15,1,1695.7999999523163,410188.7999999523,7790,NNB,C,14
14,test,2,1.0,1-Back,1.0,z,Tue Apr 21 2026 13:30:08 GMT-0500 (Central Daylight Time),413566.59999990463,146_o_m_n_a.png,O,z,658,16,1,1676.7999999523163,411889.7999999523,7790,NNB,C,15
15,test,2,0.0,1-Back,1.0,m,Tue Apr 21 2026 13:30:08 GMT-0500 (Central Daylight Time),415917.0,031_y_m_n_a.png,O,m,1321,17,1,2341.9000000953674,413575.09999990463,7790,NNB,C,16
16,test,2,1.0,1-Back,1.0,z,Tue Apr 21 2026 13:30:08 GMT-0500 (Central Daylight Time),417698.89999997616,031_y_m_n_a.png,O,z,753,18,1,1773.8000000715256,415925.09999990463,7790,NNB,C,17
0,test,3,1.0,1-Back,,,Tue Apr 21 2026 13:30:08 GMT-0500 (Central Daylight Time),417698.89999997616,028_y_f_n_a.png,O,space,2212,1,1,1773.8000000715256,415925.09999990463,7790,NNB,C,0
1,test,3,0.0,1-Back,1.0,m,Tue Apr 21 2026 13:30:08 GMT-0500 (Central Daylight Time),423547.39999997616,146_o_m_n_a.png,O,m,530,1,1,1541.3000000715256,422006.09999990463,7790,NNB,C,1
2,test,3,1.0,1-Back,1.0,z,Tue Apr 21 2026 13:30:08 GMT-0500 (Central Daylight Time),425231.1999999285,146_o_m_n_a.png,O,z,651,1,1,1675.8999999761581,423555.2999999523,7790,NNB,C,2
3,test,3,0.0,1-Back,1.0,m,Tue Apr 21 2026 13:30:08 GMT-0500 (Central Daylight Time),427212.1999999285,093_m_f_n_a.png,O,m,952,1,1,1972.8999999761581,425239.2999999523,7790,NNB,C,3
4,test,3,1.0,1-Back,1.0,z,Tue Apr 21 2026 13:30:08 GMT-0500 (Central Daylight Time),428879.2999999523,093_m_f_n_a.png,O,z,635,1,1,1661.1000000238419,427218.1999999285,7790,NNB,C,4
5,test,3,0.0,1-Back,1.0,m,Tue Apr 21 2026 13:30:08 GMT-0500 (Central Daylight Time),430845.39999997616,030_o_f_n_a.png,O,m,943,1,1,1961.8000000715256,428883.59999990463,7790,NNB,C,5
5,test,3,0.0,1-Back,0.0,m,Tue Apr 21 2026 13:30:08 GMT-0500 (Central Daylight Time),432594.1999999285,057_y_m_n_a.png,O,z,721,1,1,1742.1000000238419,430852.09999990463,7790,NNB,C,6
6,test,3,0.0,1-Back,1.0,m,Tue Apr 21 2026 13:30:08 GMT-0500 (Central Daylight Time),434778.39999997616,030_o_f_n_a.png,O,m,1156,1,1,2176.600000023842,432601.7999999523,7790,NNB,C,7
7,test,3,0.0,1-Back,1.0,m,Tue Apr 21 2026 13:30:08 GMT-0500 (Central Daylight Time),437127.2999999523,031_y_m_n_a.png,O,m,1318,1,1,2343.5,434783.7999999523,7790,NNB,C,8
8,test,3,1.0,1-Back,1.0,z,Tue Apr 21 2026 13:30:08 GMT-0500 (Central Daylight Time),438960.1999999285,031_y_m_n_a.png,O,z,799,1,1,1827.0,437133.1999999285,7790,NNB,C,9
9,test,3,0.0,1-Back,1.0,m,Tue Apr 21 2026 13:30:08 GMT-0500 (Central Daylight Time),440842.59999990463,006_m_f_n_a.png,O,m,856,1,1,1874.1999999284744,438968.39999997616,7790,NNB,C,10
10,test,3,0.0,1-Back,1.0,m,Tue Apr 21 2026 13:30:08 GMT-0500 (Central Daylight Time),443008.2999999523,098_y_f_n_a.png,O,m,1133,1,1,2158.2999999523163,440850.0,7790,NNB,C,11
11,test,3,1.0,1-Back,1.0,z,Tue Apr 21 2026 13:30:08 GMT-0500 (Central Daylight Time),444807.7999999523,098_y_f_n_a.png,O,z,776,1,1,1790.7000000476837,443017.09999990463,7790,NNB,C,12
12,test,3,0.0,1-Back,1.0,m,Tue Apr 21 2026 13:30:08 GMT-0500 (Central Daylight Time),446656.89999997616,006_m_f_n_a.png,O,m,831,1,1,1845.0,444811.89999997616,7790,NNB,C,13
13,test,3,0.0,1-Back,1.0,m,Tue Apr 21 2026 13:30:08 GMT-0500 (Central Daylight Time),448407.2999999523,092_m_m_n_a.png,O,m,719,1,1,1745.5,446661.7999999523,7790,NNB,C,14
14,test,3,1.0,1-Back,1.0,z,Tue Apr 21 2026 13:30:08 GMT-0500 (Central Daylight Time),450122.1999999285,092_m_m_n_a.png,O,z,699,1,1,1709.8999999761581,448412.2999999523,7790,NNB,C,15
15,test,3,0.0,1-Back,1.0,m,Tue Apr 21 2026 13:30:08 GMT-0500 (Central Daylight Time),451954.6999999285,130_o_f_n_a.png,O,m,812,1,1,1826.8999999761581,450127.7999999523,7790,NNB,C,16
16,test,3,1.0,1-Back,1.0,z,Tue Apr 21 2026 13:30:08 GMT-0500 (Central Daylight Time),454004.7999999523,130_o_f_n_a.png,O,z,1022,1,1,2044.1000000238419,451960.6999999285,7790,NNB,C,17
0,test,4,1.0,1-Back,,,Tue Apr 21 2026 13:30:08 GMT-0500 (Central Daylight Time),454004.7999999523,093_m_f_n_a.png,O,space,2218,1,1,2044.1000000238419,451960.6999999285,7790,NNB,C,0
1,test,4,0.0,1-Back,1.0,m,Tue Apr 21 2026 13:30:08 GMT-0500 (Central Daylight Time),460267.2999999523,146_o_m_n_a.png,O,m,918,2,1,1944.7999999523163,458322.5,7790,NNB,C,1
2,test,4,0.0,1-Back,1.0,m,Tue Apr 21 2026 13:30:08 GMT-0500 (Central Daylight Time),462202.39999997616,093_m_f_n_a.png,O,m,914,3,1,1929.3000000715256,460273.09999990463,7790,NNB,C,2
3,test,4,0.0,1-Back,1.0,m,Tue Apr 21 2026 13:30:08 GMT-0500 (Central Daylight Time),463984.59999990463,030_o_f_n_a.png,O,m,757,4,1,1776.5,462208.09999990463,7790,NNB,C,3
4,test,4,1.0,1-Back,1.0,z,Tue Apr 21 2026 13:30:08 GMT-0500 (Central Daylight Time),465684.59999990463,030_o_f_n_a.png,O,z,677,5,1,1693.2999999523163,463991.2999999523,7790,NNB,C,4
5,test,4,0.0,1-Back,1.0,m,Tue Apr 21 2026 13:30:08 GMT-0500 (Central Daylight Time),467482.7999999523,098_y_f_n_a.png,O,m,769,6,1,1790.7999999523163,465692.0,7790,NNB,C,5
6,test,4,0.0,1-Back,1.0,m,Tue Apr 21 2026 13:30:08 GMT-0500 (Central Daylight Time),469365.89999997616,057_y_m_n_a.png,O,m,852,7,1,1878.3000000715256,467487.59999990463,7790,NNB,C,6
7,test,4,1.0,1-Back,1.0,z,Tue Apr 21 2026 13:30:08 GMT-0500 (Central Daylight Time),471033.5,057_y_m_n_a.png,O,z,649,8,1,1662.1000000238419,469371.39999997616,7790,NNB,C,7
8,test,4,0.0,1-Back,1.0,m,Tue Apr 21 2026 13:30:08 GMT-0500 (Central Daylight Time),472782.59999990463,098_y_f_n_a.png,O,m,717,9,1,1741.6999999284744,471040.89999997616,7790,NNB,C,8
9,test,4,0.0,1-Back,1.0,m,Tue Apr 21 2026 13:30:08 GMT-0500 (Central Daylight Time),474581.2999999523,082_m_m_n_a.png,O,m,769,10,1,1792.6000000238419,472788.6999999285,7790,NNB,C,9
10,test,4,1.0,1-Back,1.0,z,Tue Apr 21 2026 13:30:08 GMT-0500 (Central Daylight Time),476329.6999999285,082_m_m_n_a.png,O,z,730,11,1,1741.7999999523163,474587.89999997616,7790,NNB,C,10
11,test,4,0.0,1-Back,1.0,m,Tue Apr 21 2026 13:30:08 GMT-0500 (Central Daylight Time),478113.39999997616,130_o_f_n_a.png,O,m,757,12,1,1776.8999999761581,476336.5,7790,NNB,C,11
12,test,4,0.0,1-Back,1.0,m,Tue Apr 21 2026 13:30:08 GMT-0500 (Central Daylight Time),480296.09999990463,059_o_m_n_a.png,O,m,1165,13,1,2176.0,478120.09999990463,7790,NNB,C,12
13,test,4,0.0,1-Back,1.0,m,Tue Apr 21 2026 13:30:08 GMT-0500 (Central Daylight Time),482162.0,130_o_f_n_a.png,O,m,839,14,1,1863.2000000476837,480298.7999999523,7790,NNB,C,13
14,test,4,0.0,1-Back,1.0,m,Tue Apr 21 2026 13:30:08 GMT-0500 (Central Daylight Time),483978.6999999285,028_y_f_n_a.png,O,m,796,15,1,1810.6999999284744,482168.0,7790,NNB,C,14
15,test,4,1.0,1-Back,1.0,z,Tue Apr 21 2026 13:30:08 GMT-0500 (Central Daylight Time),485693.09999990463,028_y_f_n_a.png,O,z,684,16,1,1710.7999999523163,483982.2999999523,7790,NNB,C,15
16,test,4,0.0,1-Back,1.0,m,Tue Apr 21 2026 13:30:08 GMT-0500 (Central Daylight Time),487427.6999999285,006_m_f_n_a.png,O,m,703,17,1,1728.1999999284744,485699.5,7790,NNB,C,16
17,test,4,1.0,1-Back,1.0,z,Tue Apr 21 2026 13:30:08 GMT-0500 (Central Daylight Time),489326.5,006_m_f_n_a.png,O,z,868,18,1,1892.6000000238419,487433.89999997616,7790,NNB,C,17
0,test,5,1.0,1-Back,,,Tue Apr 21 2026 13:30:08 GMT-0500 (Central Daylight Time),489326.5,059_o_m_n_a.png,O,space,1857,1,1,1892.6000000238419,487433.89999997616,7790,NNB,C,0
1,test,5,1.0,1-Back,1.0,z,Tue Apr 21 2026 13:30:08 GMT-0500 (Central Daylight Time),494856.89999997616,059_o_m_n_a.png,O,z,631,2,1,1641.1000000238419,493215.7999999523,7790,NNB,C,1
2,test,5,0.0,1-Back,1.0,m,Tue Apr 21 2026 13:30:08 GMT-0500 (Central Daylight Time),496592.1999999285,098_y_f_n_a.png,O,m,717,3,1,1729.1000000238419,494863.09999990463,7790,NNB,C,2
3,test,5,0.0,1-Back,1.0,m,Tue Apr 21 2026 13:30:08 GMT-0500 (Central Daylight Time),498406.7999999523,057_y_m_n_a.png,O,m,782,4,1,1805.2999999523163,496601.5,7790,NNB,C,3
4,test,5,0.0,1-Back,1.0,m,Tue Apr 21 2026 13:30:08 GMT-0500 (Central Daylight Time),500122.6999999285,098_y_f_n_a.png,O,m,687,5,1,1709.7999999523163,498412.89999997616,7790,NNB,C,4
5,test,5,0.0,1-Back,1.0,m,Tue Apr 21 2026 13:30:08 GMT-0500 (Central Daylight Time),501855.5,092_m_m_n_a.png,O,m,700,6,1,1725.5,500130.0,7790,NNB,C,5
6,test,5,1.0,1-Back,1.0,z,Tue Apr 21 2026 13:30:08 GMT-0500 (Central Daylight Time),503572.89999997616,092_m_m_n_a.png,O,z,689,7,1,1713.3999999761581,501859.5,7790,NNB,C,6
7,test,5,0.0,1-Back,1.0,m,Tue Apr 21 2026 13:30:08 GMT-0500 (Central Daylight Time),505404.59999990463,028_y_f_n_a.png,O,m,802,8,1,1826.1999999284744,503578.39999997616,7790,NNB,C,7
8,test,5,0.0,1-Back,1.0,m,Tue Apr 21 2026 13:30:08 GMT-0500 (Central Daylight Time),507388.7999999523,031_y_m_n_a.png,O,m,962,9,1,1976.6000000238419,505412.1999999285,7790,NNB,C,8
9,test,5,0.0,1-Back,1.0,m,Tue Apr 21 2026 13:30:08 GMT-0500 (Central Daylight Time),509404.1999999285,028_y_f_n_a.png,O,m,987,10,1,2008.8999999761581,507395.2999999523,7790,NNB,C,9
10,test,5,0.0,1-Back,1.0,m,Tue Apr 21 2026 13:30:08 GMT-0500 (Central Daylight Time),511252.09999990463,130_o_f_n_a.png,O,m,820,11,1,1841.3999999761581,509410.6999999285,7790,NNB,C,10
11,test,5,1.0,1-Back,1.0,z,Tue Apr 21 2026 13:30:08 GMT-0500 (Central Daylight Time),513118.6999999285,130_o_f_n_a.png,O,z,842,12,1,1860.0,511258.6999999285,7790,NNB,C,11
12,test,5,0.0,1-Back,1.0,m,Tue Apr 21 2026 13:30:08 GMT-0500 (Central Daylight Time),514817.0,146_o_m_n_a.png,O,m,680,13,1,1693.7000000476837,513123.2999999523,7790,NNB,C,12
13,test,5,0.0,1-Back,1.0,m,Tue Apr 21 2026 13:30:08 GMT-0500 (Central Daylight Time),516552.1999999285,093_m_f_n_a.png,O,m,717,14,1,1728.1000000238419,514824.09999990463,7790,NNB,C,13
14,test,5,1.0,1-Back,1.0,z,Tue Apr 21 2026 13:30:08 GMT-0500 (Central Daylight Time),518185.09999990463,093_m_f_n_a.png,O,z,602,15,1,1627.7999999523163,516557.2999999523,7790,NNB,C,14
15,test,5,0.0,1-Back,1.0,m,Tue Apr 21 2026 13:30:08 GMT-0500 (Central Daylight Time),519850.7999999523,146_o_m_n_a.png,O,m,650,16,1,1661.6000000238419,518189.1999999285,7790,NNB,C,15
16,test,5,0.0,1-Back,1.0,m,Tue Apr 21 2026 13:30:08 GMT-0500 (Central Daylight Time),521651.89999997616,006_m_f_n_a.png,O,m,773,17,1,1794.3999999761581,519857.5,7790,NNB,C,16
17,test,5,0.0,1-Back,1.0,m,Tue Apr 21 2026 13:30:08 GMT-0500 (Central Daylight Time),523414.39999997616,082_m_m_n_a.png,O,m,740,18,1,1756.5,521657.89999997616,7790,NNB,C,17
0,prac,1,0.0,2-Back,,,Tue Apr 21 2026 13:30:08 GMT-0500 (Central Daylight Time),523414.39999997616,031_y_m_n_a.png,O,space,14990,1,1,1756.5,521657.89999997616,7790,NNB,C,0
0,prac,1,0.0,2-Back,,,Tue Apr 21 2026 13:30:08 GMT-0500 (Central Daylight Time),523414.39999997616,006_m_f_n_a.png,O,space,14990,2,1,1756.5,521657.89999997616,7790,NNB,C,0
1,prac,1,1.0,2-Back,1.0,m,Tue Apr 21 2026 13:30:08 GMT-0500 (Central Daylight Time),788765.2999999523,146_o_m_n_a.png,O,m,695,3,1,1541.7000000476837,787223.5999999046,7790,NNB,C,1
1,prac,1,0.0,2-Back,0.0,m,Tue Apr 21 2026 13:30:08 GMT-0500 (Central Daylight Time),791647.3999999762,130_o_f_n_a.png,O,None,2018,4,1,2872.5,788774.8999999762,7790,NNB,C,2
1,prac,1,0.0,2-Back,0.0,z,Tue Apr 21 2026 13:30:08 GMT-0500 (Central Daylight Time),794429.7999999523,146_o_m_n_a.png,O,None,2003,5,1,2771.899999976158,791657.8999999762,7790,NNB,C,3
1,prac,1,1.0,2-Back,0.0,z,Tue Apr 21 2026 13:30:08 GMT-0500 (Central Daylight Time),796096.2999999523,130_o_f_n_a.png,O,m,885,6,1,1660.2000000476837,794436.0999999046,7790,NNB,C,4
1,prac,1,0.0,2-Back,0.0,m,Tue Apr 21 2026 13:30:08 GMT-0500 (Central Daylight Time),798945.5,082_m_m_n_a.png,O,None,2002,7,1,2842.2000000476837,796103.2999999523,7790,NNB,C,5
2,prac,1,0.0,2-Back,1.0,m,Tue Apr 21 2026 13:30:08 GMT-0500 (Central Daylight Time),801427.6999999285,059_o_m_n_a.png,O,m,1610,8,1,2474.2999999523163,798953.3999999762,7790,NNB,C,6
3,prac,1,0.0,2-Back,1.0,m,Tue Apr 21 2026 13:30:08 GMT-0500 (Central Daylight Time),803792.8999999762,028_y_f_n_a.png,O,m,1515,9,1,2356.600000023842,801436.2999999523,7790,NNB,C,7
3,prac,1,1.0,2-Back,0.0,z,Tue Apr 21 2026 13:30:08 GMT-0500 (Central Daylight Time),806042.0,059_o_m_n_a.png,O,m,1471,10,1,2241.3000000715256,803800.6999999285,7790,NNB,C,8
3,prac,1,0.0,2-Back,0.0,m,Tue Apr 21 2026 13:30:08 GMT-0500 (Central Daylight Time),808891.0999999046,098_y_f_n_a.png,O,None,2004,11,1,2840.1999999284744,806050.8999999762,7790,NNB,C,9
3,prac,1,0.0,2-Back,0.0,m,Tue Apr 21 2026 13:30:08 GMT-0500 (Central Daylight Time),811573.6999999285,082_m_m_n_a.png,O,z,1893,12,1,2675.399999976158,808898.2999999523,7790,NNB,C,10
0,prac,2,0.0,2-Back,,,Tue Apr 21 2026 13:30:08 GMT-0500 (Central Daylight Time),811573.6999999285,031_y_m_n_a.png,O,a,17308,1,1,2675.399999976158,808898.2999999523,7790,NNB,C,0
0,prac,2,0.0,2-Back,,,Tue Apr 21 2026 13:30:08 GMT-0500 (Central Daylight Time),811573.6999999285,006_m_f_n_a.png,O,a,17308,2,1,2675.399999976158,808898.2999999523,7790,NNB,C,0
1,prac,2,1.0,2-Back,1.0,m,Tue Apr 21 2026 13:30:08 GMT-0500 (Central Daylight Time),835899.5999999046,146_o_m_n_a.png,O,m,912,3,1,1774.5999999046326,834125.0,7790,NNB,C,1
1,prac,2,0.0,2-Back,0.0,m,Tue Apr 21 2026 13:30:08 GMT-0500 (Central Daylight Time),838784.0999999046,130_o_f_n_a.png,O,None,2010,4,1,2875.1999999284744,835908.8999999762,7790,NNB,C,2
1,prac,2,0.0,2-Back,0.0,z,Tue Apr 21 2026 13:30:08 GMT-0500 (Central Daylight Time),840798.6999999285,146_o_m_n_a.png,O,m,1244,5,1,2003.0,838795.6999999285,7790,NNB,C,3
1,prac,2,1.0,2-Back,0.0,z,Tue Apr 21 2026 13:30:08 GMT-0500 (Central Daylight Time),842730.3999999762,130_o_f_n_a.png,O,m,1140,6,1,1920.1000000238419,840810.2999999523,7790,NNB,C,4
1,prac,2,0.0,2-Back,0.0,m,Tue Apr 21 2026 13:30:08 GMT-0500 (Central Daylight Time),845429.0,082_m_m_n_a.png,O,z,1848,7,1,2688.0,842741.0,7790,NNB,C,5
1,prac,2,0.0,2-Back,0.0,m,Tue Apr 21 2026 13:30:08 GMT-0500 (Central Daylight Time),848299.0,059_o_m_n_a.png,O,None,2011,8,1,2857.5,845441.5,7790,NNB,C,6
1,prac,2,0.0,2-Back,0.0,m,Tue Apr 21 2026 13:30:08 GMT-0500 (Central Daylight Time),850895.0999999046,028_y_f_n_a.png,O,z,1737,9,1,2586.5,848308.5999999046,7790,NNB,C,7
2,prac,2,1.0,2-Back,1.0,z,Tue Apr 21 2026 13:30:08 GMT-0500 (Central Daylight Time),853094.5999999046,059_o_m_n_a.png,O,z,1415,10,1,2190.0999999046326,850904.5,7790,NNB,C,8
2,prac,2,0.0,2-Back,0.0,m,Tue Apr 21 2026 13:30:08 GMT-0500 (Central Daylight Time),855943.0,098_y_f_n_a.png,O,None,2004,11,1,2838.5,853104.5,7790,NNB,C,9
2,prac,2,0.0,2-Back,0.0,m,Tue Apr 21 2026 13:30:08 GMT-0500 (Central Daylight Time),858658.0999999046,082_m_m_n_a.png,O,z,1927,12,1,2706.5,855951.5999999046,7790,NNB,C,10
0,prac,3,0.0,2-Back,,,Tue Apr 21 2026 13:30:08 GMT-0500 (Central Daylight Time),858658.0999999046,031_y_m_n_a.png,O,a,53114,1,1,2706.5,855951.5999999046,7790,NNB,C,0
0,prac,3,0.0,2-Back,,,Tue Apr 21 2026 13:30:08 GMT-0500 (Central Daylight Time),858658.0999999046,006_m_f_n_a.png,O,a,53114,2,1,2706.5,855951.5999999046,7790,NNB,C,0
1,prac,3,1.0,2-Back,1.0,m,Tue Apr 21 2026 13:30:08 GMT-0500 (Central Daylight Time),918939.3999999762,146_o_m_n_a.png,O,m,1074,3,1,1937.3000000715256,917002.0999999046,7790,NNB,C,1
1,prac,3,0.0,2-Back,0.0,m,Tue Apr 21 2026 13:30:08 GMT-0500 (Central Daylight Time),921804.7999999523,130_o_f_n_a.png,O,None,2001,4,1,2855.7000000476837,918949.0999999046,7790,NNB,C,2
1,prac,3,0.0,2-Back,0.0,z,Tue Apr 21 2026 13:30:08 GMT-0500 (Central Daylight Time),923721.6999999285,146_o_m_n_a.png,O,m,1130,5,1,1908.1999999284744,921813.5,7790,NNB,C,3
1,prac,3,1.0,2-Back,0.0,z,Tue Apr 21 2026 13:30:08 GMT-0500 (Central Daylight Time),925437.6999999285,130_o_f_n_a.png,O,m,925,6,1,1706.6999999284744,923731.0,7790,NNB,C,4
1,prac,3,0.0,2-Back,0.0,m,Tue Apr 21 2026 13:30:08 GMT-0500 (Central Daylight Time),928302.8999999762,082_m_m_n_a.png,O,None,2007,7,1,2855.5,925447.3999999762,7790,NNB,C,5
2,prac,3,0.0,2-Back,1.0,m,Tue Apr 21 2026 13:30:08 GMT-0500 (Central Daylight Time),930320.8999999762,059_o_m_n_a.png,O,m,1157,8,1,2009.1000000238419,928311.7999999523,7790,NNB,C,6
2,prac,3,0.0,2-Back,0.0,m,Tue Apr 21 2026 13:30:08 GMT-0500 (Central Daylight Time),933186.5999999046,028_y_f_n_a.png,O,None,2016,9,1,2856.399999976158,930330.1999999285,7790,NNB,C,7
3,prac,3,1.0,2-Back,1.0,z,Tue Apr 21 2026 13:30:08 GMT-0500 (Central Daylight Time),935384.0999999046,059_o_m_n_a.png,O,z,1416,10,1,2192.5,933191.5999999046,7790,NNB,C,8
3,prac,3,0.0,2-Back,0.0,m,Tue Apr 21 2026 13:30:08 GMT-0500 (Central Daylight Time),938233.6999999285,098_y_f_n_a.png,O,None,2005,11,1,2841.2999999523163,935392.3999999762,7790,NNB,C,9
4,prac,3,0.0,2-Back,1.0,m,Tue Apr 21 2026 13:30:08 GMT-0500 (Central Daylight Time),940066.0999999046,082_m_m_n_a.png,O,m,1052,12,1,1822.5,938243.5999999046,7790,NNB,C,10
0,prac,4,0.0,2-Back,,,Tue Apr 21 2026 13:30:08 GMT-0500 (Central Daylight Time),940066.0999999046,031_y_m_n_a.png,O,a,7161,1,1,1822.5,938243.5999999046,7790,NNB,C,0
0,prac,4,0.0,2-Back,,,Tue Apr 21 2026 13:30:08 GMT-0500 (Central Daylight Time),940066.0999999046,006_m_f_n_a.png,O,a,7161,2,1,1822.5,938243.5999999046,7790,NNB,C,0
1,prac,4,1.0,2-Back,1.0,m,Tue Apr 21 2026 13:30:08 GMT-0500 (Central Daylight Time),954411.5999999046,146_o_m_n_a.png,O,m,1109,3,1,1960.3999999761581,952451.1999999285,7790,NNB,C,1
1,prac,4,0.0,2-Back,0.0,m,Tue Apr 21 2026 13:30:08 GMT-0500 (Central Daylight Time),957294.8999999762,130_o_f_n_a.png,O,None,2010,4,1,2877.3000000715256,954417.5999999046,7790,NNB,C,2
1,prac,4,0.0,2-Back,0.0,z,Tue Apr 21 2026 13:30:08 GMT-0500 (Central Daylight Time),959726.3999999762,146_o_m_n_a.png,O,m,1640,5,1,2421.899999976158,957304.5,7790,NNB,C,3
1,prac,4,1.0,2-Back,0.0,z,Tue Apr 21 2026 13:30:08 GMT-0500 (Central Daylight Time),962093.6999999285,130_o_f_n_a.png,O,m,1588,6,1,2362.899999976158,959730.7999999523,7790,NNB,C,4
1,prac,4,0.0,2-Back,0.0,m,Tue Apr 21 2026 13:30:08 GMT-0500 (Central Daylight Time),964875.6999999285,082_m_m_n_a.png,O,None,2006,7,1,2773.0,962102.6999999285,7790,NNB,C,5
1,prac,4,0.0,2-Back,0.0,m,Tue Apr 21 2026 13:30:08 GMT-0500 (Central Daylight Time),967741.7999999523,059_o_m_n_a.png,O,None,2016,8,1,2858.2999999523163,964883.5,7790,NNB,C,6
1,prac,4,0.0,2-Back,0.0,m,Tue Apr 21 2026 13:30:08 GMT-0500 (Central Daylight Time),970605.7999999523,028_y_f_n_a.png,O,None,2012,9,1,2851.899999976158,967753.8999999762,7790,NNB,C,7
2,prac,4,1.0,2-Back,1.0,z,Tue Apr 21 2026 13:30:08 GMT-0500 (Central Daylight Time),972756.3999999762,059_o_m_n_a.png,O,z,1367,10,1,2139.5,970616.8999999762,7790,NNB,C,8
2,prac,4,0.0,2-Back,0.0,m,Tue Apr 21 2026 13:30:08 GMT-0500 (Central Daylight Time),975621.6999999285,098_y_f_n_a.png,O,None,2012,11,1,2855.899999976158,972765.7999999523,7790,NNB,C,9
2,prac,4,0.0,2-Back,0.0,m,Tue Apr 21 2026 13:30:08 GMT-0500 (Central Daylight Time),977724.0999999046,082_m_m_n_a.png,O,z,1337,12,1,2093.5,975630.5999999046,7790,NNB,C,10
0,prac,5,0.0,2-Back,,,Tue Apr 21 2026 13:30:08 GMT-0500 (Central Daylight Time),977724.0999999046,031_y_m_n_a.png,O,a,4060,1,1,2093.5,975630.5999999046,7790,NNB,C,0
0,prac,5,0.0,2-Back,,,Tue Apr 21 2026 13:30:08 GMT-0500 (Central Daylight Time),977724.0999999046,006_m_f_n_a.png,O,a,4060,2,1,2093.5,975630.5999999046,7790,NNB,C,0
1,prac,5,1.0,2-Back,1.0,m,Tue Apr 21 2026 13:30:08 GMT-0500 (Central Daylight Time),989551.6999999285,146_o_m_n_a.png,O,m,1694,3,1,2541.7999999523163,987009.8999999762,7790,NNB,C,1
1,prac,5,0.0,2-Back,0.0,m,Tue Apr 21 2026 13:30:08 GMT-0500 (Central Daylight Time),992417.0999999046,130_o_f_n_a.png,O,None,2001,4,1,2856.899999976158,989560.1999999285,7790,NNB,C,2
1,prac,5,0.0,2-Back,0.0,z,Tue Apr 21 2026 13:30:08 GMT-0500 (Central Daylight Time),994948.8999999762,146_o_m_n_a.png,O,m,1741,5,1,2523.5,992425.3999999762,7790,NNB,C,3
2,prac,5,1.0,2-Back,1.0,z,Tue Apr 21 2026 13:30:08 GMT-0500 (Central Daylight Time),996797.5999999046,130_o_f_n_a.png,O,z,1064,6,1,1839.0,994958.5999999046,7790,NNB,C,4
2,prac,5,0.0,2-Back,0.0,m,Tue Apr 21 2026 13:30:08 GMT-0500 (Central Daylight Time),999579.5999999046,082_m_m_n_a.png,O,None,2010,7,1,2775.0,996804.5999999046,7790,NNB,C,5
2,prac,5,0.0,2-Back,0.0,m,Tue Apr 21 2026 13:30:08 GMT-0500 (Central Daylight Time),1001812.2999999523,059_o_m_n_a.png,O,z,1378,8,1,2225.399999976158,999586.8999999762,7790,NNB,C,6
2,prac,5,0.0,2-Back,0.0,m,Tue Apr 21 2026 13:30:08 GMT-0500 (Central Daylight Time),1004046.7999999523,028_y_f_n_a.png,O,z,1389,9,1,2227.899999976158,1001818.8999999762,7790,NNB,C,7
2,prac,5,1.0,2-Back,0.0,z,Tue Apr 21 2026 13:30:08 GMT-0500 (Central Daylight Time),1005595.2999999523,059_o_m_n_a.png,O,m,754,10,1,1533.7999999523163,1004061.5,7790,NNB,C,8
2,prac,5,0.0,2-Back,0.0,m,Tue Apr 21 2026 13:30:08 GMT-0500 (Central Daylight Time),1008443.6999999285,098_y_f_n_a.png,O,None,2003,11,1,2839.1999999284744,1005604.5,7790,NNB,C,9
3,prac,5,0.0,2-Back,1.0,m,Tue Apr 21 2026 13:30:08 GMT-0500 (Central Daylight Time),1010027.5999999046,082_m_m_n_a.png,O,m,808,12,1,1579.0999999046326,1008448.5,7790,NNB,C,10
0,prac,6,0.0,2-Back,,,Tue Apr 21 2026 13:30:08 GMT-0500 (Central Daylight Time),1010027.5999999046,031_y_m_n_a.png,O,a,4856,1,1,1579.0999999046326,1008448.5,7790,NNB,C,0
0,prac,6,0.0,2-Back,,,Tue Apr 21 2026 13:30:08 GMT-0500 (Central Daylight Time),1010027.5999999046,006_m_f_n_a.png,O,a,4856,2,1,1579.0999999046326,1008448.5,7790,NNB,C,0
1,prac,6,1.0,2-Back,1.0,m,Tue Apr 21 2026 13:30:08 GMT-0500 (Central Daylight Time),1022790.5999999046,146_o_m_n_a.png,O,m,1810,3,1,2673.0999999046326,1020117.5,7790,NNB,C,1
2,prac,6,0.0,2-Back,1.0,m,Tue Apr 21 2026 13:30:08 GMT-0500 (Central Daylight Time),1025257.8999999762,130_o_f_n_a.png,O,m,1606,4,1,2457.7000000476837,1022800.1999999285,7790,NNB,C,2
3,prac,6,0.0,2-Back,1.0,z,Tue Apr 21 2026 13:30:08 GMT-0500 (Central Daylight Time),1027672.2999999523,146_o_m_n_a.png,O,z,1629,5,1,2405.0,1025267.2999999523,7790,NNB,C,3
3,prac,6,1.0,2-Back,0.0,z,Tue Apr 21 2026 13:30:08 GMT-0500 (Central Daylight Time),1030455.5,130_o_f_n_a.png,O,None,2008,6,1,2776.0,1027679.5,7790,NNB,C,4
4,prac,6,0.0,2-Back,1.0,m,Tue Apr 21 2026 13:30:08 GMT-0500 (Central Daylight Time),1032471.2999999523,082_m_m_n_a.png,O,m,1233,7,1,2009.7000000476837,1030461.5999999046,7790,NNB,C,5
4,prac,6,0.0,2-Back,0.0,m,Tue Apr 21 2026 13:30:08 GMT-0500 (Central Daylight Time),1035069.5999999046,059_o_m_n_a.png,O,z,1739,8,1,2587.0999999046326,1032482.5,7790,NNB,C,6
5,prac,6,0.0,2-Back,1.0,m,Tue Apr 21 2026 13:30:08 GMT-0500 (Central Daylight Time),1037235.0,028_y_f_n_a.png,O,m,1307,9,1,2158.100000023842,1035076.8999999762,7790,NNB,C,7
6,prac,6,1.0,2-Back,1.0,z,Tue Apr 21 2026 13:30:08 GMT-0500 (Central Daylight Time),1039450.6999999285,059_o_m_n_a.png,O,z,1436,10,1,2207.399999976158,1037243.2999999523,7790,NNB,C,8
7,prac,6,0.0,2-Back,1.0,m,Tue Apr 21 2026 13:30:08 GMT-0500 (Central Daylight Time),1041666.6999999285,098_y_f_n_a.png,O,m,1370,11,1,2209.6999999284744,1039457.0,7790,NNB,C,9
8,prac,6,0.0,2-Back,1.0,m,Tue Apr 21 2026 13:30:08 GMT-0500 (Central Daylight Time),1043849.5,082_m_m_n_a.png,O,m,1405,12,1,2174.7000000476837,1041674.7999999523,7790,NNB,C,10
0,prac,7,0.0,2-Back,,,Tue Apr 21 2026 13:30:08 GMT-0500 (Central Daylight Time),1043849.5,031_y_m_n_a.png,O,a,4727,1,1,2174.7000000476837,1041674.7999999523,7790,NNB,C,0
0,prac,7,0.0,2-Back,,,Tue Apr 21 2026 13:30:08 GMT-0500 (Central Daylight Time),1043849.5,006_m_f_n_a.png,O,a,4727,2,1,2174.7000000476837,1041674.7999999523,7790,NNB,C,0
1,prac,7,1.0,2-Back,1.0,m,Tue Apr 21 2026 13:30:08 GMT-0500 (Central Daylight Time),1055530.0,146_o_m_n_a.png,O,m,860,3,1,1709.6000000238419,1053820.3999999762,7790,NNB,C,1
2,prac,7,0.0,2-Back,1.0,m,Tue Apr 21 2026 13:30:08 GMT-0500 (Central Daylight Time),1058012.0999999046,130_o_f_n_a.png,O,m,1613,4,1,2474.7999999523163,1055537.2999999523,7790,NNB,C,2
3,prac,7,0.0,2-Back,1.0,z,Tue Apr 21 2026 13:30:08 GMT-0500 (Central Daylight Time),1060227.7999999523,146_o_m_n_a.png,O,z,1433,5,1,2205.100000023842,1058022.6999999285,7790,NNB,C,3
4,prac,7,1.0,2-Back,1.0,z,Tue Apr 21 2026 13:30:08 GMT-0500 (Central Daylight Time),1062244.7999999523,130_o_f_n_a.png,O,z,1235,6,1,2007.7000000476837,1060237.0999999046,7790,NNB,C,4
4,prac,7,0.0,2-Back,0.0,m,Tue Apr 21 2026 13:30:08 GMT-0500 (Central Daylight Time),1064576.2999999523,082_m_m_n_a.png,O,z,1547,7,1,2326.2999999523163,1062250.0,7790,NNB,C,5
4,prac,7,0.0,2-Back,0.0,m,Tue Apr 21 2026 13:30:08 GMT-0500 (Central Daylight Time),1066593.0999999046,059_o_m_n_a.png,O,z,1156,8,1,2004.2999999523163,1064588.7999999523,7790,NNB,C,6
5,prac,7,0.0,2-Back,1.0,m,Tue Apr 21 2026 13:30:08 GMT-0500 (Central Daylight Time),1069092.3999999762,028_y_f_n_a.png,O,m,1646,9,1,2492.2000000476837,1066600.1999999285,7790,NNB,C,7
6,prac,7,1.0,2-Back,1.0,z,Tue Apr 21 2026 13:30:08 GMT-0500 (Central Daylight Time),1070842.0,059_o_m_n_a.png,O,z,971,10,1,1741.4000000953674,1069100.5999999046,7790,NNB,C,8
6,prac,7,0.0,2-Back,0.0,m,Tue Apr 21 2026 13:30:08 GMT-0500 (Central Daylight Time),1072956.0,098_y_f_n_a.png,O,z,1261,11,1,2106.8000000715256,1070849.1999999285,7790,NNB,C,9
6,prac,7,0.0,2-Back,0.0,m,Tue Apr 21 2026 13:30:08 GMT-0500 (Central Daylight Time),1075205.0999999046,082_m_m_n_a.png,O,z,1470,12,1,2243.5,1072961.5999999046,7790,NNB,C,10
0,test,1,0.0,2-Back,,,Tue Apr 21 2026 13:30:08 GMT-0500 (Central Daylight Time),1075205.0999999046,057_y_m_n_a.png,O,space,8678,1,1,2243.5,1072961.5999999046,7790,NNB,C,0
0,test,1,0.0,2-Back,,,Tue Apr 21 2026 13:30:08 GMT-0500 (Central Daylight Time),1075205.0999999046,057_y_m_n_a.png,O,space,8678,2,1,2243.5,1072961.5999999046,7790,NNB,C,0
1,test,1,0.0,2-Back,1.0,m,Tue Apr 21 2026 13:30:08 GMT-0500 (Central Daylight Time),1100032.6999999285,130_o_f_n_a.png,O,m,1458,3,1,2477.1999999284744,1097555.5,7790,NNB,C,1
2,test,1,0.0,2-Back,1.0,m,Tue Apr 21 2026 13:30:08 GMT-0500 (Central Daylight Time),1102264.7999999523,092_m_m_n_a.png,O,m,1207,4,1,2227.0,1100037.7999999523,7790,NNB,C,2
2,test,1,1.0,2-Back,0.0,z,Tue Apr 21 2026 13:30:08 GMT-0500 (Central Daylight Time),1104063.6999999285,130_o_f_n_a.png,O,m,775,5,1,1793.7999999523163,1102269.8999999762,7790,NNB,C,3
3,test,1,0.0,2-Back,1.0,m,Tue Apr 21 2026 13:30:08 GMT-0500 (Central Daylight Time),1106362.7999999523,098_y_f_n_a.png,O,m,1278,6,1,2292.5,1104070.2999999523,7790,NNB,C,4
3,test,1,0.0,2-Back,0.0,m,Tue Apr 21 2026 13:30:08 GMT-0500 (Central Daylight Time),1108746.0,092_m_m_n_a.png,O,z,1356,7,1,2376.8000000715256,1106369.1999999285,7790,NNB,C,5
3,test,1,1.0,2-Back,0.0,z,Tue Apr 21 2026 13:30:08 GMT-0500 (Central Daylight Time),1111011.5999999046,098_y_f_n_a.png,O,m,1237,8,1,2259.1999999284744,1108752.3999999762,7790,NNB,C,6
3,test,1,0.0,2-Back,0.0,m,Tue Apr 21 2026 13:30:08 GMT-0500 (Central Daylight Time),1113711.5,031_y_m_n_a.png,O,z,1675,9,1,2691.9000000953674,1111019.5999999046,7790,NNB,C,7
4,test,1,0.0,2-Back,1.0,m,Tue Apr 21 2026 13:30:08 GMT-0500 (Central Daylight Time),1116193.0,030_o_f_n_a.png,O,m,1455,10,1,2474.9000000953674,1113718.0999999046,7790,NNB,C,8
5,test,1,1.0,2-Back,1.0,z,Tue Apr 21 2026 13:30:08 GMT-0500 (Central Daylight Time),1118394.0999999046,031_y_m_n_a.png,O,z,1173,11,1,2194.5,1116199.5999999046,7790,NNB,C,9
6,test,1,0.0,2-Back,1.0,m,Tue Apr 21 2026 13:30:08 GMT-0500 (Central Daylight Time),1120708.2999999523,006_m_f_n_a.png,O,m,1294,12,1,2306.7999999523163,1118401.5,7790,NNB,C,10
7,test,1,0.0,2-Back,1.0,m,Tue Apr 21 2026 13:30:08 GMT-0500 (Central Daylight Time),1122791.5999999046,006_m_f_n_a.png,O,m,1051,13,1,2076.899999976158,1120714.6999999285,7790,NNB,C,11
8,test,1,0.0,2-Back,1.0,m,Tue Apr 21 2026 13:30:08 GMT-0500 (Central Daylight Time),1125439.7999999523,146_o_m_n_a.png,O,m,1631,14,1,2640.7000000476837,1122799.0999999046,7790,NNB,C,12
9,test,1,0.0,2-Back,1.0,m,Tue Apr 21 2026 13:30:08 GMT-0500 (Central Daylight Time),1127857.0,030_o_f_n_a.png,O,m,1399,15,1,2411.5,1125445.5,7790,NNB,C,13
10,test,1,1.0,2-Back,1.0,z,Tue Apr 21 2026 13:30:08 GMT-0500 (Central Daylight Time),1129756.6999999285,146_o_m_n_a.png,O,z,870,16,1,1892.2999999523163,1127864.3999999762,7790,NNB,C,14
11,test,1,0.0,2-Back,1.0,m,Tue Apr 21 2026 13:30:08 GMT-0500 (Central Daylight Time),1132139.0,093_m_f_n_a.png,O,m,1354,17,1,2373.600000023842,1129765.3999999762,7790,NNB,C,15
11,test,1,0.0,2-Back,0.0,m,Tue Apr 21 2026 13:30:08 GMT-0500 (Central Daylight Time),1134003.8999999762,082_m_m_n_a.png,O,z,838,18,1,1857.8000000715256,1132146.0999999046,7790,NNB,C,16
0,test,2,0.0,2-Back,,,Tue Apr 21 2026 13:30:08 GMT-0500 (Central Daylight Time),1134003.8999999762,082_m_m_n_a.png,O,space,3586,1,1,1857.8000000715256,1132146.0999999046,7790,NNB,C,0
0,test,2,0.0,2-Back,,,Tue Apr 21 2026 13:30:08 GMT-0500 (Central Daylight Time),1134003.8999999762,028_y_f_n_a.png,O,space,3586,2,1,1857.8000000715256,1132146.0999999046,7790,NNB,C,0
0,test,2,1.0,2-Back,0.0,z,Tue Apr 21 2026 13:30:08 GMT-0500 (Central Daylight Time),1145752.0,082_m_m_n_a.png,O,None,2014,3,1,3023.7000000476837,1142728.2999999523,7790,NNB,C,1
1,test,2,0.0,2-Back,1.0,m,Tue Apr 21 2026 13:30:08 GMT-0500 (Central Daylight Time),1148050.8999999762,093_m_f_n_a.png,O,m,1282,4,1,2292.3000000715256,1145758.5999999046,7790,NNB,C,2
2,test,2,0.0,2-Back,1.0,m,Tue Apr 21 2026 13:30:08 GMT-0500 (Central Daylight Time),1150166.2999999523,028_y_f_n_a.png,O,m,1092,5,1,2109.0,1148057.2999999523,7790,NNB,C,3
2,test,2,0.0,2-Back,0.0,m,Tue Apr 21 2026 13:30:08 GMT-0500 (Central Daylight Time),1152249.5,146_o_m_n_a.png,O,z,1058,6,1,2077.100000023842,1150172.3999999762,7790,NNB,C,4
3,test,2,0.0,2-Back,1.0,m,Tue Apr 21 2026 13:30:08 GMT-0500 (Central Daylight Time),1154349.3999999762,098_y_f_n_a.png,O,m,1078,7,1,2093.3000000715256,1152256.0999999046,7790,NNB,C,5
4,test,2,1.0,2-Back,1.0,z,Tue Apr 21 2026 13:30:08 GMT-0500 (Central Daylight Time),1156313.5,146_o_m_n_a.png,O,z,948,8,1,1957.3000000715256,1154356.1999999285,7790,NNB,C,6
5,test,2,0.0,2-Back,1.0,m,Tue Apr 21 2026 13:30:08 GMT-0500 (Central Daylight Time),1158429.6999999285,031_y_m_n_a.png,O,m,1093,9,1,2108.399999976158,1156321.2999999523,7790,NNB,C,7
6,test,2,0.0,2-Back,1.0,m,Tue Apr 21 2026 13:30:08 GMT-0500 (Central Daylight Time),1161112.1999999285,031_y_m_n_a.png,O,m,1656,10,1,2674.0,1158438.1999999285,7790,NNB,C,8
6,test,2,0.0,2-Back,0.0,m,Tue Apr 21 2026 13:30:08 GMT-0500 (Central Daylight Time),1163697.0999999046,006_m_f_n_a.png,O,z,1552,11,1,2579.2999999523163,1161117.7999999523,7790,NNB,C,9
6,test,2,0.0,2-Back,0.0,m,Tue Apr 21 2026 13:30:08 GMT-0500 (Central Daylight Time),1166394.3999999762,028_y_f_n_a.png,O,z,1671,12,1,2690.7000000476837,1163703.6999999285,7790,NNB,C,10
6,test,2,1.0,2-Back,0.0,z,Tue Apr 21 2026 13:30:08 GMT-0500 (Central Daylight Time),1168427.2999999523,006_m_f_n_a.png,O,m,1000,13,1,2025.1000000238419,1166402.1999999285,7790,NNB,C,11
7,test,2,0.0,2-Back,1.0,m,Tue Apr 21 2026 13:30:08 GMT-0500 (Central Daylight Time),1170609.0999999046,059_o_m_n_a.png,O,m,1158,14,1,2174.7999999523163,1168434.2999999523,7790,NNB,C,12
8,test,2,0.0,2-Back,1.0,m,Tue Apr 21 2026 13:30:08 GMT-0500 (Central Daylight Time),1172776.5,059_o_m_n_a.png,O,m,1142,15,1,2158.9000000953674,1170617.5999999046,7790,NNB,C,13
9,test,2,0.0,2-Back,1.0,m,Tue Apr 21 2026 13:30:08 GMT-0500 (Central Daylight Time),1175157.2999999523,030_o_f_n_a.png,O,m,1352,16,1,2372.399999976158,1172784.8999999762,7790,NNB,C,14
9,test,2,0.0,2-Back,0.0,m,Tue Apr 21 2026 13:30:08 GMT-0500 (Central Daylight Time),1177823.2999999523,092_m_m_n_a.png,O,z,1633,17,1,2659.7999999523163,1175163.5,7790,NNB,C,15
10,test,2,1.0,2-Back,1.0,z,Tue Apr 21 2026 13:30:08 GMT-0500 (Central Daylight Time),1180357.5999999046,030_o_f_n_a.png,O,z,1510,18,1,2527.399999976158,1177830.1999999285,7790,NNB,C,16
0,test,3,1.0,2-Back,,,Tue Apr 21 2026 13:30:08 GMT-0500 (Central Daylight Time),1180357.5999999046,057_y_m_n_a.png,O,space,1986,1,1,2527.399999976158,1177830.1999999285,7790,NNB,C,0
0,test,3,1.0,2-Back,,,Tue Apr 21 2026 13:30:08 GMT-0500 (Central Daylight Time),1180357.5999999046,057_y_m_n_a.png,O,space,1986,2,1,2527.399999976158,1177830.1999999285,7790,NNB,C,0
1,test,3,0.0,2-Back,1.0,m,Tue Apr 21 2026 13:30:08 GMT-0500 (Central Daylight Time),1189570.2999999523,030_o_f_n_a.png,O,m,1082,3,1,2090.2000000476837,1187480.0999999046,7790,NNB,C,1
2,test,3,0.0,2-Back,1.0,m,Tue Apr 21 2026 13:30:08 GMT-0500 (Central Daylight Time),1191753.3999999762,082_m_m_n_a.png,O,m,1157,4,1,2176.5,1189576.8999999762,7790,NNB,C,2
3,test,3,1.0,2-Back,1.0,z,Tue Apr 21 2026 13:30:08 GMT-0500 (Central Daylight Time),1194451.8999999762,030_o_f_n_a.png,O,z,1679,5,1,2693.600000023842,1191758.2999999523,7790,NNB,C,3
4,test,3,0.0,2-Back,1.0,m,Tue Apr 21 2026 13:30:08 GMT-0500 (Central Daylight Time),1197116.8999999762,031_y_m_n_a.png,O,m,1641,6,1,2657.7000000476837,1194459.1999999285,7790,NNB,C,4
4,test,3,0.0,2-Back,0.0,m,Tue Apr 21 2026 13:30:08 GMT-0500 (Central Daylight Time),1199316.8999999762,082_m_m_n_a.png,O,z,1169,7,1,2195.8000000715256,1197121.0999999046,7790,NNB,C,5
5,test,3,1.0,2-Back,1.0,z,Tue Apr 21 2026 13:30:08 GMT-0500 (Central Daylight Time),1201765.5,031_y_m_n_a.png,O,z,1418,8,1,2442.5,1199323.0,7790,NNB,C,6
6,test,3,0.0,2-Back,1.0,m,Tue Apr 21 2026 13:30:08 GMT-0500 (Central Daylight Time),1204015.5999999046,028_y_f_n_a.png,O,m,1227,9,1,2243.5999999046326,1201772.0,7790,NNB,C,7
6,test,3,0.0,2-Back,0.0,m,Tue Apr 21 2026 13:30:08 GMT-0500 (Central Daylight Time),1206449.3999999762,092_m_m_n_a.png,O,z,1401,10,1,2426.5,1204022.8999999762,7790,NNB,C,8
7,test,3,1.0,2-Back,1.0,z,Tue Apr 21 2026 13:30:08 GMT-0500 (Central Daylight Time),1208947.5,028_y_f_n_a.png,O,z,1471,11,1,2491.3000000715256,1206456.1999999285,7790,NNB,C,9
8,test,3,1.0,2-Back,1.0,z,Tue Apr 21 2026 13:30:08 GMT-0500 (Central Daylight Time),1211446.1999999285,092_m_m_n_a.png,O,z,1468,12,1,2491.7999999523163,1208954.3999999762,7790,NNB,C,10
9,test,3,0.0,2-Back,1.0,m,Tue Apr 21 2026 13:30:08 GMT-0500 (Central Daylight Time),1213862.7999999523,030_o_f_n_a.png,O,m,1392,13,1,2408.2000000476837,1211454.5999999046,7790,NNB,C,11
10,test,3,0.0,2-Back,1.0,m,Tue Apr 21 2026 13:30:08 GMT-0500 (Central Daylight Time),1215895.0,093_m_f_n_a.png,O,m,1017,14,1,2024.9000000953674,1213870.0999999046,7790,NNB,C,12
11,test,3,0.0,2-Back,1.0,m,Tue Apr 21 2026 13:30:08 GMT-0500 (Central Daylight Time),1218093.8999999762,146_o_m_n_a.png,O,m,1168,15,1,2194.899999976158,1215899.0,7790,NNB,C,13
12,test,3,1.0,2-Back,1.0,z,Tue Apr 21 2026 13:30:08 GMT-0500 (Central Daylight Time),1219959.6999999285,093_m_f_n_a.png,O,z,840,16,1,1858.7999999523163,1218100.8999999762,7790,NNB,C,14
13,test,3,0.0,2-Back,1.0,m,Tue Apr 21 2026 13:30:08 GMT-0500 (Central Daylight Time),1222192.7999999523,130_o_f_n_a.png,O,m,1205,17,1,2226.7000000476837,1219966.0999999046,7790,NNB,C,15
14,test,3,0.0,2-Back,1.0,m,Tue Apr 21 2026 13:30:08 GMT-0500 (Central Daylight Time),1224310.0,130_o_f_n_a.png,O,m,1087,18,1,2113.5,1222196.5,7790,NNB,C,16
0,test,4,0.0,2-Back,,,Tue Apr 21 2026 13:30:08 GMT-0500 (Central Daylight Time),1224310.0,059_o_m_n_a.png,O,space,1769,1,1,2113.5,1222196.5,7790,NNB,C,0
0,test,4,0.0,2-Back,,,Tue Apr 21 2026 13:30:08 GMT-0500 (Central Daylight Time),1224310.0,098_y_f_n_a.png,O,space,1769,2,1,2113.5,1222196.5,7790,NNB,C,0
1,test,4,1.0,2-Back,1.0,z,Tue Apr 21 2026 13:30:08 GMT-0500 (Central Daylight Time),1233540.0999999046,059_o_m_n_a.png,O,z,1228,3,1,2242.6999999284744,1231297.3999999762,7790,NNB,C,1
2,test,4,1.0,2-Back,1.0,z,Tue Apr 21 2026 13:30:08 GMT-0500 (Central Daylight Time),1235588.3999999762,098_y_f_n_a.png,O,z,1029,4,1,2041.7000000476837,1233546.6999999285,7790,NNB,C,2
3,test,4,0.0,2-Back,1.0,m,Tue Apr 21 2026 13:30:08 GMT-0500 (Central Daylight Time),1237754.1999999285,030_o_f_n_a.png,O,m,1138,5,1,2159.5,1235594.6999999285,7790,NNB,C,3
4,test,4,0.0,2-Back,1.0,m,Tue Apr 21 2026 13:30:08 GMT-0500 (Central Daylight Time),1239820.0999999046,030_o_f_n_a.png,O,m,1046,6,1,2059.2999999523163,1237760.7999999523,7790,NNB,C,4
5,test,4,0.0,2-Back,1.0,m,Tue Apr 21 2026 13:30:08 GMT-0500 (Central Daylight Time),1241956.0999999046,006_m_f_n_a.png,O,m,1100,7,1,2130.1999999284744,1239825.8999999762,7790,NNB,C,5
6,test,4,0.0,2-Back,1.0,m,Tue Apr 21 2026 13:30:08 GMT-0500 (Central Daylight Time),1243986.3999999762,031_y_m_n_a.png,O,m,1006,8,1,2023.8999999761581,1241962.5,7790,NNB,C,6
7,test,4,1.0,2-Back,1.0,z,Tue Apr 21 2026 13:30:08 GMT-0500 (Central Daylight Time),1246067.5,006_m_f_n_a.png,O,z,1052,9,1,2075.2000000476837,1243992.2999999523,7790,NNB,C,7
8,test,4,0.0,2-Back,1.0,m,Tue Apr 21 2026 13:30:08 GMT-0500 (Central Daylight Time),1248552.5999999046,092_m_m_n_a.png,O,m,1465,10,1,2482.5,1246070.0999999046,7790,NNB,C,8
8,test,4,0.0,2-Back,0.0,m,Tue Apr 21 2026 13:30:08 GMT-0500 (Central Daylight Time),1251233.0999999046,031_y_m_n_a.png,O,z,1654,11,1,2675.7999999523163,1248557.2999999523,7790,NNB,C,9
9,test,4,0.0,2-Back,1.0,m,Tue Apr 21 2026 13:30:08 GMT-0500 (Central Daylight Time),1253866.8999999762,130_o_f_n_a.png,O,m,1604,12,1,2629.8000000715256,1251237.0999999046,7790,NNB,C,10
10,test,4,0.0,2-Back,1.0,m,Tue Apr 21 2026 13:30:08 GMT-0500 (Central Daylight Time),1256266.2999999523,057_y_m_n_a.png,O,m,1374,13,1,2394.399999976158,1253871.8999999762,7790,NNB,C,11
11,test,4,1.0,2-Back,1.0,z,Tue Apr 21 2026 13:30:08 GMT-0500 (Central Daylight Time),1258613.6999999285,130_o_f_n_a.png,O,z,1317,14,1,2342.899999976158,1256270.7999999523,7790,NNB,C,12
11,test,4,1.0,2-Back,0.0,z,Tue Apr 21 2026 13:30:08 GMT-0500 (Central Daylight Time),1260313.8999999762,057_y_m_n_a.png,O,m,673,15,1,1695.8999999761581,1258618.0,7790,NNB,C,13
12,test,4,0.0,2-Back,1.0,m,Tue Apr 21 2026 13:30:08 GMT-0500 (Central Daylight Time),1262698.0,082_m_m_n_a.png,O,m,1367,16,1,2379.0,1260319.0,7790,NNB,C,14
13,test,4,0.0,2-Back,1.0,m,Tue Apr 21 2026 13:30:08 GMT-0500 (Central Daylight Time),1265096.5,093_m_f_n_a.png,O,m,1374,17,1,2392.600000023842,1262703.8999999762,7790,NNB,C,15
14,test,4,1.0,2-Back,1.0,z,Tue Apr 21 2026 13:30:08 GMT-0500 (Central Daylight Time),1266845.1999999285,082_m_m_n_a.png,O,z,727,18,1,1743.7999999523163,1265101.3999999762,7790,NNB,C,16
0,test,5,1.0,2-Back,,,Tue Apr 21 2026 13:30:08 GMT-0500 (Central Daylight Time),1266845.1999999285,057_y_m_n_a.png,O,space,1666,1,1,1743.7999999523163,1265101.3999999762,7790,NNB,C,0
0,test,5,1.0,2-Back,,,Tue Apr 21 2026 13:30:08 GMT-0500 (Central Daylight Time),1266845.1999999285,093_m_f_n_a.png,O,space,1666,2,1,1743.7999999523163,1265101.3999999762,7790,NNB,C,0
1,test,5,1.0,2-Back,1.0,z,Tue Apr 21 2026 13:30:08 GMT-0500 (Central Daylight Time),1275959.5,057_y_m_n_a.png,O,z,1376,3,1,2392.0,1273567.5,7790,NNB,C,1
2,test,5,1.0,2-Back,1.0,z,Tue Apr 21 2026 13:30:08 GMT-0500 (Central Daylight Time),1277892.7999999523,093_m_f_n_a.png,O,z,912,4,1,1926.8999999761581,1275965.8999999762,7790,NNB,C,2
3,test,5,0.0,2-Back,1.0,m,Tue Apr 21 2026 13:30:08 GMT-0500 (Central Daylight Time),1280157.5,130_o_f_n_a.png,O,m,1244,5,1,2258.3000000715256,1277899.1999999285,7790,NNB,C,3
3,test,5,0.0,2-Back,0.0,m,Tue Apr 21 2026 13:30:08 GMT-0500 (Central Daylight Time),1282274.2999999523,057_y_m_n_a.png,O,z,1097,6,1,2109.7000000476837,1280164.5999999046,7790,NNB,C,4
4,test,5,0.0,2-Back,1.0,m,Tue Apr 21 2026 13:30:08 GMT-0500 (Central Daylight Time),1284639.1999999285,028_y_f_n_a.png,O,m,1341,7,1,2360.600000023842,1282278.5999999046,7790,NNB,C,5
4,test,5,0.0,2-Back,0.0,m,Tue Apr 21 2026 13:30:08 GMT-0500 (Central Daylight Time),1286488.8999999762,130_o_f_n_a.png,O,z,831,8,1,1840.6000000238419,1284648.2999999523,7790,NNB,C,6
5,test,5,1.0,2-Back,1.0,z,Tue Apr 21 2026 13:30:08 GMT-0500 (Central Daylight Time),1289188.3999999762,028_y_f_n_a.png,O,z,1671,9,1,2689.899999976158,1286498.5,7790,NNB,C,7
6,test,5,0.0,2-Back,1.0,m,Tue Apr 21 2026 13:30:08 GMT-0500 (Central Daylight Time),1291420.3999999762,146_o_m_n_a.png,O,m,1211,10,1,2224.399999976158,1289196.0,7790,NNB,C,8
7,test,5,0.0,2-Back,1.0,m,Tue Apr 21 2026 13:30:08 GMT-0500 (Central Daylight Time),1293453.7999999523,006_m_f_n_a.png,O,m,1009,11,1,2028.2000000476837,1291425.5999999046,7790,NNB,C,9
7,test,5,0.0,2-Back,0.0,m,Tue Apr 21 2026 13:30:08 GMT-0500 (Central Daylight Time),1295336.5,092_m_m_n_a.png,O,z,850,12,1,1877.1000000238419,1293459.3999999762,7790,NNB,C,10
8,test,5,0.0,2-Back,1.0,m,Tue Apr 21 2026 13:30:08 GMT-0500 (Central Daylight Time),1297686.0999999046,146_o_m_n_a.png,O,m,1320,13,1,2344.7999999523163,1295341.2999999523,7790,NNB,C,11
9,test,5,1.0,2-Back,1.0,z,Tue Apr 21 2026 13:30:08 GMT-0500 (Central Daylight Time),1299552.0999999046,092_m_m_n_a.png,O,z,834,14,1,1858.8999999761581,1297693.1999999285,7790,NNB,C,12
10,test,5,0.0,2-Back,1.0,m,Tue Apr 21 2026 13:30:08 GMT-0500 (Central Daylight Time),1301768.5999999046,098_y_f_n_a.png,O,m,1200,15,1,2206.5,1299562.0999999046,7790,NNB,C,13
11,test,5,0.0,2-Back,1.0,m,Tue Apr 21 2026 13:30:08 GMT-0500 (Central Daylight Time),1304149.7999999523,059_o_m_n_a.png,O,m,1351,16,1,2372.7000000476837,1301777.0999999046,7790,NNB,C,14
12,test,5,0.0,2-Back,1.0,m,Tue Apr 21 2026 13:30:08 GMT-0500 (Central Daylight Time),1306366.1999999285,006_m_f_n_a.png,O,m,1192,17,1,2209.1999999284744,1304157.0,7790,NNB,C,15
13,test,5,1.0,2-Back,1.0,z,Tue Apr 21 2026 13:30:08 GMT-0500 (Central Daylight Time),1308065.7999999523,059_o_m_n_a.png,O,z,682,18,1,1692.6000000238419,1306373.1999999285,7790,NNB,C,16
