acc_sum,block,block_c,condition,correct,correct_response,datetime,endtime,flanker,jitter,project,response,response_test_buffer_response,response_test_target_response,response_time,response_time_test_buffer_response,response_time_test_target_response,row_sel,session_number,start_end,starttime,subject_id,target,task,task_vers,time_test_buffer,time_test_buffer_response,time_test_constants,time_test_flanker,time_test_jitter,time_test_logger,time_test_target,time_test_target_response,time_test_variables,trial
1,prac,1,inc,1,m,Tue Feb 03 2026 10:30:59 GMT-0500 (Eastern Standard Time),174366.10000038147,pear,900,I,m,,,713,,,14,1,2907.9000005722046,171458.19999980927,9050,iron,NF,C,,,,,,,,,,1
2,prac,1,inc,1,z,Tue Feb 03 2026 10:30:59 GMT-0500 (Eastern Standard Time),177198.89999961853,lead,1100,I,z,,,429,,,8,1,2818.8999996185303,174380.0,9050,plum,NF,C,,,,,,,,,,2
3,prac,1,inc,1,m,Tue Feb 03 2026 10:30:59 GMT-0500 (Eastern Standard Time),180165.5,raisin,1100,I,m,,,555,,,12,1,2955.5,177210.0,9050,cobalt,NF,C,,,,,,,,,,3
4,prac,1,con,1,m,Tue Feb 03 2026 10:30:59 GMT-0500 (Eastern Standard Time),182832.0,gold,800,I,m,,,560,,,13,1,2655.6000003814697,180176.39999961853,9050,gold,NF,C,,,,,,,,,,4
5,prac,1,inc,1,z,Tue Feb 03 2026 10:30:59 GMT-0500 (Eastern Standard Time),185532.39999961853,iron,900,I,z,,,497,,,6,1,2691.5,182840.89999961853,9050,pear,NF,C,,,,,,,,,,5
6,prac,1,con,1,m,Tue Feb 03 2026 10:30:59 GMT-0500 (Eastern Standard Time),188232.0,silver,1000,I,m,,,386,,,11,1,2689.1000003814697,185542.89999961853,9050,silver,NF,C,,,,,,,,,,6
7,prac,1,con,1,m,Tue Feb 03 2026 10:30:59 GMT-0500 (Eastern Standard Time),191115.30000019073,zinc,1000,I,m,,,566,,,15,1,2871.0,188244.30000019073,9050,zinc,NF,C,,,,,,,,,,7
8,prac,1,inc,1,z,Tue Feb 03 2026 10:30:59 GMT-0500 (Eastern Standard Time),193782.0,copper,900,I,z,,,455,,,2,1,2656.699999809265,191125.30000019073,9050,cherry,NF,C,,,,,,,,,,8
9,prac,1,con,1,z,Tue Feb 03 2026 10:30:59 GMT-0500 (Eastern Standard Time),196299.10000038147,banana,800,I,z,,,384,,,1,1,2499.1000003814697,193800.0,9050,banana,NF,C,,,,,,,,,,9
10,prac,1,inc,1,m,Tue Feb 03 2026 10:30:59 GMT-0500 (Eastern Standard Time),198832.39999961853,cherry,900,I,m,,,327,,,10,1,2522.199999809265,196310.19999980927,9050,copper,NF,C,,,,,,,,,,10
11,prac,1,con,1,z,Tue Feb 03 2026 10:30:59 GMT-0500 (Eastern Standard Time),201448.69999980927,orange,1000,I,z,,,302,,,3,1,2606.0,198842.69999980927,9050,orange,NF,C,,,,,,,,,,11
12,prac,1,con,1,m,Tue Feb 03 2026 10:30:59 GMT-0500 (Eastern Standard Time),203915.5,bronze,800,I,m,,,349,,,9,1,2457.300000190735,201458.19999980927,9050,bronze,NF,C,,,,,,,,,,12
13,prac,1,con,1,z,Tue Feb 03 2026 10:30:59 GMT-0500 (Eastern Standard Time),206365.30000019073,lime,800,I,z,,,347,,,5,1,2439.9000005722046,203925.39999961853,9050,lime,NF,C,,,,,,,,,,13
13,prac,1,inc,0,m,Tue Feb 03 2026 10:30:59 GMT-0500 (Eastern Standard Time),209132.30000019073,plum,1100,I,z,,,348,,,16,1,2757.300000190735,206375.0,9050,lead,NF,C,,,,,,,,,,14
14,prac,1,inc,1,z,Tue Feb 03 2026 10:30:59 GMT-0500 (Eastern Standard Time),212131.80000019073,cobalt,1100,I,z,,,590,,,4,1,2987.6000003814697,209144.19999980927,9050,raisin,NF,C,,,,,,,,,,15
15,prac,1,con,1,z,Tue Feb 03 2026 10:30:59 GMT-0500 (Eastern Standard Time),214865.39999961853,kiwi,1000,I,z,,,426,,,7,1,2723.699999809265,212141.69999980927,9050,kiwi,NF,C,,,,,,,,,,16
0,test,1,inc,0,z,Tue Feb 03 2026 10:30:59 GMT-0500 (Eastern Standard Time),245965.60000038147,cobalt,1100,I,m,m,None,416,216.0,200.0,16,1,2059.4000005722046,243906.19999980927,9050,cherry,NF,C,234662,234663,232836,233946,232837,234896,234462,234462,234895,1
1,test,1,inc,1,z,Tue Feb 03 2026 10:30:59 GMT-0500 (Eastern Standard Time),247915.30000019073,bronze,800,I,z,z,None,601,402.0,199.0,5,1,1940.8000001907349,245974.5,9050,banana,NF,C,236429,236429,234905,235712,234905,236845,236229,236229,236845,2
1,test,1,inc,0,z,Tue Feb 03 2026 10:30:59 GMT-0500 (Eastern Standard Time),249698.5,gold,800,I,m,m,None,443,244.0,199.0,45,1,1775.0,247923.5,9050,pear,NF,C,238379,238379,236854,237662,236854,238629,238179,238179,238629,3
2,test,1,inc,1,m,Tue Feb 03 2026 10:30:59 GMT-0500 (Eastern Standard Time),251697.80000019073,cherry,900,I,m,m,None,560,360.0,200.0,86,1,1990.4000005722046,249707.39999961853,9050,silver,NF,C,240262,240262,238637,239546,238638,240628,240062,240062,240628,4
3,test,1,con,1,z,Tue Feb 03 2026 10:30:59 GMT-0500 (Eastern Standard Time),253564.89999961853,kiwi,900,I,z,z,None,417,217.0,200.0,50,1,1860.5999994277954,251704.30000019073,9050,kiwi,NF,C,242262,242262,240634,241546,240635,242495,242062,242062,242495,5
4,test,1,con,1,m,Tue Feb 03 2026 10:30:59 GMT-0500 (Eastern Standard Time),255615.10000038147,cobalt,1100,I,m,m,None,413,213.0,200.0,92,1,2041.3000001907349,253573.80000019073,9050,cobalt,NF,C,244330,244330,242504,243612,242504,244545,244129,244129,244545,6
5,test,1,con,1,z,Tue Feb 03 2026 10:30:59 GMT-0500 (Eastern Standard Time),257581.60000038147,lime,1100,I,z,z,None,331,131.0,200.0,36,1,1954.6000003814697,255627.0,9050,lime,NF,C,246380,246380,244557,245662,244557,246512,246179,246179,246512,7
5,test,1,con,0,z,Tue Feb 03 2026 10:30:59 GMT-0500 (Eastern Standard Time),259465.10000038147,cherry,900,I,m,m,None,436,237.0,199.0,10,1,1875.3000001907349,257589.80000019073,9050,cherry,NF,C,248146,248146,246520,247429,246520,248395,247946,247946,248395,8
6,test,1,inc,1,z,Tue Feb 03 2026 10:30:59 GMT-0500 (Eastern Standard Time),261515.5,copper,900,I,z,z,None,601,402.0,199.0,30,1,2041.1999998092651,259474.30000019073,9050,raisin,NF,C,250029,250029,248404,249312,248405,250446,249829,249829,250446,9
7,test,1,con,1,z,Tue Feb 03 2026 10:30:59 GMT-0500 (Eastern Standard Time),263281.60000038147,pear,800,I,z,z,None,427,228.0,199.0,41,1,1757.3000001907349,261524.30000019073,9050,pear,NF,C,251979,251979,250454,251262,250455,252212,251779,251779,252212,10
7,test,1,con,0,m,Tue Feb 03 2026 10:30:59 GMT-0500 (Eastern Standard Time),265165.5,zinc,800,I,z,z,None,532,333.0,199.0,113,1,1872.0,263293.5,9050,zinc,NF,C,253746,253746,252224,253029,252224,254096,253546,253546,254096,11
8,test,1,inc,1,z,Tue Feb 03 2026 10:30:59 GMT-0500 (Eastern Standard Time),267165.10000038147,silver,1000,I,z,z,None,449,249.0,200.0,31,1,1989.8000001907349,265175.30000019073,9050,raisin,NF,C,255829,255830,254105,255112,254106,256095,255629,255629,256095,12
8,test,1,inc,0,z,Tue Feb 03 2026 10:30:59 GMT-0500 (Eastern Standard Time),269198.5,zinc,1000,I,m,m,None,497,298.0,199.0,47,1,2024.3000001907349,267174.19999980927,9050,pear,NF,C,257829,257829,256104,257112,256105,258129,257629,257629,258128,13
8,test,1,con,0,m,Tue Feb 03 2026 10:30:59 GMT-0500 (Eastern Standard Time),271115.19999980927,iron,900,I,z,z,None,469,269.0,200.0,106,1,1907.0999994277954,269208.10000038147,9050,iron,NF,C,259762,259762,258138,259046,258139,260045,259562,259562,260045,14
8,test,1,con,0,m,Tue Feb 03 2026 10:30:59 GMT-0500 (Eastern Standard Time),273132.0,lead,1000,I,z,z,None,467,268.0,199.0,123,1,2008.3000001907349,271123.69999980927,9050,lead,NF,C,261779,261779,260054,261063,260054,262062,261579,261579,262062,15
9,test,1,inc,1,z,Tue Feb 03 2026 10:30:59 GMT-0500 (Eastern Standard Time),275131.80000019073,silver,1000,I,z,z,None,450,251.0,199.0,23,1,1989.5,273142.30000019073,9050,orange,NF,C,263796,263796,262072,263079,262073,264062,263596,263596,264062,16
10,test,1,con,1,m,Tue Feb 03 2026 10:30:59 GMT-0500 (Eastern Standard Time),276915.19999980927,bronze,800,I,m,m,None,442,243.0,199.0,65,1,1771.1999998092651,275144.0,9050,bronze,NF,C,265596,265596,264074,264879,264074,265845,265396,265396,265845,17
11,test,1,con,1,m,Tue Feb 03 2026 10:30:59 GMT-0500 (Eastern Standard Time),278798.30000019073,iron,800,I,m,m,None,548,348.0,200.0,105,1,1873.5,276924.80000019073,9050,iron,NF,C,267379,267379,265855,266662,265855,267728,267179,267179,267728,18
12,test,1,inc,1,m,Tue Feb 03 2026 10:30:59 GMT-0500 (Eastern Standard Time),280948.5,plum,1100,I,m,m,None,508,309.0,199.0,120,1,2141.0,278807.5,9050,zinc,NF,C,269562,269562,267738,268846,267738,269879,269363,269363,269879,19
13,test,1,con,1,m,Tue Feb 03 2026 10:30:59 GMT-0500 (Eastern Standard Time),283165.5,gold,1100,I,m,m,None,582,382.0,200.0,100,1,2207.800000190735,280957.69999980927,9050,gold,NF,C,271713,271713,269888,270995,269888,272096,271512,271512,272095,20
14,test,1,con,1,z,Tue Feb 03 2026 10:30:59 GMT-0500 (Eastern Standard Time),284815.19999980927,kiwi,800,I,z,z,None,313,114.0,199.0,49,1,1642.5,283172.69999980927,9050,kiwi,NF,C,273629,273629,272103,272912,272103,273745,273429,273429,273745,21
15,test,1,inc,1,z,Tue Feb 03 2026 10:30:59 GMT-0500 (Eastern Standard Time),286865.0,iron,900,I,z,z,None,611,411.0,200.0,62,1,2039.6000003814697,284825.39999961853,9050,plum,NF,C,275379,275380,273755,274662,273756,275795,275179,275179,275795,22
16,test,1,con,1,z,Tue Feb 03 2026 10:30:59 GMT-0500 (Eastern Standard Time),289015.10000038147,orange,1100,I,z,z,None,505,306.0,199.0,20,1,2141.300000190735,286873.80000019073,9050,orange,NF,C,277629,277629,275804,276912,275804,277945,277429,277429,277945,23
17,test,1,inc,1,z,Tue Feb 03 2026 10:30:59 GMT-0500 (Eastern Standard Time),291165.0,cobalt,1100,I,z,z,None,499,300.0,199.0,32,1,2140.1000003814697,289024.89999961853,9050,raisin,NF,C,279779,279779,277955,279062,277955,280095,279579,279579,280095,24
18,test,1,con,1,z,Tue Feb 03 2026 10:30:59 GMT-0500 (Eastern Standard Time),293148.5,pear,900,I,z,z,None,533,334.0,199.0,42,1,1975.6999998092651,291172.80000019073,9050,pear,NF,C,281729,281729,280103,281012,280103,282079,281529,281529,282078,25
19,test,1,con,1,m,Tue Feb 03 2026 10:30:59 GMT-0500 (Eastern Standard Time),295015.10000038147,lead,900,I,m,m,None,423,223.0,200.0,122,1,1857.5,293157.60000038147,9050,lead,NF,C,283712,283712,282088,282996,282088,283945,283512,283512,283945,26
20,test,1,inc,1,z,Tue Feb 03 2026 10:30:59 GMT-0500 (Eastern Standard Time),297098.39999961853,zinc,1000,I,z,z,None,535,336.0,199.0,55,1,2075.0,295023.39999961853,9050,kiwi,NF,C,285679,285679,283953,284962,283954,286029,285479,285479,286028,27
21,test,1,inc,1,m,Tue Feb 03 2026 10:30:59 GMT-0500 (Eastern Standard Time),299231.60000038147,kiwi,1000,I,m,m,None,596,397.0,199.0,103,1,2123.800000190735,297107.80000019073,9050,gold,NF,C,287762,287762,286038,287046,286038,288162,287563,287563,288162,28
21,test,1,con,0,m,Tue Feb 03 2026 10:30:59 GMT-0500 (Eastern Standard Time),301098.5,lead,800,I,z,z,None,518,319.0,199.0,121,1,1857.6999998092651,299240.80000019073,9050,lead,NF,C,289696,289696,288171,288979,288171,290029,289496,289496,290028,29
22,test,1,con,1,m,Tue Feb 03 2026 10:30:59 GMT-0500 (Eastern Standard Time),303081.5,cobalt,1000,I,m,m,None,435,236.0,199.0,91,1,1973.3999996185303,301108.10000038147,9050,cobalt,NF,C,291763,291763,290038,291046,290039,292012,291563,291563,292011,30
23,test,1,inc,1,z,Tue Feb 03 2026 10:30:59 GMT-0500 (Eastern Standard Time),305098.39999961853,silver,1000,I,z,z,None,468,269.0,199.0,15,1,2011.2999992370605,303087.10000038147,9050,cherry,NF,C,293746,293746,292017,293029,292017,294029,293546,293546,294028,31
24,test,1,inc,1,m,Tue Feb 03 2026 10:30:59 GMT-0500 (Eastern Standard Time),306965.30000019073,lime,800,I,m,m,None,525,325.0,200.0,117,1,1858.6000003814697,305106.69999980927,9050,zinc,NF,C,295562,295562,294037,294846,294037,295895,295362,295362,295895,32
25,test,1,con,1,m,Tue Feb 03 2026 10:30:59 GMT-0500 (Eastern Standard Time),308848.39999961853,cobalt,900,I,m,m,None,445,246.0,199.0,90,1,1874.7999992370605,306973.60000038147,9050,cobalt,NF,C,297529,297529,295904,296813,295904,297778,297329,297329,297778,33
26,test,1,con,1,z,Tue Feb 03 2026 10:30:59 GMT-0500 (Eastern Standard Time),310715.19999980927,orange,800,I,z,z,None,519,319.0,200.0,17,1,1857.5,308857.69999980927,9050,orange,NF,C,299312,299312,297788,298595,297788,299645,299112,299112,299645,34
27,test,1,con,1,z,Tue Feb 03 2026 10:30:59 GMT-0500 (Eastern Standard Time),312748.30000019073,kiwi,1000,I,z,z,None,500,300.0,200.0,51,1,2024.4000005722046,310723.89999961853,9050,kiwi,NF,C,301363,301363,299654,300661,299654,301678,301162,301162,301678,35
28,test,1,inc,1,z,Tue Feb 03 2026 10:30:59 GMT-0500 (Eastern Standard Time),314865.10000038147,zinc,1000,I,z,z,None,579,379.0,200.0,63,1,2106.300000190735,312758.80000019073,9050,plum,NF,C,303412,303412,301689,302695,301689,303795,303212,303212,303795,36
29,test,1,inc,1,z,Tue Feb 03 2026 10:30:59 GMT-0500 (Eastern Standard Time),316781.60000038147,gold,800,I,z,z,None,581,382.0,199.0,53,1,1905.6000003814697,314876.0,9050,kiwi,NF,C,305329,305329,303806,304613,303806,305712,305129,305129,305712,37
29,test,1,inc,0,m,Tue Feb 03 2026 10:30:59 GMT-0500 (Eastern Standard Time),318748.30000019073,kiwi,1000,I,z,z,None,416,217.0,199.0,111,1,1956.4000005722046,316791.89999961853,9050,iron,NF,C,307446,307446,305722,306729,305722,307678,307246,307246,307678,38
30,test,1,con,1,z,Tue Feb 03 2026 10:30:59 GMT-0500 (Eastern Standard Time),320931.80000019073,plum,1100,I,z,z,None,543,343.0,200.0,60,1,2172.699999809265,318759.10000038147,9050,plum,NF,C,309512,309512,307689,308795,307690,309862,309312,309312,309862,39
31,test,1,con,1,m,Tue Feb 03 2026 10:30:59 GMT-0500 (Eastern Standard Time),322681.69999980927,copper,800,I,m,m,None,402,203.0,199.0,73,1,1740.6999998092651,320941.0,9050,copper,NF,C,311396,311396,309871,310679,309871,311612,311195,311196,311612,40
32,test,1,con,1,z,Tue Feb 03 2026 10:30:59 GMT-0500 (Eastern Standard Time),324515.0,cherry,800,I,z,z,None,492,293.0,199.0,9,1,1819.0,322696.0,9050,cherry,NF,C,313146,313146,311626,312429,311626,313445,312946,312946,313445,41
33,test,1,inc,1,m,Tue Feb 03 2026 10:30:59 GMT-0500 (Eastern Standard Time),326532.10000038147,banana,800,I,m,m,None,675,476.0,199.0,69,1,2005.7000007629395,324526.39999961853,9050,bronze,NF,C,314979,314979,313456,314262,313457,315462,314779,314779,315462,42
34,test,1,inc,1,z,Tue Feb 03 2026 10:30:59 GMT-0500 (Eastern Standard Time),328764.89999961853,silver,1000,I,z,z,None,683,483.0,200.0,7,1,2223.699999809265,326541.19999980927,9050,banana,NF,C,317196,317196,315471,316479,315472,317695,316995,316995,317695,43
35,test,1,inc,1,m,Tue Feb 03 2026 10:30:59 GMT-0500 (Eastern Standard Time),330898.30000019073,pear,900,I,m,m,None,693,494.0,199.0,102,1,2122.6000003814697,328775.69999980927,9050,gold,NF,C,319329,319329,317706,318612,317706,319829,319129,319129,319828,44
36,test,1,con,1,m,Tue Feb 03 2026 10:30:59 GMT-0500 (Eastern Standard Time),332781.80000019073,gold,900,I,m,m,None,433,233.0,200.0,98,1,1874.5,330907.30000019073,9050,gold,NF,C,321462,321462,319837,320746,319838,321712,321262,321262,321712,45
36,test,1,con,0,m,Tue Feb 03 2026 10:30:59 GMT-0500 (Eastern Standard Time),334681.80000019073,bronze,900,I,z,z,None,452,253.0,199.0,66,1,1889.6000003814697,332792.19999980927,9050,bronze,NF,C,323346,323346,321722,322629,321723,323612,323146,323146,323612,46
37,test,1,inc,1,m,Tue Feb 03 2026 10:30:59 GMT-0500 (Eastern Standard Time),336881.69999980927,cherry,900,I,m,m,None,760,561.0,199.0,70,1,2189.300000190735,334692.39999961853,9050,bronze,NF,C,325246,325246,323622,324529,323623,325812,325046,325046,325812,47
38,test,1,inc,1,m,Tue Feb 03 2026 10:30:59 GMT-0500 (Eastern Standard Time),339048.5,plum,1100,I,m,m,None,521,321.0,200.0,112,1,2156.0,336892.5,9050,iron,NF,C,327646,327646,325822,326929,325823,327979,327445,327445,327978,48
39,test,1,con,1,z,Tue Feb 03 2026 10:30:59 GMT-0500 (Eastern Standard Time),341014.89999961853,raisin,800,I,z,z,None,623,423.0,200.0,25,1,1954.7999992370605,339060.10000038147,9050,raisin,NF,C,329512,329512,327990,328795,327991,329945,329312,329312,329945,49
40,test,1,inc,1,z,Tue Feb 03 2026 10:30:59 GMT-0500 (Eastern Standard Time),343015.10000038147,iron,900,I,z,z,None,555,356.0,199.0,38,1,1989.7000007629395,341025.39999961853,9050,lime,NF,C,331579,331579,329955,330862,329956,331945,331379,331379,331945,50
41,test,1,inc,1,m,Tue Feb 03 2026 10:30:59 GMT-0500 (Eastern Standard Time),345115.0,orange,1000,I,m,m,None,552,352.0,200.0,87,1,2090.1000003814697,343024.89999961853,9050,silver,NF,C,333679,333679,331955,332962,331955,334045,333479,333479,334045,51
42,test,1,con,1,m,Tue Feb 03 2026 10:30:59 GMT-0500 (Eastern Standard Time),347148.19999980927,zinc,900,I,m,m,None,599,399.0,200.0,114,1,2024.1999998092651,345124.0,9050,zinc,NF,C,335679,335679,334054,334962,334054,336078,335479,335479,336078,52
43,test,1,con,1,z,Tue Feb 03 2026 10:30:59 GMT-0500 (Eastern Standard Time),349198.39999961853,banana,1000,I,z,z,None,514,315.0,199.0,3,1,2044.3999996185303,347154.0,9050,banana,NF,C,337812,337812,336084,337095,336084,338129,337613,337613,338128,53
44,test,1,con,1,m,Tue Feb 03 2026 10:30:59 GMT-0500 (Eastern Standard Time),351148.39999961853,silver,800,I,m,m,None,600,400.0,200.0,81,1,1941.0,349207.39999961853,9050,silver,NF,C,339663,339663,338137,338946,338138,340079,339462,339462,340078,54
45,test,1,inc,1,z,Tue Feb 03 2026 10:30:59 GMT-0500 (Eastern Standard Time),353431.69999980927,cobalt,1100,I,z,z,None,639,439.0,200.0,8,1,2273.699999809265,351158.0,9050,banana,NF,C,341912,341912,340088,341196,340088,342362,341712,341712,342362,55
46,test,1,con,1,z,Tue Feb 03 2026 10:30:59 GMT-0500 (Eastern Standard Time),355548.39999961853,banana,1100,I,z,z,None,466,267.0,199.0,4,1,2107.699999809265,353440.69999980927,9050,banana,NF,C,344195,344196,342371,343479,342371,344478,343996,343996,344478,56
47,test,1,con,1,z,Tue Feb 03 2026 10:30:59 GMT-0500 (Eastern Standard Time),357748.30000019073,raisin,1100,I,z,z,None,557,358.0,199.0,28,1,2189.6000003814697,355558.69999980927,9050,raisin,NF,C,346313,346313,344489,345595,344489,346678,346113,346113,346678,57
48,test,1,con,1,z,Tue Feb 03 2026 10:30:59 GMT-0500 (Eastern Standard Time),359781.60000038147,orange,900,I,z,z,None,590,390.0,200.0,18,1,2023.0,357758.60000038147,9050,orange,NF,C,348313,348313,346689,347595,346689,348712,348112,348112,348712,58
49,test,1,con,1,m,Tue Feb 03 2026 10:30:59 GMT-0500 (Eastern Standard Time),361681.60000038147,silver,1000,I,m,m,None,360,161.0,199.0,83,1,1891.4000005722046,359790.19999980927,9050,silver,NF,C,350445,350446,348720,349729,348721,350612,350246,350246,350612,59
50,test,1,con,1,m,Tue Feb 03 2026 10:30:59 GMT-0500 (Eastern Standard Time),363648.30000019073,gold,800,I,m,m,None,628,429.0,199.0,97,1,1958.1999998092651,361690.10000038147,9050,gold,NF,C,352146,352146,350620,351429,350620,352578,351945,351946,352578,60
51,test,1,con,1,m,Tue Feb 03 2026 10:30:59 GMT-0500 (Eastern Standard Time),365482.0,copper,900,I,m,m,None,387,187.0,200.0,74,1,1824.8999996185303,363657.10000038147,9050,copper,NF,C,354212,354212,352587,353496,352588,354412,354012,354012,354412,61
52,test,1,con,1,m,Tue Feb 03 2026 10:30:59 GMT-0500 (Eastern Standard Time),367348.30000019073,silver,900,I,m,m,None,425,225.0,200.0,82,1,1856.4000005722046,365491.89999961853,9050,silver,NF,C,356046,356046,354422,355328,354422,356278,355845,355845,356278,62
53,test,1,inc,1,z,Tue Feb 03 2026 10:30:59 GMT-0500 (Eastern Standard Time),369381.60000038147,iron,900,I,z,z,None,591,391.0,200.0,54,1,2022.3000001907349,367359.30000019073,9050,kiwi,NF,C,357912,357912,356289,357195,356290,358312,357712,357712,358312,63
54,test,1,inc,1,m,Tue Feb 03 2026 10:30:59 GMT-0500 (Eastern Standard Time),371514.89999961853,orange,1000,I,m,m,None,584,385.0,199.0,79,1,2122.0999994277954,369392.80000019073,9050,copper,NF,C,360045,360046,358323,359329,358323,360445,359846,359846,360445,64
55,test,1,con,1,m,Tue Feb 03 2026 10:30:59 GMT-0500 (Eastern Standard Time),373731.69999980927,iron,1100,I,m,m,None,575,376.0,199.0,108,1,2206.0,371525.69999980927,9050,iron,NF,C,362279,362279,360456,361563,360456,362662,362079,362079,362662,65
56,test,1,inc,1,m,Tue Feb 03 2026 10:30:59 GMT-0500 (Eastern Standard Time),375964.89999961853,raisin,1100,I,m,m,None,582,383.0,199.0,80,1,2222.2999992370605,373742.60000038147,9050,copper,NF,C,364496,364496,362673,363779,362673,364895,364296,364296,364895,66
57,test,1,con,1,z,Tue Feb 03 2026 10:30:59 GMT-0500 (Eastern Standard Time),377898.30000019073,lime,800,I,z,z,None,585,386.0,199.0,33,1,1924.3000001907349,375974.0,9050,lime,NF,C,366429,366429,364904,365712,364904,366828,366229,366229,366828,67
58,test,1,inc,1,m,Tue Feb 03 2026 10:30:59 GMT-0500 (Eastern Standard Time),379998.10000038147,kiwi,1000,I,m,m,None,565,365.0,200.0,127,1,2088.1000003814697,377910.0,9050,lead,NF,C,368562,368562,366840,367845,366841,368928,368362,368362,368928,68
59,test,1,con,1,z,Tue Feb 03 2026 10:30:59 GMT-0500 (Eastern Standard Time),382248.30000019073,raisin,1000,I,z,z,None,704,505.0,199.0,27,1,2241.1000003814697,380007.19999980927,9050,raisin,NF,C,370662,370662,368937,369946,368938,371178,370462,370462,371178,69
60,test,1,con,1,m,Tue Feb 03 2026 10:30:59 GMT-0500 (Eastern Standard Time),384348.19999980927,zinc,1000,I,m,m,None,550,351.0,199.0,115,1,2088.199999809265,382260.0,9050,zinc,NF,C,372912,372912,371190,372195,371190,373278,372712,372712,373278,70
61,test,1,inc,1,z,Tue Feb 03 2026 10:30:59 GMT-0500 (Eastern Standard Time),386298.30000019073,copper,900,I,z,z,None,503,303.0,200.0,6,1,1941.0,384357.30000019073,9050,banana,NF,C,374912,374912,373287,374195,373288,375228,374712,374712,375228,71
62,test,1,con,1,z,Tue Feb 03 2026 10:30:59 GMT-0500 (Eastern Standard Time),388398.19999980927,orange,1000,I,z,z,None,565,365.0,200.0,19,1,2091.3999996185303,386306.80000019073,9050,orange,NF,C,376962,376962,375237,376246,375237,377328,376762,376762,377328,72
63,test,1,inc,1,z,Tue Feb 03 2026 10:30:59 GMT-0500 (Eastern Standard Time),390348.80000019073,gold,800,I,z,z,None,601,401.0,200.0,61,1,1943.1999998092651,388405.60000038147,9050,plum,NF,C,378862,378862,377336,378145,377336,379279,378662,378662,379279,73
64,test,1,inc,1,m,Tue Feb 03 2026 10:30:59 GMT-0500 (Eastern Standard Time),392265.30000019073,banana,800,I,m,m,None,571,371.0,200.0,93,1,1906.0,390359.30000019073,9050,cobalt,NF,C,380812,380812,379289,380096,379290,381195,380612,380612,381195,74
65,test,1,con,1,z,Tue Feb 03 2026 10:30:59 GMT-0500 (Eastern Standard Time),394282.0,plum,1000,I,z,z,None,469,270.0,199.0,59,1,2008.3000001907349,392273.69999980927,9050,plum,NF,C,382929,382929,381204,382212,381204,383212,382729,382729,383212,75
66,test,1,con,1,z,Tue Feb 03 2026 10:30:59 GMT-0500 (Eastern Standard Time),396315.10000038147,cherry,1100,I,z,z,None,385,185.0,200.0,12,1,2023.8000001907349,394291.30000019073,9050,cherry,NF,C,385045,385046,383221,384329,383222,385245,384845,384845,385245,76
67,test,1,inc,1,m,Tue Feb 03 2026 10:30:59 GMT-0500 (Eastern Standard Time),398398.0,orange,1000,I,m,m,None,547,348.0,199.0,95,1,2070.6000003814697,396327.39999961853,9050,cobalt,NF,C,386979,386979,385257,386263,385258,387328,386779,386779,387328,77
68,test,1,con,1,z,Tue Feb 03 2026 10:30:59 GMT-0500 (Eastern Standard Time),400565.10000038147,pear,1100,I,z,z,None,525,325.0,200.0,44,1,2158.4000005722046,398406.69999980927,9050,pear,NF,C,389162,389162,387337,388445,387337,389495,388962,388962,389495,78
69,test,1,inc,1,z,Tue Feb 03 2026 10:30:59 GMT-0500 (Eastern Standard Time),402715.0,lead,1100,I,z,z,None,501,302.0,199.0,64,1,2141.8999996185303,400573.10000038147,9050,plum,NF,C,391329,391329,389503,390612,389503,391645,391129,391129,391645,79
70,test,1,con,1,m,Tue Feb 03 2026 10:30:59 GMT-0500 (Eastern Standard Time),404748.39999961853,silver,1100,I,m,m,None,383,184.0,199.0,84,1,2022.8999996185303,402725.5,9050,silver,NF,C,393479,393479,391655,392762,391656,393679,393279,393279,393678,80
71,test,1,inc,1,z,Tue Feb 03 2026 10:30:59 GMT-0500 (Eastern Standard Time),406898.39999961853,lead,1100,I,z,z,None,511,311.0,200.0,56,1,2141.2999992370605,404757.10000038147,9050,kiwi,NF,C,395512,395512,393687,394795,393687,395828,395312,395312,395828,81
72,test,1,con,1,z,Tue Feb 03 2026 10:30:59 GMT-0500 (Eastern Standard Time),408864.89999961853,lime,1000,I,z,z,None,429,229.0,200.0,35,1,1957.5999994277954,406907.30000019073,9050,lime,NF,C,397562,397562,395837,396846,395838,397795,397362,397362,397795,82
73,test,1,inc,1,m,Tue Feb 03 2026 10:30:59 GMT-0500 (Eastern Standard Time),411065.10000038147,raisin,1100,I,m,m,None,553,354.0,199.0,96,1,2190.6000003814697,408874.5,9050,cobalt,NF,C,399629,399629,397805,398912,397805,399995,399429,399429,399995,83
74,test,1,inc,1,m,Tue Feb 03 2026 10:30:59 GMT-0500 (Eastern Standard Time),413281.60000038147,plum,1100,I,m,m,None,577,378.0,199.0,128,1,2206.0,411075.60000038147,9050,lead,NF,C,401829,401829,400006,401112,400006,402212,401629,401629,402212,84
75,test,1,inc,1,z,Tue Feb 03 2026 10:30:59 GMT-0500 (Eastern Standard Time),415264.89999961853,iron,900,I,z,z,None,544,345.0,199.0,46,1,1973.5999994277954,413291.30000019073,9050,pear,NF,C,403846,403846,402221,403129,402222,404195,403645,403646,404195,85
76,test,1,con,1,m,Tue Feb 03 2026 10:30:59 GMT-0500 (Eastern Standard Time),417348.30000019073,copper,1100,I,m,m,None,441,242.0,199.0,76,1,2072.4000005722046,415275.89999961853,9050,copper,NF,C,406029,406029,404206,405312,404206,406278,405829,405829,406278,86
77,test,1,con,1,z,Tue Feb 03 2026 10:30:59 GMT-0500 (Eastern Standard Time),419498.30000019073,pear,1000,I,z,z,None,603,403.0,200.0,43,1,2140.5,417357.80000019073,9050,pear,NF,C,408012,408012,406288,407296,406288,408428,407812,407812,408428,87
78,test,1,inc,1,z,Tue Feb 03 2026 10:30:59 GMT-0500 (Eastern Standard Time),421715.0,lead,1100,I,z,z,None,577,377.0,200.0,40,1,2206.300000190735,419508.69999980927,9050,lime,NF,C,410262,410262,408439,409546,408439,410645,410062,410062,410645,88
79,test,1,con,1,m,Tue Feb 03 2026 10:30:59 GMT-0500 (Eastern Standard Time),423681.5,copper,1000,I,m,m,None,428,228.0,200.0,75,1,1957.3999996185303,421724.10000038147,9050,copper,NF,C,412379,412379,410654,411662,410654,412612,412179,412179,412611,89
79,test,1,inc,0,m,Tue Feb 03 2026 10:30:59 GMT-0500 (Eastern Standard Time),425748.69999980927,raisin,1100,I,z,z,None,424,225.0,199.0,88,1,2057.0999994277954,423691.60000038147,9050,silver,NF,C,414446,414446,412622,413729,412622,414679,414246,414246,414679,90
80,test,1,con,1,z,Tue Feb 03 2026 10:30:59 GMT-0500 (Eastern Standard Time),427798.10000038147,banana,900,I,z,z,None,606,406.0,200.0,2,1,2040.4000005722046,425757.69999980927,9050,banana,NF,C,416312,416313,414688,415595,414688,416728,416112,416112,416728,91
81,test,1,inc,1,m,Tue Feb 03 2026 10:30:59 GMT-0500 (Eastern Standard Time),429798.60000038147,pear,900,I,m,m,None,556,357.0,199.0,110,1,1991.4000005722046,427807.19999980927,9050,iron,NF,C,418362,418362,416737,417645,416738,418729,418162,418162,418729,92
82,test,1,inc,1,z,Tue Feb 03 2026 10:30:59 GMT-0500 (Eastern Standard Time),431597.89999961853,gold,800,I,z,z,None,464,265.0,199.0,37,1,1789.0999994277954,429808.80000019073,9050,lime,NF,C,420262,420262,418739,419545,418739,420528,420062,420062,420528,93
83,test,1,inc,1,m,Tue Feb 03 2026 10:30:59 GMT-0500 (Eastern Standard Time),433698.30000019073,raisin,1100,I,m,m,None,460,260.0,200.0,72,1,2092.4000005722046,431605.89999961853,9050,bronze,NF,C,422363,422363,420536,421646,420536,422628,422162,422162,422628,94
84,test,1,con,1,m,Tue Feb 03 2026 10:30:59 GMT-0500 (Eastern Standard Time),435815.0,iron,1000,I,m,m,None,573,373.0,200.0,107,1,2107.800000190735,433707.19999980927,9050,iron,NF,C,424362,424362,422637,423646,422638,424745,424162,424162,424745,95
85,test,1,inc,1,m,Tue Feb 03 2026 10:30:59 GMT-0500 (Eastern Standard Time),437731.5,cherry,900,I,m,m,None,475,276.0,199.0,94,1,1907.3000001907349,435824.19999980927,9050,cobalt,NF,C,426379,426379,424754,425662,424755,426662,426179,426179,426662,96
86,test,1,inc,1,z,Tue Feb 03 2026 10:30:59 GMT-0500 (Eastern Standard Time),439631.60000038147,copper,900,I,z,z,None,463,263.0,200.0,14,1,1891.7000007629395,437739.89999961853,9050,cherry,NF,C,428296,428296,426670,427579,426670,428562,428095,428095,428562,97
87,test,1,con,1,z,Tue Feb 03 2026 10:30:59 GMT-0500 (Eastern Standard Time),441564.89999961853,cherry,1000,I,z,z,None,384,184.0,200.0,11,1,1921.1999998092651,439643.69999980927,9050,cherry,NF,C,430295,430295,428574,429579,428574,430495,430095,430095,430495,98
88,test,1,inc,1,z,Tue Feb 03 2026 10:30:59 GMT-0500 (Eastern Standard Time),443515.0,bronze,800,I,z,z,None,600,401.0,199.0,13,1,1939.3000001907349,441575.69999980927,9050,cherry,NF,C,432029,432030,430506,431312,430506,432445,431829,431829,432445,99
89,test,1,con,1,z,Tue Feb 03 2026 10:30:59 GMT-0500 (Eastern Standard Time),445432.0,plum,900,I,z,z,None,471,272.0,199.0,58,1,1903.3999996185303,443528.60000038147,9050,plum,NF,C,434079,434079,432459,433362,432459,434362,433879,433879,434362,100
90,test,1,con,1,z,Tue Feb 03 2026 10:30:59 GMT-0500 (Eastern Standard Time),447314.89999961853,lime,900,I,z,z,None,443,244.0,199.0,34,1,1870.5999994277954,445444.30000019073,9050,lime,NF,C,435995,435995,434374,435279,434375,436245,435796,435796,436245,101
91,test,1,inc,1,m,Tue Feb 03 2026 10:30:59 GMT-0500 (Eastern Standard Time),449215.0,banana,800,I,m,m,None,563,364.0,199.0,85,1,1891.1000003814697,447323.89999961853,9050,silver,NF,C,437779,437779,436254,437062,436254,438145,437579,437579,438145,102
92,test,1,inc,1,m,Tue Feb 03 2026 10:30:59 GMT-0500 (Eastern Standard Time),451098.19999980927,banana,800,I,m,m,None,535,336.0,199.0,77,1,1874.3999996185303,449223.80000019073,9050,copper,NF,C,439679,439679,438154,438962,438154,440028,439479,439479,440028,103
93,test,1,con,1,m,Tue Feb 03 2026 10:30:59 GMT-0500 (Eastern Standard Time),453064.80000019073,bronze,1000,I,m,m,None,422,222.0,200.0,67,1,1957.3000001907349,451107.5,9050,bronze,NF,C,441762,441763,440038,441045,440038,441995,441562,441562,441995,104
94,test,1,con,1,z,Tue Feb 03 2026 10:30:59 GMT-0500 (Eastern Standard Time),454948.30000019073,banana,800,I,z,z,None,541,342.0,199.0,1,1,1873.6000003814697,453074.69999980927,9050,banana,NF,C,443529,443529,442005,442812,442005,443878,443329,443329,443878,105
95,test,1,con,1,m,Tue Feb 03 2026 10:30:59 GMT-0500 (Eastern Standard Time),457048.39999961853,zinc,1100,I,m,m,None,454,255.0,199.0,116,1,2090.3999996185303,454958.0,9050,zinc,NF,C,445712,445712,443888,444996,443888,445978,445512,445512,445978,106
96,test,1,con,1,m,Tue Feb 03 2026 10:30:59 GMT-0500 (Eastern Standard Time),459465.0,lead,1100,I,m,m,None,771,571.0,200.0,124,1,2410.1000003814697,457054.89999961853,9050,lead,NF,C,447812,447812,445985,447095,445985,448395,447612,447612,448395,107
97,test,1,con,1,z,Tue Feb 03 2026 10:30:59 GMT-0500 (Eastern Standard Time),461548.19999980927,kiwi,1100,I,z,z,None,433,234.0,199.0,52,1,2075.199999809265,459473.0,9050,kiwi,NF,C,450229,450229,448403,449512,448403,450478,450029,450029,450478,108
98,test,1,inc,1,m,Tue Feb 03 2026 10:30:59 GMT-0500 (Eastern Standard Time),464014.89999961853,plum,1100,I,m,m,None,831,631.0,200.0,104,1,2457.8999996185303,461557.0,9050,gold,NF,C,452312,452312,450487,451595,450487,452945,452112,452112,452945,109
99,test,1,inc,1,z,Tue Feb 03 2026 10:30:59 GMT-0500 (Eastern Standard Time),466081.39999961853,copper,900,I,z,z,None,629,428.0,201.0,22,1,2055.199999809265,464026.19999980927,9050,orange,NF,C,454579,454579,452956,453862,452957,455012,454378,454378,455011,110
100,test,1,inc,1,z,Tue Feb 03 2026 10:30:59 GMT-0500 (Eastern Standard Time),468248.19999980927,zinc,1000,I,z,z,None,621,421.0,200.0,39,1,2157.5999994277954,466090.60000038147,9050,lime,NF,C,456746,456746,455021,456029,455021,457178,456545,456545,457178,111
101,test,1,inc,1,m,Tue Feb 03 2026 10:30:59 GMT-0500 (Eastern Standard Time),470248.19999980927,lime,800,I,m,m,None,655,455.0,200.0,125,1,1988.1999998092651,468260.0,9050,lead,NF,C,458712,458712,457190,457995,457190,459178,458512,458512,459178,112
102,test,1,inc,1,m,Tue Feb 03 2026 10:30:59 GMT-0500 (Eastern Standard Time),472381.89999961853,pear,900,I,m,m,None,698,499.0,199.0,118,1,2124.7999992370605,470257.10000038147,9050,zinc,NF,C,460812,460812,459187,460095,459187,461312,460612,460612,461312,113
103,test,1,con,1,z,Tue Feb 03 2026 10:30:59 GMT-0500 (Eastern Standard Time),474431.39999961853,plum,800,I,z,z,None,713,513.0,200.0,57,1,2041.6999998092651,472389.69999980927,9050,plum,NF,C,462846,462846,461320,462129,461320,463362,462645,462645,463361,114
104,test,1,con,1,m,Tue Feb 03 2026 10:30:59 GMT-0500 (Eastern Standard Time),476464.80000019073,gold,1000,I,m,m,None,496,296.0,200.0,99,1,2024.4000005722046,474440.39999961853,9050,gold,NF,C,465095,465095,463370,464379,463371,465395,464895,464895,465395,115
105,test,1,inc,1,m,Tue Feb 03 2026 10:30:59 GMT-0500 (Eastern Standard Time),478498.30000019073,cherry,900,I,m,m,None,593,394.0,199.0,78,1,2024.8000001907349,476473.5,9050,copper,NF,C,467029,467029,465404,466312,465404,467428,466829,466829,467428,116
106,test,1,inc,1,m,Tue Feb 03 2026 10:30:59 GMT-0500 (Eastern Standard Time),480581.30000019073,lime,800,I,m,m,None,740,541.0,199.0,101,1,2075.199999809265,478506.10000038147,9050,gold,NF,C,468962,468962,467436,468245,467436,469512,468762,468762,469511,117
107,test,1,inc,1,m,Tue Feb 03 2026 10:30:59 GMT-0500 (Eastern Standard Time),482631.39999961853,lime,800,I,m,m,None,707,507.0,200.0,109,1,2039.8999996185303,480591.5,9050,iron,NF,C,471046,471046,469522,470329,469522,471561,470845,470845,471561,118
108,test,1,inc,1,z,Tue Feb 03 2026 10:30:59 GMT-0500 (Eastern Standard Time),484914.89999961853,cobalt,1100,I,z,z,None,643,444.0,199.0,24,1,2272.3999996185303,482642.5,9050,orange,NF,C,473395,473395,471573,472679,471573,473845,473196,473196,473845,119
109,test,1,inc,1,m,Tue Feb 03 2026 10:30:59 GMT-0500 (Eastern Standard Time),487014.80000019073,orange,1000,I,m,m,None,556,356.0,200.0,71,1,2089.1000003814697,484925.69999980927,9050,bronze,NF,C,475579,475579,473856,474862,473856,475945,475379,475379,475945,120
110,test,1,inc,1,z,Tue Feb 03 2026 10:30:59 GMT-0500 (Eastern Standard Time),489081.5,bronze,800,I,z,z,None,719,520.0,199.0,29,1,2057.0,487024.5,9050,raisin,NF,C,477479,477479,475955,476762,475955,478012,477279,477279,478012,121
111,test,1,con,1,z,Tue Feb 03 2026 10:30:59 GMT-0500 (Eastern Standard Time),491148.19999980927,raisin,900,I,z,z,None,617,417.0,200.0,26,1,2057.699999809265,489090.5,9050,raisin,NF,C,479645,479646,478021,478929,478021,480078,479445,479445,480078,122
112,test,1,inc,1,z,Tue Feb 03 2026 10:30:59 GMT-0500 (Eastern Standard Time),493565.5,bronze,800,I,z,z,None,1083,883.0,200.0,21,1,2407.8999996185303,491157.60000038147,9050,orange,NF,C,481612,481612,480088,480895,480088,482496,481412,481412,482496,123
113,test,1,inc,1,m,Tue Feb 03 2026 10:30:59 GMT-0500 (Eastern Standard Time),495548.39999961853,kiwi,1000,I,m,m,None,433,234.0,199.0,119,1,1975.7999992370605,493572.60000038147,9050,zinc,NF,C,484229,484229,482503,483512,482503,484479,484029,484029,484478,124
114,test,1,inc,1,m,Tue Feb 03 2026 10:30:59 GMT-0500 (Eastern Standard Time),497548.5,pear,900,I,m,m,None,551,352.0,199.0,126,1,1991.5,495557.0,9050,lead,NF,C,486112,486112,484487,485395,484487,486479,485912,485912,486479,125
115,test,1,inc,1,z,Tue Feb 03 2026 10:30:59 GMT-0500 (Eastern Standard Time),499831.39999961853,lead,1100,I,z,z,None,638,438.0,200.0,48,1,2273.8999996185303,497557.5,9050,pear,NF,C,488313,488313,486488,487595,486488,488762,488112,488112,488761,126
116,test,1,con,1,m,Tue Feb 03 2026 10:30:59 GMT-0500 (Eastern Standard Time),501965.30000019073,bronze,1100,I,m,m,None,484,284.0,200.0,68,1,2126.0,499839.30000019073,9050,bronze,NF,C,490595,490595,488769,489878,488770,490895,490395,490395,490895,127
117,test,1,con,1,m,Tue Feb 03 2026 10:30:59 GMT-0500 (Eastern Standard Time),504147.80000019073,cobalt,800,I,m,m,None,841,641.0,200.0,89,1,2172.4000005722046,501975.39999961853,9050,cobalt,NF,C,492429,492429,490905,491712,490906,493078,492228,492228,493078,128
