acc_sum,block,block_c,change,condition,correct,correct_response,datetime,endtime,face,project,response,response_time,row_sel,session_number,start_end,starttime,subject_id,task,task_vers,trial
0,prac,1,,1-Back,,,Mon Mar 30 2026 09:25:30 GMT-0400 (Eastern Daylight Time),,093_m_f_n_a.png,I,space,15895,1,1,,,9071,NNB,C,0
0,prac,1,0.0,1-Back,0.0,m,Mon Mar 30 2026 09:25:30 GMT-0400 (Eastern Daylight Time),289906.60000002384,098_y_f_n_a.png,I,z,1459,2,1,2376.100000023842,287530.5,9071,NNB,C,1
0,prac,1,1.0,1-Back,0.0,z,Mon Mar 30 2026 09:25:30 GMT-0400 (Eastern Daylight Time),292690.10000002384,098_y_f_n_a.png,I,None,2008,3,1,2775.399999976158,289914.7000000477,9071,NNB,C,2
1,prac,1,0.0,1-Back,1.0,m,Mon Mar 30 2026 09:25:30 GMT-0400 (Eastern Daylight Time),294757.10000002384,059_o_m_n_a.png,I,m,1129,4,1,2053.899999976158,292703.2000000477,9071,NNB,C,3
2,prac,1,0.0,1-Back,1.0,m,Mon Mar 30 2026 09:25:30 GMT-0400 (Eastern Daylight Time),296640.40000009537,092_m_m_n_a.png,I,m,961,5,1,1871.2000000476837,294769.2000000477,9071,NNB,C,4
3,prac,1,1.0,1-Back,1.0,z,Mon Mar 30 2026 09:25:30 GMT-0400 (Eastern Daylight Time),299023.60000002384,092_m_m_n_a.png,I,z,1585,6,1,2364.100000023842,296659.5,9071,NNB,C,5
4,prac,1,0.0,1-Back,1.0,m,Mon Mar 30 2026 09:25:30 GMT-0400 (Eastern Daylight Time),300940.40000009537,130_o_f_n_a.png,I,m,968,7,1,1905.1000000238419,299035.3000000715,9071,NNB,C,6
4,prac,1,0.0,1-Back,0.0,m,Mon Mar 30 2026 09:25:30 GMT-0400 (Eastern Daylight Time),303023.5,082_m_m_n_a.png,I,z,1159,8,1,2070.1999999284744,300953.3000000715,9071,NNB,C,7
5,prac,1,0.0,1-Back,1.0,m,Mon Mar 30 2026 09:25:30 GMT-0400 (Eastern Daylight Time),305106.90000009537,093_m_f_n_a.png,I,m,1288,9,1,2070.3000000715256,303036.60000002384,9071,NNB,C,8
6,prac,1,1.0,1-Back,1.0,z,Mon Mar 30 2026 09:25:30 GMT-0400 (Eastern Daylight Time),307023.60000002384,093_m_f_n_a.png,I,z,1126,10,1,1904.2999999523163,305119.3000000715,9071,NNB,C,9
7,prac,1,0.0,1-Back,1.0,m,Mon Mar 30 2026 09:25:30 GMT-0400 (Eastern Daylight Time),308790.5,059_o_m_n_a.png,I,m,982,11,1,1751.5,307039.0,9071,NNB,C,10
8,prac,1,0.0,1-Back,1.0,m,Mon Mar 30 2026 09:25:30 GMT-0400 (Eastern Daylight Time),310940.40000009537,028_y_f_n_a.png,I,m,1233,12,1,2140.0,308800.40000009537,9071,NNB,C,11
0,test,1,0.0,1-Back,,,Mon Mar 30 2026 09:25:30 GMT-0400 (Eastern Daylight Time),310940.40000009537,098_y_f_n_a.png,I,space,12935,1,1,2140.0,308800.40000009537,9071,NNB,C,0
1,test,1,0.0,1-Back,1.0,m,Mon Mar 30 2026 09:25:30 GMT-0400 (Eastern Daylight Time),347390.10000002384,006_m_f_n_a.png,I,m,1890,2,1,2905.7999999523163,344484.3000000715,9071,NNB,C,1
2,test,1,0.0,1-Back,1.0,m,Mon Mar 30 2026 09:25:30 GMT-0400 (Eastern Daylight Time),349990.0,028_y_f_n_a.png,I,m,1582,3,1,2585.2999999523163,347404.7000000477,9071,NNB,C,2
3,test,1,1.0,1-Back,1.0,z,Mon Mar 30 2026 09:25:30 GMT-0400 (Eastern Daylight Time),352290.0,028_y_f_n_a.png,I,z,1270,4,1,2288.0,350002.0,9071,NNB,C,3
4,test,1,0.0,1-Back,1.0,m,Mon Mar 30 2026 09:25:30 GMT-0400 (Eastern Daylight Time),354289.90000009537,006_m_f_n_a.png,I,m,971,5,1,1989.2000000476837,352300.7000000477,9071,NNB,C,4
5,test,1,0.0,1-Back,1.0,m,Mon Mar 30 2026 09:25:30 GMT-0400 (Eastern Daylight Time),356339.8000000715,059_o_m_n_a.png,I,m,1017,6,1,2038.8000000715256,354301.0,9071,NNB,C,5
6,test,1,1.0,1-Back,1.0,z,Mon Mar 30 2026 09:25:30 GMT-0400 (Eastern Daylight Time),358056.60000002384,059_o_m_n_a.png,I,z,696,7,1,1710.5,356346.10000002384,9071,NNB,C,6
7,test,1,0.0,1-Back,1.0,m,Mon Mar 30 2026 09:25:30 GMT-0400 (Eastern Daylight Time),360073.3000000715,092_m_m_n_a.png,I,m,995,8,1,2003.3000000715256,358070.0,9071,NNB,C,7
8,test,1,0.0,1-Back,1.0,m,Mon Mar 30 2026 09:25:30 GMT-0400 (Eastern Daylight Time),362007.7000000477,130_o_f_n_a.png,I,m,916,9,1,1923.6000000238419,360084.10000002384,9071,NNB,C,8
9,test,1,0.0,1-Back,1.0,m,Mon Mar 30 2026 09:25:30 GMT-0400 (Eastern Daylight Time),364623.3000000715,092_m_m_n_a.png,I,m,1590,10,1,2608.100000023842,362015.2000000477,9071,NNB,C,9
10,test,1,0.0,1-Back,1.0,m,Mon Mar 30 2026 09:25:30 GMT-0400 (Eastern Daylight Time),366656.5,057_y_m_n_a.png,I,m,1005,11,1,2020.5,364636.0,9071,NNB,C,10
11,test,1,1.0,1-Back,1.0,z,Mon Mar 30 2026 09:25:30 GMT-0400 (Eastern Daylight Time),368373.3000000715,057_y_m_n_a.png,I,z,683,12,1,1711.3000000715256,366662.0,9071,NNB,C,11
12,test,1,0.0,1-Back,1.0,m,Mon Mar 30 2026 09:25:30 GMT-0400 (Eastern Daylight Time),370173.40000009537,030_o_f_n_a.png,I,m,774,13,1,1788.7000000476837,368384.7000000477,9071,NNB,C,12
13,test,1,1.0,1-Back,1.0,z,Mon Mar 30 2026 09:25:30 GMT-0400 (Eastern Daylight Time),372040.0,030_o_f_n_a.png,I,z,846,14,1,1853.6999999284744,370186.3000000715,9071,NNB,C,13
14,test,1,0.0,1-Back,1.0,m,Mon Mar 30 2026 09:25:30 GMT-0400 (Eastern Daylight Time),373923.40000009537,031_y_m_n_a.png,I,m,851,15,1,1872.6000000238419,372050.8000000715,9071,NNB,C,14
15,test,1,0.0,1-Back,1.0,m,Mon Mar 30 2026 09:25:30 GMT-0400 (Eastern Daylight Time),375990.40000009537,093_m_f_n_a.png,I,m,1049,16,1,2051.7000000476837,373938.7000000477,9071,NNB,C,15
16,test,1,0.0,1-Back,1.0,m,Mon Mar 30 2026 09:25:30 GMT-0400 (Eastern Daylight Time),377773.3000000715,146_o_m_n_a.png,I,m,758,17,1,1776.3999999761581,375996.90000009537,9071,NNB,C,16
17,test,1,0.0,1-Back,1.0,m,Mon Mar 30 2026 09:25:30 GMT-0400 (Eastern Daylight Time),379890.0,093_m_f_n_a.png,I,m,1086,18,1,2105.5,377784.5,9071,NNB,C,17
0,test,2,0.0,1-Back,,,Mon Mar 30 2026 09:25:30 GMT-0400 (Eastern Daylight Time),379890.0,092_m_m_n_a.png,I,space,5793,1,1,2105.5,377784.5,9071,NNB,C,0
1,test,2,0.0,1-Back,1.0,m,Mon Mar 30 2026 09:25:30 GMT-0400 (Eastern Daylight Time),389539.90000009537,006_m_f_n_a.png,I,m,801,2,1,1821.2000000476837,387718.7000000477,9071,NNB,C,1
2,test,2,1.0,1-Back,1.0,z,Mon Mar 30 2026 09:25:30 GMT-0400 (Eastern Daylight Time),391139.90000009537,006_m_f_n_a.png,I,z,568,3,1,1591.0,389548.90000009537,9071,NNB,C,2
3,test,2,0.0,1-Back,1.0,m,Mon Mar 30 2026 09:25:30 GMT-0400 (Eastern Daylight Time),392906.60000002384,092_m_m_n_a.png,I,m,744,4,1,1755.6999999284744,391150.90000009537,9071,NNB,C,3
4,test,2,0.0,1-Back,1.0,m,Mon Mar 30 2026 09:25:30 GMT-0400 (Eastern Daylight Time),394773.3000000715,057_y_m_n_a.png,I,m,833,5,1,1857.3000000715256,392916.0,9071,NNB,C,4
5,test,2,0.0,1-Back,1.0,m,Mon Mar 30 2026 09:25:30 GMT-0400 (Eastern Daylight Time),396606.60000002384,098_y_f_n_a.png,I,m,806,6,1,1823.5,394783.10000002384,9071,NNB,C,5
6,test,2,1.0,1-Back,1.0,z,Mon Mar 30 2026 09:25:30 GMT-0400 (Eastern Daylight Time),398406.60000002384,098_y_f_n_a.png,I,z,782,7,1,1791.6000000238419,396615.0,9071,NNB,C,6
7,test,2,0.0,1-Back,1.0,m,Mon Mar 30 2026 09:25:30 GMT-0400 (Eastern Daylight Time),400356.7000000477,057_y_m_n_a.png,I,m,917,8,1,1942.3999999761581,398414.3000000715,9071,NNB,C,7
8,test,2,0.0,1-Back,1.0,m,Mon Mar 30 2026 09:25:30 GMT-0400 (Eastern Daylight Time),402173.3000000715,030_o_f_n_a.png,I,m,791,9,1,1806.5,400366.8000000715,9071,NNB,C,8
9,test,2,0.0,1-Back,1.0,m,Mon Mar 30 2026 09:25:30 GMT-0400 (Eastern Daylight Time),404023.0,082_m_m_n_a.png,I,m,830,10,1,1841.0999999046326,402181.90000009537,9071,NNB,C,9
10,test,2,1.0,1-Back,1.0,z,Mon Mar 30 2026 09:25:30 GMT-0400 (Eastern Daylight Time),405889.90000009537,082_m_m_n_a.png,I,z,836,11,1,1860.7000000476837,404029.2000000477,9071,NNB,C,10
11,test,2,0.0,1-Back,1.0,m,Mon Mar 30 2026 09:25:30 GMT-0400 (Eastern Daylight Time),407690.0,030_o_f_n_a.png,I,m,778,12,1,1785.6999999284744,405904.3000000715,9071,NNB,C,11
12,test,2,0.0,1-Back,1.0,m,Mon Mar 30 2026 09:25:30 GMT-0400 (Eastern Daylight Time),409439.90000009537,130_o_f_n_a.png,I,m,723,13,1,1738.9000000953674,407701.0,9071,NNB,C,12
13,test,2,0.0,1-Back,1.0,m,Mon Mar 30 2026 09:25:30 GMT-0400 (Eastern Daylight Time),411423.2000000477,059_o_m_n_a.png,I,m,955,14,1,1975.0,409448.2000000477,9071,NNB,C,13
14,test,2,0.0,1-Back,1.0,m,Mon Mar 30 2026 09:25:30 GMT-0400 (Eastern Daylight Time),413256.5,146_o_m_n_a.png,I,m,812,15,1,1824.0,411432.5,9071,NNB,C,14
15,test,2,1.0,1-Back,1.0,z,Mon Mar 30 2026 09:25:30 GMT-0400 (Eastern Daylight Time),415039.90000009537,146_o_m_n_a.png,I,z,755,16,1,1772.8000000715256,413267.10000002384,9071,NNB,C,15
16,test,2,0.0,1-Back,1.0,m,Mon Mar 30 2026 09:25:30 GMT-0400 (Eastern Daylight Time),416906.60000002384,031_y_m_n_a.png,I,m,843,17,1,1856.8999999761581,415049.7000000477,9071,NNB,C,16
17,test,2,1.0,1-Back,1.0,z,Mon Mar 30 2026 09:25:30 GMT-0400 (Eastern Daylight Time),418790.0,031_y_m_n_a.png,I,z,850,18,1,1874.6999999284744,416915.3000000715,9071,NNB,C,17
0,test,3,1.0,1-Back,,,Mon Mar 30 2026 09:25:30 GMT-0400 (Eastern Daylight Time),418790.0,028_y_f_n_a.png,I,space,3391,1,1,1874.6999999284744,416915.3000000715,9071,NNB,C,0
1,test,3,0.0,1-Back,1.0,m,Mon Mar 30 2026 09:25:30 GMT-0400 (Eastern Daylight Time),426739.90000009537,146_o_m_n_a.png,I,m,1384,1,1,2404.600000023842,424335.3000000715,9071,NNB,C,1
2,test,3,1.0,1-Back,1.0,z,Mon Mar 30 2026 09:25:30 GMT-0400 (Eastern Daylight Time),429123.3000000715,146_o_m_n_a.png,I,z,1352,1,1,2373.5,426749.8000000715,9071,NNB,C,2
3,test,3,0.0,1-Back,1.0,m,Mon Mar 30 2026 09:25:30 GMT-0400 (Eastern Daylight Time),430923.2000000477,093_m_f_n_a.png,I,m,776,1,1,1790.7999999523163,429132.40000009537,9071,NNB,C,3
4,test,3,1.0,1-Back,1.0,z,Mon Mar 30 2026 09:25:30 GMT-0400 (Eastern Daylight Time),432723.3000000715,093_m_f_n_a.png,I,z,769,1,1,1790.2000000476837,430933.10000002384,9071,NNB,C,4
5,test,3,0.0,1-Back,1.0,m,Mon Mar 30 2026 09:25:30 GMT-0400 (Eastern Daylight Time),434889.90000009537,030_o_f_n_a.png,I,m,1144,1,1,2155.4000000953674,432734.5,9071,NNB,C,5
6,test,3,0.0,1-Back,1.0,m,Mon Mar 30 2026 09:25:30 GMT-0400 (Eastern Daylight Time),437073.2000000477,057_y_m_n_a.png,I,m,1153,1,1,2172.100000023842,434901.10000002384,9071,NNB,C,6
7,test,3,0.0,1-Back,1.0,m,Mon Mar 30 2026 09:25:30 GMT-0400 (Eastern Daylight Time),439023.2000000477,030_o_f_n_a.png,I,m,922,1,1,1940.6000000238419,437082.60000002384,9071,NNB,C,7
8,test,3,0.0,1-Back,1.0,m,Mon Mar 30 2026 09:25:30 GMT-0400 (Eastern Daylight Time),441123.3000000715,031_y_m_n_a.png,I,m,1069,1,1,2092.399999976158,439030.90000009537,9071,NNB,C,8
9,test,3,1.0,1-Back,1.0,z,Mon Mar 30 2026 09:25:30 GMT-0400 (Eastern Daylight Time),443039.8000000715,031_y_m_n_a.png,I,z,890,1,1,1908.3000000715256,441131.5,9071,NNB,C,9
10,test,3,0.0,1-Back,1.0,m,Mon Mar 30 2026 09:25:30 GMT-0400 (Eastern Daylight Time),445139.90000009537,006_m_f_n_a.png,I,m,1067,1,1,2089.9000000953674,443050.0,9071,NNB,C,10
11,test,3,0.0,1-Back,1.0,m,Mon Mar 30 2026 09:25:30 GMT-0400 (Eastern Daylight Time),447023.2000000477,098_y_f_n_a.png,I,m,855,1,1,1873.2999999523163,445149.90000009537,9071,NNB,C,11
12,test,3,1.0,1-Back,1.0,z,Mon Mar 30 2026 09:25:30 GMT-0400 (Eastern Daylight Time),448790.0,098_y_f_n_a.png,I,z,748,1,1,1758.5999999046326,447031.40000009537,9071,NNB,C,12
13,test,3,0.0,1-Back,1.0,m,Mon Mar 30 2026 09:25:30 GMT-0400 (Eastern Daylight Time),450873.10000002384,006_m_f_n_a.png,I,m,1062,1,1,2072.899999976158,448800.2000000477,9071,NNB,C,13
14,test,3,0.0,1-Back,1.0,m,Mon Mar 30 2026 09:25:30 GMT-0400 (Eastern Daylight Time),452673.2000000477,092_m_m_n_a.png,I,m,770,1,1,1791.2999999523163,450881.90000009537,9071,NNB,C,14
15,test,3,1.0,1-Back,1.0,z,Mon Mar 30 2026 09:25:30 GMT-0400 (Eastern Daylight Time),454506.60000002384,092_m_m_n_a.png,I,z,811,1,1,1824.1000000238419,452682.5,9071,NNB,C,15
16,test,3,0.0,1-Back,1.0,m,Mon Mar 30 2026 09:25:30 GMT-0400 (Eastern Daylight Time),456373.2000000477,130_o_f_n_a.png,I,m,833,1,1,1854.7999999523163,454518.40000009537,9071,NNB,C,16
17,test,3,1.0,1-Back,1.0,z,Mon Mar 30 2026 09:25:30 GMT-0400 (Eastern Daylight Time),458189.8000000715,130_o_f_n_a.png,I,z,791,1,1,1808.0,456381.8000000715,9071,NNB,C,17
0,test,4,1.0,1-Back,,,Mon Mar 30 2026 09:25:30 GMT-0400 (Eastern Daylight Time),458189.8000000715,093_m_f_n_a.png,I,space,2630,1,1,1808.0,456381.8000000715,9071,NNB,C,0
1,test,4,0.0,1-Back,1.0,m,Mon Mar 30 2026 09:25:30 GMT-0400 (Eastern Daylight Time),464956.60000002384,146_o_m_n_a.png,I,m,976,2,1,1990.6999999284744,462965.90000009537,9071,NNB,C,1
2,test,4,0.0,1-Back,1.0,m,Mon Mar 30 2026 09:25:30 GMT-0400 (Eastern Daylight Time),467189.8000000715,093_m_f_n_a.png,I,m,1200,3,1,2224.7000000476837,464965.10000002384,9071,NNB,C,2
3,test,4,0.0,1-Back,1.0,m,Mon Mar 30 2026 09:25:30 GMT-0400 (Eastern Daylight Time),469156.5,030_o_f_n_a.png,I,m,933,4,1,1953.7999999523163,467202.7000000477,9071,NNB,C,3
4,test,4,1.0,1-Back,1.0,z,Mon Mar 30 2026 09:25:30 GMT-0400 (Eastern Daylight Time),471356.5,030_o_f_n_a.png,I,z,1175,5,1,2191.5,469165.0,9071,NNB,C,4
5,test,4,0.0,1-Back,1.0,m,Mon Mar 30 2026 09:25:30 GMT-0400 (Eastern Daylight Time),473306.40000009537,098_y_f_n_a.png,I,m,927,6,1,1939.9000000953674,471366.5,9071,NNB,C,5
6,test,4,0.0,1-Back,1.0,m,Mon Mar 30 2026 09:25:30 GMT-0400 (Eastern Daylight Time),475007.10000002384,057_y_m_n_a.png,I,m,672,7,1,1692.6000000238419,473314.5,9071,NNB,C,6
7,test,4,1.0,1-Back,1.0,z,Mon Mar 30 2026 09:25:30 GMT-0400 (Eastern Daylight Time),476839.7000000477,057_y_m_n_a.png,I,z,813,8,1,1827.2999999523163,475012.40000009537,9071,NNB,C,7
8,test,4,0.0,1-Back,1.0,m,Mon Mar 30 2026 09:25:30 GMT-0400 (Eastern Daylight Time),478756.5,098_y_f_n_a.png,I,m,884,9,1,1907.1999999284744,476849.3000000715,9071,NNB,C,8
9,test,4,0.0,1-Back,1.0,m,Mon Mar 30 2026 09:25:30 GMT-0400 (Eastern Daylight Time),480773.0,082_m_m_n_a.png,I,m,983,10,1,2008.2999999523163,478764.7000000477,9071,NNB,C,9
10,test,4,1.0,1-Back,1.0,z,Mon Mar 30 2026 09:25:30 GMT-0400 (Eastern Daylight Time),482872.90000009537,082_m_m_n_a.png,I,z,1080,11,1,2090.4000000953674,480782.5,9071,NNB,C,10
11,test,4,0.0,1-Back,1.0,m,Mon Mar 30 2026 09:25:30 GMT-0400 (Eastern Daylight Time),484639.8000000715,130_o_f_n_a.png,I,m,738,12,1,1760.6000000238419,482879.2000000477,9071,NNB,C,11
12,test,4,0.0,1-Back,1.0,m,Mon Mar 30 2026 09:25:30 GMT-0400 (Eastern Daylight Time),486456.40000009537,059_o_m_n_a.png,I,m,796,13,1,1808.0,484648.40000009537,9071,NNB,C,12
13,test,4,0.0,1-Back,1.0,m,Mon Mar 30 2026 09:25:30 GMT-0400 (Eastern Daylight Time),488939.7000000477,130_o_f_n_a.png,I,m,1459,14,1,2472.600000023842,486467.10000002384,9071,NNB,C,13
14,test,4,0.0,1-Back,1.0,m,Mon Mar 30 2026 09:25:30 GMT-0400 (Eastern Daylight Time),490889.8000000715,028_y_f_n_a.png,I,m,928,15,1,1940.8999999761581,488948.90000009537,9071,NNB,C,14
15,test,4,1.0,1-Back,1.0,z,Mon Mar 30 2026 09:25:30 GMT-0400 (Eastern Daylight Time),492473.10000002384,028_y_f_n_a.png,I,z,562,16,1,1574.5,490898.60000002384,9071,NNB,C,15
16,test,4,0.0,1-Back,1.0,m,Mon Mar 30 2026 09:25:30 GMT-0400 (Eastern Daylight Time),494289.90000009537,006_m_f_n_a.png,I,m,786,17,1,1806.1000000238419,492483.8000000715,9071,NNB,C,16
17,test,4,1.0,1-Back,1.0,z,Mon Mar 30 2026 09:25:30 GMT-0400 (Eastern Daylight Time),496273.2000000477,006_m_f_n_a.png,I,z,954,18,1,1973.1000000238419,494300.10000002384,9071,NNB,C,17
0,test,5,1.0,1-Back,,,Mon Mar 30 2026 09:25:30 GMT-0400 (Eastern Daylight Time),496273.2000000477,059_o_m_n_a.png,I,space,2099,1,1,1973.1000000238419,494300.10000002384,9071,NNB,C,0
1,test,5,1.0,1-Back,1.0,z,Mon Mar 30 2026 09:25:30 GMT-0400 (Eastern Daylight Time),502239.8000000715,059_o_m_n_a.png,I,z,805,2,1,1822.7000000476837,500417.10000002384,9071,NNB,C,1
2,test,5,0.0,1-Back,1.0,m,Mon Mar 30 2026 09:25:30 GMT-0400 (Eastern Daylight Time),504973.10000002384,098_y_f_n_a.png,I,m,1708,3,1,2723.2999999523163,502249.8000000715,9071,NNB,C,2
3,test,5,0.0,1-Back,1.0,m,Mon Mar 30 2026 09:25:30 GMT-0400 (Eastern Daylight Time),507607.2000000477,057_y_m_n_a.png,I,m,1614,4,1,2624.100000023842,504983.10000002384,9071,NNB,C,3
4,test,5,0.0,1-Back,1.0,m,Mon Mar 30 2026 09:25:30 GMT-0400 (Eastern Daylight Time),509856.5,098_y_f_n_a.png,I,m,1221,5,1,2240.1999999284744,507616.3000000715,9071,NNB,C,4
5,test,5,0.0,1-Back,1.0,m,Mon Mar 30 2026 09:25:30 GMT-0400 (Eastern Daylight Time),511806.3000000715,092_m_m_n_a.png,I,m,923,6,1,1939.7000000476837,509866.60000002384,9071,NNB,C,5
6,test,5,1.0,1-Back,1.0,z,Mon Mar 30 2026 09:25:30 GMT-0400 (Eastern Daylight Time),513573.10000002384,092_m_m_n_a.png,I,z,734,7,1,1756.2999999523163,511816.8000000715,9071,NNB,C,6
7,test,5,0.0,1-Back,1.0,m,Mon Mar 30 2026 09:25:30 GMT-0400 (Eastern Daylight Time),515423.10000002384,028_y_f_n_a.png,I,m,823,8,1,1839.3999999761581,513583.7000000477,9071,NNB,C,7
8,test,5,0.0,1-Back,1.0,m,Mon Mar 30 2026 09:25:30 GMT-0400 (Eastern Daylight Time),517423.10000002384,031_y_m_n_a.png,I,m,973,9,1,1991.5,515431.60000002384,9071,NNB,C,8
9,test,5,0.0,1-Back,1.0,m,Mon Mar 30 2026 09:25:30 GMT-0400 (Eastern Daylight Time),519356.40000009537,028_y_f_n_a.png,I,m,909,10,1,1923.4000000953674,517433.0,9071,NNB,C,9
10,test,5,0.0,1-Back,1.0,m,Mon Mar 30 2026 09:25:30 GMT-0400 (Eastern Daylight Time),521139.60000002384,130_o_f_n_a.png,I,m,751,11,1,1772.8999999761581,519366.7000000477,9071,NNB,C,10
11,test,5,1.0,1-Back,1.0,z,Mon Mar 30 2026 09:25:30 GMT-0400 (Eastern Daylight Time),522806.10000002384,130_o_f_n_a.png,I,z,648,12,1,1655.6000000238419,521150.5,9071,NNB,C,11
12,test,5,0.0,1-Back,1.0,m,Mon Mar 30 2026 09:25:30 GMT-0400 (Eastern Daylight Time),524773.1000000238,146_o_m_n_a.png,I,m,933,13,1,1954.5,522818.60000002384,9071,NNB,C,12
13,test,5,0.0,1-Back,1.0,m,Mon Mar 30 2026 09:25:30 GMT-0400 (Eastern Daylight Time),526773.2000000477,093_m_f_n_a.png,I,m,967,14,1,1990.5,524782.7000000477,9071,NNB,C,13
14,test,5,1.0,1-Back,1.0,z,Mon Mar 30 2026 09:25:30 GMT-0400 (Eastern Daylight Time),528789.8000000715,093_m_f_n_a.png,I,z,983,15,1,2008.0,526781.8000000715,9071,NNB,C,14
15,test,5,0.0,1-Back,1.0,m,Mon Mar 30 2026 09:25:30 GMT-0400 (Eastern Daylight Time),531656.3000000715,146_o_m_n_a.png,I,m,1846,16,1,2855.3000000715256,528801.0,9071,NNB,C,15
16,test,5,0.0,1-Back,1.0,m,Mon Mar 30 2026 09:25:30 GMT-0400 (Eastern Daylight Time),533473.1000000238,006_m_f_n_a.png,I,m,787,17,1,1807.0,531666.1000000238,9071,NNB,C,16
17,test,5,0.0,1-Back,1.0,m,Mon Mar 30 2026 09:25:30 GMT-0400 (Eastern Daylight Time),535406.4000000954,082_m_m_n_a.png,I,m,906,18,1,1922.6000000238419,533483.8000000715,9071,NNB,C,17
0,prac,1,0.0,2-Back,,,Mon Mar 30 2026 09:25:30 GMT-0400 (Eastern Daylight Time),535406.4000000954,031_y_m_n_a.png,I,space,11931,1,1,1922.6000000238419,533483.8000000715,9071,NNB,C,0
0,prac,1,0.0,2-Back,,,Mon Mar 30 2026 09:25:30 GMT-0400 (Eastern Daylight Time),535406.4000000954,006_m_f_n_a.png,I,space,11931,2,1,1922.6000000238419,533483.8000000715,9071,NNB,C,0
0,prac,1,1.0,2-Back,0.0,m,Mon Mar 30 2026 09:25:30 GMT-0400 (Eastern Daylight Time),746206.2000000477,146_o_m_n_a.png,I,None,2012,3,1,2933.399999976158,743272.8000000715,9071,NNB,C,1
0,prac,1,0.0,2-Back,0.0,m,Mon Mar 30 2026 09:25:30 GMT-0400 (Eastern Daylight Time),749156.1000000238,130_o_f_n_a.png,I,None,2007,4,1,2933.1999999284744,746222.9000000954,9071,NNB,C,2
0,prac,1,0.0,2-Back,0.0,z,Mon Mar 30 2026 09:25:30 GMT-0400 (Eastern Daylight Time),750839.5,146_o_m_n_a.png,I,m,898,5,1,1668.5999999046326,749170.9000000954,9071,NNB,C,3
0,prac,1,1.0,2-Back,0.0,z,Mon Mar 30 2026 09:25:30 GMT-0400 (Eastern Daylight Time),752789.0,130_o_f_n_a.png,I,m,1164,6,1,1933.3999999761581,750855.6000000238,9071,NNB,C,4
0,prac,1,0.0,2-Back,0.0,m,Mon Mar 30 2026 09:25:30 GMT-0400 (Eastern Daylight Time),755572.7000000477,082_m_m_n_a.png,I,None,2009,7,1,2775.7999999523163,752796.9000000954,9071,NNB,C,5
0,prac,1,0.0,2-Back,0.0,m,Mon Mar 30 2026 09:25:30 GMT-0400 (Eastern Daylight Time),758506.1000000238,059_o_m_n_a.png,I,None,2014,8,1,2917.7999999523163,755588.3000000715,9071,NNB,C,6
1,prac,1,0.0,2-Back,1.0,m,Mon Mar 30 2026 09:25:30 GMT-0400 (Eastern Daylight Time),760806.1000000238,028_y_f_n_a.png,I,m,1376,9,1,2287.0,758519.1000000238,9071,NNB,C,7
1,prac,1,1.0,2-Back,0.0,z,Mon Mar 30 2026 09:25:30 GMT-0400 (Eastern Daylight Time),763239.6000000238,059_o_m_n_a.png,I,m,1646,10,1,2417.399999976158,760822.2000000477,9071,NNB,C,8
2,prac,1,0.0,2-Back,1.0,m,Mon Mar 30 2026 09:25:30 GMT-0400 (Eastern Daylight Time),765156.3000000715,098_y_f_n_a.png,I,m,989,11,1,1905.8999999761581,763250.4000000954,9071,NNB,C,9
2,prac,1,0.0,2-Back,0.0,m,Mon Mar 30 2026 09:25:30 GMT-0400 (Eastern Daylight Time),767206.1000000238,082_m_m_n_a.png,I,z,1270,12,1,2039.6999999284744,765166.4000000954,9071,NNB,C,10
0,prac,2,0.0,2-Back,,,Mon Mar 30 2026 09:25:30 GMT-0400 (Eastern Daylight Time),767206.1000000238,031_y_m_n_a.png,I,a,12423,1,1,2039.6999999284744,765166.4000000954,9071,NNB,C,0
0,prac,2,0.0,2-Back,,,Mon Mar 30 2026 09:25:30 GMT-0400 (Eastern Daylight Time),767206.1000000238,006_m_f_n_a.png,I,a,12423,2,1,2039.6999999284744,765166.4000000954,9071,NNB,C,0
1,prac,2,1.0,2-Back,1.0,m,Mon Mar 30 2026 09:25:30 GMT-0400 (Eastern Daylight Time),787189.6000000238,146_o_m_n_a.png,I,m,1302,3,1,2218.7999999523163,784970.8000000715,9071,NNB,C,1
2,prac,2,0.0,2-Back,1.0,m,Mon Mar 30 2026 09:25:30 GMT-0400 (Eastern Daylight Time),789589.5,130_o_f_n_a.png,I,m,1464,4,1,2387.0999999046326,787202.4000000954,9071,NNB,C,2
3,prac,2,0.0,2-Back,1.0,z,Mon Mar 30 2026 09:25:30 GMT-0400 (Eastern Daylight Time),791356.1000000238,146_o_m_n_a.png,I,z,979,5,1,1755.0,789601.1000000238,9071,NNB,C,3
4,prac,2,1.0,2-Back,1.0,z,Mon Mar 30 2026 09:25:30 GMT-0400 (Eastern Daylight Time),793422.8000000715,130_o_f_n_a.png,I,z,1274,6,1,2052.2000000476837,791370.6000000238,9071,NNB,C,4
5,prac,2,0.0,2-Back,1.0,m,Mon Mar 30 2026 09:25:30 GMT-0400 (Eastern Daylight Time),795339.6000000238,082_m_m_n_a.png,I,m,1131,7,1,1906.3999999761581,793433.2000000477,9071,NNB,C,5
5,prac,2,0.0,2-Back,0.0,m,Mon Mar 30 2026 09:25:30 GMT-0400 (Eastern Daylight Time),797622.8000000715,059_o_m_n_a.png,I,z,1366,8,1,2269.5,795353.3000000715,9071,NNB,C,6
6,prac,2,0.0,2-Back,1.0,m,Mon Mar 30 2026 09:25:30 GMT-0400 (Eastern Daylight Time),799389.6000000238,028_y_f_n_a.png,I,m,845,9,1,1755.1000000238419,797634.5,9071,NNB,C,7
6,prac,2,1.0,2-Back,0.0,z,Mon Mar 30 2026 09:25:30 GMT-0400 (Eastern Daylight Time),801489.5,059_o_m_n_a.png,I,m,1306,10,1,2087.899999976158,799401.6000000238,9071,NNB,C,8
7,prac,2,0.0,2-Back,1.0,m,Mon Mar 30 2026 09:25:30 GMT-0400 (Eastern Daylight Time),804156.0,098_y_f_n_a.png,I,m,1755,11,1,2656.0,801500.0,9071,NNB,C,9
7,prac,2,0.0,2-Back,0.0,m,Mon Mar 30 2026 09:25:30 GMT-0400 (Eastern Daylight Time),805889.4000000954,082_m_m_n_a.png,I,z,938,12,1,1718.9000000953674,804170.5,9071,NNB,C,10
0,test,1,0.0,2-Back,,,Mon Mar 30 2026 09:25:30 GMT-0400 (Eastern Daylight Time),805889.4000000954,057_y_m_n_a.png,I,space,11424,1,1,1718.9000000953674,804170.5,9071,NNB,C,0
0,test,1,0.0,2-Back,,,Mon Mar 30 2026 09:25:30 GMT-0400 (Eastern Daylight Time),805889.4000000954,057_y_m_n_a.png,I,space,11424,2,1,1718.9000000953674,804170.5,9071,NNB,C,0
1,test,1,0.0,2-Back,1.0,m,Mon Mar 30 2026 09:25:30 GMT-0400 (Eastern Daylight Time),835589.5,130_o_f_n_a.png,I,m,1166,3,1,2175.2999999523163,833414.2000000477,9071,NNB,C,1
2,test,1,0.0,2-Back,1.0,m,Mon Mar 30 2026 09:25:30 GMT-0400 (Eastern Daylight Time),837705.9000000954,092_m_m_n_a.png,I,m,1095,4,1,2103.9000000953674,835602.0,9071,NNB,C,2
2,test,1,1.0,2-Back,0.0,z,Mon Mar 30 2026 09:25:30 GMT-0400 (Eastern Daylight Time),840289.4000000954,130_o_f_n_a.png,I,m,1554,5,1,2573.8000000715256,837715.6000000238,9071,NNB,C,3
3,test,1,0.0,2-Back,1.0,m,Mon Mar 30 2026 09:25:30 GMT-0400 (Eastern Daylight Time),842405.6000000238,098_y_f_n_a.png,I,m,1098,6,1,2104.5,840301.1000000238,9071,NNB,C,4
3,test,1,0.0,2-Back,0.0,m,Mon Mar 30 2026 09:25:30 GMT-0400 (Eastern Daylight Time),844322.5,092_m_m_n_a.png,I,z,886,7,1,1906.1999999284744,842416.3000000715,9071,NNB,C,5
4,test,1,1.0,2-Back,1.0,z,Mon Mar 30 2026 09:25:30 GMT-0400 (Eastern Daylight Time),846472.6000000238,098_y_f_n_a.png,I,z,1129,8,1,2140.7999999523163,844331.8000000715,9071,NNB,C,6
5,test,1,0.0,2-Back,1.0,m,Mon Mar 30 2026 09:25:30 GMT-0400 (Eastern Daylight Time),848806.9000000954,031_y_m_n_a.png,I,m,1315,9,1,2324.7000000476837,846482.2000000477,9071,NNB,C,7
6,test,1,0.0,2-Back,1.0,m,Mon Mar 30 2026 09:25:30 GMT-0400 (Eastern Daylight Time),851122.6000000238,030_o_f_n_a.png,I,m,1285,10,1,2307.600000023842,848815.0,9071,NNB,C,8
7,test,1,1.0,2-Back,1.0,z,Mon Mar 30 2026 09:25:30 GMT-0400 (Eastern Daylight Time),853189.3000000715,031_y_m_n_a.png,I,z,1033,11,1,2054.8000000715256,851134.5,9071,NNB,C,9
8,test,1,0.0,2-Back,1.0,m,Mon Mar 30 2026 09:25:30 GMT-0400 (Eastern Daylight Time),855255.8000000715,006_m_f_n_a.png,I,m,1047,12,1,2057.7000000476837,853198.1000000238,9071,NNB,C,10
8,test,1,0.0,2-Back,0.0,m,Mon Mar 30 2026 09:25:30 GMT-0400 (Eastern Daylight Time),857672.5,006_m_f_n_a.png,I,z,1396,13,1,2408.6999999284744,855263.8000000715,9071,NNB,C,11
9,test,1,0.0,2-Back,1.0,m,Mon Mar 30 2026 09:25:30 GMT-0400 (Eastern Daylight Time),859889.3000000715,146_o_m_n_a.png,I,m,1187,14,1,2208.100000023842,857681.2000000477,9071,NNB,C,12
10,test,1,0.0,2-Back,1.0,m,Mon Mar 30 2026 09:25:30 GMT-0400 (Eastern Daylight Time),862689.4000000954,030_o_f_n_a.png,I,m,1770,15,1,2791.5,859897.9000000954,9071,NNB,C,13
11,test,1,1.0,2-Back,1.0,z,Mon Mar 30 2026 09:25:30 GMT-0400 (Eastern Daylight Time),864755.9000000954,146_o_m_n_a.png,I,z,1034,16,1,2053.600000023842,862702.3000000715,9071,NNB,C,14
12,test,1,0.0,2-Back,1.0,m,Mon Mar 30 2026 09:25:30 GMT-0400 (Eastern Daylight Time),866805.7000000477,093_m_f_n_a.png,I,m,1032,17,1,2038.6000000238419,864767.1000000238,9071,NNB,C,15
13,test,1,0.0,2-Back,1.0,m,Mon Mar 30 2026 09:25:30 GMT-0400 (Eastern Daylight Time),869255.8000000715,082_m_m_n_a.png,I,m,1429,18,1,2438.899999976158,866816.9000000954,9071,NNB,C,16
0,test,2,0.0,2-Back,,,Mon Mar 30 2026 09:25:30 GMT-0400 (Eastern Daylight Time),869255.8000000715,082_m_m_n_a.png,I,space,13587,1,1,2438.899999976158,866816.9000000954,9071,NNB,C,0
0,test,2,0.0,2-Back,,,Mon Mar 30 2026 09:25:30 GMT-0400 (Eastern Daylight Time),869255.8000000715,028_y_f_n_a.png,I,space,13587,2,1,2438.899999976158,866816.9000000954,9071,NNB,C,0
1,test,2,1.0,2-Back,1.0,z,Mon Mar 30 2026 09:25:30 GMT-0400 (Eastern Daylight Time),890655.9000000954,082_m_m_n_a.png,I,z,1589,3,1,2614.600000023842,888041.3000000715,9071,NNB,C,1
2,test,2,0.0,2-Back,1.0,m,Mon Mar 30 2026 09:25:30 GMT-0400 (Eastern Daylight Time),892656.0,093_m_f_n_a.png,I,m,972,4,1,1988.6999999284744,890667.3000000715,9071,NNB,C,2
2,test,2,0.0,2-Back,0.0,m,Mon Mar 30 2026 09:25:30 GMT-0400 (Eastern Daylight Time),895305.8000000715,028_y_f_n_a.png,I,z,1628,5,1,2639.8000000715256,892666.0,9071,NNB,C,3
3,test,2,0.0,2-Back,1.0,m,Mon Mar 30 2026 09:25:30 GMT-0400 (Eastern Daylight Time),897722.5,146_o_m_n_a.png,I,m,1394,6,1,2406.0,895316.5,9071,NNB,C,4
4,test,2,0.0,2-Back,1.0,m,Mon Mar 30 2026 09:25:30 GMT-0400 (Eastern Daylight Time),899889.2000000477,098_y_f_n_a.png,I,m,1137,7,1,2157.100000023842,897732.1000000238,9071,NNB,C,5
5,test,2,1.0,2-Back,1.0,z,Mon Mar 30 2026 09:25:30 GMT-0400 (Eastern Daylight Time),901955.8000000715,146_o_m_n_a.png,I,z,1035,8,1,2056.600000023842,899899.2000000477,9071,NNB,C,6
6,test,2,0.0,2-Back,1.0,m,Mon Mar 30 2026 09:25:30 GMT-0400 (Eastern Daylight Time),904022.4000000954,031_y_m_n_a.png,I,m,1048,9,1,2057.8000000715256,901964.6000000238,9071,NNB,C,7
6,test,2,0.0,2-Back,0.0,m,Mon Mar 30 2026 09:25:30 GMT-0400 (Eastern Daylight Time),907072.4000000954,031_y_m_n_a.png,I,None,2016,10,1,3033.8000000715256,904038.6000000238,9071,NNB,C,8
7,test,2,0.0,2-Back,1.0,m,Mon Mar 30 2026 09:25:30 GMT-0400 (Eastern Daylight Time),909339.1000000238,006_m_f_n_a.png,I,m,1227,11,1,2248.899999976158,907090.2000000477,9071,NNB,C,9
7,test,2,0.0,2-Back,0.0,m,Mon Mar 30 2026 09:25:30 GMT-0400 (Eastern Daylight Time),911522.4000000954,028_y_f_n_a.png,I,z,1153,12,1,2173.7000000476837,909348.7000000477,9071,NNB,C,10
8,test,2,1.0,2-Back,1.0,z,Mon Mar 30 2026 09:25:30 GMT-0400 (Eastern Daylight Time),913922.5,006_m_f_n_a.png,I,z,1369,13,1,2389.399999976158,911533.1000000238,9071,NNB,C,11
9,test,2,0.0,2-Back,1.0,m,Mon Mar 30 2026 09:25:30 GMT-0400 (Eastern Daylight Time),915872.6000000238,059_o_m_n_a.png,I,m,921,14,1,1940.1999999284744,913932.4000000954,9071,NNB,C,12
9,test,2,0.0,2-Back,0.0,m,Mon Mar 30 2026 09:25:30 GMT-0400 (Eastern Daylight Time),918372.4000000954,059_o_m_n_a.png,I,z,1467,15,1,2489.5,915882.9000000954,9071,NNB,C,13
10,test,2,0.0,2-Back,1.0,m,Mon Mar 30 2026 09:25:30 GMT-0400 (Eastern Daylight Time),920489.1000000238,030_o_f_n_a.png,I,m,1095,16,1,2104.399999976158,918384.7000000477,9071,NNB,C,14
11,test,2,0.0,2-Back,1.0,m,Mon Mar 30 2026 09:25:30 GMT-0400 (Eastern Daylight Time),923105.8000000715,092_m_m_n_a.png,I,m,1587,17,1,2605.7000000476837,920500.1000000238,9071,NNB,C,15
12,test,2,1.0,2-Back,1.0,z,Mon Mar 30 2026 09:25:30 GMT-0400 (Eastern Daylight Time),924905.8000000715,030_o_f_n_a.png,I,z,778,18,1,1790.6000000238419,923115.2000000477,9071,NNB,C,16
0,test,3,1.0,2-Back,,,Mon Mar 30 2026 09:25:30 GMT-0400 (Eastern Daylight Time),924905.8000000715,057_y_m_n_a.png,I,space,2042,1,1,1790.6000000238419,923115.2000000477,9071,NNB,C,0
0,test,3,1.0,2-Back,,,Mon Mar 30 2026 09:25:30 GMT-0400 (Eastern Daylight Time),924905.8000000715,057_y_m_n_a.png,I,space,2042,2,1,1790.6000000238419,923115.2000000477,9071,NNB,C,0
1,test,3,0.0,2-Back,1.0,m,Mon Mar 30 2026 09:25:30 GMT-0400 (Eastern Daylight Time),934655.7000000477,030_o_f_n_a.png,I,m,1489,3,1,2506.100000023842,932149.6000000238,9071,NNB,C,1
2,test,3,0.0,2-Back,1.0,m,Mon Mar 30 2026 09:25:30 GMT-0400 (Eastern Daylight Time),936939.2000000477,082_m_m_n_a.png,I,m,1260,4,1,2274.0,934665.2000000477,9071,NNB,C,2
3,test,3,1.0,2-Back,1.0,z,Mon Mar 30 2026 09:25:30 GMT-0400 (Eastern Daylight Time),938972.4000000954,030_o_f_n_a.png,I,z,1007,5,1,2024.6000000238419,936947.8000000715,9071,NNB,C,3
4,test,3,0.0,2-Back,1.0,m,Mon Mar 30 2026 09:25:30 GMT-0400 (Eastern Daylight Time),941322.4000000954,031_y_m_n_a.png,I,m,1327,6,1,2338.7000000476837,938983.7000000477,9071,NNB,C,4
4,test,3,0.0,2-Back,0.0,m,Mon Mar 30 2026 09:25:30 GMT-0400 (Eastern Daylight Time),944356.0,082_m_m_n_a.png,I,None,2016,7,1,3022.7999999523163,941333.2000000477,9071,NNB,C,5
4,test,3,1.0,2-Back,0.0,z,Mon Mar 30 2026 09:25:30 GMT-0400 (Eastern Daylight Time),946655.8000000715,031_y_m_n_a.png,I,m,1272,8,1,2290.899999976158,944364.9000000954,9071,NNB,C,6
5,test,3,0.0,2-Back,1.0,m,Mon Mar 30 2026 09:25:30 GMT-0400 (Eastern Daylight Time),948755.6000000238,028_y_f_n_a.png,I,m,1067,9,1,2086.6999999284744,946668.9000000954,9071,NNB,C,7
6,test,3,0.0,2-Back,1.0,m,Mon Mar 30 2026 09:25:30 GMT-0400 (Eastern Daylight Time),951072.5,092_m_m_n_a.png,I,m,1288,10,1,2307.5999999046326,948764.9000000954,9071,NNB,C,8
7,test,3,1.0,2-Back,1.0,z,Mon Mar 30 2026 09:25:30 GMT-0400 (Eastern Daylight Time),953305.8000000715,028_y_f_n_a.png,I,z,1211,11,1,2218.7000000476837,951087.1000000238,9071,NNB,C,9
7,test,3,1.0,2-Back,0.0,z,Mon Mar 30 2026 09:25:30 GMT-0400 (Eastern Daylight Time),955672.5,092_m_m_n_a.png,I,m,1346,12,1,2356.5999999046326,953315.9000000954,9071,NNB,C,10
7,test,3,0.0,2-Back,0.0,m,Mon Mar 30 2026 09:25:30 GMT-0400 (Eastern Daylight Time),958572.4000000954,030_o_f_n_a.png,I,z,1875,13,1,2889.4000000953674,955683.0,9071,NNB,C,11
8,test,3,0.0,2-Back,1.0,m,Mon Mar 30 2026 09:25:30 GMT-0400 (Eastern Daylight Time),960972.4000000954,093_m_f_n_a.png,I,m,1375,14,1,2392.8000000715256,958579.6000000238,9071,NNB,C,12
9,test,3,0.0,2-Back,1.0,m,Mon Mar 30 2026 09:25:30 GMT-0400 (Eastern Daylight Time),962989.0,146_o_m_n_a.png,I,m,991,15,1,2007.1999999284744,960981.8000000715,9071,NNB,C,13
10,test,3,1.0,2-Back,1.0,z,Mon Mar 30 2026 09:25:30 GMT-0400 (Eastern Daylight Time),965089.1000000238,093_m_f_n_a.png,I,z,1054,16,1,2081.600000023842,963007.5,9071,NNB,C,14
11,test,3,0.0,2-Back,1.0,m,Mon Mar 30 2026 09:25:30 GMT-0400 (Eastern Daylight Time),967138.8000000715,130_o_f_n_a.png,I,m,1022,17,1,2039.3000000715256,965099.5,9071,NNB,C,15
12,test,3,0.0,2-Back,1.0,m,Mon Mar 30 2026 09:25:30 GMT-0400 (Eastern Daylight Time),969622.2000000477,130_o_f_n_a.png,I,m,1465,18,1,2478.7000000476837,967143.5,9071,NNB,C,16
0,test,4,0.0,2-Back,,,Mon Mar 30 2026 09:25:30 GMT-0400 (Eastern Daylight Time),969622.2000000477,059_o_m_n_a.png,I,space,3230,1,1,2478.7000000476837,967143.5,9071,NNB,C,0
0,test,4,0.0,2-Back,,,Mon Mar 30 2026 09:25:30 GMT-0400 (Eastern Daylight Time),969622.2000000477,098_y_f_n_a.png,I,space,3230,2,1,2478.7000000476837,967143.5,9071,NNB,C,0
0,test,4,1.0,2-Back,0.0,z,Mon Mar 30 2026 09:25:30 GMT-0400 (Eastern Daylight Time),980505.8000000715,059_o_m_n_a.png,I,m,1345,3,1,2357.100000023842,978148.7000000477,9071,NNB,C,1
0,test,4,1.0,2-Back,0.0,z,Mon Mar 30 2026 09:25:30 GMT-0400 (Eastern Daylight Time),983539.3000000715,098_y_f_n_a.png,I,None,2016,4,1,3023.5,980515.8000000715,9071,NNB,C,2
1,test,4,0.0,2-Back,1.0,m,Mon Mar 30 2026 09:25:30 GMT-0400 (Eastern Daylight Time),986389.1000000238,030_o_f_n_a.png,I,m,1817,5,1,2841.5,983547.6000000238,9071,NNB,C,3
2,test,4,0.0,2-Back,1.0,m,Mon Mar 30 2026 09:25:30 GMT-0400 (Eastern Daylight Time),989172.4000000954,030_o_f_n_a.png,I,m,1751,6,1,2773.100000023842,986399.3000000715,9071,NNB,C,4
3,test,4,0.0,2-Back,1.0,m,Mon Mar 30 2026 09:25:30 GMT-0400 (Eastern Daylight Time),991522.4000000954,006_m_f_n_a.png,I,m,1319,7,1,2337.5,989184.9000000954,9071,NNB,C,5
4,test,4,0.0,2-Back,1.0,m,Mon Mar 30 2026 09:25:30 GMT-0400 (Eastern Daylight Time),994472.3000000715,031_y_m_n_a.png,I,m,1929,8,1,2941.7000000476837,991530.6000000238,9071,NNB,C,6
5,test,4,1.0,2-Back,1.0,z,Mon Mar 30 2026 09:25:30 GMT-0400 (Eastern Daylight Time),996355.7000000477,006_m_f_n_a.png,I,z,850,9,1,1872.7000000476837,994483.0,9071,NNB,C,7
6,test,4,0.0,2-Back,1.0,m,Mon Mar 30 2026 09:25:30 GMT-0400 (Eastern Daylight Time),998289.1000000238,092_m_m_n_a.png,I,m,904,10,1,1924.8999999761581,996364.2000000477,9071,NNB,C,8
7,test,4,0.0,2-Back,1.0,m,Mon Mar 30 2026 09:25:30 GMT-0400 (Eastern Daylight Time),1001305.7000000477,031_y_m_n_a.png,I,m,1995,11,1,3006.7000000476837,998299.0,9071,NNB,C,9
8,test,4,0.0,2-Back,1.0,m,Mon Mar 30 2026 09:25:30 GMT-0400 (Eastern Daylight Time),1003889.1000000238,130_o_f_n_a.png,I,m,1554,12,1,2572.899999976158,1001316.2000000477,9071,NNB,C,10
9,test,4,0.0,2-Back,1.0,m,Mon Mar 30 2026 09:25:30 GMT-0400 (Eastern Daylight Time),1006255.7000000477,057_y_m_n_a.png,I,m,1337,13,1,2357.2000000476837,1003898.5,9071,NNB,C,11
10,test,4,1.0,2-Back,1.0,z,Mon Mar 30 2026 09:25:30 GMT-0400 (Eastern Daylight Time),1008155.6000000238,130_o_f_n_a.png,I,z,876,14,1,1890.6999999284744,1006264.9000000954,9071,NNB,C,12
10,test,4,1.0,2-Back,0.0,z,Mon Mar 30 2026 09:25:30 GMT-0400 (Eastern Daylight Time),1010239.0,057_y_m_n_a.png,I,m,1056,15,1,2072.5999999046326,1008166.4000000954,9071,NNB,C,13
11,test,4,0.0,2-Back,1.0,m,Mon Mar 30 2026 09:25:30 GMT-0400 (Eastern Daylight Time),1012155.5,082_m_m_n_a.png,I,m,892,16,1,1902.0,1010253.5,9071,NNB,C,14
12,test,4,0.0,2-Back,1.0,m,Mon Mar 30 2026 09:25:30 GMT-0400 (Eastern Daylight Time),1014172.7000000477,093_m_f_n_a.png,I,m,992,17,1,2007.2000000476837,1012165.5,9071,NNB,C,15
13,test,4,1.0,2-Back,1.0,z,Mon Mar 30 2026 09:25:30 GMT-0400 (Eastern Daylight Time),1015755.6000000238,082_m_m_n_a.png,I,z,559,18,1,1578.2999999523163,1014177.3000000715,9071,NNB,C,16
0,test,5,1.0,2-Back,,,Mon Mar 30 2026 09:25:30 GMT-0400 (Eastern Daylight Time),1015755.6000000238,057_y_m_n_a.png,I,space,1463,1,1,1578.2999999523163,1014177.3000000715,9071,NNB,C,0
0,test,5,1.0,2-Back,,,Mon Mar 30 2026 09:25:30 GMT-0400 (Eastern Daylight Time),1015755.6000000238,093_m_f_n_a.png,I,space,1463,2,1,1578.2999999523163,1014177.3000000715,9071,NNB,C,0
1,test,5,1.0,2-Back,1.0,z,Mon Mar 30 2026 09:25:30 GMT-0400 (Eastern Daylight Time),1024872.2000000477,057_y_m_n_a.png,I,z,1579,3,1,2586.399999976158,1022285.8000000715,9071,NNB,C,1
2,test,5,1.0,2-Back,1.0,z,Mon Mar 30 2026 09:25:30 GMT-0400 (Eastern Daylight Time),1027005.7000000477,093_m_f_n_a.png,I,z,1106,4,1,2124.100000023842,1024881.6000000238,9071,NNB,C,2
3,test,5,0.0,2-Back,1.0,m,Mon Mar 30 2026 09:25:30 GMT-0400 (Eastern Daylight Time),1028939.0,130_o_f_n_a.png,I,m,910,5,1,1923.7999999523163,1027015.2000000477,9071,NNB,C,3
3,test,5,0.0,2-Back,0.0,m,Mon Mar 30 2026 09:25:30 GMT-0400 (Eastern Daylight Time),1031155.7000000477,057_y_m_n_a.png,I,z,1185,6,1,2207.399999976158,1028948.3000000715,9071,NNB,C,4
4,test,5,0.0,2-Back,1.0,m,Mon Mar 30 2026 09:25:30 GMT-0400 (Eastern Daylight Time),1033188.6000000238,028_y_f_n_a.png,I,m,1000,7,1,2024.1000000238419,1031164.5,9071,NNB,C,5
5,test,5,0.0,2-Back,1.0,m,Mon Mar 30 2026 09:25:30 GMT-0400 (Eastern Daylight Time),1035339.0,130_o_f_n_a.png,I,m,1127,8,1,2145.399999976158,1033193.6000000238,9071,NNB,C,6
6,test,5,1.0,2-Back,1.0,z,Mon Mar 30 2026 09:25:30 GMT-0400 (Eastern Daylight Time),1037389.0,028_y_f_n_a.png,I,z,1024,9,1,2039.6999999284744,1035349.3000000715,9071,NNB,C,7
7,test,5,0.0,2-Back,1.0,m,Mon Mar 30 2026 09:25:30 GMT-0400 (Eastern Daylight Time),1039572.4000000954,146_o_m_n_a.png,I,m,1151,10,1,2172.9000000953674,1037399.5,9071,NNB,C,8
8,test,5,0.0,2-Back,1.0,m,Mon Mar 30 2026 09:25:30 GMT-0400 (Eastern Daylight Time),1042071.9000000954,006_m_f_n_a.png,I,m,1478,11,1,2490.4000000953674,1039581.5,9071,NNB,C,9
9,test,5,0.0,2-Back,1.0,m,Mon Mar 30 2026 09:25:30 GMT-0400 (Eastern Daylight Time),1044222.3000000715,092_m_m_n_a.png,I,m,1123,12,1,2146.2000000476837,1042076.1000000238,9071,NNB,C,10
10,test,5,0.0,2-Back,1.0,m,Mon Mar 30 2026 09:25:30 GMT-0400 (Eastern Daylight Time),1047105.6000000238,146_o_m_n_a.png,I,m,1853,13,1,2874.100000023842,1044231.5,9071,NNB,C,11
10,test,5,1.0,2-Back,0.0,z,Mon Mar 30 2026 09:25:30 GMT-0400 (Eastern Daylight Time),1049555.6000000238,092_m_m_n_a.png,I,m,1417,14,1,2437.899999976158,1047117.7000000477,9071,NNB,C,12
11,test,5,0.0,2-Back,1.0,m,Mon Mar 30 2026 09:25:30 GMT-0400 (Eastern Daylight Time),1051588.6000000238,098_y_f_n_a.png,I,m,999,15,1,2024.6999999284744,1049563.9000000954,9071,NNB,C,13
12,test,5,0.0,2-Back,1.0,m,Mon Mar 30 2026 09:25:30 GMT-0400 (Eastern Daylight Time),1053605.3000000715,059_o_m_n_a.png,I,m,997,16,1,2011.8999999761581,1051593.4000000954,9071,NNB,C,14
13,test,5,0.0,2-Back,1.0,m,Mon Mar 30 2026 09:25:30 GMT-0400 (Eastern Daylight Time),1055589.2000000477,006_m_f_n_a.png,I,m,966,17,1,1974.2999999523163,1053614.9000000954,9071,NNB,C,15
14,test,5,1.0,2-Back,1.0,z,Mon Mar 30 2026 09:25:30 GMT-0400 (Eastern Daylight Time),1057872.1000000238,059_o_m_n_a.png,I,z,1255,18,1,2273.899999976158,1055598.2000000477,9071,NNB,C,16
