acc_sum,block,block_c,block_cond,con_img,correct,correct_response,datetime,endtime,face,jitter,line,project,response,response_time,row_sel,session_number,start_end,starttime,subject_id,task,task_vers,trial
1,prac,1,A,haborder.png,1,z,Tue Mar 31 2026 08:37:36 GMT-0500 (Central Daylight Time),45897.900000002235,CFD-WM-013-015-A.jpg,1900,solid,I,z,900,8,2,3583.300000000745,42314.60000000149,8087,ATS,A,1
2,prac,1,A,haborder.png,1,z,Tue Mar 31 2026 08:37:36 GMT-0500 (Central Daylight Time),48164.199999999255,CFD-WF-019-015-A.jpg,1000,solid,I,z,476,12,2,5849.599999997765,42314.60000000149,8087,ATS,A,2
3,prac,1,A,haborder.png,1,m,Tue Mar 31 2026 08:37:36 GMT-0500 (Central Daylight Time),51412.900000002235,CFD-BF-028-020-HC.jpg,2000,solid,I,m,457,5,2,9098.300000000745,42314.60000000149,8087,ATS,A,3
4,prac,1,A,haborder.png,1,m,Tue Mar 31 2026 08:37:36 GMT-0500 (Central Daylight Time),54344.60000000149,CFD-WM-006-013-HC.jpg,1700,solid,I,m,435,9,2,12030.0,42314.60000000149,8087,ATS,A,4
5,prac,1,A,haborder.png,1,m,Tue Mar 31 2026 08:37:36 GMT-0500 (Central Daylight Time),57144.699999999255,CFD-WF-017-016-HC.jpg,1500,solid,I,m,501,11,2,14830.099999997765,42314.60000000149,8087,ATS,A,5
6,prac,1,A,haborder.png,1,z,Tue Mar 31 2026 08:37:36 GMT-0500 (Central Daylight Time),60076.300000000745,CFD-BM-005-010-A.jpg,1600,solid,I,z,541,2,2,17761.699999999255,42314.60000000149,8087,ATS,A,6
7,prac,1,A,haborder.png,1,z,Tue Mar 31 2026 08:37:36 GMT-0500 (Central Daylight Time),62477.60000000149,CFD-BF-023-013-A.jpg,1000,solid,I,z,607,4,2,20163.0,42314.60000000149,8087,ATS,A,7
8,prac,1,A,haborder.png,1,m,Tue Mar 31 2026 08:37:36 GMT-0500 (Central Daylight Time),65425.300000000745,CFD-BM-017-052-HC.jpg,1700,solid,I,m,478,1,2,23110.699999999255,42314.60000000149,8087,ATS,A,8
9,prac,1,A,haborder.png,1,z,Tue Mar 31 2026 08:37:36 GMT-0500 (Central Daylight Time),67925.69999999925,CFD-BF-039-039-A.jpg,1200,solid,I,z,524,6,2,25611.099999997765,42314.60000000149,8087,ATS,A,9
10,prac,1,A,haborder.png,1,z,Tue Mar 31 2026 08:37:36 GMT-0500 (Central Daylight Time),70839.60000000149,CFD-WF-003-014-A.jpg,1600,solid,I,z,519,10,2,28525.0,42314.60000000149,8087,ATS,A,10
11,prac,1,A,haborder.png,1,m,Tue Mar 31 2026 08:37:36 GMT-0500 (Central Daylight Time),73605.10000000149,CFD-WM-004-005-HC.jpg,1400,solid,I,m,584,7,2,31290.5,42314.60000000149,8087,ATS,A,11
12,prac,1,A,haborder.png,1,m,Tue Mar 31 2026 08:37:36 GMT-0500 (Central Daylight Time),76419.80000000075,CFD-BM-029-026-HC.jpg,1500,solid,I,m,530,3,2,34105.199999999255,42314.60000000149,8087,ATS,A,12
1,prac,1,B,mfborder.png,1,z,Tue Mar 31 2026 08:37:36 GMT-0500 (Central Daylight Time),96181.5,CFD-BF-028-020-HC.jpg,1400,dash,I,z,963,7,2,3149.699999999255,93031.80000000075,8087,ATS,A,1
2,prac,1,B,mfborder.png,1,z,Tue Mar 31 2026 08:37:36 GMT-0500 (Central Daylight Time),98629.69999999925,CFD-WF-017-016-HC.jpg,1000,dash,I,z,655,12,2,5597.89999999851,93031.80000000075,8087,ATS,A,2
3,prac,1,B,mfborder.png,1,m,Tue Mar 31 2026 08:37:36 GMT-0500 (Central Daylight Time),101380.0,CFD-WM-006-013-HC.jpg,1600,dash,I,m,366,10,2,8348.199999999255,93031.80000000075,8087,ATS,A,3
4,prac,1,B,mfborder.png,1,z,Tue Mar 31 2026 08:37:36 GMT-0500 (Central Daylight Time),104112.10000000149,CFD-BF-010-005-HC.jpg,1500,dash,I,z,444,3,2,11080.300000000745,93031.80000000075,8087,ATS,A,4
5,prac,1,B,mfborder.png,1,m,Tue Mar 31 2026 08:37:36 GMT-0500 (Central Daylight Time),107195.10000000149,CFD-BM-029-026-HC.jpg,1700,dash,I,m,583,1,2,14163.300000000745,93031.80000000075,8087,ATS,A,5
6,prac,1,B,mfborder.png,1,z,Tue Mar 31 2026 08:37:36 GMT-0500 (Central Daylight Time),109643.10000000149,CFD-BF-023-013-A.jpg,1000,dash,I,z,650,4,2,16611.300000000745,93031.80000000075,8087,ATS,A,6
7,prac,1,B,mfborder.png,1,m,Tue Mar 31 2026 08:37:36 GMT-0500 (Central Daylight Time),113526.30000000075,CFD-BM-010-019-A.jpg,1600,dash,I,m,1487,2,2,20494.5,93031.80000000075,8087,ATS,A,7
8,prac,1,B,mfborder.png,1,z,Tue Mar 31 2026 08:37:36 GMT-0500 (Central Daylight Time),116508.19999999925,CFD-WF-003-014-A.jpg,1500,dash,I,z,699,11,2,23476.39999999851,93031.80000000075,8087,ATS,A,8
9,prac,1,B,mfborder.png,1,m,Tue Mar 31 2026 08:37:36 GMT-0500 (Central Daylight Time),119687.5,CFD-BM-005-010-A.jpg,2000,dash,I,m,392,5,2,26655.699999999255,93031.80000000075,8087,ATS,A,9
10,prac,1,B,mfborder.png,1,m,Tue Mar 31 2026 08:37:36 GMT-0500 (Central Daylight Time),122655.40000000224,CFD-WM-013-015-A.jpg,1700,dash,I,m,469,9,2,29623.60000000149,93031.80000000075,8087,ATS,A,10
11,prac,1,B,mfborder.png,1,m,Tue Mar 31 2026 08:37:36 GMT-0500 (Central Daylight Time),125021.90000000224,CFD-WM-019-013-A.jpg,1200,dash,I,m,379,6,2,31990.10000000149,93031.80000000075,8087,ATS,A,11
12,prac,1,B,mfborder.png,1,z,Tue Mar 31 2026 08:37:36 GMT-0500 (Central Daylight Time),128222.5,CFD-WF-002-008-HC.jpg,1900,dash,I,z,512,8,2,35190.699999999255,93031.80000000075,8087,ATS,A,12
1,test,1,A,haborder.png,1,m,Tue Mar 31 2026 08:37:36 GMT-0500 (Central Daylight Time),143517.69999999925,CFD-BF-028-020-HC.jpg,2000,solid,I,m,734,5,2,2751.7999999970198,140765.90000000224,8087,ATS,A,1
2,test,1,A,haborder.png,1,z,Tue Mar 31 2026 08:37:36 GMT-0500 (Central Daylight Time),146015.40000000224,CFD-WM-013-015-A.jpg,1900,solid,I,z,582,8,2,5249.5,140765.90000000224,8087,ATS,A,2
3,test,1,A,haborder.png,1,m,Tue Mar 31 2026 08:37:36 GMT-0500 (Central Daylight Time),148781.5,CFD-BF-028-020-HC.jpg,2000,solid,I,m,749,5,2,8015.599999997765,140765.90000000224,8087,ATS,A,3
4,test,1,A,haborder.png,1,z,Tue Mar 31 2026 08:37:36 GMT-0500 (Central Daylight Time),150647.1000000015,CFD-BF-039-039-A.jpg,1200,solid,I,z,647,6,2,9881.199999999255,140765.90000000224,8087,ATS,A,4
5,test,1,A,haborder.png,1,z,Tue Mar 31 2026 08:37:36 GMT-0500 (Central Daylight Time),152263.5,CFD-BF-023-013-A.jpg,1000,solid,I,z,589,4,2,11497.599999997765,140765.90000000224,8087,ATS,A,5
6,test,1,A,haborder.png,1,z,Tue Mar 31 2026 08:37:36 GMT-0500 (Central Daylight Time),154530.0,CFD-BM-005-010-A.jpg,1600,solid,I,z,644,2,2,13764.099999997765,140765.90000000224,8087,ATS,A,6
7,test,1,A,haborder.png,1,z,Tue Mar 31 2026 08:37:36 GMT-0500 (Central Daylight Time),156128.40000000224,CFD-WF-019-015-A.jpg,1000,solid,I,z,565,12,2,15362.5,140765.90000000224,8087,ATS,A,7
8,test,1,A,haborder.png,1,m,Tue Mar 31 2026 08:37:36 GMT-0500 (Central Daylight Time),158395.5,CFD-BM-017-052-HC.jpg,1700,solid,I,m,534,1,2,17629.599999997765,140765.90000000224,8087,ATS,A,8
9,test,1,A,haborder.png,1,z,Tue Mar 31 2026 08:37:36 GMT-0500 (Central Daylight Time),160910.0,CFD-BM-005-010-A.jpg,1600,solid,I,z,888,2,2,20144.099999997765,140765.90000000224,8087,ATS,A,9
10,test,1,A,haborder.png,1,m,Tue Mar 31 2026 08:37:36 GMT-0500 (Central Daylight Time),163443.80000000075,CFD-WF-017-016-HC.jpg,1500,solid,I,m,1000,11,2,22677.89999999851,140765.90000000224,8087,ATS,A,10
11,test,1,A,haborder.png,1,z,Tue Mar 31 2026 08:37:36 GMT-0500 (Central Daylight Time),166025.69999999925,CFD-WM-013-015-A.jpg,1900,solid,I,z,652,8,2,25259.79999999702,140765.90000000224,8087,ATS,A,11
12,test,1,A,haborder.png,1,z,Tue Mar 31 2026 08:37:36 GMT-0500 (Central Daylight Time),167623.90000000224,CFD-BF-023-013-A.jpg,1000,solid,I,z,574,4,2,26858.0,140765.90000000224,8087,ATS,A,12
13,test,1,A,haborder.png,1,z,Tue Mar 31 2026 08:37:36 GMT-0500 (Central Daylight Time),169107.80000000075,CFD-WF-019-015-A.jpg,1000,solid,I,z,460,12,2,28341.89999999851,140765.90000000224,8087,ATS,A,13
14,test,1,A,haborder.png,1,m,Tue Mar 31 2026 08:37:36 GMT-0500 (Central Daylight Time),171125.0,CFD-BM-029-026-HC.jpg,1500,solid,I,m,490,3,2,30359.099999997765,140765.90000000224,8087,ATS,A,14
15,test,1,A,haborder.png,1,m,Tue Mar 31 2026 08:37:36 GMT-0500 (Central Daylight Time),173223.69999999925,CFD-WM-006-013-HC.jpg,1700,solid,I,m,365,9,2,32457.79999999702,140765.90000000224,8087,ATS,A,15
16,test,1,A,haborder.png,1,m,Tue Mar 31 2026 08:37:36 GMT-0500 (Central Daylight Time),175338.80000000075,CFD-BM-017-052-HC.jpg,1700,solid,I,m,384,1,2,34572.89999999851,140765.90000000224,8087,ATS,A,16
17,test,1,A,haborder.png,1,z,Tue Mar 31 2026 08:37:36 GMT-0500 (Central Daylight Time),177105.30000000075,CFD-BF-039-039-A.jpg,1200,solid,I,z,535,6,2,36339.39999999851,140765.90000000224,8087,ATS,A,17
18,test,1,A,haborder.png,1,m,Tue Mar 31 2026 08:37:36 GMT-0500 (Central Daylight Time),179121.6000000015,CFD-BM-029-026-HC.jpg,1500,solid,I,m,494,3,2,38355.699999999255,140765.90000000224,8087,ATS,A,18
19,test,1,A,haborder.png,1,z,Tue Mar 31 2026 08:37:36 GMT-0500 (Central Daylight Time),181237.80000000075,CFD-WF-003-014-A.jpg,1600,solid,I,z,498,10,2,40471.89999999851,140765.90000000224,8087,ATS,A,19
20,test,1,A,haborder.png,1,m,Tue Mar 31 2026 08:37:36 GMT-0500 (Central Daylight Time),183219.1000000015,CFD-WF-017-016-HC.jpg,1500,solid,I,m,458,11,2,42453.199999999255,140765.90000000224,8087,ATS,A,20
21,test,1,A,haborder.png,1,m,Tue Mar 31 2026 08:37:36 GMT-0500 (Central Daylight Time),185387.30000000075,CFD-WM-006-013-HC.jpg,1700,solid,I,m,436,9,2,44621.39999999851,140765.90000000224,8087,ATS,A,21
22,test,1,A,haborder.png,1,z,Tue Mar 31 2026 08:37:36 GMT-0500 (Central Daylight Time),187669.5,CFD-WF-003-014-A.jpg,1600,solid,I,z,656,10,2,46903.599999997765,140765.90000000224,8087,ATS,A,22
23,test,1,A,haborder.png,1,m,Tue Mar 31 2026 08:37:36 GMT-0500 (Central Daylight Time),190534.90000000224,CFD-WM-004-005-HC.jpg,1400,solid,I,m,1440,7,2,49769.0,140765.90000000224,8087,ATS,A,23
24,test,1,A,haborder.png,1,m,Tue Mar 31 2026 08:37:36 GMT-0500 (Central Daylight Time),192349.90000000224,CFD-WM-004-005-HC.jpg,1400,solid,I,m,382,7,2,51584.0,140765.90000000224,8087,ATS,A,24
1,test,1,B,mfborder.png,1,m,Tue Mar 31 2026 08:37:36 GMT-0500 (Central Daylight Time),199464.90000000224,CFD-WM-019-013-A.jpg,1200,dash,I,m,578,6,2,1800.1000000014901,197664.80000000075,8087,ATS,A,1
2,test,1,B,mfborder.png,1,z,Tue Mar 31 2026 08:37:36 GMT-0500 (Central Daylight Time),201180.69999999925,CFD-WF-017-016-HC.jpg,1000,dash,I,z,683,12,2,3515.89999999851,197664.80000000075,8087,ATS,A,2
3,test,1,B,mfborder.png,1,m,Tue Mar 31 2026 08:37:36 GMT-0500 (Central Daylight Time),202780.5,CFD-WM-019-013-A.jpg,1200,dash,I,m,375,6,2,5115.699999999255,197664.80000000075,8087,ATS,A,3
4,test,1,B,mfborder.png,1,z,Tue Mar 31 2026 08:37:36 GMT-0500 (Central Daylight Time),205162.30000000075,CFD-WF-002-008-HC.jpg,1900,dash,I,z,459,8,2,7497.5,197664.80000000075,8087,ATS,A,4
5,test,1,B,mfborder.png,1,z,Tue Mar 31 2026 08:37:36 GMT-0500 (Central Daylight Time),207245.40000000224,CFD-BF-010-005-HC.jpg,1500,dash,I,z,565,3,2,9580.60000000149,197664.80000000075,8087,ATS,A,5
6,test,1,B,mfborder.png,1,z,Tue Mar 31 2026 08:37:36 GMT-0500 (Central Daylight Time),209179.40000000224,CFD-BF-028-020-HC.jpg,1400,dash,I,z,518,7,2,11514.60000000149,197664.80000000075,8087,ATS,A,6
7,test,1,B,mfborder.png,1,m,Tue Mar 31 2026 08:37:36 GMT-0500 (Central Daylight Time),211893.80000000075,CFD-BM-010-019-A.jpg,1600,dash,I,m,1096,2,2,14229.0,197664.80000000075,8087,ATS,A,7
8,test,1,B,mfborder.png,1,z,Tue Mar 31 2026 08:37:36 GMT-0500 (Central Daylight Time),213526.0,CFD-WF-017-016-HC.jpg,1000,dash,I,z,612,12,2,15861.199999999255,197664.80000000075,8087,ATS,A,8
9,test,1,B,mfborder.png,1,z,Tue Mar 31 2026 08:37:36 GMT-0500 (Central Daylight Time),215059.40000000224,CFD-BF-023-013-A.jpg,1000,dash,I,z,511,4,2,17394.60000000149,197664.80000000075,8087,ATS,A,9
10,test,1,B,mfborder.png,1,m,Tue Mar 31 2026 08:37:36 GMT-0500 (Central Daylight Time),217127.0,CFD-BM-010-019-A.jpg,1600,dash,I,m,441,2,2,19462.199999999255,197664.80000000075,8087,ATS,A,10
11,test,1,B,mfborder.png,1,z,Tue Mar 31 2026 08:37:36 GMT-0500 (Central Daylight Time),219207.80000000075,CFD-BF-010-005-HC.jpg,1500,dash,I,z,562,3,2,21543.0,197664.80000000075,8087,ATS,A,11
12,test,1,B,mfborder.png,1,m,Tue Mar 31 2026 08:37:36 GMT-0500 (Central Daylight Time),221679.6000000015,CFD-BM-005-010-A.jpg,2000,dash,I,m,437,5,2,24014.800000000745,197664.80000000075,8087,ATS,A,12
13,test,1,B,mfborder.png,1,m,Tue Mar 31 2026 08:37:36 GMT-0500 (Central Daylight Time),223791.0,CFD-WM-013-015-A.jpg,1700,dash,I,m,397,9,2,26126.199999999255,197664.80000000075,8087,ATS,A,13
14,test,1,B,mfborder.png,1,z,Tue Mar 31 2026 08:37:36 GMT-0500 (Central Daylight Time),225756.19999999925,CFD-WF-003-014-A.jpg,1500,dash,I,z,440,11,2,28091.39999999851,197664.80000000075,8087,ATS,A,14
15,test,1,B,mfborder.png,1,m,Tue Mar 31 2026 08:37:36 GMT-0500 (Central Daylight Time),227889.30000000075,CFD-WM-006-013-HC.jpg,1600,dash,I,m,501,10,2,30224.5,197664.80000000075,8087,ATS,A,15
16,test,1,B,mfborder.png,1,m,Tue Mar 31 2026 08:37:36 GMT-0500 (Central Daylight Time),230071.0,CFD-WM-006-013-HC.jpg,1600,dash,I,m,555,10,2,32406.199999999255,197664.80000000075,8087,ATS,A,16
17,test,1,B,mfborder.png,1,m,Tue Mar 31 2026 08:37:36 GMT-0500 (Central Daylight Time),232471.30000000075,CFD-BM-005-010-A.jpg,2000,dash,I,m,372,5,2,34806.5,197664.80000000075,8087,ATS,A,17
18,test,1,B,mfborder.png,1,m,Tue Mar 31 2026 08:37:36 GMT-0500 (Central Daylight Time),234653.40000000224,CFD-WM-013-015-A.jpg,1700,dash,I,m,455,9,2,36988.60000000149,197664.80000000075,8087,ATS,A,18
19,test,1,B,mfborder.png,1,z,Tue Mar 31 2026 08:37:36 GMT-0500 (Central Daylight Time),236517.80000000075,CFD-WF-003-014-A.jpg,1500,dash,I,z,346,11,2,38853.0,197664.80000000075,8087,ATS,A,19
20,test,1,B,mfborder.png,1,m,Tue Mar 31 2026 08:37:36 GMT-0500 (Central Daylight Time),238869.5,CFD-BM-029-026-HC.jpg,1700,dash,I,m,615,1,2,41204.699999999255,197664.80000000075,8087,ATS,A,20
21,test,1,B,mfborder.png,1,z,Tue Mar 31 2026 08:37:36 GMT-0500 (Central Daylight Time),241502.5,CFD-WF-002-008-HC.jpg,1900,dash,I,z,709,8,2,43837.699999999255,197664.80000000075,8087,ATS,A,21
22,test,1,B,mfborder.png,1,m,Tue Mar 31 2026 08:37:36 GMT-0500 (Central Daylight Time),243717.6000000015,CFD-BM-029-026-HC.jpg,1700,dash,I,m,490,1,2,46052.800000000745,197664.80000000075,8087,ATS,A,22
23,test,1,B,mfborder.png,1,z,Tue Mar 31 2026 08:37:36 GMT-0500 (Central Daylight Time),245334.80000000075,CFD-BF-023-013-A.jpg,1000,dash,I,z,582,4,2,47670.0,197664.80000000075,8087,ATS,A,23
24,test,1,B,mfborder.png,1,z,Tue Mar 31 2026 08:37:36 GMT-0500 (Central Daylight Time),247682.80000000075,CFD-BF-028-020-HC.jpg,1400,dash,I,z,916,7,2,50018.0,197664.80000000075,8087,ATS,A,24
1,prac,1,C,haborder.png,1,z,Tue Mar 31 2026 08:37:36 GMT-0500 (Central Daylight Time),273624.6000000015,CFD-BF-023-013-A.jpg,1900,dash,I,z,1459,7,2,4148.10000000149,269476.5,8087,ATS,A,1
2,prac,1,C,mfborder.png,1,z,Tue Mar 31 2026 08:37:36 GMT-0500 (Central Daylight Time),277207.30000000075,CFD-WF-019-015-A.jpg,1500,solid,I,z,1294,2,2,7730.800000000745,269476.5,8087,ATS,A,2
3,prac,1,C,haborder.png,1,m,Tue Mar 31 2026 08:37:36 GMT-0500 (Central Daylight Time),280756.69999999925,CFD-WM-004-005-HC.jpg,1400,solid,I,m,1349,12,2,11280.199999999255,269476.5,8087,ATS,A,3
3,prac,1,C,mfborder.png,0,m,Tue Mar 31 2026 08:37:36 GMT-0500 (Central Daylight Time),284686.80000000075,CFD-WM-013-015-A.jpg,1700,solid,I,z,1461,6,2,15210.300000000745,269476.5,8087,ATS,A,4
4,prac,1,C,haborder.png,1,m,Tue Mar 31 2026 08:37:36 GMT-0500 (Central Daylight Time),287470.5,CFD-WM-004-005-HC.jpg,1000,dash,I,m,1012,11,2,17994.0,269476.5,8087,ATS,A,5
5,prac,1,C,mfborder.png,1,m,Tue Mar 31 2026 08:37:36 GMT-0500 (Central Daylight Time),290552.80000000075,CFD-BM-005-010-A.jpg,1200,dash,I,m,1108,5,2,21076.300000000745,269476.5,8087,ATS,A,6
5,prac,1,C,haborder.png,0,z,Tue Mar 31 2026 08:37:36 GMT-0500 (Central Daylight Time),294551.40000000224,CFD-BF-039-039-A.jpg,1700,solid,I,None,1508,8,2,25074.900000002235,269476.5,8087,ATS,A,7
5,prac,1,C,mfborder.png,0,m,Tue Mar 31 2026 08:37:36 GMT-0500 (Central Daylight Time),298850.40000000224,CFD-BM-017-052-HC.jpg,2000,solid,I,None,1516,4,2,29373.900000002235,269476.5,8087,ATS,A,8
6,prac,1,C,mfborder.png,1,z,Tue Mar 31 2026 08:37:36 GMT-0500 (Central Daylight Time),302000.1000000015,CFD-WF-017-016-HC.jpg,1600,dash,I,z,769,1,2,32523.60000000149,269476.5,8087,ATS,A,9
7,prac,1,C,mfborder.png,1,z,Tue Mar 31 2026 08:37:36 GMT-0500 (Central Daylight Time),304482.30000000075,CFD-BF-028-020-HC.jpg,1000,dash,I,z,684,3,2,35005.800000000745,269476.5,8087,ATS,A,10
8,prac,1,C,haborder.png,1,m,Tue Mar 31 2026 08:37:36 GMT-0500 (Central Daylight Time),307698.5,CFD-BM-029-026-HC.jpg,1500,solid,I,m,919,10,2,38222.0,269476.5,8087,ATS,A,11
9,prac,1,C,haborder.png,1,z,Tue Mar 31 2026 08:37:36 GMT-0500 (Central Daylight Time),311030.80000000075,CFD-WF-003-014-A.jpg,1600,dash,I,z,963,9,2,41554.300000000745,269476.5,8087,ATS,A,12
1,test,1,C,haborder.png,1,z,Tue Mar 31 2026 08:37:36 GMT-0500 (Central Daylight Time),323241.69999999925,CFD-BM-010-019-A.jpg,1700,solid,I,z,1185,9,2,2915.199999999255,320326.5,8087,ATS,A,1
2,test,1,C,mfborder.png,1,m,Tue Mar 31 2026 08:37:36 GMT-0500 (Central Daylight Time),326140.30000000075,CFD-WM-019-013-A.jpg,2000,dash,I,m,881,5,2,5813.800000000745,320326.5,8087,ATS,A,2
3,test,1,C,mfborder.png,1,z,Tue Mar 31 2026 08:37:36 GMT-0500 (Central Daylight Time),328507.69999999925,CFD-BF-023-013-A.jpg,1600,dash,I,z,744,2,2,8181.199999999255,320326.5,8087,ATS,A,3
4,test,1,C,mfborder.png,1,z,Tue Mar 31 2026 08:37:36 GMT-0500 (Central Daylight Time),330925.0,CFD-BF-010-005-HC.jpg,1700,dash,I,z,694,1,2,10598.5,320326.5,8087,ATS,A,4
5,test,1,C,haborder.png,1,z,Tue Mar 31 2026 08:37:36 GMT-0500 (Central Daylight Time),333723.6000000015,CFD-BM-010-019-A.jpg,1700,solid,I,z,1078,9,2,13397.10000000149,320326.5,8087,ATS,A,5
6,test,1,C,mfborder.png,1,m,Tue Mar 31 2026 08:37:36 GMT-0500 (Central Daylight Time),336107.1000000015,CFD-BM-029-026-HC.jpg,1200,dash,I,m,1154,6,2,15780.60000000149,320326.5,8087,ATS,A,6
7,test,1,C,haborder.png,1,z,Tue Mar 31 2026 08:37:36 GMT-0500 (Central Daylight Time),339071.0,CFD-BM-005-010-A.jpg,1900,solid,I,z,1049,8,2,18744.5,320326.5,8087,ATS,A,7
8,test,1,C,haborder.png,1,m,Tue Mar 31 2026 08:37:36 GMT-0500 (Central Daylight Time),340920.1000000015,CFD-WF-017-016-HC.jpg,1000,solid,I,m,821,12,2,20593.60000000149,320326.5,8087,ATS,A,8
9,test,1,C,mfborder.png,1,m,Tue Mar 31 2026 08:37:36 GMT-0500 (Central Daylight Time),342986.5,CFD-BM-029-026-HC.jpg,1200,dash,I,m,844,6,2,22660.0,320326.5,8087,ATS,A,9
10,test,1,C,mfborder.png,1,m,Tue Mar 31 2026 08:37:36 GMT-0500 (Central Daylight Time),344601.69999999925,CFD-WM-006-013-HC.jpg,1000,dash,I,m,585,4,2,24275.199999999255,320326.5,8087,ATS,A,10
11,test,1,C,haborder.png,1,z,Tue Mar 31 2026 08:37:36 GMT-0500 (Central Daylight Time),346917.69999999925,CFD-WM-013-015-A.jpg,1400,solid,I,z,889,7,2,26591.199999999255,320326.5,8087,ATS,A,11
11,test,1,C,haborder.png,0,m,Tue Mar 31 2026 08:37:36 GMT-0500 (Central Daylight Time),349266.30000000075,CFD-WF-002-008-HC.jpg,1500,solid,I,z,817,11,2,28939.800000000745,320326.5,8087,ATS,A,12
11,test,1,C,haborder.png,0,m,Tue Mar 31 2026 08:37:36 GMT-0500 (Central Daylight Time),352398.6000000015,CFD-BF-028-020-HC.jpg,1600,solid,I,None,1516,10,2,32072.10000000149,320326.5,8087,ATS,A,13
12,test,1,C,mfborder.png,1,z,Tue Mar 31 2026 08:37:36 GMT-0500 (Central Daylight Time),354716.30000000075,CFD-WF-003-014-A.jpg,1500,dash,I,z,792,3,2,34389.800000000745,320326.5,8087,ATS,A,14
12,test,1,C,haborder.png,0,z,Tue Mar 31 2026 08:37:36 GMT-0500 (Central Daylight Time),357182.0,CFD-WM-013-015-A.jpg,1400,solid,I,m,1050,7,2,36855.5,320326.5,8087,ATS,A,15
13,test,1,C,mfborder.png,1,m,Tue Mar 31 2026 08:37:36 GMT-0500 (Central Daylight Time),360097.69999999925,CFD-WM-019-013-A.jpg,2000,dash,I,m,887,5,2,39771.199999999255,320326.5,8087,ATS,A,16
14,test,1,C,haborder.png,1,m,Tue Mar 31 2026 08:37:36 GMT-0500 (Central Daylight Time),362863.69999999925,CFD-BF-028-020-HC.jpg,1600,solid,I,m,1150,10,2,42537.199999999255,320326.5,8087,ATS,A,17
15,test,1,C,haborder.png,1,z,Tue Mar 31 2026 08:37:36 GMT-0500 (Central Daylight Time),365512.6000000015,CFD-BM-005-010-A.jpg,1900,solid,I,z,721,8,2,45186.10000000149,320326.5,8087,ATS,A,18
16,test,1,C,haborder.png,1,m,Tue Mar 31 2026 08:37:36 GMT-0500 (Central Daylight Time),367993.80000000075,CFD-WF-002-008-HC.jpg,1500,solid,I,m,959,11,2,47667.300000000745,320326.5,8087,ATS,A,19
17,test,1,C,mfborder.png,1,z,Tue Mar 31 2026 08:37:36 GMT-0500 (Central Daylight Time),370544.30000000075,CFD-BF-010-005-HC.jpg,1700,dash,I,z,822,1,2,50217.800000000745,320326.5,8087,ATS,A,20
18,test,1,C,mfborder.png,1,z,Tue Mar 31 2026 08:37:36 GMT-0500 (Central Daylight Time),373208.5,CFD-BF-023-013-A.jpg,1600,dash,I,z,1036,2,2,52882.0,320326.5,8087,ATS,A,21
19,test,1,C,haborder.png,1,m,Tue Mar 31 2026 08:37:36 GMT-0500 (Central Daylight Time),375075.6000000015,CFD-WF-017-016-HC.jpg,1000,solid,I,m,833,12,2,54749.10000000149,320326.5,8087,ATS,A,22
20,test,1,C,mfborder.png,1,z,Tue Mar 31 2026 08:37:36 GMT-0500 (Central Daylight Time),377390.90000000224,CFD-WF-003-014-A.jpg,1500,dash,I,z,783,3,2,57064.400000002235,320326.5,8087,ATS,A,23
21,test,1,C,mfborder.png,1,m,Tue Mar 31 2026 08:37:36 GMT-0500 (Central Daylight Time),379507.5,CFD-WM-006-013-HC.jpg,1000,dash,I,m,1082,4,2,59181.0,320326.5,8087,ATS,A,24
1,test,2,C,mfborder.png,1,z,Tue Mar 31 2026 08:37:36 GMT-0500 (Central Daylight Time),384272.1000000015,CFD-BF-028-020-HC.jpg,1500,dash,I,z,1212,3,2,2731.199999999255,381540.90000000224,8087,ATS,A,1
2,test,2,C,mfborder.png,1,z,Tue Mar 31 2026 08:37:36 GMT-0500 (Central Daylight Time),386521.1000000015,CFD-WF-017-016-HC.jpg,1700,dash,I,z,525,1,2,4980.199999999255,381540.90000000224,8087,ATS,A,2
3,test,2,C,mfborder.png,1,z,Tue Mar 31 2026 08:37:36 GMT-0500 (Central Daylight Time),388887.80000000075,CFD-WF-019-015-A.jpg,1600,dash,I,z,739,2,2,7346.89999999851,381540.90000000224,8087,ATS,A,3
4,test,2,C,mfborder.png,1,m,Tue Mar 31 2026 08:37:36 GMT-0500 (Central Daylight Time),391154.0,CFD-BM-017-052-HC.jpg,1000,dash,I,m,1236,4,2,9613.099999997765,381540.90000000224,8087,ATS,A,4
5,test,2,C,mfborder.png,1,z,Tue Mar 31 2026 08:37:36 GMT-0500 (Central Daylight Time),393570.1000000015,CFD-WF-019-015-A.jpg,1600,dash,I,z,795,2,2,12029.199999999255,381540.90000000224,8087,ATS,A,5
6,test,2,C,haborder.png,1,z,Tue Mar 31 2026 08:37:36 GMT-0500 (Central Daylight Time),396668.80000000075,CFD-BF-039-039-A.jpg,1900,solid,I,z,1175,8,2,15127.89999999851,381540.90000000224,8087,ATS,A,6
7,test,2,C,mfborder.png,1,z,Tue Mar 31 2026 08:37:36 GMT-0500 (Central Daylight Time),399118.90000000224,CFD-WF-017-016-HC.jpg,1700,dash,I,z,722,1,2,17578.0,381540.90000000224,8087,ATS,A,7
8,test,2,C,haborder.png,1,m,Tue Mar 31 2026 08:37:36 GMT-0500 (Central Daylight Time),401499.40000000224,CFD-BM-029-026-HC.jpg,1600,solid,I,m,747,10,2,19958.5,381540.90000000224,8087,ATS,A,8
9,test,2,C,haborder.png,1,m,Tue Mar 31 2026 08:37:36 GMT-0500 (Central Daylight Time),403101.19999999925,CFD-WM-004-005-HC.jpg,1000,solid,I,m,583,12,2,21560.29999999702,381540.90000000224,8087,ATS,A,9
10,test,2,C,haborder.png,1,m,Tue Mar 31 2026 08:37:36 GMT-0500 (Central Daylight Time),405332.30000000075,CFD-BM-029-026-HC.jpg,1600,solid,I,m,607,10,2,23791.39999999851,381540.90000000224,8087,ATS,A,10
10,test,2,C,mfborder.png,0,m,Tue Mar 31 2026 08:37:36 GMT-0500 (Central Daylight Time),407349.69999999925,CFD-WM-013-015-A.jpg,1200,dash,I,z,785,6,2,25808.79999999702,381540.90000000224,8087,ATS,A,11
11,test,2,C,haborder.png,1,m,Tue Mar 31 2026 08:37:36 GMT-0500 (Central Daylight Time),409779.90000000224,CFD-WM-004-005-HC.jpg,1500,solid,I,m,905,11,2,28239.0,381540.90000000224,8087,ATS,A,12
11,test,2,C,haborder.png,0,z,Tue Mar 31 2026 08:37:36 GMT-0500 (Central Daylight Time),412614.19999999925,CFD-WF-003-014-A.jpg,1700,solid,I,m,1107,9,2,31073.29999999702,381540.90000000224,8087,ATS,A,13
12,test,2,C,mfborder.png,1,m,Tue Mar 31 2026 08:37:36 GMT-0500 (Central Daylight Time),414547.1000000015,CFD-BM-017-052-HC.jpg,1000,dash,I,m,910,4,2,33006.199999999255,381540.90000000224,8087,ATS,A,14
13,test,2,C,mfborder.png,1,m,Tue Mar 31 2026 08:37:36 GMT-0500 (Central Daylight Time),417412.1000000015,CFD-BM-005-010-A.jpg,2000,dash,I,m,842,5,2,35871.199999999255,381540.90000000224,8087,ATS,A,15
13,test,2,C,haborder.png,0,z,Tue Mar 31 2026 08:37:36 GMT-0500 (Central Daylight Time),420345.5,CFD-BF-023-013-A.jpg,1400,solid,I,None,1516,7,2,38804.599999997765,381540.90000000224,8087,ATS,A,16
14,test,2,C,haborder.png,1,z,Tue Mar 31 2026 08:37:36 GMT-0500 (Central Daylight Time),422511.30000000075,CFD-BF-023-013-A.jpg,1400,solid,I,z,738,7,2,40970.39999999851,381540.90000000224,8087,ATS,A,17
15,test,2,C,mfborder.png,1,m,Tue Mar 31 2026 08:37:36 GMT-0500 (Central Daylight Time),425476.90000000224,CFD-BM-005-010-A.jpg,2000,dash,I,m,933,5,2,43936.0,381540.90000000224,8087,ATS,A,18
16,test,2,C,haborder.png,1,m,Tue Mar 31 2026 08:37:36 GMT-0500 (Central Daylight Time),427824.80000000075,CFD-WM-004-005-HC.jpg,1500,solid,I,m,828,11,2,46283.89999999851,381540.90000000224,8087,ATS,A,19
17,test,2,C,mfborder.png,1,m,Tue Mar 31 2026 08:37:36 GMT-0500 (Central Daylight Time),429824.5,CFD-WM-013-015-A.jpg,1200,dash,I,m,779,6,2,48283.599999997765,381540.90000000224,8087,ATS,A,20
18,test,2,C,haborder.png,1,m,Tue Mar 31 2026 08:37:36 GMT-0500 (Central Daylight Time),431507.90000000224,CFD-WM-004-005-HC.jpg,1000,solid,I,m,659,12,2,49967.0,381540.90000000224,8087,ATS,A,21
19,test,2,C,haborder.png,1,z,Tue Mar 31 2026 08:37:36 GMT-0500 (Central Daylight Time),434072.69999999925,CFD-BF-039-039-A.jpg,1900,solid,I,z,645,8,2,52531.79999999702,381540.90000000224,8087,ATS,A,22
20,test,2,C,mfborder.png,1,z,Tue Mar 31 2026 08:37:36 GMT-0500 (Central Daylight Time),436055.1000000015,CFD-BF-028-020-HC.jpg,1500,dash,I,z,462,3,2,54514.199999999255,381540.90000000224,8087,ATS,A,23
21,test,2,C,haborder.png,1,z,Tue Mar 31 2026 08:37:36 GMT-0500 (Central Daylight Time),438604.5,CFD-WF-003-014-A.jpg,1700,solid,I,z,816,9,2,57063.599999997765,381540.90000000224,8087,ATS,A,24
1,test,3,C,mfborder.png,1,z,Tue Mar 31 2026 08:37:36 GMT-0500 (Central Daylight Time),441823.30000000075,CFD-WF-003-014-A.jpg,1500,dash,I,z,716,3,2,2234.800000000745,439588.5,8087,ATS,A,1
2,test,3,C,mfborder.png,1,m,Tue Mar 31 2026 08:37:36 GMT-0500 (Central Daylight Time),443602.40000000224,CFD-WM-006-013-HC.jpg,1000,dash,I,m,758,4,2,4013.900000002235,439588.5,8087,ATS,A,2
3,test,3,C,haborder.png,1,z,Tue Mar 31 2026 08:37:36 GMT-0500 (Central Daylight Time),446069.1000000015,CFD-WM-013-015-A.jpg,1400,solid,I,z,1040,7,2,6480.60000000149,439588.5,8087,ATS,A,3
4,test,3,C,mfborder.png,1,z,Tue Mar 31 2026 08:37:36 GMT-0500 (Central Daylight Time),448451.6000000015,CFD-BF-023-013-A.jpg,1600,dash,I,z,759,2,2,8863.10000000149,439588.5,8087,ATS,A,4
4,test,3,C,haborder.png,0,z,Tue Mar 31 2026 08:37:36 GMT-0500 (Central Daylight Time),450700.5,CFD-WM-013-015-A.jpg,1400,solid,I,m,824,7,2,11112.0,439588.5,8087,ATS,A,5
4,test,3,C,haborder.png,0,m,Tue Mar 31 2026 08:37:36 GMT-0500 (Central Daylight Time),452767.69999999925,CFD-WF-017-016-HC.jpg,1000,solid,I,z,1038,12,2,13179.199999999255,439588.5,8087,ATS,A,6
4,test,3,C,haborder.png,0,z,Tue Mar 31 2026 08:37:36 GMT-0500 (Central Daylight Time),455749.30000000075,CFD-BM-005-010-A.jpg,1900,solid,I,m,1057,8,2,16160.800000000745,439588.5,8087,ATS,A,7
5,test,3,C,haborder.png,1,m,Tue Mar 31 2026 08:37:36 GMT-0500 (Central Daylight Time),458198.6000000015,CFD-BF-028-020-HC.jpg,1600,solid,I,m,817,10,2,18610.10000000149,439588.5,8087,ATS,A,8
6,test,3,C,haborder.png,1,z,Tue Mar 31 2026 08:37:36 GMT-0500 (Central Daylight Time),460731.30000000075,CFD-BM-010-019-A.jpg,1700,solid,I,z,808,9,2,21142.800000000745,439588.5,8087,ATS,A,9
7,test,3,C,haborder.png,1,z,Tue Mar 31 2026 08:37:36 GMT-0500 (Central Daylight Time),463048.1000000015,CFD-BM-010-019-A.jpg,1700,solid,I,z,590,9,2,23459.60000000149,439588.5,8087,ATS,A,10
8,test,3,C,haborder.png,1,m,Tue Mar 31 2026 08:37:36 GMT-0500 (Central Daylight Time),464830.40000000224,CFD-WF-017-016-HC.jpg,1000,solid,I,m,755,12,2,25241.900000002235,439588.5,8087,ATS,A,11
9,test,3,C,haborder.png,1,m,Tue Mar 31 2026 08:37:36 GMT-0500 (Central Daylight Time),466930.1000000015,CFD-WF-002-008-HC.jpg,1500,solid,I,m,570,11,2,27341.60000000149,439588.5,8087,ATS,A,12
10,test,3,C,mfborder.png,1,m,Tue Mar 31 2026 08:37:36 GMT-0500 (Central Daylight Time),468879.19999999925,CFD-WM-006-013-HC.jpg,1000,dash,I,m,921,4,2,29290.699999999255,439588.5,8087,ATS,A,13
11,test,3,C,haborder.png,1,z,Tue Mar 31 2026 08:37:36 GMT-0500 (Central Daylight Time),471662.19999999925,CFD-BM-005-010-A.jpg,1900,solid,I,z,857,8,2,32073.699999999255,439588.5,8087,ATS,A,14
12,test,3,C,mfborder.png,1,z,Tue Mar 31 2026 08:37:36 GMT-0500 (Central Daylight Time),473944.5,CFD-BF-023-013-A.jpg,1600,dash,I,z,653,2,2,34356.0,439588.5,8087,ATS,A,15
13,test,3,C,mfborder.png,1,m,Tue Mar 31 2026 08:37:36 GMT-0500 (Central Daylight Time),476527.1000000015,CFD-WM-019-013-A.jpg,2000,dash,I,m,557,5,2,36938.60000000149,439588.5,8087,ATS,A,16
14,test,3,C,mfborder.png,1,z,Tue Mar 31 2026 08:37:36 GMT-0500 (Central Daylight Time),478842.30000000075,CFD-BF-010-005-HC.jpg,1700,dash,I,z,584,1,2,39253.800000000745,439588.5,8087,ATS,A,17
15,test,3,C,mfborder.png,1,z,Tue Mar 31 2026 08:37:36 GMT-0500 (Central Daylight Time),481097.19999999925,CFD-BF-010-005-HC.jpg,1700,dash,I,z,524,1,2,41508.699999999255,439588.5,8087,ATS,A,18
16,test,3,C,mfborder.png,1,z,Tue Mar 31 2026 08:37:36 GMT-0500 (Central Daylight Time),483141.1000000015,CFD-WF-003-014-A.jpg,1500,dash,I,z,533,3,2,43552.60000000149,439588.5,8087,ATS,A,19
17,test,3,C,mfborder.png,1,m,Tue Mar 31 2026 08:37:36 GMT-0500 (Central Daylight Time),485240.0,CFD-BM-029-026-HC.jpg,1200,dash,I,m,870,6,2,45651.5,439588.5,8087,ATS,A,20
18,test,3,C,mfborder.png,1,m,Tue Mar 31 2026 08:37:36 GMT-0500 (Central Daylight Time),487972.30000000075,CFD-WM-019-013-A.jpg,2000,dash,I,m,716,5,2,48383.800000000745,439588.5,8087,ATS,A,21
19,test,3,C,haborder.png,1,m,Tue Mar 31 2026 08:37:36 GMT-0500 (Central Daylight Time),490339.19999999925,CFD-BF-028-020-HC.jpg,1600,solid,I,m,742,10,2,50750.699999999255,439588.5,8087,ATS,A,22
20,test,3,C,mfborder.png,1,m,Tue Mar 31 2026 08:37:36 GMT-0500 (Central Daylight Time),492304.6000000015,CFD-BM-029-026-HC.jpg,1200,dash,I,m,736,6,2,52716.10000000149,439588.5,8087,ATS,A,23
21,test,3,C,haborder.png,1,m,Tue Mar 31 2026 08:37:36 GMT-0500 (Central Daylight Time),494454.69999999925,CFD-WF-002-008-HC.jpg,1500,solid,I,m,632,11,2,54866.199999999255,439588.5,8087,ATS,A,24
1,test,4,C,mfborder.png,1,z,Tue Mar 31 2026 08:37:36 GMT-0500 (Central Daylight Time),497770.19999999925,CFD-BF-028-020-HC.jpg,1500,dash,I,z,852,3,2,2382.7999999970198,495387.40000000224,8087,ATS,A,1
2,test,4,C,mfborder.png,1,z,Tue Mar 31 2026 08:37:36 GMT-0500 (Central Daylight Time),499836.6000000015,CFD-BF-028-020-HC.jpg,1500,dash,I,z,533,3,2,4449.199999999255,495387.40000000224,8087,ATS,A,2
3,test,4,C,haborder.png,1,m,Tue Mar 31 2026 08:37:36 GMT-0500 (Central Daylight Time),502035.30000000075,CFD-WM-004-005-HC.jpg,1000,solid,I,m,1169,12,2,6647.89999999851,495387.40000000224,8087,ATS,A,3
4,test,4,C,mfborder.png,1,z,Tue Mar 31 2026 08:37:36 GMT-0500 (Central Daylight Time),504418.19999999925,CFD-WF-019-015-A.jpg,1600,dash,I,z,753,2,2,9030.79999999702,495387.40000000224,8087,ATS,A,4
5,test,4,C,haborder.png,1,z,Tue Mar 31 2026 08:37:36 GMT-0500 (Central Daylight Time),506999.90000000224,CFD-WF-003-014-A.jpg,1700,solid,I,z,855,9,2,11612.5,495387.40000000224,8087,ATS,A,5
6,test,4,C,haborder.png,1,z,Tue Mar 31 2026 08:37:36 GMT-0500 (Central Daylight Time),509014.69999999925,CFD-BF-023-013-A.jpg,1400,solid,I,z,594,7,2,13627.29999999702,495387.40000000224,8087,ATS,A,6
7,test,4,C,mfborder.png,1,z,Tue Mar 31 2026 08:37:36 GMT-0500 (Central Daylight Time),511215.69999999925,CFD-WF-019-015-A.jpg,1600,dash,I,z,567,2,2,15828.29999999702,495387.40000000224,8087,ATS,A,7
8,test,4,C,haborder.png,1,z,Tue Mar 31 2026 08:37:36 GMT-0500 (Central Daylight Time),513648.19999999925,CFD-WF-003-014-A.jpg,1700,solid,I,z,711,9,2,18260.79999999702,495387.40000000224,8087,ATS,A,8
9,test,4,C,mfborder.png,1,m,Tue Mar 31 2026 08:37:36 GMT-0500 (Central Daylight Time),516398.69999999925,CFD-BM-005-010-A.jpg,2000,dash,I,m,733,5,2,21011.29999999702,495387.40000000224,8087,ATS,A,9
10,test,4,C,mfborder.png,1,m,Tue Mar 31 2026 08:37:36 GMT-0500 (Central Daylight Time),518013.30000000075,CFD-BM-017-052-HC.jpg,1000,dash,I,m,591,4,2,22625.89999999851,495387.40000000224,8087,ATS,A,10
11,test,4,C,haborder.png,1,m,Tue Mar 31 2026 08:37:36 GMT-0500 (Central Daylight Time),520328.90000000224,CFD-BM-029-026-HC.jpg,1600,solid,I,m,693,10,2,24941.5,495387.40000000224,8087,ATS,A,11
12,test,4,C,mfborder.png,1,m,Tue Mar 31 2026 08:37:36 GMT-0500 (Central Daylight Time),522312.30000000075,CFD-WM-013-015-A.jpg,1200,dash,I,m,749,6,2,26924.89999999851,495387.40000000224,8087,ATS,A,12
13,test,4,C,haborder.png,1,z,Tue Mar 31 2026 08:37:36 GMT-0500 (Central Daylight Time),525045.5,CFD-BF-039-039-A.jpg,1900,solid,I,z,808,8,2,29658.099999997765,495387.40000000224,8087,ATS,A,13
14,test,4,C,haborder.png,1,m,Tue Mar 31 2026 08:37:36 GMT-0500 (Central Daylight Time),527093.0,CFD-WM-004-005-HC.jpg,1500,solid,I,m,531,11,2,31705.599999997765,495387.40000000224,8087,ATS,A,14
15,test,4,C,haborder.png,1,m,Tue Mar 31 2026 08:37:36 GMT-0500 (Central Daylight Time),529443.1000000015,CFD-BM-029-026-HC.jpg,1600,solid,I,m,717,10,2,34055.699999999255,495387.40000000224,8087,ATS,A,15
16,test,4,C,mfborder.png,1,m,Tue Mar 31 2026 08:37:36 GMT-0500 (Central Daylight Time),532276.3000000007,CFD-BM-005-010-A.jpg,2000,dash,I,m,800,5,2,36888.89999999851,495387.40000000224,8087,ATS,A,16
17,test,4,C,mfborder.png,1,z,Tue Mar 31 2026 08:37:36 GMT-0500 (Central Daylight Time),534608.0,CFD-WF-017-016-HC.jpg,1700,dash,I,z,604,1,2,39220.599999997765,495387.40000000224,8087,ATS,A,17
18,test,4,C,haborder.png,1,m,Tue Mar 31 2026 08:37:36 GMT-0500 (Central Daylight Time),536224.0,CFD-WM-004-005-HC.jpg,1000,solid,I,m,597,12,2,40836.599999997765,495387.40000000224,8087,ATS,A,18
19,test,4,C,mfborder.png,1,m,Tue Mar 31 2026 08:37:36 GMT-0500 (Central Daylight Time),538240.9000000022,CFD-WM-013-015-A.jpg,1200,dash,I,m,794,6,2,42853.5,495387.40000000224,8087,ATS,A,19
20,test,4,C,mfborder.png,1,z,Tue Mar 31 2026 08:37:36 GMT-0500 (Central Daylight Time),540622.9000000022,CFD-WF-017-016-HC.jpg,1700,dash,I,z,656,1,2,45235.5,495387.40000000224,8087,ATS,A,20
21,test,4,C,haborder.png,1,z,Tue Mar 31 2026 08:37:36 GMT-0500 (Central Daylight Time),543189.8000000007,CFD-BF-039-039-A.jpg,1900,solid,I,z,651,8,2,47802.39999999851,495387.40000000224,8087,ATS,A,21
22,test,4,C,haborder.png,1,m,Tue Mar 31 2026 08:37:36 GMT-0500 (Central Daylight Time),545254.9000000022,CFD-WM-004-005-HC.jpg,1500,solid,I,m,549,11,2,49867.5,495387.40000000224,8087,ATS,A,22
23,test,4,C,haborder.png,1,z,Tue Mar 31 2026 08:37:36 GMT-0500 (Central Daylight Time),547287.4000000022,CFD-BF-023-013-A.jpg,1400,solid,I,z,613,7,2,51900.0,495387.40000000224,8087,ATS,A,23
24,test,4,C,mfborder.png,1,m,Tue Mar 31 2026 08:37:36 GMT-0500 (Central Daylight Time),548952.5,CFD-BM-017-052-HC.jpg,1000,dash,I,m,645,4,2,53565.099999997765,495387.40000000224,8087,ATS,A,24
