acc_sum,block,block_c,block_cond,con_img,correct,correct_response,datetime,endtime,face,jitter,line,project,response,response_time,row_sel,session_number,start_end,starttime,subject_id,task,task_vers,trial
1,prac,1,A,haborder.png,1,z,Thu Oct 02 2025 15:21:50 GMT-0400 (Eastern Daylight Time),82109.0,CFD-BM-005-010-A.jpg,1600,solid,I,z,1090,2,1,3500.100000023842,78608.89999997616,9031,ATS,A,1
2,prac,1,A,haborder.png,1,m,Thu Oct 02 2025 15:21:50 GMT-0400 (Eastern Daylight Time),85259.0,CFD-WF-017-016-HC.jpg,1500,solid,I,m,842,11,1,6650.100000023842,78608.89999997616,9031,ATS,A,2
3,prac,1,A,haborder.png,1,m,Thu Oct 02 2025 15:21:50 GMT-0400 (Eastern Daylight Time),89192.19999992847,CFD-BF-028-020-HC.jpg,2000,solid,I,m,1128,5,1,10583.299999952316,78608.89999997616,9031,ATS,A,3
4,prac,1,A,haborder.png,1,z,Thu Oct 02 2025 15:21:50 GMT-0400 (Eastern Daylight Time),91975.59999990463,CFD-BF-039-039-A.jpg,1200,solid,I,z,780,6,1,13366.699999928474,78608.89999997616,9031,ATS,A,4
5,prac,1,A,haborder.png,1,m,Thu Oct 02 2025 15:21:50 GMT-0400 (Eastern Daylight Time),95242.29999995232,CFD-BM-029-026-HC.jpg,1500,solid,I,m,959,3,1,16633.399999976158,78608.89999997616,9031,ATS,A,5
6,prac,1,A,haborder.png,1,z,Thu Oct 02 2025 15:21:50 GMT-0400 (Eastern Daylight Time),97842.19999992847,CFD-BF-023-013-A.jpg,1000,solid,I,z,785,4,1,19233.299999952316,78608.89999997616,9031,ATS,A,6
7,prac,1,A,haborder.png,1,m,Thu Oct 02 2025 15:21:50 GMT-0400 (Eastern Daylight Time),100808.89999997616,CFD-WM-004-005-HC.jpg,1400,solid,I,m,760,7,1,22200.0,78608.89999997616,9031,ATS,A,7
8,prac,1,A,haborder.png,1,m,Thu Oct 02 2025 15:21:50 GMT-0400 (Eastern Daylight Time),104258.79999995232,CFD-BM-017-052-HC.jpg,1700,solid,I,m,934,1,1,25649.899999976158,78608.89999997616,9031,ATS,A,8
9,prac,1,A,haborder.png,1,m,Thu Oct 02 2025 15:21:50 GMT-0400 (Eastern Daylight Time),107458.89999997616,CFD-WM-006-013-HC.jpg,1700,solid,I,m,683,9,1,28850.0,78608.89999997616,9031,ATS,A,9
10,prac,1,A,haborder.png,1,z,Thu Oct 02 2025 15:21:50 GMT-0400 (Eastern Daylight Time),110108.39999997616,CFD-WF-019-015-A.jpg,1000,solid,I,z,840,12,1,31499.5,78608.89999997616,9031,ATS,A,10
11,prac,1,A,haborder.png,1,z,Thu Oct 02 2025 15:21:50 GMT-0400 (Eastern Daylight Time),113759.0,CFD-WM-013-015-A.jpg,1900,solid,I,z,955,8,1,35150.10000002384,78608.89999997616,9031,ATS,A,11
12,prac,1,A,haborder.png,1,z,Thu Oct 02 2025 15:21:50 GMT-0400 (Eastern Daylight Time),116908.89999997616,CFD-WF-003-014-A.jpg,1600,solid,I,z,740,10,1,38300.0,78608.89999997616,9031,ATS,A,12
1,prac,1,B,mfborder.png,1,m,Thu Oct 02 2025 15:21:50 GMT-0400 (Eastern Daylight Time),169825.19999992847,CFD-WM-013-015-A.jpg,1700,dash,I,m,1452,9,1,3966.1999999284744,165859.0,9031,ATS,A,1
2,prac,1,B,mfborder.png,1,m,Thu Oct 02 2025 15:21:50 GMT-0400 (Eastern Daylight Time),173158.89999997616,CFD-BM-029-026-HC.jpg,1700,dash,I,m,829,1,1,7299.899999976158,165859.0,9031,ATS,A,2
3,prac,1,B,mfborder.png,1,z,Thu Oct 02 2025 15:21:50 GMT-0400 (Eastern Daylight Time),176342.19999992847,CFD-WF-003-014-A.jpg,1500,dash,I,z,880,11,1,10483.199999928474,165859.0,9031,ATS,A,3
4,prac,1,B,mfborder.png,1,m,Thu Oct 02 2025 15:21:50 GMT-0400 (Eastern Daylight Time),179808.89999997616,CFD-WM-006-013-HC.jpg,1600,dash,I,m,1052,10,1,13949.899999976158,165859.0,9031,ATS,A,4
4,prac,1,B,mfborder.png,0,m,Thu Oct 02 2025 15:21:50 GMT-0400 (Eastern Daylight Time),183725.5,CFD-BM-010-019-A.jpg,1600,dash,I,None,1514,2,1,17866.5,165859.0,9031,ATS,A,5
5,prac,1,B,mfborder.png,1,z,Thu Oct 02 2025 15:21:50 GMT-0400 (Eastern Daylight Time),186842.29999995232,CFD-BF-023-013-A.jpg,1000,dash,I,z,1308,4,1,20983.299999952316,165859.0,9031,ATS,A,6
6,prac,1,B,mfborder.png,1,z,Thu Oct 02 2025 15:21:50 GMT-0400 (Eastern Daylight Time),190375.59999990463,CFD-WF-002-008-HC.jpg,1900,dash,I,z,830,8,1,24516.599999904633,165859.0,9031,ATS,A,7
7,prac,1,B,mfborder.png,1,m,Thu Oct 02 2025 15:21:50 GMT-0400 (Eastern Daylight Time),193592.29999995232,CFD-WM-019-013-A.jpg,1200,dash,I,m,1211,6,1,27733.299999952316,165859.0,9031,ATS,A,8
8,prac,1,B,mfborder.png,1,z,Thu Oct 02 2025 15:21:50 GMT-0400 (Eastern Daylight Time),196825.29999995232,CFD-BF-010-005-HC.jpg,1500,dash,I,z,926,3,1,30966.299999952316,165859.0,9031,ATS,A,9
9,prac,1,B,mfborder.png,1,z,Thu Oct 02 2025 15:21:50 GMT-0400 (Eastern Daylight Time),199442.19999992847,CFD-WF-017-016-HC.jpg,1000,dash,I,z,801,12,1,33583.199999928474,165859.0,9031,ATS,A,10
10,prac,1,B,mfborder.png,1,z,Thu Oct 02 2025 15:21:50 GMT-0400 (Eastern Daylight Time),202425.59999990463,CFD-BF-028-020-HC.jpg,1400,dash,I,z,777,7,1,36566.59999990463,165859.0,9031,ATS,A,11
11,prac,1,B,mfborder.png,1,m,Thu Oct 02 2025 15:21:50 GMT-0400 (Eastern Daylight Time),206208.5,CFD-BM-005-010-A.jpg,2000,dash,I,m,969,5,1,40349.5,165859.0,9031,ATS,A,12
0,test,1,A,haborder.png,0,z,Thu Oct 02 2025 15:21:50 GMT-0400 (Eastern Daylight Time),235942.5,CFD-BM-005-010-A.jpg,1600,solid,I,None,1516,2,1,3133.5,232809.0,9031,ATS,A,1
1,test,1,A,haborder.png,1,z,Thu Oct 02 2025 15:21:50 GMT-0400 (Eastern Daylight Time),239041.79999995232,CFD-WM-013-015-A.jpg,1900,solid,I,z,1169,8,1,6232.799999952316,232809.0,9031,ATS,A,2
2,test,1,A,haborder.png,1,m,Thu Oct 02 2025 15:21:50 GMT-0400 (Eastern Daylight Time),241575.39999997616,CFD-BM-017-052-HC.jpg,1700,solid,I,m,814,1,1,8766.399999976158,232809.0,9031,ATS,A,3
3,test,1,A,haborder.png,1,z,Thu Oct 02 2025 15:21:50 GMT-0400 (Eastern Daylight Time),243892.29999995232,CFD-BF-039-039-A.jpg,1200,solid,I,z,1067,6,1,11083.299999952316,232809.0,9031,ATS,A,4
4,test,1,A,haborder.png,1,m,Thu Oct 02 2025 15:21:50 GMT-0400 (Eastern Daylight Time),246208.89999997616,CFD-WM-006-013-HC.jpg,1700,solid,I,m,587,9,1,13399.899999976158,232809.0,9031,ATS,A,5
5,test,1,A,haborder.png,1,m,Thu Oct 02 2025 15:21:50 GMT-0400 (Eastern Daylight Time),249058.79999995232,CFD-BF-028-020-HC.jpg,2000,solid,I,m,819,5,1,16249.799999952316,232809.0,9031,ATS,A,6
6,test,1,A,haborder.png,1,z,Thu Oct 02 2025 15:21:50 GMT-0400 (Eastern Daylight Time),251458.79999995232,CFD-WF-003-014-A.jpg,1600,solid,I,z,753,10,1,18649.799999952316,232809.0,9031,ATS,A,7
6,test,1,A,haborder.png,0,z,Thu Oct 02 2025 15:21:50 GMT-0400 (Eastern Daylight Time),254892.29999995232,CFD-WM-013-015-A.jpg,1900,solid,I,None,1516,8,1,22083.299999952316,232809.0,9031,ATS,A,8
7,test,1,A,haborder.png,1,m,Thu Oct 02 2025 15:21:50 GMT-0400 (Eastern Daylight Time),257258.79999995232,CFD-WF-017-016-HC.jpg,1500,solid,I,m,843,11,1,24449.799999952316,232809.0,9031,ATS,A,9
8,test,1,A,haborder.png,1,m,Thu Oct 02 2025 15:21:50 GMT-0400 (Eastern Daylight Time),259808.39999997616,CFD-BM-017-052-HC.jpg,1700,solid,I,m,820,1,1,26999.399999976158,232809.0,9031,ATS,A,10
9,test,1,A,haborder.png,1,m,Thu Oct 02 2025 15:21:50 GMT-0400 (Eastern Daylight Time),262725.89999997616,CFD-BF-028-020-HC.jpg,2000,solid,I,m,900,5,1,29916.899999976158,232809.0,9031,ATS,A,11
10,test,1,A,haborder.png,1,z,Thu Oct 02 2025 15:21:50 GMT-0400 (Eastern Daylight Time),264508.7999999523,CFD-WF-019-015-A.jpg,1000,solid,I,z,758,12,1,31699.799999952316,232809.0,9031,ATS,A,12
11,test,1,A,haborder.png,1,z,Thu Oct 02 2025 15:21:50 GMT-0400 (Eastern Daylight Time),266542.2999999523,CFD-BF-023-013-A.jpg,1000,solid,I,z,991,4,1,33733.299999952316,232809.0,9031,ATS,A,13
12,test,1,A,haborder.png,1,m,Thu Oct 02 2025 15:21:50 GMT-0400 (Eastern Daylight Time),268808.89999997616,CFD-WF-017-016-HC.jpg,1500,solid,I,m,745,11,1,35999.89999997616,232809.0,9031,ATS,A,14
13,test,1,A,haborder.png,1,m,Thu Oct 02 2025 15:21:50 GMT-0400 (Eastern Daylight Time),270958.89999997616,CFD-WM-004-005-HC.jpg,1400,solid,I,m,722,7,1,38149.89999997616,232809.0,9031,ATS,A,15
14,test,1,A,haborder.png,1,m,Thu Oct 02 2025 15:21:50 GMT-0400 (Eastern Daylight Time),273158.6999999285,CFD-BM-029-026-HC.jpg,1500,solid,I,m,663,3,1,40349.699999928474,232809.0,9031,ATS,A,16
15,test,1,A,haborder.png,1,z,Thu Oct 02 2025 15:21:50 GMT-0400 (Eastern Daylight Time),275475.59999990463,CFD-WF-003-014-A.jpg,1600,solid,I,z,684,10,1,42666.59999990463,232809.0,9031,ATS,A,17
16,test,1,A,haborder.png,1,m,Thu Oct 02 2025 15:21:50 GMT-0400 (Eastern Daylight Time),277742.09999990463,CFD-BM-029-026-HC.jpg,1500,solid,I,m,742,3,1,44933.09999990463,232809.0,9031,ATS,A,18
17,test,1,A,haborder.png,1,z,Thu Oct 02 2025 15:21:50 GMT-0400 (Eastern Daylight Time),279392.09999990463,CFD-BF-023-013-A.jpg,1000,solid,I,z,622,4,1,46583.09999990463,232809.0,9031,ATS,A,19
17,test,1,A,haborder.png,0,z,Thu Oct 02 2025 15:21:50 GMT-0400 (Eastern Daylight Time),281925.59999990463,CFD-WF-019-015-A.jpg,1000,solid,I,None,1515,12,1,49116.59999990463,232809.0,9031,ATS,A,20
18,test,1,A,haborder.png,1,m,Thu Oct 02 2025 15:21:50 GMT-0400 (Eastern Daylight Time),284325.39999997616,CFD-WM-004-005-HC.jpg,1400,solid,I,m,967,7,1,51516.39999997616,232809.0,9031,ATS,A,21
19,test,1,A,haborder.png,1,z,Thu Oct 02 2025 15:21:50 GMT-0400 (Eastern Daylight Time),287008.89999997616,CFD-BM-005-010-A.jpg,1600,solid,I,z,1054,2,1,54199.89999997616,232809.0,9031,ATS,A,22
20,test,1,A,haborder.png,1,m,Thu Oct 02 2025 15:21:50 GMT-0400 (Eastern Daylight Time),289392.09999990463,CFD-WM-006-013-HC.jpg,1700,solid,I,m,655,9,1,56583.09999990463,232809.0,9031,ATS,A,23
21,test,1,A,haborder.png,1,z,Thu Oct 02 2025 15:21:50 GMT-0400 (Eastern Daylight Time),291258.6999999285,CFD-BF-039-039-A.jpg,1200,solid,I,z,643,6,1,58449.699999928474,232809.0,9031,ATS,A,24
1,test,1,B,mfborder.png,1,z,Thu Oct 02 2025 15:21:50 GMT-0400 (Eastern Daylight Time),317942.0,CFD-BF-028-020-HC.jpg,1400,dash,I,z,848,7,1,2266.4000000953674,315675.59999990463,9031,ATS,A,1
2,test,1,B,mfborder.png,1,m,Thu Oct 02 2025 15:21:50 GMT-0400 (Eastern Daylight Time),320575.59999990463,CFD-BM-005-010-A.jpg,2000,dash,I,m,605,5,1,4900.0,315675.59999990463,9031,ATS,A,2
3,test,1,B,mfborder.png,1,z,Thu Oct 02 2025 15:21:50 GMT-0400 (Eastern Daylight Time),322725.39999997616,CFD-BF-010-005-HC.jpg,1500,dash,I,z,599,3,1,7049.800000071526,315675.59999990463,9031,ATS,A,3
4,test,1,B,mfborder.png,1,z,Thu Oct 02 2025 15:21:50 GMT-0400 (Eastern Daylight Time),324858.89999997616,CFD-WF-003-014-A.jpg,1500,dash,I,z,610,11,1,9183.300000071526,315675.59999990463,9031,ATS,A,4
5,test,1,B,mfborder.png,1,z,Thu Oct 02 2025 15:21:50 GMT-0400 (Eastern Daylight Time),327675.09999990463,CFD-WF-002-008-HC.jpg,1900,dash,I,z,893,8,1,11999.5,315675.59999990463,9031,ATS,A,5
6,test,1,B,mfborder.png,1,m,Thu Oct 02 2025 15:21:50 GMT-0400 (Eastern Daylight Time),329925.7999999523,CFD-WM-006-013-HC.jpg,1600,dash,I,m,632,10,1,14250.200000047684,315675.59999990463,9031,ATS,A,6
7,test,1,B,mfborder.png,1,m,Thu Oct 02 2025 15:21:50 GMT-0400 (Eastern Daylight Time),332292.09999990463,CFD-BM-029-026-HC.jpg,1700,dash,I,m,635,1,1,16616.5,315675.59999990463,9031,ATS,A,7
8,test,1,B,mfborder.png,1,m,Thu Oct 02 2025 15:21:50 GMT-0400 (Eastern Daylight Time),335092.2999999523,CFD-BM-005-010-A.jpg,2000,dash,I,m,751,5,1,19416.700000047684,315675.59999990463,9031,ATS,A,8
9,test,1,B,mfborder.png,1,m,Thu Oct 02 2025 15:21:50 GMT-0400 (Eastern Daylight Time),337475.5,CFD-BM-029-026-HC.jpg,1700,dash,I,m,634,1,1,21799.900000095367,315675.59999990463,9031,ATS,A,9
10,test,1,B,mfborder.png,1,z,Thu Oct 02 2025 15:21:50 GMT-0400 (Eastern Daylight Time),339108.7999999523,CFD-WF-017-016-HC.jpg,1000,dash,I,z,600,12,1,23433.200000047684,315675.59999990463,9031,ATS,A,10
11,test,1,B,mfborder.png,1,z,Thu Oct 02 2025 15:21:50 GMT-0400 (Eastern Daylight Time),341375.59999990463,CFD-BF-010-005-HC.jpg,1500,dash,I,z,723,3,1,25700.0,315675.59999990463,9031,ATS,A,11
12,test,1,B,mfborder.png,1,m,Thu Oct 02 2025 15:21:50 GMT-0400 (Eastern Daylight Time),343575.5,CFD-BM-010-019-A.jpg,1600,dash,I,m,580,2,1,27899.900000095367,315675.59999990463,9031,ATS,A,12
13,test,1,B,mfborder.png,1,z,Thu Oct 02 2025 15:21:50 GMT-0400 (Eastern Daylight Time),345292.1999999285,CFD-WF-017-016-HC.jpg,1000,dash,I,z,675,12,1,29616.600000023842,315675.59999990463,9031,ATS,A,13
14,test,1,B,mfborder.png,1,m,Thu Oct 02 2025 15:21:50 GMT-0400 (Eastern Daylight Time),347408.89999997616,CFD-WM-006-013-HC.jpg,1600,dash,I,m,487,10,1,31733.300000071526,315675.59999990463,9031,ATS,A,14
15,test,1,B,mfborder.png,1,m,Thu Oct 02 2025 15:21:50 GMT-0400 (Eastern Daylight Time),349741.7999999523,CFD-BM-010-019-A.jpg,1600,dash,I,m,690,2,1,34066.200000047684,315675.59999990463,9031,ATS,A,15
16,test,1,B,mfborder.png,1,z,Thu Oct 02 2025 15:21:50 GMT-0400 (Eastern Daylight Time),351458.89999997616,CFD-BF-023-013-A.jpg,1000,dash,I,z,686,4,1,35783.300000071526,315675.59999990463,9031,ATS,A,16
17,test,1,B,mfborder.png,1,z,Thu Oct 02 2025 15:21:50 GMT-0400 (Eastern Daylight Time),353625.59999990463,CFD-BF-028-020-HC.jpg,1400,dash,I,z,726,7,1,37950.0,315675.59999990463,9031,ATS,A,17
18,test,1,B,mfborder.png,1,m,Thu Oct 02 2025 15:21:50 GMT-0400 (Eastern Daylight Time),355558.6999999285,CFD-WM-019-013-A.jpg,1200,dash,I,m,697,6,1,39883.10000002384,315675.59999990463,9031,ATS,A,18
19,test,1,B,mfborder.png,1,m,Thu Oct 02 2025 15:21:50 GMT-0400 (Eastern Daylight Time),357425.5,CFD-WM-019-013-A.jpg,1200,dash,I,m,636,6,1,41749.90000009537,315675.59999990463,9031,ATS,A,19
20,test,1,B,mfborder.png,1,m,Thu Oct 02 2025 15:21:50 GMT-0400 (Eastern Daylight Time),359675.59999990463,CFD-WM-013-015-A.jpg,1700,dash,I,m,526,9,1,44000.0,315675.59999990463,9031,ATS,A,20
21,test,1,B,mfborder.png,1,m,Thu Oct 02 2025 15:21:50 GMT-0400 (Eastern Daylight Time),361942.1999999285,CFD-WM-013-015-A.jpg,1700,dash,I,m,532,9,1,46266.60000002384,315675.59999990463,9031,ATS,A,21
22,test,1,B,mfborder.png,1,z,Thu Oct 02 2025 15:21:50 GMT-0400 (Eastern Daylight Time),364175.5,CFD-WF-003-014-A.jpg,1500,dash,I,z,705,11,1,48499.90000009537,315675.59999990463,9031,ATS,A,22
23,test,1,B,mfborder.png,1,z,Thu Oct 02 2025 15:21:50 GMT-0400 (Eastern Daylight Time),366875.5,CFD-WF-002-008-HC.jpg,1900,dash,I,z,776,8,1,51199.90000009537,315675.59999990463,9031,ATS,A,23
24,test,1,B,mfborder.png,1,z,Thu Oct 02 2025 15:21:50 GMT-0400 (Eastern Daylight Time),368508.89999997616,CFD-BF-023-013-A.jpg,1000,dash,I,z,591,4,1,52833.300000071526,315675.59999990463,9031,ATS,A,24
0,prac,1,C,haborder.png,0,m,Thu Oct 02 2025 15:21:50 GMT-0400 (Eastern Daylight Time),432325.59999990463,CFD-WM-004-005-HC.jpg,1000,dash,I,None,1516,11,1,3316.6999999284744,429008.89999997616,9031,ATS,A,1
0,prac,1,C,mfborder.png,0,m,Thu Oct 02 2025 15:21:50 GMT-0400 (Eastern Daylight Time),435842.1999999285,CFD-BM-005-010-A.jpg,1200,dash,I,None,1516,5,1,6833.299999952316,429008.89999997616,9031,ATS,A,2
1,prac,1,C,haborder.png,1,m,Thu Oct 02 2025 15:21:50 GMT-0400 (Eastern Daylight Time),439325.6999999285,CFD-BM-029-026-HC.jpg,1500,solid,I,m,1190,10,1,10316.799999952316,429008.89999997616,9031,ATS,A,3
2,prac,1,C,mfborder.png,1,m,Thu Oct 02 2025 15:21:50 GMT-0400 (Eastern Daylight Time),443092.39999997616,CFD-BM-017-052-HC.jpg,2000,solid,I,m,951,4,1,14083.5,429008.89999997616,9031,ATS,A,4
3,prac,1,C,haborder.png,1,z,Thu Oct 02 2025 15:21:50 GMT-0400 (Eastern Daylight Time),446642.39999997616,CFD-BF-039-039-A.jpg,1700,solid,I,z,1036,8,1,17633.5,429008.89999997616,9031,ATS,A,5
4,prac,1,C,mfborder.png,1,m,Thu Oct 02 2025 15:21:50 GMT-0400 (Eastern Daylight Time),450359.0,CFD-WM-013-015-A.jpg,1700,solid,I,m,1230,6,1,21350.100000023842,429008.89999997616,9031,ATS,A,6
4,prac,1,C,haborder.png,0,z,Thu Oct 02 2025 15:21:50 GMT-0400 (Eastern Daylight Time),454275.59999990463,CFD-WF-003-014-A.jpg,1600,dash,I,None,1516,9,1,25266.699999928474,429008.89999997616,9031,ATS,A,7
5,prac,1,C,mfborder.png,1,z,Thu Oct 02 2025 15:21:50 GMT-0400 (Eastern Daylight Time),457842.39999997616,CFD-WF-017-016-HC.jpg,1600,dash,I,z,1152,1,1,28833.5,429008.89999997616,9031,ATS,A,8
6,prac,1,C,haborder.png,1,m,Thu Oct 02 2025 15:21:50 GMT-0400 (Eastern Daylight Time),461192.2999999523,CFD-WM-004-005-HC.jpg,1400,solid,I,m,1145,12,1,32183.399999976158,429008.89999997616,9031,ATS,A,9
6,prac,1,C,mfborder.png,0,z,Thu Oct 02 2025 15:21:50 GMT-0400 (Eastern Daylight Time),464508.89999997616,CFD-BF-028-020-HC.jpg,1000,dash,I,None,1516,3,1,35500.0,429008.89999997616,9031,ATS,A,10
6,prac,1,C,mfborder.png,0,z,Thu Oct 02 2025 15:21:50 GMT-0400 (Eastern Daylight Time),466858.89999997616,CFD-WF-019-015-A.jpg,1500,solid,I,m,43,2,1,37850.0,429008.89999997616,9031,ATS,A,11
7,prac,1,C,haborder.png,1,z,Thu Oct 02 2025 15:21:50 GMT-0400 (Eastern Daylight Time),470875.6999999285,CFD-BF-023-013-A.jpg,1900,dash,I,z,1308,7,1,41866.799999952316,429008.89999997616,9031,ATS,A,12
0,prac,2,C,mfborder.png,0,m,Thu Oct 02 2025 15:21:50 GMT-0400 (Eastern Daylight Time),484858.89999997616,CFD-BM-005-010-A.jpg,1200,dash,I,None,1516,5,1,55850.0,429008.89999997616,9031,ATS,A,1
0,prac,2,C,haborder.png,0,z,Thu Oct 02 2025 15:21:50 GMT-0400 (Eastern Daylight Time),488775.5,CFD-WF-003-014-A.jpg,1600,dash,I,None,1516,9,1,59766.60000002384,429008.89999997616,9031,ATS,A,2
1,prac,2,C,haborder.png,1,m,Thu Oct 02 2025 15:21:50 GMT-0400 (Eastern Daylight Time),492409.09999990463,CFD-WM-004-005-HC.jpg,1400,solid,I,m,1429,12,1,63400.199999928474,429008.89999997616,9031,ATS,A,3
2,prac,2,C,mfborder.png,1,m,Thu Oct 02 2025 15:21:50 GMT-0400 (Eastern Daylight Time),496125.7999999523,CFD-WM-013-015-A.jpg,1700,solid,I,m,1206,6,1,67116.89999997616,429008.89999997616,9031,ATS,A,4
2,prac,2,C,haborder.png,0,m,Thu Oct 02 2025 15:21:50 GMT-0400 (Eastern Daylight Time),499442.89999997616,CFD-WM-004-005-HC.jpg,1000,dash,I,None,1517,11,1,70434.0,429008.89999997616,9031,ATS,A,5
2,prac,2,C,mfborder.png,0,z,Thu Oct 02 2025 15:21:50 GMT-0400 (Eastern Daylight Time),503358.7999999523,CFD-WF-017-016-HC.jpg,1600,dash,I,None,1516,1,1,74349.89999997616,429008.89999997616,9031,ATS,A,6
3,prac,2,C,mfborder.png,1,z,Thu Oct 02 2025 15:21:50 GMT-0400 (Eastern Daylight Time),506992.39999997616,CFD-WF-019-015-A.jpg,1500,solid,I,z,1321,2,1,77983.5,429008.89999997616,9031,ATS,A,7
3,prac,2,C,haborder.png,0,z,Thu Oct 02 2025 15:21:50 GMT-0400 (Eastern Daylight Time),511008.7999999523,CFD-BF-039-039-A.jpg,1700,solid,I,None,1516,8,1,81999.89999997616,429008.89999997616,9031,ATS,A,8
4,prac,2,C,haborder.png,1,z,Thu Oct 02 2025 15:21:50 GMT-0400 (Eastern Daylight Time),514675.6999999285,CFD-BF-023-013-A.jpg,1900,dash,I,z,950,7,1,85666.79999995232,429008.89999997616,9031,ATS,A,9
5,prac,2,C,haborder.png,1,m,Thu Oct 02 2025 15:21:50 GMT-0400 (Eastern Daylight Time),518092.39999997616,CFD-BM-029-026-HC.jpg,1500,solid,I,m,1108,10,1,89083.5,429008.89999997616,9031,ATS,A,10
5,prac,2,C,mfborder.png,0,m,Thu Oct 02 2025 15:21:50 GMT-0400 (Eastern Daylight Time),522408.89999997616,CFD-BM-017-052-HC.jpg,2000,solid,I,None,1516,4,1,93400.0,429008.89999997616,9031,ATS,A,11
5,prac,2,C,mfborder.png,0,z,Thu Oct 02 2025 15:21:50 GMT-0400 (Eastern Daylight Time),525725.2999999523,CFD-BF-028-020-HC.jpg,1000,dash,I,None,1516,3,1,96716.39999997616,429008.89999997616,9031,ATS,A,12
1,test,1,C,mfborder.png,1,m,Thu Oct 02 2025 15:21:50 GMT-0400 (Eastern Daylight Time),562509.0999999046,CFD-WM-006-013-HC.jpg,1000,dash,I,m,1158,4,1,2183.6999999284744,560325.3999999762,9031,ATS,A,1
1,test,1,C,haborder.png,0,z,Thu Oct 02 2025 15:21:50 GMT-0400 (Eastern Daylight Time),565742.3999999762,CFD-BM-010-019-A.jpg,1700,solid,I,None,1516,9,1,5417.0,560325.3999999762,9031,ATS,A,2
1,test,1,C,haborder.png,0,z,Thu Oct 02 2025 15:21:50 GMT-0400 (Eastern Daylight Time),568675.5999999046,CFD-WM-013-015-A.jpg,1400,solid,I,None,1515,7,1,8350.199999928474,560325.3999999762,9031,ATS,A,3
1,test,1,C,haborder.png,0,m,Thu Oct 02 2025 15:21:50 GMT-0400 (Eastern Daylight Time),571209.0,CFD-WF-017-016-HC.jpg,1000,solid,I,None,1517,12,1,10883.600000023842,560325.3999999762,9031,ATS,A,4
1,test,1,C,haborder.png,0,m,Thu Oct 02 2025 15:21:50 GMT-0400 (Eastern Daylight Time),574242.1999999285,CFD-WF-002-008-HC.jpg,1500,solid,I,None,1516,11,1,13916.799999952316,560325.3999999762,9031,ATS,A,5
1,test,1,C,mfborder.png,0,z,Thu Oct 02 2025 15:21:50 GMT-0400 (Eastern Daylight Time),577492.1999999285,CFD-BF-010-005-HC.jpg,1700,dash,I,None,1516,1,1,17166.799999952316,560325.3999999762,9031,ATS,A,6
1,test,1,C,haborder.png,0,z,Thu Oct 02 2025 15:21:50 GMT-0400 (Eastern Daylight Time),580725.5,CFD-BM-010-019-A.jpg,1700,solid,I,None,1516,9,1,20400.100000023842,560325.3999999762,9031,ATS,A,7
1,test,1,C,haborder.png,0,m,Thu Oct 02 2025 15:21:50 GMT-0400 (Eastern Daylight Time),583858.8999999762,CFD-BF-028-020-HC.jpg,1600,solid,I,None,1517,10,1,23533.5,560325.3999999762,9031,ATS,A,8
1,test,1,C,mfborder.png,0,z,Thu Oct 02 2025 15:21:50 GMT-0400 (Eastern Daylight Time),587008.8999999762,CFD-BF-023-013-A.jpg,1600,dash,I,None,1516,2,1,26683.5,560325.3999999762,9031,ATS,A,9
2,test,1,C,mfborder.png,1,z,Thu Oct 02 2025 15:21:50 GMT-0400 (Eastern Daylight Time),589775.3999999762,CFD-BF-023-013-A.jpg,1600,dash,I,z,1139,2,1,29450.0,560325.3999999762,9031,ATS,A,10
2,test,1,C,mfborder.png,0,z,Thu Oct 02 2025 15:21:50 GMT-0400 (Eastern Daylight Time),592808.8999999762,CFD-WF-003-014-A.jpg,1500,dash,I,None,1517,3,1,32483.5,560325.3999999762,9031,ATS,A,11
2,test,1,C,haborder.png,0,m,Thu Oct 02 2025 15:21:50 GMT-0400 (Eastern Daylight Time),595725.5,CFD-WF-002-008-HC.jpg,1500,solid,I,z,1392,11,1,35400.10000002384,560325.3999999762,9031,ATS,A,12
2,test,1,C,mfborder.png,0,m,Thu Oct 02 2025 15:21:50 GMT-0400 (Eastern Daylight Time),599258.8999999762,CFD-WM-019-013-A.jpg,2000,dash,I,None,1516,5,1,38933.5,560325.3999999762,9031,ATS,A,13
2,test,1,C,haborder.png,0,z,Thu Oct 02 2025 15:21:50 GMT-0400 (Eastern Daylight Time),602059.0,CFD-BM-005-010-A.jpg,1900,solid,I,m,877,8,1,41733.60000002384,560325.3999999762,9031,ATS,A,14
2,test,1,C,mfborder.png,0,z,Thu Oct 02 2025 15:21:50 GMT-0400 (Eastern Daylight Time),605292.2999999523,CFD-BF-010-005-HC.jpg,1700,dash,I,None,1516,1,1,44966.89999997616,560325.3999999762,9031,ATS,A,15
2,test,1,C,haborder.png,0,m,Thu Oct 02 2025 15:21:50 GMT-0400 (Eastern Daylight Time),608425.6999999285,CFD-BF-028-020-HC.jpg,1600,solid,I,None,1517,10,1,48100.299999952316,560325.3999999762,9031,ATS,A,16
3,test,1,C,haborder.png,1,m,Thu Oct 02 2025 15:21:50 GMT-0400 (Eastern Daylight Time),610675.2999999523,CFD-WF-017-016-HC.jpg,1000,solid,I,m,1218,12,1,50349.89999997616,560325.3999999762,9031,ATS,A,17
3,test,1,C,mfborder.png,0,z,Thu Oct 02 2025 15:21:50 GMT-0400 (Eastern Daylight Time),613708.8999999762,CFD-WF-003-014-A.jpg,1500,dash,I,None,1516,3,1,53383.5,560325.3999999762,9031,ATS,A,18
3,test,1,C,haborder.png,0,z,Thu Oct 02 2025 15:21:50 GMT-0400 (Eastern Daylight Time),616743.0,CFD-BM-005-010-A.jpg,1900,solid,I,m,1113,8,1,56417.60000002384,560325.3999999762,9031,ATS,A,19
4,test,1,C,mfborder.png,1,m,Thu Oct 02 2025 15:21:50 GMT-0400 (Eastern Daylight Time),619242.3999999762,CFD-WM-006-013-HC.jpg,1000,dash,I,m,1479,4,1,58917.0,560325.3999999762,9031,ATS,A,20
5,test,1,C,mfborder.png,1,m,Thu Oct 02 2025 15:21:50 GMT-0400 (Eastern Daylight Time),621459.0,CFD-BM-029-026-HC.jpg,1200,dash,I,m,986,6,1,61133.60000002384,560325.3999999762,9031,ATS,A,21
5,test,1,C,mfborder.png,0,m,Thu Oct 02 2025 15:21:50 GMT-0400 (Eastern Daylight Time),625009.0,CFD-WM-019-013-A.jpg,2000,dash,I,None,1516,5,1,64683.60000002384,560325.3999999762,9031,ATS,A,22
5,test,1,C,haborder.png,0,z,Thu Oct 02 2025 15:21:50 GMT-0400 (Eastern Daylight Time),627525.5,CFD-WM-013-015-A.jpg,1400,solid,I,m,1083,7,1,67200.10000002384,560325.3999999762,9031,ATS,A,23
6,test,1,C,mfborder.png,1,m,Thu Oct 02 2025 15:21:50 GMT-0400 (Eastern Daylight Time),629675.6999999285,CFD-BM-029-026-HC.jpg,1200,dash,I,m,910,6,1,69350.29999995232,560325.3999999762,9031,ATS,A,24
0,test,2,C,haborder.png,0,z,Thu Oct 02 2025 15:21:50 GMT-0400 (Eastern Daylight Time),654609.0999999046,CFD-WF-003-014-A.jpg,1700,solid,I,None,1516,9,1,3250.1999999284744,651358.8999999762,9031,ATS,A,1
1,test,2,C,mfborder.png,1,m,Thu Oct 02 2025 15:21:50 GMT-0400 (Eastern Daylight Time),656975.6999999285,CFD-BM-017-052-HC.jpg,1000,dash,I,m,1339,4,1,5616.799999952316,651358.8999999762,9031,ATS,A,2
1,test,2,C,haborder.png,0,z,Thu Oct 02 2025 15:21:50 GMT-0400 (Eastern Daylight Time),659925.5999999046,CFD-BF-023-013-A.jpg,1400,solid,I,None,1515,7,1,8566.699999928474,651358.8999999762,9031,ATS,A,3
2,test,2,C,mfborder.png,1,m,Thu Oct 02 2025 15:21:50 GMT-0400 (Eastern Daylight Time),661942.3999999762,CFD-BM-017-052-HC.jpg,1000,dash,I,m,999,4,1,10583.5,651358.8999999762,9031,ATS,A,4
2,test,2,C,haborder.png,0,m,Thu Oct 02 2025 15:21:50 GMT-0400 (Eastern Daylight Time),664492.2999999523,CFD-WM-004-005-HC.jpg,1000,solid,I,None,1515,12,1,13133.399999976158,651358.8999999762,9031,ATS,A,5
3,test,2,C,haborder.png,1,m,Thu Oct 02 2025 15:21:50 GMT-0400 (Eastern Daylight Time),667425.6999999285,CFD-BM-029-026-HC.jpg,1600,solid,I,m,1304,10,1,16066.799999952316,651358.8999999762,9031,ATS,A,6
4,test,2,C,mfborder.png,1,m,Thu Oct 02 2025 15:21:50 GMT-0400 (Eastern Daylight Time),670942.2999999523,CFD-BM-005-010-A.jpg,2000,dash,I,m,1474,5,1,19583.399999976158,651358.8999999762,9031,ATS,A,7
5,test,2,C,mfborder.png,1,z,Thu Oct 02 2025 15:21:50 GMT-0400 (Eastern Daylight Time),673475.5999999046,CFD-BF-028-020-HC.jpg,1500,dash,I,z,1003,3,1,22116.699999928474,651358.8999999762,9031,ATS,A,8
5,test,2,C,haborder.png,0,z,Thu Oct 02 2025 15:21:50 GMT-0400 (Eastern Daylight Time),676709.0,CFD-WF-003-014-A.jpg,1700,solid,I,None,1516,9,1,25350.100000023842,651358.8999999762,9031,ATS,A,9
5,test,2,C,mfborder.png,0,z,Thu Oct 02 2025 15:21:50 GMT-0400 (Eastern Daylight Time),679742.3999999762,CFD-BF-028-020-HC.jpg,1500,dash,I,None,1516,3,1,28383.5,651358.8999999762,9031,ATS,A,10
6,test,2,C,haborder.png,1,m,Thu Oct 02 2025 15:21:50 GMT-0400 (Eastern Daylight Time),682325.5999999046,CFD-WM-004-005-HC.jpg,1500,solid,I,m,1034,11,1,30966.699999928474,651358.8999999762,9031,ATS,A,11
7,test,2,C,haborder.png,1,m,Thu Oct 02 2025 15:21:50 GMT-0400 (Eastern Daylight Time),684125.5,CFD-WM-004-005-HC.jpg,1000,solid,I,m,775,12,1,32766.600000023842,651358.8999999762,9031,ATS,A,12
7,test,2,C,mfborder.png,0,m,Thu Oct 02 2025 15:21:50 GMT-0400 (Eastern Daylight Time),686875.6999999285,CFD-WM-013-015-A.jpg,1200,dash,I,None,1517,6,1,35516.799999952316,651358.8999999762,9031,ATS,A,13
7,test,2,C,haborder.png,0,z,Thu Oct 02 2025 15:21:50 GMT-0400 (Eastern Daylight Time),689809.0999999046,CFD-BF-023-013-A.jpg,1400,solid,I,None,1516,7,1,38450.199999928474,651358.8999999762,9031,ATS,A,14
7,test,2,C,mfborder.png,0,z,Thu Oct 02 2025 15:21:50 GMT-0400 (Eastern Daylight Time),693059.0,CFD-WF-017-016-HC.jpg,1700,dash,I,None,1516,1,1,41700.10000002384,651358.8999999762,9031,ATS,A,15
8,test,2,C,haborder.png,1,m,Thu Oct 02 2025 15:21:50 GMT-0400 (Eastern Daylight Time),695992.0,CFD-BM-029-026-HC.jpg,1600,solid,I,m,1314,10,1,44633.10000002384,651358.8999999762,9031,ATS,A,16
8,test,2,C,mfborder.png,0,m,Thu Oct 02 2025 15:21:50 GMT-0400 (Eastern Daylight Time),699525.5999999046,CFD-BM-005-010-A.jpg,2000,dash,I,None,1515,5,1,48166.699999928474,651358.8999999762,9031,ATS,A,17
8,test,2,C,mfborder.png,0,z,Thu Oct 02 2025 15:21:50 GMT-0400 (Eastern Daylight Time),702659.0999999046,CFD-WF-019-015-A.jpg,1600,dash,I,None,1516,2,1,51300.199999928474,651358.8999999762,9031,ATS,A,18
8,test,2,C,haborder.png,0,z,Thu Oct 02 2025 15:21:50 GMT-0400 (Eastern Daylight Time),706092.3999999762,CFD-BF-039-039-A.jpg,1900,solid,I,None,1516,8,1,54733.5,651358.8999999762,9031,ATS,A,19
9,test,2,C,haborder.png,1,m,Thu Oct 02 2025 15:21:50 GMT-0400 (Eastern Daylight Time),708925.5999999046,CFD-WM-004-005-HC.jpg,1500,solid,I,m,1291,11,1,57566.699999928474,651358.8999999762,9031,ATS,A,20
9,test,2,C,mfborder.png,0,z,Thu Oct 02 2025 15:21:50 GMT-0400 (Eastern Daylight Time),712059.0999999046,CFD-WF-019-015-A.jpg,1600,dash,I,None,1516,2,1,60700.199999928474,651358.8999999762,9031,ATS,A,21
9,test,2,C,haborder.png,0,z,Thu Oct 02 2025 15:21:50 GMT-0400 (Eastern Daylight Time),715492.3999999762,CFD-BF-039-039-A.jpg,1900,solid,I,None,1516,8,1,64133.5,651358.8999999762,9031,ATS,A,22
10,test,2,C,mfborder.png,1,z,Thu Oct 02 2025 15:21:50 GMT-0400 (Eastern Daylight Time),718658.6999999285,CFD-WF-017-016-HC.jpg,1700,dash,I,z,1436,1,1,67299.79999995232,651358.8999999762,9031,ATS,A,23
11,test,2,C,mfborder.png,1,m,Thu Oct 02 2025 15:21:50 GMT-0400 (Eastern Daylight Time),720642.2999999523,CFD-WM-013-015-A.jpg,1200,dash,I,m,737,6,1,69283.39999997616,651358.8999999762,9031,ATS,A,24
1,test,3,C,mfborder.png,1,z,Thu Oct 02 2025 15:21:50 GMT-0400 (Eastern Daylight Time),727075.8999999762,CFD-BF-010-005-HC.jpg,1700,dash,I,z,1218,1,1,2950.2000000476837,724125.6999999285,9031,ATS,A,1
1,test,3,C,haborder.png,0,m,Thu Oct 02 2025 15:21:50 GMT-0400 (Eastern Daylight Time),730209.0999999046,CFD-BF-028-020-HC.jpg,1600,solid,I,None,1516,10,1,6083.399999976158,724125.6999999285,9031,ATS,A,2
1,test,3,C,haborder.png,0,z,Thu Oct 02 2025 15:21:50 GMT-0400 (Eastern Daylight Time),733175.3999999762,CFD-BM-010-019-A.jpg,1700,solid,I,m,1248,9,1,9049.700000047684,724125.6999999285,9031,ATS,A,3
1,test,3,C,haborder.png,0,m,Thu Oct 02 2025 15:21:50 GMT-0400 (Eastern Daylight Time),736209.0,CFD-WF-002-008-HC.jpg,1500,solid,I,None,1516,11,1,12083.300000071526,724125.6999999285,9031,ATS,A,4
2,test,3,C,mfborder.png,1,z,Thu Oct 02 2025 15:21:50 GMT-0400 (Eastern Daylight Time),738959.0,CFD-BF-010-005-HC.jpg,1700,dash,I,z,1023,1,1,14833.300000071526,724125.6999999285,9031,ATS,A,5
2,test,3,C,haborder.png,0,m,Thu Oct 02 2025 15:21:50 GMT-0400 (Eastern Daylight Time),741509.0,CFD-WF-017-016-HC.jpg,1000,solid,I,None,1516,12,1,17383.300000071526,724125.6999999285,9031,ATS,A,6
2,test,3,C,haborder.png,0,z,Thu Oct 02 2025 15:21:50 GMT-0400 (Eastern Daylight Time),744942.2999999523,CFD-BM-005-010-A.jpg,1900,solid,I,None,1516,8,1,20816.600000023842,724125.6999999285,9031,ATS,A,7
3,test,3,C,haborder.png,1,m,Thu Oct 02 2025 15:21:50 GMT-0400 (Eastern Daylight Time),747908.8999999762,CFD-WF-002-008-HC.jpg,1500,solid,I,m,1417,11,1,23783.200000047684,724125.6999999285,9031,ATS,A,8
3,test,3,C,haborder.png,0,z,Thu Oct 02 2025 15:21:50 GMT-0400 (Eastern Daylight Time),750692.3999999762,CFD-BM-005-010-A.jpg,1900,solid,I,m,835,8,1,26566.700000047684,724125.6999999285,9031,ATS,A,9
3,test,3,C,haborder.png,0,z,Thu Oct 02 2025 15:21:50 GMT-0400 (Eastern Daylight Time),753925.6999999285,CFD-BM-010-019-A.jpg,1700,solid,I,None,1516,9,1,29800.0,724125.6999999285,9031,ATS,A,10
3,test,3,C,mfborder.png,0,m,Thu Oct 02 2025 15:21:50 GMT-0400 (Eastern Daylight Time),757459.0999999046,CFD-WM-019-013-A.jpg,2000,dash,I,None,1516,5,1,33333.39999997616,724125.6999999285,9031,ATS,A,11
4,test,3,C,mfborder.png,1,z,Thu Oct 02 2025 15:21:50 GMT-0400 (Eastern Daylight Time),759892.3999999762,CFD-WF-003-014-A.jpg,1500,dash,I,z,901,3,1,35766.700000047684,724125.6999999285,9031,ATS,A,12
5,test,3,C,mfborder.png,1,m,Thu Oct 02 2025 15:21:50 GMT-0400 (Eastern Daylight Time),761842.2999999523,CFD-WM-006-013-HC.jpg,1000,dash,I,m,903,4,1,37716.60000002384,724125.6999999285,9031,ATS,A,13
6,test,3,C,mfborder.png,1,z,Thu Oct 02 2025 15:21:50 GMT-0400 (Eastern Daylight Time),764625.6999999285,CFD-BF-023-013-A.jpg,1600,dash,I,z,1155,2,1,40500.0,724125.6999999285,9031,ATS,A,14
7,test,3,C,mfborder.png,1,z,Thu Oct 02 2025 15:21:50 GMT-0400 (Eastern Daylight Time),767009.0999999046,CFD-WF-003-014-A.jpg,1500,dash,I,z,837,3,1,42883.39999997616,724125.6999999285,9031,ATS,A,15
8,test,3,C,mfborder.png,1,z,Thu Oct 02 2025 15:21:50 GMT-0400 (Eastern Daylight Time),769525.6999999285,CFD-BF-023-013-A.jpg,1600,dash,I,z,884,2,1,45400.0,724125.6999999285,9031,ATS,A,16
9,test,3,C,mfborder.png,1,m,Thu Oct 02 2025 15:21:50 GMT-0400 (Eastern Daylight Time),772492.0999999046,CFD-WM-019-013-A.jpg,2000,dash,I,m,909,5,1,48366.39999997616,724125.6999999285,9031,ATS,A,17
9,test,3,C,haborder.png,0,m,Thu Oct 02 2025 15:21:50 GMT-0400 (Eastern Daylight Time),775036.0999999046,CFD-WF-017-016-HC.jpg,1000,solid,I,None,1516,12,1,50910.39999997616,724125.6999999285,9031,ATS,A,18
10,test,3,C,mfborder.png,1,m,Thu Oct 02 2025 15:21:50 GMT-0400 (Eastern Daylight Time),777242.2999999523,CFD-WM-006-013-HC.jpg,1000,dash,I,m,1177,4,1,53116.60000002384,724125.6999999285,9031,ATS,A,19
11,test,3,C,mfborder.png,1,m,Thu Oct 02 2025 15:21:50 GMT-0400 (Eastern Daylight Time),779591.8999999762,CFD-BM-029-026-HC.jpg,1200,dash,I,m,1130,6,1,55466.200000047684,724125.6999999285,9031,ATS,A,20
11,test,3,C,haborder.png,0,z,Thu Oct 02 2025 15:21:50 GMT-0400 (Eastern Daylight Time),782525.6999999285,CFD-WM-013-015-A.jpg,1400,solid,I,None,1516,7,1,58400.0,724125.6999999285,9031,ATS,A,21
11,test,3,C,haborder.png,0,z,Thu Oct 02 2025 15:21:50 GMT-0400 (Eastern Daylight Time),785459.0,CFD-WM-013-015-A.jpg,1400,solid,I,None,1516,7,1,61333.300000071526,724125.6999999285,9031,ATS,A,22
12,test,3,C,mfborder.png,1,m,Thu Oct 02 2025 15:21:50 GMT-0400 (Eastern Daylight Time),787742.3999999762,CFD-BM-029-026-HC.jpg,1200,dash,I,m,1040,6,1,63616.700000047684,724125.6999999285,9031,ATS,A,23
12,test,3,C,haborder.png,0,m,Thu Oct 02 2025 15:21:50 GMT-0400 (Eastern Daylight Time),790892.3999999762,CFD-BF-028-020-HC.jpg,1600,solid,I,None,1516,10,1,66766.70000004768,724125.6999999285,9031,ATS,A,24
0,test,4,C,mfborder.png,0,z,Thu Oct 02 2025 15:21:50 GMT-0400 (Eastern Daylight Time),804859.1999999285,CFD-WF-017-016-HC.jpg,1700,dash,I,m,1394,1,1,3116.600000023842,801742.5999999046,9031,ATS,A,1
0,test,4,C,haborder.png,0,z,Thu Oct 02 2025 15:21:50 GMT-0400 (Eastern Daylight Time),807792.5,CFD-BF-023-013-A.jpg,1400,solid,I,None,1516,7,1,6049.900000095367,801742.5999999046,9031,ATS,A,2
1,test,4,C,mfborder.png,1,m,Thu Oct 02 2025 15:21:50 GMT-0400 (Eastern Daylight Time),810342.0,CFD-WM-013-015-A.jpg,1200,dash,I,m,1331,6,1,8599.400000095367,801742.5999999046,9031,ATS,A,3
2,test,4,C,mfborder.png,1,m,Thu Oct 02 2025 15:21:50 GMT-0400 (Eastern Daylight Time),812392.2999999523,CFD-WM-013-015-A.jpg,1200,dash,I,m,830,6,1,10649.700000047684,801742.5999999046,9031,ATS,A,4
2,test,4,C,haborder.png,0,m,Thu Oct 02 2025 15:21:50 GMT-0400 (Eastern Daylight Time),815425.8999999762,CFD-WM-004-005-HC.jpg,1500,solid,I,None,1517,11,1,13683.300000071526,801742.5999999046,9031,ATS,A,5
3,test,4,C,mfborder.png,1,z,Thu Oct 02 2025 15:21:50 GMT-0400 (Eastern Daylight Time),818542.2999999523,CFD-WF-019-015-A.jpg,1600,dash,I,z,1491,2,1,16799.700000047684,801742.5999999046,9031,ATS,A,6
3,test,4,C,haborder.png,0,z,Thu Oct 02 2025 15:21:50 GMT-0400 (Eastern Daylight Time),821792.3999999762,CFD-WF-003-014-A.jpg,1700,solid,I,None,1516,9,1,20049.800000071526,801742.5999999046,9031,ATS,A,7
3,test,4,C,mfborder.png,0,m,Thu Oct 02 2025 15:21:50 GMT-0400 (Eastern Daylight Time),825325.8999999762,CFD-BM-005-010-A.jpg,2000,dash,I,None,1517,5,1,23583.300000071526,801742.5999999046,9031,ATS,A,8
3,test,4,C,haborder.png,0,m,Thu Oct 02 2025 15:21:50 GMT-0400 (Eastern Daylight Time),828459.0999999046,CFD-BM-029-026-HC.jpg,1600,solid,I,None,1516,10,1,26716.5,801742.5999999046,9031,ATS,A,9
4,test,4,C,haborder.png,1,m,Thu Oct 02 2025 15:21:50 GMT-0400 (Eastern Daylight Time),830709.0,CFD-WM-004-005-HC.jpg,1000,solid,I,m,1217,12,1,28966.400000095367,801742.5999999046,9031,ATS,A,10
5,test,4,C,mfborder.png,1,z,Thu Oct 02 2025 15:21:50 GMT-0400 (Eastern Daylight Time),833725.7999999523,CFD-WF-019-015-A.jpg,1600,dash,I,z,1358,2,1,31983.200000047684,801742.5999999046,9031,ATS,A,11
6,test,4,C,mfborder.png,1,z,Thu Oct 02 2025 15:21:50 GMT-0400 (Eastern Daylight Time),836725.5999999046,CFD-WF-017-016-HC.jpg,1700,dash,I,z,1267,1,1,34983.0,801742.5999999046,9031,ATS,A,12
7,test,4,C,mfborder.png,1,z,Thu Oct 02 2025 15:21:50 GMT-0400 (Eastern Daylight Time),839158.7999999523,CFD-BF-028-020-HC.jpg,1500,dash,I,z,914,3,1,37416.200000047684,801742.5999999046,9031,ATS,A,13
8,test,4,C,haborder.png,1,m,Thu Oct 02 2025 15:21:50 GMT-0400 (Eastern Daylight Time),841775.5,CFD-BM-029-026-HC.jpg,1600,solid,I,m,972,10,1,40032.90000009537,801742.5999999046,9031,ATS,A,14
8,test,4,C,haborder.png,0,z,Thu Oct 02 2025 15:21:50 GMT-0400 (Eastern Daylight Time),844709.0,CFD-BF-023-013-A.jpg,1400,solid,I,None,1516,7,1,42966.40000009537,801742.5999999046,9031,ATS,A,15
8,test,4,C,haborder.png,0,z,Thu Oct 02 2025 15:21:50 GMT-0400 (Eastern Daylight Time),848159.0,CFD-BF-039-039-A.jpg,1900,solid,I,None,1516,8,1,46416.40000009537,801742.5999999046,9031,ATS,A,16
9,test,4,C,haborder.png,1,m,Thu Oct 02 2025 15:21:50 GMT-0400 (Eastern Daylight Time),850492.3999999762,CFD-WM-004-005-HC.jpg,1000,solid,I,m,1310,12,1,48749.800000071526,801742.5999999046,9031,ATS,A,17
10,test,4,C,mfborder.png,1,z,Thu Oct 02 2025 15:21:50 GMT-0400 (Eastern Daylight Time),853025.7999999523,CFD-BF-028-020-HC.jpg,1500,dash,I,z,988,3,1,51283.200000047684,801742.5999999046,9031,ATS,A,18
11,test,4,C,mfborder.png,1,m,Thu Oct 02 2025 15:21:50 GMT-0400 (Eastern Daylight Time),855842.2999999523,CFD-BM-005-010-A.jpg,2000,dash,I,m,786,5,1,54099.700000047684,801742.5999999046,9031,ATS,A,19
12,test,4,C,haborder.png,1,m,Thu Oct 02 2025 15:21:50 GMT-0400 (Eastern Daylight Time),858342.1999999285,CFD-WM-004-005-HC.jpg,1500,solid,I,m,982,11,1,56599.60000002384,801742.5999999046,9031,ATS,A,20
12,test,4,C,haborder.png,0,z,Thu Oct 02 2025 15:21:50 GMT-0400 (Eastern Daylight Time),861775.6999999285,CFD-BF-039-039-A.jpg,1900,solid,I,None,1516,8,1,60033.10000002384,801742.5999999046,9031,ATS,A,21
13,test,4,C,mfborder.png,1,m,Thu Oct 02 2025 15:21:50 GMT-0400 (Eastern Daylight Time),864125.5999999046,CFD-BM-017-052-HC.jpg,1000,dash,I,m,1325,4,1,62383.0,801742.5999999046,9031,ATS,A,22
14,test,4,C,mfborder.png,1,m,Thu Oct 02 2025 15:21:50 GMT-0400 (Eastern Daylight Time),865958.8999999762,CFD-BM-017-052-HC.jpg,1000,dash,I,m,798,4,1,64216.300000071526,801742.5999999046,9031,ATS,A,23
14,test,4,C,haborder.png,0,z,Thu Oct 02 2025 15:21:50 GMT-0400 (Eastern Daylight Time),869192.3999999762,CFD-WF-003-014-A.jpg,1700,solid,I,None,1516,9,1,67449.80000007153,801742.5999999046,9031,ATS,A,24
