acc_sum,block,block_c,block_cond,con_img,correct,correct_response,datetime,endtime,face,jitter,line,project,response,response_time,row_sel,session_number,start_end,starttime,subject_id,task,task_vers,trial
0,prac,1,A,haborder.png,0,m,Fri Jan 09 2026 14:14:14 GMT-0500 (Eastern Standard Time),133538.39999961853,CFD-BM-020-024-HC.jpg,1500,solid,I,None,1515,3,2,3816.699999809265,129721.69999980927,9031,ATS,B,1
0,prac,1,A,haborder.png,0,z,Fri Jan 09 2026 14:14:14 GMT-0500 (Eastern Standard Time),136138.19999980927,CFD-BM-037-041-A.jpg,1600,solid,I,m,191,2,2,6416.5,129721.69999980927,9031,ATS,B,2
1,prac,1,A,haborder.png,1,z,Fri Jan 09 2026 14:14:14 GMT-0500 (Eastern Standard Time),139371.80000019073,CFD-BF-050-012-A.jpg,1200,solid,I,z,1223,6,2,9650.10000038147,129721.69999980927,9031,ATS,B,3
2,prac,1,A,haborder.png,1,z,Fri Jan 09 2026 14:14:14 GMT-0500 (Eastern Standard Time),141955.10000038147,CFD-WF-013-015-A.jpg,1000,solid,I,z,781,12,2,12233.400000572205,129721.69999980927,9031,ATS,B,4
3,prac,1,A,haborder.png,1,z,Fri Jan 09 2026 14:14:14 GMT-0500 (Eastern Standard Time),145355.10000038147,CFD-WM-009-009-A.jpg,1900,solid,I,z,689,8,2,15633.400000572205,129721.69999980927,9031,ATS,B,5
4,prac,1,A,haborder.png,1,z,Fri Jan 09 2026 14:14:14 GMT-0500 (Eastern Standard Time),147888.39999961853,CFD-BF-051-043-A.jpg,1000,solid,I,z,717,4,2,18166.699999809265,129721.69999980927,9031,ATS,B,6
5,prac,1,A,haborder.png,1,m,Fri Jan 09 2026 14:14:14 GMT-0500 (Eastern Standard Time),150638.39999961853,CFD-WM-011-006-HC.jpg,1400,solid,I,m,537,7,2,20916.699999809265,129721.69999980927,9031,ATS,B,7
6,prac,1,A,haborder.png,1,m,Fri Jan 09 2026 14:14:14 GMT-0500 (Eastern Standard Time),154521.69999980927,CFD-WM-012-007-HC.jpg,1700,solid,I,m,1375,9,2,24800.0,129721.69999980927,9031,ATS,B,8
7,prac,1,A,haborder.png,1,z,Fri Jan 09 2026 14:14:14 GMT-0500 (Eastern Standard Time),157671.60000038147,CFD-WF-026-008-A.jpg,1600,solid,I,z,742,10,2,27949.900000572205,129721.69999980927,9031,ATS,B,9
8,prac,1,A,haborder.png,1,m,Fri Jan 09 2026 14:14:14 GMT-0500 (Eastern Standard Time),160955.10000038147,CFD-WF-011-006-HC.jpg,1500,solid,I,m,972,11,2,31233.400000572205,129721.69999980927,9031,ATS,B,10
9,prac,1,A,haborder.png,1,m,Fri Jan 09 2026 14:14:14 GMT-0500 (Eastern Standard Time),164188.39999961853,CFD-BM-015-017-HC.jpg,1700,solid,I,m,721,1,2,34466.699999809265,129721.69999980927,9031,ATS,B,11
10,prac,1,A,haborder.png,1,m,Fri Jan 09 2026 14:14:14 GMT-0500 (Eastern Standard Time),167721.89999961853,CFD-BF-035-007-HC.jpg,2000,solid,I,m,725,5,2,38000.199999809265,129721.69999980927,9031,ATS,B,12
1,prac,1,B,mfborder.png,1,z,Fri Jan 09 2026 14:14:14 GMT-0500 (Eastern Standard Time),202321.60000038147,CFD-BF-051-043-A.jpg,1000,dash,I,z,1316,4,2,3116.6000003814697,199205.0,9031,ATS,B,1
2,prac,1,B,mfborder.png,1,m,Fri Jan 09 2026 14:14:14 GMT-0500 (Eastern Standard Time),206005.0,CFD-BM-020-024-HC.jpg,1700,dash,I,m,1178,1,2,6800.0,199205.0,9031,ATS,B,2
3,prac,1,B,mfborder.png,1,z,Fri Jan 09 2026 14:14:14 GMT-0500 (Eastern Standard Time),209421.60000038147,CFD-BF-035-007-HC.jpg,1400,dash,I,z,1203,7,2,10216.60000038147,199205.0,9031,ATS,B,3
4,prac,1,B,mfborder.png,1,z,Fri Jan 09 2026 14:14:14 GMT-0500 (Eastern Standard Time),212438.19999980927,CFD-BF-027-013-HC.jpg,1500,dash,I,z,711,3,2,13233.199999809265,199205.0,9031,ATS,B,4
5,prac,1,B,mfborder.png,1,m,Fri Jan 09 2026 14:14:14 GMT-0500 (Eastern Standard Time),216038.30000019073,CFD-WM-009-009-A.jpg,1700,dash,I,m,1093,9,2,16833.300000190735,199205.0,9031,ATS,B,5
6,prac,1,B,mfborder.png,1,z,Fri Jan 09 2026 14:14:14 GMT-0500 (Eastern Standard Time),218821.60000038147,CFD-WF-011-006-HC.jpg,1000,dash,I,z,978,12,2,19616.60000038147,199205.0,9031,ATS,B,6
7,prac,1,B,mfborder.png,1,m,Fri Jan 09 2026 14:14:14 GMT-0500 (Eastern Standard Time),222771.60000038147,CFD-BM-037-041-A.jpg,2000,dash,I,m,1147,5,2,23566.60000038147,199205.0,9031,ATS,B,7
8,prac,1,B,mfborder.png,1,m,Fri Jan 09 2026 14:14:14 GMT-0500 (Eastern Standard Time),225838.30000019073,CFD-WM-037-060-A.jpg,1200,dash,I,m,1052,6,2,26633.300000190735,199205.0,9031,ATS,B,8
9,prac,1,B,mfborder.png,1,m,Fri Jan 09 2026 14:14:14 GMT-0500 (Eastern Standard Time),229055.0,CFD-BM-041-048-A.jpg,1600,dash,I,m,802,2,2,29850.0,199205.0,9031,ATS,B,9
10,prac,1,B,mfborder.png,1,z,Fri Jan 09 2026 14:14:14 GMT-0500 (Eastern Standard Time),232271.60000038147,CFD-WF-026-008-A.jpg,1500,dash,I,z,901,11,2,33066.60000038147,199205.0,9031,ATS,B,10
11,prac,1,B,mfborder.png,1,z,Fri Jan 09 2026 14:14:14 GMT-0500 (Eastern Standard Time),235754.89999961853,CFD-WF-027-007-HC.jpg,1900,dash,I,z,773,8,2,36549.89999961853,199205.0,9031,ATS,B,11
12,prac,1,B,mfborder.png,1,m,Fri Jan 09 2026 14:14:14 GMT-0500 (Eastern Standard Time),238888.30000019073,CFD-WM-012-007-HC.jpg,1600,dash,I,m,725,10,2,39683.300000190735,199205.0,9031,ATS,B,12
1,test,1,A,haborder.png,1,z,Fri Jan 09 2026 14:14:14 GMT-0500 (Eastern Standard Time),270204.89999961853,CFD-WM-009-009-A.jpg,1900,solid,I,z,839,8,2,2783.5,267421.39999961853,9031,ATS,B,1
2,test,1,A,haborder.png,1,z,Fri Jan 09 2026 14:14:14 GMT-0500 (Eastern Standard Time),272787.69999980927,CFD-WM-009-009-A.jpg,1900,solid,I,z,664,8,2,5366.300000190735,267421.39999961853,9031,ATS,B,2
3,test,1,A,haborder.png,1,m,Fri Jan 09 2026 14:14:14 GMT-0500 (Eastern Standard Time),275671.39999961853,CFD-BF-035-007-HC.jpg,2000,solid,I,m,865,5,2,8250.0,267421.39999961853,9031,ATS,B,3
4,test,1,A,haborder.png,1,m,Fri Jan 09 2026 14:14:14 GMT-0500 (Eastern Standard Time),278088.10000038147,CFD-WM-012-007-HC.jpg,1700,solid,I,m,695,9,2,10666.70000076294,267421.39999961853,9031,ATS,B,4
5,test,1,A,haborder.png,1,z,Fri Jan 09 2026 14:14:14 GMT-0500 (Eastern Standard Time),280538.10000038147,CFD-BM-037-041-A.jpg,1600,solid,I,z,808,2,2,13116.70000076294,267421.39999961853,9031,ATS,B,5
6,test,1,A,haborder.png,1,m,Fri Jan 09 2026 14:14:14 GMT-0500 (Eastern Standard Time),282604.69999980927,CFD-BM-020-024-HC.jpg,1500,solid,I,m,538,3,2,15183.300000190735,267421.39999961853,9031,ATS,B,6
6,test,1,A,haborder.png,0,m,Fri Jan 09 2026 14:14:14 GMT-0500 (Eastern Standard Time),285354.69999980927,CFD-BF-035-007-HC.jpg,2000,solid,I,z,724,5,2,17933.300000190735,267421.39999961853,9031,ATS,B,7
7,test,1,A,haborder.png,1,m,Fri Jan 09 2026 14:14:14 GMT-0500 (Eastern Standard Time),288238.10000038147,CFD-WF-011-006-HC.jpg,1500,solid,I,m,1338,11,2,20816.70000076294,267421.39999961853,9031,ATS,B,8
8,test,1,A,haborder.png,1,m,Fri Jan 09 2026 14:14:14 GMT-0500 (Eastern Standard Time),290754.69999980927,CFD-WM-012-007-HC.jpg,1700,solid,I,m,783,9,2,23333.300000190735,267421.39999961853,9031,ATS,B,9
9,test,1,A,haborder.png,1,z,Fri Jan 09 2026 14:14:14 GMT-0500 (Eastern Standard Time),292721.30000019073,CFD-WF-013-015-A.jpg,1000,solid,I,z,917,12,2,25299.900000572205,267421.39999961853,9031,ATS,B,10
10,test,1,A,haborder.png,1,m,Fri Jan 09 2026 14:14:14 GMT-0500 (Eastern Standard Time),294888.10000038147,CFD-WM-011-006-HC.jpg,1400,solid,I,m,743,7,2,27466.70000076294,267421.39999961853,9031,ATS,B,11
11,test,1,A,haborder.png,1,z,Fri Jan 09 2026 14:14:14 GMT-0500 (Eastern Standard Time),297621.30000019073,CFD-BM-037-041-A.jpg,1600,solid,I,z,1096,2,2,30199.900000572205,267421.39999961853,9031,ATS,B,12
12,test,1,A,haborder.png,1,m,Fri Jan 09 2026 14:14:14 GMT-0500 (Eastern Standard Time),299854.69999980927,CFD-WF-011-006-HC.jpg,1500,solid,I,m,704,11,2,32433.300000190735,267421.39999961853,9031,ATS,B,13
13,test,1,A,haborder.png,1,m,Fri Jan 09 2026 14:14:14 GMT-0500 (Eastern Standard Time),302471.30000019073,CFD-BM-015-017-HC.jpg,1700,solid,I,m,894,1,2,35049.900000572205,267421.39999961853,9031,ATS,B,14
14,test,1,A,haborder.png,1,z,Fri Jan 09 2026 14:14:14 GMT-0500 (Eastern Standard Time),304838.0,CFD-BF-050-012-A.jpg,1200,solid,I,z,1145,6,2,37416.60000038147,267421.39999961853,9031,ATS,B,15
15,test,1,A,haborder.png,1,z,Fri Jan 09 2026 14:14:14 GMT-0500 (Eastern Standard Time),307354.69999980927,CFD-WF-026-008-A.jpg,1600,solid,I,z,874,10,2,39933.300000190735,267421.39999961853,9031,ATS,B,16
16,test,1,A,haborder.png,1,m,Fri Jan 09 2026 14:14:14 GMT-0500 (Eastern Standard Time),309488.0,CFD-WM-011-006-HC.jpg,1400,solid,I,m,701,7,2,42066.60000038147,267421.39999961853,9031,ATS,B,17
17,test,1,A,haborder.png,1,m,Fri Jan 09 2026 14:14:14 GMT-0500 (Eastern Standard Time),311854.69999980927,CFD-BM-015-017-HC.jpg,1700,solid,I,m,637,1,2,44433.300000190735,267421.39999961853,9031,ATS,B,18
18,test,1,A,haborder.png,1,z,Fri Jan 09 2026 14:14:14 GMT-0500 (Eastern Standard Time),313788.10000038147,CFD-BF-051-043-A.jpg,1000,solid,I,z,906,4,2,46366.70000076294,267421.39999961853,9031,ATS,B,19
19,test,1,A,haborder.png,1,z,Fri Jan 09 2026 14:14:14 GMT-0500 (Eastern Standard Time),315954.89999961853,CFD-BF-050-012-A.jpg,1200,solid,I,z,932,6,2,48533.5,267421.39999961853,9031,ATS,B,20
20,test,1,A,haborder.png,1,m,Fri Jan 09 2026 14:14:14 GMT-0500 (Eastern Standard Time),318238.0,CFD-BM-020-024-HC.jpg,1500,solid,I,m,754,3,2,50816.60000038147,267421.39999961853,9031,ATS,B,21
21,test,1,A,haborder.png,1,z,Fri Jan 09 2026 14:14:14 GMT-0500 (Eastern Standard Time),320787.89999961853,CFD-WF-026-008-A.jpg,1600,solid,I,z,931,10,2,53366.5,267421.39999961853,9031,ATS,B,22
22,test,1,A,haborder.png,1,z,Fri Jan 09 2026 14:14:14 GMT-0500 (Eastern Standard Time),322854.60000038147,CFD-WF-013-015-A.jpg,1000,solid,I,z,1046,12,2,55433.20000076294,267421.39999961853,9031,ATS,B,23
23,test,1,A,haborder.png,1,z,Fri Jan 09 2026 14:14:14 GMT-0500 (Eastern Standard Time),324621.39999961853,CFD-BF-051-043-A.jpg,1000,solid,I,z,721,4,2,57200.0,267421.39999961853,9031,ATS,B,24
0,test,1,B,mfborder.png,0,m,Fri Jan 09 2026 14:14:14 GMT-0500 (Eastern Standard Time),346755.0,CFD-WM-037-060-A.jpg,1200,dash,I,None,1516,6,2,2733.6000003814697,344021.39999961853,9031,ATS,B,1
1,test,1,B,mfborder.png,1,m,Fri Jan 09 2026 14:14:14 GMT-0500 (Eastern Standard Time),348804.60000038147,CFD-WM-037-060-A.jpg,1200,dash,I,m,813,6,2,4783.200000762939,344021.39999961853,9031,ATS,B,2
2,test,1,B,mfborder.png,1,m,Fri Jan 09 2026 14:14:14 GMT-0500 (Eastern Standard Time),351804.69999980927,CFD-BM-037-041-A.jpg,2000,dash,I,m,955,5,2,7783.300000190735,344021.39999961853,9031,ATS,B,3
3,test,1,B,mfborder.png,1,m,Fri Jan 09 2026 14:14:14 GMT-0500 (Eastern Standard Time),354088.10000038147,CFD-WM-012-007-HC.jpg,1600,dash,I,m,660,10,2,10066.70000076294,344021.39999961853,9031,ATS,B,4
4,test,1,B,mfborder.png,1,z,Fri Jan 09 2026 14:14:14 GMT-0500 (Eastern Standard Time),355654.60000038147,CFD-WF-011-006-HC.jpg,1000,dash,I,z,545,12,2,11633.20000076294,344021.39999961853,9031,ATS,B,5
5,test,1,B,mfborder.png,1,m,Fri Jan 09 2026 14:14:14 GMT-0500 (Eastern Standard Time),357887.30000019073,CFD-BM-041-048-A.jpg,1600,dash,I,m,584,2,2,13865.900000572205,344021.39999961853,9031,ATS,B,6
6,test,1,B,mfborder.png,1,z,Fri Jan 09 2026 14:14:14 GMT-0500 (Eastern Standard Time),359971.0,CFD-BF-035-007-HC.jpg,1400,dash,I,z,665,7,2,15949.60000038147,344021.39999961853,9031,ATS,B,7
7,test,1,B,mfborder.png,1,m,Fri Jan 09 2026 14:14:14 GMT-0500 (Eastern Standard Time),362271.19999980927,CFD-WM-009-009-A.jpg,1700,dash,I,m,553,9,2,18249.800000190735,344021.39999961853,9031,ATS,B,8
8,test,1,B,mfborder.png,1,z,Fri Jan 09 2026 14:14:14 GMT-0500 (Eastern Standard Time),364904.60000038147,CFD-WF-027-007-HC.jpg,1900,dash,I,z,709,8,2,20883.20000076294,344021.39999961853,9031,ATS,B,9
9,test,1,B,mfborder.png,1,z,Fri Jan 09 2026 14:14:14 GMT-0500 (Eastern Standard Time),366654.69999980927,CFD-BF-051-043-A.jpg,1000,dash,I,z,703,4,2,22633.300000190735,344021.39999961853,9031,ATS,B,10
10,test,1,B,mfborder.png,1,z,Fri Jan 09 2026 14:14:14 GMT-0500 (Eastern Standard Time),368271.19999980927,CFD-BF-051-043-A.jpg,1000,dash,I,z,586,4,2,24249.800000190735,344021.39999961853,9031,ATS,B,11
11,test,1,B,mfborder.png,1,z,Fri Jan 09 2026 14:14:14 GMT-0500 (Eastern Standard Time),370821.30000019073,CFD-WF-027-007-HC.jpg,1900,dash,I,z,612,8,2,26799.900000572205,344021.39999961853,9031,ATS,B,12
12,test,1,B,mfborder.png,1,z,Fri Jan 09 2026 14:14:14 GMT-0500 (Eastern Standard Time),372854.60000038147,CFD-BF-035-007-HC.jpg,1400,dash,I,z,611,7,2,28833.20000076294,344021.39999961853,9031,ATS,B,13
13,test,1,B,mfborder.png,1,z,Fri Jan 09 2026 14:14:14 GMT-0500 (Eastern Standard Time),374988.0,CFD-WF-026-008-A.jpg,1500,dash,I,z,607,11,2,30966.60000038147,344021.39999961853,9031,ATS,B,14
14,test,1,B,mfborder.png,1,m,Fri Jan 09 2026 14:14:14 GMT-0500 (Eastern Standard Time),377421.30000019073,CFD-BM-041-048-A.jpg,1600,dash,I,m,788,2,2,33399.900000572205,344021.39999961853,9031,ATS,B,15
15,test,1,B,mfborder.png,1,z,Fri Jan 09 2026 14:14:14 GMT-0500 (Eastern Standard Time),379621.19999980927,CFD-WF-026-008-A.jpg,1500,dash,I,z,679,11,2,35599.800000190735,344021.39999961853,9031,ATS,B,16
16,test,1,B,mfborder.png,1,m,Fri Jan 09 2026 14:14:14 GMT-0500 (Eastern Standard Time),382088.0,CFD-WM-012-007-HC.jpg,1600,dash,I,m,828,10,2,38066.60000038147,344021.39999961853,9031,ATS,B,17
17,test,1,B,mfborder.png,1,m,Fri Jan 09 2026 14:14:14 GMT-0500 (Eastern Standard Time),384921.30000019073,CFD-BM-037-041-A.jpg,2000,dash,I,m,792,5,2,40899.900000572205,344021.39999961853,9031,ATS,B,18
18,test,1,B,mfborder.png,1,z,Fri Jan 09 2026 14:14:14 GMT-0500 (Eastern Standard Time),386571.39999961853,CFD-WF-011-006-HC.jpg,1000,dash,I,z,623,12,2,42550.0,344021.39999961853,9031,ATS,B,19
19,test,1,B,mfborder.png,1,z,Fri Jan 09 2026 14:14:14 GMT-0500 (Eastern Standard Time),388754.80000019073,CFD-BF-027-013-HC.jpg,1500,dash,I,z,665,3,2,44733.400000572205,344021.39999961853,9031,ATS,B,20
20,test,1,B,mfborder.png,1,m,Fri Jan 09 2026 14:14:14 GMT-0500 (Eastern Standard Time),391238.0,CFD-WM-009-009-A.jpg,1700,dash,I,m,745,9,2,47216.60000038147,344021.39999961853,9031,ATS,B,21
21,test,1,B,mfborder.png,1,m,Fri Jan 09 2026 14:14:14 GMT-0500 (Eastern Standard Time),393587.69999980927,CFD-BM-020-024-HC.jpg,1700,dash,I,m,630,1,2,49566.300000190735,344021.39999961853,9031,ATS,B,22
22,test,1,B,mfborder.png,1,m,Fri Jan 09 2026 14:14:14 GMT-0500 (Eastern Standard Time),396021.0,CFD-BM-020-024-HC.jpg,1700,dash,I,m,713,1,2,51999.60000038147,344021.39999961853,9031,ATS,B,23
23,test,1,B,mfborder.png,1,z,Fri Jan 09 2026 14:14:14 GMT-0500 (Eastern Standard Time),398304.60000038147,CFD-BF-027-013-HC.jpg,1500,dash,I,z,734,3,2,54283.20000076294,344021.39999961853,9031,ATS,B,24
0,3,1,C,mfborder.png,0,z,Fri Jan 09 2026 14:14:14 GMT-0500 (Eastern Standard Time),458438.0,CFD-BF-035-007-HC.jpg,1000,dash,I,None,1516,prac,2,3316.699999809265,455121.30000019073,9031,ATS,B,1
0,6,1,C,mfborder.png,0,m,Fri Jan 09 2026 14:14:14 GMT-0500 (Eastern Standard Time),462454.5,CFD-WM-009-009-A.jpg,1700,solid,I,None,1516,prac,2,7333.199999809265,455121.30000019073,9031,ATS,B,2
1,5,1,C,mfborder.png,1,m,Fri Jan 09 2026 14:14:14 GMT-0500 (Eastern Standard Time),465238.0,CFD-BM-037-041-A.jpg,1200,dash,I,m,778,prac,2,10116.699999809265,455121.30000019073,9031,ATS,B,3
2,9,1,C,haborder.png,1,z,Fri Jan 09 2026 14:14:14 GMT-0500 (Eastern Standard Time),468738.0,CFD-WF-026-008-A.jpg,1600,dash,I,z,1099,prac,2,13616.699999809265,455121.30000019073,9031,ATS,B,4
3,4,1,C,mfborder.png,1,m,Fri Jan 09 2026 14:14:14 GMT-0500 (Eastern Standard Time),472788.0,CFD-BM-015-017-HC.jpg,2000,solid,I,m,1246,prac,2,17666.699999809265,455121.30000019073,9031,ATS,B,5
4,8,1,C,haborder.png,1,z,Fri Jan 09 2026 14:14:14 GMT-0500 (Eastern Standard Time),476171.39999961853,CFD-BF-050-012-A.jpg,1700,solid,I,z,872,prac,2,21050.099999427795,455121.30000019073,9031,ATS,B,6
5,10,1,C,haborder.png,1,m,Fri Jan 09 2026 14:14:14 GMT-0500 (Eastern Standard Time),479404.60000038147,CFD-BM-020-024-HC.jpg,1500,solid,I,m,922,prac,2,24283.300000190735,455121.30000019073,9031,ATS,B,7
6,2,1,C,mfborder.png,1,z,Fri Jan 09 2026 14:14:14 GMT-0500 (Eastern Standard Time),483154.69999980927,CFD-WF-013-015-A.jpg,1500,solid,I,z,1448,prac,2,28033.39999961853,455121.30000019073,9031,ATS,B,8
7,1,1,C,mfborder.png,1,z,Fri Jan 09 2026 14:14:14 GMT-0500 (Eastern Standard Time),486171.39999961853,CFD-WF-011-006-HC.jpg,1600,dash,I,z,606,prac,2,31050.099999427795,455121.30000019073,9031,ATS,B,9
8,12,1,C,haborder.png,1,m,Fri Jan 09 2026 14:14:14 GMT-0500 (Eastern Standard Time),489071.39999961853,CFD-WM-011-006-HC.jpg,1400,solid,I,m,685,prac,2,33950.099999427795,455121.30000019073,9031,ATS,B,10
9,11,1,C,haborder.png,1,m,Fri Jan 09 2026 14:14:14 GMT-0500 (Eastern Standard Time),491571.30000019073,CFD-WM-011-006-HC.jpg,1000,dash,I,m,697,prac,2,36450.0,455121.30000019073,9031,ATS,B,11
10,7,1,C,haborder.png,1,z,Fri Jan 09 2026 14:14:14 GMT-0500 (Eastern Standard Time),495154.60000038147,CFD-BF-051-043-A.jpg,1900,dash,I,z,881,prac,2,40033.300000190735,455121.30000019073,9031,ATS,B,12
1,test,1,C,mfborder.png,1,z,Fri Jan 09 2026 14:14:14 GMT-0500 (Eastern Standard Time),526337.8999996185,CFD-BF-027-013-HC.jpg,1700,dash,I,z,867,1,2,2599.8999996185303,523738.0,9031,ATS,B,1
1,test,1,C,haborder.png,0,m,Fri Jan 09 2026 14:14:14 GMT-0500 (Eastern Standard Time),528770.6999998093,CFD-BF-035-007-HC.jpg,1600,solid,I,z,798,10,2,5032.699999809265,523738.0,9031,ATS,B,2
1,test,1,C,haborder.png,0,m,Fri Jan 09 2026 14:14:14 GMT-0500 (Eastern Standard Time),531404.3999996185,CFD-BF-035-007-HC.jpg,1600,solid,I,z,1006,10,2,7666.39999961853,523738.0,9031,ATS,B,3
2,test,1,C,mfborder.png,1,m,Fri Jan 09 2026 14:14:14 GMT-0500 (Eastern Standard Time),533437.8000001907,CFD-WM-012-007-HC.jpg,1000,dash,I,m,1004,4,2,9699.800000190735,523738.0,9031,ATS,B,4
3,test,1,C,mfborder.png,1,z,Fri Jan 09 2026 14:14:14 GMT-0500 (Eastern Standard Time),535871.0,CFD-WF-026-008-A.jpg,1500,dash,I,z,886,3,2,12133.0,523738.0,9031,ATS,B,5
3,test,1,C,haborder.png,0,z,Fri Jan 09 2026 14:14:14 GMT-0500 (Eastern Standard Time),538171.1000003815,CFD-WM-009-009-A.jpg,1400,solid,I,m,857,7,2,14433.10000038147,523738.0,9031,ATS,B,6
4,test,1,C,haborder.png,1,z,Fri Jan 09 2026 14:14:14 GMT-0500 (Eastern Standard Time),541287.6000003815,CFD-BM-037-041-A.jpg,1900,solid,I,z,1194,8,2,17549.60000038147,523738.0,9031,ATS,B,7
4,test,1,C,haborder.png,0,m,Fri Jan 09 2026 14:14:14 GMT-0500 (Eastern Standard Time),543838.0,CFD-WF-011-006-HC.jpg,1000,solid,I,None,1517,12,2,20100.0,523738.0,9031,ATS,B,8
5,test,1,C,mfborder.png,1,m,Fri Jan 09 2026 14:14:14 GMT-0500 (Eastern Standard Time),546237.6999998093,CFD-WM-012-007-HC.jpg,1000,dash,I,m,1371,4,2,22499.699999809265,523738.0,9031,ATS,B,9
6,test,1,C,mfborder.png,1,m,Fri Jan 09 2026 14:14:14 GMT-0500 (Eastern Standard Time),549087.8000001907,CFD-WM-037-060-A.jpg,2000,dash,I,m,802,5,2,25349.800000190735,523738.0,9031,ATS,B,10
6,test,1,C,haborder.png,0,m,Fri Jan 09 2026 14:14:14 GMT-0500 (Eastern Standard Time),550954.3999996185,CFD-WF-011-006-HC.jpg,1000,solid,I,z,841,12,2,27216.39999961853,523738.0,9031,ATS,B,11
6,test,1,C,haborder.png,0,z,Fri Jan 09 2026 14:14:14 GMT-0500 (Eastern Standard Time),553887.8999996185,CFD-WM-009-009-A.jpg,1400,solid,I,None,1516,7,2,30149.89999961853,523738.0,9031,ATS,B,12
6,test,1,C,haborder.png,0,z,Fri Jan 09 2026 14:14:14 GMT-0500 (Eastern Standard Time),557321.1999998093,CFD-BM-037-041-A.jpg,1900,solid,I,None,1516,8,2,33583.199999809265,523738.0,9031,ATS,B,13
7,test,1,C,haborder.png,1,z,Fri Jan 09 2026 14:14:14 GMT-0500 (Eastern Standard Time),559971.1000003815,CFD-BM-041-048-A.jpg,1700,solid,I,z,917,9,2,36233.10000038147,523738.0,9031,ATS,B,14
8,test,1,C,mfborder.png,1,z,Fri Jan 09 2026 14:14:14 GMT-0500 (Eastern Standard Time),563071.0,CFD-BF-027-013-HC.jpg,1700,dash,I,z,1370,1,2,39333.0,523738.0,9031,ATS,B,15
9,test,1,C,mfborder.png,1,z,Fri Jan 09 2026 14:14:14 GMT-0500 (Eastern Standard Time),565804.3999996185,CFD-WF-026-008-A.jpg,1500,dash,I,z,1206,3,2,42066.39999961853,523738.0,9031,ATS,B,16
10,test,1,C,haborder.png,1,m,Fri Jan 09 2026 14:14:14 GMT-0500 (Eastern Standard Time),568820.8000001907,CFD-WF-027-007-HC.jpg,1500,solid,I,m,1480,11,2,45082.800000190735,523738.0,9031,ATS,B,17
10,test,1,C,mfborder.png,0,z,Fri Jan 09 2026 14:14:14 GMT-0500 (Eastern Standard Time),571937.8000001907,CFD-BF-051-043-A.jpg,1600,dash,I,None,1501,2,2,48199.800000190735,523738.0,9031,ATS,B,18
11,test,1,C,mfborder.png,1,m,Fri Jan 09 2026 14:14:14 GMT-0500 (Eastern Standard Time),574521.0,CFD-BM-020-024-HC.jpg,1200,dash,I,m,1342,6,2,50783.0,523738.0,9031,ATS,B,19
11,test,1,C,mfborder.png,0,z,Fri Jan 09 2026 14:14:14 GMT-0500 (Eastern Standard Time),577671.1000003815,CFD-BF-051-043-A.jpg,1600,dash,I,None,1516,2,2,53933.10000038147,523738.0,9031,ATS,B,20
12,test,1,C,mfborder.png,1,m,Fri Jan 09 2026 14:14:14 GMT-0500 (Eastern Standard Time),580187.6999998093,CFD-BM-020-024-HC.jpg,1200,dash,I,m,1290,6,2,56449.699999809265,523738.0,9031,ATS,B,21
12,test,1,C,haborder.png,0,m,Fri Jan 09 2026 14:14:14 GMT-0500 (Eastern Standard Time),583221.1000003815,CFD-WF-027-007-HC.jpg,1500,solid,I,None,1516,11,2,59483.10000038147,523738.0,9031,ATS,B,22
12,test,1,C,haborder.png,0,z,Fri Jan 09 2026 14:14:14 GMT-0500 (Eastern Standard Time),586471.6999998093,CFD-BM-041-048-A.jpg,1700,solid,I,None,1517,9,2,62733.699999809265,523738.0,9031,ATS,B,23
12,test,1,C,mfborder.png,0,m,Fri Jan 09 2026 14:14:14 GMT-0500 (Eastern Standard Time),589404.3999996185,CFD-WM-037-060-A.jpg,2000,dash,I,z,906,5,2,65666.39999961853,523738.0,9031,ATS,B,24
0,test,2,C,haborder.png,0,z,Fri Jan 09 2026 14:14:14 GMT-0500 (Eastern Standard Time),610854.6000003815,CFD-BF-050-012-A.jpg,1900,solid,I,None,1516,8,2,3433.6000003814697,607421.0,9031,ATS,B,1
0,test,2,C,mfborder.png,0,z,Fri Jan 09 2026 14:14:14 GMT-0500 (Eastern Standard Time),613987.8000001907,CFD-WF-013-015-A.jpg,1600,dash,I,None,1516,2,2,6566.800000190735,607421.0,9031,ATS,B,2
1,test,2,C,haborder.png,1,m,Fri Jan 09 2026 14:14:14 GMT-0500 (Eastern Standard Time),616804.1999998093,CFD-BM-020-024-HC.jpg,1600,solid,I,m,1197,10,2,9383.199999809265,607421.0,9031,ATS,B,3
1,test,2,C,mfborder.png,0,z,Fri Jan 09 2026 14:14:14 GMT-0500 (Eastern Standard Time),619854.5,CFD-BF-035-007-HC.jpg,1500,dash,I,None,1516,3,2,12433.5,607421.0,9031,ATS,B,4
2,test,2,C,mfborder.png,1,z,Fri Jan 09 2026 14:14:14 GMT-0500 (Eastern Standard Time),622921.0,CFD-WF-011-006-HC.jpg,1700,dash,I,z,1343,1,2,15500.0,607421.0,9031,ATS,B,5
2,test,2,C,haborder.png,0,m,Fri Jan 09 2026 14:14:14 GMT-0500 (Eastern Standard Time),625987.6999998093,CFD-WM-011-006-HC.jpg,1500,solid,I,None,1516,11,2,18566.699999809265,607421.0,9031,ATS,B,6
3,test,2,C,haborder.png,1,z,Fri Jan 09 2026 14:14:14 GMT-0500 (Eastern Standard Time),628937.6999998093,CFD-WF-026-008-A.jpg,1700,solid,I,z,1225,9,2,21516.699999809265,607421.0,9031,ATS,B,7
4,test,2,C,haborder.png,1,m,Fri Jan 09 2026 14:14:14 GMT-0500 (Eastern Standard Time),631554.1999998093,CFD-BM-020-024-HC.jpg,1600,solid,I,m,983,10,2,24133.199999809265,607421.0,9031,ATS,B,8
5,test,2,C,haborder.png,1,z,Fri Jan 09 2026 14:14:14 GMT-0500 (Eastern Standard Time),633820.6000003815,CFD-BF-051-043-A.jpg,1400,solid,I,z,837,7,2,26399.60000038147,607421.0,9031,ATS,B,9
5,test,2,C,haborder.png,0,z,Fri Jan 09 2026 14:14:14 GMT-0500 (Eastern Standard Time),637054.3000001907,CFD-WF-026-008-A.jpg,1700,solid,I,None,1516,9,2,29633.300000190735,607421.0,9031,ATS,B,10
5,test,2,C,mfborder.png,0,m,Fri Jan 09 2026 14:14:14 GMT-0500 (Eastern Standard Time),640587.6999998093,CFD-BM-037-041-A.jpg,2000,dash,I,None,1516,5,2,33166.699999809265,607421.0,9031,ATS,B,11
6,test,2,C,haborder.png,1,z,Fri Jan 09 2026 14:14:14 GMT-0500 (Eastern Standard Time),642987.6000003815,CFD-BF-051-043-A.jpg,1400,solid,I,z,973,7,2,35566.60000038147,607421.0,9031,ATS,B,12
6,test,2,C,mfborder.png,0,m,Fri Jan 09 2026 14:14:14 GMT-0500 (Eastern Standard Time),645521.1000003815,CFD-BM-015-017-HC.jpg,1000,dash,I,None,1516,4,2,38100.10000038147,607421.0,9031,ATS,B,13
7,test,2,C,mfborder.png,1,m,Fri Jan 09 2026 14:14:14 GMT-0500 (Eastern Standard Time),647654.1999998093,CFD-WM-009-009-A.jpg,1200,dash,I,m,895,6,2,40233.199999809265,607421.0,9031,ATS,B,14
8,test,2,C,mfborder.png,1,z,Fri Jan 09 2026 14:14:14 GMT-0500 (Eastern Standard Time),650620.8999996185,CFD-WF-013-015-A.jpg,1600,dash,I,z,1338,2,2,43199.89999961853,607421.0,9031,ATS,B,15
9,test,2,C,mfborder.png,1,m,Fri Jan 09 2026 14:14:14 GMT-0500 (Eastern Standard Time),652737.6999998093,CFD-WM-009-009-A.jpg,1200,dash,I,m,884,6,2,45316.699999809265,607421.0,9031,ATS,B,16
10,test,2,C,mfborder.png,1,z,Fri Jan 09 2026 14:14:14 GMT-0500 (Eastern Standard Time),655454.3000001907,CFD-BF-035-007-HC.jpg,1500,dash,I,z,1187,3,2,48033.300000190735,607421.0,9031,ATS,B,17
11,test,2,C,mfborder.png,1,m,Fri Jan 09 2026 14:14:14 GMT-0500 (Eastern Standard Time),658770.6000003815,CFD-BM-037-041-A.jpg,2000,dash,I,m,1299,5,2,51349.60000038147,607421.0,9031,ATS,B,18
12,test,2,C,mfborder.png,1,m,Fri Jan 09 2026 14:14:14 GMT-0500 (Eastern Standard Time),660737.6000003815,CFD-BM-015-017-HC.jpg,1000,dash,I,m,917,4,2,53316.60000038147,607421.0,9031,ATS,B,19
13,test,2,C,haborder.png,1,m,Fri Jan 09 2026 14:14:14 GMT-0500 (Eastern Standard Time),663254.1999998093,CFD-WM-011-006-HC.jpg,1500,solid,I,m,995,11,2,55833.199999809265,607421.0,9031,ATS,B,20
14,test,2,C,mfborder.png,1,z,Fri Jan 09 2026 14:14:14 GMT-0500 (Eastern Standard Time),666104.1999998093,CFD-WF-011-006-HC.jpg,1700,dash,I,z,1110,1,2,58683.199999809265,607421.0,9031,ATS,B,21
14,test,2,C,haborder.png,0,z,Fri Jan 09 2026 14:14:14 GMT-0500 (Eastern Standard Time),669537.8999996185,CFD-BF-050-012-A.jpg,1900,solid,I,None,1516,8,2,62116.89999961853,607421.0,9031,ATS,B,22
15,test,2,C,haborder.png,1,m,Fri Jan 09 2026 14:14:14 GMT-0500 (Eastern Standard Time),671354.1999998093,CFD-WM-011-006-HC.jpg,1000,solid,I,m,791,12,2,63933.199999809265,607421.0,9031,ATS,B,23
16,test,2,C,haborder.png,1,m,Fri Jan 09 2026 14:14:14 GMT-0500 (Eastern Standard Time),673187.3999996185,CFD-WM-011-006-HC.jpg,1000,solid,I,m,798,12,2,65766.39999961853,607421.0,9031,ATS,B,24
1,test,3,C,mfborder.png,1,m,Fri Jan 09 2026 14:14:14 GMT-0500 (Eastern Standard Time),686887.5,CFD-WM-012-007-HC.jpg,1000,dash,I,m,1426,4,2,2449.800000190735,684437.6999998093,9031,ATS,B,1
1,test,3,C,mfborder.png,0,m,Fri Jan 09 2026 14:14:14 GMT-0500 (Eastern Standard Time),690420.3000001907,CFD-WM-037-060-A.jpg,2000,dash,I,None,1516,5,2,5982.60000038147,684437.6999998093,9031,ATS,B,2
1,test,3,C,mfborder.png,0,z,Fri Jan 09 2026 14:14:14 GMT-0500 (Eastern Standard Time),693454.3000001907,CFD-WF-026-008-A.jpg,1500,dash,I,None,1516,3,2,9016.60000038147,684437.6999998093,9031,ATS,B,3
1,test,3,C,haborder.png,0,m,Fri Jan 09 2026 14:14:14 GMT-0500 (Eastern Standard Time),696487.5,CFD-WF-027-007-HC.jpg,1500,solid,I,None,1515,11,2,12049.800000190735,684437.6999998093,9031,ATS,B,4
2,test,3,C,mfborder.png,1,m,Fri Jan 09 2026 14:14:14 GMT-0500 (Eastern Standard Time),698620.8000001907,CFD-WM-012-007-HC.jpg,1000,dash,I,m,1105,4,2,14183.10000038147,684437.6999998093,9031,ATS,B,5
3,test,3,C,mfborder.png,1,m,Fri Jan 09 2026 14:14:14 GMT-0500 (Eastern Standard Time),700804.1999998093,CFD-BM-020-024-HC.jpg,1200,dash,I,m,947,6,2,16366.5,684437.6999998093,9031,ATS,B,6
4,test,3,C,haborder.png,1,z,Fri Jan 09 2026 14:14:14 GMT-0500 (Eastern Standard Time),703237.5,CFD-WM-009-009-A.jpg,1400,solid,I,z,1012,7,2,18799.800000190735,684437.6999998093,9031,ATS,B,7
4,test,3,C,haborder.png,0,m,Fri Jan 09 2026 14:14:14 GMT-0500 (Eastern Standard Time),705770.8999996185,CFD-WF-011-006-HC.jpg,1000,solid,I,None,1516,12,2,21333.199999809265,684437.6999998093,9031,ATS,B,8
5,test,3,C,haborder.png,1,m,Fri Jan 09 2026 14:14:14 GMT-0500 (Eastern Standard Time),708537.6000003815,CFD-BF-035-007-HC.jpg,1600,solid,I,m,1125,10,2,24099.900000572205,684437.6999998093,9031,ATS,B,9
6,test,3,C,mfborder.png,1,m,Fri Jan 09 2026 14:14:14 GMT-0500 (Eastern Standard Time),712020.8999996185,CFD-WM-037-060-A.jpg,2000,dash,I,m,1463,5,2,27583.199999809265,684437.6999998093,9031,ATS,B,10
7,test,3,C,mfborder.png,1,z,Fri Jan 09 2026 14:14:14 GMT-0500 (Eastern Standard Time),714753.8000001907,CFD-BF-051-043-A.jpg,1600,dash,I,z,1101,2,2,30316.10000038147,684437.6999998093,9031,ATS,B,11
8,test,3,C,haborder.png,1,z,Fri Jan 09 2026 14:14:14 GMT-0500 (Eastern Standard Time),718037.6000003815,CFD-BM-037-041-A.jpg,1900,solid,I,z,1362,8,2,33599.900000572205,684437.6999998093,9031,ATS,B,12
9,test,3,C,haborder.png,1,m,Fri Jan 09 2026 14:14:14 GMT-0500 (Eastern Standard Time),720154.1000003815,CFD-WF-011-006-HC.jpg,1000,solid,I,m,1091,12,2,35716.400000572205,684437.6999998093,9031,ATS,B,13
10,test,3,C,haborder.png,1,z,Fri Jan 09 2026 14:14:14 GMT-0500 (Eastern Standard Time),722920.8000001907,CFD-BM-041-048-A.jpg,1700,solid,I,z,1026,9,2,38483.10000038147,684437.6999998093,9031,ATS,B,14
10,test,3,C,mfborder.png,0,z,Fri Jan 09 2026 14:14:14 GMT-0500 (Eastern Standard Time),726054.3000001907,CFD-BF-051-043-A.jpg,1600,dash,I,None,1516,2,2,41616.60000038147,684437.6999998093,9031,ATS,B,15
11,test,3,C,mfborder.png,1,z,Fri Jan 09 2026 14:14:14 GMT-0500 (Eastern Standard Time),728554.3000001907,CFD-BF-027-013-HC.jpg,1700,dash,I,z,775,1,2,44116.60000038147,684437.6999998093,9031,ATS,B,16
12,test,3,C,mfborder.png,1,m,Fri Jan 09 2026 14:14:14 GMT-0500 (Eastern Standard Time),730837.3999996185,CFD-BM-020-024-HC.jpg,1200,dash,I,m,1063,6,2,46399.699999809265,684437.6999998093,9031,ATS,B,17
13,test,3,C,haborder.png,1,z,Fri Jan 09 2026 14:14:14 GMT-0500 (Eastern Standard Time),733570.8999996185,CFD-WM-009-009-A.jpg,1400,solid,I,z,1283,7,2,49133.199999809265,684437.6999998093,9031,ATS,B,18
13,test,3,C,haborder.png,0,m,Fri Jan 09 2026 14:14:14 GMT-0500 (Eastern Standard Time),736620.8999996185,CFD-WF-027-007-HC.jpg,1500,solid,I,None,1516,11,2,52183.199999809265,684437.6999998093,9031,ATS,B,19
13,test,3,C,mfborder.png,0,z,Fri Jan 09 2026 14:14:14 GMT-0500 (Eastern Standard Time),739654.1999998093,CFD-WF-026-008-A.jpg,1500,dash,I,None,1516,3,2,55216.5,684437.6999998093,9031,ATS,B,20
14,test,3,C,mfborder.png,1,z,Fri Jan 09 2026 14:14:14 GMT-0500 (Eastern Standard Time),742571.0,CFD-BF-027-013-HC.jpg,1700,dash,I,z,1191,1,2,58133.300000190735,684437.6999998093,9031,ATS,B,21
15,test,3,C,haborder.png,1,z,Fri Jan 09 2026 14:14:14 GMT-0500 (Eastern Standard Time),745704.3000001907,CFD-BM-037-041-A.jpg,1900,solid,I,z,1194,8,2,61266.60000038147,684437.6999998093,9031,ATS,B,22
16,test,3,C,haborder.png,1,m,Fri Jan 09 2026 14:14:14 GMT-0500 (Eastern Standard Time),748337.5,CFD-BF-035-007-HC.jpg,1600,solid,I,m,1001,10,2,63899.800000190735,684437.6999998093,9031,ATS,B,23
17,test,3,C,haborder.png,1,z,Fri Jan 09 2026 14:14:14 GMT-0500 (Eastern Standard Time),751320.8000001907,CFD-BM-041-048-A.jpg,1700,solid,I,z,1243,9,2,66883.10000038147,684437.6999998093,9031,ATS,B,24
1,test,4,C,mfborder.png,1,z,Fri Jan 09 2026 14:14:14 GMT-0500 (Eastern Standard Time),765921.0,CFD-BF-035-007-HC.jpg,1500,dash,I,z,1085,3,2,2633.3999996185303,763287.6000003815,9031,ATS,B,1
1,test,4,C,haborder.png,0,z,Fri Jan 09 2026 14:14:14 GMT-0500 (Eastern Standard Time),769154.3999996185,CFD-WF-026-008-A.jpg,1700,solid,I,None,1516,9,2,5866.799999237061,763287.6000003815,9031,ATS,B,2
2,test,4,C,haborder.png,1,m,Fri Jan 09 2026 14:14:14 GMT-0500 (Eastern Standard Time),771387.5,CFD-WM-011-006-HC.jpg,1500,solid,I,m,707,11,2,8099.89999961853,763287.6000003815,9031,ATS,B,3
3,test,4,C,haborder.png,1,z,Fri Jan 09 2026 14:14:14 GMT-0500 (Eastern Standard Time),773570.6999998093,CFD-BF-051-043-A.jpg,1400,solid,I,z,765,7,2,10283.099999427795,763287.6000003815,9031,ATS,B,4
4,test,4,C,mfborder.png,1,m,Fri Jan 09 2026 14:14:14 GMT-0500 (Eastern Standard Time),775937.5,CFD-BM-015-017-HC.jpg,1000,dash,I,m,1317,4,2,12649.89999961853,763287.6000003815,9031,ATS,B,5
5,test,4,C,mfborder.png,1,m,Fri Jan 09 2026 14:14:14 GMT-0500 (Eastern Standard Time),777904.1000003815,CFD-WM-009-009-A.jpg,1200,dash,I,m,735,6,2,14616.5,763287.6000003815,9031,ATS,B,6
6,test,4,C,mfborder.png,1,m,Fri Jan 09 2026 14:14:14 GMT-0500 (Eastern Standard Time),780654.1000003815,CFD-BM-037-041-A.jpg,2000,dash,I,m,704,5,2,17366.5,763287.6000003815,9031,ATS,B,7
7,test,4,C,mfborder.png,1,z,Fri Jan 09 2026 14:14:14 GMT-0500 (Eastern Standard Time),783387.3999996185,CFD-WF-013-015-A.jpg,1600,dash,I,z,1107,2,2,20099.79999923706,763287.6000003815,9031,ATS,B,8
7,test,4,C,haborder.png,0,m,Fri Jan 09 2026 14:14:14 GMT-0500 (Eastern Standard Time),786520.8999996185,CFD-BM-020-024-HC.jpg,1600,solid,I,None,1516,10,2,23233.29999923706,763287.6000003815,9031,ATS,B,9
7,test,4,C,haborder.png,0,z,Fri Jan 09 2026 14:14:14 GMT-0500 (Eastern Standard Time),789454.1999998093,CFD-BF-051-043-A.jpg,1400,solid,I,None,1516,7,2,26166.599999427795,763287.6000003815,9031,ATS,B,10
8,test,4,C,mfborder.png,1,m,Fri Jan 09 2026 14:14:14 GMT-0500 (Eastern Standard Time),792137.5,CFD-WM-009-009-A.jpg,1200,dash,I,m,1459,6,2,28849.89999961853,763287.6000003815,9031,ATS,B,11
9,test,4,C,mfborder.png,1,z,Fri Jan 09 2026 14:14:14 GMT-0500 (Eastern Standard Time),794537.1000003815,CFD-WF-013-015-A.jpg,1600,dash,I,z,758,2,2,31249.5,763287.6000003815,9031,ATS,B,12
9,test,4,C,mfborder.png,0,z,Fri Jan 09 2026 14:14:14 GMT-0500 (Eastern Standard Time),797770.8000001907,CFD-WF-011-006-HC.jpg,1700,dash,I,None,1516,1,2,34483.199999809265,763287.6000003815,9031,ATS,B,13
10,test,4,C,haborder.png,1,m,Fri Jan 09 2026 14:14:14 GMT-0500 (Eastern Standard Time),799870.6999998093,CFD-WM-011-006-HC.jpg,1000,solid,I,m,1053,12,2,36583.099999427795,763287.6000003815,9031,ATS,B,14
11,test,4,C,mfborder.png,1,z,Fri Jan 09 2026 14:14:14 GMT-0500 (Eastern Standard Time),802687.5,CFD-WF-011-006-HC.jpg,1700,dash,I,z,1086,1,2,39399.89999961853,763287.6000003815,9031,ATS,B,15
11,test,4,C,haborder.png,0,z,Fri Jan 09 2026 14:14:14 GMT-0500 (Eastern Standard Time),806120.8999996185,CFD-BF-050-012-A.jpg,1900,solid,I,None,1517,8,2,42833.29999923706,763287.6000003815,9031,ATS,B,16
12,test,4,C,mfborder.png,1,m,Fri Jan 09 2026 14:14:14 GMT-0500 (Eastern Standard Time),809287.3999996185,CFD-BM-037-041-A.jpg,2000,dash,I,m,1144,5,2,45999.79999923706,763287.6000003815,9031,ATS,B,17
13,test,4,C,haborder.png,1,m,Fri Jan 09 2026 14:14:14 GMT-0500 (Eastern Standard Time),811937.3999996185,CFD-WM-011-006-HC.jpg,1500,solid,I,m,1117,11,2,48649.79999923706,763287.6000003815,9031,ATS,B,18
13,test,4,C,haborder.png,0,z,Fri Jan 09 2026 14:14:14 GMT-0500 (Eastern Standard Time),815387.5,CFD-BF-050-012-A.jpg,1900,solid,I,None,1516,8,2,52099.89999961853,763287.6000003815,9031,ATS,B,19
14,test,4,C,haborder.png,1,m,Fri Jan 09 2026 14:14:14 GMT-0500 (Eastern Standard Time),817504.0,CFD-WM-011-006-HC.jpg,1000,solid,I,m,1069,12,2,54216.39999961853,763287.6000003815,9031,ATS,B,20
15,test,4,C,mfborder.png,1,m,Fri Jan 09 2026 14:14:14 GMT-0500 (Eastern Standard Time),819754.1000003815,CFD-BM-015-017-HC.jpg,1000,dash,I,m,1225,4,2,56466.5,763287.6000003815,9031,ATS,B,21
16,test,4,C,haborder.png,1,m,Fri Jan 09 2026 14:14:14 GMT-0500 (Eastern Standard Time),822770.6000003815,CFD-BM-020-024-HC.jpg,1600,solid,I,m,1399,10,2,59483.0,763287.6000003815,9031,ATS,B,22
17,test,4,C,mfborder.png,1,z,Fri Jan 09 2026 14:14:14 GMT-0500 (Eastern Standard Time),825437.5,CFD-BF-035-007-HC.jpg,1500,dash,I,z,1121,3,2,62149.89999961853,763287.6000003815,9031,ATS,B,23
17,test,4,C,haborder.png,0,z,Fri Jan 09 2026 14:14:14 GMT-0500 (Eastern Standard Time),828670.8000001907,CFD-WF-026-008-A.jpg,1700,solid,I,None,1516,9,2,65383.199999809265,763287.6000003815,9031,ATS,B,24
