acc_sum,block,block_c,change,condition,correct,correct_response,datetime,endtime,face,project,response,response_time,row_sel,session_number,start_end,starttime,subject_id,task,task_vers,trial
0,prac,1,,1-Back,,,Mon Jan 12 2026 15:13:53 GMT-0600 (Central Standard Time),,005_o_f_d_a.png,O,space,17329,1,1,,,7741,VNB,B,0
1,prac,1,0.0,1-Back,1.0,m,Mon Jan 12 2026 15:13:53 GMT-0600 (Central Standard Time),153404.19999980927,020_y_f_n_a.png,O,m,1644,2,1,2487.899999856949,150916.29999995232,7741,VNB,B,1
2,prac,1,0.0,1-Back,1.0,m,Mon Jan 12 2026 15:13:53 GMT-0600 (Central Standard Time),155836.69999980927,007_m_m_h_a.png,O,m,1562,3,1,2421.899999856949,153414.79999995232,7741,VNB,B,2
3,prac,1,0.0,1-Back,1.0,m,Mon Jan 12 2026 15:13:53 GMT-0600 (Central Standard Time),158236.5,016_y_m_d_a.png,O,m,1534,4,1,2388.0,155848.5,7741,VNB,B,3
4,prac,1,0.0,1-Back,1.0,m,Mon Jan 12 2026 15:13:53 GMT-0600 (Central Standard Time),160301.79999995232,005_o_f_n_a.png,O,m,1192,5,1,2052.7999999523163,158249.0,7741,VNB,B,4
4,prac,1,1.0,1-Back,0.0,z,Mon Jan 12 2026 15:13:53 GMT-0600 (Central Standard Time),162585.59999990463,016_y_m_n_a.png,O,m,1421,6,1,2279.2999999523163,160306.29999995232,7741,VNB,B,5
5,prac,1,0.0,1-Back,1.0,m,Mon Jan 12 2026 15:13:53 GMT-0600 (Central Standard Time),164634.5,004_o_m_h_a.png,O,m,1192,7,1,2036.4000000953674,162598.09999990463,7741,VNB,B,6
6,prac,1,0.0,1-Back,1.0,m,Mon Jan 12 2026 15:13:53 GMT-0600 (Central Standard Time),166450.39999985695,011_m_f_d_a.png,O,m,948,8,1,1804.5,164645.89999985695,7741,VNB,B,7
7,prac,1,1.0,1-Back,1.0,z,Mon Jan 12 2026 15:13:53 GMT-0600 (Central Standard Time),169068.19999980927,020_y_f_d_a.png,O,z,1779,9,1,2608.5,166459.69999980927,7741,VNB,B,8
8,prac,1,0.0,1-Back,1.0,m,Mon Jan 12 2026 15:13:53 GMT-0600 (Central Standard Time),170865.79999995232,007_m_m_n_a.png,O,m,918,10,1,1788.2000000476837,169077.59999990463,7741,VNB,B,9
9,prac,1,0.0,1-Back,1.0,m,Mon Jan 12 2026 15:13:53 GMT-0600 (Central Standard Time),173031.19999980927,005_o_f_h_a.png,O,m,1294,11,1,2152.899999856949,170878.29999995232,7741,VNB,B,10
9,prac,1,0.0,1-Back,0.0,m,Mon Jan 12 2026 15:13:53 GMT-0600 (Central Standard Time),175514.0,016_y_m_d_a.png,O,z,1611,12,1,2470.300000190735,173043.69999980927,7741,VNB,B,11
0,test,1,0.0,1-Back,,,Mon Jan 12 2026 15:13:53 GMT-0600 (Central Standard Time),175514.0,020_y_f_d_a.png,O,space,7532,1,1,2470.300000190735,173043.69999980927,7741,VNB,B,0
1,test,1,0.0,1-Back,1.0,m,Mon Jan 12 2026 15:13:53 GMT-0600 (Central Standard Time),193408.39999985695,011_m_f_n_a.png,O,m,1517,2,1,2540.5,190867.89999985695,7741,VNB,B,1
2,test,1,0.0,1-Back,1.0,m,Mon Jan 12 2026 15:13:53 GMT-0600 (Central Standard Time),195957.19999980927,004_o_m_h_a.png,O,m,1530,3,1,2541.7999999523163,193415.39999985695,7741,VNB,B,2
3,test,1,1.0,1-Back,1.0,z,Mon Jan 12 2026 15:13:53 GMT-0600 (Central Standard Time),198190.09999990463,007_m_m_h_a.png,O,z,1205,4,1,2227.0999999046326,195963.0,7741,VNB,B,3
4,test,1,0.0,1-Back,1.0,m,Mon Jan 12 2026 15:13:53 GMT-0600 (Central Standard Time),200039.5,005_o_f_n_a.png,O,m,818,5,1,1839.8000001907349,198199.69999980927,7741,VNB,B,4
5,test,1,0.0,1-Back,1.0,m,Mon Jan 12 2026 15:13:53 GMT-0600 (Central Standard Time),202088.29999995232,016_y_m_d_a.png,O,m,1028,6,1,2041.7000000476837,200046.59999990463,7741,VNB,B,5
5,test,1,1.0,1-Back,0.0,z,Mon Jan 12 2026 15:13:53 GMT-0600 (Central Standard Time),203907.0,011_m_f_d_a.png,O,m,794,7,1,1810.6000001430511,202096.39999985695,7741,VNB,B,6
6,test,1,0.0,1-Back,1.0,m,Mon Jan 12 2026 15:13:53 GMT-0600 (Central Standard Time),206204.69999980927,020_y_f_h_a.png,O,m,1282,8,1,2288.2999999523163,203916.39999985695,7741,VNB,B,7
7,test,1,0.0,1-Back,1.0,m,Mon Jan 12 2026 15:13:53 GMT-0600 (Central Standard Time),208303.19999980927,004_o_m_n_a.png,O,m,1079,9,1,2091.2999999523163,206211.89999985695,7741,VNB,B,8
8,test,1,0.0,1-Back,1.0,m,Mon Jan 12 2026 15:13:53 GMT-0600 (Central Standard Time),210452.59999990463,016_y_m_h_a.png,O,m,1131,10,1,2140.4000000953674,208312.19999980927,7741,VNB,B,9
8,test,1,0.0,1-Back,0.0,m,Mon Jan 12 2026 15:13:53 GMT-0600 (Central Standard Time),212685.39999985695,004_o_m_d_a.png,O,z,1206,11,1,2221.2000000476837,210464.19999980927,7741,VNB,B,10
9,test,1,1.0,1-Back,1.0,z,Mon Jan 12 2026 15:13:53 GMT-0600 (Central Standard Time),215152.5,005_o_f_d_a.png,O,z,1445,12,1,2458.5,212694.0,7741,VNB,B,11
10,test,1,0.0,1-Back,1.0,m,Mon Jan 12 2026 15:13:53 GMT-0600 (Central Standard Time),217484.89999985695,007_m_m_n_a.png,O,m,1316,13,1,2327.7999999523163,215157.09999990463,7741,VNB,B,12
11,test,1,1.0,1-Back,1.0,z,Mon Jan 12 2026 15:13:53 GMT-0600 (Central Standard Time),220081.29999995232,020_y_f_n_a.png,O,z,1573,14,1,2583.5,217497.79999995232,7741,VNB,B,13
12,test,1,0.0,1-Back,1.0,m,Mon Jan 12 2026 15:13:53 GMT-0600 (Central Standard Time),222748.09999990463,011_m_f_h_a.png,O,m,1638,15,1,2663.7999999523163,220084.29999995232,7741,VNB,B,14
13,test,1,0.0,1-Back,1.0,m,Mon Jan 12 2026 15:13:53 GMT-0600 (Central Standard Time),225099.19999980927,007_m_m_d_a.png,O,m,1326,16,1,2339.0999999046326,222760.09999990463,7741,VNB,B,15
14,test,1,0.0,1-Back,1.0,m,Mon Jan 12 2026 15:13:53 GMT-0600 (Central Standard Time),227847.19999980927,016_y_m_n_a.png,O,m,1728,17,1,2741.0,225106.19999980927,7741,VNB,B,16
15,test,1,0.0,1-Back,1.0,m,Mon Jan 12 2026 15:13:53 GMT-0600 (Central Standard Time),230729.5,005_o_f_h_a.png,O,m,1852,18,1,2872.2000000476837,227857.29999995232,7741,VNB,B,17
0,test,2,0.0,1-Back,,,Mon Jan 12 2026 15:13:53 GMT-0600 (Central Standard Time),230729.5,016_y_m_n_a.png,O,space,2153,1,1,2872.2000000476837,227857.29999995232,7741,VNB,B,0
1,test,2,0.0,1-Back,1.0,m,Mon Jan 12 2026 15:13:53 GMT-0600 (Central Standard Time),236994.29999995232,020_y_f_h_a.png,O,m,1051,2,1,2068.2000000476837,234926.09999990463,7741,VNB,B,1
2,test,2,1.0,1-Back,1.0,m,Mon Jan 12 2026 15:13:53 GMT-0600 (Central Standard Time),239343.89999985695,004_o_m_n_a.png,O,m,1327,3,1,2341.7999999523163,237002.09999990463,7741,VNB,B,2
3,test,2,0.0,1-Back,1.0,m,Mon Jan 12 2026 15:13:53 GMT-0600 (Central Standard Time),242076.19999980927,011_m_f_d_a.png,O,m,1715,4,1,2723.0999999046326,239353.09999990463,7741,VNB,B,3
4,test,2,0.0,1-Back,1.0,z,Mon Jan 12 2026 15:13:53 GMT-0600 (Central Standard Time),244492.19999980927,007_m_m_d_a.png,O,z,1399,5,1,2410.399999856949,242081.79999995232,7741,VNB,B,4
5,test,2,0.0,1-Back,1.0,m,Mon Jan 12 2026 15:13:53 GMT-0600 (Central Standard Time),246492.69999980927,016_y_m_h_a.png,O,m,981,6,1,1995.0,244497.69999980927,7741,VNB,B,5
6,test,2,1.0,1-Back,1.0,z,Mon Jan 12 2026 15:13:53 GMT-0600 (Central Standard Time),248724.69999980927,005_o_f_h_a.png,O,z,1214,7,1,2227.0,246497.69999980927,7741,VNB,B,6
7,test,2,0.0,1-Back,1.0,m,Mon Jan 12 2026 15:13:53 GMT-0600 (Central Standard Time),250856.09999990463,011_m_f_n_a.png,O,m,1110,8,1,2120.9000000953674,248735.19999980927,7741,VNB,B,7
7,test,2,0.0,1-Back,0.0,m,Mon Jan 12 2026 15:13:53 GMT-0600 (Central Standard Time),253889.09999990463,020_y_f_d_a.png,O,None,2016,9,1,3025.0,250864.09999990463,7741,VNB,B,8
7,test,2,0.0,1-Back,0.0,m,Mon Jan 12 2026 15:13:53 GMT-0600 (Central Standard Time),256921.19999980927,007_m_m_n_a.png,O,None,2012,10,1,3023.2999999523163,253897.89999985695,7741,VNB,B,9
7,test,2,1.0,1-Back,0.0,m,Mon Jan 12 2026 15:13:53 GMT-0600 (Central Standard Time),259953.5,011_m_f_h_a.png,O,None,2015,11,1,3022.300000190735,256931.19999980927,7741,VNB,B,10
7,test,2,0.0,1-Back,0.0,z,Mon Jan 12 2026 15:13:53 GMT-0600 (Central Standard Time),262986.5,004_o_m_h_a.png,O,None,2016,12,1,3022.9000000953674,259963.59999990463,7741,VNB,B,11
8,test,2,0.0,1-Back,1.0,m,Mon Jan 12 2026 15:13:53 GMT-0600 (Central Standard Time),265018.09999990463,016_y_m_d_a.png,O,m,1016,13,1,2020.9000000953674,262997.19999980927,7741,VNB,B,12
9,test,2,0.0,1-Back,1.0,m,Mon Jan 12 2026 15:13:53 GMT-0600 (Central Standard Time),267101.89999985695,005_o_f_n_a.png,O,m,1055,14,1,2078.7000000476837,265023.19999980927,7741,VNB,B,13
9,test,2,0.0,1-Back,0.0,z,Mon Jan 12 2026 15:13:53 GMT-0600 (Central Standard Time),269867.09999990463,020_y_f_n_a.png,O,m,1733,15,1,2754.0999999046326,267113.0,7741,VNB,B,14
10,test,2,1.0,1-Back,1.0,m,Mon Jan 12 2026 15:13:53 GMT-0600 (Central Standard Time),272000.39999985695,007_m_m_h_a.png,O,m,1103,16,1,2121.899999856949,269878.5,7741,VNB,B,15
11,test,2,0.0,1-Back,1.0,m,Mon Jan 12 2026 15:13:53 GMT-0600 (Central Standard Time),274582.39999985695,005_o_f_d_a.png,O,m,1554,17,1,2571.899999856949,272010.5,7741,VNB,B,16
12,test,2,1.0,1-Back,1.0,z,Mon Jan 12 2026 15:13:53 GMT-0600 (Central Standard Time),276749.0,004_o_m_d_a.png,O,z,1133,18,1,2158.100000143051,274590.89999985695,7741,VNB,B,17
0,test,3,1.0,1-Back,,,Mon Jan 12 2026 15:13:53 GMT-0600 (Central Standard Time),276749.0,005_o_f_h_a.png,O,space,1908,1,1,2158.100000143051,274590.89999985695,7741,VNB,B,0
1,test,3,0.0,1-Back,1.0,m,Mon Jan 12 2026 15:13:53 GMT-0600 (Central Standard Time),282664.59999990463,011_m_f_d_a.png,O,m,870,2,1,1895.7000000476837,280768.89999985695,7741,VNB,B,1
1,test,3,1.0,1-Back,0.0,m,Mon Jan 12 2026 15:13:53 GMT-0600 (Central Standard Time),285279.0,007_m_m_n_a.png,O,z,1590,3,1,2606.600000143051,282672.39999985695,7741,VNB,B,2
2,test,3,0.0,1-Back,1.0,z,Mon Jan 12 2026 15:13:53 GMT-0600 (Central Standard Time),287561.19999980927,005_o_f_n_a.png,O,z,1253,4,1,2275.5,285285.69999980927,7741,VNB,B,3
3,test,3,1.0,1-Back,1.0,m,Mon Jan 12 2026 15:13:53 GMT-0600 (Central Standard Time),289843.5,004_o_m_d_a.png,O,m,1255,5,1,2271.4000000953674,287572.09999990463,7741,VNB,B,4
4,test,3,0.0,1-Back,1.0,m,Mon Jan 12 2026 15:13:53 GMT-0600 (Central Standard Time),292028.5,020_y_f_h_a.png,O,m,1158,6,1,2178.4000000953674,289850.09999990463,7741,VNB,B,5
4,test,3,0.0,1-Back,0.0,z,Mon Jan 12 2026 15:13:53 GMT-0600 (Central Standard Time),295059.59999990463,016_y_m_h_a.png,O,None,2016,7,1,3021.7000000476837,292037.89999985695,7741,VNB,B,6
5,test,3,0.0,1-Back,1.0,m,Mon Jan 12 2026 15:13:53 GMT-0600 (Central Standard Time),297074.5,011_m_f_n_a.png,O,m,998,8,1,2005.5,295069.0,7741,VNB,B,7
5,test,3,0.0,1-Back,0.0,m,Mon Jan 12 2026 15:13:53 GMT-0600 (Central Standard Time),299640.2999999523,020_y_f_d_a.png,O,z,1534,9,1,2559.600000143051,297080.69999980927,7741,VNB,B,8
6,test,3,1.0,1-Back,1.0,m,Mon Jan 12 2026 15:13:53 GMT-0600 (Central Standard Time),301957.19999980927,004_o_m_n_a.png,O,m,1298,10,1,2308.699999809265,299648.5,7741,VNB,B,9
7,test,3,0.0,1-Back,1.0,m,Mon Jan 12 2026 15:13:53 GMT-0600 (Central Standard Time),304223.59999990463,007_m_m_h_a.png,O,m,1246,11,1,2256.5999999046326,301967.0,7741,VNB,B,10
8,test,3,0.0,1-Back,1.0,z,Mon Jan 12 2026 15:13:53 GMT-0600 (Central Standard Time),306971.69999980927,011_m_f_h_a.png,O,z,1724,12,1,2739.699999809265,304232.0,7741,VNB,B,11
9,test,3,1.0,1-Back,1.0,m,Mon Jan 12 2026 15:13:53 GMT-0600 (Central Standard Time),309770.59999990463,005_o_f_d_a.png,O,m,1765,13,1,2790.0999999046326,306980.5,7741,VNB,B,12
10,test,3,0.0,1-Back,1.0,z,Mon Jan 12 2026 15:13:53 GMT-0600 (Central Standard Time),311903.69999980927,007_m_m_d_a.png,O,z,1104,14,1,2125.5,309778.19999980927,7741,VNB,B,13
11,test,3,0.0,1-Back,1.0,m,Mon Jan 12 2026 15:13:53 GMT-0600 (Central Standard Time),314153.19999980927,016_y_m_n_a.png,O,m,1218,15,1,2239.399999856949,311913.7999999523,7741,VNB,B,14
12,test,3,1.0,1-Back,1.0,m,Mon Jan 12 2026 15:13:53 GMT-0600 (Central Standard Time),316536.19999980927,004_o_m_h_a.png,O,m,1351,16,1,2371.0999999046326,314165.09999990463,7741,VNB,B,15
13,test,3,0.0,1-Back,1.0,m,Mon Jan 12 2026 15:13:53 GMT-0600 (Central Standard Time),318818.19999980927,016_y_m_d_a.png,O,m,1241,17,1,2266.5,316551.69999980927,7741,VNB,B,16
14,test,3,1.0,1-Back,1.0,m,Mon Jan 12 2026 15:13:53 GMT-0600 (Central Standard Time),321117.5,020_y_f_n_a.png,O,m,1273,18,1,2291.9000000953674,318825.59999990463,7741,VNB,B,17
0,test,4,1.0,1-Back,,,Mon Jan 12 2026 15:13:53 GMT-0600 (Central Standard Time),321117.5,007_m_m_d_a.png,O,space,1740,1,1,2291.9000000953674,318825.59999990463,7741,VNB,B,0
1,test,4,0.0,1-Back,1.0,z,Mon Jan 12 2026 15:13:53 GMT-0600 (Central Standard Time),327316.7999999523,004_o_m_d_a.png,O,z,1408,2,1,2425.7999999523163,324891.0,7741,VNB,B,1
2,test,4,0.0,1-Back,1.0,m,Mon Jan 12 2026 15:13:53 GMT-0600 (Central Standard Time),329698.09999990463,016_y_m_h_a.png,O,m,1357,3,1,2372.0,327326.09999990463,7741,VNB,B,2
3,test,4,0.0,1-Back,1.0,m,Mon Jan 12 2026 15:13:53 GMT-0600 (Central Standard Time),331813.69999980927,011_m_f_n_a.png,O,m,1096,4,1,2108.5999999046326,329705.09999990463,7741,VNB,B,3
3,test,4,1.0,1-Back,0.0,m,Mon Jan 12 2026 15:13:53 GMT-0600 (Central Standard Time),334131.2999999523,005_o_f_h_a.png,O,z,1283,5,1,2309.600000143051,331821.69999980927,7741,VNB,B,4
3,test,4,0.0,1-Back,0.0,m,Mon Jan 12 2026 15:13:53 GMT-0600 (Central Standard Time),337078.19999980927,007_m_m_n_a.png,O,z,1920,6,1,2937.7999999523163,334140.39999985695,7741,VNB,B,5
4,test,4,0.0,1-Back,1.0,m,Mon Jan 12 2026 15:13:53 GMT-0600 (Central Standard Time),339128.2999999523,016_y_m_d_a.png,O,m,1017,7,1,2044.0,337084.2999999523,7741,VNB,B,6
5,test,4,1.0,1-Back,1.0,z,Mon Jan 12 2026 15:13:53 GMT-0600 (Central Standard Time),341395.0,020_y_f_d_a.png,O,z,1249,8,1,2256.5,339138.5,7741,VNB,B,7
5,test,4,0.0,1-Back,0.0,m,Mon Jan 12 2026 15:13:53 GMT-0600 (Central Standard Time),344428.19999980927,011_m_f_h_a.png,O,None,2017,9,1,3027.5999999046326,341400.59999990463,7741,VNB,B,8
6,test,4,0.0,1-Back,1.0,z,Mon Jan 12 2026 15:13:53 GMT-0600 (Central Standard Time),346626.39999985695,004_o_m_h_a.png,O,z,1168,10,1,2188.0,344438.39999985695,7741,VNB,B,9
7,test,4,1.0,1-Back,1.0,m,Mon Jan 12 2026 15:13:53 GMT-0600 (Central Standard Time),348692.0,005_o_f_n_a.png,O,m,1049,11,1,2054.4000000953674,346637.59999990463,7741,VNB,B,10
7,test,4,0.0,1-Back,0.0,m,Mon Jan 12 2026 15:13:53 GMT-0600 (Central Standard Time),350941.69999980927,011_m_f_d_a.png,O,z,1215,12,1,2245.699999809265,348696.0,7741,VNB,B,11
7,test,4,0.0,1-Back,0.0,m,Mon Jan 12 2026 15:13:53 GMT-0600 (Central Standard Time),353690.5,020_y_f_n_a.png,O,z,1717,13,1,2739.800000190735,350950.69999980927,7741,VNB,B,12
8,test,4,0.0,1-Back,1.0,m,Mon Jan 12 2026 15:13:53 GMT-0600 (Central Standard Time),355806.59999990463,005_o_f_d_a.png,O,m,1095,14,1,2109.0,353697.59999990463,7741,VNB,B,13
9,test,4,0.0,1-Back,1.0,m,Mon Jan 12 2026 15:13:53 GMT-0600 (Central Standard Time),357987.89999985695,020_y_f_h_a.png,O,m,1155,15,1,2172.5,355815.39999985695,7741,VNB,B,14
10,test,4,1.0,1-Back,1.0,z,Mon Jan 12 2026 15:13:53 GMT-0600 (Central Standard Time),360256.59999990463,007_m_m_h_a.png,O,z,1238,16,1,2261.9000000953674,357994.69999980927,7741,VNB,B,15
11,test,4,0.0,1-Back,1.0,m,Mon Jan 12 2026 15:13:53 GMT-0600 (Central Standard Time),362157.69999980927,004_o_m_n_a.png,O,m,870,17,1,1893.6999998092651,360264.0,7741,VNB,B,16
12,test,4,1.0,1-Back,1.0,z,Mon Jan 12 2026 15:13:53 GMT-0600 (Central Standard Time),364570.7999999523,016_y_m_n_a.png,O,z,1382,18,1,2403.600000143051,362167.19999980927,7741,VNB,B,17
0,test,5,1.0,1-Back,,,Mon Jan 12 2026 15:13:53 GMT-0600 (Central Standard Time),364570.7999999523,004_o_m_n_a.png,O,space,1383,1,1,2403.600000143051,362167.19999980927,7741,VNB,B,0
1,test,5,1.0,1-Back,1.0,m,Mon Jan 12 2026 15:13:53 GMT-0600 (Central Standard Time),369935.7999999523,005_o_f_h_a.png,O,m,929,2,1,1946.7999999523163,367989.0,7741,VNB,B,1
2,test,5,0.0,1-Back,1.0,m,Mon Jan 12 2026 15:13:53 GMT-0600 (Central Standard Time),372302.69999980927,016_y_m_d_a.png,O,m,1351,3,1,2363.5,369939.19999980927,7741,VNB,B,2
3,test,5,0.0,1-Back,1.0,z,Mon Jan 12 2026 15:13:53 GMT-0600 (Central Standard Time),374618.0,004_o_m_d_a.png,O,z,1294,4,1,2310.4000000953674,372307.59999990463,7741,VNB,B,3
4,test,5,0.0,1-Back,1.0,m,Mon Jan 12 2026 15:13:53 GMT-0600 (Central Standard Time),377364.59999990463,011_m_f_h_a.png,O,m,1720,5,1,2740.0,374624.59999990463,7741,VNB,B,4
5,test,5,0.0,1-Back,1.0,m,Mon Jan 12 2026 15:13:53 GMT-0600 (Central Standard Time),379717.09999990463,020_y_f_n_a.png,O,m,1334,6,1,2349.2999999523163,377367.7999999523,7741,VNB,B,5
6,test,5,1.0,1-Back,1.0,z,Mon Jan 12 2026 15:13:53 GMT-0600 (Central Standard Time),381831.19999980927,005_o_f_n_a.png,O,z,1085,7,1,2107.199999809265,379724.0,7741,VNB,B,6
7,test,5,0.0,1-Back,1.0,m,Mon Jan 12 2026 15:13:53 GMT-0600 (Central Standard Time),384413.2999999523,011_m_f_d_a.png,O,m,1554,8,1,2577.100000143051,381836.19999980927,7741,VNB,B,7
8,test,5,0.0,1-Back,1.0,m,Mon Jan 12 2026 15:13:53 GMT-0600 (Central Standard Time),386464.09999990463,016_y_m_h_a.png,O,m,1027,9,1,2047.4000000953674,384416.69999980927,7741,VNB,B,8
9,test,5,0.0,1-Back,1.0,m,Mon Jan 12 2026 15:13:53 GMT-0600 (Central Standard Time),388663.5,020_y_f_d_a.png,O,m,1170,10,1,2192.5,386471.0,7741,VNB,B,9
10,test,5,0.0,1-Back,1.0,m,Mon Jan 12 2026 15:13:53 GMT-0600 (Central Standard Time),391262.19999980927,007_m_m_n_a.png,O,m,1579,11,1,2591.199999809265,388671.0,7741,VNB,B,10
11,test,5,1.0,1-Back,1.0,z,Mon Jan 12 2026 15:13:53 GMT-0600 (Central Standard Time),393629.39999985695,011_m_f_n_a.png,O,z,1348,12,1,2357.0,391272.39999985695,7741,VNB,B,11
12,test,5,0.0,1-Back,1.0,m,Mon Jan 12 2026 15:13:53 GMT-0600 (Central Standard Time),395778.59999990463,004_o_m_h_a.png,O,m,1127,13,1,2140.2999999523163,393638.2999999523,7741,VNB,B,12
13,test,5,0.0,1-Back,1.0,z,Mon Jan 12 2026 15:13:53 GMT-0600 (Central Standard Time),397959.59999990463,007_m_m_h_a.png,O,z,1161,14,1,2170.0999999046326,395789.5,7741,VNB,B,13
14,test,5,1.0,1-Back,1.0,m,Mon Jan 12 2026 15:13:53 GMT-0600 (Central Standard Time),399892.69999980927,005_o_f_d_a.png,O,m,915,15,1,1925.1999998092651,397967.5,7741,VNB,B,14
15,test,5,0.0,1-Back,1.0,m,Mon Jan 12 2026 15:13:53 GMT-0600 (Central Standard Time),402841.39999985695,016_y_m_n_a.png,O,m,1917,16,1,2943.2000000476837,399898.19999980927,7741,VNB,B,15
16,test,5,0.0,1-Back,1.0,m,Mon Jan 12 2026 15:13:53 GMT-0600 (Central Standard Time),405023.39999985695,020_y_f_h_a.png,O,m,1161,17,1,2175.2000000476837,402848.19999980927,7741,VNB,B,16
17,test,5,0.0,1-Back,1.0,m,Mon Jan 12 2026 15:13:53 GMT-0600 (Central Standard Time),407223.19999980927,007_m_m_d_a.png,O,m,1168,18,1,2190.7999999523163,405032.39999985695,7741,VNB,B,17
0,prac,1,0.0,2-Back,,,Mon Jan 12 2026 15:13:53 GMT-0600 (Central Standard Time),407223.19999980927,011_m_f_n_a.png,O,space,9598,1,1,2190.7999999523163,405032.39999985695,7741,VNB,B,0
0,prac,1,0.0,2-Back,,,Mon Jan 12 2026 15:13:53 GMT-0600 (Central Standard Time),407223.19999980927,005_o_f_h_a.png,O,space,9598,2,1,2190.7999999523163,405032.39999985695,7741,VNB,B,0
1,prac,1,0.0,2-Back,1.0,m,Mon Jan 12 2026 15:13:53 GMT-0600 (Central Standard Time),511008.19999980927,004_o_m_d_a.png,O,m,1545,3,1,2404.0999999046326,508604.09999990463,7741,VNB,B,1
1,prac,1,1.0,2-Back,0.0,z,Mon Jan 12 2026 15:13:53 GMT-0600 (Central Standard Time),513573.09999990463,007_m_m_h_a.png,O,m,1660,4,1,2543.4000000953674,511029.69999980927,7741,VNB,B,2
2,prac,1,0.0,2-Back,1.0,m,Mon Jan 12 2026 15:13:53 GMT-0600 (Central Standard Time),515874.5,020_y_f_n_a.png,O,m,1462,5,1,2289.600000143051,513584.89999985695,7741,VNB,B,3
2,prac,1,1.0,2-Back,0.0,z,Mon Jan 12 2026 15:13:53 GMT-0600 (Central Standard Time),518721.7999999523,004_o_m_h_a.png,O,None,2003,6,1,2834.9000000953674,515886.89999985695,7741,VNB,B,4
2,prac,1,1.0,2-Back,0.0,z,Mon Jan 12 2026 15:13:53 GMT-0600 (Central Standard Time),521603.7999999523,016_y_m_n_a.png,O,None,2013,7,1,2871.2000000476837,518732.59999990463,7741,VNB,B,5
2,prac,1,0.0,2-Back,0.0,m,Mon Jan 12 2026 15:13:53 GMT-0600 (Central Standard Time),523869.5,011_m_f_d_a.png,O,z,1407,8,1,2254.600000143051,521614.89999985695,7741,VNB,B,6
2,prac,1,0.0,2-Back,0.0,m,Mon Jan 12 2026 15:13:53 GMT-0600 (Central Standard Time),525868.2999999523,005_o_f_d_a.png,O,z,1134,9,1,1983.5,523884.7999999523,7741,VNB,B,7
2,prac,1,0.0,2-Back,0.0,m,Mon Jan 12 2026 15:13:53 GMT-0600 (Central Standard Time),527818.1999998093,007_m_m_h_a.png,O,z,1164,10,1,1933.0999999046326,525885.0999999046,7741,VNB,B,8
3,prac,1,1.0,2-Back,1.0,z,Mon Jan 12 2026 15:13:53 GMT-0600 (Central Standard Time),529567.6999998093,020_y_f_d_a.png,O,z,884,11,1,1737.0,527830.6999998093,7741,VNB,B,9
4,prac,1,0.0,2-Back,1.0,m,Mon Jan 12 2026 15:13:53 GMT-0600 (Central Standard Time),531550.1999998093,004_o_m_n_a.png,O,m,1117,12,1,1973.7999999523163,529576.399999857,7741,VNB,B,10
0,prac,2,0.0,2-Back,,,Mon Jan 12 2026 15:13:53 GMT-0600 (Central Standard Time),531550.1999998093,011_m_f_n_a.png,O,a,3234,1,1,1973.7999999523163,529576.399999857,7741,VNB,B,0
0,prac,2,0.0,2-Back,,,Mon Jan 12 2026 15:13:53 GMT-0600 (Central Standard Time),531550.1999998093,005_o_f_h_a.png,O,a,3234,2,1,1973.7999999523163,529576.399999857,7741,VNB,B,0
1,prac,2,0.0,2-Back,1.0,m,Mon Jan 12 2026 15:13:53 GMT-0600 (Central Standard Time),542081.5,004_o_m_d_a.png,O,m,1230,3,1,2055.5,540026.0,7741,VNB,B,1
2,prac,2,1.0,2-Back,1.0,z,Mon Jan 12 2026 15:13:53 GMT-0600 (Central Standard Time),544096.0,007_m_m_h_a.png,O,z,1235,4,1,2009.6000001430511,542086.399999857,7741,VNB,B,2
3,prac,2,0.0,2-Back,1.0,m,Mon Jan 12 2026 15:13:53 GMT-0600 (Central Standard Time),546129.5999999046,020_y_f_n_a.png,O,m,1185,5,1,2025.9000000953674,544103.6999998093,7741,VNB,B,3
3,prac,2,1.0,2-Back,0.0,z,Mon Jan 12 2026 15:13:53 GMT-0600 (Central Standard Time),548978.2999999523,004_o_m_h_a.png,O,None,2006,6,1,2839.0,546139.2999999523,7741,VNB,B,4
3,prac,2,1.0,2-Back,0.0,z,Mon Jan 12 2026 15:13:53 GMT-0600 (Central Standard Time),550962.0,016_y_m_n_a.png,O,m,1132,7,1,1973.6000001430511,548988.399999857,7741,VNB,B,5
4,prac,2,0.0,2-Back,1.0,m,Mon Jan 12 2026 15:13:53 GMT-0600 (Central Standard Time),553177.0999999046,011_m_f_d_a.png,O,m,1356,8,1,2207.0,550970.0999999046,7741,VNB,B,6
4,prac,2,0.0,2-Back,0.0,m,Mon Jan 12 2026 15:13:53 GMT-0600 (Central Standard Time),555342.7999999523,005_o_f_d_a.png,O,z,1302,9,1,2158.600000143051,553184.1999998093,7741,VNB,B,7
4,prac,2,0.0,2-Back,0.0,m,Mon Jan 12 2026 15:13:53 GMT-0600 (Central Standard Time),557442.0999999046,007_m_m_h_a.png,O,z,1308,10,1,2090.7999999523163,555351.2999999523,7741,VNB,B,8
5,prac,2,1.0,2-Back,1.0,z,Mon Jan 12 2026 15:13:53 GMT-0600 (Central Standard Time),559241.5,020_y_f_d_a.png,O,z,955,11,1,1794.0,557447.5,7741,VNB,B,9
5,prac,2,0.0,2-Back,0.0,m,Mon Jan 12 2026 15:13:53 GMT-0600 (Central Standard Time),561976.0,004_o_m_n_a.png,O,z,1896,12,1,2725.100000143051,559250.899999857,7741,VNB,B,10
0,test,1,0.0,2-Back,,,Mon Jan 12 2026 15:13:53 GMT-0600 (Central Standard Time),561976.0,016_y_m_h_a.png,O,space,5171,1,1,2725.100000143051,559250.899999857,7741,VNB,B,0
0,test,1,0.0,2-Back,,,Mon Jan 12 2026 15:13:53 GMT-0600 (Central Standard Time),561976.0,005_o_f_n_a.png,O,space,5171,2,1,2725.100000143051,559250.899999857,7741,VNB,B,0
1,test,1,0.0,2-Back,1.0,z,Mon Jan 12 2026 15:13:53 GMT-0600 (Central Standard Time),602229.5,004_o_m_h_a.png,O,z,768,3,1,1786.8000001907349,600442.6999998093,7741,VNB,B,1
2,test,1,0.0,2-Back,1.0,m,Mon Jan 12 2026 15:13:53 GMT-0600 (Central Standard Time),604411.899999857,011_m_f_d_a.png,O,m,1151,4,1,2171.399999856949,602240.5,7741,VNB,B,2
2,test,1,1.0,2-Back,0.0,m,Mon Jan 12 2026 15:13:53 GMT-0600 (Central Standard Time),606809.5999999046,016_y_m_n_a.png,O,z,1370,5,1,2391.2999999523163,604418.2999999523,7741,VNB,B,3
2,test,1,0.0,2-Back,0.0,z,Mon Jan 12 2026 15:13:53 GMT-0600 (Central Standard Time),609524.7999999523,020_y_f_d_a.png,O,m,1688,6,1,2710.7000000476837,606814.0999999046,7741,VNB,B,4
2,test,1,0.0,2-Back,0.0,m,Mon Jan 12 2026 15:13:53 GMT-0600 (Central Standard Time),611908.5,007_m_m_h_a.png,O,z,1365,7,1,2380.7000000476837,609527.7999999523,7741,VNB,B,5
2,test,1,1.0,2-Back,0.0,m,Mon Jan 12 2026 15:13:53 GMT-0600 (Central Standard Time),614424.1999998093,020_y_f_n_a.png,O,z,1486,8,1,2503.5999999046326,611920.5999999046,7741,VNB,B,6
2,test,1,0.0,2-Back,0.0,z,Mon Jan 12 2026 15:13:53 GMT-0600 (Central Standard Time),616074.899999857,005_o_f_h_a.png,O,m,618,9,1,1643.0999999046326,614431.7999999523,7741,VNB,B,7
2,test,1,0.0,2-Back,0.0,m,Mon Jan 12 2026 15:13:53 GMT-0600 (Central Standard Time),618422.5,004_o_m_d_a.png,O,z,1329,10,1,2339.800000190735,616082.6999998093,7741,VNB,B,8
3,test,1,1.0,2-Back,1.0,m,Mon Jan 12 2026 15:13:53 GMT-0600 (Central Standard Time),620922.1999998093,007_m_m_d_a.png,O,m,1467,11,1,2485.699999809265,618436.5,7741,VNB,B,9
3,test,1,0.0,2-Back,0.0,m,Mon Jan 12 2026 15:13:53 GMT-0600 (Central Standard Time),623321.7999999523,011_m_f_n_a.png,O,z,1376,12,1,2392.4000000953674,620929.399999857,7741,VNB,B,10
3,test,1,0.0,2-Back,0.0,m,Mon Jan 12 2026 15:13:53 GMT-0600 (Central Standard Time),625553.7999999523,020_y_f_h_a.png,O,z,1209,13,1,2223.7999999523163,623330.0,7741,VNB,B,11
4,test,1,0.0,2-Back,1.0,z,Mon Jan 12 2026 15:13:53 GMT-0600 (Central Standard Time),628004.0,007_m_m_n_a.png,O,z,1432,14,1,2437.4000000953674,625566.5999999046,7741,VNB,B,12
4,test,1,0.0,2-Back,0.0,m,Mon Jan 12 2026 15:13:53 GMT-0600 (Central Standard Time),630419.399999857,016_y_m_d_a.png,O,z,1392,15,1,2407.7999999523163,628011.5999999046,7741,VNB,B,13
4,test,1,1.0,2-Back,0.0,m,Mon Jan 12 2026 15:13:53 GMT-0600 (Central Standard Time),632984.5999999046,011_m_f_h_a.png,O,z,1543,16,1,2559.7000000476837,630424.899999857,7741,VNB,B,14
5,test,1,0.0,2-Back,1.0,z,Mon Jan 12 2026 15:13:53 GMT-0600 (Central Standard Time),635134.0999999046,005_o_f_d_a.png,O,z,1128,17,1,2146.0999999046326,632988.0,7741,VNB,B,15
5,test,1,0.0,2-Back,0.0,m,Mon Jan 12 2026 15:13:53 GMT-0600 (Central Standard Time),637333.5999999046,004_o_m_n_a.png,O,z,1181,18,1,2193.2000000476837,635140.399999857,7741,VNB,B,16
0,test,2,0.0,2-Back,,,Mon Jan 12 2026 15:13:53 GMT-0600 (Central Standard Time),637333.5999999046,007_m_m_h_a.png,O,space,1605,1,1,2193.2000000476837,635140.399999857,7741,VNB,B,0
0,test,2,0.0,2-Back,,,Mon Jan 12 2026 15:13:53 GMT-0600 (Central Standard Time),637333.5999999046,020_y_f_n_a.png,O,space,1605,2,1,2193.2000000476837,635140.399999857,7741,VNB,B,0
1,test,2,1.0,2-Back,1.0,z,Mon Jan 12 2026 15:13:53 GMT-0600 (Central Standard Time),646047.6999998093,005_o_f_h_a.png,O,z,870,3,1,1891.0999999046326,644156.5999999046,7741,VNB,B,1
1,test,2,0.0,2-Back,0.0,m,Mon Jan 12 2026 15:13:53 GMT-0600 (Central Standard Time),649079.7999999523,004_o_m_d_a.png,O,None,2015,4,1,3025.600000143051,646054.1999998093,7741,VNB,B,2
1,test,2,0.0,2-Back,0.0,m,Mon Jan 12 2026 15:13:53 GMT-0600 (Central Standard Time),651614.5,011_m_f_d_a.png,O,z,1502,5,1,2527.600000143051,649086.899999857,7741,VNB,B,3
1,test,2,0.0,2-Back,0.0,m,Mon Jan 12 2026 15:13:53 GMT-0600 (Central Standard Time),654244.899999857,016_y_m_h_a.png,O,z,1606,6,1,2621.0999999046326,651623.7999999523,7741,VNB,B,4
1,test,2,0.0,2-Back,0.0,m,Mon Jan 12 2026 15:13:53 GMT-0600 (Central Standard Time),656292.7999999523,005_o_f_n_a.png,O,z,1029,7,1,2040.7999999523163,654252.0,7741,VNB,B,5
2,test,2,1.0,2-Back,1.0,z,Mon Jan 12 2026 15:13:53 GMT-0600 (Central Standard Time),657927.899999857,004_o_m_h_a.png,O,z,605,8,1,1628.3999998569489,656299.5,7741,VNB,B,6
3,test,2,0.0,2-Back,1.0,m,Mon Jan 12 2026 15:13:53 GMT-0600 (Central Standard Time),660193.0,020_y_f_d_a.png,O,m,1242,9,1,2253.800000190735,657939.1999998093,7741,VNB,B,7
3,test,2,0.0,2-Back,0.0,m,Mon Jan 12 2026 15:13:53 GMT-0600 (Central Standard Time),662925.399999857,016_y_m_d_a.png,O,z,1713,10,1,2726.399999856949,660199.0,7741,VNB,B,8
3,test,2,0.0,2-Back,0.0,m,Mon Jan 12 2026 15:13:53 GMT-0600 (Central Standard Time),665308.399999857,007_m_m_n_a.png,O,z,1364,11,1,2370.899999856949,662937.5,7741,VNB,B,9
3,test,2,0.0,2-Back,0.0,m,Mon Jan 12 2026 15:13:53 GMT-0600 (Central Standard Time),667407.399999857,011_m_f_h_a.png,O,z,1077,12,1,2091.399999856949,665316.0,7741,VNB,B,10
4,test,2,1.0,2-Back,1.0,z,Mon Jan 12 2026 15:13:53 GMT-0600 (Central Standard Time),669390.1999998093,004_o_m_n_a.png,O,z,956,13,1,1975.0999999046326,667415.0999999046,7741,VNB,B,11
4,test,2,0.0,2-Back,0.0,m,Mon Jan 12 2026 15:13:53 GMT-0600 (Central Standard Time),671257.1999998093,005_o_f_d_a.png,O,z,845,14,1,1860.7999999523163,669396.399999857,7741,VNB,B,12
4,test,2,0.0,2-Back,0.0,m,Mon Jan 12 2026 15:13:53 GMT-0600 (Central Standard Time),673072.1999998093,020_y_f_h_a.png,O,z,787,15,1,1803.5999999046326,671268.5999999046,7741,VNB,B,13
5,test,2,0.0,2-Back,1.0,z,Mon Jan 12 2026 15:13:53 GMT-0600 (Central Standard Time),674688.0,007_m_m_d_a.png,O,z,593,16,1,1604.6000001430511,673083.399999857,7741,VNB,B,14
5,test,2,0.0,2-Back,0.0,m,Mon Jan 12 2026 15:13:53 GMT-0600 (Central Standard Time),676706.6999998093,016_y_m_n_a.png,O,z,994,17,1,2015.3999998569489,674691.2999999523,7741,VNB,B,15
5,test,2,1.0,2-Back,0.0,m,Mon Jan 12 2026 15:13:53 GMT-0600 (Central Standard Time),678654.0999999046,011_m_f_n_a.png,O,z,930,18,1,1939.5999999046326,676714.5,7741,VNB,B,16
0,test,3,1.0,2-Back,,,Mon Jan 12 2026 15:13:53 GMT-0600 (Central Standard Time),678654.0999999046,004_o_m_n_a.png,O,space,1467,1,1,1939.5999999046326,676714.5,7741,VNB,B,0
0,test,3,1.0,2-Back,,,Mon Jan 12 2026 15:13:53 GMT-0600 (Central Standard Time),678654.0999999046,005_o_f_d_a.png,O,space,1467,2,1,1939.5999999046326,676714.5,7741,VNB,B,0
1,test,3,0.0,2-Back,1.0,m,Mon Jan 12 2026 15:13:53 GMT-0600 (Central Standard Time),687533.0,020_y_f_h_a.png,O,m,1320,3,1,2341.4000000953674,685191.5999999046,7741,VNB,B,1
2,test,3,0.0,2-Back,1.0,z,Mon Jan 12 2026 15:13:53 GMT-0600 (Central Standard Time),689666.6999998093,011_m_f_d_a.png,O,z,1117,4,1,2123.399999856949,687543.2999999523,7741,VNB,B,2
2,test,3,1.0,2-Back,0.0,m,Mon Jan 12 2026 15:13:53 GMT-0600 (Central Standard Time),691450.0,016_y_m_n_a.png,O,z,759,5,1,1778.7000000476837,689671.2999999523,7741,VNB,B,3
2,test,3,0.0,2-Back,0.0,m,Mon Jan 12 2026 15:13:53 GMT-0600 (Central Standard Time),693549.2999999523,004_o_m_h_a.png,O,z,1081,6,1,2089.2999999523163,691460.0,7741,VNB,B,4
3,test,3,0.0,2-Back,1.0,z,Mon Jan 12 2026 15:13:53 GMT-0600 (Central Standard Time),695247.5999999046,020_y_f_n_a.png,O,z,668,7,1,1690.5,693557.0999999046,7741,VNB,B,5
3,test,3,1.0,2-Back,0.0,m,Mon Jan 12 2026 15:13:53 GMT-0600 (Central Standard Time),697430.2999999523,007_m_m_d_a.png,O,z,1153,8,1,2173.2999999523163,695257.0,7741,VNB,B,6
4,test,3,0.0,2-Back,1.0,m,Mon Jan 12 2026 15:13:53 GMT-0600 (Central Standard Time),699946.7999999523,016_y_m_d_a.png,O,m,1490,9,1,2511.2000000476837,697435.5999999046,7741,VNB,B,7
4,test,3,0.0,2-Back,0.0,m,Mon Jan 12 2026 15:13:53 GMT-0600 (Central Standard Time),702013.2999999523,005_o_f_h_a.png,O,z,1033,10,1,2048.7999999523163,699964.5,7741,VNB,B,8
4,test,3,1.0,2-Back,0.0,m,Mon Jan 12 2026 15:13:53 GMT-0600 (Central Standard Time),704062.0999999046,011_m_f_n_a.png,O,z,1029,11,1,2040.0999999046326,702022.0,7741,VNB,B,9
5,test,3,1.0,2-Back,1.0,z,Mon Jan 12 2026 15:13:53 GMT-0600 (Central Standard Time),705661.7999999523,007_m_m_h_a.png,O,z,572,12,1,1593.1000001430511,704068.6999998093,7741,VNB,B,10
5,test,3,0.0,2-Back,0.0,m,Mon Jan 12 2026 15:13:53 GMT-0600 (Central Standard Time),707645.1999998093,020_y_f_d_a.png,O,z,965,13,1,1980.2999999523163,705664.899999857,7741,VNB,B,11
5,test,3,0.0,2-Back,0.0,m,Mon Jan 12 2026 15:13:53 GMT-0600 (Central Standard Time),709976.2999999523,005_o_f_n_a.png,O,z,1302,14,1,2327.2999999523163,707649.0,7741,VNB,B,12
6,test,3,0.0,2-Back,1.0,z,Mon Jan 12 2026 15:13:53 GMT-0600 (Central Standard Time),712209.0999999046,004_o_m_d_a.png,O,z,1202,15,1,2226.5,709982.5999999046,7741,VNB,B,13
6,test,3,1.0,2-Back,0.0,m,Mon Jan 12 2026 15:13:53 GMT-0600 (Central Standard Time),714259.0999999046,011_m_f_h_a.png,O,z,1033,16,1,2046.2999999523163,712212.7999999523,7741,VNB,B,14
6,test,3,0.0,2-Back,0.0,m,Mon Jan 12 2026 15:13:53 GMT-0600 (Central Standard Time),715974.5999999046,007_m_m_n_a.png,O,z,688,17,1,1707.0,714267.5999999046,7741,VNB,B,15
7,test,3,0.0,2-Back,1.0,z,Mon Jan 12 2026 15:13:53 GMT-0600 (Central Standard Time),717509.0999999046,016_y_m_h_a.png,O,z,517,18,1,1528.5999999046326,715980.5,7741,VNB,B,16
0,test,4,0.0,2-Back,,,Mon Jan 12 2026 15:13:53 GMT-0600 (Central Standard Time),717509.0999999046,011_m_f_n_a.png,O,space,1061,1,1,1528.5999999046326,715980.5,7741,VNB,B,0
0,test,4,0.0,2-Back,,,Mon Jan 12 2026 15:13:53 GMT-0600 (Central Standard Time),717509.0999999046,004_o_m_n_a.png,O,space,1061,2,1,1528.5999999046326,715980.5,7741,VNB,B,0
1,test,4,1.0,2-Back,1.0,m,Mon Jan 12 2026 15:13:53 GMT-0600 (Central Standard Time),725772.0,016_y_m_h_a.png,O,m,989,3,1,2009.1000001430511,723762.899999857,7741,VNB,B,1
2,test,4,1.0,2-Back,1.0,m,Mon Jan 12 2026 15:13:53 GMT-0600 (Central Standard Time),728270.2999999523,005_o_f_d_a.png,O,m,1476,4,1,2488.2999999523163,725782.0,7741,VNB,B,2
3,test,4,0.0,2-Back,1.0,z,Mon Jan 12 2026 15:13:53 GMT-0600 (Central Standard Time),730520.7999999523,004_o_m_h_a.png,O,z,1227,5,1,2242.7000000476837,728278.0999999046,7741,VNB,B,3
3,test,4,0.0,2-Back,0.0,m,Mon Jan 12 2026 15:13:53 GMT-0600 (Central Standard Time),732737.7999999523,007_m_m_n_a.png,O,z,1195,6,1,2208.9000000953674,730528.899999857,7741,VNB,B,4
3,test,4,0.0,2-Back,0.0,m,Mon Jan 12 2026 15:13:53 GMT-0600 (Central Standard Time),734703.0,011_m_f_d_a.png,O,z,937,7,1,1956.8000001907349,732746.1999998093,7741,VNB,B,5
4,test,4,0.0,2-Back,1.0,z,Mon Jan 12 2026 15:13:53 GMT-0600 (Central Standard Time),736468.5999999046,020_y_f_n_a.png,O,z,748,8,1,1756.0,734712.5999999046,7741,VNB,B,6
5,test,4,1.0,2-Back,1.0,m,Mon Jan 12 2026 15:13:53 GMT-0600 (Central Standard Time),739018.5999999046,005_o_f_h_a.png,O,m,1534,9,1,2539.4000000953674,736479.1999998093,7741,VNB,B,7
5,test,4,0.0,2-Back,0.0,m,Mon Jan 12 2026 15:13:53 GMT-0600 (Central Standard Time),741067.0,007_m_m_h_a.png,O,z,1018,10,1,2042.3000001907349,739024.6999998093,7741,VNB,B,8
6,test,4,0.0,2-Back,1.0,m,Mon Jan 12 2026 15:13:53 GMT-0600 (Central Standard Time),743348.6999998093,020_y_f_d_a.png,O,m,1262,11,1,2274.7999999523163,741073.899999857,7741,VNB,B,9
6,test,4,0.0,2-Back,0.0,m,Mon Jan 12 2026 15:13:53 GMT-0600 (Central Standard Time),745348.5,016_y_m_n_a.png,O,z,972,12,1,1996.0,743352.5,7741,VNB,B,10
6,test,4,0.0,2-Back,0.0,z,Mon Jan 12 2026 15:13:53 GMT-0600 (Central Standard Time),747766.1999998093,004_o_m_d_a.png,O,m,1384,13,1,2411.199999809265,745355.0,7741,VNB,B,11
6,test,4,1.0,2-Back,0.0,m,Mon Jan 12 2026 15:13:53 GMT-0600 (Central Standard Time),750449.7999999523,011_m_f_h_a.png,O,z,1662,14,1,2672.5,747777.2999999523,7741,VNB,B,12
6,test,4,1.0,2-Back,0.0,m,Mon Jan 12 2026 15:13:53 GMT-0600 (Central Standard Time),752463.1999998093,020_y_f_h_a.png,O,z,985,15,1,2005.0999999046326,750458.0999999046,7741,VNB,B,13
6,test,4,0.0,2-Back,0.0,m,Mon Jan 12 2026 15:13:53 GMT-0600 (Central Standard Time),754845.6999998093,005_o_f_n_a.png,O,z,1356,16,1,2375.399999856949,752470.2999999523,7741,VNB,B,14
7,test,4,0.0,2-Back,1.0,m,Mon Jan 12 2026 15:13:53 GMT-0600 (Central Standard Time),757228.2999999523,016_y_m_d_a.png,O,m,1355,17,1,2377.4000000953674,754850.899999857,7741,VNB,B,15
8,test,4,1.0,2-Back,1.0,m,Mon Jan 12 2026 15:13:53 GMT-0600 (Central Standard Time),760060.7999999523,007_m_m_d_a.png,O,m,1814,18,1,2822.2000000476837,757238.5999999046,7741,VNB,B,16
0,test,5,1.0,2-Back,,,Mon Jan 12 2026 15:13:53 GMT-0600 (Central Standard Time),760060.7999999523,020_y_f_d_a.png,O,space,1199,1,1,2822.2000000476837,757238.5999999046,7741,VNB,B,0
0,test,5,1.0,2-Back,,,Mon Jan 12 2026 15:13:53 GMT-0600 (Central Standard Time),760060.7999999523,005_o_f_h_a.png,O,space,1199,2,1,2822.2000000476837,757238.5999999046,7741,VNB,B,0
1,test,5,1.0,2-Back,1.0,z,Mon Jan 12 2026 15:13:53 GMT-0600 (Central Standard Time),768508.399999857,004_o_m_d_a.png,O,z,1037,3,1,2054.2999999523163,766454.0999999046,7741,VNB,B,1
2,test,5,1.0,2-Back,1.0,m,Mon Jan 12 2026 15:13:53 GMT-0600 (Central Standard Time),771156.6999998093,011_m_f_n_a.png,O,m,1631,4,1,2642.0999999046326,768514.5999999046,7741,VNB,B,2
2,test,5,0.0,2-Back,0.0,m,Mon Jan 12 2026 15:13:53 GMT-0600 (Central Standard Time),773223.399999857,007_m_m_h_a.png,O,z,1044,5,1,2061.2999999523163,771162.0999999046,7741,VNB,B,3
3,test,5,0.0,2-Back,1.0,z,Mon Jan 12 2026 15:13:53 GMT-0600 (Central Standard Time),775804.899999857,020_y_f_n_a.png,O,z,1562,6,1,2576.5,773228.399999857,7741,VNB,B,4
3,test,5,0.0,2-Back,0.0,m,Mon Jan 12 2026 15:13:53 GMT-0600 (Central Standard Time),777671.899999857,005_o_f_d_a.png,O,z,835,7,1,1859.7999999523163,775812.0999999046,7741,VNB,B,5
3,test,5,0.0,2-Back,0.0,m,Mon Jan 12 2026 15:13:53 GMT-0600 (Central Standard Time),779637.5,004_o_m_h_a.png,O,z,937,8,1,1956.0,777681.5,7741,VNB,B,6
4,test,5,1.0,2-Back,1.0,z,Mon Jan 12 2026 15:13:53 GMT-0600 (Central Standard Time),781587.399999857,011_m_f_d_a.png,O,z,924,9,1,1940.7999999523163,779646.5999999046,7741,VNB,B,7
5,test,5,0.0,2-Back,1.0,m,Mon Jan 12 2026 15:13:53 GMT-0600 (Central Standard Time),783953.399999857,016_y_m_n_a.png,O,m,1336,10,1,2359.399999856949,781594.0,7741,VNB,B,8
5,test,5,0.0,2-Back,0.0,m,Mon Jan 12 2026 15:13:53 GMT-0600 (Central Standard Time),785902.0999999046,007_m_m_n_a.png,O,z,920,11,1,1940.4000000953674,783961.6999998093,7741,VNB,B,9
5,test,5,0.0,2-Back,0.0,m,Mon Jan 12 2026 15:13:53 GMT-0600 (Central Standard Time),787669.0999999046,020_y_f_h_a.png,O,z,739,12,1,1756.5,785912.5999999046,7741,VNB,B,10
5,test,5,0.0,2-Back,0.0,m,Mon Jan 12 2026 15:13:53 GMT-0600 (Central Standard Time),789869.399999857,016_y_m_d_a.png,O,z,1172,13,1,2193.0,787676.399999857,7741,VNB,B,11
5,test,5,1.0,2-Back,0.0,z,Mon Jan 12 2026 15:13:53 GMT-0600 (Central Standard Time),792168.399999857,011_m_f_h_a.png,O,m,1276,14,1,2291.899999856949,789876.5,7741,VNB,B,12
6,test,5,0.0,2-Back,1.0,m,Mon Jan 12 2026 15:13:53 GMT-0600 (Central Standard Time),794299.0999999046,004_o_m_n_a.png,O,m,1107,15,1,2120.5999999046326,792178.5,7741,VNB,B,13
6,test,5,0.0,2-Back,0.0,m,Mon Jan 12 2026 15:13:53 GMT-0600 (Central Standard Time),796832.6999998093,007_m_m_d_a.png,O,z,1509,16,1,2527.399999856949,794305.2999999523,7741,VNB,B,14
7,test,5,0.0,2-Back,1.0,z,Mon Jan 12 2026 15:13:53 GMT-0600 (Central Standard Time),798549.5999999046,005_o_f_n_a.png,O,z,689,17,1,1710.0999999046326,796839.5,7741,VNB,B,15
7,test,5,1.0,2-Back,0.0,m,Mon Jan 12 2026 15:13:53 GMT-0600 (Central Standard Time),800565.0,016_y_m_h_a.png,O,z,989,18,1,2011.6000001430511,798553.399999857,7741,VNB,B,16
