acc_sum,block,block_c,change,condition,correct,correct_response,datetime,endtime,face,project,response,response_time,row_sel,session_number,start_end,starttime,subject_id,task,task_vers,trial
0,prac,1,,1-Back,,,Tue Aug 12 2025 14:26:15 GMT-0500 (Central Daylight Time),,097_m_f_n_a.png,O,space,9013,1,1,,,7194,NNB,B,0
1,prac,1,0.0,1-Back,1.0,m,Tue Aug 12 2025 14:26:15 GMT-0500 (Central Daylight Time),127892.19999980927,152_y_f_n_a.png,O,m,815,2,1,1721.1999998092651,126171.0,7194,NNB,B,1
2,prac,1,1.0,1-Back,1.0,z,Tue Aug 12 2025 14:26:15 GMT-0500 (Central Daylight Time),129891.39999985695,152_y_f_n_a.png,O,z,1199,3,1,1968.5999999046326,127922.79999995232,7194,NNB,B,2
3,prac,1,0.0,1-Back,1.0,m,Tue Aug 12 2025 14:26:15 GMT-0500 (Central Daylight Time),131840.69999980927,176_o_m_n_a.png,O,m,984,4,1,1910.1999998092651,129930.5,7194,NNB,B,3
3,prac,1,0.0,1-Back,0.0,m,Tue Aug 12 2025 14:26:15 GMT-0500 (Central Daylight Time),133406.59999990463,126_m_m_n_a.png,O,z,646,5,1,1548.0999999046326,131858.5,7194,NNB,B,4
4,prac,1,1.0,1-Back,1.0,z,Tue Aug 12 2025 14:26:15 GMT-0500 (Central Daylight Time),135757.29999995232,126_m_m_n_a.png,O,z,1549,6,1,2319.100000143051,133438.19999980927,7194,NNB,B,5
5,prac,1,0.0,1-Back,1.0,m,Tue Aug 12 2025 14:26:15 GMT-0500 (Central Daylight Time),137572.0,086_o_f_n_a.png,O,m,833,7,1,1787.2000000476837,135784.79999995232,7194,NNB,B,6
6,prac,1,0.0,1-Back,1.0,m,Tue Aug 12 2025 14:26:15 GMT-0500 (Central Daylight Time),139554.89999985695,178_m_m_n_a.png,O,m,1037,8,1,1950.7999999523163,137604.09999990463,7194,NNB,B,7
7,prac,1,0.0,1-Back,1.0,m,Tue Aug 12 2025 14:26:15 GMT-0500 (Central Daylight Time),141103.29999995232,097_m_f_n_a.png,O,m,730,9,1,1510.9000000953674,139592.39999985695,7194,NNB,B,8
8,prac,1,1.0,1-Back,1.0,z,Tue Aug 12 2025 14:26:15 GMT-0500 (Central Daylight Time),142519.5,097_m_f_n_a.png,O,z,634,10,1,1407.8000001907349,141111.69999980927,7194,NNB,B,9
9,prac,1,0.0,1-Back,1.0,m,Tue Aug 12 2025 14:26:15 GMT-0500 (Central Daylight Time),143936.69999980927,176_o_m_n_a.png,O,m,627,11,1,1409.5,142527.19999980927,7194,NNB,B,10
10,prac,1,0.0,1-Back,1.0,m,Tue Aug 12 2025 14:26:15 GMT-0500 (Central Daylight Time),145602.69999980927,173_y_f_n_a.png,O,m,723,12,1,1622.5,143980.19999980927,7194,NNB,B,11
0,test,1,0.0,1-Back,,,Tue Aug 12 2025 14:26:15 GMT-0500 (Central Daylight Time),145602.69999980927,152_y_f_n_a.png,O,space,5532,1,1,1622.5,143980.19999980927,7194,NNB,B,0
1,test,1,0.0,1-Back,1.0,m,Tue Aug 12 2025 14:26:15 GMT-0500 (Central Daylight Time),159898.29999995232,029_m_f_n_a.png,O,m,793,2,1,1807.5,158090.79999995232,7194,NNB,B,1
2,test,1,0.0,1-Back,1.0,m,Tue Aug 12 2025 14:26:15 GMT-0500 (Central Daylight Time),161613.09999990463,173_y_f_n_a.png,O,m,679,3,1,1690.0999999046326,159923.0,7194,NNB,B,2
3,test,1,1.0,1-Back,1.0,z,Tue Aug 12 2025 14:26:15 GMT-0500 (Central Daylight Time),163230.19999980927,173_y_f_n_a.png,O,z,597,4,1,1611.6999998092651,161618.5,7194,NNB,B,3
4,test,1,0.0,1-Back,1.0,m,Tue Aug 12 2025 14:26:15 GMT-0500 (Central Daylight Time),164846.29999995232,029_m_f_n_a.png,O,m,577,5,1,1591.0,163255.29999995232,7194,NNB,B,4
5,test,1,0.0,1-Back,1.0,m,Tue Aug 12 2025 14:26:15 GMT-0500 (Central Daylight Time),166778.89999985695,176_o_m_n_a.png,O,m,891,6,1,1903.7000000476837,164875.19999980927,7194,NNB,B,5
6,test,1,1.0,1-Back,1.0,z,Tue Aug 12 2025 14:26:15 GMT-0500 (Central Daylight Time),168461.79999995232,176_o_m_n_a.png,O,z,646,7,1,1662.5,166799.29999995232,7194,NNB,B,6
7,test,1,0.0,1-Back,1.0,m,Tue Aug 12 2025 14:26:15 GMT-0500 (Central Daylight Time),170244.69999980927,126_m_m_n_a.png,O,m,740,8,1,1755.5,168489.19999980927,7194,NNB,B,7
8,test,1,0.0,1-Back,1.0,m,Tue Aug 12 2025 14:26:15 GMT-0500 (Central Daylight Time),171877.0,086_o_f_n_a.png,O,m,596,9,1,1610.2000000476837,170266.79999995232,7194,NNB,B,8
9,test,1,0.0,1-Back,1.0,m,Tue Aug 12 2025 14:26:15 GMT-0500 (Central Daylight Time),173843.39999985695,126_m_m_n_a.png,O,m,924,10,1,1944.7999999523163,171898.59999990463,7194,NNB,B,9
10,test,1,0.0,1-Back,1.0,m,Tue Aug 12 2025 14:26:15 GMT-0500 (Central Daylight Time),175592.5,153_y_m_n_a.png,O,m,711,11,1,1725.0,173867.5,7194,NNB,B,10
11,test,1,1.0,1-Back,1.0,z,Tue Aug 12 2025 14:26:15 GMT-0500 (Central Daylight Time),177558.89999985695,153_y_m_n_a.png,O,z,938,12,1,1955.2999999523163,175603.59999990463,7194,NNB,B,11
12,test,1,0.0,1-Back,1.0,m,Tue Aug 12 2025 14:26:15 GMT-0500 (Central Daylight Time),179274.69999980927,110_o_f_n_a.png,O,m,674,13,1,1693.7999999523163,177580.89999985695,7194,NNB,B,12
13,test,1,1.0,1-Back,1.0,z,Tue Aug 12 2025 14:26:15 GMT-0500 (Central Daylight Time),180924.69999980927,110_o_f_n_a.png,O,z,617,14,1,1621.8999998569489,179302.79999995232,7194,NNB,B,13
14,test,1,0.0,1-Back,1.0,m,Tue Aug 12 2025 14:26:15 GMT-0500 (Central Daylight Time),182540.29999995232,013_y_m_n_a.png,O,m,597,15,1,1604.7999999523163,180935.5,7194,NNB,B,14
15,test,1,0.0,1-Back,1.0,m,Tue Aug 12 2025 14:26:15 GMT-0500 (Central Daylight Time),184256.59999990463,097_m_f_n_a.png,O,m,669,16,1,1695.0,182561.59999990463,7194,NNB,B,15
16,test,1,0.0,1-Back,1.0,m,Tue Aug 12 2025 14:26:15 GMT-0500 (Central Daylight Time),185972.69999980927,065_o_m_n_a.png,O,m,656,17,1,1681.2999999523163,184291.39999985695,7194,NNB,B,16
17,test,1,0.0,1-Back,1.0,m,Tue Aug 12 2025 14:26:15 GMT-0500 (Central Daylight Time),187605.39999985695,097_m_f_n_a.png,O,m,596,18,1,1609.5999999046326,185995.79999995232,7194,NNB,B,17
0,test,2,0.0,1-Back,,,Tue Aug 12 2025 14:26:15 GMT-0500 (Central Daylight Time),187605.39999985695,126_m_m_n_a.png,O,space,3640,1,1,1609.5999999046326,185995.79999995232,7194,NNB,B,0
1,test,2,0.0,1-Back,1.0,m,Tue Aug 12 2025 14:26:15 GMT-0500 (Central Daylight Time),195069.79999995232,029_m_f_n_a.png,O,m,738,2,1,1755.0,193314.79999995232,7194,NNB,B,1
2,test,2,1.0,1-Back,1.0,z,Tue Aug 12 2025 14:26:15 GMT-0500 (Central Daylight Time),196852.39999985695,029_m_f_n_a.png,O,z,732,3,1,1742.0999999046326,195110.29999995232,7194,NNB,B,2
3,test,2,0.0,1-Back,1.0,m,Tue Aug 12 2025 14:26:15 GMT-0500 (Central Daylight Time),198836.39999985695,126_m_m_n_a.png,O,m,949,4,1,1959.7999999523163,196876.59999990463,7194,NNB,B,3
4,test,2,0.0,1-Back,1.0,m,Tue Aug 12 2025 14:26:15 GMT-0500 (Central Daylight Time),200617.59999990463,153_y_m_n_a.png,O,m,742,5,1,1752.7000000476837,198864.89999985695,7194,NNB,B,4
5,test,2,0.0,1-Back,1.0,m,Tue Aug 12 2025 14:26:15 GMT-0500 (Central Daylight Time),202284.09999990463,152_y_f_n_a.png,O,m,624,6,1,1646.0,200638.09999990463,7194,NNB,B,5
6,test,2,1.0,1-Back,1.0,z,Tue Aug 12 2025 14:26:15 GMT-0500 (Central Daylight Time),204083.0,152_y_f_n_a.png,O,z,749,7,1,1774.5,202308.5,7194,NNB,B,6
7,test,2,0.0,1-Back,1.0,m,Tue Aug 12 2025 14:26:15 GMT-0500 (Central Daylight Time),205799.69999980927,153_y_m_n_a.png,O,m,686,8,1,1705.3999998569489,204094.29999995232,7194,NNB,B,7
8,test,2,0.0,1-Back,1.0,m,Tue Aug 12 2025 14:26:15 GMT-0500 (Central Daylight Time),207664.59999990463,110_o_f_n_a.png,O,m,825,9,1,1839.2999999523163,205825.29999995232,7194,NNB,B,8
9,test,2,0.0,1-Back,1.0,m,Tue Aug 12 2025 14:26:15 GMT-0500 (Central Daylight Time),209381.79999995232,178_m_m_n_a.png,O,m,688,10,1,1710.7000000476837,207671.09999990463,7194,NNB,B,9
10,test,2,1.0,1-Back,1.0,z,Tue Aug 12 2025 14:26:15 GMT-0500 (Central Daylight Time),211131.09999990463,178_m_m_n_a.png,O,z,701,11,1,1721.0999999046326,209410.0,7194,NNB,B,10
11,test,2,0.0,1-Back,1.0,m,Tue Aug 12 2025 14:26:15 GMT-0500 (Central Daylight Time),212764.69999980927,110_o_f_n_a.png,O,m,599,12,1,1615.0,211149.69999980927,7194,NNB,B,11
12,test,2,0.0,1-Back,1.0,m,Tue Aug 12 2025 14:26:15 GMT-0500 (Central Daylight Time),214530.29999995232,086_o_f_n_a.png,O,m,710,13,1,1743.2000000476837,212787.09999990463,7194,NNB,B,12
13,test,2,0.0,1-Back,1.0,m,Tue Aug 12 2025 14:26:15 GMT-0500 (Central Daylight Time),216179.29999995232,176_o_m_n_a.png,O,m,616,14,1,1622.7000000476837,214556.59999990463,7194,NNB,B,13
14,test,2,0.0,1-Back,1.0,m,Tue Aug 12 2025 14:26:15 GMT-0500 (Central Daylight Time),217862.29999995232,065_o_m_n_a.png,O,m,664,15,1,1673.4000000953674,216188.89999985695,7194,NNB,B,14
15,test,2,1.0,1-Back,1.0,z,Tue Aug 12 2025 14:26:15 GMT-0500 (Central Daylight Time),219528.29999995232,065_o_m_n_a.png,O,z,619,16,1,1646.9000000953674,217881.39999985695,7194,NNB,B,15
16,test,2,0.0,1-Back,1.0,m,Tue Aug 12 2025 14:26:15 GMT-0500 (Central Daylight Time),221194.59999990463,013_y_m_n_a.png,O,m,627,17,1,1644.9000000953674,219549.69999980927,7194,NNB,B,16
17,test,2,1.0,1-Back,1.0,z,Tue Aug 12 2025 14:26:15 GMT-0500 (Central Daylight Time),222894.09999990463,013_y_m_n_a.png,O,z,656,18,1,1673.2000000476837,221220.89999985695,7194,NNB,B,17
0,test,3,1.0,1-Back,,,Tue Aug 12 2025 14:26:15 GMT-0500 (Central Daylight Time),222894.09999990463,173_y_f_n_a.png,O,space,1371,1,1,1673.2000000476837,221220.89999985695,7194,NNB,B,0
1,test,3,0.0,1-Back,1.0,m,Tue Aug 12 2025 14:26:15 GMT-0500 (Central Daylight Time),228058.89999985695,065_o_m_n_a.png,O,m,573,1,1,1591.7999999523163,226467.09999990463,7194,NNB,B,1
2,test,3,1.0,1-Back,1.0,z,Tue Aug 12 2025 14:26:15 GMT-0500 (Central Daylight Time),229808.39999985695,065_o_m_n_a.png,O,z,711,1,1,1726.8999998569489,228081.5,7194,NNB,B,2
3,test,3,0.0,1-Back,1.0,m,Tue Aug 12 2025 14:26:15 GMT-0500 (Central Daylight Time),231540.59999990463,097_m_f_n_a.png,O,m,689,1,1,1712.5999999046326,229828.0,7194,NNB,B,3
4,test,3,1.0,1-Back,1.0,z,Tue Aug 12 2025 14:26:15 GMT-0500 (Central Daylight Time),233173.79999995232,097_m_f_n_a.png,O,z,607,1,1,1621.5,231552.29999995232,7194,NNB,B,4
5,test,3,0.0,1-Back,1.0,m,Tue Aug 12 2025 14:26:15 GMT-0500 (Central Daylight Time),234806.29999995232,110_o_f_n_a.png,O,m,580,1,1,1587.7999999523163,233218.5,7194,NNB,B,5
6,test,3,0.0,1-Back,1.0,m,Tue Aug 12 2025 14:26:15 GMT-0500 (Central Daylight Time),236506.19999980927,153_y_m_n_a.png,O,m,634,1,1,1664.5999999046326,234841.59999990463,7194,NNB,B,6
7,test,3,0.0,1-Back,1.0,m,Tue Aug 12 2025 14:26:15 GMT-0500 (Central Daylight Time),238154.69999980927,110_o_f_n_a.png,O,m,614,1,1,1621.8999998569489,236532.79999995232,7194,NNB,B,7
8,test,3,0.0,1-Back,1.0,m,Tue Aug 12 2025 14:26:15 GMT-0500 (Central Daylight Time),239821.79999995232,013_y_m_n_a.png,O,m,638,1,1,1660.2999999523163,238161.5,7194,NNB,B,8
9,test,3,1.0,1-Back,1.0,z,Tue Aug 12 2025 14:26:15 GMT-0500 (Central Daylight Time),241521.29999995232,013_y_m_n_a.png,O,z,652,1,1,1675.1000001430511,239846.19999980927,7194,NNB,B,9
10,test,3,0.0,1-Back,1.0,m,Tue Aug 12 2025 14:26:15 GMT-0500 (Central Daylight Time),243254.0,029_m_f_n_a.png,O,m,690,1,1,1711.4000000953674,241542.59999990463,7194,NNB,B,10
11,test,3,0.0,1-Back,1.0,m,Tue Aug 12 2025 14:26:15 GMT-0500 (Central Daylight Time),244886.69999980927,152_y_f_n_a.png,O,m,587,1,1,1607.3999998569489,243279.29999995232,7194,NNB,B,11
12,test,3,1.0,1-Back,1.0,z,Tue Aug 12 2025 14:26:15 GMT-0500 (Central Daylight Time),246636.39999985695,152_y_f_n_a.png,O,z,716,1,1,1731.0,244905.39999985695,7194,NNB,B,12
13,test,3,0.0,1-Back,1.0,m,Tue Aug 12 2025 14:26:15 GMT-0500 (Central Daylight Time),248302.29999995232,029_m_f_n_a.png,O,m,629,1,1,1643.1000001430511,246659.19999980927,7194,NNB,B,13
14,test,3,0.0,1-Back,1.0,m,Tue Aug 12 2025 14:26:15 GMT-0500 (Central Daylight Time),249968.5,126_m_m_n_a.png,O,m,621,1,1,1641.8000001907349,248326.69999980927,7194,NNB,B,14
15,test,3,1.0,1-Back,1.0,z,Tue Aug 12 2025 14:26:15 GMT-0500 (Central Daylight Time),251718.0,126_m_m_n_a.png,O,z,706,1,1,1728.6000001430511,249989.39999985695,7194,NNB,B,15
16,test,3,0.0,1-Back,1.0,m,Tue Aug 12 2025 14:26:15 GMT-0500 (Central Daylight Time),253317.19999980927,086_o_f_n_a.png,O,m,540,1,1,1558.2999999523163,251758.89999985695,7194,NNB,B,16
17,test,3,1.0,1-Back,1.0,z,Tue Aug 12 2025 14:26:15 GMT-0500 (Central Daylight Time),255233.5,086_o_f_n_a.png,O,z,877,1,1,1894.2000000476837,253339.29999995232,7194,NNB,B,17
0,test,4,1.0,1-Back,,,Tue Aug 12 2025 14:26:15 GMT-0500 (Central Daylight Time),255233.5,097_m_f_n_a.png,O,space,2529,1,1,1894.2000000476837,253339.29999995232,7194,NNB,B,0
1,test,4,0.0,1-Back,1.0,m,Tue Aug 12 2025 14:26:15 GMT-0500 (Central Daylight Time),261664.19999980927,065_o_m_n_a.png,O,m,711,2,1,1724.5,259939.69999980927,7194,NNB,B,1
2,test,4,0.0,1-Back,1.0,m,Tue Aug 12 2025 14:26:15 GMT-0500 (Central Daylight Time),263280.69999980927,097_m_f_n_a.png,O,m,577,3,1,1589.0999999046326,261691.59999990463,7194,NNB,B,2
3,test,4,0.0,1-Back,1.0,m,Tue Aug 12 2025 14:26:15 GMT-0500 (Central Daylight Time),264896.69999980927,110_o_f_n_a.png,O,m,578,4,1,1593.8999998569489,263302.7999999523,7194,NNB,B,3
4,test,4,1.0,1-Back,1.0,z,Tue Aug 12 2025 14:26:15 GMT-0500 (Central Daylight Time),266662.89999985695,110_o_f_n_a.png,O,z,720,5,1,1736.7999999523163,264926.09999990463,7194,NNB,B,4
5,test,4,0.0,1-Back,1.0,m,Tue Aug 12 2025 14:26:15 GMT-0500 (Central Daylight Time),268345.59999990463,152_y_f_n_a.png,O,m,644,6,1,1658.5,266687.09999990463,7194,NNB,B,5
6,test,4,0.0,1-Back,1.0,m,Tue Aug 12 2025 14:26:15 GMT-0500 (Central Daylight Time),269962.0,153_y_m_n_a.png,O,m,577,7,1,1593.2000000476837,268368.7999999523,7194,NNB,B,6
7,test,4,1.0,1-Back,1.0,z,Tue Aug 12 2025 14:26:15 GMT-0500 (Central Daylight Time),271694.59999990463,153_y_m_n_a.png,O,z,695,8,1,1708.0999999046326,269986.5,7194,NNB,B,7
8,test,4,0.0,1-Back,1.0,m,Tue Aug 12 2025 14:26:15 GMT-0500 (Central Daylight Time),273427.5,152_y_f_n_a.png,O,m,691,9,1,1707.8000001907349,271719.69999980927,7194,NNB,B,8
9,test,4,0.0,1-Back,1.0,m,Tue Aug 12 2025 14:26:15 GMT-0500 (Central Daylight Time),275110.19999980927,178_m_m_n_a.png,O,m,639,10,1,1656.3999998569489,273453.7999999523,7194,NNB,B,9
10,test,4,1.0,1-Back,1.0,z,Tue Aug 12 2025 14:26:15 GMT-0500 (Central Daylight Time),276842.89999985695,178_m_m_n_a.png,O,z,682,11,1,1708.8999998569489,275134.0,7194,NNB,B,10
11,test,4,0.0,1-Back,1.0,m,Tue Aug 12 2025 14:26:15 GMT-0500 (Central Daylight Time),278542.09999990463,086_o_f_n_a.png,O,m,664,12,1,1674.4000000953674,276867.69999980927,7194,NNB,B,11
12,test,4,0.0,1-Back,1.0,m,Tue Aug 12 2025 14:26:15 GMT-0500 (Central Daylight Time),280241.89999985695,176_o_m_n_a.png,O,m,660,13,1,1675.5,278566.39999985695,7194,NNB,B,12
13,test,4,0.0,1-Back,1.0,m,Tue Aug 12 2025 14:26:15 GMT-0500 (Central Daylight Time),282074.69999980927,086_o_f_n_a.png,O,m,793,14,1,1803.8999998569489,280270.7999999523,7194,NNB,B,13
14,test,4,0.0,1-Back,1.0,m,Tue Aug 12 2025 14:26:15 GMT-0500 (Central Daylight Time),283857.2999999523,173_y_f_n_a.png,O,m,737,15,1,1761.7999999523163,282095.5,7194,NNB,B,14
15,test,4,1.0,1-Back,1.0,z,Tue Aug 12 2025 14:26:15 GMT-0500 (Central Daylight Time),285540.19999980927,173_y_f_n_a.png,O,z,633,16,1,1655.0,283885.19999980927,7194,NNB,B,15
16,test,4,0.0,1-Back,1.0,m,Tue Aug 12 2025 14:26:15 GMT-0500 (Central Daylight Time),287156.59999990463,029_m_f_n_a.png,O,m,583,17,1,1594.9000000953674,285561.69999980927,7194,NNB,B,16
17,test,4,1.0,1-Back,1.0,z,Tue Aug 12 2025 14:26:15 GMT-0500 (Central Daylight Time),288955.69999980927,029_m_f_n_a.png,O,z,758,18,1,1778.5,287177.19999980927,7194,NNB,B,17
0,test,5,1.0,1-Back,,,Tue Aug 12 2025 14:26:15 GMT-0500 (Central Daylight Time),288955.69999980927,176_o_m_n_a.png,O,space,1549,1,1,1778.5,287177.19999980927,7194,NNB,B,0
1,test,5,1.0,1-Back,1.0,z,Tue Aug 12 2025 14:26:15 GMT-0500 (Central Daylight Time),294537.2999999523,176_o_m_n_a.png,O,z,952,2,1,1977.4000000953674,292559.89999985695,7194,NNB,B,1
2,test,5,0.0,1-Back,1.0,m,Tue Aug 12 2025 14:26:15 GMT-0500 (Central Daylight Time),296169.89999985695,152_y_f_n_a.png,O,m,586,3,1,1612.7999999523163,294557.09999990463,7194,NNB,B,2
3,test,5,0.0,1-Back,1.0,m,Tue Aug 12 2025 14:26:15 GMT-0500 (Central Daylight Time),297986.09999990463,153_y_m_n_a.png,O,m,776,4,1,1790.5,296195.59999990463,7194,NNB,B,3
4,test,5,0.0,1-Back,1.0,m,Tue Aug 12 2025 14:26:15 GMT-0500 (Central Daylight Time),299635.5,152_y_f_n_a.png,O,m,601,5,1,1621.2000000476837,298014.2999999523,7194,NNB,B,4
5,test,5,0.0,1-Back,1.0,m,Tue Aug 12 2025 14:26:15 GMT-0500 (Central Daylight Time),301285.89999985695,126_m_m_n_a.png,O,m,617,6,1,1620.0,299665.89999985695,7194,NNB,B,5
6,test,5,1.0,1-Back,1.0,z,Tue Aug 12 2025 14:26:15 GMT-0500 (Central Daylight Time),302901.0,126_m_m_n_a.png,O,z,573,7,1,1590.9000000953674,301310.09999990463,7194,NNB,B,6
7,test,5,0.0,1-Back,1.0,m,Tue Aug 12 2025 14:26:15 GMT-0500 (Central Daylight Time),304517.19999980927,173_y_f_n_a.png,O,m,574,8,1,1593.8999998569489,302923.2999999523,7194,NNB,B,7
8,test,5,0.0,1-Back,1.0,m,Tue Aug 12 2025 14:26:15 GMT-0500 (Central Daylight Time),306383.39999985695,013_y_m_n_a.png,O,m,821,9,1,1842.0,304541.39999985695,7194,NNB,B,8
9,test,5,0.0,1-Back,1.0,m,Tue Aug 12 2025 14:26:15 GMT-0500 (Central Daylight Time),308049.2999999523,173_y_f_n_a.png,O,m,619,10,1,1640.2999999523163,306409.0,7194,NNB,B,9
10,test,5,0.0,1-Back,1.0,m,Tue Aug 12 2025 14:26:15 GMT-0500 (Central Daylight Time),309732.09999990463,086_o_f_n_a.png,O,m,635,11,1,1661.7999999523163,308070.2999999523,7194,NNB,B,10
11,test,5,1.0,1-Back,1.0,z,Tue Aug 12 2025 14:26:15 GMT-0500 (Central Daylight Time),311398.2999999523,086_o_f_n_a.png,O,z,622,12,1,1642.5,309755.7999999523,7194,NNB,B,11
12,test,5,0.0,1-Back,1.0,m,Tue Aug 12 2025 14:26:15 GMT-0500 (Central Daylight Time),313097.7999999523,065_o_m_n_a.png,O,m,651,13,1,1675.7999999523163,311422.0,7194,NNB,B,12
13,test,5,0.0,1-Back,1.0,m,Tue Aug 12 2025 14:26:15 GMT-0500 (Central Daylight Time),314714.0,097_m_f_n_a.png,O,m,568,14,1,1585.8000001907349,313128.19999980927,7194,NNB,B,13
14,test,5,1.0,1-Back,1.0,z,Tue Aug 12 2025 14:26:15 GMT-0500 (Central Daylight Time),317179.69999980927,097_m_f_n_a.png,O,z,1425,15,1,2449.399999856949,314730.2999999523,7194,NNB,B,14
15,test,5,0.0,1-Back,1.0,m,Tue Aug 12 2025 14:26:15 GMT-0500 (Central Daylight Time),318795.89999985695,065_o_m_n_a.png,O,m,566,16,1,1592.0999999046326,317203.7999999523,7194,NNB,B,15
16,test,5,0.0,1-Back,1.0,m,Tue Aug 12 2025 14:26:15 GMT-0500 (Central Daylight Time),320412.0,029_m_f_n_a.png,O,m,574,17,1,1591.8000001907349,318820.19999980927,7194,NNB,B,16
17,test,5,0.0,1-Back,1.0,m,Tue Aug 12 2025 14:26:15 GMT-0500 (Central Daylight Time),322111.59999990463,178_m_m_n_a.png,O,m,658,18,1,1678.5999999046326,320433.0,7194,NNB,B,17
0,prac,1,0.0,2-Back,,,Tue Aug 12 2025 14:26:15 GMT-0500 (Central Daylight Time),322111.59999990463,013_y_m_n_a.png,O,space,8209,1,1,1678.5999999046326,320433.0,7194,NNB,B,0
0,prac,1,0.0,2-Back,,,Tue Aug 12 2025 14:26:15 GMT-0500 (Central Daylight Time),322111.59999990463,029_m_f_n_a.png,O,space,8209,2,1,1678.5999999046326,320433.0,7194,NNB,B,0
1,prac,1,1.0,2-Back,1.0,m,Tue Aug 12 2025 14:26:15 GMT-0500 (Central Daylight Time),474195.2999999523,065_o_m_n_a.png,O,m,1519,3,1,2443.2000000476837,471752.09999990463,7194,NNB,B,1
2,prac,1,0.0,2-Back,1.0,m,Tue Aug 12 2025 14:26:15 GMT-0500 (Central Daylight Time),476311.19999980927,086_o_f_n_a.png,O,m,1135,4,1,2081.899999856949,474229.2999999523,7194,NNB,B,2
3,prac,1,0.0,2-Back,1.0,z,Tue Aug 12 2025 14:26:15 GMT-0500 (Central Daylight Time),478427.0,065_o_m_n_a.png,O,z,1309,5,1,2079.4000000953674,476347.59999990463,7194,NNB,B,3
3,prac,1,1.0,2-Back,0.0,z,Tue Aug 12 2025 14:26:15 GMT-0500 (Central Daylight Time),481142.59999990463,086_o_f_n_a.png,O,m,1906,6,1,2676.7000000476837,478465.89999985695,7194,NNB,B,4
3,prac,1,0.0,2-Back,0.0,m,Tue Aug 12 2025 14:26:15 GMT-0500 (Central Daylight Time),484108.2999999523,178_m_m_n_a.png,O,None,2013,7,1,2927.4000000953674,481180.89999985695,7194,NNB,B,5
4,prac,1,0.0,2-Back,1.0,m,Tue Aug 12 2025 14:26:15 GMT-0500 (Central Daylight Time),486241.0,176_o_m_n_a.png,O,m,1191,8,1,2109.2000000476837,484131.7999999523,7194,NNB,B,6
5,prac,1,0.0,2-Back,1.0,m,Tue Aug 12 2025 14:26:15 GMT-0500 (Central Daylight Time),488157.2999999523,173_y_f_n_a.png,O,m,971,9,1,1879.2999999523163,486278.0,7194,NNB,B,7
5,prac,1,1.0,2-Back,0.0,z,Tue Aug 12 2025 14:26:15 GMT-0500 (Central Daylight Time),490089.69999980927,176_o_m_n_a.png,O,m,1134,10,1,1908.0999999046326,488181.59999990463,7194,NNB,B,8
6,prac,1,0.0,2-Back,1.0,m,Tue Aug 12 2025 14:26:15 GMT-0500 (Central Daylight Time),492122.59999990463,152_y_f_n_a.png,O,m,1080,11,1,2001.0,490121.59999990463,7194,NNB,B,9
7,prac,1,0.0,2-Back,1.0,m,Tue Aug 12 2025 14:26:15 GMT-0500 (Central Daylight Time),494655.09999990463,178_m_m_n_a.png,O,m,1714,12,1,2494.2999999523163,492160.7999999523,7194,NNB,B,10
0,test,1,0.0,2-Back,,,Tue Aug 12 2025 14:26:15 GMT-0500 (Central Daylight Time),494655.09999990463,153_y_m_n_a.png,O,space,9271,1,1,2494.2999999523163,492160.7999999523,7194,NNB,B,0
0,test,1,0.0,2-Back,,,Tue Aug 12 2025 14:26:15 GMT-0500 (Central Daylight Time),494655.09999990463,153_y_m_n_a.png,O,space,9271,2,1,2494.2999999523163,492160.7999999523,7194,NNB,B,0
1,test,1,0.0,2-Back,1.0,m,Tue Aug 12 2025 14:26:15 GMT-0500 (Central Daylight Time),518080.69999980927,086_o_f_n_a.png,O,m,903,3,1,1925.0,516155.69999980927,7194,NNB,B,1
2,test,1,0.0,2-Back,1.0,m,Tue Aug 12 2025 14:26:15 GMT-0500 (Central Daylight Time),520146.59999990463,126_m_m_n_a.png,O,m,1018,4,1,2044.2000000476837,518102.39999985695,7194,NNB,B,2
3,test,1,1.0,2-Back,1.0,z,Tue Aug 12 2025 14:26:15 GMT-0500 (Central Daylight Time),522312.59999990463,086_o_f_n_a.png,O,z,862,5,1,2143.0999999046326,520169.5,7194,NNB,B,3
4,test,1,0.0,2-Back,1.0,m,Tue Aug 12 2025 14:26:15 GMT-0500 (Central Daylight Time),524345.2999999523,152_y_f_n_a.png,O,m,986,6,1,2009.2999999523163,522336.0,7194,NNB,B,4
4,test,1,0.0,2-Back,0.0,m,Tue Aug 12 2025 14:26:15 GMT-0500 (Central Daylight Time),526894.0999999046,126_m_m_n_a.png,O,z,1513,7,1,2522.4000000953674,524371.6999998093,7194,NNB,B,5
4,test,1,1.0,2-Back,0.0,z,Tue Aug 12 2025 14:26:15 GMT-0500 (Central Daylight Time),528627.1999998093,152_y_f_n_a.png,O,m,692,8,1,1708.6999998092651,526918.5,7194,NNB,B,6
5,test,1,0.0,2-Back,1.0,m,Tue Aug 12 2025 14:26:15 GMT-0500 (Central Daylight Time),530659.7999999523,013_y_m_n_a.png,O,m,984,9,1,2006.0,528653.7999999523,7194,NNB,B,7
6,test,1,0.0,2-Back,1.0,m,Tue Aug 12 2025 14:26:15 GMT-0500 (Central Daylight Time),532626.0,110_o_f_n_a.png,O,m,918,10,1,1940.1000001430511,530685.899999857,7194,NNB,B,8
7,test,1,1.0,2-Back,1.0,z,Tue Aug 12 2025 14:26:15 GMT-0500 (Central Daylight Time),535024.0999999046,013_y_m_n_a.png,O,z,1350,11,1,2374.4000000953674,532649.6999998093,7194,NNB,B,9
8,test,1,0.0,2-Back,1.0,m,Tue Aug 12 2025 14:26:15 GMT-0500 (Central Daylight Time),536957.6999998093,029_m_f_n_a.png,O,m,907,12,1,1929.6999998092651,535028.0,7194,NNB,B,10
8,test,1,0.0,2-Back,0.0,m,Tue Aug 12 2025 14:26:15 GMT-0500 (Central Daylight Time),540006.899999857,029_m_f_n_a.png,O,None,2014,13,1,3029.399999856949,536977.5,7194,NNB,B,11
9,test,1,0.0,2-Back,1.0,m,Tue Aug 12 2025 14:26:15 GMT-0500 (Central Daylight Time),541972.6999998093,065_o_m_n_a.png,O,m,924,14,1,1944.7999999523163,540027.899999857,7194,NNB,B,12
10,test,1,0.0,2-Back,1.0,m,Tue Aug 12 2025 14:26:15 GMT-0500 (Central Daylight Time),543855.5,110_o_f_n_a.png,O,m,854,15,1,1868.9000000953674,541986.5999999046,7194,NNB,B,13
11,test,1,1.0,2-Back,1.0,z,Tue Aug 12 2025 14:26:15 GMT-0500 (Central Daylight Time),545705.0,065_o_m_n_a.png,O,z,803,16,1,1825.3000001907349,543879.6999998093,7194,NNB,B,14
12,test,1,0.0,2-Back,1.0,m,Tue Aug 12 2025 14:26:15 GMT-0500 (Central Daylight Time),547870.899999857,097_m_f_n_a.png,O,m,1122,17,1,2144.0,545726.899999857,7194,NNB,B,15
12,test,1,0.0,2-Back,0.0,m,Tue Aug 12 2025 14:26:15 GMT-0500 (Central Daylight Time),550003.1999998093,178_m_m_n_a.png,O,z,1091,18,1,2111.899999856949,547891.2999999523,7194,NNB,B,16
0,test,2,0.0,2-Back,,,Tue Aug 12 2025 14:26:15 GMT-0500 (Central Daylight Time),550003.1999998093,178_m_m_n_a.png,O,space,4143,1,1,2111.899999856949,547891.2999999523,7194,NNB,B,0
0,test,2,0.0,2-Back,,,Tue Aug 12 2025 14:26:15 GMT-0500 (Central Daylight Time),550003.1999998093,173_y_f_n_a.png,O,space,4143,2,1,2111.899999856949,547891.2999999523,7194,NNB,B,0
1,test,2,1.0,2-Back,1.0,z,Tue Aug 12 2025 14:26:15 GMT-0500 (Central Daylight Time),561699.399999857,178_m_m_n_a.png,O,z,1300,3,1,2321.7999999523163,559377.5999999046,7194,NNB,B,1
2,test,2,0.0,2-Back,1.0,m,Tue Aug 12 2025 14:26:15 GMT-0500 (Central Daylight Time),563565.399999857,097_m_f_n_a.png,O,m,814,4,1,1842.3999998569489,561723.0,7194,NNB,B,2
2,test,2,0.0,2-Back,0.0,m,Tue Aug 12 2025 14:26:15 GMT-0500 (Central Daylight Time),565648.2999999523,173_y_f_n_a.png,O,z,1037,5,1,2057.7000000476837,563590.5999999046,7194,NNB,B,3
3,test,2,0.0,2-Back,1.0,m,Tue Aug 12 2025 14:26:15 GMT-0500 (Central Daylight Time),567614.399999857,065_o_m_n_a.png,O,m,930,6,1,1941.5,565672.899999857,7194,NNB,B,4
4,test,2,0.0,2-Back,1.0,m,Tue Aug 12 2025 14:26:15 GMT-0500 (Central Daylight Time),569580.7999999523,152_y_f_n_a.png,O,m,932,7,1,1948.2999999523163,567632.5,7194,NNB,B,5
5,test,2,1.0,2-Back,1.0,z,Tue Aug 12 2025 14:26:15 GMT-0500 (Central Daylight Time),571363.0999999046,065_o_m_n_a.png,O,z,735,8,1,1757.5,569605.5999999046,7194,NNB,B,6
6,test,2,0.0,2-Back,1.0,m,Tue Aug 12 2025 14:26:15 GMT-0500 (Central Daylight Time),573478.899999857,013_y_m_n_a.png,O,m,1071,9,1,2096.7000000476837,571382.1999998093,7194,NNB,B,7
7,test,2,0.0,2-Back,1.0,m,Tue Aug 12 2025 14:26:15 GMT-0500 (Central Daylight Time),575745.0999999046,013_y_m_n_a.png,O,m,1227,10,1,2239.5999999046326,573505.5,7194,NNB,B,8
8,test,2,0.0,2-Back,1.0,m,Tue Aug 12 2025 14:26:15 GMT-0500 (Central Daylight Time),577960.6999998093,029_m_f_n_a.png,O,m,1169,11,1,2195.5999999046326,575765.0999999046,7194,NNB,B,9
8,test,2,0.0,2-Back,0.0,m,Tue Aug 12 2025 14:26:15 GMT-0500 (Central Daylight Time),580309.899999857,173_y_f_n_a.png,O,z,1313,12,1,2325.5,577984.399999857,7194,NNB,B,10
9,test,2,1.0,2-Back,1.0,z,Tue Aug 12 2025 14:26:15 GMT-0500 (Central Daylight Time),582326.0,029_m_f_n_a.png,O,z,981,13,1,1998.3000001907349,580327.6999998093,7194,NNB,B,11
10,test,2,0.0,2-Back,1.0,m,Tue Aug 12 2025 14:26:15 GMT-0500 (Central Daylight Time),584275.5,176_o_m_n_a.png,O,m,901,14,1,1928.6000001430511,582346.899999857,7194,NNB,B,12
11,test,2,0.0,2-Back,1.0,m,Tue Aug 12 2025 14:26:15 GMT-0500 (Central Daylight Time),586324.899999857,176_o_m_n_a.png,O,m,1008,15,1,2028.0,584296.899999857,7194,NNB,B,13
12,test,2,0.0,2-Back,1.0,m,Tue Aug 12 2025 14:26:15 GMT-0500 (Central Daylight Time),588840.7999999523,110_o_f_n_a.png,O,m,1469,16,1,2495.600000143051,586345.1999998093,7194,NNB,B,14
13,test,2,0.0,2-Back,1.0,m,Tue Aug 12 2025 14:26:15 GMT-0500 (Central Daylight Time),590873.2999999523,126_m_m_n_a.png,O,m,987,17,1,2010.6000001430511,588862.6999998093,7194,NNB,B,15
14,test,2,1.0,2-Back,1.0,z,Tue Aug 12 2025 14:26:15 GMT-0500 (Central Daylight Time),592539.6999998093,110_o_f_n_a.png,O,z,617,18,1,1641.0999999046326,590898.5999999046,7194,NNB,B,16
0,test,3,1.0,2-Back,,,Tue Aug 12 2025 14:26:15 GMT-0500 (Central Daylight Time),592539.6999998093,153_y_m_n_a.png,O,space,2501,1,1,1641.0999999046326,590898.5999999046,7194,NNB,B,0
0,test,3,1.0,2-Back,,,Tue Aug 12 2025 14:26:15 GMT-0500 (Central Daylight Time),592539.6999998093,153_y_m_n_a.png,O,space,2501,2,1,1641.0999999046326,590898.5999999046,7194,NNB,B,0
1,test,3,0.0,2-Back,1.0,m,Tue Aug 12 2025 14:26:15 GMT-0500 (Central Daylight Time),602019.899999857,110_o_f_n_a.png,O,m,716,3,1,1744.2999999523163,600275.5999999046,7194,NNB,B,1
2,test,3,0.0,2-Back,1.0,m,Tue Aug 12 2025 14:26:15 GMT-0500 (Central Daylight Time),604018.2999999523,178_m_m_n_a.png,O,m,957,4,1,1976.2999999523163,602042.0,7194,NNB,B,2
3,test,3,1.0,2-Back,1.0,z,Tue Aug 12 2025 14:26:15 GMT-0500 (Central Daylight Time),605918.5,110_o_f_n_a.png,O,z,872,5,1,1896.5,604022.0,7194,NNB,B,3
4,test,3,0.0,2-Back,1.0,m,Tue Aug 12 2025 14:26:15 GMT-0500 (Central Daylight Time),607917.899999857,013_y_m_n_a.png,O,m,956,6,1,1976.2000000476837,605941.6999998093,7194,NNB,B,4
4,test,3,0.0,2-Back,0.0,m,Tue Aug 12 2025 14:26:15 GMT-0500 (Central Daylight Time),609983.399999857,178_m_m_n_a.png,O,z,1027,7,1,2043.8999998569489,607939.5,7194,NNB,B,5
5,test,3,1.0,2-Back,1.0,z,Tue Aug 12 2025 14:26:15 GMT-0500 (Central Daylight Time),612216.2999999523,013_y_m_n_a.png,O,z,1204,8,1,2224.2999999523163,609992.0,7194,NNB,B,6
6,test,3,0.0,2-Back,1.0,m,Tue Aug 12 2025 14:26:15 GMT-0500 (Central Daylight Time),614281.5,173_y_f_n_a.png,O,m,1018,9,1,2050.600000143051,612230.899999857,7194,NNB,B,7
7,test,3,0.0,2-Back,1.0,m,Tue Aug 12 2025 14:26:15 GMT-0500 (Central Daylight Time),616130.7999999523,126_m_m_n_a.png,O,m,833,10,1,1845.5,614285.2999999523,7194,NNB,B,8
8,test,3,1.0,2-Back,1.0,z,Tue Aug 12 2025 14:26:15 GMT-0500 (Central Daylight Time),618080.2999999523,173_y_f_n_a.png,O,z,919,11,1,1945.9000000953674,616134.399999857,7194,NNB,B,9
9,test,3,1.0,2-Back,1.0,z,Tue Aug 12 2025 14:26:15 GMT-0500 (Central Daylight Time),619963.899999857,126_m_m_n_a.png,O,z,858,12,1,1879.7999999523163,618084.0999999046,7194,NNB,B,10
10,test,3,0.0,2-Back,1.0,m,Tue Aug 12 2025 14:26:15 GMT-0500 (Central Daylight Time),621796.6999998093,110_o_f_n_a.png,O,m,790,13,1,1803.6999998092651,619993.0,7194,NNB,B,11
11,test,3,0.0,2-Back,1.0,m,Tue Aug 12 2025 14:26:15 GMT-0500 (Central Daylight Time),623645.0999999046,097_m_f_n_a.png,O,m,806,14,1,1830.2000000476837,621814.899999857,7194,NNB,B,12
12,test,3,0.0,2-Back,1.0,m,Tue Aug 12 2025 14:26:15 GMT-0500 (Central Daylight Time),625561.899999857,065_o_m_n_a.png,O,m,885,15,1,1912.2999999523163,623649.5999999046,7194,NNB,B,13
13,test,3,1.0,2-Back,1.0,z,Tue Aug 12 2025 14:26:15 GMT-0500 (Central Daylight Time),627378.1999998093,097_m_f_n_a.png,O,z,776,16,1,1793.3999998569489,625584.7999999523,7194,NNB,B,14
14,test,3,0.0,2-Back,1.0,m,Tue Aug 12 2025 14:26:15 GMT-0500 (Central Daylight Time),629377.399999857,086_o_f_n_a.png,O,m,961,17,1,1975.5,627401.899999857,7194,NNB,B,15
14,test,3,0.0,2-Back,0.0,m,Tue Aug 12 2025 14:26:15 GMT-0500 (Central Daylight Time),631693.0999999046,086_o_f_n_a.png,O,z,1273,18,1,2294.2999999523163,629398.7999999523,7194,NNB,B,16
0,test,4,0.0,2-Back,,,Tue Aug 12 2025 14:26:15 GMT-0500 (Central Daylight Time),631693.0999999046,176_o_m_n_a.png,O,space,3982,1,1,2294.2999999523163,629398.7999999523,7194,NNB,B,0
0,test,4,0.0,2-Back,,,Tue Aug 12 2025 14:26:15 GMT-0500 (Central Daylight Time),631693.0999999046,152_y_f_n_a.png,O,space,3982,2,1,2294.2999999523163,629398.7999999523,7194,NNB,B,0
1,test,4,1.0,2-Back,1.0,z,Tue Aug 12 2025 14:26:15 GMT-0500 (Central Daylight Time),643239.5999999046,176_o_m_n_a.png,O,z,1172,3,1,2194.2999999523163,641045.2999999523,7194,NNB,B,1
2,test,4,1.0,2-Back,1.0,z,Tue Aug 12 2025 14:26:15 GMT-0500 (Central Daylight Time),645322.2999999523,152_y_f_n_a.png,O,z,1035,4,1,2061.9000000953674,643260.399999857,7194,NNB,B,2
3,test,4,0.0,2-Back,1.0,m,Tue Aug 12 2025 14:26:15 GMT-0500 (Central Daylight Time),647187.5999999046,110_o_f_n_a.png,O,m,824,5,1,1840.7999999523163,645346.7999999523,7194,NNB,B,3
4,test,4,0.0,2-Back,1.0,m,Tue Aug 12 2025 14:26:15 GMT-0500 (Central Daylight Time),649404.1999998093,110_o_f_n_a.png,O,m,1183,6,1,2209.0999999046326,647195.0999999046,7194,NNB,B,4
5,test,4,0.0,2-Back,1.0,m,Tue Aug 12 2025 14:26:15 GMT-0500 (Central Daylight Time),651720.0999999046,029_m_f_n_a.png,O,m,1277,7,1,2290.0,649430.0999999046,7194,NNB,B,5
6,test,4,0.0,2-Back,1.0,m,Tue Aug 12 2025 14:26:15 GMT-0500 (Central Daylight Time),653735.1999998093,013_y_m_n_a.png,O,m,977,8,1,1993.5,651741.6999998093,7194,NNB,B,6
7,test,4,1.0,2-Back,1.0,z,Tue Aug 12 2025 14:26:15 GMT-0500 (Central Daylight Time),655635.5,029_m_f_n_a.png,O,z,867,9,1,1893.0,653742.5,7194,NNB,B,7
8,test,4,0.0,2-Back,1.0,m,Tue Aug 12 2025 14:26:15 GMT-0500 (Central Daylight Time),657734.6999998093,126_m_m_n_a.png,O,m,1031,10,1,2048.899999856949,655685.7999999523,7194,NNB,B,8
8,test,4,0.0,2-Back,0.0,m,Tue Aug 12 2025 14:26:15 GMT-0500 (Central Daylight Time),659900.899999857,013_y_m_n_a.png,O,z,1121,11,1,2145.0999999046326,657755.7999999523,7194,NNB,B,9
8,test,4,0.0,2-Back,0.0,m,Tue Aug 12 2025 14:26:15 GMT-0500 (Central Daylight Time),662099.899999857,086_o_f_n_a.png,O,z,1158,12,1,2169.0999999046326,659930.7999999523,7194,NNB,B,10
9,test,4,0.0,2-Back,1.0,m,Tue Aug 12 2025 14:26:15 GMT-0500 (Central Daylight Time),664449.1999998093,153_y_m_n_a.png,O,m,1302,13,1,2329.7999999523163,662119.399999857,7194,NNB,B,11
9,test,4,1.0,2-Back,0.0,z,Tue Aug 12 2025 14:26:15 GMT-0500 (Central Daylight Time),666765.2999999523,086_o_f_n_a.png,O,m,1273,14,1,2293.7999999523163,664471.5,7194,NNB,B,12
10,test,4,1.0,2-Back,1.0,z,Tue Aug 12 2025 14:26:15 GMT-0500 (Central Daylight Time),668881.1999998093,153_y_m_n_a.png,O,z,1077,15,1,2095.2999999523163,666785.899999857,7194,NNB,B,13
11,test,4,0.0,2-Back,1.0,m,Tue Aug 12 2025 14:26:15 GMT-0500 (Central Daylight Time),670980.899999857,178_m_m_n_a.png,O,m,1065,16,1,2075.2000000476837,668905.6999998093,7194,NNB,B,14
12,test,4,0.0,2-Back,1.0,m,Tue Aug 12 2025 14:26:15 GMT-0500 (Central Daylight Time),673029.5999999046,097_m_f_n_a.png,O,m,990,17,1,2015.0999999046326,671014.5,7194,NNB,B,15
13,test,4,1.0,2-Back,1.0,z,Tue Aug 12 2025 14:26:15 GMT-0500 (Central Daylight Time),674862.2999999523,178_m_m_n_a.png,O,z,796,18,1,1808.2999999523163,673054.0,7194,NNB,B,16
0,test,5,1.0,2-Back,,,Tue Aug 12 2025 14:26:15 GMT-0500 (Central Daylight Time),674862.2999999523,153_y_m_n_a.png,O,space,3251,1,1,1808.2999999523163,673054.0,7194,NNB,B,0
0,test,5,1.0,2-Back,,,Tue Aug 12 2025 14:26:15 GMT-0500 (Central Daylight Time),674862.2999999523,097_m_f_n_a.png,O,space,3251,2,1,1808.2999999523163,673054.0,7194,NNB,B,0
1,test,5,1.0,2-Back,1.0,z,Tue Aug 12 2025 14:26:15 GMT-0500 (Central Daylight Time),685075.7999999523,153_y_m_n_a.png,O,z,850,3,1,1873.2999999523163,683202.5,7194,NNB,B,1
2,test,5,1.0,2-Back,1.0,z,Tue Aug 12 2025 14:26:15 GMT-0500 (Central Daylight Time),686942.0,097_m_f_n_a.png,O,z,822,4,1,1840.0,685102.0,7194,NNB,B,2
3,test,5,0.0,2-Back,1.0,m,Tue Aug 12 2025 14:26:15 GMT-0500 (Central Daylight Time),688791.1999998093,086_o_f_n_a.png,O,m,814,5,1,1824.0999999046326,686967.0999999046,7194,NNB,B,3
3,test,5,0.0,2-Back,0.0,m,Tue Aug 12 2025 14:26:15 GMT-0500 (Central Daylight Time),690840.5999999046,153_y_m_n_a.png,O,z,1011,6,1,2031.4000000953674,688809.1999998093,7194,NNB,B,4
4,test,5,0.0,2-Back,1.0,m,Tue Aug 12 2025 14:26:15 GMT-0500 (Central Daylight Time),692856.5999999046,173_y_f_n_a.png,O,m,971,7,1,1990.7999999523163,690865.7999999523,7194,NNB,B,5
4,test,5,0.0,2-Back,0.0,m,Tue Aug 12 2025 14:26:15 GMT-0500 (Central Daylight Time),694771.6999998093,086_o_f_n_a.png,O,z,881,8,1,1889.3999998569489,692882.2999999523,7194,NNB,B,6
5,test,5,1.0,2-Back,1.0,z,Tue Aug 12 2025 14:26:15 GMT-0500 (Central Daylight Time),696672.0,173_y_f_n_a.png,O,z,870,9,1,1888.7000000476837,694783.2999999523,7194,NNB,B,7
6,test,5,0.0,2-Back,1.0,m,Tue Aug 12 2025 14:26:15 GMT-0500 (Central Daylight Time),698688.0,065_o_m_n_a.png,O,m,969,10,1,1993.7000000476837,696694.2999999523,7194,NNB,B,8
7,test,5,0.0,2-Back,1.0,m,Tue Aug 12 2025 14:26:15 GMT-0500 (Central Daylight Time),700637.2999999523,029_m_f_n_a.png,O,m,907,11,1,1928.6000001430511,698708.6999998093,7194,NNB,B,9
8,test,5,0.0,2-Back,1.0,m,Tue Aug 12 2025 14:26:15 GMT-0500 (Central Daylight Time),702569.6999998093,126_m_m_n_a.png,O,m,894,12,1,1906.6999998092651,700663.0,7194,NNB,B,10
8,test,5,0.0,2-Back,0.0,m,Tue Aug 12 2025 14:26:15 GMT-0500 (Central Daylight Time),704202.7999999523,065_o_m_n_a.png,O,z,609,13,1,1623.1000001430511,702579.6999998093,7194,NNB,B,11
8,test,5,1.0,2-Back,0.0,z,Tue Aug 12 2025 14:26:15 GMT-0500 (Central Daylight Time),706068.899999857,126_m_m_n_a.png,O,m,831,14,1,1845.5999999046326,704223.2999999523,7194,NNB,B,12
9,test,5,0.0,2-Back,1.0,m,Tue Aug 12 2025 14:26:15 GMT-0500 (Central Daylight Time),708168.2999999523,152_y_f_n_a.png,O,m,1053,15,1,2073.2999999523163,706095.0,7194,NNB,B,13
10,test,5,0.0,2-Back,1.0,m,Tue Aug 12 2025 14:26:15 GMT-0500 (Central Daylight Time),710116.899999857,176_o_m_n_a.png,O,m,913,16,1,1929.0,708187.899999857,7194,NNB,B,14
11,test,5,0.0,2-Back,1.0,m,Tue Aug 12 2025 14:26:15 GMT-0500 (Central Daylight Time),712167.0999999046,029_m_f_n_a.png,O,m,1027,17,1,2046.5,710120.5999999046,7194,NNB,B,15
12,test,5,1.0,2-Back,1.0,z,Tue Aug 12 2025 14:26:15 GMT-0500 (Central Daylight Time),714132.0,176_o_m_n_a.png,O,z,931,18,1,1939.7000000476837,712192.2999999523,7194,NNB,B,16
