acc_sum,block,block_c,condition,correct,correct_response,datetime,endtime,flanker,jitter,project,response,response_test_buffer_response,response_test_target_response,response_time,response_time_test_buffer_response,response_time_test_target_response,row_sel,session_number,start_end,starttime,subject_id,target,task,task_vers,time_test_buffer,time_test_buffer_response,time_test_constants,time_test_flanker,time_test_jitter,time_test_logger,time_test_target,time_test_target_response,time_test_variables,trial
1,prac,1,inc,1,z,Thu May 29 2025 16:59:17 GMT-0400 (Eastern Daylight Time),124220.80000007153,rock,900,I,z,,,814,,,10,1,3008.0,121212.80000007153,9018,kind,AF,A,,,,,,,,,,1
2,prac,1,inc,1,m,Thu May 29 2025 16:59:17 GMT-0400 (Eastern Daylight Time),127287.5,brutal,1100,I,m,,,661,,,8,1,3054.399999976158,124233.10000002384,9018,window,AF,A,,,,,,,,,,2
3,prac,1,con,1,z,Thu May 29 2025 16:59:17 GMT-0400 (Eastern Daylight Time),130287.20000004768,love,1000,I,z,,,686,,,11,1,2988.899999976158,127298.30000007153,9018,love,AF,A,,,,,,,,,,3
3,prac,1,inc,0,z,Thu May 29 2025 16:59:17 GMT-0400 (Eastern Daylight Time),133337.20000004768,napkin,1100,I,m,,,635,,,12,1,3038.8000000715256,130298.39999997616,9018,friend,AF,A,,,,,,,,,,4
4,prac,1,con,1,z,Thu May 29 2025 16:59:17 GMT-0400 (Eastern Daylight Time),136353.70000004768,rage,1000,I,z,,,708,,,15,1,3006.899999976158,133346.80000007153,9018,rage,AF,A,,,,,,,,,,5
5,prac,1,con,1,m,Thu May 29 2025 16:59:17 GMT-0400 (Eastern Daylight Time),139187.20000004768,step,800,I,m,,,724,,,1,1,2823.5,136363.70000004768,9018,step,AF,A,,,,,,,,,,6
6,prac,1,con,1,m,Thu May 29 2025 16:59:17 GMT-0400 (Eastern Daylight Time),142153.89999997616,remote,1000,I,m,,,658,,,7,1,2956.6999999284744,139197.20000004768,9018,remote,AF,A,,,,,,,,,,7
7,prac,1,con,1,m,Thu May 29 2025 16:59:17 GMT-0400 (Eastern Daylight Time),145137.30000007153,bell,1000,I,m,,,676,,,3,1,2973.7000000476837,142163.60000002384,9018,bell,AF,A,,,,,,,,,,8
8,prac,1,con,1,z,Thu May 29 2025 16:59:17 GMT-0400 (Eastern Daylight Time),147903.89999997616,elated,800,I,z,,,661,,,9,1,2758.1999999284744,145145.70000004768,9018,elated,AF,A,,,,,,,,,,9
9,prac,1,inc,1,z,Thu May 29 2025 16:59:17 GMT-0400 (Eastern Daylight Time),151120.5,window,1100,I,z,,,811,,,16,1,3207.100000023842,147913.39999997616,9018,temper,AF,A,,,,,,,,,,10
10,prac,1,inc,1,m,Thu May 29 2025 16:59:17 GMT-0400 (Eastern Daylight Time),153887.30000007153,kind,900,I,m,,,562,,,2,1,2755.8000000715256,151131.5,9018,rock,AF,A,,,,,,,,,,11
11,prac,1,con,1,z,Thu May 29 2025 16:59:17 GMT-0400 (Eastern Daylight Time),156687.20000004768,brutal,800,I,z,,,687,,,13,1,2792.100000023842,153895.10000002384,9018,brutal,AF,A,,,,,,,,,,12
12,prac,1,inc,1,m,Thu May 29 2025 16:59:17 GMT-0400 (Eastern Daylight Time),159503.70000004768,elated,900,I,m,,,611,,,6,1,2804.7000000476837,156699.0,9018,napkin,AF,A,,,,,,,,,,13
13,prac,1,inc,1,z,Thu May 29 2025 16:59:17 GMT-0400 (Eastern Daylight Time),162403.80000007153,film,900,I,z,,,690,,,14,1,2892.3000000715256,159511.5,9018,hate,AF,A,,,,,,,,,,14
14,prac,1,con,1,m,Thu May 29 2025 16:59:17 GMT-0400 (Eastern Daylight Time),165087.20000004768,jacket,800,I,m,,,570,,,5,1,2673.8000000715256,162413.39999997616,9018,jacket,AF,A,,,,,,,,,,15
15,prac,1,inc,1,m,Thu May 29 2025 16:59:17 GMT-0400 (Eastern Daylight Time),168170.5,hate,1100,I,m,,,667,,,4,1,3073.600000023842,165096.89999997616,9018,film,AF,A,,,,,,,,,,16
1,test,1,inc,1,m,Thu May 29 2025 16:59:17 GMT-0400 (Eastern Daylight Time),182954.0,temper,1000,I,m,m,None,519,320.0,199.0,103,1,2059.100000023842,180894.89999997616,9018,jacket,AF,A,176655,176655,174929,175938,174930,176988,176455,176455,176988,1
2,test,1,con,1,z,Thu May 29 2025 16:59:17 GMT-0400 (Eastern Daylight Time),185103.5,friend,900,I,z,z,None,711,512.0,199.0,26,1,2140.1999999284744,182963.30000007153,9018,friend,AF,A,178622,178622,176997,177905,176998,179138,178422,178422,179137,2
3,test,1,inc,1,z,Thu May 29 2025 16:59:17 GMT-0400 (Eastern Daylight Time),187153.39999997616,napkin,900,I,z,z,None,601,402.0,199.0,62,1,2043.0999999046326,185110.30000007153,9018,temper,AF,A,180772,180772,179144,180055,179145,181187,180572,180572,181187,3
4,test,1,inc,1,z,Thu May 29 2025 16:59:17 GMT-0400 (Eastern Daylight Time),189203.80000007153,rock,900,I,z,z,None,607,408.0,199.0,22,1,2043.3000000715256,187160.5,9018,love,AF,A,182822,182822,181195,182105,181195,183238,182622,182622,183238,4
5,test,1,inc,1,m,Thu May 29 2025 16:59:17 GMT-0400 (Eastern Daylight Time),191303.80000007153,brutal,900,I,m,m,None,637,438.0,199.0,118,1,2085.100000023842,189218.70000004768,9018,remote,AF,A,184888,184889,183253,184172,183254,185338,184689,184689,185338,5
6,test,1,inc,1,z,Thu May 29 2025 16:59:17 GMT-0400 (Eastern Daylight Time),193203.39999997616,jacket,800,I,z,z,None,557,358.0,199.0,5,1,1890.0,191313.39999997616,9018,elated,AF,A,186872,186872,185347,186155,185348,187237,186672,186672,187237,6
7,test,1,inc,1,m,Thu May 29 2025 16:59:17 GMT-0400 (Eastern Daylight Time),195420.5,hate,1100,I,m,m,None,566,367.0,199.0,80,1,2208.5,193212.0,9018,rock,AF,A,189072,189072,187246,188355,187247,189455,188872,188872,189454,7
8,test,1,inc,1,z,Thu May 29 2025 16:59:17 GMT-0400 (Eastern Daylight Time),197471.39999997616,rock,900,I,z,z,None,613,414.0,199.0,46,1,2040.3999999761581,195431.0,9018,hate,AF,A,191088,191089,189465,190372,189465,191506,190889,190889,191505,8
9,test,1,con,1,z,Thu May 29 2025 16:59:17 GMT-0400 (Eastern Daylight Time),199737.0,temper,900,I,z,z,None,827,628.0,199.0,58,1,2254.0,197483.0,9018,temper,AF,A,193138,193139,191517,192422,191518,193771,192939,192939,193771,9
10,test,1,inc,1,m,Thu May 29 2025 16:59:17 GMT-0400 (Eastern Daylight Time),201653.80000007153,brutal,900,I,m,m,None,473,274.0,199.0,110,1,1907.4000000953674,199746.39999997616,9018,napkin,AF,A,195405,195405,193780,194689,193781,195688,195205,195205,195688,10
11,test,1,con,1,z,Thu May 29 2025 16:59:17 GMT-0400 (Eastern Daylight Time),203903.70000004768,rage,1100,I,z,z,None,605,405.0,200.0,52,1,2239.8000000715256,201663.89999997616,9018,rage,AF,A,197522,197522,195698,196805,195699,197938,197321,197321,197938,11
12,test,1,con,1,m,Thu May 29 2025 16:59:17 GMT-0400 (Eastern Daylight Time),206103.70000004768,napkin,1100,I,m,m,None,562,363.0,199.0,108,1,2191.2000000476837,203912.5,9018,napkin,AF,A,199772,199772,197946,199055,197947,200138,199572,199572,200138,12
13,test,1,con,1,z,Thu May 29 2025 16:59:17 GMT-0400 (Eastern Daylight Time),208187.20000004768,friend,1000,I,z,z,None,534,335.0,199.0,27,1,2074.399999976158,206112.80000007153,9018,friend,AF,A,201872,201872,200147,201155,200148,202221,201672,201672,202221,13
14,test,1,inc,1,z,Thu May 29 2025 16:59:17 GMT-0400 (Eastern Daylight Time),210404.10000002384,window,1100,I,z,z,None,582,383.0,199.0,32,1,2207.399999976158,208196.70000004768,9018,friend,AF,A,204055,204055,202231,203339,202231,204438,203855,203855,204438,14
15,test,1,con,1,m,Thu May 29 2025 16:59:17 GMT-0400 (Eastern Daylight Time),212303.60000002384,step,800,I,m,m,None,562,363.0,199.0,65,1,1892.7999999523163,210410.80000007153,9018,step,AF,A,205972,205972,204445,205255,204445,206338,205772,205772,206338,15
16,test,1,inc,1,m,Thu May 29 2025 16:59:17 GMT-0400 (Eastern Daylight Time),214503.70000004768,temper,1000,I,m,m,None,654,455.0,199.0,119,1,2191.399999976158,212312.30000007153,9018,remote,AF,A,208072,208072,206346,207355,206347,208538,207872,207872,208538,16
17,test,1,con,1,m,Thu May 29 2025 16:59:17 GMT-0400 (Eastern Daylight Time),216620.5,rock,1000,I,m,m,None,566,367.0,199.0,75,1,2105.5,214515.0,9018,rock,AF,A,210272,210272,208549,209555,208550,210655,210072,210072,210655,17
18,test,1,con,1,z,Thu May 29 2025 16:59:17 GMT-0400 (Eastern Daylight Time),218886.89999997616,hate,1100,I,z,z,None,629,429.0,200.0,44,1,2256.899999976158,216630.0,9018,hate,AF,A,212490,212490,210664,211772,210665,212921,212289,212289,212921,18
19,test,1,inc,1,m,Thu May 29 2025 16:59:17 GMT-0400 (Eastern Daylight Time),220870.20000004768,brutal,900,I,m,m,None,548,349.0,199.0,126,1,1975.1000000238419,218895.10000002384,9018,window,AF,A,214554,214554,212929,213839,212930,214904,214355,214355,214904,19
20,test,1,con,1,m,Thu May 29 2025 16:59:17 GMT-0400 (Eastern Daylight Time),222970.5,jacket,1000,I,m,m,None,551,352.0,199.0,99,1,2091.100000023842,220879.39999997616,9018,jacket,AF,A,216638,216639,214913,215922,214914,217005,216439,216439,217005,20
21,test,1,inc,1,z,Thu May 29 2025 16:59:17 GMT-0400 (Eastern Daylight Time),224903.80000007153,step,800,I,z,z,None,588,389.0,199.0,13,1,1924.1000000238419,222979.70000004768,9018,kind,AF,A,218538,218538,217014,217822,217014,218938,218339,218339,218938,21
22,test,1,con,1,z,Thu May 29 2025 16:59:17 GMT-0400 (Eastern Daylight Time),226853.80000007153,rage,800,I,z,z,None,614,415.0,199.0,49,1,1937.2000000476837,224916.60000002384,9018,rage,AF,A,220472,220472,218951,219755,218951,220888,220272,220272,220888,22
23,test,1,con,1,z,Thu May 29 2025 16:59:17 GMT-0400 (Eastern Daylight Time),228887.20000004768,elated,900,I,z,z,None,588,389.0,199.0,2,1,2024.8000000715256,226862.39999997616,9018,elated,AF,A,222522,222522,220896,221805,220897,222921,222322,222322,222921,23
24,test,1,inc,1,m,Thu May 29 2025 16:59:17 GMT-0400 (Eastern Daylight Time),230870.5,kind,900,I,m,m,None,539,340.0,199.0,70,1,1974.2999999523163,228896.20000004768,9018,step,AF,A,224555,224555,222930,223839,222931,224905,224355,224355,224905,24
25,test,1,inc,1,m,Thu May 29 2025 16:59:17 GMT-0400 (Eastern Daylight Time),233070.5,friend,1100,I,m,m,None,555,356.0,199.0,112,1,2191.399999976158,230879.10000002384,9018,napkin,AF,A,226738,226739,224913,226022,224914,227105,226539,226539,227105,25
26,test,1,con,1,z,Thu May 29 2025 16:59:17 GMT-0400 (Eastern Daylight Time),235103.80000007153,kind,900,I,z,z,None,571,372.0,199.0,10,1,2017.0,233086.80000007153,9018,kind,AF,A,228754,228755,227121,228039,227122,229138,228555,228555,229138,26
27,test,1,con,1,z,Thu May 29 2025 16:59:17 GMT-0400 (Eastern Daylight Time),237320.39999997616,elated,1100,I,z,z,None,570,371.0,199.0,4,1,2207.0999999046326,235113.30000007153,9018,elated,AF,A,230972,230972,229147,230255,229148,231355,230771,230772,231354,27
28,test,1,inc,1,z,Thu May 29 2025 16:59:17 GMT-0400 (Eastern Daylight Time),239537.20000004768,window,1100,I,z,z,None,578,379.0,199.0,40,1,2207.8000000715256,237329.39999997616,9018,brutal,AF,A,233188,233188,231363,232472,231364,233571,232989,232989,233571,28
29,test,1,con,1,m,Thu May 29 2025 16:59:17 GMT-0400 (Eastern Daylight Time),241537.10000002384,remote,800,I,m,m,None,660,445.0,215.0,113,1,1988.7999999523163,239548.30000007153,9018,remote,AF,A,235122,235122,233582,234388,233583,235571,234906,234906,235571,29
30,test,1,con,1,z,Thu May 29 2025 16:59:17 GMT-0400 (Eastern Daylight Time),243620.30000007153,hate,1000,I,z,z,None,533,334.0,199.0,43,1,2073.7000000476837,241546.60000002384,9018,hate,AF,A,237305,237305,235581,236589,235581,237654,237105,237105,237654,30
31,test,1,con,1,m,Thu May 29 2025 16:59:17 GMT-0400 (Eastern Daylight Time),245503.80000007153,jacket,800,I,m,m,None,546,347.0,199.0,97,1,1875.4000000953674,243628.39999997616,9018,jacket,AF,A,239188,239188,237662,238472,237663,239538,238989,238989,239538,31
32,test,1,inc,1,m,Thu May 29 2025 16:59:17 GMT-0400 (Eastern Daylight Time),247537.20000004768,brutal,900,I,m,m,None,594,395.0,199.0,102,1,2023.3000000715256,245513.89999997616,9018,jacket,AF,A,241172,241172,239548,240455,239548,241571,240972,240972,241571,32
33,test,1,inc,1,m,Thu May 29 2025 16:59:17 GMT-0400 (Eastern Daylight Time),249620.5,kind,900,I,m,m,None,634,434.0,200.0,86,1,2072.7999999523163,247547.70000004768,9018,bell,AF,A,243205,243205,241582,242489,241582,243655,243005,243005,243655,33
34,test,1,inc,1,z,Thu May 29 2025 16:59:17 GMT-0400 (Eastern Daylight Time),251720.5,rock,900,I,z,z,None,653,454.0,199.0,14,1,2088.899999976158,249631.60000002384,9018,kind,AF,A,245288,245289,243666,244572,243666,245755,245089,245089,245755,34
35,test,1,con,1,m,Thu May 29 2025 16:59:17 GMT-0400 (Eastern Daylight Time),253953.89999997616,step,1100,I,m,m,None,585,386.0,199.0,68,1,2223.5,251730.39999997616,9018,step,AF,A,247589,247589,245764,246872,245765,247988,247389,247389,247988,35
36,test,1,con,1,z,Thu May 29 2025 16:59:17 GMT-0400 (Eastern Daylight Time),256053.80000007153,elated,1000,I,z,z,None,556,357.0,199.0,3,1,2090.5,253963.30000007153,9018,elated,AF,A,249722,249722,247997,249005,247998,250088,249522,249522,250088,36
37,test,1,inc,1,z,Thu May 29 2025 16:59:17 GMT-0400 (Eastern Daylight Time),258153.80000007153,jacket,800,I,z,z,None,736,537.0,199.0,29,1,2084.8000000715256,256069.0,9018,friend,AF,A,251638,251638,250103,250922,250105,252188,251439,251439,252188,37
38,test,1,con,1,z,Thu May 29 2025 16:59:17 GMT-0400 (Eastern Daylight Time),260103.80000007153,love,800,I,z,z,None,612,413.0,199.0,17,1,1938.8000000715256,258165.0,9018,love,AF,A,253722,253722,252199,253005,252199,254138,253522,253522,254138,38
39,test,1,con,1,m,Thu May 29 2025 16:59:17 GMT-0400 (Eastern Daylight Time),261870.39999997616,napkin,800,I,m,m,None,430,231.0,199.0,105,1,1757.5,260112.89999997616,9018,napkin,AF,A,255672,255672,254147,254955,254147,255905,255472,255472,255904,39
40,test,1,inc,1,z,Thu May 29 2025 16:59:17 GMT-0400 (Eastern Daylight Time),263920.60000002384,remote,1000,I,z,z,None,512,313.0,199.0,7,1,2040.7000000476837,261879.89999997616,9018,elated,AF,A,257638,257638,255914,256922,255914,257955,257439,257439,257954,40
41,test,1,inc,1,m,Thu May 29 2025 16:59:17 GMT-0400 (Eastern Daylight Time),265854.10000002384,rage,800,I,m,m,None,598,399.0,199.0,85,1,1922.7000000476837,263931.39999997616,9018,bell,AF,A,259488,259488,257965,258772,257966,259888,259289,259289,259888,41
42,test,1,con,1,z,Thu May 29 2025 16:59:17 GMT-0400 (Eastern Daylight Time),267937.2000000477,love,1000,I,z,z,None,544,345.0,199.0,19,1,2072.0,265865.2000000477,9018,love,AF,A,261622,261622,259899,260905,259900,261971,261422,261422,261971,42
43,test,1,inc,1,m,Thu May 29 2025 16:59:17 GMT-0400 (Eastern Daylight Time),270237.5,hate,1100,I,m,m,None,665,466.0,199.0,72,1,2288.6999999284744,267948.8000000715,9018,step,AF,A,263805,263805,261983,263088,261983,264272,263605,263605,264272,43
44,test,1,con,1,z,Thu May 29 2025 16:59:17 GMT-0400 (Eastern Daylight Time),272203.8000000715,hate,900,I,z,z,None,526,326.0,200.0,42,1,1955.8000000715256,270248.0,9018,hate,AF,A,265905,265905,264282,265189,264283,266238,265705,265705,266238,44
45,test,1,inc,1,z,Thu May 29 2025 16:59:17 GMT-0400 (Eastern Daylight Time),274253.8000000715,napkin,900,I,z,z,None,606,407.0,199.0,30,1,2038.9000000953674,272214.89999997616,9018,friend,AF,A,267872,267872,266249,267154,266249,268288,267672,267672,268288,45
46,test,1,inc,1,z,Thu May 29 2025 16:59:17 GMT-0400 (Eastern Daylight Time),276253.8000000715,napkin,900,I,z,z,None,539,340.0,199.0,6,1,1984.8000000715256,274269.0,9018,elated,AF,A,269938,269939,268303,269222,268304,270288,269739,269739,270288,46
47,test,1,con,1,m,Thu May 29 2025 16:59:17 GMT-0400 (Eastern Daylight Time),278420.5,window,1100,I,m,m,None,526,326.0,200.0,124,1,2157.600000023842,276262.89999997616,9018,window,AF,A,272121,272121,270297,271405,270297,272455,271921,271921,272455,47
48,test,1,inc,1,z,Thu May 29 2025 16:59:17 GMT-0400 (Eastern Daylight Time),280303.8000000715,step,800,I,z,z,None,546,347.0,199.0,45,1,1873.8000000715256,278430.0,9018,hate,AF,A,273988,273988,272464,273272,272464,274338,273789,273789,274338,48
49,test,1,con,1,m,Thu May 29 2025 16:59:17 GMT-0400 (Eastern Daylight Time),282553.8000000715,jacket,1100,I,m,m,None,602,403.0,199.0,100,1,2236.100000023842,280317.7000000477,9018,jacket,AF,A,276172,276172,274352,275455,274352,276588,275972,275972,276588,49
50,test,1,con,1,m,Thu May 29 2025 16:59:17 GMT-0400 (Eastern Daylight Time),284503.7000000477,window,900,I,m,m,None,512,313.0,199.0,122,1,1939.8000000715256,282563.89999997616,9018,window,AF,A,278222,278222,276598,277505,276598,278538,278022,278022,278538,50
51,test,1,con,1,z,Thu May 29 2025 16:59:17 GMT-0400 (Eastern Daylight Time),286603.89999997616,temper,1100,I,z,z,None,450,251.0,199.0,60,1,2089.5,284514.39999997616,9018,temper,AF,A,280372,280372,278548,279655,278549,280638,280172,280172,280638,51
52,test,1,inc,1,m,Thu May 29 2025 16:59:17 GMT-0400 (Eastern Daylight Time),288787.3000000715,hate,1100,I,m,m,None,542,343.0,199.0,88,1,2174.7000000476837,286612.60000002384,9018,bell,AF,A,282472,282472,280647,281755,280647,282821,282272,282272,282821,52
53,test,1,inc,1,z,Thu May 29 2025 16:59:17 GMT-0400 (Eastern Daylight Time),291037.5,film,1100,I,z,z,None,598,399.0,199.0,48,1,2234.5,288803.0,9018,hate,AF,A,284672,284672,282837,283955,282838,285072,284472,284472,285071,53
54,test,1,con,1,z,Thu May 29 2025 16:59:17 GMT-0400 (Eastern Daylight Time),293187.2000000477,love,1100,I,z,z,None,502,302.0,200.0,20,1,2138.899999976158,291048.3000000715,9018,love,AF,A,286905,286905,285082,286189,285083,287221,286705,286705,287221,54
55,test,1,con,1,m,Thu May 29 2025 16:59:17 GMT-0400 (Eastern Daylight Time),295103.89999997616,window,800,I,m,m,None,572,372.0,200.0,121,1,1906.0,293197.89999997616,9018,window,AF,A,288755,288755,287232,288038,287232,289138,288555,288555,289138,55
56,test,1,inc,1,z,Thu May 29 2025 16:59:17 GMT-0400 (Eastern Daylight Time),297204.0,window,1100,I,z,z,None,458,259.0,199.0,8,1,2091.0,295113.0,9018,elated,AF,A,290972,290972,289147,290255,289147,291238,290772,290772,291238,56
57,test,1,inc,1,m,Thu May 29 2025 16:59:17 GMT-0400 (Eastern Daylight Time),299070.3000000715,rage,800,I,m,m,None,530,331.0,199.0,93,1,1855.8000000715256,297214.5,9018,film,AF,A,292772,292772,291249,292055,291249,293104,292572,292572,293104,57
58,test,1,inc,1,m,Thu May 29 2025 16:59:17 GMT-0400 (Eastern Daylight Time),300920.60000002384,elated,800,I,m,m,None,504,304.0,200.0,125,1,1839.0,299081.60000002384,9018,window,AF,A,294639,294639,293116,293922,293116,294955,294438,294438,294955,58
59,test,1,con,1,m,Thu May 29 2025 16:59:17 GMT-0400 (Eastern Daylight Time),302870.5,remote,1000,I,m,m,None,407,207.0,200.0,115,1,1940.7999999523163,300929.7000000477,9018,remote,AF,A,296688,296688,294964,295972,294964,296905,296488,296488,296905,59
60,test,1,con,1,z,Thu May 29 2025 16:59:17 GMT-0400 (Eastern Daylight Time),304570.60000002384,kind,800,I,z,z,None,359,160.0,199.0,9,1,1690.5,302880.10000002384,9018,kind,AF,A,298439,298439,296914,297722,296915,298605,298239,298239,298605,60
61,test,1,inc,1,m,Thu May 29 2025 16:59:17 GMT-0400 (Eastern Daylight Time),306503.5,elated,800,I,m,m,None,578,379.0,199.0,117,1,1917.8999999761581,304585.60000002384,9018,remote,AF,A,300155,300155,298620,299438,298621,300538,299956,299956,300538,61
62,test,1,inc,1,m,Thu May 29 2025 16:59:17 GMT-0400 (Eastern Daylight Time),308720.60000002384,friend,1100,I,m,m,None,570,371.0,199.0,120,1,2210.100000023842,306510.5,9018,remote,AF,A,302372,302372,300545,301655,300545,302755,302172,302172,302755,62
63,test,1,con,1,m,Thu May 29 2025 16:59:17 GMT-0400 (Eastern Daylight Time),310703.8000000715,bell,800,I,m,m,None,646,447.0,199.0,81,1,1974.3000000715256,308729.5,9018,bell,AF,A,304288,304288,302764,303571,302764,304738,304089,304089,304738,63
64,test,1,inc,1,m,Thu May 29 2025 16:59:17 GMT-0400 (Eastern Daylight Time),312870.39999997616,hate,1100,I,m,m,None,531,332.0,199.0,96,1,2157.5999999046326,310712.8000000715,9018,film,AF,A,306571,306571,304747,305855,304747,306904,306372,306372,306904,64
65,test,1,inc,1,z,Thu May 29 2025 16:59:17 GMT-0400 (Eastern Daylight Time),315087.3000000715,film,1100,I,z,z,None,571,372.0,199.0,56,1,2208.600000023842,312878.7000000477,9018,rage,AF,A,308738,308739,306913,308022,306913,309121,308539,308539,309121,65
66,test,1,inc,1,m,Thu May 29 2025 16:59:17 GMT-0400 (Eastern Daylight Time),317137.10000002384,temper,1000,I,m,m,None,512,312.0,200.0,111,1,2039.5,315097.60000002384,9018,napkin,AF,A,310855,310855,309132,310139,309132,311171,310655,310655,311171,66
67,test,1,con,1,z,Thu May 29 2025 16:59:17 GMT-0400 (Eastern Daylight Time),319303.7000000477,temper,1000,I,z,z,None,630,430.0,200.0,59,1,2155.3000000715256,317148.39999997616,9018,temper,AF,A,312905,312905,311182,312189,311183,313338,312705,312705,313338,67
68,test,1,con,1,m,Thu May 29 2025 16:59:17 GMT-0400 (Eastern Daylight Time),321537.2000000477,rock,1100,I,m,m,None,594,395.0,199.0,76,1,2225.2000000476837,319312.0,9018,rock,AF,A,315172,315172,313346,314455,313347,315571,314972,314972,315571,68
69,test,1,con,1,z,Thu May 29 2025 16:59:17 GMT-0400 (Eastern Daylight Time),323587.3000000715,kind,1100,I,z,z,None,410,210.0,200.0,12,1,2041.5,321545.8000000715,9018,kind,AF,A,317405,317405,315580,316688,315580,317621,317205,317205,317621,69
70,test,1,inc,1,m,Thu May 29 2025 16:59:17 GMT-0400 (Eastern Daylight Time),325720.3000000715,friend,1100,I,m,m,None,494,295.0,199.0,104,1,2123.100000023842,323597.2000000477,9018,jacket,AF,A,319455,319455,317631,318738,317632,319754,319255,319256,319754,70
71,test,1,con,1,m,Thu May 29 2025 16:59:17 GMT-0400 (Eastern Daylight Time),328004.0,film,900,I,m,m,None,834,635.0,199.0,90,1,2275.399999976158,325728.60000002384,9018,film,AF,A,321388,321388,319763,320672,319763,322038,321189,321189,322038,71
72,test,1,inc,1,z,Thu May 29 2025 16:59:17 GMT-0400 (Eastern Daylight Time),330220.60000002384,bell,1000,I,z,z,None,667,467.0,200.0,55,1,2208.7999999523163,328011.8000000715,9018,rage,AF,A,323772,323772,322046,323055,322046,324255,323572,323572,324255,72
73,test,1,con,1,m,Thu May 29 2025 16:59:17 GMT-0400 (Eastern Daylight Time),332237.3000000715,rock,900,I,m,m,None,566,367.0,199.0,74,1,2006.8000000715256,330230.5,9018,rock,AF,A,325888,325888,324265,325171,324265,326271,325689,325689,326271,73
74,test,1,inc,1,m,Thu May 29 2025 16:59:17 GMT-0400 (Eastern Daylight Time),334070.60000002384,elated,800,I,m,m,None,489,290.0,199.0,109,1,1824.7000000476837,332245.89999997616,9018,napkin,AF,A,327805,327805,326280,327089,326280,328105,327605,327605,328105,74
75,test,1,inc,1,z,Thu May 29 2025 16:59:17 GMT-0400 (Eastern Daylight Time),336220.60000002384,remote,1000,I,z,z,None,600,400.0,200.0,31,1,2139.7000000476837,334080.89999997616,9018,friend,AF,A,329839,329839,328115,329122,328115,330255,329639,329639,330255,75
75,test,1,inc,0,z,Thu May 29 2025 16:59:17 GMT-0400 (Eastern Daylight Time),338120.60000002384,step,800,I,m,m,None,554,355.0,199.0,21,1,1891.2999999523163,336229.3000000715,9018,love,AF,A,331788,331788,330263,331072,330264,332155,331589,331589,332155,76
76,test,1,con,1,m,Thu May 29 2025 16:59:17 GMT-0400 (Eastern Daylight Time),340120.7000000477,remote,900,I,m,m,None,554,355.0,199.0,114,1,1991.5,338129.2000000477,9018,remote,AF,A,333788,333788,332163,333072,332164,334155,333589,333589,334155,77
77,test,1,con,1,z,Thu May 29 2025 16:59:17 GMT-0400 (Eastern Daylight Time),342037.2000000477,brutal,1000,I,z,z,None,374,175.0,199.0,35,1,1908.1000000238419,340129.10000002384,9018,brutal,AF,A,335888,335888,334163,335172,334164,336071,335689,335689,336071,78
78,test,1,inc,1,m,Thu May 29 2025 16:59:17 GMT-0400 (Eastern Daylight Time),344237.7000000477,temper,1000,I,m,m,None,665,466.0,199.0,127,1,2191.5,342046.2000000477,9018,window,AF,A,337805,337805,336080,337089,336081,338272,337606,337606,338272,79
79,test,1,con,1,m,Thu May 29 2025 16:59:17 GMT-0400 (Eastern Daylight Time),346437.8000000715,film,1000,I,m,m,None,665,466.0,199.0,91,1,2191.0,344246.8000000715,9018,film,AF,A,340005,340005,338281,339289,338281,340472,339805,339805,340472,80
80,test,1,inc,1,z,Thu May 29 2025 16:59:17 GMT-0400 (Eastern Daylight Time),348620.60000002384,film,1100,I,z,z,None,541,342.0,199.0,24,1,2173.7000000476837,346446.89999997616,9018,love,AF,A,342305,342305,340481,341589,340481,342655,342106,342106,342655,81
81,test,1,inc,1,m,Thu May 29 2025 16:59:17 GMT-0400 (Eastern Daylight Time),350804.0,friend,1100,I,m,m,None,533,334.0,199.0,128,1,2175.0,348629.0,9018,window,AF,A,344489,344489,342663,343772,342663,344838,344289,344289,344838,82
82,test,1,con,1,z,Thu May 29 2025 16:59:17 GMT-0400 (Eastern Daylight Time),352804.0,love,900,I,z,z,None,558,359.0,199.0,18,1,1991.6000000238419,350812.39999997616,9018,love,AF,A,346472,346472,344846,345755,344847,346838,346272,346272,346838,83
83,test,1,inc,1,m,Thu May 29 2025 16:59:17 GMT-0400 (Eastern Daylight Time),354837.2000000477,kind,900,I,m,m,None,590,391.0,199.0,78,1,2024.6000000238419,352812.60000002384,9018,rock,AF,A,348472,348472,346847,347755,346847,348871,348272,348272,348871,84
84,test,1,con,1,z,Thu May 29 2025 16:59:17 GMT-0400 (Eastern Daylight Time),357036.89999997616,rage,1000,I,z,z,None,657,457.0,200.0,51,1,2190.0999999046326,354846.8000000715,9018,rage,AF,A,350605,350605,348881,349889,348881,351071,350405,350405,351071,85
85,test,1,con,1,m,Thu May 29 2025 16:59:17 GMT-0400 (Eastern Daylight Time),358954.0,rock,800,I,m,m,None,570,370.0,200.0,73,1,1912.1999999284744,357041.8000000715,9018,rock,AF,A,352605,352605,351076,351889,351076,352988,352405,352405,352988,86
86,test,1,con,1,z,Thu May 29 2025 16:59:17 GMT-0400 (Eastern Daylight Time),361270.7000000477,brutal,1100,I,z,z,None,672,473.0,199.0,36,1,2307.7000000476837,358963.0,9018,brutal,AF,A,354822,354822,352997,354105,352997,355305,354622,354622,355305,87
87,test,1,inc,1,z,Thu May 29 2025 16:59:17 GMT-0400 (Eastern Daylight Time),363404.0,remote,1000,I,z,z,None,592,393.0,199.0,39,1,2122.1999999284744,361281.8000000715,9018,brutal,AF,A,357038,357038,355316,356322,355316,357438,356839,356839,357438,88
88,test,1,inc,1,z,Thu May 29 2025 16:59:17 GMT-0400 (Eastern Daylight Time),365270.5,jacket,800,I,z,z,None,530,331.0,199.0,37,1,1855.1000000238419,363415.39999997616,9018,brutal,AF,A,358972,358972,357449,358255,357450,359305,358772,358772,359304,89
89,test,1,con,1,m,Thu May 29 2025 16:59:17 GMT-0400 (Eastern Daylight Time),367237.39999997616,bell,1000,I,m,m,None,416,217.0,199.0,83,1,1956.2999999523163,365281.10000002384,9018,bell,AF,A,361038,361038,359315,360322,359316,361271,360839,360839,361271,90
90,test,1,inc,1,z,Thu May 29 2025 16:59:17 GMT-0400 (Eastern Daylight Time),369287.2000000477,remote,1000,I,z,z,None,506,306.0,200.0,63,1,2041.3000000715256,367245.89999997616,9018,temper,AF,A,363005,363005,361280,362289,361280,363321,362805,362805,363321,91
91,test,1,inc,1,z,Thu May 29 2025 16:59:17 GMT-0400 (Eastern Daylight Time),371437.10000002384,window,1100,I,z,z,None,507,307.0,200.0,64,1,2134.7000000476837,369302.39999997616,9018,temper,AF,A,365155,365155,363336,364439,363337,365471,364955,364955,365471,92
92,test,1,inc,1,m,Thu May 29 2025 16:59:17 GMT-0400 (Eastern Daylight Time),373570.7000000477,love,1000,I,m,m,None,585,386.0,199.0,71,1,2122.5,371448.2000000477,9018,step,AF,A,367205,367205,365482,366489,365483,367605,367005,367006,367605,93
93,test,1,inc,1,z,Thu May 29 2025 16:59:17 GMT-0400 (Eastern Daylight Time),375587.10000002384,bell,1000,I,z,z,None,475,276.0,199.0,23,1,2005.7000000476837,373581.39999997616,9018,love,AF,A,369339,369339,367615,368622,367616,369621,369139,369139,369621,94
94,test,1,inc,1,z,Thu May 29 2025 16:59:17 GMT-0400 (Eastern Daylight Time),377903.89999997616,bell,1000,I,z,z,None,771,572.0,199.0,15,1,2305.1999999284744,375598.7000000477,9018,kind,AF,A,371355,371355,369633,370639,369633,371938,371155,371155,371938,95
95,test,1,con,1,m,Thu May 29 2025 16:59:17 GMT-0400 (Eastern Daylight Time),379954.0,step,900,I,m,m,None,610,411.0,199.0,66,1,2038.8999999761581,377915.10000002384,9018,step,AF,A,373572,373572,371949,372855,371950,373988,373372,373372,373988,96
96,test,1,inc,1,z,Thu May 29 2025 16:59:17 GMT-0400 (Eastern Daylight Time),381838.0,step,800,I,z,z,None,549,349.0,200.0,53,1,1876.0,379962.0,9018,rage,AF,A,375522,375522,373996,374805,373996,375872,375321,375321,375872,97
97,test,1,con,1,z,Thu May 29 2025 16:59:17 GMT-0400 (Eastern Daylight Time),383987.3000000715,brutal,900,I,z,z,None,701,502.0,199.0,34,1,2138.600000023842,381848.7000000477,9018,brutal,AF,A,377505,377505,375883,376789,375883,378021,377305,377305,378021,98
98,test,1,con,1,z,Thu May 29 2025 16:59:17 GMT-0400 (Eastern Daylight Time),385737.3000000715,hate,800,I,z,z,None,411,211.0,200.0,41,1,1739.3000000715256,383998.0,9018,hate,AF,A,379556,379556,378032,378839,378032,379771,379355,379355,379771,99
99,test,1,con,1,m,Thu May 29 2025 16:59:17 GMT-0400 (Eastern Daylight Time),388070.7000000477,remote,1100,I,m,m,None,690,490.0,200.0,116,1,2324.7000000476837,385746.0,9018,remote,AF,A,381605,381605,379780,380889,379781,382105,381405,381405,382105,100
100,test,1,con,1,z,Thu May 29 2025 16:59:17 GMT-0400 (Eastern Daylight Time),390037.3000000715,temper,800,I,z,z,None,624,424.0,200.0,57,1,1958.0,388079.3000000715,9018,temper,AF,A,383638,383639,382113,382922,382114,384071,383438,383438,384071,101
101,test,1,con,1,m,Thu May 29 2025 16:59:17 GMT-0400 (Eastern Daylight Time),392087.39999997616,bell,900,I,m,m,None,605,406.0,199.0,82,1,2042.1999999284744,390045.2000000477,9018,bell,AF,A,385705,385705,384079,384989,384080,386122,385505,385505,386121,102
102,test,1,inc,1,z,Thu May 29 2025 16:59:17 GMT-0400 (Eastern Daylight Time),393937.3000000715,jacket,800,I,z,z,None,504,304.0,200.0,61,1,1840.4000000953674,392096.89999997616,9018,temper,AF,A,387655,387655,386131,386938,386131,387971,387455,387455,387971,103
103,test,1,inc,1,m,Thu May 29 2025 16:59:17 GMT-0400 (Eastern Daylight Time),395820.60000002384,rage,800,I,m,m,None,533,318.0,215.0,77,1,1875.0,393945.60000002384,9018,rock,AF,A,389521,389521,387980,388789,387980,389855,389306,389306,389855,104
104,test,1,inc,1,z,Thu May 29 2025 16:59:17 GMT-0400 (Eastern Daylight Time),397837.8000000715,napkin,900,I,z,z,None,582,383.0,199.0,38,1,2008.9000000953674,395828.89999997616,9018,brutal,AF,A,391488,391488,389863,390772,389863,391872,391289,391289,391872,105
105,test,1,con,1,z,Thu May 29 2025 16:59:17 GMT-0400 (Eastern Daylight Time),399953.7000000477,rage,900,I,z,z,None,669,470.0,199.0,50,1,2107.600000023842,397846.10000002384,9018,rage,AF,A,393505,393505,391880,392789,391880,393988,393305,393305,393988,106
106,test,1,inc,1,z,Thu May 29 2025 16:59:17 GMT-0400 (Eastern Daylight Time),402137.3000000715,film,1100,I,z,z,None,544,345.0,199.0,16,1,2177.8000000715256,399959.5,9018,kind,AF,A,395822,395822,393994,395105,393994,396171,395622,395622,396171,107
107,test,1,con,1,m,Thu May 29 2025 16:59:17 GMT-0400 (Eastern Daylight Time),404237.3000000715,window,1000,I,m,m,None,557,358.0,199.0,123,1,2091.600000023842,402145.7000000477,9018,window,AF,A,397905,397905,396180,397189,396180,398271,397706,397706,398271,108
108,test,1,con,1,m,Thu May 29 2025 16:59:17 GMT-0400 (Eastern Daylight Time),406420.7000000477,napkin,900,I,m,m,None,734,534.0,200.0,106,1,2174.100000023842,404246.60000002384,9018,napkin,AF,A,399905,399905,398281,399189,398281,400455,399705,399705,400455,109
109,test,1,con,1,m,Thu May 29 2025 16:59:17 GMT-0400 (Eastern Daylight Time),408437.3000000715,jacket,900,I,m,m,None,573,374.0,199.0,98,1,2008.0,406429.3000000715,9018,jacket,AF,A,402089,402089,400463,401372,400464,402471,401889,401889,402471,110
110,test,1,con,1,z,Thu May 29 2025 16:59:17 GMT-0400 (Eastern Daylight Time),410320.7000000477,brutal,800,I,z,z,None,538,338.0,200.0,33,1,1874.2000000476837,408446.5,9018,brutal,AF,A,404005,404005,402481,403289,402481,404355,403805,403805,404355,111
111,test,1,inc,1,m,Thu May 29 2025 16:59:17 GMT-0400 (Eastern Daylight Time),412270.3000000715,elated,800,I,m,m,None,614,414.0,200.0,101,1,1939.1000000238419,410331.2000000477,9018,jacket,AF,A,405888,405889,404365,405172,404366,406304,405688,405688,406304,112
112,test,1,inc,1,m,Thu May 29 2025 16:59:17 GMT-0400 (Eastern Daylight Time),414237.3000000715,rage,800,I,m,m,None,616,417.0,199.0,69,1,1960.0,412277.3000000715,9018,step,AF,A,407838,407838,406311,407122,406312,408271,407639,407639,408271,113
113,test,1,inc,1,m,Thu May 29 2025 16:59:17 GMT-0400 (Eastern Daylight Time),416320.60000002384,love,1000,I,m,m,None,546,346.0,200.0,95,1,2073.600000023842,414247.0,9018,film,AF,A,410005,410005,408281,409289,408281,410355,409805,409805,410355,114
114,test,1,con,1,z,Thu May 29 2025 16:59:17 GMT-0400 (Eastern Daylight Time),418237.39999997616,friend,800,I,z,z,None,566,367.0,199.0,25,1,1906.1999999284744,416331.2000000477,9018,friend,AF,A,411888,411889,410365,411172,410366,412272,411689,411689,412271,115
115,test,1,con,1,z,Thu May 29 2025 16:59:17 GMT-0400 (Eastern Daylight Time),420437.2000000477,kind,1000,I,z,z,None,658,458.0,200.0,11,1,2191.2000000476837,418246.0,9018,kind,AF,A,414005,414005,412280,413289,412280,414471,413805,413805,414471,116
116,test,1,con,1,m,Thu May 29 2025 16:59:17 GMT-0400 (Eastern Daylight Time),422304.0,film,800,I,m,m,None,522,322.0,200.0,89,1,1858.3999999761581,420445.60000002384,9018,film,AF,A,416005,416005,414480,415289,414480,416338,415805,415805,416338,117
117,test,1,inc,1,z,Thu May 29 2025 16:59:17 GMT-0400 (Eastern Daylight Time),424420.7000000477,bell,1000,I,z,z,None,574,375.0,199.0,47,1,2106.0,422314.7000000477,9018,hate,AF,A,418072,418072,416349,417355,416349,418455,417872,417872,418455,118
118,test,1,con,1,m,Thu May 29 2025 16:59:17 GMT-0400 (Eastern Daylight Time),426620.60000002384,bell,1100,I,m,m,None,557,358.0,199.0,84,1,2189.2000000476837,424431.39999997616,9018,bell,AF,A,420288,420289,418465,419572,418466,420655,420089,420089,420655,119
119,test,1,inc,1,m,Thu May 29 2025 16:59:17 GMT-0400 (Eastern Daylight Time),428637.0,kind,900,I,m,m,None,582,383.0,199.0,94,1,2007.3999999761581,426629.60000002384,9018,film,AF,A,422288,422288,420664,421572,420664,422671,422089,422089,422671,120
120,test,1,con,1,z,Thu May 29 2025 16:59:17 GMT-0400 (Eastern Daylight Time),430520.60000002384,elated,800,I,z,z,None,546,346.0,200.0,1,1,1878.0,428642.60000002384,9018,elated,AF,A,424205,424205,422677,423489,422677,424555,424005,424005,424555,121
121,test,1,con,1,m,Thu May 29 2025 16:59:17 GMT-0400 (Eastern Daylight Time),432654.0,napkin,1000,I,m,m,None,597,398.0,199.0,107,1,2124.5,430529.5,9018,napkin,AF,A,426289,426289,424564,425573,424564,426688,426089,426089,426688,122
122,test,1,inc,1,m,Thu May 29 2025 16:59:17 GMT-0400 (Eastern Daylight Time),434737.39999997616,love,1000,I,m,m,None,544,345.0,199.0,87,1,2073.899999976158,432663.5,9018,bell,AF,A,428422,428422,426698,427705,426698,428771,428222,428222,428771,123
123,test,1,con,1,z,Thu May 29 2025 16:59:17 GMT-0400 (Eastern Daylight Time),437037.39999997616,friend,1100,I,z,z,None,649,450.0,199.0,28,1,2291.6999999284744,434745.7000000477,9018,friend,AF,A,430605,430605,428780,429889,428780,431071,430406,430406,431071,124
124,test,1,con,1,m,Thu May 29 2025 16:59:17 GMT-0400 (Eastern Daylight Time),439187.39999997616,step,1000,I,m,m,None,584,385.0,199.0,67,1,2134.899999976158,437052.5,9018,step,AF,A,432822,432822,431087,432105,431088,433221,432622,432622,433221,125
125,test,1,inc,1,m,Thu May 29 2025 16:59:17 GMT-0400 (Eastern Daylight Time),441220.7000000477,love,1000,I,m,m,None,483,284.0,199.0,79,1,2022.0,439198.7000000477,9018,rock,AF,A,434955,434955,433233,434239,433233,435255,434756,434756,435255,126
126,test,1,inc,1,z,Thu May 29 2025 16:59:17 GMT-0400 (Eastern Daylight Time),443220.7000000477,rock,900,I,z,z,None,550,351.0,199.0,54,1,1989.5,441231.2000000477,9018,rage,AF,A,436888,436888,435265,436172,435266,437255,436689,436689,437255,127
127,test,1,con,1,m,Thu May 29 2025 16:59:17 GMT-0400 (Eastern Daylight Time),445537.39999997616,film,1100,I,m,m,None,678,479.0,199.0,92,1,2306.0,443231.39999997616,9018,film,AF,A,439088,439088,437265,438372,437266,439572,438889,438889,439571,128
