Number,acc_sum,block,block_c,block_cond,con_img,correct,correct_response,datetime,endtime,jitter,project,response,response_time,row_sel,session_number,start_end,starttime,subject_id,task,task_vers,trial
8,0,prac,1,A,circle.png,0,m,Mon Jun 02 2025 09:18:33 GMT-0500 (Central Daylight Time),69257.30000001192,1600,O,None,1515,7,1,3893.100000023842,65364.19999998808,7136,NTS,A,1
8,1,prac,1,A,circle.png,1,m,Mon Jun 02 2025 09:18:33 GMT-0500 (Central Daylight Time),72440.19999998808,1600,O,m,791,7,1,3177.100000023842,69263.09999996424,7136,NTS,A,2
6,2,prac,1,A,circle.png,1,m,Mon Jun 02 2025 09:18:33 GMT-0500 (Central Daylight Time),76422.09999996424,1900,O,m,1293,5,1,3976.599999964237,72445.5,7136,NTS,A,3
1,3,prac,1,A,circle.png,1,z,Mon Jun 02 2025 09:18:33 GMT-0500 (Central Daylight Time),78988.80000001192,1000,O,z,779,1,1,2561.300000011921,76427.5,7136,NTS,A,4
1,4,prac,1,A,circle.png,1,z,Mon Jun 02 2025 09:18:33 GMT-0500 (Central Daylight Time),81486.89999997616,1000,O,z,708,1,1,2492.199999988079,78994.69999998808,7136,NTS,A,5
3,5,prac,1,A,circle.png,1,z,Mon Jun 02 2025 09:18:33 GMT-0500 (Central Daylight Time),84269.09999996424,1200,O,z,764,3,1,2776.699999988079,81492.39999997616,7136,NTS,A,6
2,6,prac,1,A,circle.png,1,z,Mon Jun 02 2025 09:18:33 GMT-0500 (Central Daylight Time),87818.30000001192,2000,O,z,756,2,1,3542.600000023842,84275.69999998808,7136,NTS,A,7
7,7,prac,1,A,circle.png,1,m,Mon Jun 02 2025 09:18:33 GMT-0500 (Central Daylight Time),91117.19999998808,1700,O,m,803,6,1,3293.5,87823.69999998808,7136,NTS,A,8
6,8,prac,1,A,circle.png,1,m,Mon Jun 02 2025 09:18:33 GMT-0500 (Central Daylight Time),94682.69999998808,1900,O,m,880,5,1,3560.399999976158,91122.30000001192,7136,NTS,A,9
4,9,prac,1,A,circle.png,1,z,Mon Jun 02 2025 09:18:33 GMT-0500 (Central Daylight Time),97598.5,1400,O,z,718,4,1,2910.5,94688.0,7136,NTS,A,10
9,10,prac,1,A,circle.png,1,m,Mon Jun 02 2025 09:18:33 GMT-0500 (Central Daylight Time),100514.39999997616,1500,O,m,631,8,1,2910.800000011921,97603.59999996424,7136,NTS,A,11
9,11,prac,1,A,circle.png,1,m,Mon Jun 02 2025 09:18:33 GMT-0500 (Central Daylight Time),103363.39999997616,1500,O,m,563,8,1,2843.899999976158,100519.5,7136,NTS,A,12
2,0,prac,1,B,triangle.png,0,m,Mon Jun 02 2025 09:18:33 GMT-0500 (Central Daylight Time),142734.19999998808,1700,O,None,1516,2,1,3994.199999988079,138740.0,7136,NTS,A,1
4,1,prac,1,B,triangle.png,1,m,Mon Jun 02 2025 09:18:33 GMT-0500 (Central Daylight Time),145867.0,1500,O,m,839,4,1,3127.600000023842,142739.39999997616,7136,NTS,A,2
9,2,prac,1,B,triangle.png,1,z,Mon Jun 02 2025 09:18:33 GMT-0500 (Central Daylight Time),149032.19999998808,1400,O,z,966,8,1,3160.100000023842,145872.09999996424,7136,NTS,A,3
1,3,prac,1,B,triangle.png,1,z,Mon Jun 02 2025 09:18:33 GMT-0500 (Central Daylight Time),152514.69999998808,1900,O,z,797,1,1,3477.100000023842,149037.59999996424,7136,NTS,A,4
6,4,prac,1,B,triangle.png,1,m,Mon Jun 02 2025 09:18:33 GMT-0500 (Central Daylight Time),155030.5,1000,O,m,699,5,1,2510.600000023842,152519.89999997616,7136,NTS,A,5
7,5,prac,1,B,triangle.png,1,z,Mon Jun 02 2025 09:18:33 GMT-0500 (Central Daylight Time),158712.59999996424,2000,O,z,883,6,1,3676.599999964237,155036.0,7136,NTS,A,6
4,6,prac,1,B,triangle.png,1,m,Mon Jun 02 2025 09:18:33 GMT-0500 (Central Daylight Time),161761.69999998808,1500,O,m,757,4,1,3044.199999988079,158717.5,7136,NTS,A,7
9,7,prac,1,B,triangle.png,1,z,Mon Jun 02 2025 09:18:33 GMT-0500 (Central Daylight Time),164644.09999996424,1400,O,z,696,8,1,2877.2999999523163,161766.80000001192,7136,NTS,A,8
7,8,prac,1,B,triangle.png,1,z,Mon Jun 02 2025 09:18:33 GMT-0500 (Central Daylight Time),168193.09999996424,2000,O,z,765,6,1,3544.2999999523163,164648.80000001192,7136,NTS,A,9
8,9,prac,1,B,triangle.png,1,m,Mon Jun 02 2025 09:18:33 GMT-0500 (Central Daylight Time),170710.0,1200,O,m,520,7,1,2512.0,168198.0,7136,NTS,A,10
2,10,prac,1,B,triangle.png,1,m,Mon Jun 02 2025 09:18:33 GMT-0500 (Central Daylight Time),174008.09999996424,1700,O,m,800,2,1,3292.899999976158,170715.19999998808,7136,NTS,A,11
3,11,prac,1,B,triangle.png,1,z,Mon Jun 02 2025 09:18:33 GMT-0500 (Central Daylight Time),177137.80000001192,1600,O,z,650,3,1,3124.800000011921,174013.0,7136,NTS,A,12
4,0,test,1,A,circle.png,0,z,Mon Jun 02 2025 09:18:33 GMT-0500 (Central Daylight Time),202398.89999997616,1400,O,None,1516,4,1,2927.5,199471.39999997616,7136,NTS,A,1
2,0,test,1,A,circle.png,0,z,Mon Jun 02 2025 09:18:33 GMT-0500 (Central Daylight Time),205931.0,2000,O,None,1515,2,1,3527.400000035763,202403.59999996424,7136,NTS,A,2
4,1,test,1,A,circle.png,1,z,Mon Jun 02 2025 09:18:33 GMT-0500 (Central Daylight Time),208330.59999996424,1400,O,z,974,4,1,2396.0,205934.59999996424,7136,NTS,A,3
4,2,test,1,A,circle.png,1,z,Mon Jun 02 2025 09:18:33 GMT-0500 (Central Daylight Time),210646.39999997616,1400,O,z,887,4,1,2312.300000011921,208334.09999996424,7136,NTS,A,4
1,3,test,1,A,circle.png,1,z,Mon Jun 02 2025 09:18:33 GMT-0500 (Central Daylight Time),212828.89999997616,1000,O,z,1163,1,1,2178.800000011921,210650.09999996424,7136,NTS,A,5
3,4,test,1,A,circle.png,1,z,Mon Jun 02 2025 09:18:33 GMT-0500 (Central Daylight Time),214978.19999998808,1200,O,z,916,3,1,2145.5,212832.69999998808,7136,NTS,A,6
6,5,test,1,A,circle.png,1,m,Mon Jun 02 2025 09:18:33 GMT-0500 (Central Daylight Time),217577.69999998808,1900,O,m,667,5,1,2595.800000011921,214981.89999997616,7136,NTS,A,7
1,6,test,1,A,circle.png,1,z,Mon Jun 02 2025 09:18:33 GMT-0500 (Central Daylight Time),219543.30000001192,1000,O,z,936,1,1,1961.9000000357628,217581.39999997616,7136,NTS,A,8
9,7,test,1,A,circle.png,1,m,Mon Jun 02 2025 09:18:33 GMT-0500 (Central Daylight Time),221792.80000001192,1500,O,m,717,8,1,2246.0,219546.80000001192,7136,NTS,A,9
1,8,test,1,A,circle.png,1,z,Mon Jun 02 2025 09:18:33 GMT-0500 (Central Daylight Time),223475.39999997616,1000,O,z,656,1,1,1678.699999988079,221796.69999998808,7136,NTS,A,10
6,9,test,1,A,circle.png,1,m,Mon Jun 02 2025 09:18:33 GMT-0500 (Central Daylight Time),226191.5,1900,O,m,785,5,1,2712.199999988079,223479.30000001192,7136,NTS,A,11
9,10,test,1,A,circle.png,1,m,Mon Jun 02 2025 09:18:33 GMT-0500 (Central Daylight Time),228390.69999998808,1500,O,m,670,8,1,2195.399999976158,226195.30000001192,7136,NTS,A,12
6,11,test,1,A,circle.png,1,m,Mon Jun 02 2025 09:18:33 GMT-0500 (Central Daylight Time),231106.59999996424,1900,O,m,782,5,1,2712.099999964237,228394.5,7136,NTS,A,13
3,12,test,1,A,circle.png,1,z,Mon Jun 02 2025 09:18:33 GMT-0500 (Central Daylight Time),233155.80000001192,1200,O,z,822,3,1,2045.1000000238419,231110.69999998808,7136,NTS,A,14
2,13,test,1,A,circle.png,1,z,Mon Jun 02 2025 09:18:33 GMT-0500 (Central Daylight Time),235771.80000001192,2000,O,z,597,2,1,2612.0,233159.80000001192,7136,NTS,A,15
8,14,test,1,A,circle.png,1,m,Mon Jun 02 2025 09:18:33 GMT-0500 (Central Daylight Time),238037.59999996424,1600,O,m,645,7,1,2261.899999976158,235775.69999998808,7136,NTS,A,16
1,15,test,1,A,circle.png,1,z,Mon Jun 02 2025 09:18:33 GMT-0500 (Central Daylight Time),240170.5,1000,O,z,1099,1,1,2129.5,238041.0,7136,NTS,A,17
7,16,test,1,A,circle.png,1,m,Mon Jun 02 2025 09:18:33 GMT-0500 (Central Daylight Time),242586.19999998808,1700,O,m,691,6,1,2412.199999988079,240174.0,7136,NTS,A,18
4,17,test,1,A,circle.png,1,z,Mon Jun 02 2025 09:18:33 GMT-0500 (Central Daylight Time),244585.59999996424,1400,O,z,567,4,1,1995.7999999523163,242589.80000001192,7136,NTS,A,19
8,18,test,1,A,circle.png,1,m,Mon Jun 02 2025 09:18:33 GMT-0500 (Central Daylight Time),246785.0,1600,O,m,567,7,1,2195.800000011921,244589.19999998808,7136,NTS,A,20
8,19,test,1,A,circle.png,1,m,Mon Jun 02 2025 09:18:33 GMT-0500 (Central Daylight Time),248834.30000001192,1600,O,m,416,7,1,2045.5,246788.80000001192,7136,NTS,A,21
9,20,test,1,A,circle.png,1,m,Mon Jun 02 2025 09:18:33 GMT-0500 (Central Daylight Time),250866.69999998808,1500,O,m,515,8,1,2028.8999999761581,248837.80000001192,7136,NTS,A,22
6,21,test,1,A,circle.png,1,m,Mon Jun 02 2025 09:18:33 GMT-0500 (Central Daylight Time),253449.39999997616,1900,O,m,658,5,1,2579.199999988079,250870.19999998808,7136,NTS,A,23
7,22,test,1,A,circle.png,1,m,Mon Jun 02 2025 09:18:33 GMT-0500 (Central Daylight Time),255748.80000001192,1700,O,m,572,6,1,2295.900000035763,253452.89999997616,7136,NTS,A,24
7,1,test,1,B,triangle.png,1,z,Mon Jun 02 2025 09:18:33 GMT-0500 (Central Daylight Time),285289.3000000119,2000,O,z,558,6,1,2579.800000011921,282709.5,7136,NTS,A,1
7,2,test,1,B,triangle.png,1,z,Mon Jun 02 2025 09:18:33 GMT-0500 (Central Daylight Time),287455.3000000119,1600,O,z,536,14,1,2161.900000035763,285293.39999997616,7136,NTS,A,2
1,3,test,1,B,triangle.png,1,z,Mon Jun 02 2025 09:18:33 GMT-0500 (Central Daylight Time),290271.0,1900,O,z,886,1,1,2812.100000023842,287458.89999997616,7136,NTS,A,3
4,4,test,1,B,triangle.png,1,m,Mon Jun 02 2025 09:18:33 GMT-0500 (Central Daylight Time),292304.0,1500,O,m,510,4,1,2029.199999988079,290274.8000000119,7136,NTS,A,4
9,5,test,1,B,triangle.png,1,z,Mon Jun 02 2025 09:18:33 GMT-0500 (Central Daylight Time),294520.09999996424,1400,O,z,785,8,1,2212.5,292307.59999996424,7136,NTS,A,5
1,6,test,1,B,triangle.png,1,z,Mon Jun 02 2025 09:18:33 GMT-0500 (Central Daylight Time),296835.8000000119,1400,O,z,897,9,1,2312.2000000476837,294523.59999996424,7136,NTS,A,6
9,7,test,1,B,triangle.png,1,z,Mon Jun 02 2025 09:18:33 GMT-0500 (Central Daylight Time),299301.6999999881,1900,O,z,537,16,1,2462.300000011921,296839.39999997616,7136,NTS,A,7
2,8,test,1,B,triangle.png,1,m,Mon Jun 02 2025 09:18:33 GMT-0500 (Central Daylight Time),301201.0,1200,O,m,667,10,1,1895.699999988079,299305.3000000119,7136,NTS,A,8
3,9,test,1,B,triangle.png,1,z,Mon Jun 02 2025 09:18:33 GMT-0500 (Central Daylight Time),303500.39999997616,1600,O,z,672,3,1,2295.5,301204.89999997616,7136,NTS,A,9
2,10,test,1,B,triangle.png,1,m,Mon Jun 02 2025 09:18:33 GMT-0500 (Central Daylight Time),305883.0,1700,O,m,657,2,1,2378.600000023842,303504.39999997616,7136,NTS,A,10
7,11,test,1,B,triangle.png,1,z,Mon Jun 02 2025 09:18:33 GMT-0500 (Central Daylight Time),308332.09999996424,1600,O,z,823,14,1,2445.5,305886.59999996424,7136,NTS,A,11
7,12,test,1,B,triangle.png,1,z,Mon Jun 02 2025 09:18:33 GMT-0500 (Central Daylight Time),310964.6999999881,2000,O,z,613,6,1,2629.0,308335.6999999881,7136,NTS,A,12
9,13,test,1,B,triangle.png,1,z,Mon Jun 02 2025 09:18:33 GMT-0500 (Central Daylight Time),313064.0,1400,O,z,677,8,1,2095.600000023842,310968.39999997616,7136,NTS,A,13
6,14,test,1,B,triangle.png,1,m,Mon Jun 02 2025 09:18:33 GMT-0500 (Central Daylight Time),315146.89999997616,1500,O,m,565,13,1,2079.399999976158,313067.5,7136,NTS,A,14
8,15,test,1,B,triangle.png,1,m,Mon Jun 02 2025 09:18:33 GMT-0500 (Central Daylight Time),316779.5,1200,O,m,414,7,1,1629.1000000238419,315150.39999997616,7136,NTS,A,15
3,16,test,1,B,triangle.png,1,z,Mon Jun 02 2025 09:18:33 GMT-0500 (Central Daylight Time),319395.3000000119,2000,O,z,590,11,1,2612.0,316783.3000000119,7136,NTS,A,16
4,17,test,1,B,triangle.png,1,m,Mon Jun 02 2025 09:18:33 GMT-0500 (Central Daylight Time),321878.0,1500,O,m,962,4,1,2478.900000035763,319399.09999996424,7136,NTS,A,17
4,18,test,1,B,triangle.png,1,m,Mon Jun 02 2025 09:18:33 GMT-0500 (Central Daylight Time),323494.1999999881,1000,O,m,587,12,1,1612.699999988079,321881.5,7136,NTS,A,18
6,19,test,1,B,triangle.png,1,m,Mon Jun 02 2025 09:18:33 GMT-0500 (Central Daylight Time),325077.0,1000,O,m,555,5,1,1579.1000000238419,323497.89999997616,7136,NTS,A,19
3,20,test,1,B,triangle.png,1,z,Mon Jun 02 2025 09:18:33 GMT-0500 (Central Daylight Time),327810.89999997616,2000,O,z,700,11,1,2730.300000011921,325080.59999996424,7136,NTS,A,20
9,21,test,1,B,triangle.png,1,z,Mon Jun 02 2025 09:18:33 GMT-0500 (Central Daylight Time),330575.39999997616,1900,O,z,836,16,1,2760.599999964237,327814.8000000119,7136,NTS,A,21
8,22,test,1,B,triangle.png,1,m,Mon Jun 02 2025 09:18:33 GMT-0500 (Central Daylight Time),332907.8000000119,1700,O,m,606,15,1,2328.600000023842,330579.1999999881,7136,NTS,A,22
6,23,test,1,B,triangle.png,1,m,Mon Jun 02 2025 09:18:33 GMT-0500 (Central Daylight Time),335240.5,1500,O,m,810,13,1,2329.0,332911.5,7136,NTS,A,23
2,23,test,1,B,triangle.png,0,m,Mon Jun 02 2025 09:18:33 GMT-0500 (Central Daylight Time),337573.09999996424,1700,O,z,605,2,1,2329.0,335244.09999996424,7136,NTS,A,24
6,1,prac,1,C,circle.png,1,m,Mon Jun 02 2025 09:18:33 GMT-0500 (Central Daylight Time),395854.89999997616,2000,O,m,1285,5,1,4077.599999964237,391777.3000000119,7136,NTS,A,1
9,1,prac,1,C,circle.png,0,m,Mon Jun 02 2025 09:18:33 GMT-0500 (Central Daylight Time),400054.39999997616,1900,O,None,1515,8,1,4194.300000011921,395860.09999996424,7136,NTS,A,2
8,1,prac,1,C,triangle.png,0,m,Mon Jun 02 2025 09:18:33 GMT-0500 (Central Daylight Time),403752.3000000119,1400,O,None,1516,7,1,3692.7000000476837,400059.59999996424,7136,NTS,A,3
3,2,prac,1,C,triangle.png,1,z,Mon Jun 02 2025 09:18:33 GMT-0500 (Central Daylight Time),406801.3000000119,1500,O,z,765,3,1,3044.0,403757.3000000119,7136,NTS,A,4
2,3,prac,1,C,triangle.png,1,m,Mon Jun 02 2025 09:18:33 GMT-0500 (Central Daylight Time),410167.09999996424,1600,O,m,976,2,1,3361.099999964237,406806.0,7136,NTS,A,5
7,4,prac,1,C,triangle.png,1,z,Mon Jun 02 2025 09:18:33 GMT-0500 (Central Daylight Time),413266.0,1200,O,z,1126,6,1,3094.199999988079,410171.8000000119,7136,NTS,A,6
9,5,prac,1,C,circle.png,1,m,Mon Jun 02 2025 09:18:33 GMT-0500 (Central Daylight Time),416664.6999999881,1900,O,m,708,8,1,3393.800000011921,413270.89999997616,7136,NTS,A,7
1,5,prac,1,C,circle.png,0,z,Mon Jun 02 2025 09:18:33 GMT-0500 (Central Daylight Time),420130.39999997616,1700,O,m,973,1,1,3461.0,416669.39999997616,7136,NTS,A,8
2,6,prac,1,C,triangle.png,1,m,Mon Jun 02 2025 09:18:33 GMT-0500 (Central Daylight Time),423912.59999996424,1600,O,m,1383,2,1,3777.199999988079,420135.39999997616,7136,NTS,A,9
4,7,prac,1,C,circle.png,1,z,Mon Jun 02 2025 09:18:33 GMT-0500 (Central Daylight Time),426311.6999999881,1000,O,z,601,4,1,2394.199999988079,423917.5,7136,NTS,A,10
4,7,prac,1,C,circle.png,0,z,Mon Jun 02 2025 09:18:33 GMT-0500 (Central Daylight Time),428645.59999996424,1000,O,m,546,4,1,2328.7999999523163,426316.8000000119,7136,NTS,A,11
3,7,prac,1,C,triangle.png,0,z,Mon Jun 02 2025 09:18:33 GMT-0500 (Central Daylight Time),431793.39999997616,1500,O,m,857,3,1,3142.699999988079,428650.6999999881,7136,NTS,A,12
6,0,prac,2,C,circle.png,0,m,Mon Jun 02 2025 09:18:33 GMT-0500 (Central Daylight Time),446172.3000000119,2000,O,None,1516,5,1,4292.400000035763,441879.89999997616,7136,NTS,A,1
8,1,prac,2,C,triangle.png,1,m,Mon Jun 02 2025 09:18:33 GMT-0500 (Central Daylight Time),449771.09999996424,1400,O,m,1413,7,1,3592.699999988079,446178.39999997616,7136,NTS,A,2
9,1,prac,2,C,circle.png,0,m,Mon Jun 02 2025 09:18:33 GMT-0500 (Central Daylight Time),453969.8000000119,1900,O,None,1515,8,1,4194.0,449775.8000000119,7136,NTS,A,3
3,2,prac,2,C,triangle.png,1,z,Mon Jun 02 2025 09:18:33 GMT-0500 (Central Daylight Time),457268.89999997616,1500,O,z,1011,3,1,3294.199999988079,453974.6999999881,7136,NTS,A,4
4,2,prac,2,C,circle.png,0,z,Mon Jun 02 2025 09:18:33 GMT-0500 (Central Daylight Time),459764.1999999881,1000,O,m,636,4,1,2490.5,457273.6999999881,7136,NTS,A,5
4,2,prac,2,C,circle.png,0,z,Mon Jun 02 2025 09:18:33 GMT-0500 (Central Daylight Time),463066.6999999881,1000,O,None,1515,4,1,3296.899999976158,459769.8000000119,7136,NTS,A,6
9,3,prac,2,C,circle.png,1,m,Mon Jun 02 2025 09:18:33 GMT-0500 (Central Daylight Time),466532.5,1900,O,m,779,8,1,3460.800000011921,463071.6999999881,7136,NTS,A,7
2,4,prac,2,C,triangle.png,1,m,Mon Jun 02 2025 09:18:33 GMT-0500 (Central Daylight Time),470081.39999997616,1600,O,m,1149,2,1,3544.199999988079,466537.1999999881,7136,NTS,A,8
7,5,prac,2,C,triangle.png,1,z,Mon Jun 02 2025 09:18:33 GMT-0500 (Central Daylight Time),472863.8000000119,1200,O,z,784,6,1,2777.400000035763,470086.39999997616,7136,NTS,A,9
7,6,prac,2,C,triangle.png,1,z,Mon Jun 02 2025 09:18:33 GMT-0500 (Central Daylight Time),475679.5,1200,O,z,825,6,1,2811.0,472868.5,7136,NTS,A,10
1,6,prac,2,C,circle.png,0,z,Mon Jun 02 2025 09:18:33 GMT-0500 (Central Daylight Time),478612.0,1700,O,m,438,1,1,2927.800000011921,475684.1999999881,7136,NTS,A,11
1,7,prac,2,C,circle.png,1,z,Mon Jun 02 2025 09:18:33 GMT-0500 (Central Daylight Time),481661.59999996424,1700,O,z,561,1,1,3044.899999976158,478616.6999999881,7136,NTS,A,12
3,0,test,1,C,circle.png,0,z,Mon Jun 02 2025 09:18:33 GMT-0500 (Central Daylight Time),524630.8999999762,1600,O,None,1516,11,1,3129.0,521501.89999997616,7136,NTS,A,1
9,0,test,1,C,triangle.png,0,z,Mon Jun 02 2025 09:18:33 GMT-0500 (Central Daylight Time),527563.3000000119,1400,O,None,1515,16,1,2928.400000035763,524634.8999999762,7136,NTS,A,2
1,0,test,1,C,triangle.png,0,z,Mon Jun 02 2025 09:18:33 GMT-0500 (Central Daylight Time),530595.8000000119,1900,O,m,1106,9,1,3028.900000035763,527566.8999999762,7136,NTS,A,3
2,0,test,1,C,circle.png,0,z,Mon Jun 02 2025 09:18:33 GMT-0500 (Central Daylight Time),533828.0,1700,O,None,1516,18,1,3228.5,530599.5,7136,NTS,A,4
4,0,test,1,C,triangle.png,0,m,Mon Jun 02 2025 09:18:33 GMT-0500 (Central Daylight Time),536010.5,1500,O,z,665,20,1,2178.800000011921,533831.6999999881,7136,NTS,A,5
7,0,test,1,C,circle.png,0,m,Mon Jun 02 2025 09:18:33 GMT-0500 (Central Daylight Time),539543.0,2000,O,None,1516,14,1,3529.100000023842,536013.8999999762,7136,NTS,A,6
9,1,test,1,C,circle.png,1,m,Mon Jun 02 2025 09:18:33 GMT-0500 (Central Daylight Time),542042.0,1500,O,m,967,8,1,2495.5,539546.5,7136,NTS,A,7
9,2,test,1,C,circle.png,1,m,Mon Jun 02 2025 09:18:33 GMT-0500 (Central Daylight Time),544041.3999999762,1500,O,m,475,24,1,1995.5999999642372,542045.8000000119,7136,NTS,A,8
8,2,test,1,C,triangle.png,0,m,Mon Jun 02 2025 09:18:33 GMT-0500 (Central Daylight Time),546224.0999999642,1600,O,z,552,7,1,2179.0,544045.0999999642,7136,NTS,A,9
8,2,test,1,C,triangle.png,0,m,Mon Jun 02 2025 09:18:33 GMT-0500 (Central Daylight Time),548706.5999999642,1600,O,z,857,23,1,2478.099999964237,546228.5,7136,NTS,A,10
6,3,test,1,C,circle.png,1,m,Mon Jun 02 2025 09:18:33 GMT-0500 (Central Daylight Time),551322.1999999881,1900,O,m,699,5,1,2611.399999976158,548710.8000000119,7136,NTS,A,11
3,4,test,1,C,circle.png,1,z,Mon Jun 02 2025 09:18:33 GMT-0500 (Central Daylight Time),554065.8000000119,1600,O,z,1109,19,1,2739.900000035763,551325.8999999762,7136,NTS,A,12
8,5,test,1,C,circle.png,1,m,Mon Jun 02 2025 09:18:33 GMT-0500 (Central Daylight Time),556037.5999999642,1200,O,m,737,15,1,1967.5999999642372,554070.0,7136,NTS,A,13
6,5,test,1,C,triangle.png,0,m,Mon Jun 02 2025 09:18:33 GMT-0500 (Central Daylight Time),558120.3999999762,1000,O,z,1059,13,1,2079.199999988079,556041.1999999881,7136,NTS,A,14
2,6,test,1,C,circle.png,1,z,Mon Jun 02 2025 09:18:33 GMT-0500 (Central Daylight Time),560853.0999999642,1700,O,z,1005,10,1,2728.199999988079,558124.8999999762,7136,NTS,A,15
1,6,test,1,C,triangle.png,0,z,Mon Jun 02 2025 09:18:33 GMT-0500 (Central Daylight Time),563718.5,1900,O,m,945,17,1,2861.800000011921,560856.6999999881,7136,NTS,A,16
1,7,test,1,C,circle.png,1,z,Mon Jun 02 2025 09:18:33 GMT-0500 (Central Daylight Time),565884.5999999642,1000,O,z,1147,1,1,2162.399999976158,563722.1999999881,7136,NTS,A,17
2,8,test,1,C,triangle.png,1,m,Mon Jun 02 2025 09:18:33 GMT-0500 (Central Daylight Time),568517.3000000119,2000,O,m,605,2,1,2628.900000035763,565888.3999999762,7136,NTS,A,18
4,9,test,1,C,triangle.png,1,m,Mon Jun 02 2025 09:18:33 GMT-0500 (Central Daylight Time),570949.6999999881,1500,O,m,912,12,1,2428.399999976158,568521.3000000119,7136,NTS,A,19
4,10,test,1,C,circle.png,1,z,Mon Jun 02 2025 09:18:33 GMT-0500 (Central Daylight Time),573099.3000000119,1400,O,z,724,4,1,2145.900000035763,570953.3999999762,7136,NTS,A,20
3,10,test,1,C,triangle.png,0,z,Mon Jun 02 2025 09:18:33 GMT-0500 (Central Daylight Time),575214.8999999762,1200,O,m,886,3,1,2111.899999976158,573103.0,7136,NTS,A,21
6,10,test,1,C,circle.png,0,m,Mon Jun 02 2025 09:18:33 GMT-0500 (Central Daylight Time),577607.8000000119,1900,O,z,477,21,1,2389.400000035763,575218.3999999762,7136,NTS,A,22
7,10,test,1,C,triangle.png,0,z,Mon Jun 02 2025 09:18:33 GMT-0500 (Central Daylight Time),580213.1999999881,1700,O,m,872,6,1,2600.0,577613.1999999881,7136,NTS,A,23
7,11,test,1,C,triangle.png,1,z,Mon Jun 02 2025 09:18:33 GMT-0500 (Central Daylight Time),582862.5999999642,1700,O,z,928,22,1,2644.599999964237,580218.0,7136,NTS,A,24
7,0,test,2,C,circle.png,0,m,Mon Jun 02 2025 09:18:33 GMT-0500 (Central Daylight Time),588394.3999999762,2000,O,z,1067,14,1,3096.399999976158,585298.0,7136,NTS,A,1
9,0,test,2,C,triangle.png,0,z,Mon Jun 02 2025 09:18:33 GMT-0500 (Central Daylight Time),590743.5999999642,1400,O,m,927,16,1,2345.0,588398.5999999642,7136,NTS,A,2
3,1,test,2,C,circle.png,1,z,Mon Jun 02 2025 09:18:33 GMT-0500 (Central Daylight Time),593575.8999999762,1600,O,z,1210,19,1,2828.599999964237,590747.3000000119,7136,NTS,A,3
9,1,test,2,C,triangle.png,0,z,Mon Jun 02 2025 09:18:33 GMT-0500 (Central Daylight Time),595941.5999999642,1400,O,m,945,24,1,2362.099999964237,593579.5,7136,NTS,A,4
2,2,test,2,C,circle.png,1,z,Mon Jun 02 2025 09:18:33 GMT-0500 (Central Daylight Time),598457.5999999642,1700,O,z,792,10,1,2512.199999988079,595945.3999999762,7136,NTS,A,5
6,3,test,2,C,triangle.png,1,m,Mon Jun 02 2025 09:18:33 GMT-0500 (Central Daylight Time),600573.8000000119,1000,O,m,1087,21,1,2112.5,598461.3000000119,7136,NTS,A,6
6,4,test,2,C,triangle.png,1,m,Mon Jun 02 2025 09:18:33 GMT-0500 (Central Daylight Time),602473.0,1000,O,m,868,13,1,1895.6000000238419,600577.3999999762,7136,NTS,A,7
6,5,test,2,C,circle.png,1,m,Mon Jun 02 2025 09:18:33 GMT-0500 (Central Daylight Time),605505.3000000119,1900,O,m,1108,5,1,3028.800000011921,602476.5,7136,NTS,A,8
1,6,test,2,C,circle.png,1,z,Mon Jun 02 2025 09:18:33 GMT-0500 (Central Daylight Time),607371.5,1000,O,z,848,1,1,1862.300000011921,605509.1999999881,7136,NTS,A,9
1,6,test,2,C,triangle.png,0,z,Mon Jun 02 2025 09:18:33 GMT-0500 (Central Daylight Time),610187.5999999642,1900,O,m,890,9,1,2812.099999964237,607375.5,7136,NTS,A,10
4,7,test,2,C,triangle.png,1,m,Mon Jun 02 2025 09:18:33 GMT-0500 (Central Daylight Time),612520.0,1500,O,m,802,12,1,2328.699999988079,610191.3000000119,7136,NTS,A,11
3,7,test,2,C,circle.png,0,z,Mon Jun 02 2025 09:18:33 GMT-0500 (Central Daylight Time),615302.3999999762,1600,O,m,1153,11,1,2777.899999976158,612524.5,7136,NTS,A,12
8,8,test,2,C,triangle.png,1,m,Mon Jun 02 2025 09:18:33 GMT-0500 (Central Daylight Time),618101.5,1600,O,m,1171,7,1,2795.199999988079,615306.3000000119,7136,NTS,A,13
2,9,test,2,C,circle.png,1,z,Mon Jun 02 2025 09:18:33 GMT-0500 (Central Daylight Time),620184.1999999881,1700,O,z,360,18,1,2079.100000023842,618105.0999999642,7136,NTS,A,14
8,10,test,2,C,circle.png,1,m,Mon Jun 02 2025 09:18:33 GMT-0500 (Central Daylight Time),622350.0,1200,O,m,937,15,1,2162.100000023842,620187.8999999762,7136,NTS,A,15
1,10,test,2,C,triangle.png,0,z,Mon Jun 02 2025 09:18:33 GMT-0500 (Central Daylight Time),625182.8000000119,1900,O,m,903,17,1,2829.0,622353.8000000119,7136,NTS,A,16
9,11,test,2,C,circle.png,1,m,Mon Jun 02 2025 09:18:33 GMT-0500 (Central Daylight Time),627631.8000000119,1500,O,m,919,8,1,2445.2000000476837,625186.5999999642,7136,NTS,A,17
3,12,test,2,C,triangle.png,1,z,Mon Jun 02 2025 09:18:33 GMT-0500 (Central Daylight Time),629881.3999999762,1200,O,z,1025,3,1,2245.800000011921,627635.5999999642,7136,NTS,A,18
2,13,test,2,C,triangle.png,1,m,Mon Jun 02 2025 09:18:33 GMT-0500 (Central Daylight Time),632263.6999999881,2000,O,m,352,2,1,2378.699999988079,629885.0,7136,NTS,A,19
7,14,test,2,C,circle.png,1,m,Mon Jun 02 2025 09:18:33 GMT-0500 (Central Daylight Time),634629.5,2000,O,m,338,22,1,2362.0,632267.5,7136,NTS,A,20
4,14,test,2,C,circle.png,0,z,Mon Jun 02 2025 09:18:33 GMT-0500 (Central Daylight Time),636495.6999999881,1400,O,m,444,4,1,1862.5,634633.1999999881,7136,NTS,A,21
8,15,test,2,C,circle.png,1,m,Mon Jun 02 2025 09:18:33 GMT-0500 (Central Daylight Time),638411.8999999762,1200,O,m,697,23,1,1912.3999999761581,636499.5,7136,NTS,A,22
4,15,test,2,C,triangle.png,0,m,Mon Jun 02 2025 09:18:33 GMT-0500 (Central Daylight Time),640627.8999999762,1500,O,z,690,20,1,2212.399999976158,638415.5,7136,NTS,A,23
7,15,test,2,C,triangle.png,0,z,Mon Jun 02 2025 09:18:33 GMT-0500 (Central Daylight Time),643093.5,1700,O,m,746,6,1,2462.100000023842,640631.3999999762,7136,NTS,A,24
1,1,test,3,C,circle.png,1,z,Mon Jun 02 2025 09:18:33 GMT-0500 (Central Daylight Time),646842.3999999762,1000,O,z,1082,17,1,2096.199999988079,644746.1999999881,7136,NTS,A,1
9,2,test,3,C,circle.png,1,m,Mon Jun 02 2025 09:18:33 GMT-0500 (Central Daylight Time),649358.3000000119,1500,O,m,984,24,1,2512.2000000476837,646846.0999999642,7136,NTS,A,2
3,2,test,3,C,triangle.png,0,z,Mon Jun 02 2025 09:18:33 GMT-0500 (Central Daylight Time),651357.6999999881,1200,O,m,779,3,1,1995.699999988079,649362.0,7136,NTS,A,3
8,3,test,3,C,triangle.png,1,m,Mon Jun 02 2025 09:18:33 GMT-0500 (Central Daylight Time),653623.8000000119,1600,O,m,643,7,1,2262.600000023842,651361.1999999881,7136,NTS,A,4
7,4,test,3,C,circle.png,1,m,Mon Jun 02 2025 09:18:33 GMT-0500 (Central Daylight Time),656622.8999999762,2000,O,m,978,14,1,2995.5,653627.3999999762,7136,NTS,A,5
4,5,test,3,C,circle.png,1,z,Mon Jun 02 2025 09:18:33 GMT-0500 (Central Daylight Time),658805.5,1400,O,z,755,4,1,2177.600000023842,656627.8999999762,7136,NTS,A,6
7,5,test,3,C,triangle.png,0,z,Mon Jun 02 2025 09:18:33 GMT-0500 (Central Daylight Time),662037.8000000119,1700,O,None,1516,6,1,3228.100000023842,658809.6999999881,7136,NTS,A,7
6,6,test,3,C,triangle.png,1,m,Mon Jun 02 2025 09:18:33 GMT-0500 (Central Daylight Time),664137.0,1000,O,m,1067,13,1,2095.600000023842,662041.3999999762,7136,NTS,A,8
9,6,test,3,C,triangle.png,0,z,Mon Jun 02 2025 09:18:33 GMT-0500 (Central Daylight Time),666419.5999999642,1400,O,m,864,16,1,2279.0,664140.5999999642,7136,NTS,A,9
8,7,test,3,C,circle.png,1,m,Mon Jun 02 2025 09:18:33 GMT-0500 (Central Daylight Time),668568.8000000119,1200,O,m,925,15,1,2145.5,666423.3000000119,7136,NTS,A,10
7,7,test,3,C,triangle.png,0,z,Mon Jun 02 2025 09:18:33 GMT-0500 (Central Daylight Time),671798.3000000119,1700,O,None,1512,22,1,3225.5,668572.8000000119,7136,NTS,A,11
3,7,test,3,C,triangle.png,0,z,Mon Jun 02 2025 09:18:33 GMT-0500 (Central Daylight Time),674533.8999999762,1200,O,None,1516,19,1,2731.699999988079,671802.1999999881,7136,NTS,A,12
2,7,test,3,C,circle.png,0,z,Mon Jun 02 2025 09:18:33 GMT-0500 (Central Daylight Time),676682.8999999762,1700,O,m,431,10,1,2145.300000011921,674537.5999999642,7136,NTS,A,13
2,8,test,3,C,triangle.png,1,m,Mon Jun 02 2025 09:18:33 GMT-0500 (Central Daylight Time),679632.0,2000,O,m,918,2,1,2945.699999988079,676686.3000000119,7136,NTS,A,14
4,9,test,3,C,circle.png,1,z,Mon Jun 02 2025 09:18:33 GMT-0500 (Central Daylight Time),682048.1999999881,1400,O,z,993,20,1,2410.800000011921,679637.3999999762,7136,NTS,A,15
9,10,test,3,C,circle.png,1,m,Mon Jun 02 2025 09:18:33 GMT-0500 (Central Daylight Time),684230.8000000119,1500,O,m,653,8,1,2178.600000023842,682052.1999999881,7136,NTS,A,16
4,10,test,3,C,triangle.png,0,m,Mon Jun 02 2025 09:18:33 GMT-0500 (Central Daylight Time),686596.6999999881,1500,O,z,847,12,1,2362.199999988079,684234.5,7136,NTS,A,17
6,11,test,3,C,circle.png,1,m,Mon Jun 02 2025 09:18:33 GMT-0500 (Central Daylight Time),689012.5,1900,O,m,489,5,1,2412.199999988079,686600.3000000119,7136,NTS,A,18
1,12,test,3,C,circle.png,1,z,Mon Jun 02 2025 09:18:33 GMT-0500 (Central Daylight Time),690762.0999999642,1000,O,z,732,1,1,1745.699999988079,689016.3999999762,7136,NTS,A,19
2,13,test,3,C,triangle.png,1,m,Mon Jun 02 2025 09:18:33 GMT-0500 (Central Daylight Time),693544.3000000119,2000,O,m,751,18,1,2778.600000023842,690765.6999999881,7136,NTS,A,20
1,13,test,3,C,triangle.png,0,z,Mon Jun 02 2025 09:18:33 GMT-0500 (Central Daylight Time),696243.5,1900,O,m,772,9,1,2695.100000023842,693548.3999999762,7136,NTS,A,21
6,14,test,3,C,circle.png,1,m,Mon Jun 02 2025 09:18:33 GMT-0500 (Central Daylight Time),698892.8000000119,1900,O,m,730,21,1,2645.7000000476837,696247.0999999642,7136,NTS,A,22
3,15,test,3,C,circle.png,1,z,Mon Jun 02 2025 09:18:33 GMT-0500 (Central Daylight Time),701142.0999999642,1600,O,z,628,11,1,2245.599999964237,698896.5,7136,NTS,A,23
8,15,test,3,C,triangle.png,0,m,Mon Jun 02 2025 09:18:33 GMT-0500 (Central Daylight Time),703841.1999999881,1600,O,z,1075,23,1,2695.5,701145.6999999881,7136,NTS,A,24
8,1,test,4,C,triangle.png,1,m,Mon Jun 02 2025 09:18:33 GMT-0500 (Central Daylight Time),708039.8999999762,1600,O,m,869,7,1,2495.800000011921,705544.0999999642,7136,NTS,A,1
7,2,test,4,C,circle.png,1,m,Mon Jun 02 2025 09:18:33 GMT-0500 (Central Daylight Time),711089.0999999642,2000,O,m,1017,14,1,3045.0,708044.0999999642,7136,NTS,A,2
6,3,test,4,C,circle.png,1,m,Mon Jun 02 2025 09:18:33 GMT-0500 (Central Daylight Time),713871.3000000119,1900,O,m,852,5,1,2778.400000035763,711092.8999999762,7136,NTS,A,3
4,4,test,4,C,circle.png,1,z,Mon Jun 02 2025 09:18:33 GMT-0500 (Central Daylight Time),716320.5,1400,O,z,1018,20,1,2444.900000035763,713875.5999999642,7136,NTS,A,4
3,5,test,4,C,triangle.png,1,z,Mon Jun 02 2025 09:18:33 GMT-0500 (Central Daylight Time),718469.8999999762,1200,O,z,921,19,1,2145.699999988079,716324.1999999881,7136,NTS,A,5
9,6,test,4,C,circle.png,1,m,Mon Jun 02 2025 09:18:33 GMT-0500 (Central Daylight Time),720885.8000000119,1500,O,m,895,24,1,2412.2000000476837,718473.5999999642,7136,NTS,A,6
9,7,test,4,C,circle.png,1,m,Mon Jun 02 2025 09:18:33 GMT-0500 (Central Daylight Time),723018.5999999642,1500,O,m,600,8,1,2128.099999964237,720890.5,7136,NTS,A,7
4,8,test,4,C,circle.png,1,z,Mon Jun 02 2025 09:18:33 GMT-0500 (Central Daylight Time),725034.3000000119,1400,O,z,599,4,1,2012.2000000476837,723022.0999999642,7136,NTS,A,8
2,9,test,4,C,circle.png,1,z,Mon Jun 02 2025 09:18:33 GMT-0500 (Central Daylight Time),727266.8999999762,1700,O,z,507,10,1,2228.800000011921,725038.0999999642,7136,NTS,A,9
2,10,test,4,C,triangle.png,1,m,Mon Jun 02 2025 09:18:33 GMT-0500 (Central Daylight Time),729966.0999999642,2000,O,m,678,2,1,2695.599999964237,727270.5,7136,NTS,A,10
4,11,test,4,C,triangle.png,1,m,Mon Jun 02 2025 09:18:33 GMT-0500 (Central Daylight Time),731965.8000000119,1500,O,m,479,12,1,1996.2000000476837,729969.5999999642,7136,NTS,A,11
3,12,test,4,C,circle.png,1,z,Mon Jun 02 2025 09:18:33 GMT-0500 (Central Daylight Time),734248.3999999762,1600,O,z,651,11,1,2279.099999964237,731969.3000000119,7136,NTS,A,12
9,12,test,4,C,triangle.png,0,z,Mon Jun 02 2025 09:18:33 GMT-0500 (Central Daylight Time),736414.3999999762,1400,O,m,736,16,1,2162.399999976158,734252.0,7136,NTS,A,13
1,13,test,4,C,circle.png,1,z,Mon Jun 02 2025 09:18:33 GMT-0500 (Central Daylight Time),738146.8000000119,1000,O,z,715,17,1,1728.9000000357628,736417.8999999762,7136,NTS,A,14
8,13,test,4,C,triangle.png,0,m,Mon Jun 02 2025 09:18:33 GMT-0500 (Central Daylight Time),741029.5,1600,O,z,1254,23,1,2879.400000035763,738150.0999999642,7136,NTS,A,15
1,14,test,4,C,circle.png,1,z,Mon Jun 02 2025 09:18:33 GMT-0500 (Central Daylight Time),742628.8999999762,1000,O,z,572,1,1,1596.0,741032.8999999762,7136,NTS,A,16
3,14,test,4,C,triangle.png,0,z,Mon Jun 02 2025 09:18:33 GMT-0500 (Central Daylight Time),744645.0,1200,O,m,788,3,1,2012.5,742632.5,7136,NTS,A,17
8,15,test,4,C,circle.png,1,m,Mon Jun 02 2025 09:18:33 GMT-0500 (Central Daylight Time),746794.3999999762,1200,O,m,916,15,1,2145.800000011921,744648.5999999642,7136,NTS,A,18
7,15,test,4,C,triangle.png,0,z,Mon Jun 02 2025 09:18:33 GMT-0500 (Central Daylight Time),749260.0999999642,1700,O,m,739,6,1,2462.099999964237,746798.0,7136,NTS,A,19
2,16,test,4,C,triangle.png,1,m,Mon Jun 02 2025 09:18:33 GMT-0500 (Central Daylight Time),752176.0,2000,O,m,885,18,1,2912.100000023842,749263.8999999762,7136,NTS,A,20
7,16,test,4,C,triangle.png,0,z,Mon Jun 02 2025 09:18:33 GMT-0500 (Central Daylight Time),754608.6999999881,1700,O,m,709,22,1,2429.0,752179.6999999881,7136,NTS,A,21
6,16,test,4,C,triangle.png,0,m,Mon Jun 02 2025 09:18:33 GMT-0500 (Central Daylight Time),756574.6999999881,1000,O,z,944,13,1,1962.199999988079,754612.5,7136,NTS,A,22
6,17,test,4,C,circle.png,1,m,Mon Jun 02 2025 09:18:33 GMT-0500 (Central Daylight Time),759623.6999999881,1900,O,m,1119,21,1,3045.5,756578.1999999881,7136,NTS,A,23
1,17,test,4,C,triangle.png,0,z,Mon Jun 02 2025 09:18:33 GMT-0500 (Central Daylight Time),762373.0999999642,1900,O,m,830,9,1,2745.099999964237,759628.0,7136,NTS,A,24
