acc_sum,block,block_c,block_cond,con_img,correct,correct_response,datetime,endtime,face,jitter,line,project,response,response_time,row_sel,session_number,start_end,starttime,subject_id,task,task_vers,trial
1,prac,1,A,haborder.png,1,z,Fri Jan 30 2026 10:30:00 GMT-0600 (Central Standard Time),95724.5,CFD-BF-002-018-A.jpg,1200,solid,I,z,1271,6,3,3266.7000000178814,92457.79999998212,8051,ATS,C,1
2,prac,1,A,haborder.png,1,m,Fri Jan 30 2026 10:30:00 GMT-0600 (Central Standard Time),98906.69999998808,CFD-BM-034-035-HC.jpg,1700,solid,I,m,690,1,3,6448.9000000059605,92457.79999998212,8051,ATS,C,2
3,prac,1,A,haborder.png,1,z,Fri Jan 30 2026 10:30:00 GMT-0600 (Central Standard Time),101887.79999998212,CFD-BM-043-014-A.jpg,1600,solid,I,z,584,2,3,9430.0,92457.79999998212,8051,ATS,C,3
4,prac,1,A,haborder.png,1,z,Fri Jan 30 2026 10:30:00 GMT-0600 (Central Standard Time),104437.19999998808,CFD-BF-031-020-A.jpg,1000,solid,I,z,754,4,3,11979.40000000596,92457.79999998212,8051,ATS,C,4
5,prac,1,A,haborder.png,1,m,Fri Jan 30 2026 10:30:00 GMT-0600 (Central Standard Time),107303.09999999404,CFD-WM-028-005-HC.jpg,1400,solid,I,m,667,7,3,14845.300000011921,92457.79999998212,8051,ATS,C,5
6,prac,1,A,haborder.png,1,m,Fri Jan 30 2026 10:30:00 GMT-0600 (Central Standard Time),110835.29999998212,CFD-BF-019-004-HC.jpg,2000,solid,I,m,746,5,3,18377.5,92457.79999998212,8051,ATS,C,6
7,prac,1,A,haborder.png,1,m,Fri Jan 30 2026 10:30:00 GMT-0600 (Central Standard Time),113701.0,CFD-BM-022-004-HC.jpg,1500,solid,I,m,569,3,3,21243.20000001788,92457.79999998212,8051,ATS,C,7
8,prac,1,A,haborder.png,1,m,Fri Jan 30 2026 10:30:00 GMT-0600 (Central Standard Time),116650.09999999404,CFD-WF-013-009-HC.jpg,1500,solid,I,m,657,11,3,24192.30000001192,92457.79999998212,8051,ATS,C,8
9,prac,1,A,haborder.png,1,z,Fri Jan 30 2026 10:30:00 GMT-0600 (Central Standard Time),119699.0,CFD-WF-037-016-A.jpg,1600,solid,I,z,656,10,3,27241.20000001788,92457.79999998212,8051,ATS,C,9
9,prac,1,A,haborder.png,0,m,Fri Jan 30 2026 10:30:00 GMT-0600 (Central Standard Time),122764.90000000596,CFD-WM-035-036-HC.jpg,1700,solid,I,z,579,9,3,30307.100000023842,92457.79999998212,8051,ATS,C,10
10,prac,1,A,haborder.png,1,z,Fri Jan 30 2026 10:30:00 GMT-0600 (Central Standard Time),126113.69999998808,CFD-WM-036-018-A.jpg,1900,solid,I,z,657,8,3,33655.90000000596,92457.79999998212,8051,ATS,C,11
11,prac,1,A,haborder.png,1,z,Fri Jan 30 2026 10:30:00 GMT-0600 (Central Standard Time),128629.79999998212,CFD-WF-023-013-A.jpg,1000,solid,I,z,726,12,3,36172.0,92457.79999998212,8051,ATS,C,12
1,prac,1,B,mfborder.png,1,z,Fri Jan 30 2026 10:30:00 GMT-0600 (Central Standard Time),159453.40000000596,CFD-BF-042-031-HC.jpg,1500,3,I,z,710,dash,3,2999.300000011921,156454.09999999404,8051,ATS,C,1
2,prac,1,B,mfborder.png,1,m,Fri Jan 30 2026 10:30:00 GMT-0600 (Central Standard Time),162986.90000000596,CFD-BM-043-014-A.jpg,2000,5,I,m,747,dash,3,6532.800000011921,156454.09999999404,8051,ATS,C,2
3,prac,1,B,mfborder.png,1,m,Fri Jan 30 2026 10:30:00 GMT-0600 (Central Standard Time),166051.29999998212,CFD-WM-035-036-HC.jpg,1600,10,I,m,672,dash,3,9597.199999988079,156454.09999999404,8051,ATS,C,3
4,prac,1,B,mfborder.png,1,z,Fri Jan 30 2026 10:30:00 GMT-0600 (Central Standard Time),169050.40000000596,CFD-WF-037-016-A.jpg,1500,11,I,z,706,dash,3,12596.300000011921,156454.09999999404,8051,ATS,C,4
5,prac,1,B,mfborder.png,1,m,Fri Jan 30 2026 10:30:00 GMT-0600 (Central Standard Time),172216.19999998808,CFD-BM-021-026-A.jpg,1600,2,I,m,767,dash,3,15762.09999999404,156454.09999999404,8051,ATS,C,5
6,prac,1,B,mfborder.png,1,z,Fri Jan 30 2026 10:30:00 GMT-0600 (Central Standard Time),176031.59999999404,CFD-WF-001-010-HC.jpg,1900,8,I,z,1124,dash,3,19577.5,156454.09999999404,8051,ATS,C,6
7,prac,1,B,mfborder.png,1,z,Fri Jan 30 2026 10:30:00 GMT-0600 (Central Standard Time),179280.69999998808,CFD-WF-013-009-HC.jpg,1000,12,I,z,1465,dash,3,22826.59999999404,156454.09999999404,8051,ATS,C,7
8,prac,1,B,mfborder.png,1,z,Fri Jan 30 2026 10:30:00 GMT-0600 (Central Standard Time),181646.40000000596,CFD-BF-031-020-A.jpg,1000,4,I,z,569,dash,3,25192.30000001192,156454.09999999404,8051,ATS,C,8
9,prac,1,B,mfborder.png,1,m,Fri Jan 30 2026 10:30:00 GMT-0600 (Central Standard Time),185045.19999998808,CFD-WM-036-018-A.jpg,1700,9,I,m,903,dash,3,28591.09999999404,156454.09999999404,8051,ATS,C,9
10,prac,1,B,mfborder.png,1,m,Fri Jan 30 2026 10:30:00 GMT-0600 (Central Standard Time),188228.0,CFD-WM-034-040-A.jpg,1200,6,I,m,1195,dash,3,31773.90000000596,156454.09999999404,8051,ATS,C,10
11,prac,1,B,mfborder.png,1,m,Fri Jan 30 2026 10:30:00 GMT-0600 (Central Standard Time),191176.5,CFD-BM-022-004-HC.jpg,1700,1,I,m,466,dash,3,34722.40000000596,156454.09999999404,8051,ATS,C,11
12,prac,1,B,mfborder.png,1,z,Fri Jan 30 2026 10:30:00 GMT-0600 (Central Standard Time),193875.90000000596,CFD-BF-019-004-HC.jpg,1400,7,I,z,504,dash,3,37421.80000001192,156454.09999999404,8051,ATS,C,12
1,test,1,A,haborder.png,1,m,Fri Jan 30 2026 10:30:00 GMT-0600 (Central Standard Time),217018.69999998808,CFD-WM-028-005-HC.jpg,1400,solid,I,m,799,7,3,2215.7999999821186,214802.90000000596,8051,ATS,C,1
2,test,1,A,haborder.png,1,z,Fri Jan 30 2026 10:30:00 GMT-0600 (Central Standard Time),219201.40000000596,CFD-WF-037-016-A.jpg,1600,solid,I,z,550,10,3,4398.5,214802.90000000596,8051,ATS,C,2
3,test,1,A,haborder.png,1,z,Fri Jan 30 2026 10:30:00 GMT-0600 (Central Standard Time),221733.69999998808,CFD-WM-036-018-A.jpg,1900,solid,I,z,603,8,3,6930.799999982119,214802.90000000596,8051,ATS,C,3
4,test,1,A,haborder.png,1,z,Fri Jan 30 2026 10:30:00 GMT-0600 (Central Standard Time),223916.40000000596,CFD-BM-043-014-A.jpg,1600,solid,I,z,561,2,3,9113.5,214802.90000000596,8051,ATS,C,4
5,test,1,A,haborder.png,1,m,Fri Jan 30 2026 10:30:00 GMT-0600 (Central Standard Time),225949.0,CFD-WF-013-009-HC.jpg,1500,solid,I,m,512,11,3,11146.09999999404,214802.90000000596,8051,ATS,C,5
6,test,1,A,haborder.png,1,z,Fri Jan 30 2026 10:30:00 GMT-0600 (Central Standard Time),228398.29999998212,CFD-WM-036-018-A.jpg,1900,solid,I,z,527,8,3,13595.399999976158,214802.90000000596,8051,ATS,C,6
7,test,1,A,haborder.png,1,m,Fri Jan 30 2026 10:30:00 GMT-0600 (Central Standard Time),230497.5,CFD-BM-022-004-HC.jpg,1500,solid,I,m,582,3,3,15694.59999999404,214802.90000000596,8051,ATS,C,7
8,test,1,A,haborder.png,1,m,Fri Jan 30 2026 10:30:00 GMT-0600 (Central Standard Time),232863.69999998808,CFD-WM-035-036-HC.jpg,1700,solid,I,m,635,9,3,18060.79999998212,214802.90000000596,8051,ATS,C,8
9,test,1,A,haborder.png,1,z,Fri Jan 30 2026 10:30:00 GMT-0600 (Central Standard Time),235079.79999998212,CFD-BM-043-014-A.jpg,1600,solid,I,z,594,2,3,20276.899999976158,214802.90000000596,8051,ATS,C,9
10,test,1,A,haborder.png,1,m,Fri Jan 30 2026 10:30:00 GMT-0600 (Central Standard Time),237029.09999999404,CFD-WM-028-005-HC.jpg,1400,solid,I,m,529,7,3,22226.19999998808,214802.90000000596,8051,ATS,C,10
11,test,1,A,haborder.png,1,m,Fri Jan 30 2026 10:30:00 GMT-0600 (Central Standard Time),239145.09999999404,CFD-BM-022-004-HC.jpg,1500,solid,I,m,584,3,3,24342.19999998808,214802.90000000596,8051,ATS,C,11
12,test,1,A,haborder.png,1,m,Fri Jan 30 2026 10:30:00 GMT-0600 (Central Standard Time),241760.79999998212,CFD-BF-019-004-HC.jpg,2000,solid,I,m,584,5,3,26957.899999976158,214802.90000000596,8051,ATS,C,12
13,test,1,A,haborder.png,1,z,Fri Jan 30 2026 10:30:00 GMT-0600 (Central Standard Time),243426.79999998212,CFD-WF-023-013-A.jpg,1000,solid,I,z,648,12,3,28623.899999976158,214802.90000000596,8051,ATS,C,13
14,test,1,A,haborder.png,1,z,Fri Jan 30 2026 10:30:00 GMT-0600 (Central Standard Time),245692.79999998212,CFD-WF-037-016-A.jpg,1600,solid,I,z,638,10,3,30889.899999976158,214802.90000000596,8051,ATS,C,14
15,test,1,A,haborder.png,1,z,Fri Jan 30 2026 10:30:00 GMT-0600 (Central Standard Time),247425.79999998212,CFD-BF-002-018-A.jpg,1200,solid,I,z,508,6,3,32622.899999976158,214802.90000000596,8051,ATS,C,15
16,test,1,A,haborder.png,1,m,Fri Jan 30 2026 10:30:00 GMT-0600 (Central Standard Time),249891.69999998808,CFD-BM-034-035-HC.jpg,1700,solid,I,m,748,1,3,35088.79999998212,214802.90000000596,8051,ATS,C,16
17,test,1,A,haborder.png,1,z,Fri Jan 30 2026 10:30:00 GMT-0600 (Central Standard Time),251508.0,CFD-BF-031-020-A.jpg,1000,solid,I,z,589,4,3,36705.09999999404,214802.90000000596,8051,ATS,C,17
18,test,1,A,haborder.png,1,m,Fri Jan 30 2026 10:30:00 GMT-0600 (Central Standard Time),253840.29999998212,CFD-WM-035-036-HC.jpg,1700,solid,I,m,601,9,3,39037.39999997616,214802.90000000596,8051,ATS,C,18
19,test,1,A,haborder.png,1,z,Fri Jan 30 2026 10:30:00 GMT-0600 (Central Standard Time),255440.0,CFD-WF-023-013-A.jpg,1000,solid,I,z,568,12,3,40637.09999999404,214802.90000000596,8051,ATS,C,19
20,test,1,A,haborder.png,1,m,Fri Jan 30 2026 10:30:00 GMT-0600 (Central Standard Time),257689.29999998212,CFD-WF-013-009-HC.jpg,1500,solid,I,m,725,11,3,42886.39999997616,214802.90000000596,8051,ATS,C,20
21,test,1,A,haborder.png,1,m,Fri Jan 30 2026 10:30:00 GMT-0600 (Central Standard Time),260105.40000000596,CFD-BM-034-035-HC.jpg,1700,solid,I,m,683,1,3,45302.5,214802.90000000596,8051,ATS,C,21
22,test,1,A,haborder.png,1,z,Fri Jan 30 2026 10:30:00 GMT-0600 (Central Standard Time),262004.79999998212,CFD-BF-002-018-A.jpg,1200,solid,I,z,679,6,3,47201.89999997616,214802.90000000596,8051,ATS,C,22
23,test,1,A,haborder.png,1,z,Fri Jan 30 2026 10:30:00 GMT-0600 (Central Standard Time),263654.1999999881,CFD-BF-031-020-A.jpg,1000,solid,I,z,620,4,3,48851.29999998212,214802.90000000596,8051,ATS,C,23
24,test,1,A,haborder.png,1,m,Fri Jan 30 2026 10:30:00 GMT-0600 (Central Standard Time),266286.6999999881,CFD-BF-019-004-HC.jpg,2000,solid,I,m,604,5,3,51483.79999998212,214802.90000000596,8051,ATS,C,24
1,test,1,B,mfborder.png,1,z,Fri Jan 30 2026 10:30:00 GMT-0600 (Central Standard Time),286480.2999999821,CFD-BF-019-004-HC.jpg,1400,dash,I,z,1268,7,3,2699.199999988079,283781.09999999404,8051,ATS,C,1
2,test,1,B,mfborder.png,1,z,Fri Jan 30 2026 10:30:00 GMT-0600 (Central Standard Time),287896.5,CFD-BF-031-020-A.jpg,1000,dash,I,z,393,4,3,4115.4000000059605,283781.09999999404,8051,ATS,C,2
2,test,1,B,mfborder.png,0,m,Fri Jan 30 2026 10:30:00 GMT-0600 (Central Standard Time),289629.09999999404,CFD-WM-034-040-A.jpg,1200,dash,I,z,505,6,3,5848.0,283781.09999999404,8051,ATS,C,3
2,test,1,B,mfborder.png,0,m,Fri Jan 30 2026 10:30:00 GMT-0600 (Central Standard Time),291828.59999999404,CFD-WM-036-018-A.jpg,1700,dash,I,z,479,9,3,8047.5,283781.09999999404,8051,ATS,C,4
3,test,1,B,mfborder.png,1,z,Fri Jan 30 2026 10:30:00 GMT-0600 (Central Standard Time),294361.1999999881,CFD-WF-001-010-HC.jpg,1900,dash,I,z,609,8,3,10580.09999999404,283781.09999999404,8051,ATS,C,5
4,test,1,B,mfborder.png,1,m,Fri Jan 30 2026 10:30:00 GMT-0600 (Central Standard Time),296843.40000000596,CFD-BM-043-014-A.jpg,2000,dash,I,m,464,5,3,13062.300000011921,283781.09999999404,8051,ATS,C,6
5,test,1,B,mfborder.png,1,m,Fri Jan 30 2026 10:30:00 GMT-0600 (Central Standard Time),299026.1999999881,CFD-WM-036-018-A.jpg,1700,dash,I,m,450,9,3,15245.09999999404,283781.09999999404,8051,ATS,C,7
6,test,1,B,mfborder.png,1,z,Fri Jan 30 2026 10:30:00 GMT-0600 (Central Standard Time),301009.0,CFD-BF-019-004-HC.jpg,1400,dash,I,z,559,7,3,17227.90000000596,283781.09999999404,8051,ATS,C,8
7,test,1,B,mfborder.png,1,m,Fri Jan 30 2026 10:30:00 GMT-0600 (Central Standard Time),303691.6999999881,CFD-BM-043-014-A.jpg,2000,dash,I,m,651,5,3,19910.59999999404,283781.09999999404,8051,ATS,C,9
8,test,1,B,mfborder.png,1,m,Fri Jan 30 2026 10:30:00 GMT-0600 (Central Standard Time),305907.5,CFD-BM-022-004-HC.jpg,1700,dash,I,m,490,1,3,22126.40000000596,283781.09999999404,8051,ATS,C,10
9,test,1,B,mfborder.png,1,z,Fri Jan 30 2026 10:30:00 GMT-0600 (Central Standard Time),307490.09999999404,CFD-WF-013-009-HC.jpg,1000,dash,I,z,565,12,3,23709.0,283781.09999999404,8051,ATS,C,11
10,test,1,B,mfborder.png,1,m,Fri Jan 30 2026 10:30:00 GMT-0600 (Central Standard Time),309739.59999999404,CFD-WM-035-036-HC.jpg,1600,dash,I,m,622,10,3,25958.5,283781.09999999404,8051,ATS,C,12
11,test,1,B,mfborder.png,1,z,Fri Jan 30 2026 10:30:00 GMT-0600 (Central Standard Time),311789.09999999404,CFD-WF-037-016-A.jpg,1500,dash,I,z,529,11,3,28008.0,283781.09999999404,8051,ATS,C,13
12,test,1,B,mfborder.png,1,z,Fri Jan 30 2026 10:30:00 GMT-0600 (Central Standard Time),314271.7999999821,CFD-WF-001-010-HC.jpg,1900,dash,I,z,552,8,3,30490.69999998808,283781.09999999404,8051,ATS,C,14
13,test,1,B,mfborder.png,1,m,Fri Jan 30 2026 10:30:00 GMT-0600 (Central Standard Time),316521.09999999404,CFD-BM-021-026-A.jpg,1600,dash,I,m,626,2,3,32740.0,283781.09999999404,8051,ATS,C,15
14,test,1,B,mfborder.png,1,m,Fri Jan 30 2026 10:30:00 GMT-0600 (Central Standard Time),318986.7999999821,CFD-BM-021-026-A.jpg,1600,dash,I,m,840,2,3,35205.69999998808,283781.09999999404,8051,ATS,C,16
15,test,1,B,mfborder.png,1,m,Fri Jan 30 2026 10:30:00 GMT-0600 (Central Standard Time),321236.09999999404,CFD-BM-022-004-HC.jpg,1700,dash,I,m,525,1,3,37455.0,283781.09999999404,8051,ATS,C,17
16,test,1,B,mfborder.png,1,z,Fri Jan 30 2026 10:30:00 GMT-0600 (Central Standard Time),322752.40000000596,CFD-WF-013-009-HC.jpg,1000,dash,I,z,492,12,3,38971.30000001192,283781.09999999404,8051,ATS,C,18
17,test,1,B,mfborder.png,1,z,Fri Jan 30 2026 10:30:00 GMT-0600 (Central Standard Time),324351.7999999821,CFD-BF-031-020-A.jpg,1000,dash,I,z,569,4,3,40570.69999998808,283781.09999999404,8051,ATS,C,19
18,test,1,B,mfborder.png,1,m,Fri Jan 30 2026 10:30:00 GMT-0600 (Central Standard Time),326451.2999999821,CFD-WM-035-036-HC.jpg,1600,dash,I,m,474,10,3,42670.19999998808,283781.09999999404,8051,ATS,C,20
19,test,1,B,mfborder.png,1,z,Fri Jan 30 2026 10:30:00 GMT-0600 (Central Standard Time),328583.7999999821,CFD-BF-042-031-HC.jpg,1500,dash,I,z,610,3,3,44802.69999998808,283781.09999999404,8051,ATS,C,21
20,test,1,B,mfborder.png,1,z,Fri Jan 30 2026 10:30:00 GMT-0600 (Central Standard Time),330666.5,CFD-WF-037-016-A.jpg,1500,dash,I,z,557,11,3,46885.40000000596,283781.09999999404,8051,ATS,C,22
21,test,1,B,mfborder.png,1,m,Fri Jan 30 2026 10:30:00 GMT-0600 (Central Standard Time),332466.0,CFD-WM-034-040-A.jpg,1200,dash,I,m,575,6,3,48684.90000000596,283781.09999999404,8051,ATS,C,23
22,test,1,B,mfborder.png,1,z,Fri Jan 30 2026 10:30:00 GMT-0600 (Central Standard Time),334681.7999999821,CFD-BF-042-031-HC.jpg,1500,dash,I,z,698,3,3,50900.69999998808,283781.09999999404,8051,ATS,C,24
1,prac,1,C,haborder.png,1,m,Fri Jan 30 2026 10:30:00 GMT-0600 (Central Standard Time),374702.90000000596,CFD-WM-028-005-HC.jpg,1400,solid,I,m,842,3,3,3032.600000023842,371670.2999999821,8051,ATS,C,1
2,prac,1,C,haborder.png,1,z,Fri Jan 30 2026 10:30:00 GMT-0600 (Central Standard Time),378185.0,CFD-BF-031-020-A.jpg,1900,dash,I,z,791,3,3,6514.700000017881,371670.2999999821,8051,ATS,C,2
3,prac,1,C,mfborder.png,1,m,Fri Jan 30 2026 10:30:00 GMT-0600 (Central Standard Time),382034.09999999404,CFD-BM-034-035-HC.jpg,2000,solid,I,m,1065,3,3,10363.800000011921,371670.2999999821,8051,ATS,C,3
3,prac,1,C,mfborder.png,0,z,Fri Jan 30 2026 10:30:00 GMT-0600 (Central Standard Time),385232.5,CFD-WF-013-009-HC.jpg,1600,dash,I,m,807,3,3,13562.200000017881,371670.2999999821,8051,ATS,C,4
4,prac,1,C,haborder.png,1,m,Fri Jan 30 2026 10:30:00 GMT-0600 (Central Standard Time),388565.1999999881,CFD-BM-022-004-HC.jpg,1500,solid,I,m,1037,3,3,16894.90000000596,371670.2999999821,8051,ATS,C,5
4,prac,1,C,mfborder.png,0,m,Fri Jan 30 2026 10:30:00 GMT-0600 (Central Standard Time),392063.7999999821,CFD-BM-043-014-A.jpg,1200,dash,I,None,1516,3,3,20393.5,371670.2999999821,8051,ATS,C,6
4,prac,1,C,mfborder.png,0,m,Fri Jan 30 2026 10:30:00 GMT-0600 (Central Standard Time),396062.6999999881,CFD-WM-036-018-A.jpg,1700,solid,I,None,1516,3,3,24392.40000000596,371670.2999999821,8051,ATS,C,7
5,prac,1,C,haborder.png,1,z,Fri Jan 30 2026 10:30:00 GMT-0600 (Central Standard Time),399345.1999999881,CFD-WF-037-016-A.jpg,1600,dash,I,z,891,3,3,27674.90000000596,371670.2999999821,8051,ATS,C,8
5,prac,1,C,mfborder.png,0,z,Fri Jan 30 2026 10:30:00 GMT-0600 (Central Standard Time),403144.09999999404,CFD-WF-023-013-A.jpg,1500,solid,I,None,1515,3,3,31473.80000001192,371670.2999999821,8051,ATS,C,9
6,prac,1,C,haborder.png,1,m,Fri Jan 30 2026 10:30:00 GMT-0600 (Central Standard Time),405559.5,CFD-WM-028-005-HC.jpg,1000,dash,I,m,633,3,3,33889.20000001788,371670.2999999821,8051,ATS,C,10
7,prac,1,C,mfborder.png,1,z,Fri Jan 30 2026 10:30:00 GMT-0600 (Central Standard Time),408692.0,CFD-BF-019-004-HC.jpg,1000,dash,I,z,1346,3,3,37021.70000001788,371670.2999999821,8051,ATS,C,11
8,prac,1,C,haborder.png,1,z,Fri Jan 30 2026 10:30:00 GMT-0600 (Central Standard Time),411974.40000000596,CFD-BF-002-018-A.jpg,1700,solid,I,z,794,3,3,40304.10000002384,371670.2999999821,8051,ATS,C,12
0,prac,2,C,haborder.png,0,m,Fri Jan 30 2026 10:30:00 GMT-0600 (Central Standard Time),436666.90000000596,CFD-BM-022-004-HC.jpg,1500,solid,I,None,1516,3,3,64996.60000002384,371670.2999999821,8051,ATS,C,1
1,prac,2,C,mfborder.png,1,z,Fri Jan 30 2026 10:30:00 GMT-0600 (Central Standard Time),439649.5,CFD-BF-019-004-HC.jpg,1000,dash,I,z,1209,3,3,67979.20000001788,371670.2999999821,8051,ATS,C,2
2,prac,2,C,mfborder.png,1,m,Fri Jan 30 2026 10:30:00 GMT-0600 (Central Standard Time),443148.1999999881,CFD-BM-034-035-HC.jpg,2000,solid,I,m,704,3,3,71477.90000000596,371670.2999999821,8051,ATS,C,3
3,prac,2,C,mfborder.png,1,z,Fri Jan 30 2026 10:30:00 GMT-0600 (Central Standard Time),446280.40000000596,CFD-WF-013-009-HC.jpg,1600,dash,I,z,734,3,3,74610.10000002384,371670.2999999821,8051,ATS,C,4
4,prac,2,C,haborder.png,1,m,Fri Jan 30 2026 10:30:00 GMT-0600 (Central Standard Time),449396.09999999404,CFD-WM-028-005-HC.jpg,1400,solid,I,m,921,3,3,77725.80000001192,371670.2999999821,8051,ATS,C,5
4,prac,2,C,mfborder.png,0,m,Fri Jan 30 2026 10:30:00 GMT-0600 (Central Standard Time),452761.6999999881,CFD-BM-043-014-A.jpg,1200,dash,I,z,1380,3,3,81091.40000000596,371670.2999999821,8051,ATS,C,6
4,prac,2,C,haborder.png,0,z,Fri Jan 30 2026 10:30:00 GMT-0600 (Central Standard Time),456960.40000000596,CFD-BF-031-020-A.jpg,1900,dash,I,None,1516,3,3,85290.10000002384,371670.2999999821,8051,ATS,C,7
5,prac,2,C,haborder.png,1,m,Fri Jan 30 2026 10:30:00 GMT-0600 (Central Standard Time),459842.7999999821,CFD-WM-028-005-HC.jpg,1000,dash,I,m,1096,3,3,88172.5,371670.2999999821,8051,ATS,C,8
6,prac,2,C,haborder.png,1,z,Fri Jan 30 2026 10:30:00 GMT-0600 (Central Standard Time),463291.90000000596,CFD-BF-002-018-A.jpg,1700,solid,I,z,962,3,3,91621.60000002384,371670.2999999821,8051,ATS,C,9
7,prac,2,C,haborder.png,1,z,Fri Jan 30 2026 10:30:00 GMT-0600 (Central Standard Time),466590.6999999881,CFD-WF-037-016-A.jpg,1600,dash,I,z,901,3,3,94920.40000000596,371670.2999999821,8051,ATS,C,10
8,prac,2,C,mfborder.png,1,z,Fri Jan 30 2026 10:30:00 GMT-0600 (Central Standard Time),469590.0,CFD-WF-023-013-A.jpg,1500,solid,I,z,711,3,3,97919.70000001788,371670.2999999821,8051,ATS,C,11
8,prac,2,C,mfborder.png,0,m,Fri Jan 30 2026 10:30:00 GMT-0600 (Central Standard Time),472988.7999999821,CFD-WM-036-018-A.jpg,1700,solid,I,z,903,3,3,101318.5,371670.2999999821,8051,ATS,C,12
0,test,1,C,haborder.png,0,m,Fri Jan 30 2026 10:30:00 GMT-0600 (Central Standard Time),502446.1999999881,CFD-WF-013-009-HC.jpg,1000,solid,I,None,1516,12,3,2532.4000000059605,499913.7999999821,8051,ATS,C,1
1,test,1,C,haborder.png,1,m,Fri Jan 30 2026 10:30:00 GMT-0600 (Central Standard Time),505245.2999999821,CFD-BF-019-004-HC.jpg,1600,solid,I,m,1177,10,3,5331.5,499913.7999999821,8051,ATS,C,2
2,test,1,C,haborder.png,1,z,Fri Jan 30 2026 10:30:00 GMT-0600 (Central Standard Time),508194.2999999821,CFD-BM-043-014-A.jpg,1900,solid,I,z,1024,8,3,8280.5,499913.7999999821,8051,ATS,C,3
3,test,1,C,haborder.png,1,m,Fri Jan 30 2026 10:30:00 GMT-0600 (Central Standard Time),510093.90000000596,CFD-WF-013-009-HC.jpg,1000,solid,I,m,879,12,3,10180.100000023842,499913.7999999821,8051,ATS,C,4
4,test,1,C,mfborder.png,1,z,Fri Jan 30 2026 10:30:00 GMT-0600 (Central Standard Time),512776.2999999821,CFD-BF-031-020-A.jpg,1600,dash,I,z,1052,2,3,12862.5,499913.7999999821,8051,ATS,C,5
5,test,1,C,mfborder.png,1,m,Fri Jan 30 2026 10:30:00 GMT-0600 (Central Standard Time),516108.40000000596,CFD-WM-034-040-A.jpg,2000,dash,I,m,1314,5,3,16194.600000023842,499913.7999999821,8051,ATS,C,6
6,test,1,C,mfborder.png,1,z,Fri Jan 30 2026 10:30:00 GMT-0600 (Central Standard Time),518291.1999999881,CFD-WF-037-016-A.jpg,1500,dash,I,z,656,3,3,18377.40000000596,499913.7999999821,8051,ATS,C,7
7,test,1,C,mfborder.png,1,z,Fri Jan 30 2026 10:30:00 GMT-0600 (Central Standard Time),520640.40000000596,CFD-BF-042-031-HC.jpg,1700,dash,I,z,625,1,3,20726.600000023842,499913.7999999821,8051,ATS,C,8
8,test,1,C,mfborder.png,1,m,Fri Jan 30 2026 10:30:00 GMT-0600 (Central Standard Time),522356.6999999881,CFD-WM-035-036-HC.jpg,1000,dash,I,m,689,4,3,22442.90000000596,499913.7999999821,8051,ATS,C,9
9,test,1,C,haborder.png,1,z,Fri Jan 30 2026 10:30:00 GMT-0600 (Central Standard Time),524822.5,CFD-WM-036-018-A.jpg,1400,solid,I,z,1036,7,3,24908.70000001788,499913.7999999821,8051,ATS,C,10
10,test,1,C,mfborder.png,1,m,Fri Jan 30 2026 10:30:00 GMT-0600 (Central Standard Time),527238.5,CFD-BM-022-004-HC.jpg,1200,dash,I,m,1187,6,3,27324.70000001788,499913.7999999821,8051,ATS,C,11
11,test,1,C,mfborder.png,1,m,Fri Jan 30 2026 10:30:00 GMT-0600 (Central Standard Time),528987.900000006,CFD-WM-035-036-HC.jpg,1000,dash,I,m,722,4,3,29074.100000023842,499913.7999999821,8051,ATS,C,12
12,test,1,C,haborder.png,1,m,Fri Jan 30 2026 10:30:00 GMT-0600 (Central Standard Time),531603.599999994,CFD-WF-001-010-HC.jpg,1500,solid,I,m,1089,11,3,31689.80000001192,499913.7999999821,8051,ATS,C,13
13,test,1,C,mfborder.png,1,m,Fri Jan 30 2026 10:30:00 GMT-0600 (Central Standard Time),535002.900000006,CFD-WM-034-040-A.jpg,2000,dash,I,m,1374,5,3,35089.10000002384,499913.7999999821,8051,ATS,C,14
14,test,1,C,haborder.png,1,z,Fri Jan 30 2026 10:30:00 GMT-0600 (Central Standard Time),537718.5,CFD-BM-021-026-A.jpg,1700,solid,I,z,995,9,3,37804.70000001788,499913.7999999821,8051,ATS,C,15
15,test,1,C,haborder.png,1,z,Fri Jan 30 2026 10:30:00 GMT-0600 (Central Standard Time),540167.5,CFD-WM-036-018-A.jpg,1400,solid,I,z,1019,7,3,40253.70000001788,499913.7999999821,8051,ATS,C,16
16,test,1,C,mfborder.png,1,z,Fri Jan 30 2026 10:30:00 GMT-0600 (Central Standard Time),542633.599999994,CFD-BF-042-031-HC.jpg,1700,dash,I,z,734,1,3,42719.80000001192,499913.7999999821,8051,ATS,C,17
17,test,1,C,mfborder.png,1,m,Fri Jan 30 2026 10:30:00 GMT-0600 (Central Standard Time),544549.2999999821,CFD-BM-022-004-HC.jpg,1200,dash,I,m,695,6,3,44635.5,499913.7999999821,8051,ATS,C,18
18,test,1,C,haborder.png,1,m,Fri Jan 30 2026 10:30:00 GMT-0600 (Central Standard Time),547165.5,CFD-WF-001-010-HC.jpg,1500,solid,I,m,1087,11,3,47251.70000001788,499913.7999999821,8051,ATS,C,19
19,test,1,C,haborder.png,1,m,Fri Jan 30 2026 10:30:00 GMT-0600 (Central Standard Time),549735.599999994,CFD-BF-019-004-HC.jpg,1600,solid,I,m,953,10,3,49821.80000001192,499913.7999999821,8051,ATS,C,20
20,test,1,C,mfborder.png,1,z,Fri Jan 30 2026 10:30:00 GMT-0600 (Central Standard Time),552430.2999999821,CFD-BF-031-020-A.jpg,1600,dash,I,z,1078,2,3,52516.5,499913.7999999821,8051,ATS,C,21
21,test,1,C,mfborder.png,1,z,Fri Jan 30 2026 10:30:00 GMT-0600 (Central Standard Time),554513.400000006,CFD-WF-037-016-A.jpg,1500,dash,I,z,559,3,3,54599.60000002384,499913.7999999821,8051,ATS,C,22
21,test,1,C,haborder.png,0,z,Fri Jan 30 2026 10:30:00 GMT-0600 (Central Standard Time),557562.2999999821,CFD-BM-021-026-A.jpg,1700,solid,I,m,1324,9,3,57648.5,499913.7999999821,8051,ATS,C,23
22,test,1,C,haborder.png,1,z,Fri Jan 30 2026 10:30:00 GMT-0600 (Central Standard Time),560411.1999999881,CFD-BM-043-014-A.jpg,1900,solid,I,z,923,8,3,60497.40000000596,499913.7999999821,8051,ATS,C,24
1,test,2,C,mfborder.png,1,z,Fri Jan 30 2026 10:30:00 GMT-0600 (Central Standard Time),566742.5,CFD-WF-013-009-HC.jpg,1700,dash,I,z,803,1,3,2532.4000000059605,564210.099999994,8051,ATS,C,1
2,test,2,C,haborder.png,1,m,Fri Jan 30 2026 10:30:00 GMT-0600 (Central Standard Time),569075.099999994,CFD-WM-028-005-HC.jpg,1500,solid,I,m,807,11,3,4865.0,564210.099999994,8051,ATS,C,2
3,test,2,C,mfborder.png,1,z,Fri Jan 30 2026 10:30:00 GMT-0600 (Central Standard Time),571341.2999999821,CFD-WF-023-013-A.jpg,1600,dash,I,z,645,2,3,7131.199999988079,564210.099999994,8051,ATS,C,3
4,test,2,C,mfborder.png,1,z,Fri Jan 30 2026 10:30:00 GMT-0600 (Central Standard Time),573590.7999999821,CFD-BF-019-004-HC.jpg,1500,dash,I,z,720,3,3,9380.699999988079,564210.099999994,8051,ATS,C,4
5,test,2,C,mfborder.png,1,m,Fri Jan 30 2026 10:30:00 GMT-0600 (Central Standard Time),576523.099999994,CFD-BM-043-014-A.jpg,2000,dash,I,m,907,5,3,12313.0,564210.099999994,8051,ATS,C,5
6,test,2,C,haborder.png,1,z,Fri Jan 30 2026 10:30:00 GMT-0600 (Central Standard Time),578705.900000006,CFD-BF-031-020-A.jpg,1400,solid,I,z,757,7,3,14495.800000011921,564210.099999994,8051,ATS,C,6
7,test,2,C,haborder.png,1,m,Fri Jan 30 2026 10:30:00 GMT-0600 (Central Standard Time),580938.1999999881,CFD-WM-028-005-HC.jpg,1500,solid,I,m,718,11,3,16728.09999999404,564210.099999994,8051,ATS,C,7
8,test,2,C,haborder.png,1,m,Fri Jan 30 2026 10:30:00 GMT-0600 (Central Standard Time),582538.099999994,CFD-WM-028-005-HC.jpg,1000,solid,I,m,575,12,3,18328.0,564210.099999994,8051,ATS,C,8
9,test,2,C,haborder.png,1,m,Fri Jan 30 2026 10:30:00 GMT-0600 (Central Standard Time),585386.900000006,CFD-BM-022-004-HC.jpg,1600,solid,I,m,1224,10,3,21176.80000001192,564210.099999994,8051,ATS,C,9
10,test,2,C,mfborder.png,1,m,Fri Jan 30 2026 10:30:00 GMT-0600 (Central Standard Time),588552.5,CFD-BM-043-014-A.jpg,2000,dash,I,m,1142,5,3,24342.40000000596,564210.099999994,8051,ATS,C,10
11,test,2,C,haborder.png,1,m,Fri Jan 30 2026 10:30:00 GMT-0600 (Central Standard Time),590585.2999999821,CFD-WM-028-005-HC.jpg,1000,solid,I,m,1000,12,3,26375.19999998808,564210.099999994,8051,ATS,C,11
12,test,2,C,mfborder.png,1,z,Fri Jan 30 2026 10:30:00 GMT-0600 (Central Standard Time),592884.599999994,CFD-WF-023-013-A.jpg,1600,dash,I,z,680,2,3,28674.5,564210.099999994,8051,ATS,C,12
13,test,2,C,haborder.png,1,z,Fri Jan 30 2026 10:30:00 GMT-0600 (Central Standard Time),595517.1999999881,CFD-BF-031-020-A.jpg,1400,solid,I,z,1205,7,3,31307.09999999404,564210.099999994,8051,ATS,C,13
14,test,2,C,mfborder.png,1,m,Fri Jan 30 2026 10:30:00 GMT-0600 (Central Standard Time),597782.7999999821,CFD-WM-036-018-A.jpg,1200,dash,I,m,1036,6,3,33572.69999998808,564210.099999994,8051,ATS,C,14
15,test,2,C,haborder.png,1,z,Fri Jan 30 2026 10:30:00 GMT-0600 (Central Standard Time),600182.2999999821,CFD-WF-037-016-A.jpg,1700,solid,I,z,671,9,3,35972.19999998808,564210.099999994,8051,ATS,C,15
16,test,2,C,mfborder.png,1,z,Fri Jan 30 2026 10:30:00 GMT-0600 (Central Standard Time),602765.599999994,CFD-BF-019-004-HC.jpg,1500,dash,I,z,1054,3,3,38555.5,564210.099999994,8051,ATS,C,16
17,test,2,C,haborder.png,1,z,Fri Jan 30 2026 10:30:00 GMT-0600 (Central Standard Time),605597.099999994,CFD-WF-037-016-A.jpg,1700,solid,I,z,1113,9,3,41387.0,564210.099999994,8051,ATS,C,17
17,test,2,C,mfborder.png,0,m,Fri Jan 30 2026 10:30:00 GMT-0600 (Central Standard Time),607680.099999994,CFD-WM-036-018-A.jpg,1200,dash,I,z,851,6,3,43470.0,564210.099999994,8051,ATS,C,18
18,test,2,C,haborder.png,1,z,Fri Jan 30 2026 10:30:00 GMT-0600 (Central Standard Time),610745.6999999881,CFD-BF-002-018-A.jpg,1900,solid,I,z,1150,8,3,46535.59999999404,564210.099999994,8051,ATS,C,19
19,test,2,C,mfborder.png,1,z,Fri Jan 30 2026 10:30:00 GMT-0600 (Central Standard Time),613161.599999994,CFD-WF-013-009-HC.jpg,1700,dash,I,z,691,1,3,48951.5,564210.099999994,8051,ATS,C,20
20,test,2,C,mfborder.png,1,m,Fri Jan 30 2026 10:30:00 GMT-0600 (Central Standard Time),615060.900000006,CFD-BM-034-035-HC.jpg,1000,dash,I,m,872,4,3,50850.80000001192,564210.099999994,8051,ATS,C,21
21,test,2,C,haborder.png,1,m,Fri Jan 30 2026 10:30:00 GMT-0600 (Central Standard Time),617844.400000006,CFD-BM-022-004-HC.jpg,1600,solid,I,m,1164,10,3,53634.30000001192,564210.099999994,8051,ATS,C,22
22,test,2,C,haborder.png,1,z,Fri Jan 30 2026 10:30:00 GMT-0600 (Central Standard Time),620742.5,CFD-BF-002-018-A.jpg,1900,solid,I,z,978,8,3,56532.40000000596,564210.099999994,8051,ATS,C,23
23,test,2,C,mfborder.png,1,m,Fri Jan 30 2026 10:30:00 GMT-0600 (Central Standard Time),622558.5,CFD-BM-034-035-HC.jpg,1000,dash,I,m,787,4,3,58348.40000000596,564210.099999994,8051,ATS,C,24
1,test,3,C,haborder.png,1,z,Fri Jan 30 2026 10:30:00 GMT-0600 (Central Standard Time),627558.2999999821,CFD-BM-043-014-A.jpg,1900,solid,I,z,995,8,3,2917.0999999940395,624641.1999999881,8051,ATS,C,1
2,test,3,C,mfborder.png,1,z,Fri Jan 30 2026 10:30:00 GMT-0600 (Central Standard Time),629906.099999994,CFD-BF-031-020-A.jpg,1600,dash,I,z,716,2,3,5264.9000000059605,624641.1999999881,8051,ATS,C,2
3,test,3,C,mfborder.png,1,m,Fri Jan 30 2026 10:30:00 GMT-0600 (Central Standard Time),632688.599999994,CFD-WM-034-040-A.jpg,2000,dash,I,m,751,5,3,8047.4000000059605,624641.1999999881,8051,ATS,C,3
3,test,3,C,haborder.png,0,m,Fri Jan 30 2026 10:30:00 GMT-0600 (Central Standard Time),635587.5,CFD-WF-001-010-HC.jpg,1500,solid,I,z,1382,11,3,10946.300000011921,624641.1999999881,8051,ATS,C,4
4,test,3,C,haborder.png,1,m,Fri Jan 30 2026 10:30:00 GMT-0600 (Central Standard Time),637570.7999999821,CFD-WF-013-009-HC.jpg,1000,solid,I,m,956,12,3,12929.59999999404,624641.1999999881,8051,ATS,C,5
5,test,3,C,haborder.png,1,z,Fri Jan 30 2026 10:30:00 GMT-0600 (Central Standard Time),640553.0,CFD-BM-021-026-A.jpg,1700,solid,I,z,1251,9,3,15911.800000011921,624641.1999999881,8051,ATS,C,6
6,test,3,C,mfborder.png,1,m,Fri Jan 30 2026 10:30:00 GMT-0600 (Central Standard Time),642519.1999999881,CFD-BM-022-004-HC.jpg,1200,dash,I,m,737,6,3,17878.0,624641.1999999881,8051,ATS,C,7
7,test,3,C,mfborder.png,1,z,Fri Jan 30 2026 10:30:00 GMT-0600 (Central Standard Time),644885.0,CFD-BF-042-031-HC.jpg,1700,dash,I,z,638,1,3,20243.80000001192,624641.1999999881,8051,ATS,C,8
8,test,3,C,mfborder.png,1,m,Fri Jan 30 2026 10:30:00 GMT-0600 (Central Standard Time),646634.2999999821,CFD-WM-035-036-HC.jpg,1000,dash,I,m,724,4,3,21993.09999999404,624641.1999999881,8051,ATS,C,9
9,test,3,C,mfborder.png,1,m,Fri Jan 30 2026 10:30:00 GMT-0600 (Central Standard Time),648133.900000006,CFD-WM-035-036-HC.jpg,1000,dash,I,m,478,4,3,23492.70000001788,624641.1999999881,8051,ATS,C,10
10,test,3,C,haborder.png,1,z,Fri Jan 30 2026 10:30:00 GMT-0600 (Central Standard Time),650978.7999999821,CFD-BM-021-026-A.jpg,1700,solid,I,z,1129,9,3,26337.59999999404,624641.1999999881,8051,ATS,C,11
11,test,3,C,mfborder.png,1,m,Fri Jan 30 2026 10:30:00 GMT-0600 (Central Standard Time),652965.599999994,CFD-BM-022-004-HC.jpg,1200,dash,I,m,755,6,3,28324.40000000596,624641.1999999881,8051,ATS,C,12
12,test,3,C,mfborder.png,1,z,Fri Jan 30 2026 10:30:00 GMT-0600 (Central Standard Time),655516.0,CFD-BF-042-031-HC.jpg,1700,dash,I,z,832,1,3,30874.80000001192,624641.1999999881,8051,ATS,C,13
13,test,3,C,mfborder.png,1,z,Fri Jan 30 2026 10:30:00 GMT-0600 (Central Standard Time),657964.2999999821,CFD-BF-031-020-A.jpg,1600,dash,I,z,831,2,3,33323.09999999404,624641.1999999881,8051,ATS,C,14
14,test,3,C,haborder.png,1,m,Fri Jan 30 2026 10:30:00 GMT-0600 (Central Standard Time),660363.099999994,CFD-BF-019-004-HC.jpg,1600,solid,I,m,765,10,3,35721.90000000596,624641.1999999881,8051,ATS,C,15
15,test,3,C,haborder.png,1,m,Fri Jan 30 2026 10:30:00 GMT-0600 (Central Standard Time),662545.900000006,CFD-WF-013-009-HC.jpg,1000,solid,I,m,1158,12,3,37904.70000001788,624641.1999999881,8051,ATS,C,16
16,test,3,C,haborder.png,1,z,Fri Jan 30 2026 10:30:00 GMT-0600 (Central Standard Time),665161.7999999821,CFD-WM-036-018-A.jpg,1400,solid,I,z,1200,7,3,40520.59999999404,624641.1999999881,8051,ATS,C,17
17,test,3,C,mfborder.png,1,z,Fri Jan 30 2026 10:30:00 GMT-0600 (Central Standard Time),667378.0,CFD-WF-037-016-A.jpg,1500,dash,I,z,700,3,3,42736.80000001192,624641.1999999881,8051,ATS,C,18
18,test,3,C,mfborder.png,1,m,Fri Jan 30 2026 10:30:00 GMT-0600 (Central Standard Time),670144.0,CFD-WM-034-040-A.jpg,2000,dash,I,m,736,5,3,45502.80000001192,624641.1999999881,8051,ATS,C,19
19,test,3,C,haborder.png,1,m,Fri Jan 30 2026 10:30:00 GMT-0600 (Central Standard Time),673142.900000006,CFD-BF-019-004-HC.jpg,1600,solid,I,m,1369,10,3,48501.70000001788,624641.1999999881,8051,ATS,C,20
20,test,3,C,haborder.png,1,z,Fri Jan 30 2026 10:30:00 GMT-0600 (Central Standard Time),675325.400000006,CFD-WM-036-018-A.jpg,1400,solid,I,z,759,7,3,50684.20000001788,624641.1999999881,8051,ATS,C,21
21,test,3,C,haborder.png,1,m,Fri Jan 30 2026 10:30:00 GMT-0600 (Central Standard Time),677591.599999994,CFD-WF-001-010-HC.jpg,1500,solid,I,m,736,11,3,52950.40000000596,624641.1999999881,8051,ATS,C,22
22,test,3,C,haborder.png,1,z,Fri Jan 30 2026 10:30:00 GMT-0600 (Central Standard Time),680473.6999999881,CFD-BM-043-014-A.jpg,1900,solid,I,z,950,8,3,55832.5,624641.1999999881,8051,ATS,C,23
23,test,3,C,mfborder.png,1,z,Fri Jan 30 2026 10:30:00 GMT-0600 (Central Standard Time),682656.2999999821,CFD-WF-037-016-A.jpg,1500,dash,I,z,651,3,3,58015.09999999404,624641.1999999881,8051,ATS,C,24
1,test,4,C,mfborder.png,1,z,Fri Jan 30 2026 10:30:00 GMT-0600 (Central Standard Time),687038.1999999881,CFD-BF-019-004-HC.jpg,1500,dash,I,z,977,3,3,2497.699999988079,684540.5,8051,ATS,C,1
2,test,4,C,mfborder.png,1,z,Fri Jan 30 2026 10:30:00 GMT-0600 (Central Standard Time),689288.900000006,CFD-WF-013-009-HC.jpg,1700,dash,I,z,526,1,3,4748.4000000059605,684540.5,8051,ATS,C,2
2,test,4,C,haborder.png,0,z,Fri Jan 30 2026 10:30:00 GMT-0600 (Central Standard Time),691937.0,CFD-WF-037-016-A.jpg,1700,solid,I,m,917,9,3,7396.5,684540.5,8051,ATS,C,3
3,test,4,C,mfborder.png,1,z,Fri Jan 30 2026 10:30:00 GMT-0600 (Central Standard Time),694136.1999999881,CFD-WF-023-013-A.jpg,1600,dash,I,z,568,2,3,9595.699999988079,684540.5,8051,ATS,C,4
4,test,4,C,haborder.png,1,m,Fri Jan 30 2026 10:30:00 GMT-0600 (Central Standard Time),696352.2999999821,CFD-BM-022-004-HC.jpg,1600,solid,I,m,592,10,3,11811.799999982119,684540.5,8051,ATS,C,5
5,test,4,C,mfborder.png,1,m,Fri Jan 30 2026 10:30:00 GMT-0600 (Central Standard Time),699617.7999999821,CFD-BM-043-014-A.jpg,2000,dash,I,m,1240,5,3,15077.299999982119,684540.5,8051,ATS,C,6
6,test,4,C,mfborder.png,1,z,Fri Jan 30 2026 10:30:00 GMT-0600 (Central Standard Time),701834.0,CFD-BF-019-004-HC.jpg,1500,dash,I,z,683,3,3,17293.5,684540.5,8051,ATS,C,7
7,test,4,C,haborder.png,1,m,Fri Jan 30 2026 10:30:00 GMT-0600 (Central Standard Time),704233.099999994,CFD-WM-028-005-HC.jpg,1500,solid,I,m,876,11,3,19692.59999999404,684540.5,8051,ATS,C,8
7,test,4,C,mfborder.png,0,m,Fri Jan 30 2026 10:30:00 GMT-0600 (Central Standard Time),706549.099999994,CFD-WM-036-018-A.jpg,1200,dash,I,z,1088,6,3,22008.59999999404,684540.5,8051,ATS,C,9
8,test,4,C,mfborder.png,1,m,Fri Jan 30 2026 10:30:00 GMT-0600 (Central Standard Time),709165.0,CFD-BM-043-014-A.jpg,2000,dash,I,m,588,5,3,24624.5,684540.5,8051,ATS,C,10
9,test,4,C,mfborder.png,1,m,Fri Jan 30 2026 10:30:00 GMT-0600 (Central Standard Time),710780.900000006,CFD-BM-034-035-HC.jpg,1000,dash,I,m,588,4,3,26240.40000000596,684540.5,8051,ATS,C,11
10,test,4,C,haborder.png,1,z,Fri Jan 30 2026 10:30:00 GMT-0600 (Central Standard Time),713685.400000006,CFD-WF-037-016-A.jpg,1700,solid,I,z,1175,9,3,29144.90000000596,684540.5,8051,ATS,C,12
11,test,4,C,mfborder.png,1,m,Fri Jan 30 2026 10:30:00 GMT-0600 (Central Standard Time),715629.5,CFD-BM-034-035-HC.jpg,1000,dash,I,m,921,4,3,31089.0,684540.5,8051,ATS,C,13
12,test,4,C,mfborder.png,1,z,Fri Jan 30 2026 10:30:00 GMT-0600 (Central Standard Time),718129.0,CFD-WF-013-009-HC.jpg,1700,dash,I,z,767,1,3,33588.5,684540.5,8051,ATS,C,14
13,test,4,C,haborder.png,1,z,Fri Jan 30 2026 10:30:00 GMT-0600 (Central Standard Time),721244.5,CFD-BF-002-018-A.jpg,1900,solid,I,z,1189,8,3,36704.0,684540.5,8051,ATS,C,15
14,test,4,C,haborder.png,1,m,Fri Jan 30 2026 10:30:00 GMT-0600 (Central Standard Time),723627.099999994,CFD-WM-028-005-HC.jpg,1500,solid,I,m,857,11,3,39086.59999999404,684540.5,8051,ATS,C,16
15,test,4,C,mfborder.png,1,m,Fri Jan 30 2026 10:30:00 GMT-0600 (Central Standard Time),725859.5,CFD-WM-036-018-A.jpg,1200,dash,I,m,1014,6,3,41319.0,684540.5,8051,ATS,C,17
16,test,4,C,haborder.png,1,z,Fri Jan 30 2026 10:30:00 GMT-0600 (Central Standard Time),728308.6999999881,CFD-BF-031-020-A.jpg,1400,solid,I,z,1030,7,3,43768.19999998808,684540.5,8051,ATS,C,18
17,test,4,C,haborder.png,1,m,Fri Jan 30 2026 10:30:00 GMT-0600 (Central Standard Time),730941.2999999821,CFD-BM-022-004-HC.jpg,1600,solid,I,m,1004,10,3,46400.79999998212,684540.5,8051,ATS,C,19
18,test,4,C,haborder.png,1,m,Fri Jan 30 2026 10:30:00 GMT-0600 (Central Standard Time),732574.2999999821,CFD-WM-028-005-HC.jpg,1000,solid,I,m,612,12,3,48033.79999998212,684540.5,8051,ATS,C,20
19,test,4,C,haborder.png,1,z,Fri Jan 30 2026 10:30:00 GMT-0600 (Central Standard Time),734739.900000006,CFD-BF-031-020-A.jpg,1400,solid,I,z,747,7,3,50199.40000000596,684540.5,8051,ATS,C,21
20,test,4,C,mfborder.png,1,z,Fri Jan 30 2026 10:30:00 GMT-0600 (Central Standard Time),737039.400000006,CFD-WF-023-013-A.jpg,1600,dash,I,z,678,2,3,52498.90000000596,684540.5,8051,ATS,C,22
21,test,4,C,haborder.png,1,z,Fri Jan 30 2026 10:30:00 GMT-0600 (Central Standard Time),740055.400000006,CFD-BF-002-018-A.jpg,1900,solid,I,z,1094,8,3,55514.90000000596,684540.5,8051,ATS,C,23
22,test,4,C,haborder.png,1,m,Fri Jan 30 2026 10:30:00 GMT-0600 (Central Standard Time),741887.900000006,CFD-WM-028-005-HC.jpg,1000,solid,I,m,810,12,3,57347.40000000596,684540.5,8051,ATS,C,24
