block_c,block_dur,condition,countdown,datetime,endtime,list,multichar_response,project,response,response_time,session_number,start_end,starttime,subject_id,task,task_vers,trial
,,,,Mon Dec 15 2025 14:40:33 GMT-0500 (Eastern Standard Time),,,,I,space,403,3,,,9024,WL,B,
prac,,0,,Mon Dec 15 2025 14:40:33 GMT-0500 (Eastern Standard Time),,NA,b,I,b,2256,3,,,9024,WL,B,1.0
prac,,0,,Mon Dec 15 2025 14:40:33 GMT-0500 (Eastern Standard Time),,NA,bo,I,o,632,3,,,9024,WL,B,1.0
prac,,0,,Mon Dec 15 2025 14:40:33 GMT-0500 (Eastern Standard Time),,NA,boo,I,o,191,3,,,9024,WL,B,1.0
prac,,0,,Mon Dec 15 2025 14:40:33 GMT-0500 (Eastern Standard Time),,NA,boos,I,s,447,3,,,9024,WL,B,1.0
prac,,0,,Mon Dec 15 2025 14:40:33 GMT-0500 (Eastern Standard Time),,NA,boost,I,t,468,3,,,9024,WL,B,1.0
prac,,0,,Mon Dec 15 2025 14:40:33 GMT-0500 (Eastern Standard Time),,NA,boostenter,I,enter,2727,3,,,9024,WL,B,1.0
1,2.550999879837036,learn,57449.000120162964,Mon Dec 15 2025 14:40:33 GMT-0500 (Eastern Standard Time),190091.0,A,s,I,s,2526,3,2549.4000000953674,187541.59999990463,9024,WL,B,1.0
1,3.0839998722076416,learn,56916.00012779236,Mon Dec 15 2025 14:40:33 GMT-0500 (Eastern Standard Time),190624.09999990463,A,st,I,t,520,3,3082.5,187541.59999990463,9024,WL,B,1.0
1,3.4170000553131104,learn,56582.99994468689,Mon Dec 15 2025 14:40:33 GMT-0500 (Eastern Standard Time),190957.40000009537,A,str,I,r,323,3,3415.800000190735,187541.59999990463,9024,WL,B,1.0
1,3.884000062942505,learn,56115.999937057495,Mon Dec 15 2025 14:40:33 GMT-0500 (Eastern Standard Time),191423.90000009537,A,stre,I,e,453,3,3882.300000190735,187541.59999990463,9024,WL,B,1.0
1,4.099999904632568,learn,55900.00009536743,Mon Dec 15 2025 14:40:33 GMT-0500 (Eastern Standard Time),191640.7999997139,A,stree,I,e,195,3,4099.199999809265,187541.59999990463,9024,WL,B,1.0
1,4.616999864578247,learn,55383.00013542175,Mon Dec 15 2025 14:40:33 GMT-0500 (Eastern Standard Time),192157.59999990463,A,street,I,t,505,3,4616.0,187541.59999990463,9024,WL,B,1.0
1,9.25,learn,50750.0,Mon Dec 15 2025 14:40:33 GMT-0500 (Eastern Standard Time),196790.09999990463,A,streetenter,I,enter,4613,3,9248.5,187541.59999990463,9024,WL,B,1.0
1,10.634000062942505,learn,49365.999937057495,Mon Dec 15 2025 14:40:33 GMT-0500 (Eastern Standard Time),198174.0,A,g,I,g,1359,3,1383.0999999046326,196790.90000009537,9024,WL,B,2.0
1,11.116999864578247,learn,48883.00013542175,Mon Dec 15 2025 14:40:33 GMT-0500 (Eastern Standard Time),198657.2999997139,A,gl,I,l,469,3,1866.3999996185303,196790.90000009537,9024,WL,B,2.0
1,11.467000007629395,learn,48532.999992370605,Mon Dec 15 2025 14:40:33 GMT-0500 (Eastern Standard Time),199007.2999997139,A,gla,I,a,338,3,2216.3999996185303,196790.90000009537,9024,WL,B,2.0
1,12.016999959945679,learn,47983.00004005432,Mon Dec 15 2025 14:40:33 GMT-0500 (Eastern Standard Time),199557.2999997139,A,glas,I,s,531,3,2766.3999996185303,196790.90000009537,9024,WL,B,2.0
1,12.217000007629395,learn,47782.999992370605,Mon Dec 15 2025 14:40:33 GMT-0500 (Eastern Standard Time),199757.40000009537,A,glass,I,s,190,3,2966.5,196790.90000009537,9024,WL,B,2.0
1,12.782999992370605,learn,47217.000007629395,Mon Dec 15 2025 14:40:33 GMT-0500 (Eastern Standard Time),200323.40000009537,A,glassenter,I,enter,539,3,3532.5,196790.90000009537,9024,WL,B,2.0
1,16.116999864578247,learn,43883.00013542175,Mon Dec 15 2025 14:40:33 GMT-0500 (Eastern Standard Time),203657.40000009537,A,w,I,w,3314,3,3333.4000000953674,200324.0,9024,WL,B,3.0
1,17.049999952316284,learn,42950.000047683716,Mon Dec 15 2025 14:40:33 GMT-0500 (Eastern Standard Time),204590.40000009537,A,wi,I,i,922,3,4266.400000095367,200324.0,9024,WL,B,3.0
1,17.384000062942505,learn,42615.999937057495,Mon Dec 15 2025 14:40:33 GMT-0500 (Eastern Standard Time),204924.0,A,wif,I,f,309,3,4600.0,200324.0,9024,WL,B,3.0
1,17.866999864578247,learn,42133.00013542175,Mon Dec 15 2025 14:40:33 GMT-0500 (Eastern Standard Time),205407.5,A,wife,I,e,470,3,5083.5,200324.0,9024,WL,B,3.0
1,20.967000007629395,learn,39032.999992370605,Mon Dec 15 2025 14:40:33 GMT-0500 (Eastern Standard Time),208506.7999997139,A,wifeenter,I,enter,3074,3,8182.799999713898,200324.0,9024,WL,B,3.0
1,21.634000062942505,learn,38365.999937057495,Mon Dec 15 2025 14:40:33 GMT-0500 (Eastern Standard Time),209174.0,A,g,I,g,651,3,666.8000001907349,208507.19999980927,9024,WL,B,4.0
1,21.983999967575073,learn,38016.00003242493,Mon Dec 15 2025 14:40:33 GMT-0500 (Eastern Standard Time),209524.0,A,gl,I,l,332,3,1016.8000001907349,208507.19999980927,9024,WL,B,4.0
1,22.316999912261963,learn,37683.00008773804,Mon Dec 15 2025 14:40:33 GMT-0500 (Eastern Standard Time),209857.19999980927,A,gla,I,a,319,3,1350.0,208507.19999980927,9024,WL,B,4.0
1,22.76699995994568,learn,37233.00004005432,Mon Dec 15 2025 14:40:33 GMT-0500 (Eastern Standard Time),210307.19999980927,A,glas,I,s,433,3,1800.0,208507.19999980927,9024,WL,B,4.0
1,22.983999967575073,learn,37016.00003242493,Mon Dec 15 2025 14:40:33 GMT-0500 (Eastern Standard Time),210524.0,A,glass,I,s,192,3,2016.8000001907349,208507.19999980927,9024,WL,B,4.0
1,23.866999864578247,learn,36133.00013542175,Mon Dec 15 2025 14:40:33 GMT-0500 (Eastern Standard Time),211406.7999997139,A,glassenter,I,enter,868,3,2899.5999999046326,208507.19999980927,9024,WL,B,4.0
1,34.049999952316284,learn,25950.000047683716,Mon Dec 15 2025 14:40:33 GMT-0500 (Eastern Standard Time),221590.59999990463,A,c,I,c,10167,3,10183.400000095367,211407.19999980927,9024,WL,B,5.0
1,34.61699986457825,learn,25383.000135421753,Mon Dec 15 2025 14:40:33 GMT-0500 (Eastern Standard Time),222157.19999980927,A,ca,I,a,540,3,10750.0,211407.19999980927,9024,WL,B,5.0
1,35.134000062942505,learn,24865.999937057495,Mon Dec 15 2025 14:40:33 GMT-0500 (Eastern Standard Time),222673.90000009537,A,car,I,r,500,3,11266.700000286102,211407.19999980927,9024,WL,B,5.0
1,36.23300004005432,learn,23766.99995994568,Mon Dec 15 2025 14:40:33 GMT-0500 (Eastern Standard Time),223773.40000009537,A,carenter,I,enter,1087,3,12366.200000286102,211407.19999980927,9024,WL,B,5.0
1,60.01699995994568,learn,-16.99995994567871,Mon Dec 15 2025 14:40:33 GMT-0500 (Eastern Standard Time),247557.5,A,None,I,None,23777,3,23783.599999904633,223773.90000009537,9024,WL,B,6.0
2,5.2170000076293945,learn,54782.999992370605,Mon Dec 15 2025 14:40:33 GMT-0500 (Eastern Standard Time),328407.19999980927,A,c,I,c,5197,3,5216.400000095367,323190.7999997139,9024,WL,B,1.0
2,5.6000001430511475,learn,54399.99985694885,Mon Dec 15 2025 14:40:33 GMT-0500 (Eastern Standard Time),328790.5,A,ca,I,a,364,3,5599.700000286102,323190.7999997139,9024,WL,B,1.0
2,6.200000047683716,learn,53799.999952316284,Mon Dec 15 2025 14:40:33 GMT-0500 (Eastern Standard Time),329390.2999997139,A,cab,I,b,588,3,6199.5,323190.7999997139,9024,WL,B,1.0
2,6.7840001583099365,learn,53215.99984169006,Mon Dec 15 2025 14:40:33 GMT-0500 (Eastern Standard Time),329973.7999997139,A,cabi,I,i,564,3,6783.0,323190.7999997139,9024,WL,B,1.0
2,7.383000135421753,learn,52616.99986457825,Mon Dec 15 2025 14:40:33 GMT-0500 (Eastern Standard Time),330573.59999990463,A,cabib,I,b,589,3,7382.800000190735,323190.7999997139,9024,WL,B,1.0
2,9.550000190734863,learn,50449.99980926514,Mon Dec 15 2025 14:40:33 GMT-0500 (Eastern Standard Time),332740.5,A,cabi,I,backspace,2145,3,9549.700000286102,323190.7999997139,9024,WL,B,1.0
2,10.933000087738037,learn,49066.99991226196,Mon Dec 15 2025 14:40:33 GMT-0500 (Eastern Standard Time),334123.7999997139,A,cabin,I,n,1359,3,10933.0,323190.7999997139,9024,WL,B,1.0
2,11.716000080108643,learn,48283.99991989136,Mon Dec 15 2025 14:40:33 GMT-0500 (Eastern Standard Time),334906.59999990463,A,cabinenter,I,enter,759,3,11715.800000190735,323190.7999997139,9024,WL,B,1.0
2,14.5,learn,45500.0,Mon Dec 15 2025 14:40:33 GMT-0500 (Eastern Standard Time),337690.40000009537,A,g,I,g,2764,3,2783.300000190735,334907.09999990463,9024,WL,B,2.0
2,14.850000143051147,learn,45149.99985694885,Mon Dec 15 2025 14:40:33 GMT-0500 (Eastern Standard Time),338040.5,A,gl,I,l,329,3,3133.4000000953674,334907.09999990463,9024,WL,B,2.0
2,15.217000007629395,learn,44782.999992370605,Mon Dec 15 2025 14:40:33 GMT-0500 (Eastern Standard Time),338407.19999980927,A,gla,I,a,348,3,3500.0999999046326,334907.09999990463,9024,WL,B,2.0
2,15.717000007629395,learn,44282.999992370605,Mon Dec 15 2025 14:40:33 GMT-0500 (Eastern Standard Time),338907.09999990463,A,glas,I,s,475,3,4000.0,334907.09999990463,9024,WL,B,2.0
2,15.983000040054321,learn,44016.99995994568,Mon Dec 15 2025 14:40:33 GMT-0500 (Eastern Standard Time),339173.7999997139,A,glass,I,s,248,3,4266.699999809265,334907.09999990463,9024,WL,B,2.0
2,16.933000087738037,learn,43066.99991226196,Mon Dec 15 2025 14:40:33 GMT-0500 (Eastern Standard Time),340123.2999997139,A,glassenter,I,enter,924,3,5216.199999809265,334907.09999990463,9024,WL,B,2.0
2,18.017000198364258,learn,41982.99980163574,Mon Dec 15 2025 14:40:33 GMT-0500 (Eastern Standard Time),341207.19999980927,A,d,I,d,1066,3,1083.2999997138977,340123.90000009537,9024,WL,B,3.0
2,18.43400001525879,learn,41565.99998474121,Mon Dec 15 2025 14:40:33 GMT-0500 (Eastern Standard Time),341623.7999997139,A,do,I,o,397,3,1499.8999996185303,340123.90000009537,9024,WL,B,3.0
2,18.66700005531311,learn,41332.99994468689,Mon Dec 15 2025 14:40:33 GMT-0500 (Eastern Standard Time),341857.19999980927,A,doo,I,o,220,3,1733.2999997138977,340123.90000009537,9024,WL,B,3.0
2,18.90000009536743,learn,41099.99990463257,Mon Dec 15 2025 14:40:33 GMT-0500 (Eastern Standard Time),342090.5,A,door,I,r,210,3,1966.5999999046326,340123.90000009537,9024,WL,B,3.0
2,19.600000143051147,learn,40399.99985694885,Mon Dec 15 2025 14:40:33 GMT-0500 (Eastern Standard Time),342789.90000009537,A,doorenter,I,enter,680,3,2666.0,340123.90000009537,9024,WL,B,3.0
2,20.984000205993652,learn,39015.99979400635,Mon Dec 15 2025 14:40:33 GMT-0500 (Eastern Standard Time),344173.7999997139,A,a,I,a,1360,3,1383.3999996185303,342790.40000009537,9024,WL,B,4.0
2,21.48300004005432,learn,38516.99995994568,Mon Dec 15 2025 14:40:33 GMT-0500 (Eastern Standard Time),344673.7999997139,A,ar,I,r,486,3,1883.3999996185303,342790.40000009537,9024,WL,B,4.0
2,23.15000009536743,learn,36849.99990463257,Mon Dec 15 2025 14:40:33 GMT-0500 (Eastern Standard Time),346340.5,A,arm,I,m,1650,3,3550.0999999046326,342790.40000009537,9024,WL,B,4.0
2,23.800000190734863,learn,36199.99980926514,Mon Dec 15 2025 14:40:33 GMT-0500 (Eastern Standard Time),346990.0,A,armenter,I,enter,639,3,4199.599999904633,342790.40000009537,9024,WL,B,4.0
2,25.40000009536743,learn,34599.99990463257,Mon Dec 15 2025 14:40:33 GMT-0500 (Eastern Standard Time),348590.19999980927,A,w,I,w,1593,3,1599.7999997138977,346990.40000009537,9024,WL,B,5.0
2,25.717000007629395,learn,34282.999992370605,Mon Dec 15 2025 14:40:33 GMT-0500 (Eastern Standard Time),348907.19999980927,A,wi,I,i,293,3,1916.7999997138977,346990.40000009537,9024,WL,B,5.0
2,26.050000190734863,learn,33949.99980926514,Mon Dec 15 2025 14:40:33 GMT-0500 (Eastern Standard Time),349240.5,A,wif,I,f,313,3,2250.0999999046326,346990.40000009537,9024,WL,B,5.0
2,26.433000087738037,learn,33566.99991226196,Mon Dec 15 2025 14:40:33 GMT-0500 (Eastern Standard Time),349623.69999980927,A,wife,I,e,363,3,2633.2999997138977,346990.40000009537,9024,WL,B,5.0
2,26.950000047683716,learn,33049.999952316284,Mon Dec 15 2025 14:40:33 GMT-0500 (Eastern Standard Time),350139.90000009537,A,wifeenter,I,enter,490,3,3149.5,346990.40000009537,9024,WL,B,5.0
2,29.90000009536743,learn,30099.99990463257,Mon Dec 15 2025 14:40:33 GMT-0500 (Eastern Standard Time),353090.40000009537,A,c,I,c,2939,3,2950.0,350140.40000009537,9024,WL,B,6.0
2,30.317000150680542,learn,29682.999849319458,Mon Dec 15 2025 14:40:33 GMT-0500 (Eastern Standard Time),353507.0,A,ca,I,a,401,3,3366.5999999046326,350140.40000009537,9024,WL,B,6.0
2,30.817000150680542,learn,29182.999849319458,Mon Dec 15 2025 14:40:33 GMT-0500 (Eastern Standard Time),354006.90000009537,A,car,I,r,479,3,3866.5,350140.40000009537,9024,WL,B,6.0
2,31.366000175476074,learn,28633.999824523926,Mon Dec 15 2025 14:40:33 GMT-0500 (Eastern Standard Time),354556.59999990463,A,carenter,I,enter,537,3,4416.199999809265,350140.40000009537,9024,WL,B,6.0
2,38.032999992370605,learn,21967.000007629395,Mon Dec 15 2025 14:40:33 GMT-0500 (Eastern Standard Time),361223.69999980927,A,w,I,w,6650,3,6666.799999713898,354556.90000009537,9024,WL,B,7.0
2,38.31700015068054,learn,21682.999849319458,Mon Dec 15 2025 14:40:33 GMT-0500 (Eastern Standard Time),361507.09999990463,A,wi,I,i,266,3,6950.199999809265,354556.90000009537,9024,WL,B,7.0
2,38.700000047683716,learn,21299.999952316284,Mon Dec 15 2025 14:40:33 GMT-0500 (Eastern Standard Time),361890.40000009537,A,win,I,n,369,3,7333.5,354556.90000009537,9024,WL,B,7.0
2,39.85000014305115,learn,20149.999856948853,Mon Dec 15 2025 14:40:33 GMT-0500 (Eastern Standard Time),363040.5,A,wind,I,d,1137,3,8483.599999904633,354556.90000009537,9024,WL,B,7.0
2,40.16700005531311,learn,19832.99994468689,Mon Dec 15 2025 14:40:33 GMT-0500 (Eastern Standard Time),363357.09999990463,A,windo,I,o,291,3,8800.199999809265,354556.90000009537,9024,WL,B,7.0
2,40.717000007629395,learn,19282.999992370605,Mon Dec 15 2025 14:40:33 GMT-0500 (Eastern Standard Time),363907.09999990463,A,window,I,w,535,3,9350.199999809265,354556.90000009537,9024,WL,B,7.0
2,41.30000019073486,learn,18699.999809265137,Mon Dec 15 2025 14:40:33 GMT-0500 (Eastern Standard Time),364489.7999997139,A,windowenter,I,enter,560,3,9932.89999961853,354556.90000009537,9024,WL,B,7.0
2,59.88300013542175,learn,116.99986457824707,Mon Dec 15 2025 14:40:33 GMT-0500 (Eastern Standard Time),383073.59999990463,A,g,I,g,18572,3,18583.300000190735,364490.2999997139,9024,WL,B,8.0
2,60.01700019836426,learn,-17.000198364257812,Mon Dec 15 2025 14:40:33 GMT-0500 (Eastern Standard Time),383207.09999990463,A,gNone,I,None,124,3,18716.800000190735,364490.2999997139,9024,WL,B,8.0
3,2.382999897003174,learn,57617.000102996826,Mon Dec 15 2025 14:40:33 GMT-0500 (Eastern Standard Time),455923.69999980927,A,s,I,s,2368,3,2383.199999809265,453540.5,9024,WL,B,1.0
3,2.816999912261963,learn,57183.00008773804,Mon Dec 15 2025 14:40:33 GMT-0500 (Eastern Standard Time),456357.0,A,st,I,t,417,3,2816.5,453540.5,9024,WL,B,1.0
3,3.132999897003174,learn,56867.000102996826,Mon Dec 15 2025 14:40:33 GMT-0500 (Eastern Standard Time),456673.59999990463,A,str,I,r,303,3,3133.0999999046326,453540.5,9024,WL,B,1.0
3,3.616999864578247,learn,56383.00013542175,Mon Dec 15 2025 14:40:33 GMT-0500 (Eastern Standard Time),457157.0,A,stre,I,e,466,3,3616.5,453540.5,9024,WL,B,1.0
3,3.8329999446868896,learn,56167.00005531311,Mon Dec 15 2025 14:40:33 GMT-0500 (Eastern Standard Time),457373.69999980927,A,stree,I,e,191,3,3833.199999809265,453540.5,9024,WL,B,1.0
3,4.132999897003174,learn,55867.000102996826,Mon Dec 15 2025 14:40:33 GMT-0500 (Eastern Standard Time),457673.69999980927,A,street,I,t,270,3,4133.199999809265,453540.5,9024,WL,B,1.0
3,4.8999998569488525,learn,55100.00014305115,Mon Dec 15 2025 14:40:33 GMT-0500 (Eastern Standard Time),458439.7999997139,A,streetenter,I,enter,745,3,4899.299999713898,453540.5,9024,WL,B,1.0
3,6.483000040054321,learn,53516.99995994568,Mon Dec 15 2025 14:40:33 GMT-0500 (Eastern Standard Time),460023.59999990463,A,a,I,a,1567,3,1583.5,458440.09999990463,9024,WL,B,2.0
3,6.91700005531311,learn,53082.99994468689,Mon Dec 15 2025 14:40:33 GMT-0500 (Eastern Standard Time),460457.0,A,ar,I,r,412,3,2016.9000000953674,458440.09999990463,9024,WL,B,2.0
3,8.116999864578247,learn,51883.00013542175,Mon Dec 15 2025 14:40:33 GMT-0500 (Eastern Standard Time),461657.0,A,arm,I,m,1179,3,3216.9000000953674,458440.09999990463,9024,WL,B,2.0
3,8.75,learn,51250.0,Mon Dec 15 2025 14:40:33 GMT-0500 (Eastern Standard Time),462289.90000009537,A,armenter,I,enter,618,3,3849.800000190735,458440.09999990463,9024,WL,B,2.0
3,10.16700005531311,learn,49832.99994468689,Mon Dec 15 2025 14:40:33 GMT-0500 (Eastern Standard Time),463706.90000009537,A,c,I,c,1397,3,1416.7000002861023,462290.19999980927,9024,WL,B,3.0
3,10.483000040054321,learn,49516.99995994568,Mon Dec 15 2025 14:40:33 GMT-0500 (Eastern Standard Time),464023.69999980927,A,ci,I,i,297,3,1733.5,462290.19999980927,9024,WL,B,3.0
3,10.816999912261963,learn,49183.00008773804,Mon Dec 15 2025 14:40:33 GMT-0500 (Eastern Standard Time),464357.0,A,cit,I,t,316,3,2066.800000190735,462290.19999980927,9024,WL,B,3.0
3,11.049999952316284,learn,48950.000047683716,Mon Dec 15 2025 14:40:33 GMT-0500 (Eastern Standard Time),464590.40000009537,A,city,I,y,223,3,2300.2000002861023,462290.19999980927,9024,WL,B,3.0
3,11.682999849319458,learn,48317.00015068054,Mon Dec 15 2025 14:40:33 GMT-0500 (Eastern Standard Time),465223.19999980927,A,cityenter,I,enter,605,3,2933.0,462290.19999980927,9024,WL,B,3.0
3,13.450000047683716,learn,46549.999952316284,Mon Dec 15 2025 14:40:33 GMT-0500 (Eastern Standard Time),466990.09999990463,A,s,I,s,1759,3,1766.5,465223.59999990463,9024,WL,B,4.0
3,14.58299994468689,learn,45417.00005531311,Mon Dec 15 2025 14:40:33 GMT-0500 (Eastern Standard Time),468123.59999990463,A,sk,I,k,1106,3,2900.0,465223.59999990463,9024,WL,B,4.0
3,15.08299994468689,learn,44917.00005531311,Mon Dec 15 2025 14:40:33 GMT-0500 (Eastern Standard Time),468623.59999990463,A,ski,I,i,488,3,3400.0,465223.59999990463,9024,WL,B,4.0
3,15.566999912261963,learn,44433.00008773804,Mon Dec 15 2025 14:40:33 GMT-0500 (Eastern Standard Time),469106.90000009537,A,skin,I,n,468,3,3883.300000190735,465223.59999990463,9024,WL,B,4.0
3,16.08299994468689,learn,43917.00005531311,Mon Dec 15 2025 14:40:33 GMT-0500 (Eastern Standard Time),469623.19999980927,A,skinenter,I,enter,496,3,4399.599999904633,465223.59999990463,9024,WL,B,4.0
3,17.217000007629395,learn,42782.999992370605,Mon Dec 15 2025 14:40:33 GMT-0500 (Eastern Standard Time),470757.0,A,g,I,g,1120,3,1133.5,469623.5,9024,WL,B,5.0
3,17.566999912261963,learn,42433.00008773804,Mon Dec 15 2025 14:40:33 GMT-0500 (Eastern Standard Time),471107.0,A,gl,I,l,334,3,1483.5,469623.5,9024,WL,B,5.0
3,17.882999897003174,learn,42117.000102996826,Mon Dec 15 2025 14:40:33 GMT-0500 (Eastern Standard Time),471423.59999990463,A,gla,I,a,303,3,1800.0999999046326,469623.5,9024,WL,B,5.0
3,18.366999864578247,learn,41633.00013542175,Mon Dec 15 2025 14:40:33 GMT-0500 (Eastern Standard Time),471907.0,A,glas,I,s,468,3,2283.5,469623.5,9024,WL,B,5.0
3,18.58299994468689,learn,41417.00005531311,Mon Dec 15 2025 14:40:33 GMT-0500 (Eastern Standard Time),472123.5,A,glass,I,s,192,3,2500.0,469623.5,9024,WL,B,5.0
3,19.0,learn,41000.0,Mon Dec 15 2025 14:40:33 GMT-0500 (Eastern Standard Time),472539.7999997139,A,glassenter,I,enter,383,3,2916.2999997138977,469623.5,9024,WL,B,5.0
3,20.01699995994568,learn,39983.00004005432,Mon Dec 15 2025 14:40:33 GMT-0500 (Eastern Standard Time),473557.0,A,p,I,p,1003,3,1016.9000000953674,472540.09999990463,9024,WL,B,6.0
3,20.366999864578247,learn,39633.00013542175,Mon Dec 15 2025 14:40:33 GMT-0500 (Eastern Standard Time),473906.90000009537,A,pi,I,i,335,3,1366.8000001907349,472540.09999990463,9024,WL,B,6.0
3,21.08299994468689,learn,38917.00005531311,Mon Dec 15 2025 14:40:33 GMT-0500 (Eastern Standard Time),474623.59999990463,A,p,I,backspace,704,3,2083.5,472540.09999990463,9024,WL,B,6.0
3,21.51699995994568,learn,38483.00004005432,Mon Dec 15 2025 14:40:33 GMT-0500 (Eastern Standard Time),475057.0,A,pu,I,u,420,3,2516.9000000953674,472540.09999990463,9024,WL,B,6.0
3,21.882999897003174,learn,38117.000102996826,Mon Dec 15 2025 14:40:33 GMT-0500 (Eastern Standard Time),475423.59999990463,A,pup,I,p,355,3,2883.5,472540.09999990463,9024,WL,B,6.0
3,22.23300004005432,learn,37766.99995994568,Mon Dec 15 2025 14:40:33 GMT-0500 (Eastern Standard Time),475773.59999990463,A,pupi,I,i,324,3,3233.5,472540.09999990463,9024,WL,B,6.0
3,22.566999912261963,learn,37433.00008773804,Mon Dec 15 2025 14:40:33 GMT-0500 (Eastern Standard Time),476107.0,A,pupil,I,l,310,3,3566.9000000953674,472540.09999990463,9024,WL,B,6.0
3,23.132999897003174,learn,36867.000102996826,Mon Dec 15 2025 14:40:33 GMT-0500 (Eastern Standard Time),476673.19999980927,A,pupilenter,I,enter,552,3,4133.099999904633,472540.09999990463,9024,WL,B,6.0
3,24.616999864578247,learn,35383.00013542175,Mon Dec 15 2025 14:40:33 GMT-0500 (Eastern Standard Time),478157.19999980927,A,c,I,c,1477,3,1483.5999999046326,476673.59999990463,9024,WL,B,7.0
3,25.116999864578247,learn,34883.00013542175,Mon Dec 15 2025 14:40:33 GMT-0500 (Eastern Standard Time),478656.90000009537,A,ci,I,i,485,3,1983.3000001907349,476673.59999990463,9024,WL,B,7.0
3,25.51699995994568,learn,34483.00004005432,Mon Dec 15 2025 14:40:33 GMT-0500 (Eastern Standard Time),479057.0,A,cit,I,t,387,3,2383.4000000953674,476673.59999990463,9024,WL,B,7.0
3,25.76699995994568,learn,34233.00004005432,Mon Dec 15 2025 14:40:33 GMT-0500 (Eastern Standard Time),479307.0,A,city,I,y,225,3,2633.4000000953674,476673.59999990463,9024,WL,B,7.0
3,26.382999897003174,learn,33617.000102996826,Mon Dec 15 2025 14:40:33 GMT-0500 (Eastern Standard Time),479923.09999990463,A,cityenter,I,enter,600,3,3249.5,476673.59999990463,9024,WL,B,7.0
3,29.016000032424927,learn,30983.999967575073,Mon Dec 15 2025 14:40:33 GMT-0500 (Eastern Standard Time),482556.5,A,s,I,s,2627,3,2633.0,479923.5,9024,WL,B,8.0
3,29.382999897003174,learn,30617.000102996826,Mon Dec 15 2025 14:40:33 GMT-0500 (Eastern Standard Time),482923.69999980927,A,sh,I,h,344,3,3000.199999809265,479923.5,9024,WL,B,8.0
3,30.316999912261963,learn,29683.000087738037,Mon Dec 15 2025 14:40:33 GMT-0500 (Eastern Standard Time),483857.0,A,s,I,backspace,919,3,3933.5,479923.5,9024,WL,B,8.0
3,30.882999897003174,learn,29117.000102996826,Mon Dec 15 2025 14:40:33 GMT-0500 (Eastern Standard Time),484423.69999980927,A,sk,I,k,548,3,4500.199999809265,479923.5,9024,WL,B,8.0
3,31.23300004005432,learn,28766.99995994568,Mon Dec 15 2025 14:40:33 GMT-0500 (Eastern Standard Time),484773.59999990463,A,ski,I,i,332,3,4850.099999904633,479923.5,9024,WL,B,8.0
3,32.31699991226196,learn,27683.000087738037,Mon Dec 15 2025 14:40:33 GMT-0500 (Eastern Standard Time),485856.90000009537,A,skin,I,n,1070,3,5933.400000095367,479923.5,9024,WL,B,8.0
3,32.81599998474121,learn,27184.00001525879,Mon Dec 15 2025 14:40:33 GMT-0500 (Eastern Standard Time),486356.40000009537,A,skinenter,I,enter,482,3,6432.900000095367,479923.5,9024,WL,B,8.0
3,33.299999952316284,learn,26700.000047683716,Mon Dec 15 2025 14:40:33 GMT-0500 (Eastern Standard Time),486840.2999997139,A,s,I,s,466,3,483.5,486356.7999997139,9024,WL,B,9.0
3,33.700000047683716,learn,26299.999952316284,Mon Dec 15 2025 14:40:33 GMT-0500 (Eastern Standard Time),487240.2999997139,A,st,I,t,378,3,883.5,486356.7999997139,9024,WL,B,9.0
3,34.11699986457825,learn,25883.000135421753,Mon Dec 15 2025 14:40:33 GMT-0500 (Eastern Standard Time),487656.90000009537,A,str,I,r,393,3,1300.1000003814697,486356.7999997139,9024,WL,B,9.0
3,34.549999952316284,learn,25450.000047683716,Mon Dec 15 2025 14:40:33 GMT-0500 (Eastern Standard Time),488090.2999997139,A,stre,I,e,411,3,1733.5,486356.7999997139,9024,WL,B,9.0
3,34.75,learn,25250.0,Mon Dec 15 2025 14:40:33 GMT-0500 (Eastern Standard Time),488290.2999997139,A,stree,I,e,186,3,1933.5,486356.7999997139,9024,WL,B,9.0
3,35.049999952316284,learn,24950.000047683716,Mon Dec 15 2025 14:40:33 GMT-0500 (Eastern Standard Time),488590.09999990463,A,street,I,t,287,3,2233.300000190735,486356.7999997139,9024,WL,B,9.0
3,35.46599984169006,learn,24534.000158309937,Mon Dec 15 2025 14:40:33 GMT-0500 (Eastern Standard Time),489006.40000009537,A,streetenter,I,enter,405,3,2649.6000003814697,486356.7999997139,9024,WL,B,9.0
3,35.91700005531311,learn,24082.99994468689,Mon Dec 15 2025 14:40:33 GMT-0500 (Eastern Standard Time),489457.0,A,c,I,c,440,3,450.2000002861023,489006.7999997139,9024,WL,B,10.0
3,36.31699991226196,learn,23683.000087738037,Mon Dec 15 2025 14:40:33 GMT-0500 (Eastern Standard Time),489857.0,A,ca,I,a,383,3,850.2000002861023,489006.7999997139,9024,WL,B,10.0
3,36.75,learn,23250.0,Mon Dec 15 2025 14:40:33 GMT-0500 (Eastern Standard Time),490290.2999997139,A,car,I,r,419,3,1283.5,489006.7999997139,9024,WL,B,10.0
3,37.31599998474121,learn,22684.00001525879,Mon Dec 15 2025 14:40:33 GMT-0500 (Eastern Standard Time),490856.5,A,carenter,I,enter,541,3,1849.7000002861023,489006.7999997139,9024,WL,B,10.0
3,39.950000047683716,learn,20049.999952316284,Mon Dec 15 2025 14:40:33 GMT-0500 (Eastern Standard Time),493490.19999980927,A,c,I,c,2621,3,2633.199999809265,490857.0,9024,WL,B,11.0
3,40.36699986457825,learn,19633.000135421753,Mon Dec 15 2025 14:40:33 GMT-0500 (Eastern Standard Time),493906.90000009537,A,ca,I,a,402,3,3049.9000000953674,490857.0,9024,WL,B,11.0
3,40.81699991226196,learn,19183.000087738037,Mon Dec 15 2025 14:40:33 GMT-0500 (Eastern Standard Time),494357.0,A,cab,I,b,432,3,3500.0,490857.0,9024,WL,B,11.0
3,41.36699986457825,learn,18633.000135421753,Mon Dec 15 2025 14:40:33 GMT-0500 (Eastern Standard Time),494906.90000009537,A,cabi,I,i,526,3,4049.9000000953674,490857.0,9024,WL,B,11.0
3,41.76699995994568,learn,18233.00004005432,Mon Dec 15 2025 14:40:33 GMT-0500 (Eastern Standard Time),495306.90000009537,A,cabin,I,n,377,3,4449.900000095367,490857.0,9024,WL,B,11.0
3,42.365999937057495,learn,17634.000062942505,Mon Dec 15 2025 14:40:33 GMT-0500 (Eastern Standard Time),495906.40000009537,A,cabinenter,I,enter,584,3,5049.400000095367,490857.0,9024,WL,B,11.0
3,47.549999952316284,learn,12450.000047683716,Mon Dec 15 2025 14:40:33 GMT-0500 (Eastern Standard Time),501090.2999997139,A,a,I,a,5172,3,5183.5,495906.7999997139,9024,WL,B,12.0
3,47.950000047683716,learn,12049.999952316284,Mon Dec 15 2025 14:40:33 GMT-0500 (Eastern Standard Time),501490.19999980927,A,ar,I,r,385,3,5583.400000095367,495906.7999997139,9024,WL,B,12.0
3,48.33299994468689,learn,11667.00005531311,Mon Dec 15 2025 14:40:33 GMT-0500 (Eastern Standard Time),501873.59999990463,A,arm,I,m,370,3,5966.800000190735,495906.7999997139,9024,WL,B,12.0
3,48.865999937057495,learn,11134.000062942505,Mon Dec 15 2025 14:40:33 GMT-0500 (Eastern Standard Time),502406.40000009537,A,armenter,I,enter,513,3,6499.60000038147,495906.7999997139,9024,WL,B,12.0
3,53.81699991226196,learn,6183.000087738037,Mon Dec 15 2025 14:40:33 GMT-0500 (Eastern Standard Time),507357.09999990463,A,w,I,w,4928,3,4950.300000190735,502406.7999997139,9024,WL,B,13.0
3,54.23300004005432,learn,5766.999959945679,Mon Dec 15 2025 14:40:33 GMT-0500 (Eastern Standard Time),507773.40000009537,A,wi,I,i,390,3,5366.60000038147,502406.7999997139,9024,WL,B,13.0
3,54.58299994468689,learn,5417.00005531311,Mon Dec 15 2025 14:40:33 GMT-0500 (Eastern Standard Time),508123.59999990463,A,win,I,n,325,3,5716.800000190735,502406.7999997139,9024,WL,B,13.0
3,55.16700005531311,learn,4832.99994468689,Mon Dec 15 2025 14:40:33 GMT-0500 (Eastern Standard Time),508706.90000009537,A,wind,I,d,566,3,6300.10000038147,502406.7999997139,9024,WL,B,13.0
3,55.84999990463257,learn,4150.000095367432,Mon Dec 15 2025 14:40:33 GMT-0500 (Eastern Standard Time),509390.0,A,windo,I,o,673,3,6983.200000286102,502406.7999997139,9024,WL,B,13.0
3,56.34999990463257,learn,3650.0000953674316,Mon Dec 15 2025 14:40:33 GMT-0500 (Eastern Standard Time),509890.2999997139,A,window,I,w,486,3,7483.5,502406.7999997139,9024,WL,B,13.0
3,56.75,learn,3250.0,Mon Dec 15 2025 14:40:33 GMT-0500 (Eastern Standard Time),510289.7999997139,A,windowenter,I,enter,384,3,7883.0,502406.7999997139,9024,WL,B,13.0
3,59.51699995994568,learn,483.0000400543213,Mon Dec 15 2025 14:40:33 GMT-0500 (Eastern Standard Time),513056.90000009537,A,c,I,c,2757,3,2766.800000190735,510290.09999990463,9024,WL,B,14.0
3,59.89999985694885,learn,100.00014305114746,Mon Dec 15 2025 14:40:33 GMT-0500 (Eastern Standard Time),513440.2999997139,A,ca,I,a,371,3,3150.199999809265,510290.09999990463,9024,WL,B,14.0
3,60.01699995994568,learn,-16.99995994567871,Mon Dec 15 2025 14:40:33 GMT-0500 (Eastern Standard Time),513557.0,A,caNone,I,None,107,3,3266.9000000953674,510290.09999990463,9024,WL,B,14.0
4,1.3670001029968262,learn,58632.999897003174,Mon Dec 15 2025 14:40:33 GMT-0500 (Eastern Standard Time),583256.9000000954,A,l,I,l,1346,3,1366.0,581890.9000000954,9024,WL,B,1.0
4,1.7000000476837158,learn,58299.999952316284,Mon Dec 15 2025 14:40:33 GMT-0500 (Eastern Standard Time),583590.0999999046,A,la,I,a,315,3,1699.1999998092651,581890.9000000954,9024,WL,B,1.0
4,2.049999952316284,learn,57950.000047683716,Mon Dec 15 2025 14:40:33 GMT-0500 (Eastern Standard Time),583940.0999999046,A,lak,I,k,334,3,2049.199999809265,581890.9000000954,9024,WL,B,1.0
4,2.4000000953674316,learn,57599.99990463257,Mon Dec 15 2025 14:40:33 GMT-0500 (Eastern Standard Time),584290.1999998093,A,lake,I,e,336,3,2399.2999997138977,581890.9000000954,9024,WL,B,1.0
4,2.9670000076293945,learn,57032.999992370605,Mon Dec 15 2025 14:40:33 GMT-0500 (Eastern Standard Time),584857.5,A,lakeenter,I,enter,545,3,2966.5999999046326,581890.9000000954,9024,WL,B,1.0
4,4.983000040054321,learn,55016.99995994568,Mon Dec 15 2025 14:40:33 GMT-0500 (Eastern Standard Time),586873.5,A,p,I,p,1997,3,2015.5999999046326,584857.9000000954,9024,WL,B,2.0
4,5.41700005531311,learn,54582.99994468689,Mon Dec 15 2025 14:40:33 GMT-0500 (Eastern Standard Time),587306.9000000954,A,pi,I,i,408,3,2449.0,584857.9000000954,9024,WL,B,2.0
4,5.733000040054321,learn,54266.99995994568,Mon Dec 15 2025 14:40:33 GMT-0500 (Eastern Standard Time),587623.5,A,pip,I,p,297,3,2765.5999999046326,584857.9000000954,9024,WL,B,2.0
4,6.200000047683716,learn,53799.999952316284,Mon Dec 15 2025 14:40:33 GMT-0500 (Eastern Standard Time),588090.1999998093,A,pipe,I,e,444,3,3232.2999997138977,584857.9000000954,9024,WL,B,2.0
4,6.666000127792358,learn,53333.99987220764,Mon Dec 15 2025 14:40:33 GMT-0500 (Eastern Standard Time),588556.2999997139,A,pipeenter,I,enter,441,3,3698.3999996185303,584857.9000000954,9024,WL,B,2.0
4,7.383000135421753,learn,52616.99986457825,Mon Dec 15 2025 14:40:33 GMT-0500 (Eastern Standard Time),589273.5,A,p,I,p,697,3,716.8000001907349,588556.6999998093,9024,WL,B,3.0
4,7.83299994468689,learn,52167.00005531311,Mon Dec 15 2025 14:40:33 GMT-0500 (Eastern Standard Time),589723.5,A,pu,I,u,426,3,1166.8000001907349,588556.6999998093,9024,WL,B,3.0
4,8.617000102996826,learn,51382.999897003174,Mon Dec 15 2025 14:40:33 GMT-0500 (Eastern Standard Time),590506.7999997139,A,pup,I,p,759,3,1950.0999999046326,588556.6999998093,9024,WL,B,3.0
4,8.950000047683716,learn,51049.999952316284,Mon Dec 15 2025 14:40:33 GMT-0500 (Eastern Standard Time),590840.0999999046,A,pupi,I,i,313,3,2283.4000000953674,588556.6999998093,9024,WL,B,3.0
4,9.25,learn,50750.0,Mon Dec 15 2025 14:40:33 GMT-0500 (Eastern Standard Time),591140.2999997139,A,pupil,I,l,284,3,2583.5999999046326,588556.6999998093,9024,WL,B,3.0
4,9.766000032424927,learn,50233.99996757507,Mon Dec 15 2025 14:40:33 GMT-0500 (Eastern Standard Time),591656.4000000954,A,pupilenter,I,enter,494,3,3099.7000002861023,588556.6999998093,9024,WL,B,3.0
4,11.183000087738037,learn,48816.99991226196,Mon Dec 15 2025 14:40:33 GMT-0500 (Eastern Standard Time),593073.5,A,a,I,a,1406,3,1416.8000001907349,591656.6999998093,9024,WL,B,4.0
4,11.717000007629395,learn,48282.999992370605,Mon Dec 15 2025 14:40:33 GMT-0500 (Eastern Standard Time),593606.9000000954,A,ar,I,r,513,3,1950.2000002861023,591656.6999998093,9024,WL,B,4.0
4,12.5,learn,47500.0,Mon Dec 15 2025 14:40:33 GMT-0500 (Eastern Standard Time),594390.0999999046,A,arm,I,m,764,3,2733.4000000953674,591656.6999998093,9024,WL,B,4.0
4,13.466000080108643,learn,46533.99991989136,Mon Dec 15 2025 14:40:33 GMT-0500 (Eastern Standard Time),595356.2999997139,A,armenter,I,enter,955,3,3699.5999999046326,591656.6999998093,9024,WL,B,4.0
4,16.23300004005432,learn,43766.99995994568,Mon Dec 15 2025 14:40:33 GMT-0500 (Eastern Standard Time),598123.4000000954,A,s,I,s,2745,3,2766.7000002861023,595356.6999998093,9024,WL,B,5.0
4,16.633000135421753,learn,43366.99986457825,Mon Dec 15 2025 14:40:33 GMT-0500 (Eastern Standard Time),598523.5,A,st,I,t,376,3,3166.800000190735,595356.6999998093,9024,WL,B,5.0
4,16.91700005531311,learn,43082.99994468689,Mon Dec 15 2025 14:40:33 GMT-0500 (Eastern Standard Time),598806.9000000954,A,str,I,r,264,3,3450.2000002861023,595356.6999998093,9024,WL,B,5.0
4,17.41700005531311,learn,42582.99994468689,Mon Dec 15 2025 14:40:33 GMT-0500 (Eastern Standard Time),599306.7999997139,A,stre,I,e,476,3,3950.0999999046326,595356.6999998093,9024,WL,B,5.0
4,17.633000135421753,learn,42366.99986457825,Mon Dec 15 2025 14:40:33 GMT-0500 (Eastern Standard Time),599523.5,A,stree,I,e,201,3,4166.800000190735,595356.6999998093,9024,WL,B,5.0
4,17.98300004005432,learn,42016.99995994568,Mon Dec 15 2025 14:40:33 GMT-0500 (Eastern Standard Time),599873.5999999046,A,street,I,t,335,3,4516.900000095367,595356.6999998093,9024,WL,B,5.0
4,18.3989999294281,learn,41601.0000705719,Mon Dec 15 2025 14:40:33 GMT-0500 (Eastern Standard Time),600289.6999998093,A,streetenter,I,enter,401,3,4933.0,595356.6999998093,9024,WL,B,5.0
4,18.966000080108643,learn,41033.99991989136,Mon Dec 15 2025 14:40:33 GMT-0500 (Eastern Standard Time),600856.7999997139,A,w,I,w,548,3,566.7999997138977,600290.0,9024,WL,B,6.0
4,19.365999937057495,learn,40634.000062942505,Mon Dec 15 2025 14:40:33 GMT-0500 (Eastern Standard Time),601256.7999997139,A,wi,I,i,378,3,966.7999997138977,600290.0,9024,WL,B,6.0
4,19.700000047683716,learn,40299.999952316284,Mon Dec 15 2025 14:40:33 GMT-0500 (Eastern Standard Time),601590.0999999046,A,wif,I,f,313,3,1300.0999999046326,600290.0,9024,WL,B,6.0
4,20.117000102996826,learn,39882.999897003174,Mon Dec 15 2025 14:40:33 GMT-0500 (Eastern Standard Time),602006.7999997139,A,wife,I,e,398,3,1716.7999997138977,600290.0,9024,WL,B,6.0
4,20.56599998474121,learn,39434.00001525879,Mon Dec 15 2025 14:40:33 GMT-0500 (Eastern Standard Time),602456.2999997139,A,wifeenter,I,enter,427,3,2166.2999997138977,600290.0,9024,WL,B,6.0
4,22.049999952316284,learn,37950.000047683716,Mon Dec 15 2025 14:40:33 GMT-0500 (Eastern Standard Time),603940.1999998093,A,g,I,g,1470,3,1483.5999999046326,602456.5999999046,9024,WL,B,7.0
4,22.433000087738037,learn,37566.99991226196,Mon Dec 15 2025 14:40:33 GMT-0500 (Eastern Standard Time),604323.4000000954,A,gl,I,l,361,3,1866.8000001907349,602456.5999999046,9024,WL,B,7.0
4,22.73300004005432,learn,37266.99995994568,Mon Dec 15 2025 14:40:33 GMT-0500 (Eastern Standard Time),604623.4000000954,A,gla,I,a,288,3,2166.800000190735,602456.5999999046,9024,WL,B,7.0
4,23.200000047683716,learn,36799.999952316284,Mon Dec 15 2025 14:40:33 GMT-0500 (Eastern Standard Time),605090.1999998093,A,glas,I,s,452,3,2633.5999999046326,602456.5999999046,9024,WL,B,7.0
4,23.40000009536743,learn,36599.99990463257,Mon Dec 15 2025 14:40:33 GMT-0500 (Eastern Standard Time),605290.1999998093,A,glass,I,s,178,3,2833.5999999046326,602456.5999999046,9024,WL,B,7.0
4,23.73300004005432,learn,36266.99995994568,Mon Dec 15 2025 14:40:33 GMT-0500 (Eastern Standard Time),605623.0,A,glassenter,I,enter,305,3,3166.4000000953674,602456.5999999046,9024,WL,B,7.0
4,26.450000047683716,learn,33549.999952316284,Mon Dec 15 2025 14:40:33 GMT-0500 (Eastern Standard Time),608340.1999998093,A,c,I,c,2703,3,2716.7999997138977,605623.4000000954,9024,WL,B,8.0
4,26.782999992370605,learn,33217.000007629395,Mon Dec 15 2025 14:40:33 GMT-0500 (Eastern Standard Time),608673.4000000954,A,ci,I,i,320,3,3050.0,605623.4000000954,9024,WL,B,8.0
4,27.133000135421753,learn,32866.99986457825,Mon Dec 15 2025 14:40:33 GMT-0500 (Eastern Standard Time),609023.5,A,cit,I,t,338,3,3400.0999999046326,605623.4000000954,9024,WL,B,8.0
4,27.450000047683716,learn,32549.999952316284,Mon Dec 15 2025 14:40:33 GMT-0500 (Eastern Standard Time),609340.1999998093,A,city,I,y,291,3,3716.7999997138977,605623.4000000954,9024,WL,B,8.0
4,28.032999992370605,learn,31967.000007629395,Mon Dec 15 2025 14:40:33 GMT-0500 (Eastern Standard Time),609923.0,A,cityenter,I,enter,565,3,4299.599999904633,605623.4000000954,9024,WL,B,8.0
4,28.76699995994568,learn,31233.00004005432,Mon Dec 15 2025 14:40:33 GMT-0500 (Eastern Standard Time),610656.9000000954,A,a,I,a,724,3,733.6000003814697,609923.2999997139,9024,WL,B,9.0
4,29.200000047683716,learn,30799.999952316284,Mon Dec 15 2025 14:40:33 GMT-0500 (Eastern Standard Time),611090.1999998093,A,ar,I,r,419,3,1166.9000000953674,609923.2999997139,9024,WL,B,9.0
4,29.549999952316284,learn,30450.000047683716,Mon Dec 15 2025 14:40:33 GMT-0500 (Eastern Standard Time),611440.1999998093,A,arm,I,m,338,3,1516.9000000953674,609923.2999997139,9024,WL,B,9.0
4,30.098999977111816,learn,29901.000022888184,Mon Dec 15 2025 14:40:33 GMT-0500 (Eastern Standard Time),611989.5999999046,A,armenter,I,enter,531,3,2066.300000190735,609923.2999997139,9024,WL,B,9.0
4,34.10000014305115,learn,25899.999856948853,Mon Dec 15 2025 14:40:33 GMT-0500 (Eastern Standard Time),615990.0999999046,A,c,I,c,3985,3,4000.199999809265,611989.9000000954,9024,WL,B,10.0
4,34.60000014305115,learn,25399.999856948853,Mon Dec 15 2025 14:40:33 GMT-0500 (Eastern Standard Time),616490.0999999046,A,ci,I,i,476,3,4500.199999809265,611989.9000000954,9024,WL,B,10.0
4,35.16600012779236,learn,24833.99987220764,Mon Dec 15 2025 14:40:33 GMT-0500 (Eastern Standard Time),617056.7999997139,A,cit,I,t,552,3,5066.89999961853,611989.9000000954,9024,WL,B,10.0
4,35.365999937057495,learn,24634.000062942505,Mon Dec 15 2025 14:40:33 GMT-0500 (Eastern Standard Time),617256.7999997139,A,city,I,y,178,3,5266.89999961853,611989.9000000954,9024,WL,B,10.0
4,35.8989999294281,learn,24101.0000705719,Mon Dec 15 2025 14:40:33 GMT-0500 (Eastern Standard Time),617789.5999999046,A,cityenter,I,enter,513,3,5799.699999809265,611989.9000000954,9024,WL,B,10.0
4,39.93300008773804,learn,20066.999912261963,Mon Dec 15 2025 14:40:33 GMT-0500 (Eastern Standard Time),621823.5999999046,A,w,I,w,4025,3,4033.5,617790.0999999046,9024,WL,B,11.0
4,40.299999952316284,learn,19700.000047683716,Mon Dec 15 2025 14:40:33 GMT-0500 (Eastern Standard Time),622189.9000000954,A,wi,I,i,356,3,4399.800000190735,617790.0999999046,9024,WL,B,11.0
4,40.865999937057495,learn,19134.000062942505,Mon Dec 15 2025 14:40:33 GMT-0500 (Eastern Standard Time),622756.6999998093,A,win,I,n,550,3,4966.599999904633,617790.0999999046,9024,WL,B,11.0
4,41.700000047683716,learn,18299.999952316284,Mon Dec 15 2025 14:40:33 GMT-0500 (Eastern Standard Time),623590.1999998093,A,wind,I,d,814,3,5800.099999904633,617790.0999999046,9024,WL,B,11.0
4,42.049999952316284,learn,17950.000047683716,Mon Dec 15 2025 14:40:33 GMT-0500 (Eastern Standard Time),623940.0999999046,A,windo,I,o,333,3,6150.0,617790.0999999046,9024,WL,B,11.0
4,42.43300008773804,learn,17566.999912261963,Mon Dec 15 2025 14:40:33 GMT-0500 (Eastern Standard Time),624323.4000000954,A,window,I,w,368,3,6533.300000190735,617790.0999999046,9024,WL,B,11.0
4,42.93300008773804,learn,17066.999912261963,Mon Dec 15 2025 14:40:33 GMT-0500 (Eastern Standard Time),624823.0,A,windowenter,I,enter,479,3,7032.900000095367,617790.0999999046,9024,WL,B,11.0
4,44.76699995994568,learn,15233.000040054321,Mon Dec 15 2025 14:40:33 GMT-0500 (Eastern Standard Time),626656.6999998093,A,d,I,d,1824,3,1833.2999997138977,624823.4000000954,9024,WL,B,12.0
4,45.367000102996826,learn,14632.999897003174,Mon Dec 15 2025 14:40:33 GMT-0500 (Eastern Standard Time),627256.7999997139,A,do,I,o,575,3,2433.3999996185303,624823.4000000954,9024,WL,B,12.0
4,45.56599998474121,learn,14434.000015258789,Mon Dec 15 2025 14:40:33 GMT-0500 (Eastern Standard Time),627456.7999997139,A,doo,I,o,187,3,2633.3999996185303,624823.4000000954,9024,WL,B,12.0
4,45.93300008773804,learn,14066.999912261963,Mon Dec 15 2025 14:40:33 GMT-0500 (Eastern Standard Time),627823.4000000954,A,door,I,r,353,3,3000.0,624823.4000000954,9024,WL,B,12.0
4,46.29900002479553,learn,13700.999975204468,Mon Dec 15 2025 14:40:33 GMT-0500 (Eastern Standard Time),628189.5999999046,A,doorenter,I,enter,354,3,3366.199999809265,624823.4000000954,9024,WL,B,12.0
4,48.10000014305115,learn,11899.999856948853,Mon Dec 15 2025 14:40:33 GMT-0500 (Eastern Standard Time),629990.1999998093,A,a,I,a,1784,3,1800.1999998092651,628190.0,9024,WL,B,13.0
4,48.5,learn,11500.0,Mon Dec 15 2025 14:40:33 GMT-0500 (Eastern Standard Time),630390.1999998093,A,ar,I,r,380,3,2200.199999809265,628190.0,9024,WL,B,13.0
4,48.83299994468689,learn,11167.00005531311,Mon Dec 15 2025 14:40:33 GMT-0500 (Eastern Standard Time),630723.4000000954,A,arm,I,m,318,3,2533.4000000953674,628190.0,9024,WL,B,13.0
4,49.348999977111816,learn,10651.000022888184,Mon Dec 15 2025 14:40:33 GMT-0500 (Eastern Standard Time),631239.5999999046,A,armenter,I,enter,496,3,3049.5999999046326,628190.0,9024,WL,B,13.0
4,49.83299994468689,learn,10167.00005531311,Mon Dec 15 2025 14:40:33 GMT-0500 (Eastern Standard Time),631723.4000000954,A,s,I,s,462,3,483.40000009536743,631240.0,9024,WL,B,14.0
4,50.117000102996826,learn,9882.999897003174,Mon Dec 15 2025 14:40:33 GMT-0500 (Eastern Standard Time),632006.7999997139,A,sj,I,j,263,3,766.7999997138977,631240.0,9024,WL,B,14.0
4,51.049999952316284,learn,8950.000047683716,Mon Dec 15 2025 14:40:33 GMT-0500 (Eastern Standard Time),632940.0999999046,A,s,I,backspace,907,3,1700.0999999046326,631240.0,9024,WL,B,14.0
4,51.48300004005432,learn,8516.999959945679,Mon Dec 15 2025 14:40:33 GMT-0500 (Eastern Standard Time),633373.5,A,sk,I,k,407,3,2133.5,631240.0,9024,WL,B,14.0
4,51.73300004005432,learn,8266.999959945679,Mon Dec 15 2025 14:40:33 GMT-0500 (Eastern Standard Time),633623.4000000954,A,ski,I,i,229,3,2383.4000000953674,631240.0,9024,WL,B,14.0
4,52.43300008773804,learn,7566.999912261963,Mon Dec 15 2025 14:40:33 GMT-0500 (Eastern Standard Time),634323.5,A,skin,I,n,684,3,3083.5,631240.0,9024,WL,B,14.0
4,53.01600003242493,learn,6983.999967575073,Mon Dec 15 2025 14:40:33 GMT-0500 (Eastern Standard Time),634906.2999997139,A,skinenter,I,enter,559,3,3666.2999997138977,631240.0,9024,WL,B,14.0
4,60.01699995994568,learn,-16.99995994567871,Mon Dec 15 2025 14:40:33 GMT-0500 (Eastern Standard Time),641907.0,A,None,I,None,6993,3,7000.400000095367,634906.5999999046,9024,WL,B,15.0
5,1.8999998569488525,learn,60000.0,Mon Dec 15 2025 14:40:33 GMT-0500 (Eastern Standard Time),720157.0999999046,A,l,I,l,1874,3,1899.8000001907349,718257.2999997139,9024,WL,B,1.0
5,2.2159998416900635,learn,60000.0,Mon Dec 15 2025 14:40:33 GMT-0500 (Eastern Standard Time),720473.2999997139,A,la,I,a,294,3,2216.0,718257.2999997139,9024,WL,B,1.0
5,2.615999937057495,learn,60000.0,Mon Dec 15 2025 14:40:33 GMT-0500 (Eastern Standard Time),720873.2999997139,A,lak,I,k,378,3,2616.0,718257.2999997139,9024,WL,B,1.0
5,2.8989999294281006,learn,60000.0,Mon Dec 15 2025 14:40:33 GMT-0500 (Eastern Standard Time),721156.5999999046,A,lake,I,e,265,3,2899.300000190735,718257.2999997139,9024,WL,B,1.0
5,3.6659998893737793,learn,60000.0,Mon Dec 15 2025 14:40:33 GMT-0500 (Eastern Standard Time),721922.9000000954,A,lakeenter,I,enter,750,3,3665.6000003814697,718257.2999997139,9024,WL,B,1.0
5,5.016000032424927,learn,60000.0,Mon Dec 15 2025 14:40:33 GMT-0500 (Eastern Standard Time),723273.2999997139,A,p,I,p,1330,3,1350.0,721923.2999997139,9024,WL,B,2.0
5,5.382999897003174,learn,60000.0,Mon Dec 15 2025 14:40:33 GMT-0500 (Eastern Standard Time),723640.0,A,pi,I,i,345,3,1716.7000002861023,721923.2999997139,9024,WL,B,2.0
5,5.766000032424927,learn,60000.0,Mon Dec 15 2025 14:40:33 GMT-0500 (Eastern Standard Time),724023.4000000954,A,pip,I,p,363,3,2100.1000003814697,721923.2999997139,9024,WL,B,2.0
5,6.299000024795532,learn,60000.0,Mon Dec 15 2025 14:40:33 GMT-0500 (Eastern Standard Time),724556.6999998093,A,pipe,I,e,507,3,2633.4000000953674,721923.2999997139,9024,WL,B,2.0
5,6.766000032424927,learn,60000.0,Mon Dec 15 2025 14:40:33 GMT-0500 (Eastern Standard Time),725022.9000000954,A,pipeenter,I,enter,454,3,3099.6000003814697,721923.2999997139,9024,WL,B,2.0
5,7.348999977111816,learn,60000.0,Mon Dec 15 2025 14:40:33 GMT-0500 (Eastern Standard Time),725606.6999998093,A,s,I,s,567,3,583.4000000953674,725023.2999997139,9024,WL,B,3.0
5,7.799000024795532,learn,60000.0,Mon Dec 15 2025 14:40:33 GMT-0500 (Eastern Standard Time),726056.6999998093,A,st,I,t,428,3,1033.4000000953674,725023.2999997139,9024,WL,B,3.0
5,8.248999834060669,learn,60000.0,Mon Dec 15 2025 14:40:33 GMT-0500 (Eastern Standard Time),726506.6999998093,A,sta,I,a,426,3,1483.4000000953674,725023.2999997139,9024,WL,B,3.0
5,8.6489999294281,learn,60000.0,Mon Dec 15 2025 14:40:33 GMT-0500 (Eastern Standard Time),726906.6999998093,A,star,I,r,376,3,1883.4000000953674,725023.2999997139,9024,WL,B,3.0
5,9.315999984741211,learn,60000.0,Mon Dec 15 2025 14:40:33 GMT-0500 (Eastern Standard Time),727572.7999997139,A,starenter,I,enter,649,3,2549.5,725023.2999997139,9024,WL,B,3.0
5,10.182999849319458,learn,60000.0,Mon Dec 15 2025 14:40:33 GMT-0500 (Eastern Standard Time),728440.0,A,c,I,c,849,3,866.8000001907349,727573.1999998093,9024,WL,B,4.0
5,10.498999834060669,learn,60000.0,Mon Dec 15 2025 14:40:33 GMT-0500 (Eastern Standard Time),728756.6999998093,A,ci,I,i,299,3,1183.5,727573.1999998093,9024,WL,B,4.0
5,10.83299994468689,learn,60000.0,Mon Dec 15 2025 14:40:33 GMT-0500 (Eastern Standard Time),729089.9000000954,A,cit,I,t,318,3,1516.7000002861023,727573.1999998093,9024,WL,B,4.0
5,11.115999937057495,learn,60000.0,Mon Dec 15 2025 14:40:33 GMT-0500 (Eastern Standard Time),729373.4000000954,A,city,I,y,272,3,1800.2000002861023,727573.1999998093,9024,WL,B,4.0
5,11.983000040054321,learn,60000.0,Mon Dec 15 2025 14:40:33 GMT-0500 (Eastern Standard Time),730240.0,A,citys,I,s,851,3,2666.800000190735,727573.1999998093,9024,WL,B,4.0
5,12.41599988937378,learn,60000.0,Mon Dec 15 2025 14:40:33 GMT-0500 (Eastern Standard Time),730673.4000000954,A,citysk,I,k,419,3,3100.2000002861023,727573.1999998093,9024,WL,B,4.0
5,12.73199987411499,learn,60000.0,Mon Dec 15 2025 14:40:33 GMT-0500 (Eastern Standard Time),730989.5999999046,A,cityski,I,i,305,3,3416.4000000953674,727573.1999998093,9024,WL,B,4.0
5,13.315999984741211,learn,60000.0,Mon Dec 15 2025 14:40:33 GMT-0500 (Eastern Standard Time),731573.2999997139,A,cityskin,I,n,567,3,4000.0999999046326,727573.1999998093,9024,WL,B,4.0
5,13.832000017166138,learn,60000.0,Mon Dec 15 2025 14:40:33 GMT-0500 (Eastern Standard Time),732089.4000000954,A,cityskinenter,I,enter,494,3,4516.200000286102,727573.1999998093,9024,WL,B,4.0
5,15.899999856948853,learn,60000.0,Mon Dec 15 2025 14:40:33 GMT-0500 (Eastern Standard Time),734156.9000000954,A,s,I,s,2060,3,2067.0,732089.9000000954,9024,WL,B,5.0
5,16.299999952316284,learn,60000.0,Mon Dec 15 2025 14:40:33 GMT-0500 (Eastern Standard Time),734556.7999997139,A,sr,I,r,390,3,2466.8999996185303,732089.9000000954,9024,WL,B,5.0
5,17.215999841690063,learn,60000.0,Mon Dec 15 2025 14:40:33 GMT-0500 (Eastern Standard Time),735473.2999997139,A,s,I,backspace,902,3,3383.3999996185303,732089.9000000954,9024,WL,B,5.0
5,17.516000032424927,learn,60000.0,Mon Dec 15 2025 14:40:33 GMT-0500 (Eastern Standard Time),735773.0,A,st,I,t,289,3,3683.0999999046326,732089.9000000954,9024,WL,B,5.0
5,17.865999937057495,learn,60000.0,Mon Dec 15 2025 14:40:33 GMT-0500 (Eastern Standard Time),736123.4000000954,A,str,I,r,324,3,4033.5,732089.9000000954,9024,WL,B,5.0
5,18.266000032424927,learn,60000.0,Mon Dec 15 2025 14:40:33 GMT-0500 (Eastern Standard Time),736523.2999997139,A,stre,I,e,374,3,4433.39999961853,732089.9000000954,9024,WL,B,5.0
5,18.432999849319458,learn,60000.0,Mon Dec 15 2025 14:40:33 GMT-0500 (Eastern Standard Time),736690.0,A,stree,I,e,151,3,4600.099999904633,732089.9000000954,9024,WL,B,5.0
5,18.799000024795532,learn,60000.0,Mon Dec 15 2025 14:40:33 GMT-0500 (Eastern Standard Time),737056.1999998093,A,street,I,t,352,3,4966.299999713898,732089.9000000954,9024,WL,B,5.0
5,19.281999826431274,learn,60000.0,Mon Dec 15 2025 14:40:33 GMT-0500 (Eastern Standard Time),737539.4000000954,A,streetenter,I,enter,470,3,5449.5,732089.9000000954,9024,WL,B,5.0
5,20.31599998474121,learn,60000.0,Mon Dec 15 2025 14:40:33 GMT-0500 (Eastern Standard Time),738573.2999997139,A,g,I,g,1027,3,1033.3999996185303,737539.9000000954,9024,WL,B,6.0
5,20.698999881744385,learn,60000.0,Mon Dec 15 2025 14:40:33 GMT-0500 (Eastern Standard Time),738956.5,A,gr,I,r,359,3,1416.5999999046326,737539.9000000954,9024,WL,B,6.0
5,21.215999841690063,learn,60000.0,Mon Dec 15 2025 14:40:33 GMT-0500 (Eastern Standard Time),739473.2999997139,A,gra,I,a,502,3,1933.3999996185303,737539.9000000954,9024,WL,B,6.0
5,21.799000024795532,learn,60000.0,Mon Dec 15 2025 14:40:33 GMT-0500 (Eastern Standard Time),740056.6999998093,A,gras,I,s,563,3,2516.7999997138977,737539.9000000954,9024,WL,B,6.0
5,21.98300004005432,learn,60000.0,Mon Dec 15 2025 14:40:33 GMT-0500 (Eastern Standard Time),740240.0999999046,A,grass,I,s,171,3,2700.199999809265,737539.9000000954,9024,WL,B,6.0
5,22.31599998474121,learn,60000.0,Mon Dec 15 2025 14:40:33 GMT-0500 (Eastern Standard Time),740572.7999997139,A,grassenter,I,enter,322,3,3032.8999996185303,737539.9000000954,9024,WL,B,6.0
5,23.049000024795532,learn,60000.0,Mon Dec 15 2025 14:40:33 GMT-0500 (Eastern Standard Time),741306.5999999046,A,d,I,d,712,3,733.4000000953674,740573.1999998093,9024,WL,B,7.0
5,23.465999841690063,learn,60000.0,Mon Dec 15 2025 14:40:33 GMT-0500 (Eastern Standard Time),741723.4000000954,A,dp,I,p,392,3,1150.2000002861023,740573.1999998093,9024,WL,B,7.0
5,24.516000032424927,learn,60000.0,Mon Dec 15 2025 14:40:33 GMT-0500 (Eastern Standard Time),742773.0999999046,A,d,I,backspace,1031,3,2199.9000000953674,740573.1999998093,9024,WL,B,7.0
5,25.049000024795532,learn,60000.0,Mon Dec 15 2025 14:40:33 GMT-0500 (Eastern Standard Time),743306.6999998093,A,do,I,o,509,3,2733.5,740573.1999998093,9024,WL,B,7.0
5,25.49899983406067,learn,60000.0,Mon Dec 15 2025 14:40:33 GMT-0500 (Eastern Standard Time),743756.5999999046,A,doo,I,o,425,3,3183.4000000953674,740573.1999998093,9024,WL,B,7.0
5,25.81599998474121,learn,60000.0,Mon Dec 15 2025 14:40:33 GMT-0500 (Eastern Standard Time),744073.2999997139,A,door,I,r,294,3,3500.0999999046326,740573.1999998093,9024,WL,B,7.0
5,26.215999841690063,learn,60000.0,Mon Dec 15 2025 14:40:33 GMT-0500 (Eastern Standard Time),744472.7999997139,A,doorenter,I,enter,377,3,3899.5999999046326,740573.1999998093,9024,WL,B,7.0
5,27.3989999294281,learn,60000.0,Mon Dec 15 2025 14:40:33 GMT-0500 (Eastern Standard Time),745656.6999998093,A,a,I,a,1165,3,1183.5999999046326,744473.0999999046,9024,WL,B,8.0
5,27.8989999294281,learn,60000.0,Mon Dec 15 2025 14:40:33 GMT-0500 (Eastern Standard Time),746156.5999999046,A,ar,I,r,474,3,1683.5,744473.0999999046,9024,WL,B,8.0
5,28.81599998474121,learn,60000.0,Mon Dec 15 2025 14:40:33 GMT-0500 (Eastern Standard Time),747073.1999998093,A,arm,I,m,902,3,2600.0999999046326,744473.0999999046,9024,WL,B,8.0
5,29.381999969482422,learn,60000.0,Mon Dec 15 2025 14:40:33 GMT-0500 (Eastern Standard Time),747639.4000000954,A,armenter,I,enter,546,3,3166.300000190735,744473.0999999046,9024,WL,B,8.0
5,29.931999921798706,learn,60000.0,Mon Dec 15 2025 14:40:33 GMT-0500 (Eastern Standard Time),748189.7999997139,A,w,I,w,543,3,549.8999996185303,747639.9000000954,9024,WL,B,9.0
5,30.299000024795532,learn,60000.0,Mon Dec 15 2025 14:40:33 GMT-0500 (Eastern Standard Time),748556.6999998093,A,wi,I,i,340,3,916.7999997138977,747639.9000000954,9024,WL,B,9.0
5,30.766000032424927,learn,60000.0,Mon Dec 15 2025 14:40:33 GMT-0500 (Eastern Standard Time),749023.2999997139,A,win,I,n,455,3,1383.3999996185303,747639.9000000954,9024,WL,B,9.0
5,31.516000032424927,learn,60000.0,Mon Dec 15 2025 14:40:33 GMT-0500 (Eastern Standard Time),749773.0,A,wind,I,d,740,3,2133.0999999046326,747639.9000000954,9024,WL,B,9.0
5,31.81599998474121,learn,60000.0,Mon Dec 15 2025 14:40:33 GMT-0500 (Eastern Standard Time),750073.2999997139,A,windo,I,o,278,3,2433.3999996185303,747639.9000000954,9024,WL,B,9.0
5,32.33299994468689,learn,60000.0,Mon Dec 15 2025 14:40:33 GMT-0500 (Eastern Standard Time),750589.9000000954,A,window,I,w,506,3,2950.0,747639.9000000954,9024,WL,B,9.0
5,32.781999826431274,learn,60000.0,Mon Dec 15 2025 14:40:33 GMT-0500 (Eastern Standard Time),751039.5,A,windowenter,I,enter,436,3,3399.5999999046326,747639.9000000954,9024,WL,B,9.0
5,34.3989999294281,learn,60000.0,Mon Dec 15 2025 14:40:33 GMT-0500 (Eastern Standard Time),752656.5999999046,A,p,I,p,1607,3,1616.8000001907349,751039.7999997139,9024,WL,B,10.0
5,34.698999881744385,learn,60000.0,Mon Dec 15 2025 14:40:33 GMT-0500 (Eastern Standard Time),752956.6999998093,A,pi,I,i,272,3,1916.9000000953674,751039.7999997139,9024,WL,B,10.0
5,34.99899983406067,learn,60000.0,Mon Dec 15 2025 14:40:33 GMT-0500 (Eastern Standard Time),753256.5999999046,A,pip,I,p,278,3,2216.800000190735,751039.7999997139,9024,WL,B,10.0
5,35.348999977111816,learn,60000.0,Mon Dec 15 2025 14:40:33 GMT-0500 (Eastern Standard Time),753606.5999999046,A,pipi,I,i,330,3,2566.800000190735,751039.7999997139,9024,WL,B,10.0
5,36.16599988937378,learn,60000.0,Mon Dec 15 2025 14:40:33 GMT-0500 (Eastern Standard Time),754423.2999997139,A,pipil,I,l,796,3,3383.5,751039.7999997139,9024,WL,B,10.0
5,36.6489999294281,learn,60000.0,Mon Dec 15 2025 14:40:33 GMT-0500 (Eastern Standard Time),754906.0999999046,A,pipilenter,I,enter,459,3,3866.300000190735,751039.7999997139,9024,WL,B,10.0
5,40.24899983406067,learn,60000.0,Mon Dec 15 2025 14:40:33 GMT-0500 (Eastern Standard Time),758506.7999997139,A,c,I,c,3579,3,3600.2999997138977,754906.5,9024,WL,B,11.0
5,40.532999992370605,learn,60000.0,Mon Dec 15 2025 14:40:33 GMT-0500 (Eastern Standard Time),758789.9000000954,A,ci,I,i,264,3,3883.4000000953674,754906.5,9024,WL,B,11.0
5,40.865999937057495,learn,60000.0,Mon Dec 15 2025 14:40:33 GMT-0500 (Eastern Standard Time),759123.0,A,cit,I,t,318,3,4216.5,754906.5,9024,WL,B,11.0
5,41.13199996948242,learn,60000.0,Mon Dec 15 2025 14:40:33 GMT-0500 (Eastern Standard Time),759389.6999998093,A,city,I,y,249,3,4483.199999809265,754906.5,9024,WL,B,11.0
5,41.681999921798706,learn,60000.0,Mon Dec 15 2025 14:40:33 GMT-0500 (Eastern Standard Time),759939.5,A,cityenter,I,enter,533,3,5033.0,754906.5,9024,WL,B,11.0
5,45.96599984169006,learn,60000.0,Mon Dec 15 2025 14:40:33 GMT-0500 (Eastern Standard Time),764223.2999997139,A,s,I,s,4274,3,4283.5,759939.7999997139,9024,WL,B,12.0
5,46.382999897003174,learn,60000.0,Mon Dec 15 2025 14:40:33 GMT-0500 (Eastern Standard Time),764639.9000000954,A,st,I,t,403,3,4700.10000038147,759939.7999997139,9024,WL,B,12.0
5,46.865999937057495,learn,60000.0,Mon Dec 15 2025 14:40:33 GMT-0500 (Eastern Standard Time),765123.1999998093,A,str,I,r,467,3,5183.400000095367,759939.7999997139,9024,WL,B,12.0
5,47.41599988937378,learn,60000.0,Mon Dec 15 2025 14:40:33 GMT-0500 (Eastern Standard Time),765673.2999997139,A,stre,I,e,528,3,5733.5,759939.7999997139,9024,WL,B,12.0
5,47.615999937057495,learn,60000.0,Mon Dec 15 2025 14:40:33 GMT-0500 (Eastern Standard Time),765873.2999997139,A,stree,I,e,185,3,5933.5,759939.7999997139,9024,WL,B,12.0
5,48.115999937057495,learn,60000.0,Mon Dec 15 2025 14:40:33 GMT-0500 (Eastern Standard Time),766373.2999997139,A,streey,I,y,474,3,6433.5,759939.7999997139,9024,WL,B,12.0
5,49.48300004005432,learn,60000.0,Mon Dec 15 2025 14:40:33 GMT-0500 (Eastern Standard Time),767740.0999999046,A,stree,I,backspace,1341,3,7800.300000190735,759939.7999997139,9024,WL,B,12.0
5,49.782999992370605,learn,60000.0,Mon Dec 15 2025 14:40:33 GMT-0500 (Eastern Standard Time),768040.0,A,street,I,t,279,3,8100.200000286102,759939.7999997139,9024,WL,B,12.0
5,50.06599998474121,learn,60000.0,Mon Dec 15 2025 14:40:33 GMT-0500 (Eastern Standard Time),768322.7999997139,A,streetenter,I,enter,267,3,8383.0,759939.7999997139,9024,WL,B,12.0
5,53.18299984931946,learn,60000.0,Mon Dec 15 2025 14:40:33 GMT-0500 (Eastern Standard Time),771439.9000000954,A,s,I,s,3108,3,3116.800000190735,768323.0999999046,9024,WL,B,13.0
5,53.56599998474121,learn,60000.0,Mon Dec 15 2025 14:40:33 GMT-0500 (Eastern Standard Time),771823.1999998093,A,st,I,t,371,3,3500.0999999046326,768323.0999999046,9024,WL,B,13.0
5,54.04900002479553,learn,60000.0,Mon Dec 15 2025 14:40:33 GMT-0500 (Eastern Standard Time),772306.5999999046,A,sta,I,a,467,3,3983.5,768323.0999999046,9024,WL,B,13.0
5,54.49899983406067,learn,60000.0,Mon Dec 15 2025 14:40:33 GMT-0500 (Eastern Standard Time),772756.5999999046,A,star,I,r,432,3,4433.5,768323.0999999046,9024,WL,B,13.0
5,54.96599984169006,learn,60000.0,Mon Dec 15 2025 14:40:33 GMT-0500 (Eastern Standard Time),773222.7999997139,A,starenter,I,enter,447,3,4899.699999809265,768323.0999999046,9024,WL,B,13.0
5,55.848999977111816,learn,60000.0,Mon Dec 15 2025 14:40:33 GMT-0500 (Eastern Standard Time),774106.4000000954,A,w,I,w,863,3,883.3000001907349,773223.0999999046,9024,WL,B,14.0
5,56.26600003242493,learn,60000.0,Mon Dec 15 2025 14:40:33 GMT-0500 (Eastern Standard Time),774523.2999997139,A,wi,I,i,391,3,1300.1999998092651,773223.0999999046,9024,WL,B,14.0
5,56.68299984931946,learn,60000.0,Mon Dec 15 2025 14:40:33 GMT-0500 (Eastern Standard Time),774940.0,A,wif,I,f,391,3,1716.9000000953674,773223.0999999046,9024,WL,B,14.0
5,57.01600003242493,learn,60000.0,Mon Dec 15 2025 14:40:33 GMT-0500 (Eastern Standard Time),775273.1999998093,A,wifr,I,r,311,3,2050.0999999046326,773223.0999999046,9024,WL,B,14.0
5,57.99899983406067,learn,60000.0,Mon Dec 15 2025 14:40:33 GMT-0500 (Eastern Standard Time),776256.0999999046,A,wifrenter,I,enter,968,3,3033.0,773223.0999999046,9024,WL,B,14.0
5,75.68299984931946,learn,60000.0,Mon Dec 15 2025 14:40:33 GMT-0500 (Eastern Standard Time),793940.0,A,c,I,c,17670,3,17683.5,776256.5,9024,WL,B,15.0
6,2.0840001106262207,distr,57915.99988937378,Mon Dec 15 2025 14:40:33 GMT-0500 (Eastern Standard Time),863539.9000000954,B,b,I,b,2067,3,2082.9000000953674,861457.0,9024,WL,B,1.0
6,2.5329999923706055,distr,57467.000007629395,Mon Dec 15 2025 14:40:33 GMT-0500 (Eastern Standard Time),863989.4000000954,B,ba,I,a,431,3,2532.4000000953674,861457.0,9024,WL,B,1.0
6,3.299999952316284,distr,56700.000047683716,Mon Dec 15 2025 14:40:33 GMT-0500 (Eastern Standard Time),864756.5999999046,B,bab,I,b,752,3,3299.5999999046326,861457.0,9024,WL,B,1.0
6,3.6670000553131104,distr,56332.99994468689,Mon Dec 15 2025 14:40:33 GMT-0500 (Eastern Standard Time),865123.0999999046,B,baby,I,y,351,3,3666.0999999046326,861457.0,9024,WL,B,1.0
6,6.1000001430511475,distr,53899.99985694885,Mon Dec 15 2025 14:40:33 GMT-0500 (Eastern Standard Time),867556.0,B,babyenter,I,enter,2416,3,6099.0,861457.0,9024,WL,B,1.0
6,6.7840001583099365,distr,53215.99984169006,Mon Dec 15 2025 14:40:33 GMT-0500 (Eastern Standard Time),868239.9000000954,B,o,I,o,673,3,683.5,867556.4000000954,9024,WL,B,2.0
6,7.150000095367432,distr,52849.99990463257,Mon Dec 15 2025 14:40:33 GMT-0500 (Eastern Standard Time),868606.5,B,oc,I,c,354,3,1050.0999999046326,867556.4000000954,9024,WL,B,2.0
6,7.516999959945679,distr,52483.00004005432,Mon Dec 15 2025 14:40:33 GMT-0500 (Eastern Standard Time),868973.0999999046,B,oce,I,e,341,3,1416.6999998092651,867556.4000000954,9024,WL,B,2.0
6,7.91700005531311,distr,52082.99994468689,Mon Dec 15 2025 14:40:33 GMT-0500 (Eastern Standard Time),869372.7999997139,B,ocea,I,a,389,3,1816.3999996185303,867556.4000000954,9024,WL,B,2.0
6,8.434000015258789,distr,51565.99998474121,Mon Dec 15 2025 14:40:33 GMT-0500 (Eastern Standard Time),869889.7999997139,B,ocean,I,n,501,3,2333.3999996185303,867556.4000000954,9024,WL,B,2.0
6,8.900000095367432,distr,51099.99990463257,Mon Dec 15 2025 14:40:33 GMT-0500 (Eastern Standard Time),870356.0,B,oceanenter,I,enter,449,3,2799.5999999046326,867556.4000000954,9024,WL,B,2.0
6,10.384000062942505,distr,49615.999937057495,Mon Dec 15 2025 14:40:33 GMT-0500 (Eastern Standard Time),871839.7999997139,B,p,I,p,1475,3,1483.3999996185303,870356.4000000954,9024,WL,B,3.0
6,10.700000047683716,distr,49299.999952316284,Mon Dec 15 2025 14:40:33 GMT-0500 (Eastern Standard Time),872156.5,B,pa,I,a,291,3,1800.0999999046326,870356.4000000954,9024,WL,B,3.0
6,11.299999952316284,distr,48700.000047683716,Mon Dec 15 2025 14:40:33 GMT-0500 (Eastern Standard Time),872756.5,B,pal,I,l,583,3,2400.0999999046326,870356.4000000954,9024,WL,B,3.0
6,11.650000095367432,distr,48349.99990463257,Mon Dec 15 2025 14:40:33 GMT-0500 (Eastern Standard Time),873106.5,B,pala,I,a,334,3,2750.0999999046326,870356.4000000954,9024,WL,B,3.0
6,12.183000087738037,distr,47816.99991226196,Mon Dec 15 2025 14:40:33 GMT-0500 (Eastern Standard Time),873639.7999997139,B,palac,I,c,512,3,3283.3999996185303,870356.4000000954,9024,WL,B,3.0
6,12.534000158309937,distr,47465.99984169006,Mon Dec 15 2025 14:40:33 GMT-0500 (Eastern Standard Time),873989.9000000954,B,palace,I,e,330,3,3633.5,870356.4000000954,9024,WL,B,3.0
6,13.100000143051147,distr,46899.99985694885,Mon Dec 15 2025 14:40:33 GMT-0500 (Eastern Standard Time),874556.0999999046,B,palaceenter,I,enter,557,3,4199.699999809265,870356.4000000954,9024,WL,B,3.0
6,21.549999952316284,distr,38450.000047683716,Mon Dec 15 2025 14:40:33 GMT-0500 (Eastern Standard Time),883006.4000000954,B,o,I,o,8442,3,8450.10000038147,874556.2999997139,9024,WL,B,4.0
6,21.817000150680542,distr,38182.99984931946,Mon Dec 15 2025 14:40:33 GMT-0500 (Eastern Standard Time),883273.0999999046,B,oc,I,c,242,3,8716.800000190735,874556.2999997139,9024,WL,B,4.0
6,22.233999967575073,distr,37766.00003242493,Mon Dec 15 2025 14:40:33 GMT-0500 (Eastern Standard Time),883689.7999997139,B,oce,I,e,394,3,9133.5,874556.2999997139,9024,WL,B,4.0
6,22.850000143051147,distr,37149.99985694885,Mon Dec 15 2025 14:40:33 GMT-0500 (Eastern Standard Time),884306.5,B,ocea,I,a,601,3,9750.200000286102,874556.2999997139,9024,WL,B,4.0
6,24.034000158309937,distr,35965.99984169006,Mon Dec 15 2025 14:40:33 GMT-0500 (Eastern Standard Time),885489.7999997139,B,ocean,I,n,1169,3,10933.5,874556.2999997139,9024,WL,B,4.0
6,24.700000047683716,distr,35299.999952316284,Mon Dec 15 2025 14:40:33 GMT-0500 (Eastern Standard Time),886156.0,B,oceanenter,I,enter,641,3,11599.700000286102,874556.2999997139,9024,WL,B,4.0
6,57.367000102996826,distr,2632.999897003174,Mon Dec 15 2025 14:40:33 GMT-0500 (Eastern Standard Time),918823.1999998093,B,f,I,f,32650,3,32666.900000095367,886156.2999997139,9024,WL,B,5.0
6,57.634000062942505,distr,2365.999937057495,Mon Dec 15 2025 14:40:33 GMT-0500 (Eastern Standard Time),919089.9000000954,B,fl,I,l,251,3,32933.60000038147,886156.2999997139,9024,WL,B,5.0
6,57.93300008773804,distr,2066.999912261963,Mon Dec 15 2025 14:40:33 GMT-0500 (Eastern Standard Time),919389.5,B,flo,I,o,289,3,33233.2000002861,886156.2999997139,9024,WL,B,5.0
6,58.35000014305115,distr,1649.9998569488525,Mon Dec 15 2025 14:40:33 GMT-0500 (Eastern Standard Time),919806.5,B,flow,I,w,404,3,33650.2000002861,886156.2999997139,9024,WL,B,5.0
6,58.700000047683716,distr,1299.9999523162842,Mon Dec 15 2025 14:40:33 GMT-0500 (Eastern Standard Time),920156.5999999046,B,flowe,I,e,340,3,34000.300000190735,886156.2999997139,9024,WL,B,5.0
6,59.01699995994568,distr,983.0000400543213,Mon Dec 15 2025 14:40:33 GMT-0500 (Eastern Standard Time),920473.0999999046,B,flower,I,r,294,3,34316.800000190735,886156.2999997139,9024,WL,B,5.0
6,60.01699995994568,distr,-16.99995994567871,Mon Dec 15 2025 14:40:33 GMT-0500 (Eastern Standard Time),921473.2999997139,B,flowerNone,I,None,989,3,35317.0,886156.2999997139,9024,WL,B,5.0
7,2.2330000400543213,immed,57766.99995994568,Mon Dec 15 2025 14:40:33 GMT-0500 (Eastern Standard Time),933206.5,A,s,I,s,2214,3,2232.9000000953674,930973.5999999046,9024,WL,B,1.0
7,2.616000175476074,immed,57383.999824523926,Mon Dec 15 2025 14:40:33 GMT-0500 (Eastern Standard Time),933589.6999998093,A,st,I,t,364,3,2616.0999999046326,930973.5999999046,9024,WL,B,1.0
7,2.866000175476074,immed,57133.999824523926,Mon Dec 15 2025 14:40:33 GMT-0500 (Eastern Standard Time),933839.7999997139,A,str,I,r,237,3,2866.199999809265,930973.5999999046,9024,WL,B,1.0
7,3.3330001831054688,immed,56666.99981689453,Mon Dec 15 2025 14:40:33 GMT-0500 (Eastern Standard Time),934306.5999999046,A,stre,I,e,449,3,3333.0,930973.5999999046,9024,WL,B,1.0
7,3.5160000324249268,immed,56483.99996757507,Mon Dec 15 2025 14:40:33 GMT-0500 (Eastern Standard Time),934489.7999997139,A,stree,I,e,157,3,3516.199999809265,930973.5999999046,9024,WL,B,1.0
7,3.866000175476074,immed,56133.999824523926,Mon Dec 15 2025 14:40:33 GMT-0500 (Eastern Standard Time),934839.7999997139,A,street,I,t,328,3,3866.199999809265,930973.5999999046,9024,WL,B,1.0
7,4.583000183105469,immed,55416.99981689453,Mon Dec 15 2025 14:40:33 GMT-0500 (Eastern Standard Time),935555.9000000954,A,streetenter,I,enter,699,3,4582.300000190735,930973.5999999046,9024,WL,B,1.0
7,6.950000047683716,immed,53049.999952316284,Mon Dec 15 2025 14:40:33 GMT-0500 (Eastern Standard Time),937923.0,A,g,I,g,2354,3,2366.7000002861023,935556.2999997139,9024,WL,B,2.0
7,8.25,immed,51750.0,Mon Dec 15 2025 14:40:33 GMT-0500 (Eastern Standard Time),939223.0,A,gr,I,r,1280,3,3666.7000002861023,935556.2999997139,9024,WL,B,2.0
7,8.833000183105469,immed,51166.99981689453,Mon Dec 15 2025 14:40:33 GMT-0500 (Eastern Standard Time),939806.2999997139,A,gra,I,a,572,3,4250.0,935556.2999997139,9024,WL,B,2.0
7,9.315999984741211,immed,50684.00001525879,Mon Dec 15 2025 14:40:33 GMT-0500 (Eastern Standard Time),940289.6999998093,A,gras,I,s,468,3,4733.400000095367,935556.2999997139,9024,WL,B,2.0
7,9.532999992370605,immed,50467.000007629395,Mon Dec 15 2025 14:40:33 GMT-0500 (Eastern Standard Time),940506.5,A,grass,I,s,193,3,4950.200000286102,935556.2999997139,9024,WL,B,2.0
7,9.866000175476074,immed,50133.999824523926,Mon Dec 15 2025 14:40:33 GMT-0500 (Eastern Standard Time),940839.2999997139,A,grassenter,I,enter,303,3,5283.0,935556.2999997139,9024,WL,B,2.0
7,13.083000183105469,immed,46916.99981689453,Mon Dec 15 2025 14:40:33 GMT-0500 (Eastern Standard Time),944056.4000000954,A,w,I,w,3199,3,3216.800000190735,940839.5999999046,9024,WL,B,3.0
7,13.366000175476074,immed,46633.999824523926,Mon Dec 15 2025 14:40:33 GMT-0500 (Eastern Standard Time),944339.6999998093,A,wi,I,i,266,3,3500.0999999046326,940839.5999999046,9024,WL,B,3.0
7,14.083000183105469,immed,45916.99981689453,Mon Dec 15 2025 14:40:33 GMT-0500 (Eastern Standard Time),945056.5999999046,A,win,I,n,703,3,4217.0,940839.5999999046,9024,WL,B,3.0
7,14.850000143051147,immed,45149.99985694885,Mon Dec 15 2025 14:40:33 GMT-0500 (Eastern Standard Time),945823.0999999046,A,wind,I,d,753,3,4983.5,940839.5999999046,9024,WL,B,3.0
7,15.266000032424927,immed,44733.99996757507,Mon Dec 15 2025 14:40:33 GMT-0500 (Eastern Standard Time),946239.7999997139,A,windo,I,o,404,3,5400.199999809265,940839.5999999046,9024,WL,B,3.0
7,15.600000143051147,immed,44399.99985694885,Mon Dec 15 2025 14:40:33 GMT-0500 (Eastern Standard Time),946573.0999999046,A,window,I,w,307,3,5733.5,940839.5999999046,9024,WL,B,3.0
7,16.16600012779236,immed,43833.99987220764,Mon Dec 15 2025 14:40:33 GMT-0500 (Eastern Standard Time),947139.2999997139,A,windowenter,I,enter,549,3,6299.699999809265,940839.5999999046,9024,WL,B,3.0
7,17.90000009536743,immed,42099.99990463257,Mon Dec 15 2025 14:40:33 GMT-0500 (Eastern Standard Time),948873.1999998093,A,a,I,a,1715,3,1733.5999999046326,947139.5999999046,9024,WL,B,4.0
7,18.383000135421753,immed,41616.99986457825,Mon Dec 15 2025 14:40:33 GMT-0500 (Eastern Standard Time),949356.4000000954,A,ar,I,r,458,3,2216.800000190735,947139.5999999046,9024,WL,B,4.0
7,19.5,immed,40500.0,Mon Dec 15 2025 14:40:33 GMT-0500 (Eastern Standard Time),950473.0,A,arm,I,m,1093,3,3333.4000000953674,947139.5999999046,9024,WL,B,4.0
7,20.16600012779236,immed,39833.99987220764,Mon Dec 15 2025 14:40:33 GMT-0500 (Eastern Standard Time),951139.1999998093,A,armenter,I,enter,648,3,3999.5999999046326,947139.5999999046,9024,WL,B,4.0
7,22.90000009536743,immed,37099.99990463257,Mon Dec 15 2025 14:40:33 GMT-0500 (Eastern Standard Time),953873.0999999046,A,d,I,d,2723,3,2733.5999999046326,951139.5,9024,WL,B,5.0
7,23.350000143051147,immed,36649.99985694885,Mon Dec 15 2025 14:40:33 GMT-0500 (Eastern Standard Time),954323.0999999046,A,do,I,o,434,3,3183.5999999046326,951139.5,9024,WL,B,5.0
7,23.56599998474121,immed,36434.00001525879,Mon Dec 15 2025 14:40:33 GMT-0500 (Eastern Standard Time),954539.7999997139,A,doo,I,o,192,3,3400.2999997138977,951139.5,9024,WL,B,5.0
7,23.81599998474121,immed,36184.00001525879,Mon Dec 15 2025 14:40:33 GMT-0500 (Eastern Standard Time),954789.9000000954,A,door,I,r,230,3,3650.4000000953674,951139.5,9024,WL,B,5.0
7,24.383000135421753,immed,35616.99986457825,Mon Dec 15 2025 14:40:33 GMT-0500 (Eastern Standard Time),955355.9000000954,A,doorenter,I,enter,541,3,4216.400000095367,951139.5,9024,WL,B,5.0
7,25.282999992370605,immed,34717.000007629395,Mon Dec 15 2025 14:40:33 GMT-0500 (Eastern Standard Time),956256.4000000954,A,c,I,c,890,3,900.2000002861023,955356.1999998093,9024,WL,B,6.0
7,25.58300018310547,immed,34416.99981689453,Mon Dec 15 2025 14:40:33 GMT-0500 (Eastern Standard Time),956556.1999998093,A,ci,I,i,271,3,1200.0,955356.1999998093,9024,WL,B,6.0
7,25.91600012779236,immed,34083.99987220764,Mon Dec 15 2025 14:40:33 GMT-0500 (Eastern Standard Time),956889.6999998093,A,cit,I,t,311,3,1533.5,955356.1999998093,9024,WL,B,6.0
7,26.16600012779236,immed,33833.99987220764,Mon Dec 15 2025 14:40:33 GMT-0500 (Eastern Standard Time),957139.6999998093,A,city,I,y,232,3,1783.5,955356.1999998093,9024,WL,B,6.0
7,26.799000024795532,immed,33200.99997520447,Mon Dec 15 2025 14:40:33 GMT-0500 (Eastern Standard Time),957772.5,A,cityenter,I,enter,623,3,2416.300000190735,955356.1999998093,9024,WL,B,6.0
7,30.450000047683716,immed,29549.999952316284,Mon Dec 15 2025 14:40:33 GMT-0500 (Eastern Standard Time),961423.0,A,a,I,a,3641,3,3650.2000002861023,957772.7999997139,9024,WL,B,7.0
7,31.183000087738037,immed,28816.999912261963,Mon Dec 15 2025 14:40:33 GMT-0500 (Eastern Standard Time),962156.5,A,,I,backspace,708,3,4383.700000286102,957772.7999997139,9024,WL,B,7.0
7,31.683000087738037,immed,28316.999912261963,Mon Dec 15 2025 14:40:33 GMT-0500 (Eastern Standard Time),962656.2999997139,A,c,I,c,487,3,4883.5,957772.7999997139,9024,WL,B,7.0
7,32.032999992370605,immed,27967.000007629395,Mon Dec 15 2025 14:40:33 GMT-0500 (Eastern Standard Time),963006.4000000954,A,ca,I,a,338,3,5233.60000038147,957772.7999997139,9024,WL,B,7.0
7,32.41600012779236,immed,27583.99987220764,Mon Dec 15 2025 14:40:33 GMT-0500 (Eastern Standard Time),963389.5999999046,A,cab,I,b,372,3,5616.800000190735,957772.7999997139,9024,WL,B,7.0
7,32.91700005531311,immed,27082.99994468689,Mon Dec 15 2025 14:40:33 GMT-0500 (Eastern Standard Time),963889.7999997139,A,cabi,I,i,485,3,6117.0,957772.7999997139,9024,WL,B,7.0
7,33.71600008010864,immed,26283.999919891357,Mon Dec 15 2025 14:40:33 GMT-0500 (Eastern Standard Time),964689.6999998093,A,cabin,I,n,786,3,6916.900000095367,957772.7999997139,9024,WL,B,7.0
7,34.29900002479553,immed,25700.999975204468,Mon Dec 15 2025 14:40:33 GMT-0500 (Eastern Standard Time),965272.5999999046,A,cabinenter,I,enter,559,3,7499.800000190735,957772.7999997139,9024,WL,B,7.0
7,34.782999992370605,immed,25217.000007629395,Mon Dec 15 2025 14:40:33 GMT-0500 (Eastern Standard Time),965756.4000000954,A,w,I,w,461,3,483.40000009536743,965273.0,9024,WL,B,8.0
7,35.16600012779236,immed,24833.99987220764,Mon Dec 15 2025 14:40:33 GMT-0500 (Eastern Standard Time),966139.6999998093,A,wi,I,i,359,3,866.6999998092651,965273.0,9024,WL,B,8.0
7,35.532999992370605,immed,24467.000007629395,Mon Dec 15 2025 14:40:33 GMT-0500 (Eastern Standard Time),966506.4000000954,A,wif,I,f,343,3,1233.4000000953674,965273.0,9024,WL,B,8.0
7,35.866000175476074,immed,24133.999824523926,Mon Dec 15 2025 14:40:33 GMT-0500 (Eastern Standard Time),966839.7999997139,A,wife,I,e,312,3,1566.7999997138977,965273.0,9024,WL,B,8.0
7,36.366000175476074,immed,23633.999824523926,Mon Dec 15 2025 14:40:33 GMT-0500 (Eastern Standard Time),967339.2999997139,A,wifeenter,I,enter,475,3,2066.2999997138977,965273.0,9024,WL,B,8.0
7,40.282999992370605,immed,19717.000007629395,Mon Dec 15 2025 14:40:33 GMT-0500 (Eastern Standard Time),971256.4000000954,A,s,I,s,3899,3,3916.800000190735,967339.5999999046,9024,WL,B,9.0
7,41.40000009536743,immed,18599.99990463257,Mon Dec 15 2025 14:40:33 GMT-0500 (Eastern Standard Time),972373.0,A,sk,I,k,1097,3,5033.400000095367,967339.5999999046,9024,WL,B,9.0
7,41.66600012779236,immed,18333.99987220764,Mon Dec 15 2025 14:40:33 GMT-0500 (Eastern Standard Time),972639.6999998093,A,ski,I,i,254,3,5300.099999904633,967339.5999999046,9024,WL,B,9.0
7,42.15000009536743,immed,17849.99990463257,Mon Dec 15 2025 14:40:33 GMT-0500 (Eastern Standard Time),973123.0,A,skin,I,n,467,3,5783.400000095367,967339.5999999046,9024,WL,B,9.0
7,42.63300013542175,immed,17366.999864578247,Mon Dec 15 2025 14:40:33 GMT-0500 (Eastern Standard Time),973605.9000000954,A,skinenter,I,enter,460,3,6266.300000190735,967339.5999999046,9024,WL,B,9.0
7,42.98300004005432,immed,17016.99995994568,Mon Dec 15 2025 14:40:33 GMT-0500 (Eastern Standard Time),973956.4000000954,A,a,I,a,336,3,350.1000003814697,973606.2999997139,9024,WL,B,10.0
7,43.46600008010864,immed,16533.999919891357,Mon Dec 15 2025 14:40:33 GMT-0500 (Eastern Standard Time),974439.5999999046,A,ar,I,r,454,3,833.3000001907349,973606.2999997139,9024,WL,B,10.0
7,43.91600012779236,immed,16083.999872207642,Mon Dec 15 2025 14:40:33 GMT-0500 (Eastern Standard Time),974889.6999998093,A,arm,I,m,428,3,1283.4000000953674,973606.2999997139,9024,WL,B,10.0
7,44.38300013542175,immed,15616.999864578247,Mon Dec 15 2025 14:40:33 GMT-0500 (Eastern Standard Time),975356.0,A,armenter,I,enter,454,3,1749.7000002861023,973606.2999997139,9024,WL,B,10.0
7,46.866000175476074,immed,13133.999824523926,Mon Dec 15 2025 14:40:33 GMT-0500 (Eastern Standard Time),977839.6999998093,A,p,I,p,2474,3,2483.4000000953674,975356.2999997139,9024,WL,B,11.0
7,47.40000009536743,immed,12599.999904632568,Mon Dec 15 2025 14:40:33 GMT-0500 (Eastern Standard Time),978373.0,A,pu,I,u,516,3,3016.7000002861023,975356.2999997139,9024,WL,B,11.0
7,47.782999992370605,immed,12217.000007629395,Mon Dec 15 2025 14:40:33 GMT-0500 (Eastern Standard Time),978756.4000000954,A,pup,I,p,365,3,3400.1000003814697,975356.2999997139,9024,WL,B,11.0
7,48.13300013542175,immed,11866.999864578247,Mon Dec 15 2025 14:40:33 GMT-0500 (Eastern Standard Time),979106.4000000954,A,pupi,I,i,335,3,3750.1000003814697,975356.2999997139,9024,WL,B,11.0
7,49.40000009536743,immed,10599.999904632568,Mon Dec 15 2025 14:40:33 GMT-0500 (Eastern Standard Time),980373.0999999046,A,pup,I,backspace,1249,3,5016.800000190735,975356.2999997139,9024,WL,B,11.0
7,49.73300004005432,immed,10266.999959945679,Mon Dec 15 2025 14:40:33 GMT-0500 (Eastern Standard Time),980706.4000000954,A,pupl,I,l,317,3,5350.10000038147,975356.2999997139,9024,WL,B,11.0
7,50.099000215530396,immed,9900.999784469604,Mon Dec 15 2025 14:40:33 GMT-0500 (Eastern Standard Time),981072.5999999046,A,puplenter,I,enter,353,3,5716.300000190735,975356.2999997139,9024,WL,B,11.0
7,53.23300004005432,immed,6766.999959945679,Mon Dec 15 2025 14:40:33 GMT-0500 (Eastern Standard Time),984206.5,A,p,I,p,3125,3,3133.5999999046326,981072.9000000954,9024,WL,B,12.0
7,53.68300008773804,immed,6316.999912261963,Mon Dec 15 2025 14:40:33 GMT-0500 (Eastern Standard Time),984656.2999997139,A,pi,I,i,436,3,3583.3999996185303,981072.9000000954,9024,WL,B,12.0
7,54.08300018310547,immed,5916.999816894531,Mon Dec 15 2025 14:40:33 GMT-0500 (Eastern Standard Time),985056.4000000954,A,pip,I,p,387,3,3983.5,981072.9000000954,9024,WL,B,12.0
7,54.56599998474121,immed,5434.000015258789,Mon Dec 15 2025 14:40:33 GMT-0500 (Eastern Standard Time),985539.6999998093,A,pipe,I,e,464,3,4466.799999713898,981072.9000000954,9024,WL,B,12.0
7,55.08300018310547,immed,4916.999816894531,Mon Dec 15 2025 14:40:33 GMT-0500 (Eastern Standard Time),986055.9000000954,A,pipeenter,I,enter,495,3,4983.0,981072.9000000954,9024,WL,B,12.0
7,60.01700019836426,immed,-17.000198364257812,Mon Dec 15 2025 14:40:33 GMT-0500 (Eastern Standard Time),990989.9000000954,A,None,I,None,4927,3,4933.700000286102,986056.1999998093,9024,WL,B,13.0
