block_c,block_dur,condition,countdown,datetime,endtime,list,multichar_response,project,response,response_time,session_number,start_end,starttime,subject_id,task,task_vers,trial
,,,,Thu Jul 10 2025 13:34:15 GMT-0400 (Eastern Daylight Time),,,,I,space,836,1,,,9024,WL,C,
prac,,0,,Thu Jul 10 2025 13:34:15 GMT-0400 (Eastern Daylight Time),,NA,b,I,b,6619,1,,,9024,WL,C,1.0
prac,,0,,Thu Jul 10 2025 13:34:15 GMT-0400 (Eastern Daylight Time),,NA,bo,I,o,708,1,,,9024,WL,C,1.0
prac,,0,,Thu Jul 10 2025 13:34:15 GMT-0400 (Eastern Daylight Time),,NA,boo,I,o,230,1,,,9024,WL,C,1.0
prac,,0,,Thu Jul 10 2025 13:34:15 GMT-0400 (Eastern Daylight Time),,NA,boos,I,s,320,1,,,9024,WL,C,1.0
prac,,0,,Thu Jul 10 2025 13:34:15 GMT-0400 (Eastern Daylight Time),,NA,boost,I,t,368,1,,,9024,WL,C,1.0
prac,,0,,Thu Jul 10 2025 13:34:15 GMT-0400 (Eastern Daylight Time),,NA,boostenter,I,enter,1519,1,,,9024,WL,C,1.0
1,2.0,learn,58000.0,Thu Jul 10 2025 13:34:15 GMT-0400 (Eastern Daylight Time),120753.90000000596,A,t,I,t,1978,1,1999.0,118754.90000000596,9024,WL,C,1.0
1,2.25,learn,57750.0,Thu Jul 10 2025 13:34:15 GMT-0400 (Eastern Daylight Time),121003.80000001192,A,to,I,o,228,1,2248.9000000059605,118754.90000000596,9024,WL,C,1.0
1,2.7170000076293945,learn,57282.999992370605,Thu Jul 10 2025 13:34:15 GMT-0400 (Eastern Daylight Time),121470.5,A,toe,I,e,439,1,2715.5999999940395,118754.90000000596,9024,WL,C,1.0
1,3.066999912261963,learn,56933.00008773804,Thu Jul 10 2025 13:34:15 GMT-0400 (Eastern Daylight Time),121820.69999998808,A,toer,I,r,331,1,3065.7999999821186,118754.90000000596,9024,WL,C,1.0
1,4.266999959945679,learn,55733.00004005432,Thu Jul 10 2025 13:34:15 GMT-0400 (Eastern Daylight Time),123020.30000001192,A,toerenter,I,enter,1183,1,4265.4000000059605,118754.90000000596,9024,WL,C,1.0
1,7.41700005531311,learn,52582.99994468689,Thu Jul 10 2025 13:34:15 GMT-0400 (Eastern Daylight Time),126170.5,A,b,I,b,3139,1,3149.699999988079,123020.80000001192,9024,WL,C,2.0
1,7.933000087738037,learn,52066.99991226196,Thu Jul 10 2025 13:34:15 GMT-0400 (Eastern Daylight Time),126686.69999998808,A,bo,I,o,497,1,3665.899999976158,123020.80000001192,9024,WL,C,2.0
1,8.700000047683716,learn,51299.999952316284,Thu Jul 10 2025 13:34:15 GMT-0400 (Eastern Daylight Time),127453.90000000596,A,boy,I,y,753,1,4433.0999999940395,123020.80000001192,9024,WL,C,2.0
1,9.516999959945679,learn,50483.00004005432,Thu Jul 10 2025 13:34:15 GMT-0400 (Eastern Daylight Time),128270.09999999404,A,boyenter,I,enter,798,1,5249.299999982119,123020.80000001192,9024,WL,C,2.0
1,11.299999952316284,learn,48700.000047683716,Thu Jul 10 2025 13:34:15 GMT-0400 (Eastern Daylight Time),130053.80000001192,A,s,I,s,1761,1,1783.1000000238419,128270.69999998808,9024,WL,C,3.0
1,11.634000062942505,learn,48365.999937057495,Thu Jul 10 2025 13:34:15 GMT-0400 (Eastern Daylight Time),130387.19999998808,A,su,I,u,300,1,2116.5,128270.69999998808,9024,WL,C,3.0
1,12.16700005531311,learn,47832.99994468689,Thu Jul 10 2025 13:34:15 GMT-0400 (Eastern Daylight Time),130920.40000000596,A,sug,I,g,521,1,2649.7000000178814,128270.69999998808,9024,WL,C,3.0
1,12.75,learn,47250.0,Thu Jul 10 2025 13:34:15 GMT-0400 (Eastern Daylight Time),131503.90000000596,A,suga,I,a,564,1,3233.2000000178814,128270.69999998808,9024,WL,C,3.0
1,13.266999959945679,learn,46733.00004005432,Thu Jul 10 2025 13:34:15 GMT-0400 (Eastern Daylight Time),132020.09999999404,A,sugar,I,r,494,1,3749.4000000059605,128270.69999998808,9024,WL,C,3.0
1,13.882999897003174,learn,46117.000102996826,Thu Jul 10 2025 13:34:15 GMT-0400 (Eastern Daylight Time),132636.80000001192,A,sugarenter,I,enter,603,1,4366.100000023842,128270.69999998808,9024,WL,C,3.0
1,18.84999990463257,learn,41150.00009536743,Thu Jul 10 2025 13:34:15 GMT-0400 (Eastern Daylight Time),137603.80000001192,A,q,I,q,4947,1,4966.5,132637.30000001192,9024,WL,C,4.0
1,19.26699995994568,learn,40733.00004005432,Thu Jul 10 2025 13:34:15 GMT-0400 (Eastern Daylight Time),138020.59999999404,A,qu,I,u,390,1,5383.299999982119,132637.30000001192,9024,WL,C,4.0
1,19.634000062942505,learn,40365.999937057495,Thu Jul 10 2025 13:34:15 GMT-0400 (Eastern Daylight Time),138387.19999998808,A,que,I,e,345,1,5749.899999976158,132637.30000001192,9024,WL,C,4.0
1,19.867000102996826,learn,40132.999897003174,Thu Jul 10 2025 13:34:15 GMT-0400 (Eastern Daylight Time),138620.5,A,quee,I,e,218,1,5983.199999988079,132637.30000001192,9024,WL,C,4.0
1,20.59999990463257,learn,39400.00009536743,Thu Jul 10 2025 13:34:15 GMT-0400 (Eastern Daylight Time),139353.90000000596,A,queen,I,n,722,1,6716.5999999940395,132637.30000001192,9024,WL,C,4.0
1,21.23300004005432,learn,38766.99995994568,Thu Jul 10 2025 13:34:15 GMT-0400 (Eastern Daylight Time),139986.69999998808,A,queenenter,I,enter,610,1,7349.399999976158,132637.30000001192,9024,WL,C,4.0
1,25.16700005531311,learn,34832.99994468689,Thu Jul 10 2025 13:34:15 GMT-0400 (Eastern Daylight Time),143920.59999999404,A,c,I,c,3917,1,3933.4000000059605,139987.19999998808,9024,WL,C,5.0
1,25.683000087738037,learn,34316.99991226196,Thu Jul 10 2025 13:34:15 GMT-0400 (Eastern Daylight Time),144437.0,A,ca,I,a,491,1,4449.800000011921,139987.19999998808,9024,WL,C,5.0
1,26.233999967575073,learn,33766.00003242493,Thu Jul 10 2025 13:34:15 GMT-0400 (Eastern Daylight Time),144987.19999998808,A,can,I,n,536,1,5000.0,139987.19999998808,9024,WL,C,5.0
1,27.384000062942505,learn,32615.999937057495,Thu Jul 10 2025 13:34:15 GMT-0400 (Eastern Daylight Time),146137.19999998808,A,ca,I,backspace,1137,1,6150.0,139987.19999998808,9024,WL,C,5.0
1,30.967000007629395,learn,29032.999992370605,Thu Jul 10 2025 13:34:15 GMT-0400 (Eastern Daylight Time),149720.40000000596,A,cam,I,m,3572,1,9733.200000017881,139987.19999998808,9024,WL,C,5.0
1,31.634000062942505,learn,28365.999937057495,Thu Jul 10 2025 13:34:15 GMT-0400 (Eastern Daylight Time),150387.19999998808,A,camp,I,p,644,1,10400.0,139987.19999998808,9024,WL,C,5.0
1,32.799999952316284,learn,27200.000047683716,Thu Jul 10 2025 13:34:15 GMT-0400 (Eastern Daylight Time),151553.5,A,campenter,I,enter,1144,1,11566.300000011921,139987.19999998808,9024,WL,C,5.0
1,60.01699995994568,learn,-16.99995994567871,Thu Jul 10 2025 13:34:15 GMT-0400 (Eastern Daylight Time),178770.80000001192,A,None,I,None,27210,1,27216.90000000596,151553.90000000596,9024,WL,C,6.0
2,1.566999912261963,learn,58433.00008773804,Thu Jul 10 2025 13:34:15 GMT-0400 (Eastern Daylight Time),256820.30000001192,A,t,I,t,1544,1,1566.1000000238419,255254.19999998808,9024,WL,C,1.0
2,1.8659999370574951,learn,58134.000062942505,Thu Jul 10 2025 13:34:15 GMT-0400 (Eastern Daylight Time),257120.0,A,to,I,o,278,1,1865.800000011921,255254.19999998808,9024,WL,C,1.0
2,3.049999952316284,learn,56950.000047683716,Thu Jul 10 2025 13:34:15 GMT-0400 (Eastern Daylight Time),258304.0,A,tow,I,w,1168,1,3049.800000011921,255254.19999998808,9024,WL,C,1.0
2,3.450000047683716,learn,56549.999952316284,Thu Jul 10 2025 13:34:15 GMT-0400 (Eastern Daylight Time),258703.90000000596,A,towe,I,e,381,1,3449.7000000178814,255254.19999998808,9024,WL,C,1.0
2,3.7170000076293945,learn,56282.999992370605,Thu Jul 10 2025 13:34:15 GMT-0400 (Eastern Daylight Time),258970.59999999404,A,tower,I,r,253,1,3716.4000000059605,255254.19999998808,9024,WL,C,1.0
2,4.5,learn,55500.0,Thu Jul 10 2025 13:34:15 GMT-0400 (Eastern Daylight Time),259753.59999999404,A,towerenter,I,enter,767,1,4499.4000000059605,255254.19999998808,9024,WL,C,1.0
2,5.450000047683716,learn,54549.999952316284,Thu Jul 10 2025 13:34:15 GMT-0400 (Eastern Daylight Time),260703.90000000596,A,s,I,s,935,1,949.7000000178814,259754.19999998808,9024,WL,C,2.0
2,5.83299994468689,learn,54167.00005531311,Thu Jul 10 2025 13:34:15 GMT-0400 (Eastern Daylight Time),261086.90000000596,A,su,I,u,365,1,1332.7000000178814,259754.19999998808,9024,WL,C,2.0
2,6.200000047683716,learn,53799.999952316284,Thu Jul 10 2025 13:34:15 GMT-0400 (Eastern Daylight Time),261453.90000000596,A,sug,I,g,349,1,1699.7000000178814,259754.19999998808,9024,WL,C,2.0
2,6.733999967575073,learn,53266.00003242493,Thu Jul 10 2025 13:34:15 GMT-0400 (Eastern Daylight Time),261987.19999998808,A,suga,I,a,512,1,2233.0,259754.19999998808,9024,WL,C,2.0
2,7.134000062942505,learn,52865.999937057495,Thu Jul 10 2025 13:34:15 GMT-0400 (Eastern Daylight Time),262387.40000000596,A,sugar,I,r,370,1,2633.2000000178814,259754.19999998808,9024,WL,C,2.0
2,7.599999904632568,learn,52400.00009536743,Thu Jul 10 2025 13:34:15 GMT-0400 (Eastern Daylight Time),262853.5,A,sugarenter,I,enter,441,1,3099.300000011921,259754.19999998808,9024,WL,C,2.0
2,8.650000095367432,learn,51349.99990463257,Thu Jul 10 2025 13:34:15 GMT-0400 (Eastern Daylight Time),263903.6999999881,A,w,I,w,1033,1,1049.699999988079,262854.0,9024,WL,C,3.0
2,9.016999959945679,learn,50983.00004005432,Thu Jul 10 2025 13:34:15 GMT-0400 (Eastern Daylight Time),264270.6999999881,A,wh,I,h,347,1,1416.699999988079,262854.0,9024,WL,C,3.0
2,9.349999904632568,learn,50650.00009536743,Thu Jul 10 2025 13:34:15 GMT-0400 (Eastern Daylight Time),264603.40000000596,A,whe,I,e,307,1,1749.4000000059605,262854.0,9024,WL,C,3.0
2,9.783999919891357,learn,50216.00008010864,Thu Jul 10 2025 13:34:15 GMT-0400 (Eastern Daylight Time),265037.3000000119,A,whea,I,a,418,1,2183.300000011921,262854.0,9024,WL,C,3.0
2,10.200999975204468,learn,49799.00002479553,Thu Jul 10 2025 13:34:15 GMT-0400 (Eastern Daylight Time),265454.09999999404,A,wheat,I,t,401,1,2600.0999999940395,262854.0,9024,WL,C,3.0
2,10.733000040054321,learn,49266.99995994568,Thu Jul 10 2025 13:34:15 GMT-0400 (Eastern Daylight Time),265986.8000000119,A,wheatenter,I,enter,510,1,3132.800000011921,262854.0,9024,WL,C,3.0
2,12.16700005531311,learn,47832.99994468689,Thu Jul 10 2025 13:34:15 GMT-0400 (Eastern Daylight Time),267420.5,A,q,I,q,1422,1,1433.199999988079,265987.3000000119,9024,WL,C,4.0
2,12.884000062942505,learn,47115.999937057495,Thu Jul 10 2025 13:34:15 GMT-0400 (Eastern Daylight Time),268137.3000000119,A,qu,I,u,702,1,2150.0,265987.3000000119,9024,WL,C,4.0
2,13.266999959945679,learn,46733.00004005432,Thu Jul 10 2025 13:34:15 GMT-0400 (Eastern Daylight Time),268520.5,A,que,I,e,371,1,2533.199999988079,265987.3000000119,9024,WL,C,4.0
2,13.5,learn,46500.0,Thu Jul 10 2025 13:34:15 GMT-0400 (Eastern Daylight Time),268754.0,A,quee,I,e,211,1,2766.699999988079,265987.3000000119,9024,WL,C,4.0
2,13.91700005531311,learn,46082.99994468689,Thu Jul 10 2025 13:34:15 GMT-0400 (Eastern Daylight Time),269170.8000000119,A,queen,I,n,386,1,3183.5,265987.3000000119,9024,WL,C,4.0
2,14.433000087738037,learn,45566.99991226196,Thu Jul 10 2025 13:34:15 GMT-0400 (Eastern Daylight Time),269686.6999999881,A,queenenter,I,enter,490,1,3699.399999976158,265987.3000000119,9024,WL,C,4.0
2,15.799999952316284,learn,44200.000047683716,Thu Jul 10 2025 13:34:15 GMT-0400 (Eastern Daylight Time),271053.90000000596,A,b,I,b,1354,1,1366.800000011921,269687.09999999404,9024,WL,C,5.0
2,16.367000102996826,learn,43632.999897003174,Thu Jul 10 2025 13:34:15 GMT-0400 (Eastern Daylight Time),271620.59999999404,A,bo,I,o,542,1,1933.5,269687.09999999404,9024,WL,C,5.0
2,17.26699995994568,learn,42733.00004005432,Thu Jul 10 2025 13:34:15 GMT-0400 (Eastern Daylight Time),272520.5,A,boy,I,y,886,1,2833.4000000059605,269687.09999999404,9024,WL,C,5.0
2,17.799999952316284,learn,42200.000047683716,Thu Jul 10 2025 13:34:15 GMT-0400 (Eastern Daylight Time),273053.59999999404,A,boyenter,I,enter,515,1,3366.5,269687.09999999404,9024,WL,C,5.0
2,19.26699995994568,learn,40733.00004005432,Thu Jul 10 2025 13:34:15 GMT-0400 (Eastern Daylight Time),274520.5,A,d,I,d,1459,1,1466.5999999940395,273053.90000000596,9024,WL,C,6.0
2,19.566999912261963,learn,40433.00008773804,Thu Jul 10 2025 13:34:15 GMT-0400 (Eastern Daylight Time),274820.3000000119,A,do,I,o,277,1,1766.4000000059605,273053.90000000596,9024,WL,C,6.0
2,19.882999897003174,learn,40117.000102996826,Thu Jul 10 2025 13:34:15 GMT-0400 (Eastern Daylight Time),275136.90000000596,A,doc,I,c,297,1,2083.0,273053.90000000596,9024,WL,C,6.0
2,20.316999912261963,learn,39683.00008773804,Thu Jul 10 2025 13:34:15 GMT-0400 (Eastern Daylight Time),275570.6999999881,A,doct,I,t,415,1,2516.7999999821186,273053.90000000596,9024,WL,C,6.0
2,20.700999975204468,learn,39299.00002479553,Thu Jul 10 2025 13:34:15 GMT-0400 (Eastern Daylight Time),275954.0,A,docto,I,o,363,1,2900.0999999940395,273053.90000000596,9024,WL,C,6.0
2,21.08400011062622,learn,38915.99988937378,Thu Jul 10 2025 13:34:15 GMT-0400 (Eastern Daylight Time),276337.09999999404,A,doctor,I,r,364,1,3283.199999988079,273053.90000000596,9024,WL,C,6.0
2,22.217000007629395,learn,37782.999992370605,Thu Jul 10 2025 13:34:15 GMT-0400 (Eastern Daylight Time),277470.1999999881,A,doctorenter,I,enter,1116,1,4416.299999982119,273053.90000000596,9024,WL,C,6.0
2,24.33299994468689,learn,35667.00005531311,Thu Jul 10 2025 13:34:15 GMT-0400 (Eastern Daylight Time),279586.90000000596,A,q,I,q,2097,1,2116.300000011921,277470.59999999404,9024,WL,C,7.0
2,24.617000102996826,learn,35382.999897003174,Thu Jul 10 2025 13:34:15 GMT-0400 (Eastern Daylight Time),279870.5,A,qu,I,u,269,1,2399.9000000059605,277470.59999999404,9024,WL,C,7.0
2,24.967000007629395,learn,35032.999992370605,Thu Jul 10 2025 13:34:15 GMT-0400 (Eastern Daylight Time),280220.59999999404,A,que,I,e,333,1,2750.0,277470.59999999404,9024,WL,C,7.0
2,25.200999975204468,learn,34799.00002479553,Thu Jul 10 2025 13:34:15 GMT-0400 (Eastern Daylight Time),280454.09999999404,A,quee,I,e,203,1,2983.5,277470.59999999404,9024,WL,C,7.0
2,25.467000007629395,learn,34532.999992370605,Thu Jul 10 2025 13:34:15 GMT-0400 (Eastern Daylight Time),280720.59999999404,A,queen,I,n,247,1,3250.0,277470.59999999404,9024,WL,C,7.0
2,26.032999992370605,learn,33967.000007629395,Thu Jul 10 2025 13:34:15 GMT-0400 (Eastern Daylight Time),281286.8000000119,A,queenenter,I,enter,541,1,3816.2000000178814,277470.59999999404,9024,WL,C,7.0
2,27.634000062942505,learn,32365.999937057495,Thu Jul 10 2025 13:34:15 GMT-0400 (Eastern Daylight Time),282887.40000000596,A,b,I,b,1577,1,1600.300000011921,281287.09999999404,9024,WL,C,8.0
2,28.217000007629395,learn,31782.999992370605,Thu Jul 10 2025 13:34:15 GMT-0400 (Eastern Daylight Time),283470.90000000596,A,bo,I,o,566,1,2183.800000011921,281287.09999999404,9024,WL,C,8.0
2,28.66700005531311,learn,31332.99994468689,Thu Jul 10 2025 13:34:15 GMT-0400 (Eastern Daylight Time),283920.59999999404,A,boy,I,y,428,1,2633.5,281287.09999999404,9024,WL,C,8.0
2,29.26699995994568,learn,30733.00004005432,Thu Jul 10 2025 13:34:15 GMT-0400 (Eastern Daylight Time),284520.1999999881,A,boyenter,I,enter,588,1,3233.0999999940395,281287.09999999404,9024,WL,C,8.0
2,30.25,learn,29750.0,Thu Jul 10 2025 13:34:15 GMT-0400 (Eastern Daylight Time),285504.0,A,l,I,l,968,1,983.5,284520.5,9024,WL,C,9.0
2,30.533999919891357,learn,29466.000080108643,Thu Jul 10 2025 13:34:15 GMT-0400 (Eastern Daylight Time),285787.3000000119,A,le,I,e,268,1,1266.800000011921,284520.5,9024,WL,C,9.0
2,31.000999927520752,learn,28999.000072479248,Thu Jul 10 2025 13:34:15 GMT-0400 (Eastern Daylight Time),286254.3000000119,A,let,I,t,446,1,1733.800000011921,284520.5,9024,WL,C,9.0
2,31.200000047683716,learn,28799.999952316284,Thu Jul 10 2025 13:34:15 GMT-0400 (Eastern Daylight Time),286454.0,A,lett,I,t,177,1,1933.5,284520.5,9024,WL,C,9.0
2,31.59999990463257,learn,28400.00009536743,Thu Jul 10 2025 13:34:15 GMT-0400 (Eastern Daylight Time),286853.90000000596,A,lette,I,e,366,1,2333.4000000059605,284520.5,9024,WL,C,9.0
2,31.91700005531311,learn,28082.99994468689,Thu Jul 10 2025 13:34:15 GMT-0400 (Eastern Daylight Time),287170.5,A,letter,I,r,287,1,2650.0,284520.5,9024,WL,C,9.0
2,32.450000047683716,learn,27549.999952316284,Thu Jul 10 2025 13:34:15 GMT-0400 (Eastern Daylight Time),287703.5,A,letterenter,I,enter,514,1,3183.0,284520.5,9024,WL,C,9.0
2,36.68300008773804,learn,23316.999912261963,Thu Jul 10 2025 13:34:15 GMT-0400 (Eastern Daylight Time),291937.0,A,f,I,f,4216,1,4233.0999999940395,287703.90000000596,9024,WL,C,10.0
2,36.91700005531311,learn,23082.99994468689,Thu Jul 10 2025 13:34:15 GMT-0400 (Eastern Daylight Time),292170.09999999404,A,fl,I,l,219,1,4466.199999988079,287703.90000000596,9024,WL,C,10.0
2,37.25099992752075,learn,22749.000072479248,Thu Jul 10 2025 13:34:15 GMT-0400 (Eastern Daylight Time),292504.09999999404,A,fla,I,a,327,1,4800.199999988079,287703.90000000596,9024,WL,C,10.0
2,37.73399996757507,learn,22266.000032424927,Thu Jul 10 2025 13:34:15 GMT-0400 (Eastern Daylight Time),292987.3000000119,A,flag,I,g,471,1,5283.4000000059605,287703.90000000596,9024,WL,C,10.0
2,38.18300008773804,learn,21816.999912261963,Thu Jul 10 2025 13:34:15 GMT-0400 (Eastern Daylight Time),293436.90000000596,A,flagenter,I,enter,428,1,5733.0,287703.90000000596,9024,WL,C,10.0
2,49.799999952316284,learn,10200.000047683716,Thu Jul 10 2025 13:34:15 GMT-0400 (Eastern Daylight Time),305053.90000000596,A,w,I,w,11604,1,11616.59999999404,293437.3000000119,9024,WL,C,11.0
2,50.06699991226196,learn,9933.000087738037,Thu Jul 10 2025 13:34:15 GMT-0400 (Eastern Daylight Time),305320.1999999881,A,wh,I,h,255,1,11882.899999976158,293437.3000000119,9024,WL,C,11.0
2,50.26699995994568,learn,9733.000040054321,Thu Jul 10 2025 13:34:15 GMT-0400 (Eastern Daylight Time),305520.59999999404,A,whe,I,e,184,1,12083.299999982119,293437.3000000119,9024,WL,C,11.0
2,50.717000007629395,learn,9282.999992370605,Thu Jul 10 2025 13:34:15 GMT-0400 (Eastern Daylight Time),305970.59999999404,A,whea,I,a,431,1,12533.299999982119,293437.3000000119,9024,WL,C,11.0
2,51.23300004005432,learn,8766.999959945679,Thu Jul 10 2025 13:34:15 GMT-0400 (Eastern Daylight Time),306487.0,A,wheay,I,y,491,1,13049.699999988079,293437.3000000119,9024,WL,C,11.0
2,52.09999990463257,learn,7900.000095367432,Thu Jul 10 2025 13:34:15 GMT-0400 (Eastern Daylight Time),307353.40000000596,A,whea,I,backspace,851,1,13916.09999999404,293437.3000000119,9024,WL,C,11.0
2,52.34999990463257,learn,7650.000095367432,Thu Jul 10 2025 13:34:15 GMT-0400 (Eastern Daylight Time),307603.59999999404,A,wheat,I,t,229,1,14166.299999982119,293437.3000000119,9024,WL,C,11.0
2,52.782999992370605,learn,7217.0000076293945,Thu Jul 10 2025 13:34:15 GMT-0400 (Eastern Daylight Time),308036.90000000596,A,wheatenter,I,enter,410,1,14599.59999999404,293437.3000000119,9024,WL,C,11.0
2,59.367000102996826,learn,632.9998970031738,Thu Jul 10 2025 13:34:15 GMT-0400 (Eastern Daylight Time),314620.6999999881,A,d,I,d,6572,1,6583.399999976158,308037.3000000119,9024,WL,C,12.0
2,59.700000047683716,learn,299.9999523162842,Thu Jul 10 2025 13:34:15 GMT-0400 (Eastern Daylight Time),314953.90000000596,A,do,I,o,318,1,6916.5999999940395,308037.3000000119,9024,WL,C,12.0
2,60.03399991989136,learn,-33.99991989135742,Thu Jul 10 2025 13:34:15 GMT-0400 (Eastern Daylight Time),315287.3000000119,A,doNone,I,None,315,1,7250.0,308037.3000000119,9024,WL,C,12.0
3,2.6670000553131104,learn,57332.99994468689,Thu Jul 10 2025 13:34:15 GMT-0400 (Eastern Daylight Time),394720.8000000119,A,t,I,t,2649,1,2666.5,392054.3000000119,9024,WL,C,1.0
3,3.049999952316284,learn,56950.000047683716,Thu Jul 10 2025 13:34:15 GMT-0400 (Eastern Daylight Time),395104.0,A,to,I,o,363,1,3049.699999988079,392054.3000000119,9024,WL,C,1.0
3,3.3340001106262207,learn,56665.99988937378,Thu Jul 10 2025 13:34:15 GMT-0400 (Eastern Daylight Time),395387.3000000119,A,tow,I,w,269,1,3333.0,392054.3000000119,9024,WL,C,1.0
3,3.634000062942505,learn,56365.999937057495,Thu Jul 10 2025 13:34:15 GMT-0400 (Eastern Daylight Time),395687.3000000119,A,towe,I,e,272,1,3633.0,392054.3000000119,9024,WL,C,1.0
3,3.9000000953674316,learn,56099.99990463257,Thu Jul 10 2025 13:34:15 GMT-0400 (Eastern Daylight Time),395954.0,A,tower,I,r,245,1,3899.699999988079,392054.3000000119,9024,WL,C,1.0
3,5.2829999923706055,learn,54717.000007629395,Thu Jul 10 2025 13:34:15 GMT-0400 (Eastern Daylight Time),397336.8000000119,A,towerenter,I,enter,1361,1,5282.5,392054.3000000119,9024,WL,C,1.0
3,6.150000095367432,learn,53849.99990463257,Thu Jul 10 2025 13:34:15 GMT-0400 (Eastern Daylight Time),398203.3000000119,A,s,I,s,855,1,866.2000000178814,397337.09999999404,9024,WL,C,2.0
3,6.433000087738037,learn,53566.99991226196,Thu Jul 10 2025 13:34:15 GMT-0400 (Eastern Daylight Time),398486.59999999404,A,su,I,u,260,1,1149.5,397337.09999999404,9024,WL,C,2.0
3,6.867000102996826,learn,53132.999897003174,Thu Jul 10 2025 13:34:15 GMT-0400 (Eastern Daylight Time),398920.40000000596,A,sug,I,g,426,1,1583.300000011921,397337.09999999404,9024,WL,C,2.0
3,7.483000040054321,learn,52516.99995994568,Thu Jul 10 2025 13:34:15 GMT-0400 (Eastern Daylight Time),399536.59999999404,A,suga,I,a,591,1,2199.5,397337.09999999404,9024,WL,C,2.0
3,7.8500001430511475,learn,52149.99985694885,Thu Jul 10 2025 13:34:15 GMT-0400 (Eastern Daylight Time),399903.40000000596,A,sugar,I,r,351,1,2566.300000011921,397337.09999999404,9024,WL,C,2.0
3,8.433000087738037,learn,51566.99991226196,Thu Jul 10 2025 13:34:15 GMT-0400 (Eastern Daylight Time),400486.59999999404,A,sugarenter,I,enter,575,1,3149.5,397337.09999999404,9024,WL,C,2.0
3,9.115999937057495,learn,50884.000062942505,Thu Jul 10 2025 13:34:15 GMT-0400 (Eastern Daylight Time),401170.0,A,c,I,c,666,1,683.0999999940395,400486.90000000596,9024,WL,C,3.0
3,9.5,learn,50500.0,Thu Jul 10 2025 13:34:15 GMT-0400 (Eastern Daylight Time),401553.6999999881,A,ca,I,a,367,1,1066.7999999821186,400486.90000000596,9024,WL,C,3.0
3,9.983000040054321,learn,50016.99995994568,Thu Jul 10 2025 13:34:15 GMT-0400 (Eastern Daylight Time),402036.59999999404,A,cat,I,t,453,1,1549.699999988079,400486.90000000596,9024,WL,C,3.0
3,10.200000047683716,learn,49799.999952316284,Thu Jul 10 2025 13:34:15 GMT-0400 (Eastern Daylight Time),402253.40000000596,A,catt,I,t,203,1,1766.5,400486.90000000596,9024,WL,C,3.0
3,10.467000007629395,learn,49532.999992370605,Thu Jul 10 2025 13:34:15 GMT-0400 (Eastern Daylight Time),402520.0,A,cattl,I,l,258,1,2033.0999999940395,400486.90000000596,9024,WL,C,3.0
3,10.766999959945679,learn,49233.00004005432,Thu Jul 10 2025 13:34:15 GMT-0400 (Eastern Daylight Time),402820.1999999881,A,cattle,I,e,280,1,2333.2999999821186,400486.90000000596,9024,WL,C,3.0
3,11.200000047683716,learn,48799.999952316284,Thu Jul 10 2025 13:34:15 GMT-0400 (Eastern Daylight Time),403253.59999999404,A,cattleenter,I,enter,411,1,2766.699999988079,400486.90000000596,9024,WL,C,3.0
3,11.83400011062622,learn,48165.99988937378,Thu Jul 10 2025 13:34:15 GMT-0400 (Eastern Daylight Time),403887.0,A,s,I,s,618,1,633.0,403254.0,9024,WL,C,4.0
3,12.08400011062622,learn,47915.99988937378,Thu Jul 10 2025 13:34:15 GMT-0400 (Eastern Daylight Time),404137.1999999881,A,sh,I,h,238,1,883.1999999880791,403254.0,9024,WL,C,4.0
3,12.58400011062622,learn,47415.99988937378,Thu Jul 10 2025 13:34:15 GMT-0400 (Eastern Daylight Time),404637.3000000119,A,sho,I,o,484,1,1383.300000011921,403254.0,9024,WL,C,4.0
3,12.83299994468689,learn,47167.00005531311,Thu Jul 10 2025 13:34:15 GMT-0400 (Eastern Daylight Time),404886.90000000596,A,shor,I,r,231,1,1632.9000000059605,403254.0,9024,WL,C,4.0
3,13.117000102996826,learn,46882.999897003174,Thu Jul 10 2025 13:34:15 GMT-0400 (Eastern Daylight Time),405170.59999999404,A,shore,I,e,266,1,1916.5999999940395,403254.0,9024,WL,C,4.0
3,13.534000158309937,learn,46465.99984169006,Thu Jul 10 2025 13:34:15 GMT-0400 (Eastern Daylight Time),405587.5,A,shoreenter,I,enter,394,1,2333.5,403254.0,9024,WL,C,4.0
3,14.233999967575073,learn,45766.00003242493,Thu Jul 10 2025 13:34:15 GMT-0400 (Eastern Daylight Time),406287.1999999881,A,b,I,b,685,1,699.3999999761581,405587.8000000119,9024,WL,C,5.0
3,14.733999967575073,learn,45266.00003242493,Thu Jul 10 2025 13:34:15 GMT-0400 (Eastern Daylight Time),406787.40000000596,A,bo,I,o,479,1,1199.5999999940395,405587.8000000119,9024,WL,C,5.0
3,15.25,learn,44750.0,Thu Jul 10 2025 13:34:15 GMT-0400 (Eastern Daylight Time),407303.6999999881,A,boy,I,y,497,1,1715.8999999761581,405587.8000000119,9024,WL,C,5.0
3,15.733999967575073,learn,44266.00003242493,Thu Jul 10 2025 13:34:15 GMT-0400 (Eastern Daylight Time),407787.0,A,boyenter,I,enter,468,1,2199.199999988079,405587.8000000119,9024,WL,C,5.0
3,16.233999967575073,learn,43766.00003242493,Thu Jul 10 2025 13:34:15 GMT-0400 (Eastern Daylight Time),408287.3000000119,A,q,I,q,486,1,499.90000000596046,407787.40000000596,9024,WL,C,6.0
3,16.551000118255615,learn,43448.999881744385,Thu Jul 10 2025 13:34:15 GMT-0400 (Eastern Daylight Time),408604.0,A,qu,I,u,301,1,816.5999999940395,407787.40000000596,9024,WL,C,6.0
3,16.917999982833862,learn,43082.00001716614,Thu Jul 10 2025 13:34:15 GMT-0400 (Eastern Daylight Time),408971.1999999881,A,que,I,e,348,1,1183.7999999821186,407787.40000000596,9024,WL,C,6.0
3,17.134000062942505,learn,42865.999937057495,Thu Jul 10 2025 13:34:15 GMT-0400 (Eastern Daylight Time),409187.5,A,quee,I,e,197,1,1400.0999999940395,407787.40000000596,9024,WL,C,6.0
3,17.43400001525879,learn,42565.99998474121,Thu Jul 10 2025 13:34:15 GMT-0400 (Eastern Daylight Time),409487.40000000596,A,queen,I,n,273,1,1700.0,407787.40000000596,9024,WL,C,6.0
3,17.91700005531311,learn,42082.99994468689,Thu Jul 10 2025 13:34:15 GMT-0400 (Eastern Daylight Time),409970.1999999881,A,queenenter,I,enter,461,1,2182.7999999821186,407787.40000000596,9024,WL,C,6.0
3,18.8510000705719,learn,41148.9999294281,Thu Jul 10 2025 13:34:15 GMT-0400 (Eastern Daylight Time),410904.1999999881,A,d,I,d,926,1,933.5999999940395,409970.59999999404,9024,WL,C,7.0
3,19.1010000705719,learn,40898.9999294281,Thu Jul 10 2025 13:34:15 GMT-0400 (Eastern Daylight Time),411154.09999999404,A,dp,I,p,231,1,1183.5,409970.59999999404,9024,WL,C,7.0
3,20.100000143051147,learn,39899.99985694885,Thu Jul 10 2025 13:34:15 GMT-0400 (Eastern Daylight Time),412154.09999999404,A,dpc,I,c,988,1,2183.5,409970.59999999404,9024,WL,C,7.0
3,20.551000118255615,learn,39448.999881744385,Thu Jul 10 2025 13:34:15 GMT-0400 (Eastern Daylight Time),412604.09999999404,A,dpct,I,t,436,1,2633.5,409970.59999999404,9024,WL,C,7.0
3,20.867000102996826,learn,39132.999897003174,Thu Jul 10 2025 13:34:15 GMT-0400 (Eastern Daylight Time),412920.40000000596,A,dpcto,I,o,304,1,2949.800000011921,409970.59999999404,9024,WL,C,7.0
3,21.41700005531311,learn,38582.99994468689,Thu Jul 10 2025 13:34:15 GMT-0400 (Eastern Daylight Time),413471.0,A,dpctoe,I,e,524,1,3500.4000000059605,409970.59999999404,9024,WL,C,7.0
3,22.217000007629395,learn,37782.999992370605,Thu Jul 10 2025 13:34:15 GMT-0400 (Eastern Daylight Time),414270.8000000119,A,dpcto,I,backspace,783,1,4300.200000017881,409970.59999999404,9024,WL,C,7.0
3,22.534000158309937,learn,37465.99984169006,Thu Jul 10 2025 13:34:15 GMT-0400 (Eastern Daylight Time),414587.40000000596,A,dpctor,I,r,304,1,4616.800000011921,409970.59999999404,9024,WL,C,7.0
3,22.817000150680542,learn,37182.99984931946,Thu Jul 10 2025 13:34:15 GMT-0400 (Eastern Daylight Time),414870.1999999881,A,dpctorenter,I,enter,258,1,4899.5999999940395,409970.59999999404,9024,WL,C,7.0
3,23.384000062942505,learn,36615.999937057495,Thu Jul 10 2025 13:34:15 GMT-0400 (Eastern Daylight Time),415437.3000000119,A,n,I,n,555,1,566.8000000119209,414870.5,9024,WL,C,8.0
3,23.651000022888184,learn,36348.99997711182,Thu Jul 10 2025 13:34:15 GMT-0400 (Eastern Daylight Time),415704.0,A,na,I,a,250,1,833.5,414870.5,9024,WL,C,8.0
3,24.034000158309937,learn,35965.99984169006,Thu Jul 10 2025 13:34:15 GMT-0400 (Eastern Daylight Time),416087.40000000596,A,nai,I,i,357,1,1216.9000000059605,414870.5,9024,WL,C,8.0
3,24.350000143051147,learn,35649.99985694885,Thu Jul 10 2025 13:34:15 GMT-0400 (Eastern Daylight Time),416403.90000000596,A,nail,I,l,295,1,1533.4000000059605,414870.5,9024,WL,C,8.0
3,24.83299994468689,learn,35167.00005531311,Thu Jul 10 2025 13:34:15 GMT-0400 (Eastern Daylight Time),416886.90000000596,A,nailenter,I,enter,471,1,2016.4000000059605,414870.5,9024,WL,C,8.0
3,25.467000007629395,learn,34532.999992370605,Thu Jul 10 2025 13:34:15 GMT-0400 (Eastern Daylight Time),417520.6999999881,A,h,I,h,618,1,633.5,416887.1999999881,9024,WL,C,9.0
3,25.93400001525879,learn,34065.99998474121,Thu Jul 10 2025 13:34:15 GMT-0400 (Eastern Daylight Time),417987.3000000119,A,ho,I,o,432,1,1100.1000000238419,416887.1999999881,9024,WL,C,9.0
3,26.317000150680542,learn,33682.99984931946,Thu Jul 10 2025 13:34:15 GMT-0400 (Eastern Daylight Time),418370.6999999881,A,hom,I,m,354,1,1483.5,416887.1999999881,9024,WL,C,9.0
3,26.66700005531311,learn,33332.99994468689,Thu Jul 10 2025 13:34:15 GMT-0400 (Eastern Daylight Time),418720.8000000119,A,home,I,e,332,1,1833.6000000238419,416887.1999999881,9024,WL,C,9.0
3,27.034000158309937,learn,32965.99984169006,Thu Jul 10 2025 13:34:15 GMT-0400 (Eastern Daylight Time),419087.0,A,homeenter,I,enter,339,1,2199.800000011921,416887.1999999881,9024,WL,C,9.0
3,29.40000009536743,learn,30599.99990463257,Thu Jul 10 2025 13:34:15 GMT-0400 (Eastern Daylight Time),421453.90000000596,A,w,I,w,2354,1,2366.5,419087.40000000596,9024,WL,C,10.0
3,29.634000062942505,learn,30365.999937057495,Thu Jul 10 2025 13:34:15 GMT-0400 (Eastern Daylight Time),421687.90000000596,A,wh,I,h,224,1,2600.5,419087.40000000596,9024,WL,C,10.0
3,29.93400001525879,learn,30065.99998474121,Thu Jul 10 2025 13:34:15 GMT-0400 (Eastern Daylight Time),421987.40000000596,A,whe,I,e,279,1,2900.0,419087.40000000596,9024,WL,C,10.0
3,30.401000022888184,learn,29598.999977111816,Thu Jul 10 2025 13:34:15 GMT-0400 (Eastern Daylight Time),422454.1999999881,A,whea,I,a,442,1,3366.7999999821186,419087.40000000596,9024,WL,C,10.0
3,30.867000102996826,learn,29132.999897003174,Thu Jul 10 2025 13:34:15 GMT-0400 (Eastern Daylight Time),422920.5,A,wheat,I,t,454,1,3833.0999999940395,419087.40000000596,9024,WL,C,10.0
3,31.26699995994568,learn,28733.00004005432,Thu Jul 10 2025 13:34:15 GMT-0400 (Eastern Daylight Time),423320.3000000119,A,wheatenter,I,enter,382,1,4232.9000000059605,419087.40000000596,9024,WL,C,10.0
3,31.733999967575073,learn,28266.000032424927,Thu Jul 10 2025 13:34:15 GMT-0400 (Eastern Daylight Time),423787.09999999404,A,s,I,s,456,1,466.40000000596046,423320.6999999881,9024,WL,C,11.0
3,32.01699995994568,learn,27983.00004005432,Thu Jul 10 2025 13:34:15 GMT-0400 (Eastern Daylight Time),424070.8000000119,A,su,I,u,262,1,750.1000000238419,423320.6999999881,9024,WL,C,11.0
3,32.367000102996826,learn,27632.999897003174,Thu Jul 10 2025 13:34:15 GMT-0400 (Eastern Daylight Time),424420.6999999881,A,sug,I,g,319,1,1100.0,423320.6999999881,9024,WL,C,11.0
3,32.83400011062622,learn,27165.99988937378,Thu Jul 10 2025 13:34:15 GMT-0400 (Eastern Daylight Time),424887.90000000596,A,suga,I,a,455,1,1567.2000000178814,423320.6999999881,9024,WL,C,11.0
3,33.217000007629395,learn,26782.999992370605,Thu Jul 10 2025 13:34:15 GMT-0400 (Eastern Daylight Time),425270.6999999881,A,sugar,I,r,357,1,1950.0,423320.6999999881,9024,WL,C,11.0
3,33.51699995994568,learn,26483.00004005432,Thu Jul 10 2025 13:34:15 GMT-0400 (Eastern Daylight Time),425570.1999999881,A,sugarenter,I,enter,279,1,2249.5,423320.6999999881,9024,WL,C,11.0
3,39.28400015830994,learn,20715.999841690063,Thu Jul 10 2025 13:34:15 GMT-0400 (Eastern Daylight Time),431337.40000000596,A,l,I,l,5759,1,5766.9000000059605,425570.5,9024,WL,C,12.0
3,39.549999952316284,learn,20450.000047683716,Thu Jul 10 2025 13:34:15 GMT-0400 (Eastern Daylight Time),431604.0,A,le,I,e,236,1,6033.5,425570.5,9024,WL,C,12.0
3,39.91700005531311,learn,20082.99994468689,Thu Jul 10 2025 13:34:15 GMT-0400 (Eastern Daylight Time),431970.90000000596,A,let,I,t,338,1,6400.4000000059605,425570.5,9024,WL,C,12.0
3,40.134000062942505,learn,19865.999937057495,Thu Jul 10 2025 13:34:15 GMT-0400 (Eastern Daylight Time),432187.5,A,lett,I,t,204,1,6617.0,425570.5,9024,WL,C,12.0
3,40.43499994277954,learn,19565.00005722046,Thu Jul 10 2025 13:34:15 GMT-0400 (Eastern Daylight Time),432488.5,A,lette,I,e,282,1,6918.0,425570.5,9024,WL,C,12.0
3,40.73399996757507,learn,19266.000032424927,Thu Jul 10 2025 13:34:15 GMT-0400 (Eastern Daylight Time),432787.3000000119,A,letter,I,r,277,1,7216.800000011921,425570.5,9024,WL,C,12.0
3,41.01699995994568,learn,18983.00004005432,Thu Jul 10 2025 13:34:15 GMT-0400 (Eastern Daylight Time),433070.09999999404,A,letterenter,I,enter,266,1,7499.5999999940395,425570.5,9024,WL,C,12.0
3,43.717000007629395,learn,16282.999992370605,Thu Jul 10 2025 13:34:15 GMT-0400 (Eastern Daylight Time),435770.6999999881,A,c,I,c,2691,1,2700.199999988079,433070.5,9024,WL,C,13.0
3,44.134000062942505,learn,15865.999937057495,Thu Jul 10 2025 13:34:15 GMT-0400 (Eastern Daylight Time),436187.0,A,ca,I,a,401,1,3116.5,433070.5,9024,WL,C,13.0
3,44.65000009536743,learn,15349.999904632568,Thu Jul 10 2025 13:34:15 GMT-0400 (Eastern Daylight Time),436703.5,A,cat,I,t,501,1,3633.0,433070.5,9024,WL,C,13.0
3,44.85000014305115,learn,15149.999856948853,Thu Jul 10 2025 13:34:15 GMT-0400 (Eastern Daylight Time),436904.0,A,catt,I,t,193,1,3833.5,433070.5,9024,WL,C,13.0
3,45.08400011062622,learn,14915.99988937378,Thu Jul 10 2025 13:34:15 GMT-0400 (Eastern Daylight Time),437137.3000000119,A,cattl,I,l,216,1,4066.800000011921,433070.5,9024,WL,C,13.0
3,45.35000014305115,learn,14649.999856948853,Thu Jul 10 2025 13:34:15 GMT-0400 (Eastern Daylight Time),437404.0,A,cattle,I,e,251,1,4333.5,433070.5,9024,WL,C,13.0
3,45.782999992370605,learn,14217.000007629395,Thu Jul 10 2025 13:34:15 GMT-0400 (Eastern Daylight Time),437836.6999999881,A,cattleenter,I,enter,415,1,4766.199999988079,433070.5,9024,WL,C,13.0
3,52.33400011062622,learn,7665.999889373779,Thu Jul 10 2025 13:34:15 GMT-0400 (Eastern Daylight Time),444387.59999999404,A,w,I,w,6532,1,6550.5,437837.09999999404,9024,WL,C,14.0
3,52.78400015830994,learn,7215.9998416900635,Thu Jul 10 2025 13:34:15 GMT-0400 (Eastern Daylight Time),444837.40000000596,A,wh,I,h,426,1,7000.300000011921,437837.09999999404,9024,WL,C,14.0
3,53.032999992370605,learn,6967.0000076293945,Thu Jul 10 2025 13:34:15 GMT-0400 (Eastern Daylight Time),445087.0,A,whe,I,e,233,1,7249.9000000059605,437837.09999999404,9024,WL,C,14.0
3,53.5,learn,6500.0,Thu Jul 10 2025 13:34:15 GMT-0400 (Eastern Daylight Time),445553.59999999404,A,whea,I,a,449,1,7716.5,437837.09999999404,9024,WL,C,14.0
3,53.967000007629395,learn,6032.9999923706055,Thu Jul 10 2025 13:34:15 GMT-0400 (Eastern Daylight Time),446020.09999999404,A,wheat,I,t,446,1,8183.0,437837.09999999404,9024,WL,C,14.0
3,54.367000102996826,learn,5632.999897003174,Thu Jul 10 2025 13:34:15 GMT-0400 (Eastern Daylight Time),446420.3000000119,A,wheatenter,I,enter,380,1,8583.200000017881,437837.09999999404,9024,WL,C,14.0
3,60.01699995994568,learn,-16.99995994567871,Thu Jul 10 2025 13:34:15 GMT-0400 (Eastern Daylight Time),452070.8000000119,A,None,I,None,5644,1,5650.100000023842,446420.6999999881,9024,WL,C,15.0
4,2.0829999446868896,learn,57917.00005531311,Thu Jul 10 2025 13:34:15 GMT-0400 (Eastern Daylight Time),529053.599999994,A,enter,I,enter,2068,1,2082.5,526971.099999994,9024,WL,C,1.0
4,5.33299994468689,learn,54667.00005531311,Thu Jul 10 2025 13:34:15 GMT-0400 (Eastern Daylight Time),532303.900000006,A,s,I,s,3234,1,3249.9000000059605,529054.0,9024,WL,C,2.0
4,6.266999959945679,learn,53733.00004005432,Thu Jul 10 2025 13:34:15 GMT-0400 (Eastern Daylight Time),533237.5,A,sh,I,h,910,1,4183.5,529054.0,9024,WL,C,2.0
4,6.75,learn,53250.0,Thu Jul 10 2025 13:34:15 GMT-0400 (Eastern Daylight Time),533720.400000006,A,sho,I,o,466,1,4666.4000000059605,529054.0,9024,WL,C,2.0
4,7.117000102996826,learn,52882.999897003174,Thu Jul 10 2025 13:34:15 GMT-0400 (Eastern Daylight Time),534087.599999994,A,shor,I,r,343,1,5033.5999999940395,529054.0,9024,WL,C,2.0
4,7.382999897003174,learn,52617.000102996826,Thu Jul 10 2025 13:34:15 GMT-0400 (Eastern Daylight Time),534354.0,A,shore,I,e,247,1,5300.0,529054.0,9024,WL,C,2.0
4,7.7170000076293945,learn,52282.999992370605,Thu Jul 10 2025 13:34:15 GMT-0400 (Eastern Daylight Time),534687.0,A,shoreenter,I,enter,314,1,5633.0,529054.0,9024,WL,C,2.0
4,8.434000015258789,learn,51565.99998474121,Thu Jul 10 2025 13:34:15 GMT-0400 (Eastern Daylight Time),535404.099999994,A,c,I,c,706,1,716.6999999880791,534687.400000006,9024,WL,C,3.0
4,8.849999904632568,learn,51150.00009536743,Thu Jul 10 2025 13:34:15 GMT-0400 (Eastern Daylight Time),535820.8000000119,A,ca,I,a,401,1,1133.4000000059605,534687.400000006,9024,WL,C,3.0
4,9.733000040054321,learn,50266.99995994568,Thu Jul 10 2025 13:34:15 GMT-0400 (Eastern Daylight Time),536704.099999994,A,cam,I,m,865,1,2016.699999988079,534687.400000006,9024,WL,C,3.0
4,10.233999967575073,learn,49766.00003242493,Thu Jul 10 2025 13:34:15 GMT-0400 (Eastern Daylight Time),537204.099999994,A,camp,I,p,476,1,2516.699999988079,534687.400000006,9024,WL,C,3.0
4,10.717000007629395,learn,49282.999992370605,Thu Jul 10 2025 13:34:15 GMT-0400 (Eastern Daylight Time),537687.0,A,campenter,I,enter,455,1,2999.5999999940395,534687.400000006,9024,WL,C,3.0
4,11.400000095367432,learn,48599.99990463257,Thu Jul 10 2025 13:34:15 GMT-0400 (Eastern Daylight Time),538370.6999999881,A,c,I,c,665,1,683.2999999821186,537687.400000006,9024,WL,C,4.0
4,11.83400011062622,learn,48165.99988937378,Thu Jul 10 2025 13:34:15 GMT-0400 (Eastern Daylight Time),538804.1999999881,A,ca,I,a,406,1,1116.7999999821186,537687.400000006,9024,WL,C,4.0
4,12.33299994468689,learn,47667.00005531311,Thu Jul 10 2025 13:34:15 GMT-0400 (Eastern Daylight Time),539303.599999994,A,cat,I,t,489,1,1616.199999988079,537687.400000006,9024,WL,C,4.0
4,12.566999912261963,learn,47433.00008773804,Thu Jul 10 2025 13:34:15 GMT-0400 (Eastern Daylight Time),539537.400000006,A,catt,I,t,216,1,1850.0,537687.400000006,9024,WL,C,4.0
4,12.799999952316284,learn,47200.000047683716,Thu Jul 10 2025 13:34:15 GMT-0400 (Eastern Daylight Time),539770.400000006,A,cattl,I,l,218,1,2083.0,537687.400000006,9024,WL,C,4.0
4,13.184000015258789,learn,46815.99998474121,Thu Jul 10 2025 13:34:15 GMT-0400 (Eastern Daylight Time),540154.099999994,A,cattle,I,e,374,1,2466.699999988079,537687.400000006,9024,WL,C,4.0
4,13.599999904632568,learn,46400.00009536743,Thu Jul 10 2025 13:34:15 GMT-0400 (Eastern Daylight Time),540570.400000006,A,cattleenter,I,enter,403,1,2883.0,537687.400000006,9024,WL,C,4.0
4,15.049999952316284,learn,44950.000047683716,Thu Jul 10 2025 13:34:15 GMT-0400 (Eastern Daylight Time),542020.5,A,c,I,c,1429,1,1449.800000011921,540570.6999999881,9024,WL,C,5.0
4,15.467000007629395,learn,44532.999992370605,Thu Jul 10 2025 13:34:15 GMT-0400 (Eastern Daylight Time),542437.599999994,A,ca,I,a,395,1,1866.9000000059605,540570.6999999881,9024,WL,C,5.0
4,15.766999959945679,learn,44233.00004005432,Thu Jul 10 2025 13:34:15 GMT-0400 (Eastern Daylight Time),542737.0,A,can,I,n,281,1,2166.300000011921,540570.6999999881,9024,WL,C,5.0
4,18.18400001525879,learn,41815.99998474121,Thu Jul 10 2025 13:34:15 GMT-0400 (Eastern Daylight Time),545154.0,A,ca,I,backspace,2400,1,4583.300000011921,540570.6999999881,9024,WL,C,5.0
4,18.782999992370605,learn,41217.000007629395,Thu Jul 10 2025 13:34:15 GMT-0400 (Eastern Daylight Time),545753.599999994,A,can,I,n,587,1,5182.9000000059605,540570.6999999881,9024,WL,C,5.0
4,19.450000047683716,learn,40549.999952316284,Thu Jul 10 2025 13:34:15 GMT-0400 (Eastern Daylight Time),546420.599999994,A,ca,I,backspace,647,1,5849.9000000059605,540570.6999999881,9024,WL,C,5.0
4,19.950000047683716,learn,40049.999952316284,Thu Jul 10 2025 13:34:15 GMT-0400 (Eastern Daylight Time),546920.400000006,A,cam,I,m,489,1,6349.700000017881,540570.6999999881,9024,WL,C,5.0
4,20.450000047683716,learn,39549.999952316284,Thu Jul 10 2025 13:34:15 GMT-0400 (Eastern Daylight Time),547420.900000006,A,camp,I,p,490,1,6850.200000017881,540570.6999999881,9024,WL,C,5.0
4,20.91700005531311,learn,39082.99994468689,Thu Jul 10 2025 13:34:15 GMT-0400 (Eastern Daylight Time),547887.099999994,A,campenter,I,enter,447,1,7316.4000000059605,540570.6999999881,9024,WL,C,5.0
4,21.733999967575073,learn,38266.00003242493,Thu Jul 10 2025 13:34:15 GMT-0400 (Eastern Daylight Time),548704.099999994,A,b,I,b,802,1,816.6999999880791,547887.400000006,9024,WL,C,6.0
4,22.816999912261963,learn,37183.00008773804,Thu Jul 10 2025 13:34:15 GMT-0400 (Eastern Daylight Time),549787.599999994,A,bo,I,o,1070,1,1900.199999988079,547887.400000006,9024,WL,C,6.0
4,24.09999990463257,learn,35900.00009536743,Thu Jul 10 2025 13:34:15 GMT-0400 (Eastern Daylight Time),551071.0,A,bod,I,d,1264,1,3183.5999999940395,547887.400000006,9024,WL,C,6.0
4,24.384000062942505,learn,35615.999937057495,Thu Jul 10 2025 13:34:15 GMT-0400 (Eastern Daylight Time),551354.099999994,A,body,I,y,270,1,3466.699999988079,547887.400000006,9024,WL,C,6.0
4,24.933000087738037,learn,35066.99991226196,Thu Jul 10 2025 13:34:15 GMT-0400 (Eastern Daylight Time),551903.6999999881,A,bodyenter,I,enter,531,1,4016.2999999821186,547887.400000006,9024,WL,C,6.0
4,25.967000007629395,learn,34032.999992370605,Thu Jul 10 2025 13:34:15 GMT-0400 (Eastern Daylight Time),552937.5,A,t,I,t,1025,1,1033.5,551904.0,9024,WL,C,7.0
4,26.26699995994568,learn,33733.00004005432,Thu Jul 10 2025 13:34:15 GMT-0400 (Eastern Daylight Time),553237.5,A,to,I,o,277,1,1333.5,551904.0,9024,WL,C,7.0
4,26.84999990463257,learn,33150.00009536743,Thu Jul 10 2025 13:34:15 GMT-0400 (Eastern Daylight Time),553820.8000000119,A,tow,I,w,559,1,1916.800000011921,551904.0,9024,WL,C,7.0
4,27.200000047683716,learn,32799.999952316284,Thu Jul 10 2025 13:34:15 GMT-0400 (Eastern Daylight Time),554170.900000006,A,towe,I,e,338,1,2266.9000000059605,551904.0,9024,WL,C,7.0
4,27.483999967575073,learn,32516.000032424927,Thu Jul 10 2025 13:34:15 GMT-0400 (Eastern Daylight Time),554454.1999999881,A,tower,I,r,258,1,2550.199999988079,551904.0,9024,WL,C,7.0
4,27.98300004005432,learn,32016.99995994568,Thu Jul 10 2025 13:34:15 GMT-0400 (Eastern Daylight Time),554953.8000000119,A,towerenter,I,enter,483,1,3049.800000011921,551904.0,9024,WL,C,7.0
4,28.43400001525879,learn,31565.99998474121,Thu Jul 10 2025 13:34:15 GMT-0400 (Eastern Daylight Time),555404.099999994,A,s,I,s,439,1,450.0,554954.099999994,9024,WL,C,8.0
4,28.83400011062622,learn,31165.99988937378,Thu Jul 10 2025 13:34:15 GMT-0400 (Eastern Daylight Time),555804.099999994,A,su,I,u,386,1,850.0,554954.099999994,9024,WL,C,8.0
4,29.33400011062622,learn,30665.99988937378,Thu Jul 10 2025 13:34:15 GMT-0400 (Eastern Daylight Time),556304.1999999881,A,sug,I,g,481,1,1350.0999999940395,554954.099999994,9024,WL,C,8.0
4,29.75,learn,30250.0,Thu Jul 10 2025 13:34:15 GMT-0400 (Eastern Daylight Time),556720.900000006,A,suga,I,a,389,1,1766.800000011921,554954.099999994,9024,WL,C,8.0
4,30.134000062942505,learn,29865.999937057495,Thu Jul 10 2025 13:34:15 GMT-0400 (Eastern Daylight Time),557104.099999994,A,sugar,I,r,366,1,2150.0,554954.099999994,9024,WL,C,8.0
4,30.549999952316284,learn,29450.000047683716,Thu Jul 10 2025 13:34:15 GMT-0400 (Eastern Daylight Time),557520.400000006,A,sugarenter,I,enter,398,1,2566.300000011921,554954.099999994,9024,WL,C,8.0
4,31.15000009536743,learn,28849.99990463257,Thu Jul 10 2025 13:34:15 GMT-0400 (Eastern Daylight Time),558120.599999994,A,w,I,w,592,1,599.9000000059605,557520.6999999881,9024,WL,C,9.0
4,31.566999912261963,learn,28433.000087738037,Thu Jul 10 2025 13:34:15 GMT-0400 (Eastern Daylight Time),558537.5,A,wh,I,h,404,1,1016.8000000119209,557520.6999999881,9024,WL,C,9.0
4,31.799999952316284,learn,28200.000047683716,Thu Jul 10 2025 13:34:15 GMT-0400 (Eastern Daylight Time),558770.900000006,A,whe,I,e,210,1,1250.2000000178814,557520.6999999881,9024,WL,C,9.0
4,32.25,learn,27750.0,Thu Jul 10 2025 13:34:15 GMT-0400 (Eastern Daylight Time),559220.6999999881,A,whea,I,a,427,1,1700.0,557520.6999999881,9024,WL,C,9.0
4,32.700000047683716,learn,27299.999952316284,Thu Jul 10 2025 13:34:15 GMT-0400 (Eastern Daylight Time),559670.900000006,A,wheat,I,t,426,1,2150.2000000178814,557520.6999999881,9024,WL,C,9.0
4,33.132999897003174,learn,26867.000102996826,Thu Jul 10 2025 13:34:15 GMT-0400 (Eastern Daylight Time),560103.900000006,A,wheatenter,I,enter,422,1,2583.2000000178814,557520.6999999881,9024,WL,C,9.0
4,36.5,learn,23500.0,Thu Jul 10 2025 13:34:15 GMT-0400 (Eastern Daylight Time),563470.900000006,A,h,I,h,3353,1,3366.5999999940395,560104.3000000119,9024,WL,C,10.0
4,37.28399991989136,learn,22716.000080108643,Thu Jul 10 2025 13:34:15 GMT-0400 (Eastern Daylight Time),564254.1999999881,A,ho,I,o,758,1,4149.899999976158,560104.3000000119,9024,WL,C,10.0
4,38.31699991226196,learn,21683.000087738037,Thu Jul 10 2025 13:34:15 GMT-0400 (Eastern Daylight Time),565288.0,A,hom,I,m,1021,1,5183.699999988079,560104.3000000119,9024,WL,C,10.0
4,38.59999990463257,learn,21400.00009536743,Thu Jul 10 2025 13:34:15 GMT-0400 (Eastern Daylight Time),565570.8000000119,A,home,I,e,262,1,5466.5,560104.3000000119,9024,WL,C,10.0
4,41.115999937057495,learn,18884.000062942505,Thu Jul 10 2025 13:34:15 GMT-0400 (Eastern Daylight Time),568087.0,A,homeenter,I,enter,2490,1,7982.699999988079,560104.3000000119,9024,WL,C,10.0
4,41.799999952316284,learn,18200.000047683716,Thu Jul 10 2025 13:34:15 GMT-0400 (Eastern Daylight Time),568770.599999994,A,b,I,b,666,1,683.1999999880791,568087.400000006,9024,WL,C,11.0
4,42.34999990463257,learn,17650.00009536743,Thu Jul 10 2025 13:34:15 GMT-0400 (Eastern Daylight Time),569320.6999999881,A,bo,I,o,540,1,1233.2999999821186,568087.400000006,9024,WL,C,11.0
4,42.967000007629395,learn,17032.999992370605,Thu Jul 10 2025 13:34:15 GMT-0400 (Eastern Daylight Time),569937.5,A,boy,I,y,596,1,1850.0999999940395,568087.400000006,9024,WL,C,11.0
4,43.59999990463257,learn,16400.00009536743,Thu Jul 10 2025 13:34:15 GMT-0400 (Eastern Daylight Time),570570.3000000119,A,boyenter,I,enter,621,1,2482.9000000059605,568087.400000006,9024,WL,C,11.0
4,47.65000009536743,learn,12349.999904632568,Thu Jul 10 2025 13:34:15 GMT-0400 (Eastern Daylight Time),574620.900000006,A,c,I,c,4038,1,4050.2000000178814,570570.6999999881,9024,WL,C,12.0
4,48.0,learn,12000.0,Thu Jul 10 2025 13:34:15 GMT-0400 (Eastern Daylight Time),574970.8000000119,A,ca,I,a,336,1,4400.100000023842,570570.6999999881,9024,WL,C,12.0
4,48.51699995994568,learn,11483.000040054321,Thu Jul 10 2025 13:34:15 GMT-0400 (Eastern Daylight Time),575487.599999994,A,cat,I,t,500,1,4916.9000000059605,570570.6999999881,9024,WL,C,12.0
4,48.73399996757507,learn,11266.000032424927,Thu Jul 10 2025 13:34:15 GMT-0400 (Eastern Daylight Time),575704.1999999881,A,catt,I,t,206,1,5133.5,570570.6999999881,9024,WL,C,12.0
4,49.08400011062622,learn,10915.99988937378,Thu Jul 10 2025 13:34:15 GMT-0400 (Eastern Daylight Time),576054.3000000119,A,cattl,I,l,325,1,5483.600000023842,570570.6999999881,9024,WL,C,12.0
4,49.41700005531311,learn,10582.99994468689,Thu Jul 10 2025 13:34:15 GMT-0400 (Eastern Daylight Time),576387.599999994,A,cattle,I,e,311,1,5816.9000000059605,570570.6999999881,9024,WL,C,12.0
4,49.950000047683716,learn,10049.999952316284,Thu Jul 10 2025 13:34:15 GMT-0400 (Eastern Daylight Time),576920.400000006,A,cattleenter,I,enter,521,1,6349.700000017881,570570.6999999881,9024,WL,C,12.0
4,52.049999952316284,learn,7950.000047683716,Thu Jul 10 2025 13:34:15 GMT-0400 (Eastern Daylight Time),579020.900000006,A,q,I,q,2089,1,2100.2000000178814,576920.6999999881,9024,WL,C,13.0
4,52.382999897003174,learn,7617.000102996826,Thu Jul 10 2025 13:34:15 GMT-0400 (Eastern Daylight Time),579353.6999999881,A,qu,I,u,312,1,2433.0,576920.6999999881,9024,WL,C,13.0
4,52.78399991989136,learn,7216.000080108643,Thu Jul 10 2025 13:34:15 GMT-0400 (Eastern Daylight Time),579754.099999994,A,que,I,e,391,1,2833.4000000059605,576920.6999999881,9024,WL,C,13.0
4,53.01699995994568,learn,6983.000040054321,Thu Jul 10 2025 13:34:15 GMT-0400 (Eastern Daylight Time),579987.400000006,A,quee,I,e,212,1,3066.7000000178814,576920.6999999881,9024,WL,C,13.0
4,53.450000047683716,learn,6549.999952316284,Thu Jul 10 2025 13:34:15 GMT-0400 (Eastern Daylight Time),580420.900000006,A,queen,I,n,403,1,3500.2000000178814,576920.6999999881,9024,WL,C,13.0
4,54.032999992370605,learn,5967.0000076293945,Thu Jul 10 2025 13:34:15 GMT-0400 (Eastern Daylight Time),581003.8000000119,A,queenenter,I,enter,569,1,4083.100000023842,576920.6999999881,9024,WL,C,13.0
4,55.467000007629395,learn,4532.9999923706055,Thu Jul 10 2025 13:34:15 GMT-0400 (Eastern Daylight Time),582437.1999999881,A,b,I,b,1411,1,1433.0,581004.1999999881,9024,WL,C,14.0
4,59.06699991226196,learn,933.0000877380371,Thu Jul 10 2025 13:34:15 GMT-0400 (Eastern Daylight Time),586037.599999994,A,,I,backspace,3576,1,5033.4000000059605,581004.1999999881,9024,WL,C,14.0
4,60.01699995994568,learn,-16.99995994567871,Thu Jul 10 2025 13:34:15 GMT-0400 (Eastern Daylight Time),586987.8000000119,A,None,I,None,941,1,5983.600000023842,581004.1999999881,9024,WL,C,14.0
5,1.9170000553131104,learn,60000.0,Thu Jul 10 2025 13:34:15 GMT-0400 (Eastern Daylight Time),663337.8000000119,A,l,I,l,1906,1,1916.300000011921,661421.5,9024,WL,C,1.0
5,3.184000015258789,learn,60000.0,Thu Jul 10 2025 13:34:15 GMT-0400 (Eastern Daylight Time),664604.099999994,A,le,I,e,1252,1,3182.5999999940395,661421.5,9024,WL,C,1.0
5,3.615999937057495,learn,60000.0,Thu Jul 10 2025 13:34:15 GMT-0400 (Eastern Daylight Time),665036.900000006,A,let,I,t,408,1,3615.4000000059605,661421.5,9024,WL,C,1.0
5,4.299999952316284,learn,60000.0,Thu Jul 10 2025 13:34:15 GMT-0400 (Eastern Daylight Time),665721.0,A,lett,I,t,677,1,4299.5,661421.5,9024,WL,C,1.0
5,4.766999959945679,learn,60000.0,Thu Jul 10 2025 13:34:15 GMT-0400 (Eastern Daylight Time),666187.599999994,A,lette,I,e,448,1,4766.0999999940395,661421.5,9024,WL,C,1.0
5,5.0329999923706055,learn,60000.0,Thu Jul 10 2025 13:34:15 GMT-0400 (Eastern Daylight Time),666453.6999999881,A,letter,I,r,242,1,5032.199999988079,661421.5,9024,WL,C,1.0
5,5.41700005531311,learn,60000.0,Thu Jul 10 2025 13:34:15 GMT-0400 (Eastern Daylight Time),666837.099999994,A,letterenter,I,enter,363,1,5415.5999999940395,661421.5,9024,WL,C,1.0
5,6.566999912261963,learn,60000.0,Thu Jul 10 2025 13:34:15 GMT-0400 (Eastern Daylight Time),667987.5,A,s,I,s,1131,1,1150.0,666837.5,9024,WL,C,2.0
5,7.6499998569488525,learn,60000.0,Thu Jul 10 2025 13:34:15 GMT-0400 (Eastern Daylight Time),669070.900000006,A,sh,I,h,1064,1,2233.4000000059605,666837.5,9024,WL,C,2.0
5,8.283999919891357,learn,60000.0,Thu Jul 10 2025 13:34:15 GMT-0400 (Eastern Daylight Time),669704.3000000119,A,sho,I,o,625,1,2866.800000011921,666837.5,9024,WL,C,2.0
5,8.60099983215332,learn,60000.0,Thu Jul 10 2025 13:34:15 GMT-0400 (Eastern Daylight Time),670021.1999999881,A,shor,I,r,292,1,3183.699999988079,666837.5,9024,WL,C,2.0
5,8.91700005531311,learn,60000.0,Thu Jul 10 2025 13:34:15 GMT-0400 (Eastern Daylight Time),670337.599999994,A,shore,I,e,296,1,3500.0999999940395,666837.5,9024,WL,C,2.0
5,9.33299994468689,learn,60000.0,Thu Jul 10 2025 13:34:15 GMT-0400 (Eastern Daylight Time),670753.900000006,A,shoreenter,I,enter,397,1,3916.4000000059605,666837.5,9024,WL,C,2.0
5,10.016999959945679,learn,60000.0,Thu Jul 10 2025 13:34:15 GMT-0400 (Eastern Daylight Time),671437.5,A,f,I,f,672,1,683.3000000119209,670754.1999999881,9024,WL,C,3.0
5,10.349999904632568,learn,60000.0,Thu Jul 10 2025 13:34:15 GMT-0400 (Eastern Daylight Time),671771.0,A,fl,I,l,320,1,1016.8000000119209,670754.1999999881,9024,WL,C,3.0
5,10.717000007629395,learn,60000.0,Thu Jul 10 2025 13:34:15 GMT-0400 (Eastern Daylight Time),672137.8000000119,A,fla,I,a,347,1,1383.6000000238419,670754.1999999881,9024,WL,C,3.0
5,11.733999967575073,learn,60000.0,Thu Jul 10 2025 13:34:15 GMT-0400 (Eastern Daylight Time),673154.099999994,A,flag,I,g,996,1,2399.9000000059605,670754.1999999881,9024,WL,C,3.0
5,12.16700005531311,learn,60000.0,Thu Jul 10 2025 13:34:15 GMT-0400 (Eastern Daylight Time),673587.1999999881,A,flagenter,I,enter,410,1,2833.0,670754.1999999881,9024,WL,C,3.0
5,12.66700005531311,learn,60000.0,Thu Jul 10 2025 13:34:15 GMT-0400 (Eastern Daylight Time),674087.400000006,A,c,I,c,479,1,500.0,673587.400000006,9024,WL,C,4.0
5,13.049999952316284,learn,60000.0,Thu Jul 10 2025 13:34:15 GMT-0400 (Eastern Daylight Time),674470.900000006,A,co,I,o,358,1,883.5,673587.400000006,9024,WL,C,4.0
5,13.399999856948853,learn,60000.0,Thu Jul 10 2025 13:34:15 GMT-0400 (Eastern Daylight Time),674820.900000006,A,cor,I,r,326,1,1233.5,673587.400000006,9024,WL,C,4.0
5,14.25,learn,60000.0,Thu Jul 10 2025 13:34:15 GMT-0400 (Eastern Daylight Time),675670.6999999881,A,corn,I,n,823,1,2083.2999999821186,673587.400000006,9024,WL,C,4.0
5,14.717000007629395,learn,60000.0,Thu Jul 10 2025 13:34:15 GMT-0400 (Eastern Daylight Time),676137.099999994,A,cornenter,I,enter,453,1,2549.699999988079,673587.400000006,9024,WL,C,4.0
5,15.366999864578247,learn,60000.0,Thu Jul 10 2025 13:34:15 GMT-0400 (Eastern Daylight Time),676787.5,A,c,I,c,632,1,650.0999999940395,676137.400000006,9024,WL,C,5.0
5,15.782999992370605,learn,60000.0,Thu Jul 10 2025 13:34:15 GMT-0400 (Eastern Daylight Time),677203.900000006,A,ca,I,a,391,1,1066.5,676137.400000006,9024,WL,C,5.0
5,16.26699995994568,learn,60000.0,Thu Jul 10 2025 13:34:15 GMT-0400 (Eastern Daylight Time),677687.6999999881,A,can,I,n,461,1,1550.2999999821186,676137.400000006,9024,WL,C,5.0
5,16.950000047683716,learn,60000.0,Thu Jul 10 2025 13:34:15 GMT-0400 (Eastern Daylight Time),678370.900000006,A,canp,I,p,664,1,2233.5,676137.400000006,9024,WL,C,5.0
5,17.366999864578247,learn,60000.0,Thu Jul 10 2025 13:34:15 GMT-0400 (Eastern Daylight Time),678787.1999999881,A,canpenter,I,enter,393,1,2649.7999999821186,676137.400000006,9024,WL,C,5.0
5,18.33399987220764,learn,60000.0,Thu Jul 10 2025 13:34:15 GMT-0400 (Eastern Daylight Time),679754.1999999881,A,h,I,h,958,1,966.5,678787.6999999881,9024,WL,C,6.0
5,19.066999912261963,learn,60000.0,Thu Jul 10 2025 13:34:15 GMT-0400 (Eastern Daylight Time),680487.599999994,A,ho,I,o,706,1,1699.9000000059605,678787.6999999881,9024,WL,C,6.0
5,19.41700005531311,learn,60000.0,Thu Jul 10 2025 13:34:15 GMT-0400 (Eastern Daylight Time),680837.599999994,A,hom,I,m,317,1,2049.9000000059605,678787.6999999881,9024,WL,C,6.0
5,19.799999952316284,learn,60000.0,Thu Jul 10 2025 13:34:15 GMT-0400 (Eastern Daylight Time),681220.900000006,A,home,I,e,358,1,2433.2000000178814,678787.6999999881,9024,WL,C,6.0
5,20.182999849319458,learn,60000.0,Thu Jul 10 2025 13:34:15 GMT-0400 (Eastern Daylight Time),681603.900000006,A,homeenter,I,enter,362,1,2816.2000000178814,678787.6999999881,9024,WL,C,6.0
5,20.866999864578247,learn,60000.0,Thu Jul 10 2025 13:34:15 GMT-0400 (Eastern Daylight Time),682287.3000000119,A,q,I,q,668,1,683.0,681604.3000000119,9024,WL,C,7.0
5,21.200000047683716,learn,60000.0,Thu Jul 10 2025 13:34:15 GMT-0400 (Eastern Daylight Time),682620.900000006,A,qu,I,u,320,1,1016.5999999940395,681604.3000000119,9024,WL,C,7.0
5,21.58399987220764,learn,60000.0,Thu Jul 10 2025 13:34:15 GMT-0400 (Eastern Daylight Time),683004.099999994,A,que,I,e,368,1,1399.7999999821186,681604.3000000119,9024,WL,C,7.0
5,21.83399987220764,learn,60000.0,Thu Jul 10 2025 13:34:15 GMT-0400 (Eastern Daylight Time),683254.3000000119,A,quee,I,e,226,1,1650.0,681604.3000000119,9024,WL,C,7.0
5,22.16700005531311,learn,60000.0,Thu Jul 10 2025 13:34:15 GMT-0400 (Eastern Daylight Time),683587.599999994,A,queen,I,n,311,1,1983.2999999821186,681604.3000000119,9024,WL,C,7.0
5,22.566999912261963,learn,60000.0,Thu Jul 10 2025 13:34:15 GMT-0400 (Eastern Daylight Time),683987.0,A,queenenter,I,enter,370,1,2382.699999988079,681604.3000000119,9024,WL,C,7.0
5,23.132999897003174,learn,60000.0,Thu Jul 10 2025 13:34:15 GMT-0400 (Eastern Daylight Time),684553.8000000119,A,d,I,d,557,1,566.4000000059605,683987.400000006,9024,WL,C,8.0
5,23.450000047683716,learn,60000.0,Thu Jul 10 2025 13:34:15 GMT-0400 (Eastern Daylight Time),684870.8000000119,A,do,I,o,293,1,883.4000000059605,683987.400000006,9024,WL,C,8.0
5,23.733999967575073,learn,60000.0,Thu Jul 10 2025 13:34:15 GMT-0400 (Eastern Daylight Time),685154.1999999881,A,doc,I,c,256,1,1166.7999999821186,683987.400000006,9024,WL,C,8.0
5,24.18400001525879,learn,60000.0,Thu Jul 10 2025 13:34:15 GMT-0400 (Eastern Daylight Time),685604.099999994,A,doct,I,t,424,1,1616.699999988079,683987.400000006,9024,WL,C,8.0
5,24.450999975204468,learn,60000.0,Thu Jul 10 2025 13:34:15 GMT-0400 (Eastern Daylight Time),685871.099999994,A,docto,I,o,241,1,1883.699999988079,683987.400000006,9024,WL,C,8.0
5,24.983999967575073,learn,60000.0,Thu Jul 10 2025 13:34:15 GMT-0400 (Eastern Daylight Time),686404.1999999881,A,doctor,I,r,511,1,2416.7999999821186,683987.400000006,9024,WL,C,8.0
5,25.41700005531311,learn,60000.0,Thu Jul 10 2025 13:34:15 GMT-0400 (Eastern Daylight Time),686837.099999994,A,doctorenter,I,enter,408,1,2849.699999988079,683987.400000006,9024,WL,C,8.0
5,26.399999856948853,learn,60000.0,Thu Jul 10 2025 13:34:15 GMT-0400 (Eastern Daylight Time),687820.900000006,A,f,I,f,972,1,983.4000000059605,686837.5,9024,WL,C,9.0
5,26.717000007629395,learn,60000.0,Thu Jul 10 2025 13:34:15 GMT-0400 (Eastern Daylight Time),688137.599999994,A,fl,I,l,296,1,1300.0999999940395,686837.5,9024,WL,C,9.0
5,27.049999952316284,learn,60000.0,Thu Jul 10 2025 13:34:15 GMT-0400 (Eastern Daylight Time),688470.900000006,A,fla,I,a,308,1,1633.4000000059605,686837.5,9024,WL,C,9.0
5,27.566999912261963,learn,60000.0,Thu Jul 10 2025 13:34:15 GMT-0400 (Eastern Daylight Time),688987.5,A,flag,I,g,502,1,2150.0,686837.5,9024,WL,C,9.0
5,27.84999990463257,learn,60000.0,Thu Jul 10 2025 13:34:15 GMT-0400 (Eastern Daylight Time),689270.400000006,A,flagenter,I,enter,254,1,2432.9000000059605,686837.5,9024,WL,C,9.0
5,29.316999912261963,learn,60000.0,Thu Jul 10 2025 13:34:15 GMT-0400 (Eastern Daylight Time),690737.599999994,A,b,I,b,1451,1,1466.9000000059605,689270.6999999881,9024,WL,C,10.0
5,29.91700005531311,learn,60000.0,Thu Jul 10 2025 13:34:15 GMT-0400 (Eastern Daylight Time),691337.599999994,A,bo,I,o,587,1,2066.9000000059605,689270.6999999881,9024,WL,C,10.0
5,30.717000007629395,learn,60000.0,Thu Jul 10 2025 13:34:15 GMT-0400 (Eastern Daylight Time),692137.5,A,boy,I,y,787,1,2866.800000011921,689270.6999999881,9024,WL,C,10.0
5,31.282999992370605,learn,60000.0,Thu Jul 10 2025 13:34:15 GMT-0400 (Eastern Daylight Time),692703.6999999881,A,boyenter,I,enter,548,1,3433.0,689270.6999999881,9024,WL,C,10.0
5,31.68400001525879,learn,60000.0,Thu Jul 10 2025 13:34:15 GMT-0400 (Eastern Daylight Time),693104.099999994,A,t,I,t,385,1,400.09999999403954,692704.0,9024,WL,C,11.0
5,32.0,learn,60000.0,Thu Jul 10 2025 13:34:15 GMT-0400 (Eastern Daylight Time),693420.400000006,A,to,I,o,300,1,716.4000000059605,692704.0,9024,WL,C,11.0
5,32.5,learn,60000.0,Thu Jul 10 2025 13:34:15 GMT-0400 (Eastern Daylight Time),693921.0,A,toq,I,q,484,1,1217.0,692704.0,9024,WL,C,11.0
5,33.51699995994568,learn,60000.0,Thu Jul 10 2025 13:34:15 GMT-0400 (Eastern Daylight Time),694937.599999994,A,to,I,backspace,1005,1,2233.5999999940395,692704.0,9024,WL,C,11.0
5,33.84999990463257,learn,60000.0,Thu Jul 10 2025 13:34:15 GMT-0400 (Eastern Daylight Time),695271.0,A,tow,I,w,310,1,2567.0,692704.0,9024,WL,C,11.0
5,34.16700005531311,learn,60000.0,Thu Jul 10 2025 13:34:15 GMT-0400 (Eastern Daylight Time),695587.599999994,A,towe,I,e,296,1,2883.5999999940395,692704.0,9024,WL,C,11.0
5,34.450000047683716,learn,60000.0,Thu Jul 10 2025 13:34:15 GMT-0400 (Eastern Daylight Time),695871.0,A,tower,I,r,266,1,3167.0,692704.0,9024,WL,C,11.0
5,34.75,learn,60000.0,Thu Jul 10 2025 13:34:15 GMT-0400 (Eastern Daylight Time),696170.5,A,towerenter,I,enter,285,1,3466.5,692704.0,9024,WL,C,11.0
5,35.16700005531311,learn,60000.0,Thu Jul 10 2025 13:34:15 GMT-0400 (Eastern Daylight Time),696587.6999999881,A,w,I,w,407,1,416.7999999821186,696170.900000006,9024,WL,C,12.0
5,35.56699991226196,learn,60000.0,Thu Jul 10 2025 13:34:15 GMT-0400 (Eastern Daylight Time),696987.6999999881,A,wh,I,h,387,1,816.7999999821186,696170.900000006,9024,WL,C,12.0
5,35.81699991226196,learn,60000.0,Thu Jul 10 2025 13:34:15 GMT-0400 (Eastern Daylight Time),697237.599999994,A,whe,I,e,225,1,1066.699999988079,696170.900000006,9024,WL,C,12.0
5,36.31699991226196,learn,60000.0,Thu Jul 10 2025 13:34:15 GMT-0400 (Eastern Daylight Time),697737.5,A,whea,I,a,489,1,1566.5999999940395,696170.900000006,9024,WL,C,12.0
5,36.81699991226196,learn,60000.0,Thu Jul 10 2025 13:34:15 GMT-0400 (Eastern Daylight Time),698237.6999999881,A,wheat,I,t,484,1,2066.7999999821186,696170.900000006,9024,WL,C,12.0
5,37.18299984931946,learn,60000.0,Thu Jul 10 2025 13:34:15 GMT-0400 (Eastern Daylight Time),698603.900000006,A,wheatenter,I,enter,349,1,2433.0,696170.900000006,9024,WL,C,12.0
5,37.91700005531311,learn,60000.0,Thu Jul 10 2025 13:34:15 GMT-0400 (Eastern Daylight Time),699337.599999994,A,h,I,h,725,1,733.4000000059605,698604.1999999881,9024,WL,C,13.0
5,39.717000007629395,learn,60000.0,Thu Jul 10 2025 13:34:15 GMT-0400 (Eastern Daylight Time),701137.5,A,,I,backspace,1781,1,2533.300000011921,698604.1999999881,9024,WL,C,13.0
5,47.61699986457825,learn,60000.0,Thu Jul 10 2025 13:34:15 GMT-0400 (Eastern Daylight Time),709037.599999994,A,s,I,s,7883,1,10433.40000000596,698604.1999999881,9024,WL,C,13.0
5,47.86699986457825,learn,60000.0,Thu Jul 10 2025 13:34:15 GMT-0400 (Eastern Daylight Time),709287.599999994,A,su,I,u,221,1,10683.40000000596,698604.1999999881,9024,WL,C,13.0
5,48.26699995994568,learn,60000.0,Thu Jul 10 2025 13:34:15 GMT-0400 (Eastern Daylight Time),709687.599999994,A,sug,I,g,366,1,11083.40000000596,698604.1999999881,9024,WL,C,13.0
5,48.66700005531311,learn,60000.0,Thu Jul 10 2025 13:34:15 GMT-0400 (Eastern Daylight Time),710087.1999999881,A,suga,I,a,382,1,11483.0,698604.1999999881,9024,WL,C,13.0
5,49.58399987220764,learn,60000.0,Thu Jul 10 2025 13:34:15 GMT-0400 (Eastern Daylight Time),711004.1999999881,A,sugar,I,r,902,1,12400.0,698604.1999999881,9024,WL,C,13.0
5,49.98300004005432,learn,60000.0,Thu Jul 10 2025 13:34:15 GMT-0400 (Eastern Daylight Time),711403.8000000119,A,sugarenter,I,enter,386,1,12799.600000023842,698604.1999999881,9024,WL,C,13.0
5,54.967000007629395,learn,60000.0,Thu Jul 10 2025 13:34:15 GMT-0400 (Eastern Daylight Time),716387.599999994,A,c,I,c,4965,1,4983.5,711404.099999994,9024,WL,C,14.0
5,55.26699995994568,learn,60000.0,Thu Jul 10 2025 13:34:15 GMT-0400 (Eastern Daylight Time),716687.599999994,A,co,I,o,273,1,5283.5,711404.099999994,9024,WL,C,14.0
5,55.83399987220764,learn,60000.0,Thu Jul 10 2025 13:34:15 GMT-0400 (Eastern Daylight Time),717254.6999999881,A,cor,I,r,543,1,5850.5999999940395,711404.099999994,9024,WL,C,14.0
5,56.31699991226196,learn,60000.0,Thu Jul 10 2025 13:34:15 GMT-0400 (Eastern Daylight Time),717737.5,A,corn,I,n,473,1,6333.4000000059605,711404.099999994,9024,WL,C,14.0
5,56.93299984931946,learn,60000.0,Thu Jul 10 2025 13:34:15 GMT-0400 (Eastern Daylight Time),718353.8000000119,A,cornenter,I,enter,598,1,6949.700000017881,711404.099999994,9024,WL,C,14.0
5,62.634000062942505,learn,60000.0,Thu Jul 10 2025 13:34:15 GMT-0400 (Eastern Daylight Time),724054.3000000119,A,f,I,f,5680,1,5700.200000017881,718354.099999994,9024,WL,C,15.0
6,1.0329999923706055,distr,58967.000007629395,Thu Jul 10 2025 13:34:15 GMT-0400 (Eastern Daylight Time),802671.099999994,B,c,I,c,1010,1,1033.0,801638.099999994,9024,WL,C,1.0
6,1.6499998569488525,distr,58350.00014305115,Thu Jul 10 2025 13:34:15 GMT-0400 (Eastern Daylight Time),803287.8000000119,B,ch,I,h,591,1,1649.7000000178814,801638.099999994,9024,WL,C,1.0
6,1.9670000076293945,distr,58032.999992370605,Thu Jul 10 2025 13:34:15 GMT-0400 (Eastern Daylight Time),803604.3000000119,B,chr,I,r,285,1,1966.2000000178814,801638.099999994,9024,WL,C,1.0
6,2.25,distr,57750.0,Thu Jul 10 2025 13:34:15 GMT-0400 (Eastern Daylight Time),803887.599999994,B,chri,I,i,266,1,2249.5,801638.099999994,9024,WL,C,1.0
6,2.615999937057495,distr,57384.000062942505,Thu Jul 10 2025 13:34:15 GMT-0400 (Eastern Daylight Time),804253.6999999881,B,chris,I,s,351,1,2615.5999999940395,801638.099999994,9024,WL,C,1.0
6,3.116999864578247,distr,56883.00013542175,Thu Jul 10 2025 13:34:15 GMT-0400 (Eastern Daylight Time),804754.3000000119,B,christ,I,t,482,1,3116.2000000178814,801638.099999994,9024,WL,C,1.0
6,4.132999897003174,distr,55867.000102996826,Thu Jul 10 2025 13:34:15 GMT-0400 (Eastern Daylight Time),805770.8000000119,B,christm,I,m,1005,1,4132.700000017881,801638.099999994,9024,WL,C,1.0
6,4.450000047683716,distr,55549.999952316284,Thu Jul 10 2025 13:34:15 GMT-0400 (Eastern Daylight Time),806087.6999999881,B,christma,I,a,292,1,4449.5999999940395,801638.099999994,9024,WL,C,1.0
6,4.83299994468689,distr,55167.00005531311,Thu Jul 10 2025 13:34:15 GMT-0400 (Eastern Daylight Time),806470.900000006,B,christmas,I,s,358,1,4832.800000011921,801638.099999994,9024,WL,C,1.0
6,5.349999904632568,distr,54650.00009536743,Thu Jul 10 2025 13:34:15 GMT-0400 (Eastern Daylight Time),806987.3000000119,B,christmasenter,I,enter,501,1,5349.200000017881,801638.099999994,9024,WL,C,1.0
6,6.299999952316284,distr,53700.000047683716,Thu Jul 10 2025 13:34:15 GMT-0400 (Eastern Daylight Time),807937.6999999881,B,b,I,b,935,1,950.0999999940395,806987.599999994,9024,WL,C,2.0
6,6.733999967575073,distr,53266.00003242493,Thu Jul 10 2025 13:34:15 GMT-0400 (Eastern Daylight Time),808371.1999999881,B,bu,I,u,403,1,1383.5999999940395,806987.599999994,9024,WL,C,2.0
6,7.182999849319458,distr,52817.00015068054,Thu Jul 10 2025 13:34:15 GMT-0400 (Eastern Daylight Time),808821.0,B,but,I,t,424,1,1833.4000000059605,806987.599999994,9024,WL,C,2.0
6,7.41700005531311,distr,52582.99994468689,Thu Jul 10 2025 13:34:15 GMT-0400 (Eastern Daylight Time),809054.3000000119,B,butt,I,t,217,1,2066.7000000178814,806987.599999994,9024,WL,C,2.0
6,7.7829999923706055,distr,52217.000007629395,Thu Jul 10 2025 13:34:15 GMT-0400 (Eastern Daylight Time),809420.900000006,B,butte,I,e,350,1,2433.300000011921,806987.599999994,9024,WL,C,2.0
6,8.099999904632568,distr,51900.00009536743,Thu Jul 10 2025 13:34:15 GMT-0400 (Eastern Daylight Time),809737.5,B,butter,I,r,305,1,2749.9000000059605,806987.599999994,9024,WL,C,2.0
6,8.516000032424927,distr,51483.99996757507,Thu Jul 10 2025 13:34:15 GMT-0400 (Eastern Daylight Time),810153.900000006,B,butterenter,I,enter,405,1,3166.300000011921,806987.599999994,9024,WL,C,2.0
6,9.41700005531311,distr,50582.99994468689,Thu Jul 10 2025 13:34:15 GMT-0400 (Eastern Daylight Time),811054.1999999881,B,n,I,n,887,1,900.0,810154.1999999881,9024,WL,C,3.0
6,9.983000040054321,distr,50016.99995994568,Thu Jul 10 2025 13:34:15 GMT-0400 (Eastern Daylight Time),811620.6999999881,B,no,I,o,542,1,1466.5,810154.1999999881,9024,WL,C,3.0
6,11.599999904632568,distr,48400.00009536743,Thu Jul 10 2025 13:34:15 GMT-0400 (Eastern Daylight Time),813237.6999999881,B,non,I,n,1595,1,3083.5,810154.1999999881,9024,WL,C,3.0
6,12.365999937057495,distr,47634.000062942505,Thu Jul 10 2025 13:34:15 GMT-0400 (Eastern Daylight Time),814003.900000006,B,none,I,e,744,1,3849.7000000178814,810154.1999999881,9024,WL,C,3.0
6,12.75,distr,47250.0,Thu Jul 10 2025 13:34:15 GMT-0400 (Eastern Daylight Time),814387.6999999881,B,noney,I,y,362,1,4233.5,810154.1999999881,9024,WL,C,3.0
6,13.315999984741211,distr,46684.00001525879,Thu Jul 10 2025 13:34:15 GMT-0400 (Eastern Daylight Time),814953.900000006,B,noneyenter,I,enter,553,1,4799.700000017881,810154.1999999881,9024,WL,C,3.0
6,14.050999879837036,distr,45949.000120162964,Thu Jul 10 2025 13:34:15 GMT-0400 (Eastern Daylight Time),815688.400000006,B,b,I,b,717,1,734.0999999940395,814954.3000000119,9024,WL,C,4.0
6,14.465999841690063,distr,45534.00015830994,Thu Jul 10 2025 13:34:15 GMT-0400 (Eastern Daylight Time),816103.8000000119,B,bu,I,u,405,1,1149.5,814954.3000000119,9024,WL,C,4.0
6,14.882999897003174,distr,45117.000102996826,Thu Jul 10 2025 13:34:15 GMT-0400 (Eastern Daylight Time),816520.8000000119,B,but,I,t,403,1,1566.5,814954.3000000119,9024,WL,C,4.0
6,15.116999864578247,distr,44883.00013542175,Thu Jul 10 2025 13:34:15 GMT-0400 (Eastern Daylight Time),816754.3000000119,B,butt,I,t,207,1,1800.0,814954.3000000119,9024,WL,C,4.0
6,15.483000040054321,distr,44516.99995994568,Thu Jul 10 2025 13:34:15 GMT-0400 (Eastern Daylight Time),817120.900000006,B,butte,I,e,346,1,2166.5999999940395,814954.3000000119,9024,WL,C,4.0
6,15.815999984741211,distr,44184.00001525879,Thu Jul 10 2025 13:34:15 GMT-0400 (Eastern Daylight Time),817453.900000006,B,butter,I,r,315,1,2499.5999999940395,814954.3000000119,9024,WL,C,4.0
6,16.115999937057495,distr,43884.000062942505,Thu Jul 10 2025 13:34:15 GMT-0400 (Eastern Daylight Time),817753.900000006,B,butterenter,I,enter,289,1,2799.5999999940395,814954.3000000119,9024,WL,C,4.0
6,16.649999856948853,distr,43350.00014305115,Thu Jul 10 2025 13:34:15 GMT-0400 (Eastern Daylight Time),818287.6999999881,B,s,I,s,517,1,533.5,817754.1999999881,9024,WL,C,5.0
6,17.5,distr,42500.0,Thu Jul 10 2025 13:34:15 GMT-0400 (Eastern Daylight Time),819137.3000000119,B,sk,I,k,829,1,1383.1000000238419,817754.1999999881,9024,WL,C,5.0
6,18.01699995994568,distr,41983.00004005432,Thu Jul 10 2025 13:34:15 GMT-0400 (Eastern Daylight Time),819654.400000006,B,sky,I,y,496,1,1900.2000000178814,817754.1999999881,9024,WL,C,5.0
6,18.66599988937378,distr,41334.00011062622,Thu Jul 10 2025 13:34:15 GMT-0400 (Eastern Daylight Time),820304.0,B,skyenter,I,enter,629,1,2549.800000011921,817754.1999999881,9024,WL,C,5.0
6,21.26699995994568,distr,38733.00004005432,Thu Jul 10 2025 13:34:15 GMT-0400 (Eastern Daylight Time),822904.599999994,B,s,I,s,2594,1,2600.2999999821186,820304.3000000119,9024,WL,C,6.0
6,21.816999912261963,distr,38183.00008773804,Thu Jul 10 2025 13:34:15 GMT-0400 (Eastern Daylight Time),823454.5,B,sk,I,k,527,1,3150.199999988079,820304.3000000119,9024,WL,C,6.0
6,22.59999990463257,distr,37400.00009536743,Thu Jul 10 2025 13:34:15 GMT-0400 (Eastern Daylight Time),824237.6999999881,B,sky,I,y,767,1,3933.399999976158,820304.3000000119,9024,WL,C,6.0
6,23.467000007629395,distr,36532.999992370605,Thu Jul 10 2025 13:34:15 GMT-0400 (Eastern Daylight Time),825104.0,B,skyenter,I,enter,840,1,4799.699999988079,820304.3000000119,9024,WL,C,6.0
6,27.149999856948853,distr,32850.00014305115,Thu Jul 10 2025 13:34:15 GMT-0400 (Eastern Daylight Time),828787.599999994,B,d,I,d,3665,1,3683.2999999821186,825104.3000000119,9024,WL,C,7.0
6,27.782999992370605,distr,32217.000007629395,Thu Jul 10 2025 13:34:15 GMT-0400 (Eastern Daylight Time),829420.5,B,do,I,o,613,1,4316.199999988079,825104.3000000119,9024,WL,C,7.0
6,28.649999856948853,distr,31350.000143051147,Thu Jul 10 2025 13:34:15 GMT-0400 (Eastern Daylight Time),830287.599999994,B,dol,I,l,853,1,5183.299999982119,825104.3000000119,9024,WL,C,7.0
6,28.866999864578247,distr,31133.000135421753,Thu Jul 10 2025 13:34:15 GMT-0400 (Eastern Daylight Time),830504.5,B,doll,I,l,206,1,5400.199999988079,825104.3000000119,9024,WL,C,7.0
6,29.33299994468689,distr,30667.00005531311,Thu Jul 10 2025 13:34:15 GMT-0400 (Eastern Daylight Time),830970.900000006,B,dolla,I,a,452,1,5866.5999999940395,825104.3000000119,9024,WL,C,7.0
6,29.76699995994568,distr,30233.00004005432,Thu Jul 10 2025 13:34:15 GMT-0400 (Eastern Daylight Time),831404.400000006,B,dollar,I,r,418,1,6300.0999999940395,825104.3000000119,9024,WL,C,7.0
6,30.132999897003174,distr,29867.000102996826,Thu Jul 10 2025 13:34:15 GMT-0400 (Eastern Daylight Time),831770.599999994,B,dollarenter,I,enter,350,1,6666.299999982119,825104.3000000119,9024,WL,C,7.0
6,36.91700005531311,distr,23082.99994468689,Thu Jul 10 2025 13:34:15 GMT-0400 (Eastern Daylight Time),838554.1999999881,B,m,I,m,6776,1,6783.199999988079,831771.0,9024,WL,C,8.0
6,37.18299984931946,distr,22817.000150680542,Thu Jul 10 2025 13:34:15 GMT-0400 (Eastern Daylight Time),838821.0,B,me,I,e,246,1,7050.0,831771.0,9024,WL,C,8.0
6,37.64999985694885,distr,22350.000143051147,Thu Jul 10 2025 13:34:15 GMT-0400 (Eastern Daylight Time),839287.3000000119,B,mea,I,a,457,1,7516.300000011921,831771.0,9024,WL,C,8.0
6,38.14999985694885,distr,21850.000143051147,Thu Jul 10 2025 13:34:15 GMT-0400 (Eastern Daylight Time),839787.6999999881,B,meat,I,t,488,1,8016.699999988079,831771.0,9024,WL,C,8.0
6,38.51600003242493,distr,21483.999967575073,Thu Jul 10 2025 13:34:15 GMT-0400 (Eastern Daylight Time),840154.0,B,meatenter,I,enter,351,1,8383.0,831771.0,9024,WL,C,8.0
6,46.11699986457825,distr,13883.000135421753,Thu Jul 10 2025 13:34:15 GMT-0400 (Eastern Daylight Time),847754.1999999881,B,h,I,h,7591,1,7599.899999976158,840154.3000000119,9024,WL,C,9.0
6,46.633999824523926,distr,13366.000175476074,Thu Jul 10 2025 13:34:15 GMT-0400 (Eastern Daylight Time),848271.099999994,B,ho,I,o,500,1,8116.799999982119,840154.3000000119,9024,WL,C,9.0
6,46.93400001525879,distr,13065.999984741211,Thu Jul 10 2025 13:34:15 GMT-0400 (Eastern Daylight Time),848571.099999994,B,hot,I,t,287,1,8416.799999982119,840154.3000000119,9024,WL,C,9.0
6,47.549999952316284,distr,12450.000047683716,Thu Jul 10 2025 13:34:15 GMT-0400 (Eastern Daylight Time),849187.6999999881,B,hote,I,e,595,1,9033.399999976158,840154.3000000119,9024,WL,C,9.0
6,47.967000007629395,distr,12032.999992370605,Thu Jul 10 2025 13:34:15 GMT-0400 (Eastern Daylight Time),849604.1999999881,B,hotel,I,l,394,1,9449.899999976158,840154.3000000119,9024,WL,C,9.0
6,48.549999952316284,distr,11450.000047683716,Thu Jul 10 2025 13:34:15 GMT-0400 (Eastern Daylight Time),850187.1999999881,B,hotelenter,I,enter,570,1,10032.899999976158,840154.3000000119,9024,WL,C,9.0
6,56.75,distr,3250.0,Thu Jul 10 2025 13:34:15 GMT-0400 (Eastern Daylight Time),858387.6999999881,B,d,I,d,8182,1,8200.09999999404,850187.599999994,9024,WL,C,10.0
6,57.217000007629395,distr,2782.9999923706055,Thu Jul 10 2025 13:34:15 GMT-0400 (Eastern Daylight Time),858854.5,B,do,I,o,437,1,8666.90000000596,850187.599999994,9024,WL,C,10.0
6,57.56699991226196,distr,2433.000087738037,Thu Jul 10 2025 13:34:15 GMT-0400 (Eastern Daylight Time),859204.3000000119,B,dol,I,l,328,1,9016.700000017881,850187.599999994,9024,WL,C,10.0
6,57.75,distr,2250.0,Thu Jul 10 2025 13:34:15 GMT-0400 (Eastern Daylight Time),859387.6999999881,B,doll,I,l,171,1,9200.09999999404,850187.599999994,9024,WL,C,10.0
6,58.049999952316284,distr,1950.0000476837158,Thu Jul 10 2025 13:34:15 GMT-0400 (Eastern Daylight Time),859687.8000000119,B,dolla,I,a,265,1,9500.200000017881,850187.599999994,9024,WL,C,10.0
6,58.59999990463257,distr,1400.0000953674316,Thu Jul 10 2025 13:34:15 GMT-0400 (Eastern Daylight Time),860237.099999994,B,dollar,I,r,532,1,10049.5,850187.599999994,9024,WL,C,10.0
6,60.01699995994568,distr,-16.99995994567871,Thu Jul 10 2025 13:34:15 GMT-0400 (Eastern Daylight Time),861654.099999994,B,dollarNone,I,None,1411,1,11466.5,850187.599999994,9024,WL,C,10.0
7,3.2839999198913574,immed,56716.00008010864,Thu Jul 10 2025 13:34:15 GMT-0400 (Eastern Daylight Time),885921.099999994,A,t,I,t,3256,1,3282.699999988079,882638.400000006,9024,WL,C,1.0
7,3.5339999198913574,immed,56466.00008010864,Thu Jul 10 2025 13:34:15 GMT-0400 (Eastern Daylight Time),886171.099999994,A,to,I,o,235,1,3532.699999988079,882638.400000006,9024,WL,C,1.0
7,4.066999912261963,immed,55933.00008773804,Thu Jul 10 2025 13:34:15 GMT-0400 (Eastern Daylight Time),886704.400000006,A,tow,I,w,508,1,4066.0,882638.400000006,9024,WL,C,1.0
7,4.434000015258789,immed,55565.99998474121,Thu Jul 10 2025 13:34:15 GMT-0400 (Eastern Daylight Time),887071.1999999881,A,towe,I,e,342,1,4432.799999982119,882638.400000006,9024,WL,C,1.0
7,4.950000047683716,immed,55049.999952316284,Thu Jul 10 2025 13:34:15 GMT-0400 (Eastern Daylight Time),887587.6999999881,A,tower,I,r,494,1,4949.299999982119,882638.400000006,9024,WL,C,1.0
7,5.83299994468689,immed,54167.00005531311,Thu Jul 10 2025 13:34:15 GMT-0400 (Eastern Daylight Time),888470.6999999881,A,towerenter,I,enter,856,1,5832.299999982119,882638.400000006,9024,WL,C,1.0
7,8.066999912261963,immed,51933.00008773804,Thu Jul 10 2025 13:34:15 GMT-0400 (Eastern Daylight Time),890704.3000000119,A,b,I,b,2219,1,2233.300000011921,888471.0,9024,WL,C,2.0
7,8.733999967575073,immed,51266.00003242493,Thu Jul 10 2025 13:34:15 GMT-0400 (Eastern Daylight Time),891371.0,A,bo,I,o,652,1,2900.0,888471.0,9024,WL,C,2.0
7,9.399999856948853,immed,50600.00014305115,Thu Jul 10 2025 13:34:15 GMT-0400 (Eastern Daylight Time),892037.5,A,boy,I,y,642,1,3566.5,888471.0,9024,WL,C,2.0
7,10.099999904632568,immed,49900.00009536743,Thu Jul 10 2025 13:34:15 GMT-0400 (Eastern Daylight Time),892737.3000000119,A,boyenter,I,enter,679,1,4266.300000011921,888471.0,9024,WL,C,2.0
7,11.41700005531311,immed,48582.99994468689,Thu Jul 10 2025 13:34:15 GMT-0400 (Eastern Daylight Time),894054.3000000119,A,d,I,d,1293,1,1316.7000000178814,892737.599999994,9024,WL,C,3.0
7,11.700000047683716,immed,48299.999952316284,Thu Jul 10 2025 13:34:15 GMT-0400 (Eastern Daylight Time),894337.599999994,A,do,I,o,265,1,1600.0,892737.599999994,9024,WL,C,3.0
7,12.0,immed,48000.0,Thu Jul 10 2025 13:34:15 GMT-0400 (Eastern Daylight Time),894637.8000000119,A,doc,I,c,282,1,1900.2000000178814,892737.599999994,9024,WL,C,3.0
7,12.467000007629395,immed,47532.999992370605,Thu Jul 10 2025 13:34:15 GMT-0400 (Eastern Daylight Time),895104.3000000119,A,doct,I,t,449,1,2366.7000000178814,892737.599999994,9024,WL,C,3.0
7,12.816999912261963,immed,47183.00008773804,Thu Jul 10 2025 13:34:15 GMT-0400 (Eastern Daylight Time),895454.3000000119,A,docto,I,o,334,1,2716.7000000178814,892737.599999994,9024,WL,C,3.0
7,13.75,immed,46250.0,Thu Jul 10 2025 13:34:15 GMT-0400 (Eastern Daylight Time),896387.6999999881,A,doctor,I,r,912,1,3650.0999999940395,892737.599999994,9024,WL,C,3.0
7,14.233000040054321,immed,45766.99995994568,Thu Jul 10 2025 13:34:15 GMT-0400 (Eastern Daylight Time),896870.6999999881,A,doctorenter,I,enter,457,1,4133.0999999940395,892737.599999994,9024,WL,C,3.0
7,15.16599988937378,immed,44834.00011062622,Thu Jul 10 2025 13:34:15 GMT-0400 (Eastern Daylight Time),897804.0,A,h,I,h,922,1,933.0999999940395,896870.900000006,9024,WL,C,4.0
7,15.733000040054321,immed,44266.99995994568,Thu Jul 10 2025 13:34:15 GMT-0400 (Eastern Daylight Time),898371.0,A,ho,I,o,550,1,1500.0999999940395,896870.900000006,9024,WL,C,4.0
7,16.549999952316284,immed,43450.000047683716,Thu Jul 10 2025 13:34:15 GMT-0400 (Eastern Daylight Time),899187.900000006,A,hom,I,m,797,1,2317.0,896870.900000006,9024,WL,C,4.0
7,16.899999856948853,immed,43100.00014305115,Thu Jul 10 2025 13:34:15 GMT-0400 (Eastern Daylight Time),899537.1999999881,A,home,I,e,329,1,2666.2999999821186,896870.900000006,9024,WL,C,4.0
7,17.382999897003174,immed,42617.000102996826,Thu Jul 10 2025 13:34:15 GMT-0400 (Eastern Daylight Time),900020.8000000119,A,homeenter,I,enter,464,1,3149.9000000059605,896870.900000006,9024,WL,C,4.0
7,18.549999952316284,immed,41450.000047683716,Thu Jul 10 2025 13:34:15 GMT-0400 (Eastern Daylight Time),901187.6999999881,A,s,I,s,1148,1,1166.5999999940395,900021.099999994,9024,WL,C,5.0
7,19.48300004005432,immed,40516.99995994568,Thu Jul 10 2025 13:34:15 GMT-0400 (Eastern Daylight Time),902120.900000006,A,sk,I,k,923,1,2099.800000011921,900021.099999994,9024,WL,C,5.0
7,19.950000047683716,immed,40049.999952316284,Thu Jul 10 2025 13:34:15 GMT-0400 (Eastern Daylight Time),902587.099999994,A,sky,I,y,453,1,2566.0,900021.099999994,9024,WL,C,5.0
7,20.700000047683716,immed,39299.999952316284,Thu Jul 10 2025 13:34:15 GMT-0400 (Eastern Daylight Time),903337.1999999881,A,skyenter,I,enter,742,1,3316.0999999940395,900021.099999994,9024,WL,C,5.0
7,21.549999952316284,immed,38450.000047683716,Thu Jul 10 2025 13:34:15 GMT-0400 (Eastern Daylight Time),904187.599999994,A,q,I,q,839,1,850.0,903337.599999994,9024,WL,C,6.0
7,21.91700005531311,immed,38082.99994468689,Thu Jul 10 2025 13:34:15 GMT-0400 (Eastern Daylight Time),904554.400000006,A,qu,I,u,356,1,1216.800000011921,903337.599999994,9024,WL,C,6.0
7,22.31599998474121,immed,37684.00001525879,Thu Jul 10 2025 13:34:15 GMT-0400 (Eastern Daylight Time),904953.8000000119,A,que,I,e,379,1,1616.2000000178814,903337.599999994,9024,WL,C,6.0
7,22.549999952316284,immed,37450.000047683716,Thu Jul 10 2025 13:34:15 GMT-0400 (Eastern Daylight Time),905187.8000000119,A,quee,I,e,216,1,1850.2000000178814,903337.599999994,9024,WL,C,6.0
7,22.866999864578247,immed,37133.00013542175,Thu Jul 10 2025 13:34:15 GMT-0400 (Eastern Daylight Time),905504.400000006,A,queen,I,n,296,1,2166.800000011921,903337.599999994,9024,WL,C,6.0
7,23.48300004005432,immed,36516.99995994568,Thu Jul 10 2025 13:34:15 GMT-0400 (Eastern Daylight Time),906120.599999994,A,queenenter,I,enter,597,1,2783.0,903337.599999994,9024,WL,C,6.0
7,26.75,immed,33250.0,Thu Jul 10 2025 13:34:15 GMT-0400 (Eastern Daylight Time),909387.3000000119,A,s,I,s,3256,1,3266.4000000059605,906120.900000006,9024,WL,C,7.0
7,27.049999952316284,immed,32950.000047683716,Thu Jul 10 2025 13:34:15 GMT-0400 (Eastern Daylight Time),909687.6999999881,A,sh,I,h,276,1,3566.7999999821186,906120.900000006,9024,WL,C,7.0
7,27.68400001525879,immed,32315.99998474121,Thu Jul 10 2025 13:34:15 GMT-0400 (Eastern Daylight Time),910321.099999994,A,sho,I,o,608,1,4200.199999988079,906120.900000006,9024,WL,C,7.0
7,28.09999990463257,immed,31900.00009536743,Thu Jul 10 2025 13:34:15 GMT-0400 (Eastern Daylight Time),910737.3000000119,A,shor,I,r,397,1,4616.4000000059605,906120.900000006,9024,WL,C,7.0
7,28.5,immed,31500.0,Thu Jul 10 2025 13:34:15 GMT-0400 (Eastern Daylight Time),911137.8000000119,A,shore,I,e,379,1,5016.9000000059605,906120.900000006,9024,WL,C,7.0
7,29.049999952316284,immed,30950.000047683716,Thu Jul 10 2025 13:34:15 GMT-0400 (Eastern Daylight Time),911687.1999999881,A,shoreenter,I,enter,524,1,5566.299999982119,906120.900000006,9024,WL,C,7.0
7,31.432999849319458,immed,28567.000150680542,Thu Jul 10 2025 13:34:15 GMT-0400 (Eastern Daylight Time),914071.1999999881,A,w,I,w,2363,1,2383.699999988079,911687.5,9024,WL,C,8.0
7,32.03399991989136,immed,27966.000080108643,Thu Jul 10 2025 13:34:15 GMT-0400 (Eastern Daylight Time),914671.1999999881,A,wh,I,h,585,1,2983.699999988079,911687.5,9024,WL,C,8.0
7,32.34999990463257,immed,27650.00009536743,Thu Jul 10 2025 13:34:15 GMT-0400 (Eastern Daylight Time),914988.0,A,whw,I,w,294,1,3300.5,911687.5,9024,WL,C,8.0
7,33.467000007629395,immed,26532.999992370605,Thu Jul 10 2025 13:34:15 GMT-0400 (Eastern Daylight Time),916104.400000006,A,wh,I,backspace,1105,1,4416.9000000059605,911687.5,9024,WL,C,8.0
7,33.81699991226196,immed,26183.000087738037,Thu Jul 10 2025 13:34:15 GMT-0400 (Eastern Daylight Time),916454.400000006,A,whe,I,e,326,1,4766.9000000059605,911687.5,9024,WL,C,8.0
7,34.25,immed,25750.0,Thu Jul 10 2025 13:34:15 GMT-0400 (Eastern Daylight Time),916887.599999994,A,whea,I,a,406,1,5200.0999999940395,911687.5,9024,WL,C,8.0
7,34.717000007629395,immed,25282.999992370605,Thu Jul 10 2025 13:34:15 GMT-0400 (Eastern Daylight Time),917354.400000006,A,wheat,I,t,456,1,5666.9000000059605,911687.5,9024,WL,C,8.0
7,35.21599984169006,immed,24784.000158309937,Thu Jul 10 2025 13:34:15 GMT-0400 (Eastern Daylight Time),917854.0,A,wheatenter,I,enter,484,1,6166.5,911687.5,9024,WL,C,8.0
7,37.133999824523926,immed,22866.000175476074,Thu Jul 10 2025 13:34:15 GMT-0400 (Eastern Daylight Time),919771.3000000119,A,c,I,c,1907,1,1917.0,917854.3000000119,9024,WL,C,9.0
7,37.58399987220764,immed,22416.00012779236,Thu Jul 10 2025 13:34:15 GMT-0400 (Eastern Daylight Time),920221.099999994,A,co,I,o,435,1,2366.7999999821186,917854.3000000119,9024,WL,C,9.0
7,37.86800003051758,immed,22131.999969482422,Thu Jul 10 2025 13:34:15 GMT-0400 (Eastern Daylight Time),920505.1999999881,A,cor,I,r,268,1,2650.899999976158,917854.3000000119,9024,WL,C,9.0
7,38.717000007629395,immed,21282.999992370605,Thu Jul 10 2025 13:34:15 GMT-0400 (Eastern Daylight Time),921354.3000000119,A,corn,I,n,835,1,3500.0,917854.3000000119,9024,WL,C,9.0
7,39.26600003242493,immed,20733.999967575073,Thu Jul 10 2025 13:34:15 GMT-0400 (Eastern Daylight Time),921903.8000000119,A,cornenter,I,enter,528,1,4049.5,917854.3000000119,9024,WL,C,9.0
7,39.76699995994568,immed,20233.00004005432,Thu Jul 10 2025 13:34:15 GMT-0400 (Eastern Daylight Time),922404.3000000119,A,f,I,f,480,1,500.10000002384186,921904.1999999881,9024,WL,C,10.0
7,40.09999990463257,immed,19900.00009536743,Thu Jul 10 2025 13:34:15 GMT-0400 (Eastern Daylight Time),922737.8000000119,A,fl,I,l,306,1,833.6000000238419,921904.1999999881,9024,WL,C,10.0
7,40.450000047683716,immed,19549.999952316284,Thu Jul 10 2025 13:34:15 GMT-0400 (Eastern Daylight Time),923087.5,A,fla,I,a,333,1,1183.300000011921,921904.1999999881,9024,WL,C,10.0
7,41.467000007629395,immed,18532.999992370605,Thu Jul 10 2025 13:34:15 GMT-0400 (Eastern Daylight Time),924104.900000006,A,flag,I,g,1007,1,2200.7000000178814,921904.1999999881,9024,WL,C,10.0
7,42.0,immed,18000.0,Thu Jul 10 2025 13:34:15 GMT-0400 (Eastern Daylight Time),924637.400000006,A,flagenter,I,enter,518,1,2733.2000000178814,921904.1999999881,9024,WL,C,10.0
7,44.467000007629395,immed,15532.999992370605,Thu Jul 10 2025 13:34:15 GMT-0400 (Eastern Daylight Time),927104.400000006,A,s,I,s,2452,1,2466.7000000178814,924637.6999999881,9024,WL,C,11.0
7,44.799999952316284,immed,15200.000047683716,Thu Jul 10 2025 13:34:15 GMT-0400 (Eastern Daylight Time),927437.900000006,A,sh,I,h,309,1,2800.2000000178814,924637.6999999881,9024,WL,C,11.0
7,45.450000047683716,immed,14549.999952316284,Thu Jul 10 2025 13:34:15 GMT-0400 (Eastern Daylight Time),928087.400000006,A,sho,I,o,623,1,3449.7000000178814,924637.6999999881,9024,WL,C,11.0
7,45.85099983215332,immed,14149.00016784668,Thu Jul 10 2025 13:34:15 GMT-0400 (Eastern Daylight Time),928488.5,A,shor,I,r,390,1,3850.800000011921,924637.6999999881,9024,WL,C,11.0
7,46.18400001525879,immed,13815.999984741211,Thu Jul 10 2025 13:34:15 GMT-0400 (Eastern Daylight Time),928821.1999999881,A,shore,I,e,310,1,4183.5,924637.6999999881,9024,WL,C,11.0
7,46.76699995994568,immed,13233.000040054321,Thu Jul 10 2025 13:34:15 GMT-0400 (Eastern Daylight Time),929404.099999994,A,shoreenter,I,enter,568,1,4766.4000000059605,924637.6999999881,9024,WL,C,11.0
7,47.799999952316284,immed,12200.000047683716,Thu Jul 10 2025 13:34:15 GMT-0400 (Eastern Daylight Time),930437.900000006,A,l,I,l,1014,1,1033.5,929404.400000006,9024,WL,C,12.0
7,48.049999952316284,immed,11950.000047683716,Thu Jul 10 2025 13:34:15 GMT-0400 (Eastern Daylight Time),930687.8000000119,A,le,I,e,231,1,1283.4000000059605,929404.400000006,9024,WL,C,12.0
7,48.48399996757507,immed,11516.000032424927,Thu Jul 10 2025 13:34:15 GMT-0400 (Eastern Daylight Time),931121.099999994,A,let,I,t,414,1,1716.699999988079,929404.400000006,9024,WL,C,12.0
7,48.700000047683716,immed,11299.999952316284,Thu Jul 10 2025 13:34:15 GMT-0400 (Eastern Daylight Time),931337.8000000119,A,lett,I,t,197,1,1933.4000000059605,929404.400000006,9024,WL,C,12.0
7,49.06699991226196,immed,10933.000087738037,Thu Jul 10 2025 13:34:15 GMT-0400 (Eastern Daylight Time),931704.6999999881,A,lette,I,e,356,1,2300.2999999821186,929404.400000006,9024,WL,C,12.0
7,49.39999985694885,immed,10600.000143051147,Thu Jul 10 2025 13:34:15 GMT-0400 (Eastern Daylight Time),932037.400000006,A,letter,I,r,310,1,2633.0,929404.400000006,9024,WL,C,12.0
7,49.83299994468689,immed,10167.00005531311,Thu Jul 10 2025 13:34:15 GMT-0400 (Eastern Daylight Time),932470.6999999881,A,letterenter,I,enter,410,1,3066.2999999821186,929404.400000006,9024,WL,C,12.0
7,60.01699995994568,immed,-16.99995994567871,Thu Jul 10 2025 13:34:15 GMT-0400 (Eastern Daylight Time),942654.5,A,None,I,None,10177,1,10183.5,932471.0,9024,WL,C,13.0
