block_c,block_dur,condition,countdown,datetime,endtime,list,multichar_response,project,response,response_time,session_number,start_end,starttime,subject_id,task,task_vers,trial
,,,,Thu Sep 11 2025 15:23:53 GMT-0400 (Eastern Daylight Time),,,,I,space,804,2,,,9024,WL,A,
prac,,0,,Thu Sep 11 2025 15:23:53 GMT-0400 (Eastern Daylight Time),,NA,b,I,b,2461,2,,,9024,WL,A,1.0
prac,,0,,Thu Sep 11 2025 15:23:53 GMT-0400 (Eastern Daylight Time),,NA,bo,I,o,670,2,,,9024,WL,A,1.0
prac,,0,,Thu Sep 11 2025 15:23:53 GMT-0400 (Eastern Daylight Time),,NA,boo,I,o,195,2,,,9024,WL,A,1.0
prac,,0,,Thu Sep 11 2025 15:23:53 GMT-0400 (Eastern Daylight Time),,NA,boos,I,s,322,2,,,9024,WL,A,1.0
prac,,0,,Thu Sep 11 2025 15:23:53 GMT-0400 (Eastern Daylight Time),,NA,boost,I,t,445,2,,,9024,WL,A,1.0
prac,,0,,Thu Sep 11 2025 15:23:53 GMT-0400 (Eastern Daylight Time),,NA,boostenter,I,enter,2890,2,,,9024,WL,A,1.0
1,14.384000062942505,learn,45615.999937057495,Thu Sep 11 2025 15:23:53 GMT-0400 (Eastern Daylight Time),597388.1000003815,A,b,I,b,14360,2,14382.800000190735,583005.3000001907,9024,WL,A,1.0
1,15.66700005531311,learn,44332.99994468689,Thu Sep 11 2025 15:23:53 GMT-0400 (Eastern Daylight Time),598671.1000003815,A,bo,I,o,1256,2,15665.800000190735,583005.3000001907,9024,WL,A,1.0
1,15.867000102996826,learn,44132.999897003174,Thu Sep 11 2025 15:23:53 GMT-0400 (Eastern Daylight Time),598871.0,A,boo,I,o,182,2,15865.699999809265,583005.3000001907,9024,WL,A,1.0
1,16.133000135421753,learn,43866.99986457825,Thu Sep 11 2025 15:23:53 GMT-0400 (Eastern Daylight Time),599137.6000003815,A,book,I,k,239,2,16132.300000190735,583005.3000001907,9024,WL,A,1.0
1,20.433000087738037,learn,39566.99991226196,Thu Sep 11 2025 15:23:53 GMT-0400 (Eastern Daylight Time),603437.7000007629,A,bookf,I,f,4272,2,20432.400000572205,583005.3000001907,9024,WL,A,1.0
1,20.933000087738037,learn,39066.99991226196,Thu Sep 11 2025 15:23:53 GMT-0400 (Eastern Daylight Time),603937.5,A,bookfl,I,l,485,2,20932.199999809265,583005.3000001907,9024,WL,A,1.0
1,21.367000102996826,learn,38632.999897003174,Thu Sep 11 2025 15:23:53 GMT-0400 (Eastern Daylight Time),604371.0,A,bookflo,I,o,420,2,21365.699999809265,583005.3000001907,9024,WL,A,1.0
1,22.933000087738037,learn,37066.99991226196,Thu Sep 11 2025 15:23:53 GMT-0400 (Eastern Daylight Time),605937.5,A,bookfl,I,backspace,1552,2,22932.199999809265,583005.3000001907,9024,WL,A,1.0
1,23.350000143051147,learn,36649.99985694885,Thu Sep 11 2025 15:23:53 GMT-0400 (Eastern Daylight Time),606354.3000001907,A,bookf,I,backspace,400,2,23349.0,583005.3000001907,9024,WL,A,1.0
1,24.100000143051147,learn,35899.99985694885,Thu Sep 11 2025 15:23:53 GMT-0400 (Eastern Daylight Time),607104.2000007629,A,book,I,backspace,736,2,24098.900000572205,583005.3000001907,9024,WL,A,1.0
1,25.249000072479248,learn,34750.99992752075,Thu Sep 11 2025 15:23:53 GMT-0400 (Eastern Daylight Time),608253.5,A,bookenter,I,enter,1122,2,25248.199999809265,583005.3000001907,9024,WL,A,1.0
1,27.133000135421753,learn,32866.99986457825,Thu Sep 11 2025 15:23:53 GMT-0400 (Eastern Daylight Time),610137.6000003815,A,f,I,f,1865,2,1883.6000003814697,608254.0,9024,WL,A,2.0
1,27.466000080108643,learn,32533.999919891357,Thu Sep 11 2025 15:23:53 GMT-0400 (Eastern Daylight Time),610470.5,A,fl,I,l,313,2,2216.5,608254.0,9024,WL,A,2.0
1,27.783000230789185,learn,32216.999769210815,Thu Sep 11 2025 15:23:53 GMT-0400 (Eastern Daylight Time),610787.6000003815,A,flo,I,o,303,2,2533.6000003814697,608254.0,9024,WL,A,2.0
1,28.517000198364258,learn,31482.999801635742,Thu Sep 11 2025 15:23:53 GMT-0400 (Eastern Daylight Time),611520.9000005722,A,flow,I,w,722,2,3266.9000005722046,608254.0,9024,WL,A,2.0
1,28.90000009536743,learn,31099.99990463257,Thu Sep 11 2025 15:23:53 GMT-0400 (Eastern Daylight Time),611904.0,A,flowe,I,e,372,2,3650.0,608254.0,9024,WL,A,2.0
1,29.217000007629395,learn,30782.999992370605,Thu Sep 11 2025 15:23:53 GMT-0400 (Eastern Daylight Time),612221.0,A,flower,I,r,287,2,3967.0,608254.0,9024,WL,A,2.0
1,31.033000230789185,learn,28966.999769210815,Thu Sep 11 2025 15:23:53 GMT-0400 (Eastern Daylight Time),614037.1000003815,A,flowerenter,I,enter,1799,2,5783.10000038147,608254.0,9024,WL,A,2.0
1,34.83300018310547,learn,25166.99981689453,Thu Sep 11 2025 15:23:53 GMT-0400 (Eastern Daylight Time),617837.7000007629,A,m,I,m,3778,2,3800.1000003814697,614037.6000003815,9024,WL,A,3.0
1,35.40000009536743,learn,24599.99990463257,Thu Sep 11 2025 15:23:53 GMT-0400 (Eastern Daylight Time),618404.2000007629,A,me,I,e,551,2,4366.60000038147,614037.6000003815,9024,WL,A,3.0
1,36.13300013542175,learn,23866.999864578247,Thu Sep 11 2025 15:23:53 GMT-0400 (Eastern Daylight Time),619137.5,A,mea,I,a,719,2,5099.89999961853,614037.6000003815,9024,WL,A,3.0
1,36.617000102996826,learn,23382.999897003174,Thu Sep 11 2025 15:23:53 GMT-0400 (Eastern Daylight Time),619621.1000003815,A,mead,I,d,467,2,5583.5,614037.6000003815,9024,WL,A,3.0
1,36.91700005531311,learn,23082.99994468689,Thu Sep 11 2025 15:23:53 GMT-0400 (Eastern Daylight Time),619920.9000005722,A,meado,I,o,286,2,5883.300000190735,614037.6000003815,9024,WL,A,3.0
1,37.450000047683716,learn,22549.999952316284,Thu Sep 11 2025 15:23:53 GMT-0400 (Eastern Daylight Time),620454.3000001907,A,meadow,I,w,516,2,6416.699999809265,614037.6000003815,9024,WL,A,3.0
1,39.05000019073486,learn,20949.999809265137,Thu Sep 11 2025 15:23:53 GMT-0400 (Eastern Daylight Time),622053.8000001907,A,meadowenter,I,enter,1581,2,8016.199999809265,614037.6000003815,9024,WL,A,3.0
1,41.08300018310547,learn,18916.99981689453,Thu Sep 11 2025 15:23:53 GMT-0400 (Eastern Daylight Time),624087.5,A,r,I,r,2017,2,2033.1999998092651,622054.3000001907,9024,WL,A,4.0
1,41.73300004005432,learn,18266.99995994568,Thu Sep 11 2025 15:23:53 GMT-0400 (Eastern Daylight Time),624737.7000007629,A,ru,I,u,635,2,2683.4000005722046,622054.3000001907,9024,WL,A,4.0
1,42.38300013542175,learn,17616.999864578247,Thu Sep 11 2025 15:23:53 GMT-0400 (Eastern Daylight Time),625387.6000003815,A,rug,I,g,627,2,3333.300000190735,622054.3000001907,9024,WL,A,4.0
1,43.25,learn,16750.0,Thu Sep 11 2025 15:23:53 GMT-0400 (Eastern Daylight Time),626253.9000005722,A,rugenter,I,enter,841,2,4199.60000038147,622054.3000001907,9024,WL,A,4.0
1,43.867000102996826,learn,16132.999897003174,Thu Sep 11 2025 15:23:53 GMT-0400 (Eastern Daylight Time),626871.0,A,f,I,f,601,2,616.7999992370605,626254.2000007629,9024,WL,A,5.0
1,44.15000009536743,learn,15849.999904632568,Thu Sep 11 2025 15:23:53 GMT-0400 (Eastern Daylight Time),627154.3000001907,A,fl,I,l,270,2,900.0999994277954,626254.2000007629,9024,WL,A,5.0
1,44.467000007629395,learn,15532.999992370605,Thu Sep 11 2025 15:23:53 GMT-0400 (Eastern Daylight Time),627471.2000007629,A,flo,I,o,307,2,1217.0,626254.2000007629,9024,WL,A,5.0
1,45.26700019836426,learn,14732.999801635742,Thu Sep 11 2025 15:23:53 GMT-0400 (Eastern Daylight Time),628271.1000003815,A,flow,I,w,790,2,2016.8999996185303,626254.2000007629,9024,WL,A,5.0
1,45.68300008773804,learn,14316.999912261963,Thu Sep 11 2025 15:23:53 GMT-0400 (Eastern Daylight Time),628686.9000005722,A,flowe,I,e,406,2,2432.699999809265,626254.2000007629,9024,WL,A,5.0
1,46.01700019836426,learn,13982.999801635742,Thu Sep 11 2025 15:23:53 GMT-0400 (Eastern Daylight Time),629021.0,A,flower,I,r,308,2,2766.7999992370605,626254.2000007629,9024,WL,A,5.0
1,46.71600008010864,learn,13283.999919891357,Thu Sep 11 2025 15:23:53 GMT-0400 (Eastern Daylight Time),629720.5,A,flowerenter,I,enter,679,2,3466.2999992370605,626254.2000007629,9024,WL,A,5.0
1,51.80000019073486,learn,8199.999809265137,Thu Sep 11 2025 15:23:53 GMT-0400 (Eastern Daylight Time),634804.3000001907,A,g,I,g,5071,2,5083.39999961853,629720.9000005722,9024,WL,A,6.0
1,52.783000230789185,learn,7216.999769210815,Thu Sep 11 2025 15:23:53 GMT-0400 (Eastern Daylight Time),635787.4000005722,A,,I,backspace,953,2,6066.5,629720.9000005722,9024,WL,A,6.0
1,53.68300008773804,learn,6316.999912261963,Thu Sep 11 2025 15:23:53 GMT-0400 (Eastern Daylight Time),636687.2000007629,A,r,I,r,883,2,6966.300000190735,629720.9000005722,9024,WL,A,6.0
1,54.06700015068054,learn,5932.999849319458,Thu Sep 11 2025 15:23:53 GMT-0400 (Eastern Daylight Time),637070.9000005722,A,ru,I,u,357,2,7350.0,629720.9000005722,9024,WL,A,6.0
1,54.5,learn,5500.0,Thu Sep 11 2025 15:23:53 GMT-0400 (Eastern Daylight Time),637504.2000007629,A,rug,I,g,419,2,7783.300000190735,629720.9000005722,9024,WL,A,6.0
1,55.10000014305115,learn,4899.9998569488525,Thu Sep 11 2025 15:23:53 GMT-0400 (Eastern Daylight Time),638103.8000001907,A,rugenter,I,enter,580,2,8382.89999961853,629720.9000005722,9024,WL,A,6.0
1,60.01700019836426,learn,-17.000198364257812,Thu Sep 11 2025 15:23:53 GMT-0400 (Eastern Daylight Time),643021.2000007629,A,None,I,None,4911,2,4916.900000572205,638104.3000001907,9024,WL,A,7.0
2,2.0339999198913574,learn,57966.00008010864,Thu Sep 11 2025 15:23:53 GMT-0400 (Eastern Daylight Time),719171.2000007629,A,f,I,f,2021,2,2033.2000007629395,717138.0,9024,WL,A,1.0
2,2.3339998722076416,learn,57666.00012779236,Thu Sep 11 2025 15:23:53 GMT-0400 (Eastern Daylight Time),719471.2000007629,A,fl,I,l,287,2,2333.2000007629395,717138.0,9024,WL,A,1.0
2,2.634000062942505,learn,57365.999937057495,Thu Sep 11 2025 15:23:53 GMT-0400 (Eastern Daylight Time),719771.1000003815,A,flo,I,o,280,2,2633.1000003814697,717138.0,9024,WL,A,1.0
2,3.1500000953674316,learn,56849.99990463257,Thu Sep 11 2025 15:23:53 GMT-0400 (Eastern Daylight Time),720287.4000005722,A,flow,I,w,506,2,3149.4000005722046,717138.0,9024,WL,A,1.0
2,3.566999912261963,learn,56433.00008773804,Thu Sep 11 2025 15:23:53 GMT-0400 (Eastern Daylight Time),720704.0,A,flowe,I,e,405,2,3566.0,717138.0,9024,WL,A,1.0
2,3.866999864578247,learn,56133.00013542175,Thu Sep 11 2025 15:23:53 GMT-0400 (Eastern Daylight Time),721004.4000005722,A,flower,I,r,278,2,3866.4000005722046,717138.0,9024,WL,A,1.0
2,4.316999912261963,learn,55683.00008773804,Thu Sep 11 2025 15:23:53 GMT-0400 (Eastern Daylight Time),721453.9000005722,A,flowerenter,I,enter,423,2,4315.900000572205,717138.0,9024,WL,A,1.0
2,5.483999967575073,learn,54516.00003242493,Thu Sep 11 2025 15:23:53 GMT-0400 (Eastern Daylight Time),722621.1000003815,A,b,I,b,1147,2,1166.6999998092651,721454.4000005722,9024,WL,A,2.0
2,6.066999912261963,learn,53933.00008773804,Thu Sep 11 2025 15:23:53 GMT-0400 (Eastern Daylight Time),723204.4000005722,A,bo,I,o,568,2,1750.0,721454.4000005722,9024,WL,A,2.0
2,6.283999919891357,learn,53716.00008010864,Thu Sep 11 2025 15:23:53 GMT-0400 (Eastern Daylight Time),723421.1000003815,A,boo,I,o,192,2,1966.6999998092651,721454.4000005722,9024,WL,A,2.0
2,6.516999959945679,learn,53483.00004005432,Thu Sep 11 2025 15:23:53 GMT-0400 (Eastern Daylight Time),723654.4000005722,A,book,I,k,215,2,2200.0,721454.4000005722,9024,WL,A,2.0
2,7.066999912261963,learn,52933.00008773804,Thu Sep 11 2025 15:23:53 GMT-0400 (Eastern Daylight Time),724203.9000005722,A,bookenter,I,enter,526,2,2749.5,721454.4000005722,9024,WL,A,2.0
2,8.150000095367432,learn,51849.99990463257,Thu Sep 11 2025 15:23:53 GMT-0400 (Eastern Daylight Time),725287.7000007629,A,h,I,h,1069,2,1083.4000005722046,724204.3000001907,9024,WL,A,3.0
2,8.58299994468689,learn,51417.00005531311,Thu Sep 11 2025 15:23:53 GMT-0400 (Eastern Daylight Time),725720.6000003815,A,ha,I,a,412,2,1516.3000001907349,724204.3000001907,9024,WL,A,3.0
2,9.049999952316284,learn,50950.000047683716,Thu Sep 11 2025 15:23:53 GMT-0400 (Eastern Daylight Time),726187.6000003815,A,har,I,r,448,2,1983.3000001907349,724204.3000001907,9024,WL,A,3.0
2,9.450000047683716,learn,50549.999952316284,Thu Sep 11 2025 15:23:53 GMT-0400 (Eastern Daylight Time),726587.6000003815,A,harp,I,p,377,2,2383.300000190735,724204.3000001907,9024,WL,A,3.0
2,10.16700005531311,learn,49832.99994468689,Thu Sep 11 2025 15:23:53 GMT-0400 (Eastern Daylight Time),727303.8000001907,A,harpenter,I,enter,697,2,3099.5,724204.3000001907,9024,WL,A,3.0
2,11.200000047683716,learn,48799.999952316284,Thu Sep 11 2025 15:23:53 GMT-0400 (Eastern Daylight Time),728337.5,A,f,I,f,1024,2,1033.3999996185303,727304.1000003815,9024,WL,A,4.0
2,11.41700005531311,learn,48582.99994468689,Thu Sep 11 2025 15:23:53 GMT-0400 (Eastern Daylight Time),728554.5,A,fi,I,i,188,2,1250.3999996185303,727304.1000003815,9024,WL,A,4.0
2,11.766999959945679,learn,48233.00004005432,Thu Sep 11 2025 15:23:53 GMT-0400 (Eastern Daylight Time),728904.4000005722,A,fin,I,n,330,2,1600.3000001907349,727304.1000003815,9024,WL,A,4.0
2,12.400000095367432,learn,47599.99990463257,Thu Sep 11 2025 15:23:53 GMT-0400 (Eastern Daylight Time),729537.6000003815,A,fing,I,g,621,2,2233.5,727304.1000003815,9024,WL,A,4.0
2,12.934000015258789,learn,47065.99998474121,Thu Sep 11 2025 15:23:53 GMT-0400 (Eastern Daylight Time),730071.0,A,finge,I,e,516,2,2766.8999996185303,727304.1000003815,9024,WL,A,4.0
2,13.266999959945679,learn,46733.00004005432,Thu Sep 11 2025 15:23:53 GMT-0400 (Eastern Daylight Time),730404.4000005722,A,finger,I,r,319,2,3100.300000190735,727304.1000003815,9024,WL,A,4.0
2,13.632999897003174,learn,46367.000102996826,Thu Sep 11 2025 15:23:53 GMT-0400 (Eastern Daylight Time),730770.5,A,fingerenter,I,enter,353,2,3466.3999996185303,727304.1000003815,9024,WL,A,4.0
2,14.634000062942505,learn,45365.999937057495,Thu Sep 11 2025 15:23:53 GMT-0400 (Eastern Daylight Time),731770.9000005722,A,r,I,r,982,2,1000.1000003814697,730770.8000001907,9024,WL,A,5.0
2,14.967000007629395,learn,45032.999992370605,Thu Sep 11 2025 15:23:53 GMT-0400 (Eastern Daylight Time),732104.3000001907,A,ru,I,u,314,2,1333.5,730770.8000001907,9024,WL,A,5.0
2,15.783999919891357,learn,44216.00008010864,Thu Sep 11 2025 15:23:53 GMT-0400 (Eastern Daylight Time),732921.1000003815,A,rug,I,g,796,2,2150.300000190735,730770.8000001907,9024,WL,A,5.0
2,16.616999864578247,learn,43383.00013542175,Thu Sep 11 2025 15:23:53 GMT-0400 (Eastern Daylight Time),733754.0,A,rugenter,I,enter,810,2,2983.199999809265,730770.8000001907,9024,WL,A,5.0
2,18.0,learn,42000.0,Thu Sep 11 2025 15:23:53 GMT-0400 (Eastern Daylight Time),735137.6000003815,A,n,I,n,1375,2,1383.1999998092651,733754.4000005722,9024,WL,A,6.0
2,18.816999912261963,learn,41183.00008773804,Thu Sep 11 2025 15:23:53 GMT-0400 (Eastern Daylight Time),735954.3000001907,A,,I,backspace,804,2,2199.8999996185303,733754.4000005722,9024,WL,A,6.0
2,19.26699995994568,learn,40733.00004005432,Thu Sep 11 2025 15:23:53 GMT-0400 (Eastern Daylight Time),736404.6000003815,A,m,I,m,435,2,2650.199999809265,733754.4000005722,9024,WL,A,6.0
2,19.566999912261963,learn,40433.00008773804,Thu Sep 11 2025 15:23:53 GMT-0400 (Eastern Daylight Time),736704.1000003815,A,me,I,e,288,2,2949.699999809265,733754.4000005722,9024,WL,A,6.0
2,20.299999952316284,learn,39700.000047683716,Thu Sep 11 2025 15:23:53 GMT-0400 (Eastern Daylight Time),737437.7000007629,A,mea,I,a,710,2,3683.300000190735,733754.4000005722,9024,WL,A,6.0
2,20.73300004005432,learn,39266.99995994568,Thu Sep 11 2025 15:23:53 GMT-0400 (Eastern Daylight Time),737870.5,A,mead,I,d,407,2,4116.099999427795,733754.4000005722,9024,WL,A,6.0
2,21.08399987220764,learn,38916.00012779236,Thu Sep 11 2025 15:23:53 GMT-0400 (Eastern Daylight Time),738221.1000003815,A,meado,I,o,329,2,4466.699999809265,733754.4000005722,9024,WL,A,6.0
2,21.549999952316284,learn,38450.000047683716,Thu Sep 11 2025 15:23:53 GMT-0400 (Eastern Daylight Time),738687.5,A,meadow,I,w,454,2,4933.099999427795,733754.4000005722,9024,WL,A,6.0
2,22.066999912261963,learn,37933.00008773804,Thu Sep 11 2025 15:23:53 GMT-0400 (Eastern Daylight Time),739203.9000005722,A,meadowenter,I,enter,503,2,5449.5,733754.4000005722,9024,WL,A,6.0
2,25.366999864578247,learn,34633.00013542175,Thu Sep 11 2025 15:23:53 GMT-0400 (Eastern Daylight Time),742504.4000005722,A,a,I,a,3284,2,3300.199999809265,739204.2000007629,9024,WL,A,7.0
2,25.799999952316284,learn,34200.000047683716,Thu Sep 11 2025 15:23:53 GMT-0400 (Eastern Daylight Time),742937.3000001907,A,ap,I,p,410,2,3733.0999994277954,739204.2000007629,9024,WL,A,7.0
2,26.033999919891357,learn,33966.00008010864,Thu Sep 11 2025 15:23:53 GMT-0400 (Eastern Daylight Time),743171.0,A,app,I,p,222,2,3966.7999992370605,739204.2000007629,9024,WL,A,7.0
2,26.33399987220764,learn,33666.00012779236,Thu Sep 11 2025 15:23:53 GMT-0400 (Eastern Daylight Time),743471.3000001907,A,appl,I,l,289,2,4267.099999427795,739204.2000007629,9024,WL,A,7.0
2,26.733999967575073,learn,33266.00003242493,Thu Sep 11 2025 15:23:53 GMT-0400 (Eastern Daylight Time),743871.0,A,apple,I,e,375,2,4666.799999237061,739204.2000007629,9024,WL,A,7.0
2,27.282999992370605,learn,32717.000007629395,Thu Sep 11 2025 15:23:53 GMT-0400 (Eastern Daylight Time),744420.5,A,appleenter,I,enter,533,2,5216.299999237061,739204.2000007629,9024,WL,A,7.0
2,28.233999967575073,learn,31766.000032424927,Thu Sep 11 2025 15:23:53 GMT-0400 (Eastern Daylight Time),745371.1000003815,A,r,I,r,932,2,950.1999998092651,744420.9000005722,9024,WL,A,8.0
2,28.76699995994568,learn,31233.00004005432,Thu Sep 11 2025 15:23:53 GMT-0400 (Eastern Daylight Time),745904.2000007629,A,ra,I,a,522,2,1483.3000001907349,744420.9000005722,9024,WL,A,8.0
2,29.26699995994568,learn,30733.00004005432,Thu Sep 11 2025 15:23:53 GMT-0400 (Eastern Daylight Time),746404.3000001907,A,rat,I,t,485,2,1983.3999996185303,744420.9000005722,9024,WL,A,8.0
2,29.5,learn,30500.0,Thu Sep 11 2025 15:23:53 GMT-0400 (Eastern Daylight Time),746637.8000001907,A,ratt,I,t,208,2,2216.8999996185303,744420.9000005722,9024,WL,A,8.0
2,29.76699995994568,learn,30233.00004005432,Thu Sep 11 2025 15:23:53 GMT-0400 (Eastern Daylight Time),746904.3000001907,A,rattl,I,l,247,2,2483.3999996185303,744420.9000005722,9024,WL,A,8.0
2,30.134000062942505,learn,29865.999937057495,Thu Sep 11 2025 15:23:53 GMT-0400 (Eastern Daylight Time),747270.9000005722,A,rattle,I,e,349,2,2850.0,744420.9000005722,9024,WL,A,8.0
2,30.802000045776367,learn,29197.999954223633,Thu Sep 11 2025 15:23:53 GMT-0400 (Eastern Daylight Time),747939.1000003815,A,rattleenter,I,enter,654,2,3518.199999809265,744420.9000005722,9024,WL,A,8.0
2,35.41700005531311,learn,24582.99994468689,Thu Sep 11 2025 15:23:53 GMT-0400 (Eastern Daylight Time),752554.4000005722,A,r,I,r,4597,2,4615.0,747939.4000005722,9024,WL,A,9.0
2,35.76699995994568,learn,24233.00004005432,Thu Sep 11 2025 15:23:53 GMT-0400 (Eastern Daylight Time),752904.4000005722,A,ru,I,u,330,2,4965.0,747939.4000005722,9024,WL,A,9.0
2,36.28399991989136,learn,23716.000080108643,Thu Sep 11 2025 15:23:53 GMT-0400 (Eastern Daylight Time),753421.1000003815,A,rug,I,g,491,2,5481.699999809265,747939.4000005722,9024,WL,A,9.0
2,36.66700005531311,learn,23332.99994468689,Thu Sep 11 2025 15:23:53 GMT-0400 (Eastern Daylight Time),753803.9000005722,A,rugenter,I,enter,350,2,5864.5,747939.4000005722,9024,WL,A,9.0
2,43.050999879837036,learn,16949.000120162964,Thu Sep 11 2025 15:23:53 GMT-0400 (Eastern Daylight Time),760187.8000001907,A,t,I,t,6365,2,6383.5,753804.3000001907,9024,WL,A,10.0
2,43.40000009536743,learn,16599.99990463257,Thu Sep 11 2025 15:23:53 GMT-0400 (Eastern Daylight Time),760537.8000001907,A,tr,I,r,330,2,6733.5,753804.3000001907,9024,WL,A,10.0
2,43.98300004005432,learn,16016.999959945679,Thu Sep 11 2025 15:23:53 GMT-0400 (Eastern Daylight Time),761120.6000003815,A,tra,I,a,570,2,7316.300000190735,753804.3000001907,9024,WL,A,10.0
2,44.26699995994568,learn,15733.000040054321,Thu Sep 11 2025 15:23:53 GMT-0400 (Eastern Daylight Time),761404.5,A,trai,I,i,263,2,7600.199999809265,753804.3000001907,9024,WL,A,10.0
2,45.41700005531311,learn,14582.99994468689,Thu Sep 11 2025 15:23:53 GMT-0400 (Eastern Daylight Time),762554.4000005722,A,train,I,n,1128,2,8750.10000038147,753804.3000001907,9024,WL,A,10.0
2,45.967000007629395,learn,14032.999992370605,Thu Sep 11 2025 15:23:53 GMT-0400 (Eastern Daylight Time),763104.8000001907,A,trainenter,I,enter,538,2,9300.5,753804.3000001907,9024,WL,A,10.0
2,55.41700005531311,learn,4582.99994468689,Thu Sep 11 2025 15:23:53 GMT-0400 (Eastern Daylight Time),772554.5,A,c,I,c,9432,2,9449.5,763105.0,9024,WL,A,11.0
2,55.68300008773804,learn,4316.999912261963,Thu Sep 11 2025 15:23:53 GMT-0400 (Eastern Daylight Time),772820.8000001907,A,ch,I,h,250,2,9715.800000190735,763105.0,9024,WL,A,11.0
2,56.217000007629395,learn,3782.9999923706055,Thu Sep 11 2025 15:23:53 GMT-0400 (Eastern Daylight Time),773354.5,A,chi,I,i,514,2,10249.5,763105.0,9024,WL,A,11.0
2,56.950000047683716,learn,3049.999952316284,Thu Sep 11 2025 15:23:53 GMT-0400 (Eastern Daylight Time),774087.7000007629,A,chim,I,m,714,2,10982.70000076294,763105.0,9024,WL,A,11.0
2,57.33399987220764,learn,2666.0001277923584,Thu Sep 11 2025 15:23:53 GMT-0400 (Eastern Daylight Time),774471.1000003815,A,chimn,I,n,365,2,11366.10000038147,763105.0,9024,WL,A,11.0
2,57.76699995994568,learn,2233.0000400543213,Thu Sep 11 2025 15:23:53 GMT-0400 (Eastern Daylight Time),774904.6000003815,A,chimne,I,e,414,2,11799.60000038147,763105.0,9024,WL,A,11.0
2,58.11699986457825,learn,1883.000135421753,Thu Sep 11 2025 15:23:53 GMT-0400 (Eastern Daylight Time),775254.0,A,chimney,I,y,332,2,12149.0,763105.0,9024,WL,A,11.0
2,58.66700005531311,learn,1332.9999446868896,Thu Sep 11 2025 15:23:53 GMT-0400 (Eastern Daylight Time),775803.9000005722,A,chimneyenter,I,enter,529,2,12698.900000572205,763105.0,9024,WL,A,11.0
2,60.01699995994568,learn,-16.99995994567871,Thu Sep 11 2025 15:23:53 GMT-0400 (Eastern Daylight Time),777154.6000003815,A,None,I,None,1344,2,1350.3000001907349,775804.3000001907,9024,WL,A,12.0
3,2.3999998569488525,learn,57600.00014305115,Thu Sep 11 2025 15:23:53 GMT-0400 (Eastern Daylight Time),852454.4000005722,A,f,I,f,2385,2,2399.6000003814697,850054.8000001907,9024,WL,A,1.0
3,2.6499998569488525,learn,57350.00014305115,Thu Sep 11 2025 15:23:53 GMT-0400 (Eastern Daylight Time),852704.3000001907,A,fl,I,l,239,2,2649.5,850054.8000001907,9024,WL,A,1.0
3,2.9169998168945312,learn,57083.00018310547,Thu Sep 11 2025 15:23:53 GMT-0400 (Eastern Daylight Time),852971.2000007629,A,flo,I,o,236,2,2916.4000005722046,850054.8000001907,9024,WL,A,1.0
3,3.3339998722076416,learn,56666.00012779236,Thu Sep 11 2025 15:23:53 GMT-0400 (Eastern Daylight Time),853387.8000001907,A,flow,I,w,394,2,3333.0,850054.8000001907,9024,WL,A,1.0
3,3.6499998569488525,learn,56350.00014305115,Thu Sep 11 2025 15:23:53 GMT-0400 (Eastern Daylight Time),853704.4000005722,A,flowe,I,e,298,2,3649.6000003814697,850054.8000001907,9024,WL,A,1.0
3,3.9169998168945312,learn,56083.00018310547,Thu Sep 11 2025 15:23:53 GMT-0400 (Eastern Daylight Time),853971.2000007629,A,flower,I,r,253,2,3916.4000005722046,850054.8000001907,9024,WL,A,1.0
3,4.632999897003174,learn,55367.000102996826,Thu Sep 11 2025 15:23:53 GMT-0400 (Eastern Daylight Time),854687.1000003815,A,flowerenter,I,enter,706,2,4632.300000190735,850054.8000001907,9024,WL,A,1.0
3,5.632999897003174,learn,54367.000102996826,Thu Sep 11 2025 15:23:53 GMT-0400 (Eastern Daylight Time),855687.7000007629,A,b,I,b,986,2,1000.1000003814697,854687.6000003815,9024,WL,A,2.0
3,6.2170000076293945,learn,53782.999992370605,Thu Sep 11 2025 15:23:53 GMT-0400 (Eastern Daylight Time),856271.1000003815,A,bo,I,o,556,2,1583.5,854687.6000003815,9024,WL,A,2.0
3,7.166999816894531,learn,52833.00018310547,Thu Sep 11 2025 15:23:53 GMT-0400 (Eastern Daylight Time),857220.9000005722,A,boo,I,o,934,2,2533.300000190735,854687.6000003815,9024,WL,A,2.0
3,7.599999904632568,learn,52400.00009536743,Thu Sep 11 2025 15:23:53 GMT-0400 (Eastern Daylight Time),857654.4000005722,A,book,I,k,409,2,2966.800000190735,854687.6000003815,9024,WL,A,2.0
3,8.032999992370605,learn,51967.000007629395,Thu Sep 11 2025 15:23:53 GMT-0400 (Eastern Daylight Time),858087.3000001907,A,bookenter,I,enter,413,2,3399.699999809265,854687.6000003815,9024,WL,A,2.0
3,8.733000040054321,learn,51266.99995994568,Thu Sep 11 2025 15:23:53 GMT-0400 (Eastern Daylight Time),858787.8000001907,A,b,I,b,689,2,700.1999998092651,858087.6000003815,9024,WL,A,3.0
3,9.083999872207642,learn,50916.00012779236,Thu Sep 11 2025 15:23:53 GMT-0400 (Eastern Daylight Time),859137.9000005722,A,bu,I,u,338,2,1050.3000001907349,858087.6000003815,9024,WL,A,3.0
3,9.533999919891357,learn,50466.00008010864,Thu Sep 11 2025 15:23:53 GMT-0400 (Eastern Daylight Time),859587.8000001907,A,but,I,t,436,2,1500.1999998092651,858087.6000003815,9024,WL,A,3.0
3,9.783999919891357,learn,50216.00008010864,Thu Sep 11 2025 15:23:53 GMT-0400 (Eastern Daylight Time),859837.9000005722,A,butt,I,t,224,2,1750.3000001907349,858087.6000003815,9024,WL,A,3.0
3,9.934000015258789,learn,50065.99998474121,Thu Sep 11 2025 15:23:53 GMT-0400 (Eastern Daylight Time),859987.8000001907,A,butto,I,o,135,2,1900.1999998092651,858087.6000003815,9024,WL,A,3.0
3,10.366999864578247,learn,49633.00013542175,Thu Sep 11 2025 15:23:53 GMT-0400 (Eastern Daylight Time),860421.1000003815,A,button,I,n,410,2,2333.5,858087.6000003815,9024,WL,A,3.0
3,10.866999864578247,learn,49133.00013542175,Thu Sep 11 2025 15:23:53 GMT-0400 (Eastern Daylight Time),860921.7000007629,A,buttonenter,I,enter,480,2,2834.1000003814697,858087.6000003815,9024,WL,A,3.0
3,11.5,learn,48500.0,Thu Sep 11 2025 15:23:53 GMT-0400 (Eastern Daylight Time),861554.5,A,h,I,h,623,2,632.3999996185303,860922.1000003815,9024,WL,A,4.0
3,11.816999912261963,learn,48183.00008773804,Thu Sep 11 2025 15:23:53 GMT-0400 (Eastern Daylight Time),861871.3000001907,A,ha,I,a,305,2,949.1999998092651,860922.1000003815,9024,WL,A,4.0
3,12.25,learn,47750.0,Thu Sep 11 2025 15:23:53 GMT-0400 (Eastern Daylight Time),862304.3000001907,A,har,I,r,423,2,1382.1999998092651,860922.1000003815,9024,WL,A,4.0
3,12.616999864578247,learn,47383.00013542175,Thu Sep 11 2025 15:23:53 GMT-0400 (Eastern Daylight Time),862671.4000005722,A,harp,I,p,358,2,1749.3000001907349,860922.1000003815,9024,WL,A,4.0
3,13.266000032424927,learn,46733.99996757507,Thu Sep 11 2025 15:23:53 GMT-0400 (Eastern Daylight Time),863320.7000007629,A,harpenter,I,enter,628,2,2398.6000003814697,860922.1000003815,9024,WL,A,4.0
3,13.949999809265137,learn,46050.00019073486,Thu Sep 11 2025 15:23:53 GMT-0400 (Eastern Daylight Time),864004.5,A,f,I,f,672,2,683.5,863321.0,9024,WL,A,5.0
3,14.217000007629395,learn,45782.999992370605,Thu Sep 11 2025 15:23:53 GMT-0400 (Eastern Daylight Time),864271.1000003815,A,fi,I,i,241,2,950.1000003814697,863321.0,9024,WL,A,5.0
3,14.583999872207642,learn,45416.00012779236,Thu Sep 11 2025 15:23:53 GMT-0400 (Eastern Daylight Time),864637.8000001907,A,fin,I,n,340,2,1316.8000001907349,863321.0,9024,WL,A,5.0
3,15.016999959945679,learn,44983.00004005432,Thu Sep 11 2025 15:23:53 GMT-0400 (Eastern Daylight Time),865071.1000003815,A,fing,I,g,405,2,1750.1000003814697,863321.0,9024,WL,A,5.0
3,15.399999856948853,learn,44600.00014305115,Thu Sep 11 2025 15:23:53 GMT-0400 (Eastern Daylight Time),865454.4000005722,A,finge,I,e,356,2,2133.4000005722046,863321.0,9024,WL,A,5.0
3,15.682999849319458,learn,44317.00015068054,Thu Sep 11 2025 15:23:53 GMT-0400 (Eastern Daylight Time),865737.8000001907,A,finger,I,r,262,2,2416.800000190735,863321.0,9024,WL,A,5.0
3,16.08299994468689,learn,43917.00005531311,Thu Sep 11 2025 15:23:53 GMT-0400 (Eastern Daylight Time),866137.4000005722,A,fingerenter,I,enter,379,2,2816.4000005722046,863321.0,9024,WL,A,5.0
3,16.66699981689453,learn,43333.00018310547,Thu Sep 11 2025 15:23:53 GMT-0400 (Eastern Daylight Time),866721.0,A,h,I,h,575,2,583.2999992370605,866137.7000007629,9024,WL,A,6.0
3,16.967000007629395,learn,43032.999992370605,Thu Sep 11 2025 15:23:53 GMT-0400 (Eastern Daylight Time),867021.1000003815,A,ha,I,a,276,2,883.3999996185303,866137.7000007629,9024,WL,A,6.0
3,17.399999856948853,learn,42600.00014305115,Thu Sep 11 2025 15:23:53 GMT-0400 (Eastern Daylight Time),867454.5,A,har,I,r,406,2,1316.7999992370605,866137.7000007629,9024,WL,A,6.0
3,17.816999912261963,learn,42183.00008773804,Thu Sep 11 2025 15:23:53 GMT-0400 (Eastern Daylight Time),867871.4000005722,A,harp,I,p,406,2,1733.6999998092651,866137.7000007629,9024,WL,A,6.0
3,18.382999897003174,learn,41617.000102996826,Thu Sep 11 2025 15:23:53 GMT-0400 (Eastern Daylight Time),868437.3000001907,A,harpenter,I,enter,550,2,2299.5999994277954,866137.7000007629,9024,WL,A,6.0
3,19.549999952316284,learn,40450.000047683716,Thu Sep 11 2025 15:23:53 GMT-0400 (Eastern Daylight Time),869604.5,A,f,I,f,1155,2,1166.8999996185303,868437.6000003815,9024,WL,A,7.0
3,19.84999990463257,learn,40150.00009536743,Thu Sep 11 2025 15:23:53 GMT-0400 (Eastern Daylight Time),869904.3000001907,A,fl,I,l,287,2,1466.6999998092651,868437.6000003815,9024,WL,A,7.0
3,20.149999856948853,learn,39850.00014305115,Thu Sep 11 2025 15:23:53 GMT-0400 (Eastern Daylight Time),870204.5,A,flo,I,o,275,2,1766.8999996185303,868437.6000003815,9024,WL,A,7.0
3,20.59999990463257,learn,39400.00009536743,Thu Sep 11 2025 15:23:53 GMT-0400 (Eastern Daylight Time),870654.5,A,flow,I,w,425,2,2216.8999996185303,868437.6000003815,9024,WL,A,7.0
3,20.967000007629395,learn,39032.999992370605,Thu Sep 11 2025 15:23:53 GMT-0400 (Eastern Daylight Time),871021.2000007629,A,flowe,I,e,341,2,2583.6000003814697,868437.6000003815,9024,WL,A,7.0
3,21.26699995994568,learn,38733.00004005432,Thu Sep 11 2025 15:23:53 GMT-0400 (Eastern Daylight Time),871320.9000005722,A,flower,I,r,279,2,2883.300000190735,868437.6000003815,9024,WL,A,7.0
3,21.715999841690063,learn,38284.00015830994,Thu Sep 11 2025 15:23:53 GMT-0400 (Eastern Daylight Time),871770.7000007629,A,flowerenter,I,enter,428,2,3333.1000003814697,868437.6000003815,9024,WL,A,7.0
3,23.08299994468689,learn,36917.00005531311,Thu Sep 11 2025 15:23:53 GMT-0400 (Eastern Daylight Time),873137.8000001907,A,h,I,h,1358,2,1366.6999998092651,871771.1000003815,9024,WL,A,8.0
3,23.34999990463257,learn,36650.00009536743,Thu Sep 11 2025 15:23:53 GMT-0400 (Eastern Daylight Time),873404.5,A,ha,I,a,242,2,1633.3999996185303,871771.1000003815,9024,WL,A,8.0
3,23.75,learn,36250.0,Thu Sep 11 2025 15:23:53 GMT-0400 (Eastern Daylight Time),873804.5,A,har,I,r,369,2,2033.3999996185303,871771.1000003815,9024,WL,A,8.0
3,24.18400001525879,learn,35815.99998474121,Thu Sep 11 2025 15:23:53 GMT-0400 (Eastern Daylight Time),874237.9000005722,A,harp,I,p,408,2,2466.800000190735,871771.1000003815,9024,WL,A,8.0
3,24.715999841690063,learn,35284.00015830994,Thu Sep 11 2025 15:23:53 GMT-0400 (Eastern Daylight Time),874770.7000007629,A,harpenter,I,enter,519,2,2999.6000003814697,871771.1000003815,9024,WL,A,8.0
3,25.432999849319458,learn,34567.00015068054,Thu Sep 11 2025 15:23:53 GMT-0400 (Eastern Daylight Time),875487.6000003815,A,r,I,r,710,2,716.5,874771.1000003815,9024,WL,A,9.0
3,25.75,learn,34250.0,Thu Sep 11 2025 15:23:53 GMT-0400 (Eastern Daylight Time),875804.6000003815,A,ru,I,u,292,2,1033.5,874771.1000003815,9024,WL,A,9.0
3,26.699999809265137,learn,33300.00019073486,Thu Sep 11 2025 15:23:53 GMT-0400 (Eastern Daylight Time),876754.3000001907,A,rug,I,g,934,2,1983.1999998092651,874771.1000003815,9024,WL,A,9.0
3,27.115999937057495,learn,32884.000062942505,Thu Sep 11 2025 15:23:53 GMT-0400 (Eastern Daylight Time),877170.6000003815,A,rugenter,I,enter,403,2,2399.5,874771.1000003815,9024,WL,A,9.0
3,27.76699995994568,learn,32233.00004005432,Thu Sep 11 2025 15:23:53 GMT-0400 (Eastern Daylight Time),877821.2000007629,A,a,I,a,630,2,650.2000007629395,877171.0,9024,WL,A,10.0
3,28.199999809265137,learn,31800.000190734863,Thu Sep 11 2025 15:23:53 GMT-0400 (Eastern Daylight Time),878254.5,A,ap,I,p,406,2,1083.5,877171.0,9024,WL,A,10.0
3,28.399999856948853,learn,31600.000143051147,Thu Sep 11 2025 15:23:53 GMT-0400 (Eastern Daylight Time),878454.5,A,app,I,p,183,2,1283.5,877171.0,9024,WL,A,10.0
3,28.66699981689453,learn,31333.00018310547,Thu Sep 11 2025 15:23:53 GMT-0400 (Eastern Daylight Time),878721.1000003815,A,appl,I,l,247,2,1550.1000003814697,877171.0,9024,WL,A,10.0
3,29.01699995994568,learn,30983.00004005432,Thu Sep 11 2025 15:23:53 GMT-0400 (Eastern Daylight Time),879071.5,A,apple,I,e,340,2,1900.5,877171.0,9024,WL,A,10.0
3,29.41599988937378,learn,30584.00011062622,Thu Sep 11 2025 15:23:53 GMT-0400 (Eastern Daylight Time),879470.6000003815,A,appleenter,I,enter,372,2,2299.6000003814697,877171.0,9024,WL,A,10.0
3,29.949999809265137,learn,30050.000190734863,Thu Sep 11 2025 15:23:53 GMT-0400 (Eastern Daylight Time),880004.4000005722,A,g,I,g,522,2,533.4000005722046,879471.0,9024,WL,A,11.0
3,30.217000007629395,learn,29782.999992370605,Thu Sep 11 2025 15:23:53 GMT-0400 (Eastern Daylight Time),880271.0,A,gp,I,p,236,2,800.0,879471.0,9024,WL,A,11.0
3,31.949999809265137,learn,28050.000190734863,Thu Sep 11 2025 15:23:53 GMT-0400 (Eastern Daylight Time),882004.5,A,g,I,backspace,1719,2,2533.5,879471.0,9024,WL,A,11.0
3,32.33299994468689,learn,27667.00005531311,Thu Sep 11 2025 15:23:53 GMT-0400 (Eastern Daylight Time),882387.6000003815,A,go,I,o,368,2,2916.6000003814697,879471.0,9024,WL,A,11.0
3,32.61699986457825,learn,27383.000135421753,Thu Sep 11 2025 15:23:53 GMT-0400 (Eastern Daylight Time),882671.0,A,gol,I,l,249,2,3200.0,879471.0,9024,WL,A,11.0
3,33.632999897003174,learn,26367.000102996826,Thu Sep 11 2025 15:23:53 GMT-0400 (Eastern Daylight Time),883687.8000001907,A,gold,I,d,998,2,4216.800000190735,879471.0,9024,WL,A,11.0
3,33.94999980926514,learn,26050.000190734863,Thu Sep 11 2025 15:23:53 GMT-0400 (Eastern Daylight Time),884004.0,A,goldenter,I,enter,300,2,4533.0,879471.0,9024,WL,A,11.0
3,36.08399987220764,learn,23916.00012779236,Thu Sep 11 2025 15:23:53 GMT-0400 (Eastern Daylight Time),886137.8000001907,A,c,I,c,2117,2,2133.3999996185303,884004.4000005722,9024,WL,A,12.0
3,36.5,learn,23500.0,Thu Sep 11 2025 15:23:53 GMT-0400 (Eastern Daylight Time),886554.3000001907,A,ch,I,h,393,2,2549.8999996185303,884004.4000005722,9024,WL,A,12.0
3,36.967000007629395,learn,23032.999992370605,Thu Sep 11 2025 15:23:53 GMT-0400 (Eastern Daylight Time),887021.0,A,cho,I,o,444,2,3016.5999994277954,884004.4000005722,9024,WL,A,12.0
3,37.68400001525879,learn,22315.99998474121,Thu Sep 11 2025 15:23:53 GMT-0400 (Eastern Daylight Time),887737.9000005722,A,ch,I,backspace,696,2,3733.5,884004.4000005722,9024,WL,A,12.0
3,38.06699991226196,learn,21933.000087738037,Thu Sep 11 2025 15:23:53 GMT-0400 (Eastern Daylight Time),888121.3000001907,A,chi,I,i,364,2,4116.89999961853,884004.4000005722,9024,WL,A,12.0
3,39.217000007629395,learn,20782.999992370605,Thu Sep 11 2025 15:23:53 GMT-0400 (Eastern Daylight Time),889271.2000007629,A,chim,I,m,1131,2,5266.800000190735,884004.4000005722,9024,WL,A,12.0
3,39.91699981689453,learn,20083.00018310547,Thu Sep 11 2025 15:23:53 GMT-0400 (Eastern Daylight Time),889971.2000007629,A,chimn,I,n,687,2,5966.800000190735,884004.4000005722,9024,WL,A,12.0
3,40.467000007629395,learn,19532.999992370605,Thu Sep 11 2025 15:23:53 GMT-0400 (Eastern Daylight Time),890521.2000007629,A,chimne,I,e,531,2,6516.800000190735,884004.4000005722,9024,WL,A,12.0
3,41.23399996757507,learn,18766.000032424927,Thu Sep 11 2025 15:23:53 GMT-0400 (Eastern Daylight Time),891287.9000005722,A,chimney,I,y,748,2,7283.5,884004.4000005722,9024,WL,A,12.0
3,42.782999992370605,learn,17217.000007629395,Thu Sep 11 2025 15:23:53 GMT-0400 (Eastern Daylight Time),892837.3000001907,A,chimneyenter,I,enter,1533,2,8832.89999961853,884004.4000005722,9024,WL,A,12.0
3,45.41699981689453,learn,14583.000183105469,Thu Sep 11 2025 15:23:53 GMT-0400 (Eastern Daylight Time),895471.4000005722,A,r,I,r,2627,2,2633.800000190735,892837.6000003815,9024,WL,A,13.0
3,45.83299994468689,learn,14167.00005531311,Thu Sep 11 2025 15:23:53 GMT-0400 (Eastern Daylight Time),895887.5,A,ra,I,a,404,2,3049.8999996185303,892837.6000003815,9024,WL,A,13.0
3,46.33299994468689,learn,13667.00005531311,Thu Sep 11 2025 15:23:53 GMT-0400 (Eastern Daylight Time),896387.7000007629,A,rat,I,t,485,2,3550.1000003814697,892837.6000003815,9024,WL,A,13.0
3,46.549999952316284,learn,13450.000047683716,Thu Sep 11 2025 15:23:53 GMT-0400 (Eastern Daylight Time),896604.3000001907,A,ratt,I,t,194,2,3766.699999809265,892837.6000003815,9024,WL,A,13.0
3,46.799999952316284,learn,13200.000047683716,Thu Sep 11 2025 15:23:53 GMT-0400 (Eastern Daylight Time),896854.6000003815,A,rattl,I,l,233,2,4017.0,892837.6000003815,9024,WL,A,13.0
3,47.16699981689453,learn,12833.000183105469,Thu Sep 11 2025 15:23:53 GMT-0400 (Eastern Daylight Time),897221.2000007629,A,rattle,I,e,349,2,4383.60000038147,892837.6000003815,9024,WL,A,13.0
3,47.58299994468689,learn,12417.00005531311,Thu Sep 11 2025 15:23:53 GMT-0400 (Eastern Daylight Time),897637.3000001907,A,rattleenter,I,enter,396,2,4799.699999809265,892837.6000003815,9024,WL,A,13.0
3,49.23399996757507,learn,10766.000032424927,Thu Sep 11 2025 15:23:53 GMT-0400 (Eastern Daylight Time),899287.8000001907,A,t,I,t,1636,2,1650.1999998092651,897637.6000003815,9024,WL,A,14.0
3,49.51699995994568,learn,10483.000040054321,Thu Sep 11 2025 15:23:53 GMT-0400 (Eastern Daylight Time),899571.2000007629,A,tr,I,r,267,2,1933.6000003814697,897637.6000003815,9024,WL,A,14.0
3,50.049999952316284,learn,9950.000047683716,Thu Sep 11 2025 15:23:53 GMT-0400 (Eastern Daylight Time),900104.6000003815,A,tra,I,a,515,2,2467.0,897637.6000003815,9024,WL,A,14.0
3,50.31699991226196,learn,9683.000087738037,Thu Sep 11 2025 15:23:53 GMT-0400 (Eastern Daylight Time),900371.2000007629,A,trai,I,i,251,2,2733.6000003814697,897637.6000003815,9024,WL,A,14.0
3,50.799999952316284,learn,9200.000047683716,Thu Sep 11 2025 15:23:53 GMT-0400 (Eastern Daylight Time),900854.6000003815,A,train,I,n,466,2,3217.0,897637.6000003815,9024,WL,A,14.0
3,51.299999952316284,learn,8700.000047683716,Thu Sep 11 2025 15:23:53 GMT-0400 (Eastern Daylight Time),901354.1000003815,A,trainenter,I,enter,474,2,3716.5,897637.6000003815,9024,WL,A,14.0
3,53.61699986457825,learn,6383.000135421753,Thu Sep 11 2025 15:23:53 GMT-0400 (Eastern Daylight Time),903671.1000003815,A,l,I,l,2303,2,2316.699999809265,901354.4000005722,9024,WL,A,15.0
3,53.89999985694885,learn,6100.0001430511475,Thu Sep 11 2025 15:23:53 GMT-0400 (Eastern Daylight Time),903954.4000005722,A,lo,I,o,269,2,2600.0,901354.4000005722,9024,WL,A,15.0
3,54.73300004005432,learn,5266.999959945679,Thu Sep 11 2025 15:23:53 GMT-0400 (Eastern Daylight Time),904787.8000001907,A,log,I,g,819,2,3433.3999996185303,901354.4000005722,9024,WL,A,15.0
3,55.31599998474121,learn,4684.000015258789,Thu Sep 11 2025 15:23:53 GMT-0400 (Eastern Daylight Time),905370.6000003815,A,logenter,I,enter,552,2,4016.199999809265,901354.4000005722,9024,WL,A,15.0
4,2.4670000076293945,learn,57532.999992370605,Thu Sep 11 2025 15:23:53 GMT-0400 (Eastern Daylight Time),978588.0,A,b,I,b,2445,2,2466.0999994277954,976121.9000005722,9024,WL,A,1.0
4,3.0,learn,57000.0,Thu Sep 11 2025 15:23:53 GMT-0400 (Eastern Daylight Time),979121.1000003815,A,bo,I,o,519,2,2999.199999809265,976121.9000005722,9024,WL,A,1.0
4,3.2170000076293945,learn,56782.999992370605,Thu Sep 11 2025 15:23:53 GMT-0400 (Eastern Daylight Time),979337.9000005722,A,boo,I,o,196,2,3216.0,976121.9000005722,9024,WL,A,1.0
4,3.5169999599456787,learn,56483.00004005432,Thu Sep 11 2025 15:23:53 GMT-0400 (Eastern Daylight Time),979637.9000005722,A,book,I,k,283,2,3516.0,976121.9000005722,9024,WL,A,1.0
4,4.166000127792358,learn,55833.99987220764,Thu Sep 11 2025 15:23:53 GMT-0400 (Eastern Daylight Time),980287.2000007629,A,bookenter,I,enter,639,2,4165.300000190735,976121.9000005722,9024,WL,A,1.0
4,5.117000102996826,learn,54882.999897003174,Thu Sep 11 2025 15:23:53 GMT-0400 (Eastern Daylight Time),981237.9000005722,A,f,I,f,938,2,950.1999998092651,980287.7000007629,9024,WL,A,2.0
4,5.483000040054321,learn,54516.99995994568,Thu Sep 11 2025 15:23:53 GMT-0400 (Eastern Daylight Time),981604.2000007629,A,fl,I,l,350,2,1316.5,980287.7000007629,9024,WL,A,2.0
4,5.816999912261963,learn,54183.00008773804,Thu Sep 11 2025 15:23:53 GMT-0400 (Eastern Daylight Time),981937.8000001907,A,flo,I,o,314,2,1650.0999994277954,980287.7000007629,9024,WL,A,2.0
4,6.450000047683716,learn,53549.999952316284,Thu Sep 11 2025 15:23:53 GMT-0400 (Eastern Daylight Time),982570.8000001907,A,floe,I,e,612,2,2283.0999994277954,980287.7000007629,9024,WL,A,2.0
4,6.882999897003174,learn,53117.000102996826,Thu Sep 11 2025 15:23:53 GMT-0400 (Eastern Daylight Time),983004.6000003815,A,floer,I,r,413,2,2716.8999996185303,980287.7000007629,9024,WL,A,2.0
4,7.299999952316284,learn,52700.000047683716,Thu Sep 11 2025 15:23:53 GMT-0400 (Eastern Daylight Time),983420.8000001907,A,floerenter,I,enter,392,2,3133.0999994277954,980287.7000007629,9024,WL,A,2.0
4,8.183000087738037,learn,51816.99991226196,Thu Sep 11 2025 15:23:53 GMT-0400 (Eastern Daylight Time),984304.3000001907,A,s,I,s,875,2,883.1999998092651,983421.1000003815,9024,WL,A,3.0
4,8.516999959945679,learn,51483.00004005432,Thu Sep 11 2025 15:23:53 GMT-0400 (Eastern Daylight Time),984637.8000001907,A,sa,I,a,309,2,1216.6999998092651,983421.1000003815,9024,WL,A,3.0
4,8.83299994468689,learn,51167.00005531311,Thu Sep 11 2025 15:23:53 GMT-0400 (Eastern Daylight Time),984954.6000003815,A,sal,I,l,296,2,1533.5,983421.1000003815,9024,WL,A,3.0
4,9.233000040054321,learn,50766.99995994568,Thu Sep 11 2025 15:23:53 GMT-0400 (Eastern Daylight Time),985354.6000003815,A,salt,I,t,377,2,1933.5,983421.1000003815,9024,WL,A,3.0
4,9.83299994468689,learn,50167.00005531311,Thu Sep 11 2025 15:23:53 GMT-0400 (Eastern Daylight Time),985954.1000003815,A,saltenter,I,enter,586,2,2533.0,983421.1000003815,9024,WL,A,3.0
4,10.566999912261963,learn,49433.00008773804,Thu Sep 11 2025 15:23:53 GMT-0400 (Eastern Daylight Time),986687.9000005722,A,h,I,h,726,2,733.5,985954.4000005722,9024,WL,A,4.0
4,10.867000102996826,learn,49132.999897003174,Thu Sep 11 2025 15:23:53 GMT-0400 (Eastern Daylight Time),986987.9000005722,A,ha,I,a,270,2,1033.5,985954.4000005722,9024,WL,A,4.0
4,11.33299994468689,learn,48667.00005531311,Thu Sep 11 2025 15:23:53 GMT-0400 (Eastern Daylight Time),987454.6000003815,A,har,I,r,441,2,1500.1999998092651,985954.4000005722,9024,WL,A,4.0
4,11.700000047683716,learn,48299.999952316284,Thu Sep 11 2025 15:23:53 GMT-0400 (Eastern Daylight Time),987821.2000007629,A,harp,I,p,342,2,1866.8000001907349,985954.4000005722,9024,WL,A,4.0
4,12.382999897003174,learn,47617.000102996826,Thu Sep 11 2025 15:23:53 GMT-0400 (Eastern Daylight Time),988504.1000003815,A,harpenter,I,enter,660,2,2549.699999809265,985954.4000005722,9024,WL,A,4.0
4,13.08299994468689,learn,46917.00005531311,Thu Sep 11 2025 15:23:53 GMT-0400 (Eastern Daylight Time),989204.6000003815,A,l,I,l,688,2,700.1999998092651,988504.4000005722,9024,WL,A,5.0
4,13.41700005531311,learn,46582.99994468689,Thu Sep 11 2025 15:23:53 GMT-0400 (Eastern Daylight Time),989538.0,A,lo,I,o,320,2,1033.5999994277954,988504.4000005722,9024,WL,A,5.0
4,13.933000087738037,learn,46066.99991226196,Thu Sep 11 2025 15:23:53 GMT-0400 (Eastern Daylight Time),990054.5,A,log,I,g,499,2,1550.0999994277954,988504.4000005722,9024,WL,A,5.0
4,14.382999897003174,learn,45617.000102996826,Thu Sep 11 2025 15:23:53 GMT-0400 (Eastern Daylight Time),990504.1000003815,A,logenter,I,enter,431,2,1999.6999998092651,988504.4000005722,9024,WL,A,5.0
4,16.33299994468689,learn,43667.00005531311,Thu Sep 11 2025 15:23:53 GMT-0400 (Eastern Daylight Time),992454.6000003815,A,s,I,s,1937,2,1950.1000003814697,990504.5,9024,WL,A,6.0
4,16.782999992370605,learn,43217.000007629395,Thu Sep 11 2025 15:23:53 GMT-0400 (Eastern Daylight Time),992904.6000003815,A,sa,I,a,431,2,2400.1000003814697,990504.5,9024,WL,A,6.0
4,17.15000009536743,learn,42849.99990463257,Thu Sep 11 2025 15:23:53 GMT-0400 (Eastern Daylight Time),993271.2000007629,A,sal,I,l,346,2,2766.7000007629395,990504.5,9024,WL,A,6.0
4,17.799999952316284,learn,42200.000047683716,Thu Sep 11 2025 15:23:53 GMT-0400 (Eastern Daylight Time),993921.1000003815,A,salt,I,t,638,2,3416.6000003814697,990504.5,9024,WL,A,6.0
4,18.266000032424927,learn,41733.99996757507,Thu Sep 11 2025 15:23:53 GMT-0400 (Eastern Daylight Time),994387.4000005722,A,saltenter,I,enter,451,2,3882.9000005722046,990504.5,9024,WL,A,6.0
4,18.882999897003174,learn,41117.000102996826,Thu Sep 11 2025 15:23:53 GMT-0400 (Eastern Daylight Time),995004.6000003815,A,g,I,g,597,2,616.8000001907349,994387.8000001907,9024,WL,A,7.0
4,19.282999992370605,learn,40717.000007629395,Thu Sep 11 2025 15:23:53 GMT-0400 (Eastern Daylight Time),995404.6000003815,A,go,I,o,377,2,1016.8000001907349,994387.8000001907,9024,WL,A,7.0
4,19.58299994468689,learn,40417.00005531311,Thu Sep 11 2025 15:23:53 GMT-0400 (Eastern Daylight Time),995704.4000005722,A,gol,I,l,280,2,1316.6000003814697,994387.8000001907,9024,WL,A,7.0
4,20.066999912261963,learn,39933.00008773804,Thu Sep 11 2025 15:23:53 GMT-0400 (Eastern Daylight Time),996187.8000001907,A,gold,I,d,460,2,1800.0,994387.8000001907,9024,WL,A,7.0
4,20.48300004005432,learn,39516.99995994568,Thu Sep 11 2025 15:23:53 GMT-0400 (Eastern Daylight Time),996604.1000003815,A,goldenter,I,enter,392,2,2216.300000190735,994387.8000001907,9024,WL,A,7.0
4,21.117000102996826,learn,38882.999897003174,Thu Sep 11 2025 15:23:53 GMT-0400 (Eastern Daylight Time),997237.9000005722,A,c,I,c,620,2,633.4000005722046,996604.5,9024,WL,A,8.0
4,21.33299994468689,learn,38667.00005531311,Thu Sep 11 2025 15:23:53 GMT-0400 (Eastern Daylight Time),997454.6000003815,A,ch,I,h,187,2,850.1000003814697,996604.5,9024,WL,A,8.0
4,21.782999992370605,learn,38217.000007629395,Thu Sep 11 2025 15:23:53 GMT-0400 (Eastern Daylight Time),997904.3000001907,A,chi,I,i,439,2,1299.8000001907349,996604.5,9024,WL,A,8.0
4,22.41700005531311,learn,37582.99994468689,Thu Sep 11 2025 15:23:53 GMT-0400 (Eastern Daylight Time),998537.9000005722,A,chim,I,m,613,2,1933.4000005722046,996604.5,9024,WL,A,8.0
4,22.83299994468689,learn,37167.00005531311,Thu Sep 11 2025 15:23:53 GMT-0400 (Eastern Daylight Time),998954.6000003815,A,chimn,I,n,396,2,2350.1000003814697,996604.5,9024,WL,A,8.0
4,23.34999990463257,learn,36650.00009536743,Thu Sep 11 2025 15:23:53 GMT-0400 (Eastern Daylight Time),999471.3000001907,A,chimne,I,e,506,2,2866.800000190735,996604.5,9024,WL,A,8.0
4,23.75,learn,36250.0,Thu Sep 11 2025 15:23:53 GMT-0400 (Eastern Daylight Time),999871.2000007629,A,chimney,I,y,377,2,3266.7000007629395,996604.5,9024,WL,A,8.0
4,24.282999992370605,learn,35717.000007629395,Thu Sep 11 2025 15:23:53 GMT-0400 (Eastern Daylight Time),1000404.1000003815,A,chimneyenter,I,enter,517,2,3799.6000003814697,996604.5,9024,WL,A,8.0
4,24.882999897003174,learn,35117.000102996826,Thu Sep 11 2025 15:23:53 GMT-0400 (Eastern Daylight Time),1001004.6000003815,A,r,I,r,581,2,600.1999998092651,1000404.4000005722,9024,WL,A,9.0
4,25.382999897003174,learn,34617.000102996826,Thu Sep 11 2025 15:23:53 GMT-0400 (Eastern Daylight Time),1001504.3000001907,A,ra,I,a,488,2,1099.8999996185303,1000404.4000005722,9024,WL,A,9.0
4,25.91600012779236,learn,34083.99987220764,Thu Sep 11 2025 15:23:53 GMT-0400 (Eastern Daylight Time),1002037.8000001907,A,rat,I,t,516,2,1633.3999996185303,1000404.4000005722,9024,WL,A,9.0
4,26.16700005531311,learn,33832.99994468689,Thu Sep 11 2025 15:23:53 GMT-0400 (Eastern Daylight Time),1002288.1000003815,A,ratt,I,t,222,2,1883.6999998092651,1000404.4000005722,9024,WL,A,9.0
4,26.549999952316284,learn,33450.000047683716,Thu Sep 11 2025 15:23:53 GMT-0400 (Eastern Daylight Time),1002671.4000005722,A,rattl,I,l,364,2,2267.0,1000404.4000005722,9024,WL,A,9.0
4,26.867000102996826,learn,33132.999897003174,Thu Sep 11 2025 15:23:53 GMT-0400 (Eastern Daylight Time),1002987.9000005722,A,rattle,I,e,293,2,2583.5,1000404.4000005722,9024,WL,A,9.0
4,27.183000087738037,learn,32816.99991226196,Thu Sep 11 2025 15:23:53 GMT-0400 (Eastern Daylight Time),1003304.0,A,rattleenter,I,enter,296,2,2899.5999994277954,1000404.4000005722,9024,WL,A,9.0
4,27.799999952316284,learn,32200.000047683716,Thu Sep 11 2025 15:23:53 GMT-0400 (Eastern Daylight Time),1003921.2000007629,A,a,I,a,609,2,616.8000001907349,1003304.4000005722,9024,WL,A,10.0
4,28.16600012779236,learn,31833.99987220764,Thu Sep 11 2025 15:23:53 GMT-0400 (Eastern Daylight Time),1004287.7000007629,A,ap,I,p,348,2,983.3000001907349,1003304.4000005722,9024,WL,A,10.0
4,28.41700005531311,learn,31582.99994468689,Thu Sep 11 2025 15:23:53 GMT-0400 (Eastern Daylight Time),1004537.9000005722,A,app,I,p,230,2,1233.5,1003304.4000005722,9024,WL,A,10.0
4,28.76699995994568,learn,31233.00004005432,Thu Sep 11 2025 15:23:53 GMT-0400 (Eastern Daylight Time),1004887.9000005722,A,appl,I,l,332,2,1583.5,1003304.4000005722,9024,WL,A,10.0
4,29.0,learn,31000.0,Thu Sep 11 2025 15:23:53 GMT-0400 (Eastern Daylight Time),1005121.2000007629,A,apple,I,e,221,2,1816.8000001907349,1003304.4000005722,9024,WL,A,10.0
4,29.41600012779236,learn,30583.99987220764,Thu Sep 11 2025 15:23:53 GMT-0400 (Eastern Daylight Time),1005537.4000005722,A,appleenter,I,enter,401,2,2233.0,1003304.4000005722,9024,WL,A,10.0
4,34.782999992370605,learn,25217.000007629395,Thu Sep 11 2025 15:23:53 GMT-0400 (Eastern Daylight Time),1010904.0,A,l,I,l,5350,2,5366.199999809265,1005537.8000001907,9024,WL,A,11.0
4,35.06599998474121,learn,24934.00001525879,Thu Sep 11 2025 15:23:53 GMT-0400 (Eastern Daylight Time),1011187.8000001907,A,lo,I,o,272,2,5650.0,1005537.8000001907,9024,WL,A,11.0
4,35.700000047683716,learn,24299.999952316284,Thu Sep 11 2025 15:23:53 GMT-0400 (Eastern Daylight Time),1011821.3000001907,A,log,I,g,611,2,6283.5,1005537.8000001907,9024,WL,A,11.0
4,35.99900007247925,learn,24000.999927520752,Thu Sep 11 2025 15:23:53 GMT-0400 (Eastern Daylight Time),1012120.8000001907,A,logenter,I,enter,279,2,6583.0,1005537.8000001907,9024,WL,A,11.0
4,36.549999952316284,learn,23450.000047683716,Thu Sep 11 2025 15:23:53 GMT-0400 (Eastern Daylight Time),1012671.3000001907,A,r,I,r,544,2,550.1999998092651,1012121.1000003815,9024,WL,A,12.0
4,36.950000047683716,learn,23049.999952316284,Thu Sep 11 2025 15:23:53 GMT-0400 (Eastern Daylight Time),1013071.2000007629,A,ru,I,u,375,2,950.1000003814697,1012121.1000003815,9024,WL,A,12.0
4,37.467000007629395,learn,22532.999992370605,Thu Sep 11 2025 15:23:53 GMT-0400 (Eastern Daylight Time),1013588.0,A,rug,I,g,501,2,1466.8999996185303,1012121.1000003815,9024,WL,A,12.0
4,37.91600012779236,learn,22083.99987220764,Thu Sep 11 2025 15:23:53 GMT-0400 (Eastern Daylight Time),1014037.4000005722,A,rugenter,I,enter,433,2,1916.3000001907349,1012121.1000003815,9024,WL,A,12.0
4,39.56699991226196,learn,20433.000087738037,Thu Sep 11 2025 15:23:53 GMT-0400 (Eastern Daylight Time),1015687.9000005722,A,m,I,m,1635,2,1650.1000003814697,1014037.8000001907,9024,WL,A,13.0
4,39.967000007629395,learn,20032.999992370605,Thu Sep 11 2025 15:23:53 GMT-0400 (Eastern Daylight Time),1016087.9000005722,A,me,I,e,381,2,2050.1000003814697,1014037.8000001907,9024,WL,A,13.0
4,40.34999990463257,learn,19650.00009536743,Thu Sep 11 2025 15:23:53 GMT-0400 (Eastern Daylight Time),1016471.2000007629,A,mea,I,a,356,2,2433.4000005722046,1014037.8000001907,9024,WL,A,13.0
4,41.217000007629395,learn,18782.999992370605,Thu Sep 11 2025 15:23:53 GMT-0400 (Eastern Daylight Time),1017337.9000005722,A,mead,I,d,844,2,3300.1000003814697,1014037.8000001907,9024,WL,A,13.0
4,41.81699991226196,learn,18183.000087738037,Thu Sep 11 2025 15:23:53 GMT-0400 (Eastern Daylight Time),1017937.9000005722,A,meado,I,o,587,2,3900.1000003814697,1014037.8000001907,9024,WL,A,13.0
4,42.98300004005432,learn,17016.99995994568,Thu Sep 11 2025 15:23:53 GMT-0400 (Eastern Daylight Time),1019104.3000001907,A,meadow,I,w,1155,2,5066.5,1014037.8000001907,9024,WL,A,13.0
4,43.549999952316284,learn,16450.000047683716,Thu Sep 11 2025 15:23:53 GMT-0400 (Eastern Daylight Time),1019670.8000001907,A,meadowenter,I,enter,549,2,5633.0,1014037.8000001907,9024,WL,A,13.0
4,44.282999992370605,learn,15717.000007629395,Thu Sep 11 2025 15:23:53 GMT-0400 (Eastern Daylight Time),1020404.6000003815,A,b,I,b,721,2,733.3999996185303,1019671.2000007629,9024,WL,A,14.0
4,44.73300004005432,learn,15266.999959945679,Thu Sep 11 2025 15:23:53 GMT-0400 (Eastern Daylight Time),1020854.6000003815,A,bu,I,u,433,2,1183.3999996185303,1019671.2000007629,9024,WL,A,14.0
4,45.09999990463257,learn,14900.000095367432,Thu Sep 11 2025 15:23:53 GMT-0400 (Eastern Daylight Time),1021221.2000007629,A,but,I,t,350,2,1550.0,1019671.2000007629,9024,WL,A,14.0
4,45.33299994468689,learn,14667.00005531311,Thu Sep 11 2025 15:23:53 GMT-0400 (Eastern Daylight Time),1021454.6000003815,A,butt,I,t,208,2,1783.3999996185303,1019671.2000007629,9024,WL,A,14.0
4,45.532999992370605,learn,14467.000007629395,Thu Sep 11 2025 15:23:53 GMT-0400 (Eastern Daylight Time),1021654.5,A,butto,I,o,175,2,1983.2999992370605,1019671.2000007629,9024,WL,A,14.0
4,45.967000007629395,learn,14032.999992370605,Thu Sep 11 2025 15:23:53 GMT-0400 (Eastern Daylight Time),1022087.9000005722,A,button,I,n,415,2,2416.699999809265,1019671.2000007629,9024,WL,A,14.0
4,46.46600008010864,learn,13533.999919891357,Thu Sep 11 2025 15:23:53 GMT-0400 (Eastern Daylight Time),1022587.5,A,buttonenter,I,enter,477,2,2916.2999992370605,1019671.2000007629,9024,WL,A,14.0
4,52.51699995994568,learn,7483.000040054321,Thu Sep 11 2025 15:23:53 GMT-0400 (Eastern Daylight Time),1028638.0,A,k,I,k,6029,2,6050.199999809265,1022587.8000001907,9024,WL,A,15.0
4,52.81699991226196,learn,7183.000087738037,Thu Sep 11 2025 15:23:53 GMT-0400 (Eastern Daylight Time),1028937.9000005722,A,ke,I,e,279,2,6350.10000038147,1022587.8000001907,9024,WL,A,15.0
4,53.65000009536743,learn,6349.999904632568,Thu Sep 11 2025 15:23:53 GMT-0400 (Eastern Daylight Time),1029771.3000001907,A,key,I,y,812,2,7183.5,1022587.8000001907,9024,WL,A,15.0
4,54.21600008010864,learn,5783.999919891357,Thu Sep 11 2025 15:23:53 GMT-0400 (Eastern Daylight Time),1030337.4000005722,A,keyenter,I,enter,553,2,7749.60000038147,1022587.8000001907,9024,WL,A,15.0
5,1.7009999752044678,learn,60000.0,Thu Sep 11 2025 15:23:53 GMT-0400 (Eastern Daylight Time),1100855.0,A,b,I,b,1683,2,1699.7999992370605,1099155.200000763,9024,WL,A,1.0
5,2.316999912261963,learn,60000.0,Thu Sep 11 2025 15:23:53 GMT-0400 (Eastern Daylight Time),1101471.3000001907,A,bo,I,o,591,2,2316.0999994277954,1099155.200000763,9024,WL,A,1.0
5,2.549999952316284,learn,60000.0,Thu Sep 11 2025 15:23:53 GMT-0400 (Eastern Daylight Time),1101704.6000003815,A,boo,I,o,214,2,2549.3999996185303,1099155.200000763,9024,WL,A,1.0
5,2.816999912261963,learn,60000.0,Thu Sep 11 2025 15:23:53 GMT-0400 (Eastern Daylight Time),1101971.3000001907,A,book,I,k,250,2,2816.0999994277954,1099155.200000763,9024,WL,A,1.0
5,3.318000078201294,learn,60000.0,Thu Sep 11 2025 15:23:53 GMT-0400 (Eastern Daylight Time),1102471.8000001907,A,bookenter,I,enter,480,2,3316.5999994277954,1099155.200000763,9024,WL,A,1.0
5,3.8499999046325684,learn,60000.0,Thu Sep 11 2025 15:23:53 GMT-0400 (Eastern Daylight Time),1103004.6000003815,A,f,I,f,513,2,532.3999996185303,1102472.200000763,9024,WL,A,2.0
5,4.099999904632568,learn,60000.0,Thu Sep 11 2025 15:23:53 GMT-0400 (Eastern Daylight Time),1103254.4000005722,A,fl,I,l,234,2,782.1999998092651,1102472.200000763,9024,WL,A,2.0
5,4.41700005531311,learn,60000.0,Thu Sep 11 2025 15:23:53 GMT-0400 (Eastern Daylight Time),1103571.3000001907,A,flo,I,o,304,2,1099.0999994277954,1102472.200000763,9024,WL,A,2.0
5,4.816999912261963,learn,60000.0,Thu Sep 11 2025 15:23:53 GMT-0400 (Eastern Daylight Time),1103971.3000001907,A,flow,I,w,377,2,1499.0999994277954,1102472.200000763,9024,WL,A,2.0
5,5.2170000076293945,learn,60000.0,Thu Sep 11 2025 15:23:53 GMT-0400 (Eastern Daylight Time),1104371.3000001907,A,flowe,I,e,385,2,1899.0999994277954,1102472.200000763,9024,WL,A,2.0
5,5.516999959945679,learn,60000.0,Thu Sep 11 2025 15:23:53 GMT-0400 (Eastern Daylight Time),1104671.6000003815,A,flower,I,r,290,2,2199.3999996185303,1102472.200000763,9024,WL,A,2.0
5,5.849999904632568,learn,60000.0,Thu Sep 11 2025 15:23:53 GMT-0400 (Eastern Daylight Time),1105004.200000763,A,flowerenter,I,enter,309,2,2532.0,1102472.200000763,9024,WL,A,2.0
5,6.5,learn,60000.0,Thu Sep 11 2025 15:23:53 GMT-0400 (Eastern Daylight Time),1105654.700000763,A,r,I,r,637,2,650.2000007629395,1105004.5,9024,WL,A,3.0
5,6.849999904632568,learn,60000.0,Thu Sep 11 2025 15:23:53 GMT-0400 (Eastern Daylight Time),1106004.6000003815,A,ru,I,u,335,2,1000.1000003814697,1105004.5,9024,WL,A,3.0
5,7.434000015258789,learn,60000.0,Thu Sep 11 2025 15:23:53 GMT-0400 (Eastern Daylight Time),1106588.0,A,rug,I,g,554,2,1583.5,1105004.5,9024,WL,A,3.0
5,7.900000095367432,learn,60000.0,Thu Sep 11 2025 15:23:53 GMT-0400 (Eastern Daylight Time),1107054.1000003815,A,rugenter,I,enter,441,2,2049.6000003814697,1105004.5,9024,WL,A,3.0
5,8.549999952316284,learn,60000.0,Thu Sep 11 2025 15:23:53 GMT-0400 (Eastern Daylight Time),1107704.700000763,A,c,I,c,634,2,650.2000007629395,1107054.5,9024,WL,A,4.0
5,8.783999919891357,learn,60000.0,Thu Sep 11 2025 15:23:53 GMT-0400 (Eastern Daylight Time),1107938.1000003815,A,ch,I,h,221,2,883.6000003814697,1107054.5,9024,WL,A,4.0
5,9.367000102996826,learn,60000.0,Thu Sep 11 2025 15:23:53 GMT-0400 (Eastern Daylight Time),1108521.200000763,A,chi,I,i,552,2,1466.7000007629395,1107054.5,9024,WL,A,4.0
5,10.0,learn,60000.0,Thu Sep 11 2025 15:23:53 GMT-0400 (Eastern Daylight Time),1109154.5,A,chim,I,m,620,2,2100.0,1107054.5,9024,WL,A,4.0
5,10.566999912261963,learn,60000.0,Thu Sep 11 2025 15:23:53 GMT-0400 (Eastern Daylight Time),1109721.4000005722,A,chimn,I,n,539,2,2666.9000005722046,1107054.5,9024,WL,A,4.0
5,11.58400011062622,learn,60000.0,Thu Sep 11 2025 15:23:53 GMT-0400 (Eastern Daylight Time),1110738.0,A,chimne,I,e,1005,2,3683.5,1107054.5,9024,WL,A,4.0
5,12.033999919891357,learn,60000.0,Thu Sep 11 2025 15:23:53 GMT-0400 (Eastern Daylight Time),1111188.0,A,chimney,I,y,435,2,4133.5,1107054.5,9024,WL,A,4.0
5,12.483000040054321,learn,60000.0,Thu Sep 11 2025 15:23:53 GMT-0400 (Eastern Daylight Time),1111637.5,A,chimneyenter,I,enter,430,2,4583.0,1107054.5,9024,WL,A,4.0
5,14.549999952316284,learn,60000.0,Thu Sep 11 2025 15:23:53 GMT-0400 (Eastern Daylight Time),1113704.6000003815,A,b,I,b,2051,2,2066.699999809265,1111637.9000005722,9024,WL,A,5.0
5,15.016999959945679,learn,60000.0,Thu Sep 11 2025 15:23:53 GMT-0400 (Eastern Daylight Time),1114171.4000005722,A,bu,I,u,443,2,2533.5,1111637.9000005722,9024,WL,A,5.0
5,15.532999992370605,learn,60000.0,Thu Sep 11 2025 15:23:53 GMT-0400 (Eastern Daylight Time),1114687.6000003815,A,but,I,t,498,2,3049.699999809265,1111637.9000005722,9024,WL,A,5.0
5,15.684000015258789,learn,60000.0,Thu Sep 11 2025 15:23:53 GMT-0400 (Eastern Daylight Time),1114837.9000005722,A,butt,I,t,135,2,3200.0,1111637.9000005722,9024,WL,A,5.0
5,16.033999919891357,learn,60000.0,Thu Sep 11 2025 15:23:53 GMT-0400 (Eastern Daylight Time),1115188.0,A,butto,I,o,334,2,3550.0999994277954,1111637.9000005722,9024,WL,A,5.0
5,16.783999919891357,learn,60000.0,Thu Sep 11 2025 15:23:53 GMT-0400 (Eastern Daylight Time),1115938.0,A,button,I,n,730,2,4300.099999427795,1111637.9000005722,9024,WL,A,5.0
5,17.383000135421753,learn,60000.0,Thu Sep 11 2025 15:23:53 GMT-0400 (Eastern Daylight Time),1116537.5,A,buttonenter,I,enter,578,2,4899.599999427795,1111637.9000005722,9024,WL,A,5.0
5,17.983999967575073,learn,60000.0,Thu Sep 11 2025 15:23:53 GMT-0400 (Eastern Daylight Time),1117137.8000001907,A,f,I,f,591,2,599.8999996185303,1116537.9000005722,9024,WL,A,6.0
5,18.200000047683716,learn,60000.0,Thu Sep 11 2025 15:23:53 GMT-0400 (Eastern Daylight Time),1117354.700000763,A,fl,I,l,193,2,816.8000001907349,1116537.9000005722,9024,WL,A,6.0
5,18.549999952316284,learn,60000.0,Thu Sep 11 2025 15:23:53 GMT-0400 (Eastern Daylight Time),1117704.6000003815,A,flo,I,o,330,2,1166.6999998092651,1116537.9000005722,9024,WL,A,6.0
5,19.049999952316284,learn,60000.0,Thu Sep 11 2025 15:23:53 GMT-0400 (Eastern Daylight Time),1118204.700000763,A,flow,I,w,475,2,1666.8000001907349,1116537.9000005722,9024,WL,A,6.0
5,19.41700005531311,learn,60000.0,Thu Sep 11 2025 15:23:53 GMT-0400 (Eastern Daylight Time),1118571.3000001907,A,flowe,I,e,336,2,2033.3999996185303,1116537.9000005722,9024,WL,A,6.0
5,19.733999967575073,learn,60000.0,Thu Sep 11 2025 15:23:53 GMT-0400 (Eastern Daylight Time),1118888.0,A,flower,I,r,297,2,2350.0999994277954,1116537.9000005722,9024,WL,A,6.0
5,20.0,learn,60000.0,Thu Sep 11 2025 15:23:53 GMT-0400 (Eastern Daylight Time),1119154.1000003815,A,flowerenter,I,enter,247,2,2616.199999809265,1116537.9000005722,9024,WL,A,6.0
5,20.617000102996826,learn,60000.0,Thu Sep 11 2025 15:23:53 GMT-0400 (Eastern Daylight Time),1119771.4000005722,A,s,I,s,599,2,616.9000005722046,1119154.5,9024,WL,A,7.0
5,20.91700005531311,learn,60000.0,Thu Sep 11 2025 15:23:53 GMT-0400 (Eastern Daylight Time),1120071.4000005722,A,sa,I,a,282,2,916.9000005722046,1119154.5,9024,WL,A,7.0
5,21.25,learn,60000.0,Thu Sep 11 2025 15:23:53 GMT-0400 (Eastern Daylight Time),1120404.6000003815,A,sal,I,l,317,2,1250.1000003814697,1119154.5,9024,WL,A,7.0
5,21.634000062942505,learn,60000.0,Thu Sep 11 2025 15:23:53 GMT-0400 (Eastern Daylight Time),1120788.1000003815,A,salt,I,t,369,2,1633.6000003814697,1119154.5,9024,WL,A,7.0
5,22.01699995994568,learn,60000.0,Thu Sep 11 2025 15:23:53 GMT-0400 (Eastern Daylight Time),1121170.9000005722,A,saltenter,I,enter,365,2,2016.4000005722046,1119154.5,9024,WL,A,7.0
5,23.75,learn,60000.0,Thu Sep 11 2025 15:23:53 GMT-0400 (Eastern Daylight Time),1122904.700000763,A,l,I,l,1718,2,1733.4000005722046,1121171.3000001907,9024,WL,A,8.0
5,24.08400011062622,learn,60000.0,Thu Sep 11 2025 15:23:53 GMT-0400 (Eastern Daylight Time),1123238.0,A,lo,I,o,317,2,2066.699999809265,1121171.3000001907,9024,WL,A,8.0
5,25.134000062942505,learn,60000.0,Thu Sep 11 2025 15:23:53 GMT-0400 (Eastern Daylight Time),1124287.9000005722,A,log,I,g,1031,2,3116.6000003814697,1121171.3000001907,9024,WL,A,8.0
5,25.48300004005432,learn,60000.0,Thu Sep 11 2025 15:23:53 GMT-0400 (Eastern Daylight Time),1124637.5,A,logenter,I,enter,324,2,3466.199999809265,1121171.3000001907,9024,WL,A,8.0
5,26.233999967575073,learn,60000.0,Thu Sep 11 2025 15:23:53 GMT-0400 (Eastern Daylight Time),1125388.0,A,r,I,r,730,2,750.1999998092651,1124637.8000001907,9024,WL,A,9.0
5,26.634000062942505,learn,60000.0,Thu Sep 11 2025 15:23:53 GMT-0400 (Eastern Daylight Time),1125788.0,A,ru,I,u,376,2,1150.1999998092651,1124637.8000001907,9024,WL,A,9.0
5,30.066999912261963,learn,60000.0,Thu Sep 11 2025 15:23:53 GMT-0400 (Eastern Daylight Time),1129220.700000763,A,rug,I,g,3416,2,4582.900000572205,1124637.8000001907,9024,WL,A,9.0
5,30.5,learn,60000.0,Thu Sep 11 2025 15:23:53 GMT-0400 (Eastern Daylight Time),1129654.1000003815,A,rugenter,I,enter,419,2,5016.300000190735,1124637.8000001907,9024,WL,A,9.0
5,33.25,learn,60000.0,Thu Sep 11 2025 15:23:53 GMT-0400 (Eastern Daylight Time),1132404.700000763,A,r,I,r,2738,2,2750.2000007629395,1129654.5,9024,WL,A,10.0
5,33.634000062942505,learn,60000.0,Thu Sep 11 2025 15:23:53 GMT-0400 (Eastern Daylight Time),1132787.9000005722,A,ra,I,a,360,2,3133.4000005722046,1129654.5,9024,WL,A,10.0
5,34.117000102996826,learn,60000.0,Thu Sep 11 2025 15:23:53 GMT-0400 (Eastern Daylight Time),1133270.9000005722,A,rat,I,t,466,2,3616.4000005722046,1129654.5,9024,WL,A,10.0
5,34.34999990463257,learn,60000.0,Thu Sep 11 2025 15:23:53 GMT-0400 (Eastern Daylight Time),1133504.4000005722,A,ratt,I,t,223,2,3849.9000005722046,1129654.5,9024,WL,A,10.0
5,34.617000102996826,learn,60000.0,Thu Sep 11 2025 15:23:53 GMT-0400 (Eastern Daylight Time),1133771.4000005722,A,rattl,I,l,245,2,4116.900000572205,1129654.5,9024,WL,A,10.0
5,34.90000009536743,learn,60000.0,Thu Sep 11 2025 15:23:53 GMT-0400 (Eastern Daylight Time),1134054.6000003815,A,rattle,I,e,264,2,4400.10000038147,1129654.5,9024,WL,A,10.0
5,35.41700005531311,learn,60000.0,Thu Sep 11 2025 15:23:53 GMT-0400 (Eastern Daylight Time),1134570.8000001907,A,rattleenter,I,enter,493,2,4916.300000190735,1129654.5,9024,WL,A,10.0
5,37.06699991226196,learn,60000.0,Thu Sep 11 2025 15:23:53 GMT-0400 (Eastern Daylight Time),1136221.4000005722,A,g,I,g,1630,2,1650.1999998092651,1134571.200000763,9024,WL,A,11.0
5,37.41700005531311,learn,60000.0,Thu Sep 11 2025 15:23:53 GMT-0400 (Eastern Daylight Time),1136571.3000001907,A,go,I,o,327,2,2000.0999994277954,1134571.200000763,9024,WL,A,11.0
5,37.73399996757507,learn,60000.0,Thu Sep 11 2025 15:23:53 GMT-0400 (Eastern Daylight Time),1136888.1000003815,A,gol,I,l,299,2,2316.8999996185303,1134571.200000763,9024,WL,A,11.0
5,38.33299994468689,learn,60000.0,Thu Sep 11 2025 15:23:53 GMT-0400 (Eastern Daylight Time),1137487.8000001907,A,gold,I,d,588,2,2916.5999994277954,1134571.200000763,9024,WL,A,11.0
5,38.65000009536743,learn,60000.0,Thu Sep 11 2025 15:23:53 GMT-0400 (Eastern Daylight Time),1137804.200000763,A,goldenter,I,enter,292,2,3233.0,1134571.200000763,9024,WL,A,11.0
5,39.40000009536743,learn,60000.0,Thu Sep 11 2025 15:23:53 GMT-0400 (Eastern Daylight Time),1138554.6000003815,A,a,I,a,731,2,750.1000003814697,1137804.5,9024,WL,A,12.0
5,39.98399996757507,learn,60000.0,Thu Sep 11 2025 15:23:53 GMT-0400 (Eastern Daylight Time),1139137.8000001907,A,ap,I,p,569,2,1333.3000001907349,1137804.5,9024,WL,A,12.0
5,40.217000007629395,learn,60000.0,Thu Sep 11 2025 15:23:53 GMT-0400 (Eastern Daylight Time),1139371.5,A,app,I,p,211,2,1567.0,1137804.5,9024,WL,A,12.0
5,40.51699995994568,learn,60000.0,Thu Sep 11 2025 15:23:53 GMT-0400 (Eastern Daylight Time),1139671.4000005722,A,appl,I,l,273,2,1866.9000005722046,1137804.5,9024,WL,A,12.0
5,40.884000062942505,learn,60000.0,Thu Sep 11 2025 15:23:53 GMT-0400 (Eastern Daylight Time),1140038.0,A,apple,I,e,349,2,2233.5,1137804.5,9024,WL,A,12.0
5,41.25,learn,60000.0,Thu Sep 11 2025 15:23:53 GMT-0400 (Eastern Daylight Time),1140404.200000763,A,appleenter,I,enter,350,2,2599.7000007629395,1137804.5,9024,WL,A,12.0
5,42.33299994468689,learn,60000.0,Thu Sep 11 2025 15:23:53 GMT-0400 (Eastern Daylight Time),1141487.700000763,A,t,I,t,1077,2,1083.1000003814697,1140404.6000003815,9024,WL,A,13.0
5,42.65000009536743,learn,60000.0,Thu Sep 11 2025 15:23:53 GMT-0400 (Eastern Daylight Time),1141804.700000763,A,tr,I,r,293,2,1400.1000003814697,1140404.6000003815,9024,WL,A,13.0
5,43.117000102996826,learn,60000.0,Thu Sep 11 2025 15:23:53 GMT-0400 (Eastern Daylight Time),1142271.4000005722,A,tra,I,a,456,2,1866.8000001907349,1140404.6000003815,9024,WL,A,13.0
5,43.53399991989136,learn,60000.0,Thu Sep 11 2025 15:23:53 GMT-0400 (Eastern Daylight Time),1142688.0,A,trai,I,i,391,2,2283.3999996185303,1140404.6000003815,9024,WL,A,13.0
5,43.950000047683716,learn,60000.0,Thu Sep 11 2025 15:23:53 GMT-0400 (Eastern Daylight Time),1143104.5,A,train,I,n,406,2,2699.8999996185303,1140404.6000003815,9024,WL,A,13.0
5,44.532999992370605,learn,60000.0,Thu Sep 11 2025 15:23:53 GMT-0400 (Eastern Daylight Time),1143687.5,A,trainenter,I,enter,563,2,3282.8999996185303,1140404.6000003815,9024,WL,A,13.0
5,46.5,learn,60000.0,Thu Sep 11 2025 15:23:53 GMT-0400 (Eastern Daylight Time),1145654.700000763,A,d,I,d,1952,2,1966.8000001907349,1143687.9000005722,9024,WL,A,14.0
5,47.43400001525879,learn,60000.0,Thu Sep 11 2025 15:23:53 GMT-0400 (Eastern Daylight Time),1146588.0,A,,I,backspace,911,2,2900.0999994277954,1143687.9000005722,9024,WL,A,14.0
5,47.717000007629395,learn,60000.0,Thu Sep 11 2025 15:23:53 GMT-0400 (Eastern Daylight Time),1146871.5,A,s,I,s,266,2,3183.5999994277954,1143687.9000005722,9024,WL,A,14.0
5,48.03399991989136,learn,60000.0,Thu Sep 11 2025 15:23:53 GMT-0400 (Eastern Daylight Time),1147188.0,A,sa,I,a,302,2,3500.0999994277954,1143687.9000005722,9024,WL,A,14.0
5,48.98300004005432,learn,60000.0,Thu Sep 11 2025 15:23:53 GMT-0400 (Eastern Daylight Time),1148137.200000763,A,sal,I,l,928,2,4449.300000190735,1143687.9000005722,9024,WL,A,14.0
5,49.299999952316284,learn,60000.0,Thu Sep 11 2025 15:23:53 GMT-0400 (Eastern Daylight Time),1148454.4000005722,A,salt,I,t,302,2,4766.5,1143687.9000005722,9024,WL,A,14.0
5,49.63300013542175,learn,60000.0,Thu Sep 11 2025 15:23:53 GMT-0400 (Eastern Daylight Time),1148787.5,A,saltenter,I,enter,315,2,5099.599999427795,1143687.9000005722,9024,WL,A,14.0
5,50.299999952316284,learn,60000.0,Thu Sep 11 2025 15:23:53 GMT-0400 (Eastern Daylight Time),1149454.200000763,A,k,I,k,644,2,666.4000005722046,1148787.8000001907,9024,WL,A,15.0
5,50.59999990463257,learn,60000.0,Thu Sep 11 2025 15:23:53 GMT-0400 (Eastern Daylight Time),1149754.700000763,A,ke,I,e,281,2,966.9000005722046,1148787.8000001907,9024,WL,A,15.0
5,50.98399996757507,learn,60000.0,Thu Sep 11 2025 15:23:53 GMT-0400 (Eastern Daylight Time),1150138.0,A,key,I,y,362,2,1350.1999998092651,1148787.8000001907,9024,WL,A,15.0
5,51.51699995994568,learn,60000.0,Thu Sep 11 2025 15:23:53 GMT-0400 (Eastern Daylight Time),1150670.9000005722,A,keyenter,I,enter,507,2,1883.1000003814697,1148787.8000001907,9024,WL,A,15.0
6,1.9840002059936523,distr,58015.99979400635,Thu Sep 11 2025 15:23:53 GMT-0400 (Eastern Daylight Time),1247954.8000001907,B,b,I,b,1971,2,1982.8000001907349,1245972.0,9024,WL,A,1.0
6,2.633000135421753,distr,57366.99986457825,Thu Sep 11 2025 15:23:53 GMT-0400 (Eastern Daylight Time),1248604.8000001907,B,bo,I,o,628,2,2632.800000190735,1245972.0,9024,WL,A,1.0
6,3.3000001907348633,distr,56699.99980926514,Thu Sep 11 2025 15:23:53 GMT-0400 (Eastern Daylight Time),1249271.4000005722,B,bow,I,w,643,2,3299.4000005722046,1245972.0,9024,WL,A,1.0
6,3.883000135421753,distr,56116.99986457825,Thu Sep 11 2025 15:23:53 GMT-0400 (Eastern Daylight Time),1249854.700000763,B,bowl,I,l,556,2,3882.7000007629395,1245972.0,9024,WL,A,1.0
6,4.400000095367432,distr,55599.99990463257,Thu Sep 11 2025 15:23:53 GMT-0400 (Eastern Daylight Time),1250370.9000005722,B,bowlenter,I,enter,501,2,4398.900000572205,1245972.0,9024,WL,A,1.0
6,5.267000198364258,distr,54732.99980163574,Thu Sep 11 2025 15:23:53 GMT-0400 (Eastern Daylight Time),1251238.1000003815,B,d,I,d,854,2,866.8000001907349,1250371.3000001907,9024,WL,A,2.0
6,5.9670000076293945,distr,54032.999992370605,Thu Sep 11 2025 15:23:53 GMT-0400 (Eastern Daylight Time),1251938.1000003815,B,da,I,a,687,2,1566.8000001907349,1250371.3000001907,9024,WL,A,2.0
6,8.200000047683716,distr,51799.999952316284,Thu Sep 11 2025 15:23:53 GMT-0400 (Eastern Daylight Time),1254171.5,B,daw,I,w,2211,2,3800.199999809265,1250371.3000001907,9024,WL,A,2.0
6,8.449000120162964,distr,51550.999879837036,Thu Sep 11 2025 15:23:53 GMT-0400 (Eastern Daylight Time),1254420.700000763,B,dawn,I,n,233,2,4049.4000005722046,1250371.3000001907,9024,WL,A,2.0
6,9.5,distr,50500.0,Thu Sep 11 2025 15:23:53 GMT-0400 (Eastern Daylight Time),1255470.9000005722,B,dawnenter,I,enter,1028,2,5099.60000038147,1250371.3000001907,9024,WL,A,2.0
6,10.850000143051147,distr,49149.99985694885,Thu Sep 11 2025 15:23:53 GMT-0400 (Eastern Daylight Time),1256821.4000005722,B,p,I,p,1338,2,1350.1000003814697,1255471.3000001907,9024,WL,A,3.0
6,11.317000150680542,distr,48682.99984931946,Thu Sep 11 2025 15:23:53 GMT-0400 (Eastern Daylight Time),1257288.200000763,B,pe,I,e,449,2,1816.9000005722046,1255471.3000001907,9024,WL,A,3.0
6,11.75,distr,48250.0,Thu Sep 11 2025 15:23:53 GMT-0400 (Eastern Daylight Time),1257721.4000005722,B,pea,I,a,414,2,2250.1000003814697,1255471.3000001907,9024,WL,A,3.0
6,12.31600022315979,distr,47683.99977684021,Thu Sep 11 2025 15:23:53 GMT-0400 (Eastern Daylight Time),1258287.700000763,B,peac,I,c,555,2,2816.4000005722046,1255471.3000001907,9024,WL,A,3.0
6,12.800000190734863,distr,47199.99980926514,Thu Sep 11 2025 15:23:53 GMT-0400 (Eastern Daylight Time),1258771.5,B,peach,I,h,469,2,3300.199999809265,1255471.3000001907,9024,WL,A,3.0
6,14.16700005531311,distr,45832.99994468689,Thu Sep 11 2025 15:23:53 GMT-0400 (Eastern Daylight Time),1260138.1000003815,B,peachc,I,c,1346,2,4666.800000190735,1255471.3000001907,9024,WL,A,3.0
6,14.550000190734863,distr,45449.99980926514,Thu Sep 11 2025 15:23:53 GMT-0400 (Eastern Daylight Time),1260521.4000005722,B,peachch,I,h,361,2,5050.10000038147,1255471.3000001907,9024,WL,A,3.0
6,14.850000143051147,distr,45149.99985694885,Thu Sep 11 2025 15:23:53 GMT-0400 (Eastern Daylight Time),1260821.4000005722,B,peachcha,I,a,284,2,5350.10000038147,1255471.3000001907,9024,WL,A,3.0
6,15.532999992370605,distr,44467.000007629395,Thu Sep 11 2025 15:23:53 GMT-0400 (Eastern Daylight Time),1261504.5,B,peachchar,I,r,672,2,6033.199999809265,1255471.3000001907,9024,WL,A,3.0
6,15.950000047683716,distr,44049.999952316284,Thu Sep 11 2025 15:23:53 GMT-0400 (Eastern Daylight Time),1261921.4000005722,B,peachchari,I,i,404,2,6450.10000038147,1255471.3000001907,9024,WL,A,3.0
6,17.784000158309937,distr,42215.99984169006,Thu Sep 11 2025 15:23:53 GMT-0400 (Eastern Daylight Time),1263754.8000001907,B,peachcharir,I,r,1812,2,8283.5,1255471.3000001907,9024,WL,A,3.0
6,21.867000102996826,distr,38132.999897003174,Thu Sep 11 2025 15:23:53 GMT-0400 (Eastern Daylight Time),1267838.0,B,peachchari,I,backspace,4058,2,12366.699999809265,1255471.3000001907,9024,WL,A,3.0
6,23.067000150680542,distr,36932.99984931946,Thu Sep 11 2025 15:23:53 GMT-0400 (Eastern Daylight Time),1269037.9000005722,B,peachchar,I,backspace,1174,2,13566.60000038147,1255471.3000001907,9024,WL,A,3.0
6,23.317000150680542,distr,36682.99984931946,Thu Sep 11 2025 15:23:53 GMT-0400 (Eastern Daylight Time),1269288.1000003815,B,peachcha,I,backspace,231,2,13816.800000190735,1255471.3000001907,9024,WL,A,3.0
6,23.532999992370605,distr,36467.000007629395,Thu Sep 11 2025 15:23:53 GMT-0400 (Eastern Daylight Time),1269504.5,B,peachch,I,backspace,206,2,14033.199999809265,1255471.3000001907,9024,WL,A,3.0
6,23.75,distr,36250.0,Thu Sep 11 2025 15:23:53 GMT-0400 (Eastern Daylight Time),1269721.3000001907,B,peachc,I,backspace,196,2,14250.0,1255471.3000001907,9024,WL,A,3.0
6,23.966000080108643,distr,36033.99991989136,Thu Sep 11 2025 15:23:53 GMT-0400 (Eastern Daylight Time),1269937.3000001907,B,peach,I,backspace,204,2,14466.0,1255471.3000001907,9024,WL,A,3.0
6,25.100000143051147,distr,34899.99985694885,Thu Sep 11 2025 15:23:53 GMT-0400 (Eastern Daylight Time),1271070.9000005722,B,peachenter,I,enter,1110,2,15599.60000038147,1255471.3000001907,9024,WL,A,3.0
6,26.300000190734863,distr,33699.99980926514,Thu Sep 11 2025 15:23:53 GMT-0400 (Eastern Daylight Time),1272271.4000005722,B,c,I,c,1177,2,1200.1000003814697,1271071.3000001907,9024,WL,A,4.0
6,26.534000158309937,distr,33465.99984169006,Thu Sep 11 2025 15:23:53 GMT-0400 (Eastern Daylight Time),1272504.8000001907,B,ch,I,h,214,2,1433.5,1271071.3000001907,9024,WL,A,4.0
6,26.850000143051147,distr,33149.99985694885,Thu Sep 11 2025 15:23:53 GMT-0400 (Eastern Daylight Time),1272821.5,B,che,I,e,301,2,1750.1999998092651,1271071.3000001907,9024,WL,A,4.0
6,27.91700005531311,distr,32082.99994468689,Thu Sep 11 2025 15:23:53 GMT-0400 (Eastern Daylight Time),1273888.200000763,B,ch,I,backspace,1040,2,2816.9000005722046,1271071.3000001907,9024,WL,A,4.0
6,28.883000135421753,distr,31116.999864578247,Thu Sep 11 2025 15:23:53 GMT-0400 (Eastern Daylight Time),1274854.6000003815,B,cha,I,a,947,2,3783.300000190735,1271071.3000001907,9024,WL,A,4.0
6,29.467000007629395,distr,30532.999992370605,Thu Sep 11 2025 15:23:53 GMT-0400 (Eastern Daylight Time),1275438.1000003815,B,chai,I,i,556,2,4366.800000190735,1271071.3000001907,9024,WL,A,4.0
6,29.98300004005432,distr,30016.99995994568,Thu Sep 11 2025 15:23:53 GMT-0400 (Eastern Daylight Time),1275954.700000763,B,chair,I,r,502,2,4883.400000572205,1271071.3000001907,9024,WL,A,4.0
6,30.56600022315979,distr,29433.99977684021,Thu Sep 11 2025 15:23:53 GMT-0400 (Eastern Daylight Time),1276537.700000763,B,chairenter,I,enter,562,2,5466.400000572205,1271071.3000001907,9024,WL,A,4.0
6,37.60000014305115,distr,22399.999856948853,Thu Sep 11 2025 15:23:53 GMT-0400 (Eastern Daylight Time),1283571.4000005722,B,g,I,g,7024,2,7033.5,1276537.9000005722,9024,WL,A,5.0
6,37.967000007629395,distr,22032.999992370605,Thu Sep 11 2025 15:23:53 GMT-0400 (Eastern Daylight Time),1283937.8000001907,B,gr,I,r,353,2,7399.89999961853,1276537.9000005722,9024,WL,A,5.0
6,38.55000019073486,distr,21449.999809265137,Thu Sep 11 2025 15:23:53 GMT-0400 (Eastern Daylight Time),1284521.4000005722,B,gra,I,a,561,2,7983.5,1276537.9000005722,9024,WL,A,5.0
6,39.282999992370605,distr,20717.000007629395,Thu Sep 11 2025 15:23:53 GMT-0400 (Eastern Daylight Time),1285254.8000001907,B,gran,I,n,715,2,8716.89999961853,1276537.9000005722,9024,WL,A,5.0
6,39.700000047683716,distr,20299.999952316284,Thu Sep 11 2025 15:23:53 GMT-0400 (Eastern Daylight Time),1285671.4000005722,B,grant,I,t,399,2,9133.5,1276537.9000005722,9024,WL,A,5.0
6,40.30000019073486,distr,19699.999809265137,Thu Sep 11 2025 15:23:53 GMT-0400 (Eastern Daylight Time),1286270.9000005722,B,grantenter,I,enter,589,2,9733.0,1276537.9000005722,9024,WL,A,5.0
6,40.867000102996826,distr,19132.999897003174,Thu Sep 11 2025 15:23:53 GMT-0400 (Eastern Daylight Time),1286838.200000763,B,s,I,s,553,2,567.0,1286271.200000763,9024,WL,A,6.0
6,41.56700015068054,distr,18432.999849319458,Thu Sep 11 2025 15:23:53 GMT-0400 (Eastern Daylight Time),1287538.200000763,B,se,I,e,687,2,1267.0,1286271.200000763,9024,WL,A,6.0
6,41.91700005531311,distr,18082.99994468689,Thu Sep 11 2025 15:23:53 GMT-0400 (Eastern Daylight Time),1287887.8000001907,B,see,I,e,338,2,1616.5999994277954,1286271.200000763,9024,WL,A,6.0
6,42.367000102996826,distr,17632.999897003174,Thu Sep 11 2025 15:23:53 GMT-0400 (Eastern Daylight Time),1288338.1000003815,B,seed,I,d,437,2,2066.8999996185303,1286271.200000763,9024,WL,A,6.0
6,43.032999992370605,distr,16967.000007629395,Thu Sep 11 2025 15:23:53 GMT-0400 (Eastern Daylight Time),1289004.3000001907,B,seedenter,I,enter,643,2,2733.0999994277954,1286271.200000763,9024,WL,A,6.0
6,57.532999992370605,distr,2467.0000076293945,Thu Sep 11 2025 15:23:53 GMT-0400 (Eastern Daylight Time),1303504.4000005722,B,s,I,s,14493,2,14499.800000190735,1289004.6000003815,9024,WL,A,7.0
6,60.01700019836426,distr,-17.000198364257812,Thu Sep 11 2025 15:23:53 GMT-0400 (Eastern Daylight Time),1305988.3000001907,B,sNone,I,None,2474,2,16983.699999809265,1289004.6000003815,9024,WL,A,7.0
7,4.050000190734863,immed,55949.99980926514,Thu Sep 11 2025 15:23:53 GMT-0400 (Eastern Daylight Time),1327021.5,A,b,I,b,4027,2,4049.5,1322972.0,9024,WL,A,1.0
7,4.684000015258789,immed,55315.99998474121,Thu Sep 11 2025 15:23:53 GMT-0400 (Eastern Daylight Time),1327654.9000005722,A,bo,I,o,616,2,4682.900000572205,1322972.0,9024,WL,A,1.0
7,4.916000127792358,immed,55083.99987220764,Thu Sep 11 2025 15:23:53 GMT-0400 (Eastern Daylight Time),1327887.8000001907,A,boo,I,o,222,2,4915.800000190735,1322972.0,9024,WL,A,1.0
7,5.300000190734863,immed,54699.99980926514,Thu Sep 11 2025 15:23:53 GMT-0400 (Eastern Daylight Time),1328270.700000763,A,book,I,k,375,2,5298.700000762939,1322972.0,9024,WL,A,1.0
7,5.900000095367432,immed,54099.99990463257,Thu Sep 11 2025 15:23:53 GMT-0400 (Eastern Daylight Time),1328870.9000005722,A,bookenter,I,enter,585,2,5898.900000572205,1322972.0,9024,WL,A,1.0
7,6.517000198364258,immed,53482.99980163574,Thu Sep 11 2025 15:23:53 GMT-0400 (Eastern Daylight Time),1329488.0,A,f,I,f,610,2,616.8999996185303,1328871.1000003815,9024,WL,A,2.0
7,6.8500001430511475,immed,53149.99985694885,Thu Sep 11 2025 15:23:53 GMT-0400 (Eastern Daylight Time),1329821.4000005722,A,fl,I,l,310,2,950.3000001907349,1328871.1000003815,9024,WL,A,2.0
7,7.183000087738037,immed,52816.99991226196,Thu Sep 11 2025 15:23:53 GMT-0400 (Eastern Daylight Time),1330154.8000001907,A,flo,I,o,313,2,1283.6999998092651,1328871.1000003815,9024,WL,A,2.0
7,7.7829999923706055,immed,52217.000007629395,Thu Sep 11 2025 15:23:53 GMT-0400 (Eastern Daylight Time),1330754.8000001907,A,flow,I,w,583,2,1883.6999998092651,1328871.1000003815,9024,WL,A,2.0
7,8.200000047683716,immed,51799.999952316284,Thu Sep 11 2025 15:23:53 GMT-0400 (Eastern Daylight Time),1331171.5,A,flowe,I,e,403,2,2300.3999996185303,1328871.1000003815,9024,WL,A,2.0
7,8.516000032424927,immed,51483.99996757507,Thu Sep 11 2025 15:23:53 GMT-0400 (Eastern Daylight Time),1331487.8000001907,A,flower,I,r,306,2,2616.699999809265,1328871.1000003815,9024,WL,A,2.0
7,9.133000135421753,immed,50866.99986457825,Thu Sep 11 2025 15:23:53 GMT-0400 (Eastern Daylight Time),1332104.4000005722,A,flowerenter,I,enter,597,2,3233.300000190735,1328871.1000003815,9024,WL,A,2.0
7,12.550000190734863,immed,47449.99980926514,Thu Sep 11 2025 15:23:53 GMT-0400 (Eastern Daylight Time),1335521.0,A,c,I,c,3408,2,3416.3999996185303,1332104.6000003815,9024,WL,A,3.0
7,12.867000102996826,immed,47132.999897003174,Thu Sep 11 2025 15:23:53 GMT-0400 (Eastern Daylight Time),1335838.200000763,A,ch,I,h,294,2,3733.6000003814697,1332104.6000003815,9024,WL,A,3.0
7,13.532999992370605,immed,46467.000007629395,Thu Sep 11 2025 15:23:53 GMT-0400 (Eastern Daylight Time),1336504.4000005722,A,chi,I,i,647,2,4399.800000190735,1332104.6000003815,9024,WL,A,3.0
7,14.184000015258789,immed,45815.99998474121,Thu Sep 11 2025 15:23:53 GMT-0400 (Eastern Daylight Time),1337155.0,A,chim,I,m,640,2,5050.39999961853,1332104.6000003815,9024,WL,A,3.0
7,14.550000190734863,immed,45449.99980926514,Thu Sep 11 2025 15:23:53 GMT-0400 (Eastern Daylight Time),1337520.9000005722,A,chimn,I,n,353,2,5416.300000190735,1332104.6000003815,9024,WL,A,3.0
7,15.050000190734863,immed,44949.99980926514,Thu Sep 11 2025 15:23:53 GMT-0400 (Eastern Daylight Time),1338021.4000005722,A,chimne,I,e,487,2,5916.800000190735,1332104.6000003815,9024,WL,A,3.0
7,15.367000102996826,immed,44632.999897003174,Thu Sep 11 2025 15:23:53 GMT-0400 (Eastern Daylight Time),1338338.1000003815,A,chimney,I,y,305,2,6233.5,1332104.6000003815,9024,WL,A,3.0
7,15.966000080108643,immed,44033.99991989136,Thu Sep 11 2025 15:23:53 GMT-0400 (Eastern Daylight Time),1338937.700000763,A,chimneyenter,I,enter,579,2,6833.10000038147,1332104.6000003815,9024,WL,A,3.0
7,21.117000102996826,immed,38882.999897003174,Thu Sep 11 2025 15:23:53 GMT-0400 (Eastern Daylight Time),1344088.200000763,A,r,I,r,5134,2,5150.200000762939,1338938.0,9024,WL,A,4.0
7,21.550000190734863,immed,38449.99980926514,Thu Sep 11 2025 15:23:53 GMT-0400 (Eastern Daylight Time),1344521.5,A,ru,I,u,414,2,5583.5,1338938.0,9024,WL,A,4.0
7,22.0,immed,38000.0,Thu Sep 11 2025 15:23:53 GMT-0400 (Eastern Daylight Time),1344971.5,A,rug,I,g,427,2,6033.5,1338938.0,9024,WL,A,4.0
7,22.516000032424927,immed,37483.99996757507,Thu Sep 11 2025 15:23:53 GMT-0400 (Eastern Daylight Time),1345487.5,A,rugenter,I,enter,506,2,6549.5,1338938.0,9024,WL,A,4.0
7,23.100000143051147,immed,36899.99985694885,Thu Sep 11 2025 15:23:53 GMT-0400 (Eastern Daylight Time),1346071.4000005722,A,l,I,l,570,2,583.5,1345487.9000005722,9024,WL,A,5.0
7,23.41700005531311,immed,36582.99994468689,Thu Sep 11 2025 15:23:53 GMT-0400 (Eastern Daylight Time),1346388.1000003815,A,lo,I,o,301,2,900.1999998092651,1345487.9000005722,9024,WL,A,5.0
7,24.067000150680542,immed,35932.99984931946,Thu Sep 11 2025 15:23:53 GMT-0400 (Eastern Daylight Time),1347038.200000763,A,log,I,g,626,2,1550.3000001907349,1345487.9000005722,9024,WL,A,5.0
7,24.433000087738037,immed,35566.99991226196,Thu Sep 11 2025 15:23:53 GMT-0400 (Eastern Daylight Time),1347404.3000001907,A,logenter,I,enter,342,2,1916.3999996185303,1345487.9000005722,9024,WL,A,5.0
7,25.117000102996826,immed,34882.999897003174,Thu Sep 11 2025 15:23:53 GMT-0400 (Eastern Daylight Time),1348088.1000003815,A,k,I,k,667,2,683.3000001907349,1347404.8000001907,9024,WL,A,6.0
7,26.067000150680542,immed,33932.99984931946,Thu Sep 11 2025 15:23:53 GMT-0400 (Eastern Daylight Time),1349038.0,A,ke,I,e,925,2,1633.1999998092651,1347404.8000001907,9024,WL,A,6.0
7,26.450000047683716,immed,33549.999952316284,Thu Sep 11 2025 15:23:53 GMT-0400 (Eastern Daylight Time),1349421.5,A,key,I,y,356,2,2016.6999998092651,1347404.8000001907,9024,WL,A,6.0
7,27.266000032424927,immed,32733.999967575073,Thu Sep 11 2025 15:23:53 GMT-0400 (Eastern Daylight Time),1350237.700000763,A,keyenter,I,enter,790,2,2832.9000005722046,1347404.8000001907,9024,WL,A,6.0
7,28.16700005531311,immed,31832.99994468689,Thu Sep 11 2025 15:23:53 GMT-0400 (Eastern Daylight Time),1351138.1000003815,A,t,I,t,891,2,900.1000003814697,1350238.0,9024,WL,A,7.0
7,28.484000205993652,immed,31515.999794006348,Thu Sep 11 2025 15:23:53 GMT-0400 (Eastern Daylight Time),1351454.8000001907,A,tr,I,r,292,2,1216.8000001907349,1350238.0,9024,WL,A,7.0
7,29.050000190734863,immed,30949.999809265137,Thu Sep 11 2025 15:23:53 GMT-0400 (Eastern Daylight Time),1352021.4000005722,A,tra,I,a,551,2,1783.4000005722046,1350238.0,9024,WL,A,7.0
7,29.467000007629395,immed,30532.999992370605,Thu Sep 11 2025 15:23:53 GMT-0400 (Eastern Daylight Time),1352438.1000003815,A,trai,I,i,400,2,2200.1000003814697,1350238.0,9024,WL,A,7.0
7,29.867000102996826,immed,30132.999897003174,Thu Sep 11 2025 15:23:53 GMT-0400 (Eastern Daylight Time),1352838.200000763,A,train,I,n,384,2,2600.2000007629395,1350238.0,9024,WL,A,7.0
7,30.450000047683716,immed,29549.999952316284,Thu Sep 11 2025 15:23:53 GMT-0400 (Eastern Daylight Time),1353421.0,A,trainenter,I,enter,549,2,3183.0,1350238.0,9024,WL,A,7.0
7,31.217000007629395,immed,28782.999992370605,Thu Sep 11 2025 15:23:53 GMT-0400 (Eastern Daylight Time),1354188.200000763,A,a,I,a,748,2,766.9000005722046,1353421.3000001907,9024,WL,A,8.0
7,31.58400011062622,immed,28415.99988937378,Thu Sep 11 2025 15:23:53 GMT-0400 (Eastern Daylight Time),1354555.0,A,ap,I,p,345,2,1133.6999998092651,1353421.3000001907,9024,WL,A,8.0
7,31.784000158309937,immed,28215.999841690063,Thu Sep 11 2025 15:23:53 GMT-0400 (Eastern Daylight Time),1354754.8000001907,A,app,I,p,186,2,1333.5,1353421.3000001907,9024,WL,A,8.0
7,32.10000014305115,immed,27899.999856948853,Thu Sep 11 2025 15:23:53 GMT-0400 (Eastern Daylight Time),1355071.8000001907,A,appl,I,l,299,2,1650.5,1353421.3000001907,9024,WL,A,8.0
7,32.450000047683716,immed,27549.999952316284,Thu Sep 11 2025 15:23:53 GMT-0400 (Eastern Daylight Time),1355421.5,A,apple,I,e,326,2,2000.1999998092651,1353421.3000001907,9024,WL,A,8.0
7,32.75,immed,27250.0,Thu Sep 11 2025 15:23:53 GMT-0400 (Eastern Daylight Time),1355721.0,A,appleenter,I,enter,278,2,2299.699999809265,1353421.3000001907,9024,WL,A,8.0
7,33.384000062942505,immed,26615.999937057495,Thu Sep 11 2025 15:23:53 GMT-0400 (Eastern Daylight Time),1356354.8000001907,A,b,I,b,624,2,633.5,1355721.3000001907,9024,WL,A,9.0
7,33.80000019073486,immed,26199.999809265137,Thu Sep 11 2025 15:23:53 GMT-0400 (Eastern Daylight Time),1356771.5,A,bu,I,u,403,2,1050.1999998092651,1355721.3000001907,9024,WL,A,9.0
7,34.15000009536743,immed,25849.99990463257,Thu Sep 11 2025 15:23:53 GMT-0400 (Eastern Daylight Time),1357121.4000005722,A,but,I,t,338,2,1400.1000003814697,1355721.3000001907,9024,WL,A,9.0
7,34.40000009536743,immed,25599.99990463257,Thu Sep 11 2025 15:23:53 GMT-0400 (Eastern Daylight Time),1357371.6000003815,A,butt,I,t,228,2,1650.3000001907349,1355721.3000001907,9024,WL,A,9.0
7,34.65000009536743,immed,25349.99990463257,Thu Sep 11 2025 15:23:53 GMT-0400 (Eastern Daylight Time),1357621.5,A,butto,I,o,226,2,1900.1999998092651,1355721.3000001907,9024,WL,A,9.0
7,35.03400015830994,immed,24965.999841690063,Thu Sep 11 2025 15:23:53 GMT-0400 (Eastern Daylight Time),1358004.8000001907,A,button,I,n,367,2,2283.5,1355721.3000001907,9024,WL,A,9.0
7,35.56600022315979,immed,24433.99977684021,Thu Sep 11 2025 15:23:53 GMT-0400 (Eastern Daylight Time),1358537.700000763,A,buttonenter,I,enter,510,2,2816.4000005722046,1355721.3000001907,9024,WL,A,9.0
7,36.28400015830994,immed,23715.999841690063,Thu Sep 11 2025 15:23:53 GMT-0400 (Eastern Daylight Time),1359254.9000005722,A,t,I,t,703,2,716.9000005722046,1358538.0,9024,WL,A,10.0
7,36.56700015068054,immed,23432.999849319458,Thu Sep 11 2025 15:23:53 GMT-0400 (Eastern Daylight Time),1359538.1000003815,A,tr,I,r,270,2,1000.1000003814697,1358538.0,9024,WL,A,10.0
7,37.10000014305115,immed,22899.999856948853,Thu Sep 11 2025 15:23:53 GMT-0400 (Eastern Daylight Time),1360071.5,A,tra,I,a,516,2,1533.5,1358538.0,9024,WL,A,10.0
7,37.53400015830994,immed,22465.999841690063,Thu Sep 11 2025 15:23:53 GMT-0400 (Eastern Daylight Time),1360505.0,A,trai,I,i,413,2,1967.0,1358538.0,9024,WL,A,10.0
7,37.93400001525879,immed,22065.99998474121,Thu Sep 11 2025 15:23:53 GMT-0400 (Eastern Daylight Time),1360904.9000005722,A,train,I,n,381,2,2366.9000005722046,1358538.0,9024,WL,A,10.0
7,38.41600012779236,immed,21583.99987220764,Thu Sep 11 2025 15:23:53 GMT-0400 (Eastern Daylight Time),1361387.700000763,A,trainenter,I,enter,461,2,2849.7000007629395,1358538.0,9024,WL,A,10.0
7,40.30000019073486,immed,19699.999809265137,Thu Sep 11 2025 15:23:53 GMT-0400 (Eastern Daylight Time),1363271.5,A,f,I,f,1869,2,1883.3999996185303,1361388.1000003815,9024,WL,A,11.0
7,40.50100016593933,immed,19498.99983406067,Thu Sep 11 2025 15:23:53 GMT-0400 (Eastern Daylight Time),1363471.8000001907,A,fi,I,i,190,2,2083.699999809265,1361388.1000003815,9024,WL,A,11.0
7,40.90000009536743,immed,19099.99990463257,Thu Sep 11 2025 15:23:53 GMT-0400 (Eastern Daylight Time),1363871.3000001907,A,fin,I,n,373,2,2483.199999809265,1361388.1000003815,9024,WL,A,11.0
7,41.31700015068054,immed,18682.999849319458,Thu Sep 11 2025 15:23:53 GMT-0400 (Eastern Daylight Time),1364288.200000763,A,fing,I,g,390,2,2900.1000003814697,1361388.1000003815,9024,WL,A,11.0
7,41.68400001525879,immed,18315.99998474121,Thu Sep 11 2025 15:23:53 GMT-0400 (Eastern Daylight Time),1364654.9000005722,A,finge,I,e,341,2,3266.800000190735,1361388.1000003815,9024,WL,A,11.0
7,41.98400020599365,immed,18015.999794006348,Thu Sep 11 2025 15:23:53 GMT-0400 (Eastern Daylight Time),1364954.8000001907,A,finger,I,r,276,2,3566.699999809265,1361388.1000003815,9024,WL,A,11.0
7,42.51600003242493,immed,17483.999967575073,Thu Sep 11 2025 15:23:53 GMT-0400 (Eastern Daylight Time),1365487.5,A,fingerenter,I,enter,522,2,4099.39999961853,1361388.1000003815,9024,WL,A,11.0
7,52.56700015068054,immed,7432.999849319458,Thu Sep 11 2025 15:23:53 GMT-0400 (Eastern Daylight Time),1375538.1000003815,A,k,I,k,10041,2,10050.10000038147,1365488.0,9024,WL,A,12.0
7,52.950000047683716,immed,7049.999952316284,Thu Sep 11 2025 15:23:53 GMT-0400 (Eastern Daylight Time),1375921.0,A,ke,I,e,371,2,10433.0,1365488.0,9024,WL,A,12.0
7,53.634000062942505,immed,6365.999937057495,Thu Sep 11 2025 15:23:53 GMT-0400 (Eastern Daylight Time),1376604.8000001907,A,key,I,y,664,2,11116.800000190735,1365488.0,9024,WL,A,12.0
7,54.20100021362305,immed,5798.999786376953,Thu Sep 11 2025 15:23:53 GMT-0400 (Eastern Daylight Time),1377172.1000003815,A,keyenter,I,enter,553,2,11684.10000038147,1365488.0,9024,WL,A,12.0
7,60.01700019836426,immed,-17.000198364257812,Thu Sep 11 2025 15:23:53 GMT-0400 (Eastern Daylight Time),1382987.8000001907,A,None,I,None,5810,2,5815.39999961853,1377172.4000005722,9024,WL,A,13.0
