acc_sum,block,block_c,change,condition,correct,correct_response,datetime,endtime,face,project,response,response_time,row_sel,session_number,start_end,starttime,subject_id,task,task_vers,trial
0,prac,1,,1-Back,,,Tue Dec 09 2025 17:04:07 GMT-0600 (Central Standard Time),,050_m_f_n_a.png,I,space,3633,1,1,,,8083,NNB,A,0
1,prac,1,0.0,1-Back,1.0,m,Tue Dec 09 2025 17:04:07 GMT-0600 (Central Standard Time),99612.5,063_y_f_n_a.png,I,m,1267,2,1,2073.399999976158,97539.10000002384,8083,NNB,A,1
2,prac,1,1.0,1-Back,1.0,z,Tue Dec 09 2025 17:04:07 GMT-0600 (Central Standard Time),101495.5,063_y_f_n_a.png,I,z,1106,3,1,1872.0999999642372,99623.40000003576,8083,NNB,A,2
3,prac,1,0.0,1-Back,1.0,m,Tue Dec 09 2025 17:04:07 GMT-0600 (Central Standard Time),103281.80000001192,053_o_m_n_a.png,I,m,984,4,1,1773.5,101508.30000001192,8083,NNB,A,3
4,prac,1,0.0,1-Back,1.0,m,Tue Dec 09 2025 17:04:07 GMT-0600 (Central Standard Time),104825.60000002384,058_m_m_n_a.png,I,m,725,5,1,1537.199999988079,103288.40000003576,8083,NNB,A,4
4,prac,1,1.0,1-Back,0.0,z,Tue Dec 09 2025 17:04:07 GMT-0600 (Central Standard Time),106342.10000002384,058_m_m_n_a.png,I,m,738,6,1,1510.1000000238419,104832.0,8083,NNB,A,5
5,prac,1,0.0,1-Back,1.0,m,Tue Dec 09 2025 17:04:07 GMT-0600 (Central Standard Time),107925.69999998808,047_o_f_n_a.png,I,m,803,7,1,1575.7999999523163,106349.90000003576,8083,NNB,A,6
6,prac,1,0.0,1-Back,1.0,m,Tue Dec 09 2025 17:04:07 GMT-0600 (Central Standard Time),109576.90000003576,045_m_m_n_a.png,I,m,874,8,1,1641.1000000238419,107935.80000001192,8083,NNB,A,7
7,prac,1,0.0,1-Back,1.0,m,Tue Dec 09 2025 17:04:07 GMT-0600 (Central Standard Time),111442.10000002384,050_m_f_n_a.png,I,m,1095,9,1,1855.4000000357628,109586.69999998808,8083,NNB,A,8
8,prac,1,1.0,1-Back,1.0,z,Tue Dec 09 2025 17:04:07 GMT-0600 (Central Standard Time),113159.30000001192,050_m_f_n_a.png,I,z,933,10,1,1706.199999988079,111453.10000002384,8083,NNB,A,9
9,prac,1,0.0,1-Back,1.0,m,Tue Dec 09 2025 17:04:07 GMT-0600 (Central Standard Time),114674.40000003576,053_o_m_n_a.png,I,m,736,11,1,1503.2000000476837,113171.19999998808,8083,NNB,A,10
10,prac,1,0.0,1-Back,1.0,m,Tue Dec 09 2025 17:04:07 GMT-0600 (Central Standard Time),116156.40000003576,010_y_f_n_a.png,I,m,658,12,1,1471.6000000238419,114684.80000001192,8083,NNB,A,11
0,test,1,0.0,1-Back,,,Tue Dec 09 2025 17:04:07 GMT-0600 (Central Standard Time),116156.40000003576,063_y_f_n_a.png,I,space,7763,1,1,1471.6000000238419,114684.80000001192,8083,NNB,A,0
1,test,1,0.0,1-Back,1.0,m,Tue Dec 09 2025 17:04:07 GMT-0600 (Central Standard Time),133367.80000001192,043_m_f_n_a.png,I,m,711,2,1,1722.8999999761581,131644.90000003576,8083,NNB,A,1
2,test,1,0.0,1-Back,1.0,m,Tue Dec 09 2025 17:04:07 GMT-0600 (Central Standard Time),135250.30000001192,010_y_f_n_a.png,I,m,864,3,1,1872.8999999761581,133377.40000003576,8083,NNB,A,2
2,test,1,1.0,1-Back,0.0,z,Tue Dec 09 2025 17:04:07 GMT-0600 (Central Standard Time),137216.30000001192,010_y_f_n_a.png,I,m,936,4,1,1957.800000011921,135258.5,8083,NNB,A,3
3,test,1,0.0,1-Back,1.0,m,Tue Dec 09 2025 17:04:07 GMT-0600 (Central Standard Time),138832.10000002384,043_m_f_n_a.png,I,m,585,5,1,1606.300000011921,137225.80000001192,8083,NNB,A,4
4,test,1,0.0,1-Back,1.0,m,Tue Dec 09 2025 17:04:07 GMT-0600 (Central Standard Time),140482.0,053_o_m_n_a.png,I,m,617,6,1,1640.199999988079,138841.80000001192,8083,NNB,A,5
5,test,1,1.0,1-Back,1.0,z,Tue Dec 09 2025 17:04:07 GMT-0600 (Central Standard Time),142031.10000002384,053_o_m_n_a.png,I,z,520,7,1,1539.699999988079,140491.40000003576,8083,NNB,A,6
6,test,1,0.0,1-Back,1.0,m,Tue Dec 09 2025 17:04:07 GMT-0600 (Central Standard Time),143580.69999998808,058_m_m_n_a.png,I,m,529,8,1,1540.2999999523163,142040.40000003576,8083,NNB,A,7
7,test,1,0.0,1-Back,1.0,m,Tue Dec 09 2025 17:04:07 GMT-0600 (Central Standard Time),145180.19999998808,047_o_f_n_a.png,I,m,572,9,1,1591.7999999523163,143588.40000003576,8083,NNB,A,8
8,test,1,0.0,1-Back,1.0,m,Tue Dec 09 2025 17:04:07 GMT-0600 (Central Standard Time),146912.90000003576,058_m_m_n_a.png,I,m,698,10,1,1722.1000000238419,145190.80000001192,8083,NNB,A,9
9,test,1,0.0,1-Back,1.0,m,Tue Dec 09 2025 17:04:07 GMT-0600 (Central Standard Time),148495.10000002384,041_y_m_n_a.png,I,m,559,11,1,1572.1000000238419,146923.0,8083,NNB,A,10
10,test,1,1.0,1-Back,1.0,z,Tue Dec 09 2025 17:04:07 GMT-0600 (Central Standard Time),149962.40000003576,041_y_m_n_a.png,I,z,433,12,1,1458.6000000238419,148503.80000001192,8083,NNB,A,11
11,test,1,0.0,1-Back,1.0,m,Tue Dec 09 2025 17:04:07 GMT-0600 (Central Standard Time),151495.19999998808,044_o_f_n_a.png,I,m,503,13,1,1523.5,149971.69999998808,8083,NNB,A,12
12,test,1,1.0,1-Back,1.0,z,Tue Dec 09 2025 17:04:07 GMT-0600 (Central Standard Time),153113.30000001192,044_o_f_n_a.png,I,z,594,14,1,1608.199999988079,151505.10000002384,8083,NNB,A,13
13,test,1,0.0,1-Back,1.0,m,Tue Dec 09 2025 17:04:07 GMT-0600 (Central Standard Time),154677.5,008_y_m_n_a.png,I,m,546,15,1,1553.0999999642372,153124.40000003576,8083,NNB,A,14
14,test,1,0.0,1-Back,1.0,m,Tue Dec 09 2025 17:04:07 GMT-0600 (Central Standard Time),156643.19999998808,050_m_f_n_a.png,I,m,945,16,1,1955.5999999642372,154687.60000002384,8083,NNB,A,15
15,test,1,0.0,1-Back,1.0,m,Tue Dec 09 2025 17:04:07 GMT-0600 (Central Standard Time),158210.69999998808,046_o_m_n_a.png,I,m,549,17,1,1556.7999999523163,156653.90000003576,8083,NNB,A,16
16,test,1,0.0,1-Back,1.0,m,Tue Dec 09 2025 17:04:07 GMT-0600 (Central Standard Time),160027.80000001192,050_m_f_n_a.png,I,m,791,18,1,1807.3999999761581,158220.40000003576,8083,NNB,A,17
0,test,2,0.0,1-Back,,,Tue Dec 09 2025 17:04:07 GMT-0600 (Central Standard Time),160027.80000001192,058_m_m_n_a.png,I,space,1696,1,1,1807.3999999761581,158220.40000003576,8083,NNB,A,0
1,test,2,0.0,1-Back,1.0,m,Tue Dec 09 2025 17:04:07 GMT-0600 (Central Standard Time),165406.40000003576,043_m_f_n_a.png,I,m,644,2,1,1653.1000000238419,163753.30000001192,8083,NNB,A,1
2,test,2,1.0,1-Back,1.0,z,Tue Dec 09 2025 17:04:07 GMT-0600 (Central Standard Time),167073.30000001192,043_m_f_n_a.png,I,z,642,3,1,1657.3999999761581,165415.90000003576,8083,NNB,A,2
3,test,2,0.0,1-Back,1.0,m,Tue Dec 09 2025 17:04:07 GMT-0600 (Central Standard Time),168822.80000001192,058_m_m_n_a.png,I,m,728,4,1,1737.3999999761581,167085.40000003576,8083,NNB,A,3
4,test,2,0.0,1-Back,1.0,m,Tue Dec 09 2025 17:04:07 GMT-0600 (Central Standard Time),170455.90000003576,041_y_m_n_a.png,I,m,613,5,1,1623.5,168832.40000003576,8083,NNB,A,4
5,test,2,0.0,1-Back,1.0,m,Tue Dec 09 2025 17:04:07 GMT-0600 (Central Standard Time),172037.60000002384,063_y_f_n_a.png,I,m,561,6,1,1572.0,170465.60000002384,8083,NNB,A,5
6,test,2,1.0,1-Back,1.0,z,Tue Dec 09 2025 17:04:07 GMT-0600 (Central Standard Time),173788.0,063_y_f_n_a.png,I,z,733,7,1,1740.0999999642372,172047.90000003576,8083,NNB,A,6
7,test,2,0.0,1-Back,1.0,m,Tue Dec 09 2025 17:04:07 GMT-0600 (Central Standard Time),175338.19999998808,041_y_m_n_a.png,I,m,534,8,1,1538.0999999642372,173800.10000002384,8083,NNB,A,7
8,test,2,0.0,1-Back,1.0,m,Tue Dec 09 2025 17:04:07 GMT-0600 (Central Standard Time),177052.40000003576,044_o_f_n_a.png,I,m,695,9,1,1704.2000000476837,175348.19999998808,8083,NNB,A,8
9,test,2,0.0,1-Back,1.0,m,Tue Dec 09 2025 17:04:07 GMT-0600 (Central Standard Time),178637.30000001192,045_m_m_n_a.png,I,m,555,10,1,1574.199999988079,177063.10000002384,8083,NNB,A,9
10,test,2,1.0,1-Back,1.0,z,Tue Dec 09 2025 17:04:07 GMT-0600 (Central Standard Time),180286.10000002384,045_m_m_n_a.png,I,z,621,11,1,1639.5,178646.60000002384,8083,NNB,A,10
11,test,2,0.0,1-Back,1.0,m,Tue Dec 09 2025 17:04:07 GMT-0600 (Central Standard Time),181918.60000002384,044_o_f_n_a.png,I,m,610,12,1,1621.199999988079,180297.40000003576,8083,NNB,A,11
12,test,2,0.0,1-Back,1.0,m,Tue Dec 09 2025 17:04:07 GMT-0600 (Central Standard Time),183535.40000003576,047_o_f_n_a.png,I,m,586,13,1,1607.0,181928.40000003576,8083,NNB,A,12
13,test,2,0.0,1-Back,1.0,m,Tue Dec 09 2025 17:04:07 GMT-0600 (Central Standard Time),185084.30000001192,053_o_m_n_a.png,I,m,530,14,1,1539.5,183544.80000001192,8083,NNB,A,13
14,test,2,0.0,1-Back,1.0,m,Tue Dec 09 2025 17:04:07 GMT-0600 (Central Standard Time),186666.5,046_o_m_n_a.png,I,m,555,15,1,1570.0,185096.5,8083,NNB,A,14
15,test,2,1.0,1-Back,1.0,z,Tue Dec 09 2025 17:04:07 GMT-0600 (Central Standard Time),188116.5,046_o_m_n_a.png,I,z,429,16,1,1439.800000011921,186676.69999998808,8083,NNB,A,15
16,test,2,0.0,1-Back,1.0,m,Tue Dec 09 2025 17:04:07 GMT-0600 (Central Standard Time),189632.19999998808,008_y_m_n_a.png,I,m,484,17,1,1506.0,188126.19999998808,8083,NNB,A,16
17,test,2,1.0,1-Back,1.0,z,Tue Dec 09 2025 17:04:07 GMT-0600 (Central Standard Time),191315.30000001192,008_y_m_n_a.png,I,z,666,18,1,1673.6000000238419,189641.69999998808,8083,NNB,A,17
0,test,3,1.0,1-Back,,,Tue Dec 09 2025 17:04:07 GMT-0600 (Central Standard Time),191315.30000001192,010_y_f_n_a.png,I,space,1566,1,1,1673.6000000238419,189641.69999998808,8083,NNB,A,0
1,test,3,0.0,1-Back,1.0,m,Tue Dec 09 2025 17:04:07 GMT-0600 (Central Standard Time),196662.80000001192,046_o_m_n_a.png,I,m,669,2,1,1688.3999999761581,194974.40000003576,8083,NNB,A,1
2,test,3,1.0,1-Back,1.0,z,Tue Dec 09 2025 17:04:07 GMT-0600 (Central Standard Time),198479.69999998808,046_o_m_n_a.png,I,z,791,3,1,1809.8999999761581,196669.80000001192,8083,NNB,A,2
3,test,3,0.0,1-Back,1.0,m,Tue Dec 09 2025 17:04:07 GMT-0600 (Central Standard Time),200228.40000003576,050_m_f_n_a.png,I,m,723,4,1,1738.7000000476837,198489.69999998808,8083,NNB,A,3
4,test,3,1.0,1-Back,1.0,z,Tue Dec 09 2025 17:04:07 GMT-0600 (Central Standard Time),201895.0,050_m_f_n_a.png,I,z,636,5,1,1655.8999999761581,200239.10000002384,8083,NNB,A,4
5,test,3,0.0,1-Back,1.0,m,Tue Dec 09 2025 17:04:07 GMT-0600 (Central Standard Time),203544.69999998808,044_o_f_n_a.png,I,m,618,6,1,1638.8999999761581,201905.80000001192,8083,NNB,A,5
6,test,3,0.0,1-Back,1.0,m,Tue Dec 09 2025 17:04:07 GMT-0600 (Central Standard Time),205159.80000001192,041_y_m_n_a.png,I,m,592,7,1,1603.5,203556.30000001192,8083,NNB,A,6
7,test,3,0.0,1-Back,1.0,m,Tue Dec 09 2025 17:04:07 GMT-0600 (Central Standard Time),206710.90000003576,044_o_f_n_a.png,I,m,528,8,1,1544.4000000357628,205166.5,8083,NNB,A,7
8,test,3,0.0,1-Back,1.0,m,Tue Dec 09 2025 17:04:07 GMT-0600 (Central Standard Time),208275.60000002384,008_y_m_n_a.png,I,m,547,9,1,1555.6000000238419,206720.0,8083,NNB,A,8
9,test,3,1.0,1-Back,1.0,z,Tue Dec 09 2025 17:04:07 GMT-0600 (Central Standard Time),209975.19999998808,008_y_m_n_a.png,I,z,677,10,1,1689.7999999523163,208285.40000003576,8083,NNB,A,9
10,test,3,0.0,1-Back,1.0,m,Tue Dec 09 2025 17:04:07 GMT-0600 (Central Standard Time),211608.69999998808,043_m_f_n_a.png,I,m,608,11,1,1623.8999999761581,209984.80000001192,8083,NNB,A,10
11,test,3,0.0,1-Back,1.0,m,Tue Dec 09 2025 17:04:07 GMT-0600 (Central Standard Time),213410.10000002384,063_y_f_n_a.png,I,m,772,12,1,1791.9000000357628,211618.19999998808,8083,NNB,A,11
12,test,3,1.0,1-Back,1.0,z,Tue Dec 09 2025 17:04:07 GMT-0600 (Central Standard Time),214909.0,063_y_f_n_a.png,I,z,483,13,1,1489.5999999642372,213419.40000003576,8083,NNB,A,12
13,test,3,0.0,1-Back,1.0,m,Tue Dec 09 2025 17:04:07 GMT-0600 (Central Standard Time),216491.10000002384,043_m_f_n_a.png,I,m,558,14,1,1573.5,214917.60000002384,8083,NNB,A,13
14,test,3,0.0,1-Back,1.0,m,Tue Dec 09 2025 17:04:07 GMT-0600 (Central Standard Time),218140.19999998808,058_m_m_n_a.png,I,m,619,15,1,1639.7999999523163,216500.40000003576,8083,NNB,A,14
15,test,3,1.0,1-Back,1.0,z,Tue Dec 09 2025 17:04:07 GMT-0600 (Central Standard Time),219674.10000002384,058_m_m_n_a.png,I,z,501,16,1,1524.6000000238419,218149.5,8083,NNB,A,15
16,test,3,0.0,1-Back,1.0,m,Tue Dec 09 2025 17:04:07 GMT-0600 (Central Standard Time),221175.69999998808,047_o_f_n_a.png,I,m,473,17,1,1492.3999999761581,219683.30000001192,8083,NNB,A,16
17,test,3,1.0,1-Back,1.0,z,Tue Dec 09 2025 17:04:07 GMT-0600 (Central Standard Time),222771.60000002384,047_o_f_n_a.png,I,z,573,18,1,1587.9000000357628,221183.69999998808,8083,NNB,A,17
0,test,4,1.0,1-Back,,,Tue Dec 09 2025 17:04:07 GMT-0600 (Central Standard Time),222771.60000002384,050_m_f_n_a.png,I,space,1158,1,1,1587.9000000357628,221183.69999998808,8083,NNB,A,0
1,test,4,0.0,1-Back,1.0,m,Tue Dec 09 2025 17:04:07 GMT-0600 (Central Standard Time),227620.10000002384,046_o_m_n_a.png,I,m,648,2,1,1657.0,225963.10000002384,8083,NNB,A,1
1,test,4,0.0,1-Back,0.0,m,Tue Dec 09 2025 17:04:07 GMT-0600 (Central Standard Time),230169.80000001192,050_m_f_n_a.png,I,z,1524,3,1,2539.600000023842,227630.19999998808,8083,NNB,A,2
2,test,4,0.0,1-Back,1.0,m,Tue Dec 09 2025 17:04:07 GMT-0600 (Central Standard Time),231804.90000003576,044_o_f_n_a.png,I,m,619,4,1,1625.1000000238419,230179.80000001192,8083,NNB,A,3
3,test,4,1.0,1-Back,1.0,z,Tue Dec 09 2025 17:04:07 GMT-0600 (Central Standard Time),233637.10000002384,044_o_f_n_a.png,I,z,818,5,1,1824.199999988079,231812.90000003576,8083,NNB,A,4
4,test,4,0.0,1-Back,1.0,m,Tue Dec 09 2025 17:04:07 GMT-0600 (Central Standard Time),235267.80000001192,063_y_f_n_a.png,I,m,606,6,1,1619.6000000238419,233648.19999998808,8083,NNB,A,5
5,test,4,0.0,1-Back,1.0,m,Tue Dec 09 2025 17:04:07 GMT-0600 (Central Standard Time),236834.19999998808,041_y_m_n_a.png,I,m,543,7,1,1554.699999988079,235279.5,8083,NNB,A,6
6,test,4,1.0,1-Back,1.0,z,Tue Dec 09 2025 17:04:07 GMT-0600 (Central Standard Time),239083.0,041_y_m_n_a.png,I,z,1222,8,1,2239.399999976158,236843.60000002384,8083,NNB,A,7
7,test,4,0.0,1-Back,1.0,m,Tue Dec 09 2025 17:04:07 GMT-0600 (Central Standard Time),240633.0,063_y_f_n_a.png,I,m,519,9,1,1540.699999988079,239092.30000001192,8083,NNB,A,8
8,test,4,0.0,1-Back,1.0,m,Tue Dec 09 2025 17:04:07 GMT-0600 (Central Standard Time),242265.19999998808,045_m_m_n_a.png,I,m,600,10,1,1622.7999999523163,240642.40000003576,8083,NNB,A,9
8,test,4,1.0,1-Back,0.0,z,Tue Dec 09 2025 17:04:07 GMT-0600 (Central Standard Time),244481.19999998808,045_m_m_n_a.png,I,m,1181,11,1,2205.7999999523163,242275.40000003576,8083,NNB,A,10
9,test,4,0.0,1-Back,1.0,m,Tue Dec 09 2025 17:04:07 GMT-0600 (Central Standard Time),246164.30000001192,047_o_f_n_a.png,I,m,647,12,1,1673.1000000238419,244491.19999998808,8083,NNB,A,11
10,test,4,0.0,1-Back,1.0,m,Tue Dec 09 2025 17:04:07 GMT-0600 (Central Standard Time),247864.10000002384,053_o_m_n_a.png,I,m,668,13,1,1688.699999988079,246175.40000003576,8083,NNB,A,12
11,test,4,0.0,1-Back,1.0,m,Tue Dec 09 2025 17:04:07 GMT-0600 (Central Standard Time),249496.40000003576,047_o_f_n_a.png,I,m,600,14,1,1623.1000000238419,247873.30000001192,8083,NNB,A,13
12,test,4,0.0,1-Back,1.0,m,Tue Dec 09 2025 17:04:07 GMT-0600 (Central Standard Time),251129.60000002384,010_y_f_n_a.png,I,m,608,15,1,1622.800000011921,249506.80000001192,8083,NNB,A,14
13,test,4,1.0,1-Back,1.0,z,Tue Dec 09 2025 17:04:07 GMT-0600 (Central Standard Time),252795.40000003576,010_y_f_n_a.png,I,z,649,16,1,1655.4000000357628,251140.0,8083,NNB,A,15
14,test,4,0.0,1-Back,1.0,m,Tue Dec 09 2025 17:04:07 GMT-0600 (Central Standard Time),254348.30000001192,043_m_f_n_a.png,I,m,535,17,1,1543.5,252804.80000001192,8083,NNB,A,16
15,test,4,1.0,1-Back,1.0,z,Tue Dec 09 2025 17:04:07 GMT-0600 (Central Standard Time),256012.40000003576,043_m_f_n_a.png,I,z,640,18,1,1653.800000011921,254358.60000002384,8083,NNB,A,17
0,test,5,1.0,1-Back,,,Tue Dec 09 2025 17:04:07 GMT-0600 (Central Standard Time),256012.40000003576,053_o_m_n_a.png,I,space,1198,1,1,1653.800000011921,254358.60000002384,8083,NNB,A,0
1,test,5,1.0,1-Back,1.0,z,Tue Dec 09 2025 17:04:07 GMT-0600 (Central Standard Time),261011.0,053_o_m_n_a.png,I,z,767,2,1,1773.199999988079,259237.80000001192,8083,NNB,A,1
2,test,5,0.0,1-Back,1.0,m,Tue Dec 09 2025 17:04:07 GMT-0600 (Central Standard Time),262576.5,063_y_f_n_a.png,I,m,535,3,1,1559.300000011921,261017.19999998808,8083,NNB,A,2
3,test,5,0.0,1-Back,1.0,m,Tue Dec 09 2025 17:04:07 GMT-0600 (Central Standard Time),264158.3000000119,041_y_m_n_a.png,I,m,560,4,1,1573.1000000238419,262585.1999999881,8083,NNB,A,3
4,test,5,0.0,1-Back,1.0,m,Tue Dec 09 2025 17:04:07 GMT-0600 (Central Standard Time),266074.5,063_y_f_n_a.png,I,m,890,5,1,1908.3999999761581,264166.10000002384,8083,NNB,A,4
5,test,5,0.0,1-Back,1.0,m,Tue Dec 09 2025 17:04:07 GMT-0600 (Central Standard Time),267774.10000002384,058_m_m_n_a.png,I,m,670,6,1,1689.1000000238419,266085.0,8083,NNB,A,5
6,test,5,1.0,1-Back,1.0,z,Tue Dec 09 2025 17:04:07 GMT-0600 (Central Standard Time),269507.6999999881,058_m_m_n_a.png,I,z,716,7,1,1724.0,267783.6999999881,8083,NNB,A,6
7,test,5,0.0,1-Back,1.0,m,Tue Dec 09 2025 17:04:07 GMT-0600 (Central Standard Time),271305.8000000119,010_y_f_n_a.png,I,m,774,8,1,1788.6000000238419,269517.1999999881,8083,NNB,A,7
8,test,5,0.0,1-Back,1.0,m,Tue Dec 09 2025 17:04:07 GMT-0600 (Central Standard Time),273055.8000000119,008_y_m_n_a.png,I,m,722,9,1,1742.199999988079,271313.60000002384,8083,NNB,A,8
8,test,5,0.0,1-Back,0.0,m,Tue Dec 09 2025 17:04:07 GMT-0600 (Central Standard Time),274789.10000002384,010_y_f_n_a.png,I,z,705,10,1,1721.199999988079,273067.90000003576,8083,NNB,A,9
9,test,5,0.0,1-Back,1.0,m,Tue Dec 09 2025 17:04:07 GMT-0600 (Central Standard Time),276404.8000000119,047_o_f_n_a.png,I,m,587,11,1,1603.300000011921,274801.5,8083,NNB,A,10
10,test,5,1.0,1-Back,1.0,z,Tue Dec 09 2025 17:04:07 GMT-0600 (Central Standard Time),278171.0,047_o_f_n_a.png,I,z,749,12,1,1754.0999999642372,276416.90000003576,8083,NNB,A,11
11,test,5,0.0,1-Back,1.0,m,Tue Dec 09 2025 17:04:07 GMT-0600 (Central Standard Time),279771.0,046_o_m_n_a.png,I,m,573,13,1,1590.699999988079,278180.3000000119,8083,NNB,A,12
12,test,5,0.0,1-Back,1.0,m,Tue Dec 09 2025 17:04:07 GMT-0600 (Central Standard Time),281403.40000003576,050_m_f_n_a.png,I,m,615,14,1,1620.6000000238419,279782.8000000119,8083,NNB,A,13
13,test,5,1.0,1-Back,1.0,z,Tue Dec 09 2025 17:04:07 GMT-0600 (Central Standard Time),283335.8000000119,050_m_f_n_a.png,I,z,912,15,1,1921.1000000238419,281414.6999999881,8083,NNB,A,14
14,test,5,0.0,1-Back,1.0,m,Tue Dec 09 2025 17:04:07 GMT-0600 (Central Standard Time),284952.40000003576,046_o_m_n_a.png,I,m,582,16,1,1604.1000000238419,283348.3000000119,8083,NNB,A,15
15,test,5,0.0,1-Back,1.0,m,Tue Dec 09 2025 17:04:07 GMT-0600 (Central Standard Time),286602.40000003576,043_m_f_n_a.png,I,m,625,17,1,1637.7000000476837,284964.6999999881,8083,NNB,A,16
16,test,5,0.0,1-Back,1.0,m,Tue Dec 09 2025 17:04:07 GMT-0600 (Central Standard Time),288217.60000002384,045_m_m_n_a.png,I,m,592,18,1,1603.6000000238419,286614.0,8083,NNB,A,17
0,prac,1,0.0,2-Back,,,Tue Dec 09 2025 17:04:07 GMT-0600 (Central Standard Time),288217.60000002384,008_y_m_n_a.png,I,space,3848,1,1,1603.6000000238419,286614.0,8083,NNB,A,0
0,prac,1,0.0,2-Back,,,Tue Dec 09 2025 17:04:07 GMT-0600 (Central Standard Time),288217.60000002384,043_m_f_n_a.png,I,space,3848,2,1,1603.6000000238419,286614.0,8083,NNB,A,0
1,prac,1,1.0,2-Back,1.0,m,Tue Dec 09 2025 17:04:07 GMT-0600 (Central Standard Time),397718.5,046_o_m_n_a.png,I,m,1357,3,1,2157.300000011921,395561.1999999881,8083,NNB,A,1
2,prac,1,0.0,2-Back,1.0,m,Tue Dec 09 2025 17:04:07 GMT-0600 (Central Standard Time),400215.5,047_o_f_n_a.png,I,m,1654,4,1,2485.300000011921,397730.1999999881,8083,NNB,A,2
3,prac,1,0.0,2-Back,1.0,z,Tue Dec 09 2025 17:04:07 GMT-0600 (Central Standard Time),402565.0,046_o_m_n_a.png,I,z,1566,5,1,2336.399999976158,400228.60000002384,8083,NNB,A,3
3,prac,1,1.0,2-Back,0.0,z,Tue Dec 09 2025 17:04:07 GMT-0600 (Central Standard Time),404747.90000003576,047_o_f_n_a.png,I,m,1400,6,1,2170.2000000476837,402577.6999999881,8083,NNB,A,4
4,prac,1,0.0,2-Back,1.0,m,Tue Dec 09 2025 17:04:07 GMT-0600 (Central Standard Time),406996.6999999881,045_m_m_n_a.png,I,m,1433,7,1,2238.199999988079,404758.5,8083,NNB,A,5
4,prac,1,0.0,2-Back,0.0,m,Tue Dec 09 2025 17:04:07 GMT-0600 (Central Standard Time),408829.10000002384,053_o_m_n_a.png,I,z,1023,8,1,1822.1000000238419,407007.0,8083,NNB,A,6
4,prac,1,0.0,2-Back,0.0,m,Tue Dec 09 2025 17:04:07 GMT-0600 (Central Standard Time),411661.6999999881,010_y_f_n_a.png,I,None,2007,9,1,2820.899999976158,408840.8000000119,8083,NNB,A,7
5,prac,1,1.0,2-Back,1.0,z,Tue Dec 09 2025 17:04:07 GMT-0600 (Central Standard Time),413511.10000002384,053_o_m_n_a.png,I,z,1055,10,1,1837.1000000238419,411674.0,8083,NNB,A,8
6,prac,1,0.0,2-Back,1.0,m,Tue Dec 09 2025 17:04:07 GMT-0600 (Central Standard Time),415811.10000002384,063_y_f_n_a.png,I,m,1496,11,1,2288.199999988079,413522.90000003576,8083,NNB,A,9
6,prac,1,0.0,2-Back,0.0,m,Tue Dec 09 2025 17:04:07 GMT-0600 (Central Standard Time),417576.8000000119,045_m_m_n_a.png,I,z,990,12,1,1756.199999988079,415820.60000002384,8083,NNB,A,10
0,prac,2,0.0,2-Back,,,Tue Dec 09 2025 17:04:07 GMT-0600 (Central Standard Time),417576.8000000119,008_y_m_n_a.png,I,a,5518,1,1,1756.199999988079,415820.60000002384,8083,NNB,A,0
0,prac,2,0.0,2-Back,,,Tue Dec 09 2025 17:04:07 GMT-0600 (Central Standard Time),417576.8000000119,043_m_f_n_a.png,I,a,5518,2,1,1756.199999988079,415820.60000002384,8083,NNB,A,0
1,prac,2,1.0,2-Back,1.0,m,Tue Dec 09 2025 17:04:07 GMT-0600 (Central Standard Time),429807.0,046_o_m_n_a.png,I,m,816,3,1,1589.5999999642372,428217.40000003576,8083,NNB,A,1
2,prac,2,0.0,2-Back,1.0,m,Tue Dec 09 2025 17:04:07 GMT-0600 (Central Standard Time),431808.40000003576,047_o_f_n_a.png,I,m,1230,4,1,1988.9000000357628,429819.5,8083,NNB,A,2
2,prac,2,0.0,2-Back,0.0,z,Tue Dec 09 2025 17:04:07 GMT-0600 (Central Standard Time),434205.40000003576,046_o_m_n_a.png,I,m,1610,5,1,2386.800000011921,431818.60000002384,8083,NNB,A,3
3,prac,2,1.0,2-Back,1.0,z,Tue Dec 09 2025 17:04:07 GMT-0600 (Central Standard Time),436455.8000000119,047_o_f_n_a.png,I,z,1473,6,1,2238.5,434217.3000000119,8083,NNB,A,4
4,prac,2,0.0,2-Back,1.0,m,Tue Dec 09 2025 17:04:07 GMT-0600 (Central Standard Time),438620.1999999881,045_m_m_n_a.png,I,m,1374,7,1,2152.5,436467.6999999881,8083,NNB,A,5
5,prac,2,0.0,2-Back,1.0,m,Tue Dec 09 2025 17:04:07 GMT-0600 (Central Standard Time),440302.3000000119,053_o_m_n_a.png,I,m,898,8,1,1670.6000000238419,438631.6999999881,8083,NNB,A,6
6,prac,2,0.0,2-Back,1.0,m,Tue Dec 09 2025 17:04:07 GMT-0600 (Central Standard Time),441985.6999999881,010_y_f_n_a.png,I,m,922,9,1,1672.8999999761581,440312.8000000119,8083,NNB,A,7
7,prac,2,1.0,2-Back,1.0,z,Tue Dec 09 2025 17:04:07 GMT-0600 (Central Standard Time),443517.8000000119,053_o_m_n_a.png,I,z,740,10,1,1520.300000011921,441997.5,8083,NNB,A,8
7,prac,2,0.0,2-Back,0.0,m,Tue Dec 09 2025 17:04:07 GMT-0600 (Central Standard Time),445134.5,063_y_f_n_a.png,I,z,833,11,1,1604.699999988079,443529.8000000119,8083,NNB,A,9
7,prac,2,0.0,2-Back,0.0,m,Tue Dec 09 2025 17:04:07 GMT-0600 (Central Standard Time),446984.6999999881,045_m_m_n_a.png,I,z,1064,12,1,1839.3999999761581,445145.3000000119,8083,NNB,A,10
0,test,1,0.0,2-Back,,,Tue Dec 09 2025 17:04:07 GMT-0600 (Central Standard Time),446984.6999999881,041_y_m_n_a.png,I,space,8449,1,1,1839.3999999761581,445145.3000000119,8083,NNB,A,0
0,test,1,0.0,2-Back,,,Tue Dec 09 2025 17:04:07 GMT-0600 (Central Standard Time),446984.6999999881,041_y_m_n_a.png,I,space,8449,2,1,1839.3999999761581,445145.3000000119,8083,NNB,A,0
1,test,1,0.0,2-Back,1.0,m,Tue Dec 09 2025 17:04:07 GMT-0600 (Central Standard Time),475225.5,047_o_f_n_a.png,I,m,741,3,1,1757.199999988079,473468.3000000119,8083,NNB,A,1
1,test,1,0.0,2-Back,0.0,m,Tue Dec 09 2025 17:04:07 GMT-0600 (Central Standard Time),477176.8000000119,058_m_m_n_a.png,I,z,919,4,1,1940.1000000238419,475236.6999999881,8083,NNB,A,2
2,test,1,1.0,2-Back,1.0,z,Tue Dec 09 2025 17:04:07 GMT-0600 (Central Standard Time),480107.10000002384,047_o_f_n_a.png,I,z,1898,5,1,2921.900000035763,477185.1999999881,8083,NNB,A,3
3,test,1,0.0,2-Back,1.0,m,Tue Dec 09 2025 17:04:07 GMT-0600 (Central Standard Time),481840.0,063_y_f_n_a.png,I,m,711,6,1,1720.3999999761581,480119.60000002384,8083,NNB,A,4
4,test,1,0.0,2-Back,1.0,m,Tue Dec 09 2025 17:04:07 GMT-0600 (Central Standard Time),483989.1999999881,058_m_m_n_a.png,I,m,1131,7,1,2138.7999999523163,481850.40000003576,8083,NNB,A,5
5,test,1,1.0,2-Back,1.0,z,Tue Dec 09 2025 17:04:07 GMT-0600 (Central Standard Time),485838.5,063_y_f_n_a.png,I,z,820,8,1,1838.3999999761581,484000.10000002384,8083,NNB,A,6
6,test,1,0.0,2-Back,1.0,m,Tue Dec 09 2025 17:04:07 GMT-0600 (Central Standard Time),488187.90000003576,008_y_m_n_a.png,I,m,1323,9,1,2338.100000023842,485849.8000000119,8083,NNB,A,7
7,test,1,0.0,2-Back,1.0,m,Tue Dec 09 2025 17:04:07 GMT-0600 (Central Standard Time),490070.10000002384,044_o_f_n_a.png,I,m,854,10,1,1869.300000011921,488200.8000000119,8083,NNB,A,8
8,test,1,1.0,2-Back,1.0,z,Tue Dec 09 2025 17:04:07 GMT-0600 (Central Standard Time),491719.40000003576,008_y_m_n_a.png,I,z,617,11,1,1639.4000000357628,490080.0,8083,NNB,A,9
9,test,1,0.0,2-Back,1.0,m,Tue Dec 09 2025 17:04:07 GMT-0600 (Central Standard Time),493869.6999999881,043_m_f_n_a.png,I,m,1123,12,1,2141.899999976158,491727.8000000119,8083,NNB,A,10
10,test,1,0.0,2-Back,1.0,m,Tue Dec 09 2025 17:04:07 GMT-0600 (Central Standard Time),496701.5,043_m_f_n_a.png,I,m,1813,13,1,2820.800000011921,493880.6999999881,8083,NNB,A,11
11,test,1,0.0,2-Back,1.0,m,Tue Dec 09 2025 17:04:07 GMT-0600 (Central Standard Time),499083.6999999881,046_o_m_n_a.png,I,m,1365,14,1,2371.699999988079,496712.0,8083,NNB,A,12
11,test,1,0.0,2-Back,0.0,m,Tue Dec 09 2025 17:04:07 GMT-0600 (Central Standard Time),501451.40000003576,044_o_f_n_a.png,I,z,1350,15,1,2357.400000035763,499094.0,8083,NNB,A,13
12,test,1,1.0,2-Back,1.0,z,Tue Dec 09 2025 17:04:07 GMT-0600 (Central Standard Time),504332.0,046_o_m_n_a.png,I,z,1853,16,1,2871.899999976158,501460.10000002384,8083,NNB,A,14
13,test,1,0.0,2-Back,1.0,m,Tue Dec 09 2025 17:04:07 GMT-0600 (Central Standard Time),506198.0,050_m_f_n_a.png,I,m,837,17,1,1856.0,504342.0,8083,NNB,A,15
14,test,1,0.0,2-Back,1.0,m,Tue Dec 09 2025 17:04:07 GMT-0600 (Central Standard Time),508165.1999999881,045_m_m_n_a.png,I,m,949,18,1,1956.699999988079,506208.5,8083,NNB,A,16
0,test,2,0.0,2-Back,,,Tue Dec 09 2025 17:04:07 GMT-0600 (Central Standard Time),508165.1999999881,045_m_m_n_a.png,I,space,2820,1,1,1956.699999988079,506208.5,8083,NNB,A,0
0,test,2,0.0,2-Back,,,Tue Dec 09 2025 17:04:07 GMT-0600 (Central Standard Time),508165.1999999881,010_y_f_n_a.png,I,space,2820,2,1,1956.699999988079,506208.5,8083,NNB,A,0
1,test,2,1.0,2-Back,1.0,z,Tue Dec 09 2025 17:04:07 GMT-0600 (Central Standard Time),517762.8000000119,045_m_m_n_a.png,I,z,650,3,1,1657.800000011921,516105.0,8083,NNB,A,1
2,test,2,0.0,2-Back,1.0,m,Tue Dec 09 2025 17:04:07 GMT-0600 (Central Standard Time),520060.1999999881,050_m_f_n_a.png,I,m,1272,4,1,2286.099999964237,517774.10000002384,8083,NNB,A,2
2,test,2,0.0,2-Back,0.0,m,Tue Dec 09 2025 17:04:07 GMT-0600 (Central Standard Time),522243.0,010_y_f_n_a.png,I,z,1165,5,1,2172.199999988079,520070.8000000119,8083,NNB,A,3
3,test,2,0.0,2-Back,1.0,m,Tue Dec 09 2025 17:04:07 GMT-0600 (Central Standard Time),524127.6999999881,046_o_m_n_a.png,I,m,862,6,1,1874.199999988079,522253.5,8083,NNB,A,4
3,test,2,0.0,2-Back,0.0,m,Tue Dec 09 2025 17:04:07 GMT-0600 (Central Standard Time),527058.3000000119,063_y_f_n_a.png,I,z,1899,7,1,2924.0,524134.3000000119,8083,NNB,A,5
4,test,2,1.0,2-Back,1.0,z,Tue Dec 09 2025 17:04:07 GMT-0600 (Central Standard Time),529308.3000000119,046_o_m_n_a.png,I,z,1222,8,1,2238.800000011921,527069.5,8083,NNB,A,6
5,test,2,0.0,2-Back,1.0,m,Tue Dec 09 2025 17:04:07 GMT-0600 (Central Standard Time),531157.6000000238,008_y_m_n_a.png,I,m,832,9,1,1838.5,529319.1000000238,8083,NNB,A,7
6,test,2,0.0,2-Back,1.0,m,Tue Dec 09 2025 17:04:07 GMT-0600 (Central Standard Time),533973.3000000119,008_y_m_n_a.png,I,m,1795,10,1,2802.399999976158,531170.9000000358,8083,NNB,A,8
7,test,2,0.0,2-Back,1.0,m,Tue Dec 09 2025 17:04:07 GMT-0600 (Central Standard Time),536072.5,043_m_f_n_a.png,I,m,1077,11,1,2088.099999964237,533984.4000000358,8083,NNB,A,9
8,test,2,0.0,2-Back,1.0,m,Tue Dec 09 2025 17:04:07 GMT-0600 (Central Standard Time),538873.5,010_y_f_n_a.png,I,m,1778,12,1,2790.599999964237,536082.9000000358,8083,NNB,A,10
9,test,2,1.0,2-Back,1.0,z,Tue Dec 09 2025 17:04:07 GMT-0600 (Central Standard Time),540987.4000000358,043_m_f_n_a.png,I,z,1097,13,1,2103.300000011921,538884.1000000238,8083,NNB,A,11
10,test,2,0.0,2-Back,1.0,m,Tue Dec 09 2025 17:04:07 GMT-0600 (Central Standard Time),543036.5,053_o_m_n_a.png,I,m,1021,14,1,2040.199999988079,540996.3000000119,8083,NNB,A,12
11,test,2,0.0,2-Back,1.0,m,Tue Dec 09 2025 17:04:07 GMT-0600 (Central Standard Time),545852.6999999881,053_o_m_n_a.png,I,m,1799,15,1,2806.899999976158,543045.8000000119,8083,NNB,A,13
12,test,2,0.0,2-Back,1.0,m,Tue Dec 09 2025 17:04:07 GMT-0600 (Central Standard Time),547901.8000000119,044_o_f_n_a.png,I,m,1020,16,1,2036.1000000238419,545865.6999999881,8083,NNB,A,14
13,test,2,0.0,2-Back,1.0,m,Tue Dec 09 2025 17:04:07 GMT-0600 (Central Standard Time),549817.4000000358,058_m_m_n_a.png,I,m,884,17,1,1905.1000000238419,547912.3000000119,8083,NNB,A,15
14,test,2,1.0,2-Back,1.0,z,Tue Dec 09 2025 17:04:07 GMT-0600 (Central Standard Time),551550.9000000358,044_o_f_n_a.png,I,z,711,18,1,1721.4000000357628,549829.5,8083,NNB,A,16
0,test,3,1.0,2-Back,,,Tue Dec 09 2025 17:04:07 GMT-0600 (Central Standard Time),551550.9000000358,041_y_m_n_a.png,I,space,1635,1,1,1721.4000000357628,549829.5,8083,NNB,A,0
0,test,3,1.0,2-Back,,,Tue Dec 09 2025 17:04:07 GMT-0600 (Central Standard Time),551550.9000000358,041_y_m_n_a.png,I,space,1635,2,1,1721.4000000357628,549829.5,8083,NNB,A,0
1,test,3,0.0,2-Back,1.0,m,Tue Dec 09 2025 17:04:07 GMT-0600 (Central Standard Time),559981.9000000358,044_o_f_n_a.png,I,m,688,3,1,1706.800000011921,558275.1000000238,8083,NNB,A,1
2,test,3,0.0,2-Back,1.0,m,Tue Dec 09 2025 17:04:07 GMT-0600 (Central Standard Time),561864.6000000238,045_m_m_n_a.png,I,m,861,4,1,1872.199999988079,559992.4000000358,8083,NNB,A,2
3,test,3,1.0,2-Back,1.0,z,Tue Dec 09 2025 17:04:07 GMT-0600 (Central Standard Time),563697.6999999881,044_o_f_n_a.png,I,z,800,5,1,1824.0,561873.6999999881,8083,NNB,A,3
4,test,3,0.0,2-Back,1.0,m,Tue Dec 09 2025 17:04:07 GMT-0600 (Central Standard Time),565713.4000000358,008_y_m_n_a.png,I,m,984,6,1,2004.6000000238419,563708.8000000119,8083,NNB,A,4
5,test,3,0.0,2-Back,1.0,m,Tue Dec 09 2025 17:04:07 GMT-0600 (Central Standard Time),568396.1999999881,045_m_m_n_a.png,I,m,1657,7,1,2672.7999999523163,565723.4000000358,8083,NNB,A,5
6,test,3,1.0,2-Back,1.0,z,Tue Dec 09 2025 17:04:07 GMT-0600 (Central Standard Time),570294.6999999881,008_y_m_n_a.png,I,z,870,8,1,1888.0,568406.6999999881,8083,NNB,A,6
7,test,3,0.0,2-Back,1.0,m,Tue Dec 09 2025 17:04:07 GMT-0600 (Central Standard Time),572111.6000000238,010_y_f_n_a.png,I,m,787,9,1,1807.300000011921,570304.3000000119,8083,NNB,A,7
7,test,3,0.0,2-Back,0.0,m,Tue Dec 09 2025 17:04:07 GMT-0600 (Central Standard Time),573893.5,058_m_m_n_a.png,I,z,762,10,1,1771.5,572122.0,8083,NNB,A,8
7,test,3,1.0,2-Back,0.0,z,Tue Dec 09 2025 17:04:07 GMT-0600 (Central Standard Time),575410.1999999881,010_y_f_n_a.png,I,m,483,11,1,1507.5,573902.6999999881,8083,NNB,A,9
8,test,3,1.0,2-Back,1.0,z,Tue Dec 09 2025 17:04:07 GMT-0600 (Central Standard Time),577977.1000000238,058_m_m_n_a.png,I,z,1544,12,1,2555.600000023842,575421.5,8083,NNB,A,10
9,test,3,0.0,2-Back,1.0,m,Tue Dec 09 2025 17:04:07 GMT-0600 (Central Standard Time),580258.9000000358,044_o_f_n_a.png,I,m,1248,13,1,2271.5,577987.4000000358,8083,NNB,A,11
10,test,3,0.0,2-Back,1.0,m,Tue Dec 09 2025 17:04:07 GMT-0600 (Central Standard Time),582124.8000000119,050_m_f_n_a.png,I,m,839,14,1,1855.800000011921,580269.0,8083,NNB,A,12
11,test,3,0.0,2-Back,1.0,m,Tue Dec 09 2025 17:04:07 GMT-0600 (Central Standard Time),584090.6999999881,046_o_m_n_a.png,I,m,940,15,1,1955.5999999642372,582135.1000000238,8083,NNB,A,13
12,test,3,1.0,2-Back,1.0,z,Tue Dec 09 2025 17:04:07 GMT-0600 (Central Standard Time),585956.3000000119,050_m_f_n_a.png,I,z,838,16,1,1854.0,584102.3000000119,8083,NNB,A,14
13,test,3,0.0,2-Back,1.0,m,Tue Dec 09 2025 17:04:07 GMT-0600 (Central Standard Time),588322.6000000238,047_o_f_n_a.png,I,m,1342,17,1,2357.300000011921,585965.3000000119,8083,NNB,A,15
14,test,3,0.0,2-Back,1.0,m,Tue Dec 09 2025 17:04:07 GMT-0600 (Central Standard Time),590654.3000000119,047_o_f_n_a.png,I,m,1303,18,1,2322.100000023842,588332.1999999881,8083,NNB,A,16
0,test,4,0.0,2-Back,,,Tue Dec 09 2025 17:04:07 GMT-0600 (Central Standard Time),590654.3000000119,053_o_m_n_a.png,I,space,1955,1,1,2322.100000023842,588332.1999999881,8083,NNB,A,0
0,test,4,0.0,2-Back,,,Tue Dec 09 2025 17:04:07 GMT-0600 (Central Standard Time),590654.3000000119,063_y_f_n_a.png,I,space,1955,2,1,2322.100000023842,588332.1999999881,8083,NNB,A,0
0,test,4,1.0,2-Back,0.0,z,Tue Dec 09 2025 17:04:07 GMT-0600 (Central Standard Time),600736.1999999881,053_o_m_n_a.png,I,None,2001,3,1,3005.2999999523163,597730.9000000358,8083,NNB,A,1
0,test,4,1.0,2-Back,0.0,z,Tue Dec 09 2025 17:04:07 GMT-0600 (Central Standard Time),602334.1999999881,063_y_f_n_a.png,I,m,579,4,1,1587.5999999642372,600746.6000000238,8083,NNB,A,2
0,test,4,0.0,2-Back,0.0,m,Tue Dec 09 2025 17:04:07 GMT-0600 (Central Standard Time),604717.3000000119,044_o_f_n_a.png,I,z,1351,5,1,2373.399999976158,602343.9000000358,8083,NNB,A,3
0,test,4,0.0,2-Back,0.0,m,Tue Dec 09 2025 17:04:07 GMT-0600 (Central Standard Time),607666.4000000358,044_o_f_n_a.png,I,z,1923,6,1,2938.100000023842,604728.3000000119,8083,NNB,A,4
1,test,4,0.0,2-Back,1.0,m,Tue Dec 09 2025 17:04:07 GMT-0600 (Central Standard Time),609616.6000000238,043_m_f_n_a.png,I,m,918,7,1,1940.0,607676.6000000238,8083,NNB,A,5
2,test,4,0.0,2-Back,1.0,m,Tue Dec 09 2025 17:04:07 GMT-0600 (Central Standard Time),611515.6000000238,008_y_m_n_a.png,I,m,874,8,1,1888.0,609627.6000000238,8083,NNB,A,6
3,test,4,1.0,2-Back,1.0,z,Tue Dec 09 2025 17:04:07 GMT-0600 (Central Standard Time),613447.1999999881,043_m_f_n_a.png,I,z,903,9,1,1919.5,611527.6999999881,8083,NNB,A,7
4,test,4,0.0,2-Back,1.0,m,Tue Dec 09 2025 17:04:07 GMT-0600 (Central Standard Time),615297.0,058_m_m_n_a.png,I,m,825,10,1,1840.300000011921,613456.6999999881,8083,NNB,A,8
4,test,4,0.0,2-Back,0.0,m,Tue Dec 09 2025 17:04:07 GMT-0600 (Central Standard Time),617147.6000000238,008_y_m_n_a.png,I,z,832,11,1,1840.4000000357628,615307.1999999881,8083,NNB,A,9
5,test,4,0.0,2-Back,1.0,m,Tue Dec 09 2025 17:04:07 GMT-0600 (Central Standard Time),619162.6000000238,047_o_f_n_a.png,I,m,998,12,1,2002.9000000357628,617159.6999999881,8083,NNB,A,10
6,test,4,0.0,2-Back,1.0,m,Tue Dec 09 2025 17:04:07 GMT-0600 (Central Standard Time),621078.1999999881,041_y_m_n_a.png,I,m,894,13,1,1906.7999999523163,619171.4000000358,8083,NNB,A,11
7,test,4,1.0,2-Back,1.0,z,Tue Dec 09 2025 17:04:07 GMT-0600 (Central Standard Time),622797.9000000358,047_o_f_n_a.png,I,z,703,14,1,1713.1000000238419,621084.8000000119,8083,NNB,A,12
8,test,4,1.0,2-Back,1.0,z,Tue Dec 09 2025 17:04:07 GMT-0600 (Central Standard Time),625310.6000000238,041_y_m_n_a.png,I,z,1494,15,1,2500.0,622810.6000000238,8083,NNB,A,13
9,test,4,0.0,2-Back,1.0,m,Tue Dec 09 2025 17:04:07 GMT-0600 (Central Standard Time),627259.5,045_m_m_n_a.png,I,m,924,16,1,1936.5999999642372,625322.9000000358,8083,NNB,A,14
10,test,4,0.0,2-Back,1.0,m,Tue Dec 09 2025 17:04:07 GMT-0600 (Central Standard Time),629458.9000000358,050_m_f_n_a.png,I,m,1172,17,1,2188.600000023842,627270.3000000119,8083,NNB,A,15
11,test,4,1.0,2-Back,1.0,z,Tue Dec 09 2025 17:04:07 GMT-0600 (Central Standard Time),631258.4000000358,045_m_m_n_a.png,I,z,774,18,1,1787.4000000357628,629471.0,8083,NNB,A,16
0,test,5,1.0,2-Back,,,Tue Dec 09 2025 17:04:07 GMT-0600 (Central Standard Time),631258.4000000358,041_y_m_n_a.png,I,space,2037,1,1,1787.4000000357628,629471.0,8083,NNB,A,0
0,test,5,1.0,2-Back,,,Tue Dec 09 2025 17:04:07 GMT-0600 (Central Standard Time),631258.4000000358,050_m_f_n_a.png,I,space,2037,2,1,1787.4000000357628,629471.0,8083,NNB,A,0
1,test,5,1.0,2-Back,1.0,z,Tue Dec 09 2025 17:04:07 GMT-0600 (Central Standard Time),639956.1000000238,041_y_m_n_a.png,I,z,581,3,1,1587.9000000357628,638368.1999999881,8083,NNB,A,1
1,test,5,1.0,2-Back,0.0,z,Tue Dec 09 2025 17:04:07 GMT-0600 (Central Standard Time),641726.5,050_m_f_n_a.png,I,m,749,4,1,1760.5,639966.0,8083,NNB,A,2
2,test,5,0.0,2-Back,1.0,m,Tue Dec 09 2025 17:04:07 GMT-0600 (Central Standard Time),643489.4000000358,047_o_f_n_a.png,I,m,718,5,1,1751.1000000238419,641738.3000000119,8083,NNB,A,3
2,test,5,0.0,2-Back,0.0,m,Tue Dec 09 2025 17:04:07 GMT-0600 (Central Standard Time),645420.5,041_y_m_n_a.png,I,z,904,6,1,1921.5999999642372,643498.9000000358,8083,NNB,A,4
3,test,5,0.0,2-Back,1.0,m,Tue Dec 09 2025 17:04:07 GMT-0600 (Central Standard Time),647204.5,010_y_f_n_a.png,I,m,763,7,1,1771.199999988079,645433.3000000119,8083,NNB,A,5
3,test,5,0.0,2-Back,0.0,m,Tue Dec 09 2025 17:04:07 GMT-0600 (Central Standard Time),649569.3000000119,047_o_f_n_a.png,I,z,1317,8,1,2349.5,647219.8000000119,8083,NNB,A,6
4,test,5,1.0,2-Back,1.0,z,Tue Dec 09 2025 17:04:07 GMT-0600 (Central Standard Time),651701.9000000358,010_y_f_n_a.png,I,z,1105,9,1,2122.0,649579.9000000358,8083,NNB,A,7
5,test,5,0.0,2-Back,1.0,m,Tue Dec 09 2025 17:04:07 GMT-0600 (Central Standard Time),653435.3000000119,046_o_m_n_a.png,I,m,707,10,1,1723.1000000238419,651712.1999999881,8083,NNB,A,8
6,test,5,0.0,2-Back,1.0,m,Tue Dec 09 2025 17:04:07 GMT-0600 (Central Standard Time),655351.9000000358,043_m_f_n_a.png,I,m,887,11,1,1906.800000011921,653445.1000000238,8083,NNB,A,9
7,test,5,0.0,2-Back,1.0,m,Tue Dec 09 2025 17:04:07 GMT-0600 (Central Standard Time),657350.1000000238,058_m_m_n_a.png,I,m,970,12,1,1986.199999988079,655363.9000000358,8083,NNB,A,10
7,test,5,0.0,2-Back,0.0,m,Tue Dec 09 2025 17:04:07 GMT-0600 (Central Standard Time),659317.1000000238,046_o_m_n_a.png,I,z,949,13,1,1956.300000011921,657360.8000000119,8083,NNB,A,11
7,test,5,1.0,2-Back,0.0,z,Tue Dec 09 2025 17:04:07 GMT-0600 (Central Standard Time),661682.9000000358,058_m_m_n_a.png,I,m,1349,14,1,2352.5,659330.4000000358,8083,NNB,A,12
8,test,5,0.0,2-Back,1.0,m,Tue Dec 09 2025 17:04:07 GMT-0600 (Central Standard Time),663548.8000000119,063_y_f_n_a.png,I,m,849,15,1,1857.1000000238419,661691.6999999881,8083,NNB,A,13
9,test,5,0.0,2-Back,1.0,m,Tue Dec 09 2025 17:04:07 GMT-0600 (Central Standard Time),665180.9000000358,053_o_m_n_a.png,I,m,615,16,1,1622.800000011921,663558.1000000238,8083,NNB,A,14
10,test,5,0.0,2-Back,1.0,m,Tue Dec 09 2025 17:04:07 GMT-0600 (Central Standard Time),666914.0,043_m_f_n_a.png,I,m,707,17,1,1723.0999999642372,665190.9000000358,8083,NNB,A,15
11,test,5,1.0,2-Back,1.0,z,Tue Dec 09 2025 17:04:07 GMT-0600 (Central Standard Time),668963.4000000358,053_o_m_n_a.png,I,z,1030,18,1,2039.2000000476837,666924.1999999881,8083,NNB,A,16
