Number,acc_sum,block,block_c,block_cond,con_img,correct,correct_response,datetime,endtime,jitter,project,response,response_time,row_sel,session_number,start_end,starttime,subject_id,task,task_vers,trial
7,1,prac,1,A,circle.png,1,m,Tue Jan 20 2026 13:53:25 GMT-0600 (Central Standard Time),60888.0,1700,O,m,1015,6,1,3513.0,57375.0,7730,NTS,B,1
9,2,prac,1,A,circle.png,1,m,Tue Jan 20 2026 13:53:25 GMT-0600 (Central Standard Time),63855.200000047684,1500,O,m,697,8,1,2959.7000000476837,60895.5,7730,NTS,B,2
1,3,prac,1,A,circle.png,1,z,Tue Jan 20 2026 13:53:25 GMT-0600 (Central Standard Time),66200.40000009537,1000,O,z,561,1,1,2337.9000000953674,63862.5,7730,NTS,B,3
1,4,prac,1,A,circle.png,1,z,Tue Jan 20 2026 13:53:25 GMT-0600 (Central Standard Time),68582.40000009537,1000,O,z,593,1,1,2373.4000000953674,66209.0,7730,NTS,B,4
8,5,prac,1,A,circle.png,1,m,Tue Jan 20 2026 13:53:25 GMT-0600 (Central Standard Time),71665.70000004768,1600,O,m,690,7,1,3074.4000000953674,68591.29999995232,7730,NTS,B,5
3,6,prac,1,A,circle.png,1,z,Tue Jan 20 2026 13:53:25 GMT-0600 (Central Standard Time),74231.29999995232,1200,O,z,575,3,1,2558.5999999046326,71672.70000004768,7730,NTS,B,6
6,7,prac,1,A,circle.png,1,m,Tue Jan 20 2026 13:53:25 GMT-0600 (Central Standard Time),77398.40000009537,1900,O,m,471,5,1,3160.5,74237.90000009537,7730,NTS,B,7
2,8,prac,1,A,circle.png,1,z,Tue Jan 20 2026 13:53:25 GMT-0600 (Central Standard Time),80731.20000004768,2000,O,z,557,2,1,3328.0,77403.20000004768,7730,NTS,B,8
4,9,prac,1,A,circle.png,1,z,Tue Jan 20 2026 13:53:25 GMT-0600 (Central Standard Time),83561.60000014305,1400,O,z,646,4,1,2825.100000143051,80736.5,7730,NTS,B,9
6,10,prac,1,A,circle.png,1,m,Tue Jan 20 2026 13:53:25 GMT-0600 (Central Standard Time),86742.20000004768,1900,O,m,493,5,1,3175.5999999046326,83566.60000014305,7730,NTS,B,10
9,11,prac,1,A,circle.png,1,m,Tue Jan 20 2026 13:53:25 GMT-0600 (Central Standard Time),89528.40000009537,1500,O,m,510,8,1,2781.2999999523163,86747.10000014305,7730,NTS,B,11
3,12,prac,1,A,circle.png,1,z,Tue Jan 20 2026 13:53:25 GMT-0600 (Central Standard Time),92143.90000009537,1200,O,z,642,3,1,2609.9000000953674,89534.0,7730,NTS,B,12
2,0,prac,2,A,circle.png,0,z,Tue Jan 20 2026 13:53:25 GMT-0600 (Central Standard Time),101674.10000014305,2000,O,None,1513,2,1,4296.5,97377.60000014305,7730,NTS,B,1
7,0,prac,2,A,circle.png,0,m,Tue Jan 20 2026 13:53:25 GMT-0600 (Central Standard Time),105669.90000009537,1700,O,None,1517,6,1,3991.5,101678.40000009537,7730,NTS,B,2
7,1,prac,2,A,circle.png,1,m,Tue Jan 20 2026 13:53:25 GMT-0600 (Central Standard Time),109369.40000009537,1700,O,m,1214,6,1,3694.4000000953674,105675.0,7730,NTS,B,3
9,2,prac,2,A,circle.png,1,m,Tue Jan 20 2026 13:53:25 GMT-0600 (Central Standard Time),112235.5,1500,O,m,570,8,1,2859.7999999523163,109375.70000004768,7730,NTS,B,4
1,3,prac,2,A,circle.png,1,z,Tue Jan 20 2026 13:53:25 GMT-0600 (Central Standard Time),114601.0,1000,O,z,580,1,1,2361.2999999523163,112239.70000004768,7730,NTS,B,5
8,4,prac,2,A,circle.png,1,m,Tue Jan 20 2026 13:53:25 GMT-0600 (Central Standard Time),117598.20000004768,1600,O,m,602,7,1,2992.5999999046326,114605.60000014305,7730,NTS,B,6
6,5,prac,2,A,circle.png,1,m,Tue Jan 20 2026 13:53:25 GMT-0600 (Central Standard Time),120915.5,1900,O,m,629,5,1,3304.5,117611.0,7730,NTS,B,7
4,6,prac,2,A,circle.png,1,z,Tue Jan 20 2026 13:53:25 GMT-0600 (Central Standard Time),123650.90000009537,1400,O,z,566,4,1,2727.9000000953674,120923.0,7730,NTS,B,8
3,7,prac,2,A,circle.png,1,z,Tue Jan 20 2026 13:53:25 GMT-0600 (Central Standard Time),126346.90000009537,1200,O,z,703,3,1,2690.9000000953674,123656.0,7730,NTS,B,9
3,8,prac,2,A,circle.png,1,z,Tue Jan 20 2026 13:53:25 GMT-0600 (Central Standard Time),129013.20000004768,1200,O,z,669,3,1,2658.2000000476837,126355.0,7730,NTS,B,10
1,9,prac,2,A,circle.png,1,z,Tue Jan 20 2026 13:53:25 GMT-0600 (Central Standard Time),131394.90000009537,1000,O,z,594,1,1,2373.9000000953674,129021.0,7730,NTS,B,11
9,10,prac,2,A,circle.png,1,m,Tue Jan 20 2026 13:53:25 GMT-0600 (Central Standard Time),134027.5,1500,O,m,343,8,1,2628.5,131399.0,7730,NTS,B,12
4,1,prac,1,B,triangle.png,1,m,Tue Jan 20 2026 13:53:25 GMT-0600 (Central Standard Time),184380.5,1500,O,m,1446,4,1,3709.899999856949,180670.60000014305,7730,NTS,B,1
6,2,prac,1,B,triangle.png,1,m,Tue Jan 20 2026 13:53:25 GMT-0600 (Central Standard Time),186859.70000004768,1000,O,m,694,5,1,2474.7999999523163,184384.90000009537,7730,NTS,B,2
9,3,prac,1,B,triangle.png,1,z,Tue Jan 20 2026 13:53:25 GMT-0600 (Central Standard Time),189710.90000009537,1400,O,z,650,8,1,2847.4000000953674,186863.5,7730,NTS,B,3
3,4,prac,1,B,triangle.png,1,z,Tue Jan 20 2026 13:53:25 GMT-0600 (Central Standard Time),192626.20000004768,1600,O,z,523,3,1,2909.2999999523163,189716.90000009537,7730,NTS,B,4
4,5,prac,1,B,triangle.png,1,m,Tue Jan 20 2026 13:53:25 GMT-0600 (Central Standard Time),195542.5,1500,O,m,627,4,1,2908.899999856949,192633.60000014305,7730,NTS,B,5
2,6,prac,1,B,triangle.png,1,m,Tue Jan 20 2026 13:53:25 GMT-0600 (Central Standard Time),198610.0,1700,O,m,597,2,1,3060.5999999046326,195549.40000009537,7730,NTS,B,6
7,7,prac,1,B,triangle.png,1,z,Tue Jan 20 2026 13:53:25 GMT-0600 (Central Standard Time),202124.40000009537,2000,O,z,735,6,1,3510.5,198613.90000009537,7730,NTS,B,7
7,8,prac,1,B,triangle.png,1,z,Tue Jan 20 2026 13:53:25 GMT-0600 (Central Standard Time),205454.79999995232,2000,O,z,542,6,1,3325.2999999523163,202129.5,7730,NTS,B,8
8,9,prac,1,B,triangle.png,1,m,Tue Jan 20 2026 13:53:25 GMT-0600 (Central Standard Time),208055.5,1200,O,m,601,7,1,2594.899999856949,205460.60000014305,7730,NTS,B,9
8,10,prac,1,B,triangle.png,1,m,Tue Jan 20 2026 13:53:25 GMT-0600 (Central Standard Time),210628.20000004768,1200,O,m,576,7,1,2566.7000000476837,208061.5,7730,NTS,B,10
2,11,prac,1,B,triangle.png,1,m,Tue Jan 20 2026 13:53:25 GMT-0600 (Central Standard Time),213836.0,1700,O,m,729,2,1,3204.2000000476837,210631.79999995232,7730,NTS,B,11
1,12,prac,1,B,triangle.png,1,z,Tue Jan 20 2026 13:53:25 GMT-0600 (Central Standard Time),216953.29999995232,1900,O,z,425,1,1,3113.399999856949,213839.90000009537,7730,NTS,B,12
3,0,test,1,A,circle.png,0,z,Tue Jan 20 2026 13:53:25 GMT-0600 (Central Standard Time),272534.10000014305,1200,O,None,1514,3,1,2729.4000000953674,269804.7000000477,7730,NTS,B,1
1,1,test,1,A,circle.png,1,z,Tue Jan 20 2026 13:53:25 GMT-0600 (Central Standard Time),274317.7000000477,1000,O,z,762,1,1,1779.9000000953674,272537.7999999523,7730,NTS,B,2
9,2,test,1,A,circle.png,1,m,Tue Jan 20 2026 13:53:25 GMT-0600 (Central Standard Time),276299.90000009537,1500,O,m,463,8,1,1974.6000001430511,274325.2999999523,7730,NTS,B,3
1,3,test,1,A,circle.png,1,z,Tue Jan 20 2026 13:53:25 GMT-0600 (Central Standard Time),277915.7000000477,1000,O,z,588,1,1,1611.5999999046326,276304.10000014305,7730,NTS,B,4
3,4,test,1,A,circle.png,1,z,Tue Jan 20 2026 13:53:25 GMT-0600 (Central Standard Time),279817.7999999523,1200,O,z,686,3,1,1899.0,277918.7999999523,7730,NTS,B,5
6,5,test,1,A,circle.png,1,m,Tue Jan 20 2026 13:53:25 GMT-0600 (Central Standard Time),282297.5,1900,O,m,556,5,1,2475.5999999046326,279821.90000009537,7730,NTS,B,6
7,6,test,1,A,circle.png,1,m,Tue Jan 20 2026 13:53:25 GMT-0600 (Central Standard Time),284580.0,1700,O,m,561,6,1,2278.2999999523163,282301.7000000477,7730,NTS,B,7
2,7,test,1,A,circle.png,1,z,Tue Jan 20 2026 13:53:25 GMT-0600 (Central Standard Time),287145.60000014305,2000,O,z,548,2,1,2557.0,284588.60000014305,7730,NTS,B,8
8,8,test,1,A,circle.png,1,m,Tue Jan 20 2026 13:53:25 GMT-0600 (Central Standard Time),289363.7999999523,1600,O,m,599,7,1,2212.199999809265,287151.60000014305,7730,NTS,B,9
1,9,test,1,A,circle.png,1,z,Tue Jan 20 2026 13:53:25 GMT-0600 (Central Standard Time),291028.90000009537,1000,O,z,634,1,1,1660.4000000953674,289368.5,7730,NTS,B,10
2,10,test,1,A,circle.png,1,z,Tue Jan 20 2026 13:53:25 GMT-0600 (Central Standard Time),293777.2999999523,2000,O,z,722,2,1,2743.899999856949,291033.40000009537,7730,NTS,B,11
2,11,test,1,A,circle.png,1,z,Tue Jan 20 2026 13:53:25 GMT-0600 (Central Standard Time),296475.7000000477,2000,O,z,669,2,1,2694.7999999523163,293780.90000009537,7730,NTS,B,12
8,12,test,1,A,circle.png,1,m,Tue Jan 20 2026 13:53:25 GMT-0600 (Central Standard Time),298692.60000014305,1600,O,m,596,7,1,2212.5,296480.10000014305,7730,NTS,B,13
4,13,test,1,A,circle.png,1,z,Tue Jan 20 2026 13:53:25 GMT-0600 (Central Standard Time),300857.5,1400,O,z,748,4,1,2160.2999999523163,298697.2000000477,7730,NTS,B,14
4,14,test,1,A,circle.png,1,z,Tue Jan 20 2026 13:53:25 GMT-0600 (Central Standard Time),302875.0,1400,O,z,590,4,1,2012.0999999046326,300862.90000009537,7730,NTS,B,15
1,15,test,1,A,circle.png,1,z,Tue Jan 20 2026 13:53:25 GMT-0600 (Central Standard Time),304489.7000000477,1000,O,z,589,1,1,1611.5,302878.2000000477,7730,NTS,B,16
7,16,test,1,A,circle.png,1,m,Tue Jan 20 2026 13:53:25 GMT-0600 (Central Standard Time),306789.2999999523,1700,O,m,577,6,1,2295.7999999523163,304493.5,7730,NTS,B,17
9,17,test,1,A,circle.png,1,m,Tue Jan 20 2026 13:53:25 GMT-0600 (Central Standard Time),308890.2999999523,1500,O,m,582,8,1,2098.0,306792.2999999523,7730,NTS,B,18
2,18,test,1,A,circle.png,1,z,Tue Jan 20 2026 13:53:25 GMT-0600 (Central Standard Time),311471.5,2000,O,z,556,2,1,2575.0999999046326,308896.40000009537,7730,NTS,B,19
8,19,test,1,A,circle.png,1,m,Tue Jan 20 2026 13:53:25 GMT-0600 (Central Standard Time),313703.40000009537,1600,O,m,608,7,1,2228.2999999523163,311475.10000014305,7730,NTS,B,20
7,20,test,1,A,circle.png,1,m,Tue Jan 20 2026 13:53:25 GMT-0600 (Central Standard Time),315955.0,1700,O,m,516,6,1,2246.7000000476837,313708.2999999523,7730,NTS,B,21
4,21,test,1,A,circle.png,1,z,Tue Jan 20 2026 13:53:25 GMT-0600 (Central Standard Time),318038.0,1400,O,z,662,4,1,2077.2999999523163,315960.7000000477,7730,NTS,B,22
6,22,test,1,A,circle.png,1,m,Tue Jan 20 2026 13:53:25 GMT-0600 (Central Standard Time),320535.2999999523,1900,O,m,576,5,1,2494.399999856949,318040.90000009537,7730,NTS,B,23
9,23,test,1,A,circle.png,1,m,Tue Jan 20 2026 13:53:25 GMT-0600 (Central Standard Time),322585.2999999523,1500,O,m,525,8,1,2046.1999998092651,320539.10000014305,7730,NTS,B,24
8,0,test,1,B,triangle.png,0,m,Tue Jan 20 2026 13:53:25 GMT-0600 (Central Standard Time),341844.2000000477,1700,O,None,1515,15,1,3226.9000000953674,338617.2999999523,7730,NTS,B,1
3,1,test,1,B,triangle.png,1,z,Tue Jan 20 2026 13:53:25 GMT-0600 (Central Standard Time),344595.0,2000,O,z,724,11,1,2748.2000000476837,341846.7999999523,7730,NTS,B,2
3,2,test,1,B,triangle.png,1,z,Tue Jan 20 2026 13:53:25 GMT-0600 (Central Standard Time),346927.40000009537,1600,O,z,709,3,1,2329.7000000476837,344597.7000000477,7730,NTS,B,3
8,3,test,1,B,triangle.png,1,m,Tue Jan 20 2026 13:53:25 GMT-0600 (Central Standard Time),348859.7000000477,1200,O,m,713,7,1,1929.5999999046326,346930.10000014305,7730,NTS,B,4
9,3,test,1,B,triangle.png,0,z,Tue Jan 20 2026 13:53:25 GMT-0600 (Central Standard Time),350891.60000014305,1400,O,m,604,8,1,2028.5,348863.10000014305,7730,NTS,B,5
6,4,test,1,B,triangle.png,1,m,Tue Jan 20 2026 13:53:25 GMT-0600 (Central Standard Time),353024.7000000477,1500,O,m,615,13,1,2130.0,350894.7000000477,7730,NTS,B,6
6,4,test,1,B,triangle.png,0,m,Tue Jan 20 2026 13:53:25 GMT-0600 (Central Standard Time),354659.0,1000,O,z,615,5,1,1630.8999998569489,353028.10000014305,7730,NTS,B,7
7,5,test,1,B,triangle.png,1,z,Tue Jan 20 2026 13:53:25 GMT-0600 (Central Standard Time),357124.40000009537,1600,O,z,839,14,1,2461.2999999523163,354663.10000014305,7730,NTS,B,8
2,6,test,1,B,triangle.png,1,m,Tue Jan 20 2026 13:53:25 GMT-0600 (Central Standard Time),359107.5,1200,O,m,763,10,1,1978.2999999523163,357129.2000000477,7730,NTS,B,9
4,7,test,1,B,triangle.png,1,m,Tue Jan 20 2026 13:53:25 GMT-0600 (Central Standard Time),360789.40000009537,1000,O,m,653,12,1,1679.5,359109.90000009537,7730,NTS,B,10
8,8,test,1,B,triangle.png,1,m,Tue Jan 20 2026 13:53:25 GMT-0600 (Central Standard Time),362873.5,1200,O,m,851,7,1,2078.7999999523163,360794.7000000477,7730,NTS,B,11
7,9,test,1,B,triangle.png,1,z,Tue Jan 20 2026 13:53:25 GMT-0600 (Central Standard Time),365637.0,2000,O,z,736,6,1,2759.7999999523163,362877.2000000477,7730,NTS,B,12
9,10,test,1,B,triangle.png,1,z,Tue Jan 20 2026 13:53:25 GMT-0600 (Central Standard Time),368420.40000009537,1900,O,z,847,16,1,2779.9000000953674,365640.5,7730,NTS,B,13
4,11,test,1,B,triangle.png,1,m,Tue Jan 20 2026 13:53:25 GMT-0600 (Central Standard Time),370754.40000009537,1500,O,m,810,4,1,2329.7000000476837,368424.7000000477,7730,NTS,B,14
7,12,test,1,B,triangle.png,1,z,Tue Jan 20 2026 13:53:25 GMT-0600 (Central Standard Time),373067.90000009537,1600,O,z,695,14,1,2310.5,370757.40000009537,7730,NTS,B,15
9,13,test,1,B,triangle.png,1,z,Tue Jan 20 2026 13:53:25 GMT-0600 (Central Standard Time),375834.5,1900,O,z,839,16,1,2763.0999999046326,373071.40000009537,7730,NTS,B,16
1,14,test,1,B,triangle.png,1,z,Tue Jan 20 2026 13:53:25 GMT-0600 (Central Standard Time),378417.0,1900,O,z,658,1,1,2577.2999999523163,375839.7000000477,7730,NTS,B,17
2,15,test,1,B,triangle.png,1,m,Tue Jan 20 2026 13:53:25 GMT-0600 (Central Standard Time),380316.7999999523,1200,O,m,679,10,1,1896.1999998092651,378420.60000014305,7730,NTS,B,18
7,16,test,1,B,triangle.png,1,z,Tue Jan 20 2026 13:53:25 GMT-0600 (Central Standard Time),383065.2000000477,2000,O,z,725,6,1,2745.2999999523163,380319.90000009537,7730,NTS,B,19
3,17,test,1,B,triangle.png,1,z,Tue Jan 20 2026 13:53:25 GMT-0600 (Central Standard Time),385297.7000000477,1600,O,z,607,3,1,2229.5999999046326,383068.10000014305,7730,NTS,B,20
2,18,test,1,B,triangle.png,1,m,Tue Jan 20 2026 13:53:25 GMT-0600 (Central Standard Time),387664.5,1700,O,m,642,2,1,2360.0,385304.5,7730,NTS,B,21
1,19,test,1,B,triangle.png,1,z,Tue Jan 20 2026 13:53:25 GMT-0600 (Central Standard Time),389749.40000009537,1400,O,z,665,9,1,2081.100000143051,387668.2999999523,7730,NTS,B,22
6,20,test,1,B,triangle.png,1,m,Tue Jan 20 2026 13:53:25 GMT-0600 (Central Standard Time),391962.40000009537,1500,O,m,690,13,1,2208.9000000953674,389753.5,7730,NTS,B,23
3,21,test,1,B,triangle.png,1,z,Tue Jan 20 2026 13:53:25 GMT-0600 (Central Standard Time),394678.5,2000,O,z,695,11,1,2713.7999999523163,391964.7000000477,7730,NTS,B,24
7,0,prac,1,C,triangle.png,0,z,Tue Jan 20 2026 13:53:25 GMT-0600 (Central Standard Time),513856.2000000477,1200,O,None,1501,6,1,3474.4000000953674,510381.7999999523,7730,NTS,B,1
2,0,prac,1,C,triangle.png,0,m,Tue Jan 20 2026 13:53:25 GMT-0600 (Central Standard Time),517737.7999999523,1600,O,None,1501,2,1,3876.5999999046326,513861.2000000477,7730,NTS,B,2
3,1,prac,1,C,triangle.png,1,z,Tue Jan 20 2026 13:53:25 GMT-0600 (Central Standard Time),520937.5,1500,O,z,901,3,1,3196.0,517741.5,7730,NTS,B,3
3,2,prac,1,C,triangle.png,1,z,Tue Jan 20 2026 13:53:25 GMT-0600 (Central Standard Time),523837.10000014305,1500,O,z,611,3,1,2892.2000000476837,520944.90000009537,7730,NTS,B,4
8,3,prac,1,C,triangle.png,1,m,Tue Jan 20 2026 13:53:25 GMT-0600 (Central Standard Time),527303.9000000954,1400,O,m,1283,7,1,3460.2999999523163,523843.60000014305,7730,NTS,B,5
6,4,prac,1,C,circle.png,1,m,Tue Jan 20 2026 13:53:25 GMT-0600 (Central Standard Time),531134.2000000477,2000,O,m,1042,5,1,3826.2999999523163,527307.9000000954,7730,NTS,B,6
8,5,prac,1,C,triangle.png,1,m,Tue Jan 20 2026 13:53:25 GMT-0600 (Central Standard Time),533933.5,1400,O,m,610,7,1,2795.2999999523163,531138.2000000477,7730,NTS,B,7
1,6,prac,1,C,circle.png,1,z,Tue Jan 20 2026 13:53:25 GMT-0600 (Central Standard Time),537017.9000000954,1700,O,z,583,1,1,3080.7000000476837,533937.2000000477,7730,NTS,B,8
4,6,prac,1,C,circle.png,0,z,Tue Jan 20 2026 13:53:25 GMT-0600 (Central Standard Time),540302.600000143,1000,O,None,1515,4,1,3281.100000143051,537021.5,7730,NTS,B,9
7,6,prac,1,C,triangle.png,0,z,Tue Jan 20 2026 13:53:25 GMT-0600 (Central Standard Time),543796.2999999523,1200,O,None,1517,6,1,3487.199999809265,540309.100000143,7730,NTS,B,10
1,7,prac,1,C,circle.png,1,z,Tue Jan 20 2026 13:53:25 GMT-0600 (Central Standard Time),546929.600000143,1700,O,z,639,1,1,3128.100000143051,543801.5,7730,NTS,B,11
9,8,prac,1,C,circle.png,1,m,Tue Jan 20 2026 13:53:25 GMT-0600 (Central Standard Time),550112.5,1900,O,m,499,8,1,3179.0999999046326,546933.4000000954,7730,NTS,B,12
4,0,test,1,C,triangle.png,0,m,Tue Jan 20 2026 13:53:25 GMT-0600 (Central Standard Time),616773.9000000954,1500,O,z,817,20,1,2345.9000000953674,614428.0,7730,NTS,B,1
7,0,test,1,C,triangle.png,0,z,Tue Jan 20 2026 13:53:25 GMT-0600 (Central Standard Time),619088.600000143,1700,O,m,589,22,1,2311.2000000476837,616777.4000000954,7730,NTS,B,2
7,1,test,1,C,circle.png,1,m,Tue Jan 20 2026 13:53:25 GMT-0600 (Central Standard Time),621722.5,2000,O,m,614,14,1,2631.0999999046326,619091.4000000954,7730,NTS,B,3
6,2,test,1,C,triangle.png,1,m,Tue Jan 20 2026 13:53:25 GMT-0600 (Central Standard Time),623554.7999999523,1000,O,m,805,13,1,1829.6999998092651,621725.100000143,7730,NTS,B,4
6,3,test,1,C,circle.png,1,m,Tue Jan 20 2026 13:53:25 GMT-0600 (Central Standard Time),626886.600000143,1900,O,m,1401,21,1,3328.300000190735,623558.2999999523,7730,NTS,B,5
3,4,test,1,C,circle.png,1,z,Tue Jan 20 2026 13:53:25 GMT-0600 (Central Standard Time),629303.4000000954,1600,O,z,794,19,1,2413.2000000476837,626890.2000000477,7730,NTS,B,6
3,5,test,1,C,triangle.png,1,z,Tue Jan 20 2026 13:53:25 GMT-0600 (Central Standard Time),631751.9000000954,1200,O,z,1216,3,1,2445.7999999523163,629306.100000143,7730,NTS,B,7
8,6,test,1,C,triangle.png,1,m,Tue Jan 20 2026 13:53:25 GMT-0600 (Central Standard Time),634286.2999999523,1600,O,m,904,7,1,2531.699999809265,631754.600000143,7730,NTS,B,8
2,7,test,1,C,circle.png,1,z,Tue Jan 20 2026 13:53:25 GMT-0600 (Central Standard Time),636683.9000000954,1700,O,z,670,18,1,2394.100000143051,634289.7999999523,7730,NTS,B,9
8,8,test,1,C,triangle.png,1,m,Tue Jan 20 2026 13:53:25 GMT-0600 (Central Standard Time),638933.5,1600,O,m,627,23,1,2245.5,636688.0,7730,NTS,B,10
3,9,test,1,C,circle.png,1,z,Tue Jan 20 2026 13:53:25 GMT-0600 (Central Standard Time),641215.7000000477,1600,O,z,651,11,1,2279.2000000476837,638936.5,7730,NTS,B,11
1,10,test,1,C,triangle.png,1,z,Tue Jan 20 2026 13:53:25 GMT-0600 (Central Standard Time),643748.2999999523,1900,O,z,610,9,1,2529.899999856949,641218.4000000954,7730,NTS,B,12
2,10,test,1,C,triangle.png,0,m,Tue Jan 20 2026 13:53:25 GMT-0600 (Central Standard Time),646414.2000000477,2000,O,z,642,2,1,2662.7000000476837,643751.5,7730,NTS,B,13
9,11,test,1,C,circle.png,1,m,Tue Jan 20 2026 13:53:25 GMT-0600 (Central Standard Time),649146.7999999523,1500,O,m,1205,24,1,2728.899999856949,646417.9000000954,7730,NTS,B,14
6,12,test,1,C,circle.png,1,m,Tue Jan 20 2026 13:53:25 GMT-0600 (Central Standard Time),651679.2000000477,1900,O,m,609,5,1,2529.9000000953674,649149.2999999523,7730,NTS,B,15
4,12,test,1,C,triangle.png,0,m,Tue Jan 20 2026 13:53:25 GMT-0600 (Central Standard Time),653912.2000000477,1500,O,z,716,12,1,2230.2000000476837,651682.0,7730,NTS,B,16
1,13,test,1,C,triangle.png,1,z,Tue Jan 20 2026 13:53:25 GMT-0600 (Central Standard Time),656477.100000143,1900,O,z,644,17,1,2562.4000000953674,653914.7000000477,7730,NTS,B,17
9,13,test,1,C,triangle.png,0,z,Tue Jan 20 2026 13:53:25 GMT-0600 (Central Standard Time),659110.2000000477,1400,O,m,1202,16,1,2630.4000000953674,656479.7999999523,7730,NTS,B,18
7,13,test,1,C,triangle.png,0,z,Tue Jan 20 2026 13:53:25 GMT-0600 (Central Standard Time),662043.2999999523,1700,O,m,1206,6,1,2930.2999999523163,659113.0,7730,NTS,B,19
8,14,test,1,C,circle.png,1,m,Tue Jan 20 2026 13:53:25 GMT-0600 (Central Standard Time),663892.2999999523,1200,O,m,621,15,1,1845.6999998092651,662046.600000143,7730,NTS,B,20
2,14,test,1,C,circle.png,0,z,Tue Jan 20 2026 13:53:25 GMT-0600 (Central Standard Time),666606.9000000954,1700,O,m,991,10,1,2711.7999999523163,663895.100000143,7730,NTS,B,21
1,15,test,1,C,circle.png,1,z,Tue Jan 20 2026 13:53:25 GMT-0600 (Central Standard Time),668474.100000143,1000,O,z,849,1,1,1864.3000001907349,666609.7999999523,7730,NTS,B,22
4,15,test,1,C,circle.png,0,z,Tue Jan 20 2026 13:53:25 GMT-0600 (Central Standard Time),670839.4000000954,1400,O,m,942,4,1,2362.7999999523163,668476.600000143,7730,NTS,B,23
9,16,test,1,C,circle.png,1,m,Tue Jan 20 2026 13:53:25 GMT-0600 (Central Standard Time),672974.100000143,1500,O,m,604,8,1,2131.9000000953674,670842.2000000477,7730,NTS,B,24
8,1,test,2,C,triangle.png,1,m,Tue Jan 20 2026 13:53:25 GMT-0600 (Central Standard Time),703263.9000000954,1600,O,m,943,7,1,2563.2000000476837,700700.7000000477,7730,NTS,B,1
6,2,test,2,C,circle.png,1,m,Tue Jan 20 2026 13:53:25 GMT-0600 (Central Standard Time),705861.7999999523,1900,O,m,674,5,1,2595.0,703266.7999999523,7730,NTS,B,2
1,3,test,2,C,triangle.png,1,z,Tue Jan 20 2026 13:53:25 GMT-0600 (Central Standard Time),708328.2999999523,1900,O,z,541,9,1,2463.7999999523163,705864.5,7730,NTS,B,3
9,4,test,2,C,circle.png,1,m,Tue Jan 20 2026 13:53:25 GMT-0600 (Central Standard Time),710394.100000143,1500,O,m,549,8,1,2062.7000000476837,708331.4000000954,7730,NTS,B,4
7,5,test,2,C,circle.png,1,m,Tue Jan 20 2026 13:53:25 GMT-0600 (Central Standard Time),713093.7000000477,2000,O,m,671,22,1,2696.9000000953674,710396.7999999523,7730,NTS,B,5
2,6,test,2,C,circle.png,1,z,Tue Jan 20 2026 13:53:25 GMT-0600 (Central Standard Time),715475.100000143,1700,O,z,663,18,1,2378.5,713096.600000143,7730,NTS,B,6
4,7,test,2,C,triangle.png,1,m,Tue Jan 20 2026 13:53:25 GMT-0600 (Central Standard Time),718009.100000143,1500,O,m,1017,20,1,2531.100000143051,715478.0,7730,NTS,B,7
2,7,test,2,C,triangle.png,0,m,Tue Jan 20 2026 13:53:25 GMT-0600 (Central Standard Time),720541.2999999523,2000,O,z,503,2,1,2529.5999999046326,718011.7000000477,7730,NTS,B,8
6,8,test,2,C,triangle.png,1,m,Tue Jan 20 2026 13:53:25 GMT-0600 (Central Standard Time),722322.9000000954,1000,O,m,755,13,1,1778.7000000476837,720544.2000000477,7730,NTS,B,9
9,8,test,2,C,triangle.png,0,z,Tue Jan 20 2026 13:53:25 GMT-0600 (Central Standard Time),724522.4000000954,1400,O,m,772,24,1,2196.7999999523163,722325.600000143,7730,NTS,B,10
7,9,test,2,C,circle.png,1,m,Tue Jan 20 2026 13:53:25 GMT-0600 (Central Standard Time),727205.4000000954,2000,O,m,661,14,1,2680.2000000476837,724525.2000000477,7730,NTS,B,11
6,10,test,2,C,triangle.png,1,m,Tue Jan 20 2026 13:53:25 GMT-0600 (Central Standard Time),728888.2000000477,1000,O,m,660,21,1,1679.9000000953674,727208.2999999523,7730,NTS,B,12
9,10,test,2,C,triangle.png,0,z,Tue Jan 20 2026 13:53:25 GMT-0600 (Central Standard Time),730903.9000000954,1400,O,m,583,16,1,2013.1000001430511,728890.7999999523,7730,NTS,B,13
4,10,test,2,C,triangle.png,0,m,Tue Jan 20 2026 13:53:25 GMT-0600 (Central Standard Time),733270.2999999523,1500,O,z,845,12,1,2363.199999809265,730907.100000143,7730,NTS,B,14
3,11,test,2,C,circle.png,1,z,Tue Jan 20 2026 13:53:25 GMT-0600 (Central Standard Time),735519.5,1600,O,z,626,11,1,2245.899999856949,733273.600000143,7730,NTS,B,15
2,12,test,2,C,circle.png,1,z,Tue Jan 20 2026 13:53:25 GMT-0600 (Central Standard Time),737818.2999999523,1700,O,z,567,10,1,2295.699999809265,735522.600000143,7730,NTS,B,16
1,13,test,2,C,circle.png,1,z,Tue Jan 20 2026 13:53:25 GMT-0600 (Central Standard Time),739501.7000000477,1000,O,z,661,1,1,1680.7000000476837,737821.0,7730,NTS,B,17
7,13,test,2,C,triangle.png,0,z,Tue Jan 20 2026 13:53:25 GMT-0600 (Central Standard Time),741867.0,1700,O,m,637,6,1,2362.5,739504.5,7730,NTS,B,18
3,14,test,2,C,circle.png,1,z,Tue Jan 20 2026 13:53:25 GMT-0600 (Central Standard Time),744135.2000000477,1600,O,z,636,19,1,2265.0,741870.2000000477,7730,NTS,B,19
3,15,test,2,C,triangle.png,1,z,Tue Jan 20 2026 13:53:25 GMT-0600 (Central Standard Time),745932.7000000477,1200,O,z,571,3,1,1792.9000000953674,744139.7999999523,7730,NTS,B,20
8,16,test,2,C,circle.png,1,m,Tue Jan 20 2026 13:53:25 GMT-0600 (Central Standard Time),747749.9000000954,1200,O,m,587,15,1,1812.2999999523163,745937.600000143,7730,NTS,B,21
4,17,test,2,C,circle.png,1,z,Tue Jan 20 2026 13:53:25 GMT-0600 (Central Standard Time),749881.4000000954,1400,O,z,707,4,1,2127.7000000476837,747753.7000000477,7730,NTS,B,22
8,18,test,2,C,circle.png,1,m,Tue Jan 20 2026 13:53:25 GMT-0600 (Central Standard Time),751730.600000143,1200,O,m,622,23,1,1846.1000001430511,749884.5,7730,NTS,B,23
1,19,test,2,C,triangle.png,1,z,Tue Jan 20 2026 13:53:25 GMT-0600 (Central Standard Time),754196.9000000954,1900,O,z,536,17,1,2463.7999999523163,751733.100000143,7730,NTS,B,24
9,1,test,3,C,circle.png,1,m,Tue Jan 20 2026 13:53:25 GMT-0600 (Central Standard Time),786902.7999999523,1500,O,m,859,24,1,2379.0,784523.7999999523,7730,NTS,B,1
8,2,test,3,C,triangle.png,1,m,Tue Jan 20 2026 13:53:25 GMT-0600 (Central Standard Time),789235.5,1600,O,m,714,7,1,2327.7000000476837,786907.7999999523,7730,NTS,B,2
2,2,test,3,C,triangle.png,0,m,Tue Jan 20 2026 13:53:25 GMT-0600 (Central Standard Time),792001.100000143,2000,O,z,741,18,1,2762.7000000476837,789238.4000000954,7730,NTS,B,3
3,2,test,3,C,triangle.png,0,z,Tue Jan 20 2026 13:53:25 GMT-0600 (Central Standard Time),794733.7999999523,1200,O,None,1516,3,1,2730.0,792003.7999999523,7730,NTS,B,4
2,2,test,3,C,triangle.png,0,m,Tue Jan 20 2026 13:53:25 GMT-0600 (Central Standard Time),797482.600000143,2000,O,z,723,2,1,2745.9000000953674,794736.7000000477,7730,NTS,B,5
4,2,test,3,C,triangle.png,0,m,Tue Jan 20 2026 13:53:25 GMT-0600 (Central Standard Time),799716.2999999523,1500,O,z,713,12,1,2230.5,797485.7999999523,7730,NTS,B,6
3,3,test,3,C,circle.png,1,z,Tue Jan 20 2026 13:53:25 GMT-0600 (Central Standard Time),801998.0,1600,O,z,660,11,1,2269.2999999523163,799728.7000000477,7730,NTS,B,7
8,4,test,3,C,circle.png,1,m,Tue Jan 20 2026 13:53:25 GMT-0600 (Central Standard Time),803930.2000000477,1200,O,m,706,15,1,1929.5,802000.7000000477,7730,NTS,B,8
4,4,test,3,C,circle.png,0,z,Tue Jan 20 2026 13:53:25 GMT-0600 (Central Standard Time),805980.2000000477,1400,O,m,632,20,1,2047.2999999523163,803932.9000000954,7730,NTS,B,9
9,4,test,3,C,triangle.png,0,z,Tue Jan 20 2026 13:53:25 GMT-0600 (Central Standard Time),808047.100000143,1400,O,m,634,16,1,2064.100000143051,805983.0,7730,NTS,B,10
7,5,test,3,C,circle.png,1,m,Tue Jan 20 2026 13:53:25 GMT-0600 (Central Standard Time),811146.2999999523,2000,O,m,1082,14,1,3094.699999809265,808051.600000143,7730,NTS,B,11
6,6,test,3,C,circle.png,1,m,Tue Jan 20 2026 13:53:25 GMT-0600 (Central Standard Time),813911.2999999523,1900,O,m,844,5,1,2761.899999856949,811149.4000000954,7730,NTS,B,12
9,7,test,3,C,circle.png,1,m,Tue Jan 20 2026 13:53:25 GMT-0600 (Central Standard Time),816060.2999999523,1500,O,m,629,8,1,2146.2999999523163,813914.0,7730,NTS,B,13
7,7,test,3,C,triangle.png,0,z,Tue Jan 20 2026 13:53:25 GMT-0600 (Central Standard Time),818459.2000000477,1700,O,m,671,6,1,2396.2000000476837,816063.0,7730,NTS,B,14
8,8,test,3,C,triangle.png,1,m,Tue Jan 20 2026 13:53:25 GMT-0600 (Central Standard Time),820675.0,1600,O,m,588,23,1,2213.2000000476837,818461.7999999523,7730,NTS,B,15
4,9,test,3,C,circle.png,1,z,Tue Jan 20 2026 13:53:25 GMT-0600 (Central Standard Time),822842.2000000477,1400,O,z,742,4,1,2164.2000000476837,820678.0,7730,NTS,B,16
3,10,test,3,C,triangle.png,1,z,Tue Jan 20 2026 13:53:25 GMT-0600 (Central Standard Time),824640.9000000954,1200,O,z,582,19,1,1795.7999999523163,822845.100000143,7730,NTS,B,17
7,11,test,3,C,triangle.png,1,z,Tue Jan 20 2026 13:53:25 GMT-0600 (Central Standard Time),826924.2999999523,1700,O,z,564,22,1,2280.699999809265,824643.600000143,7730,NTS,B,18
1,12,test,3,C,circle.png,1,z,Tue Jan 20 2026 13:53:25 GMT-0600 (Central Standard Time),829039.7000000477,1000,O,z,1084,17,1,2112.2000000476837,826927.5,7730,NTS,B,19
1,13,test,3,C,circle.png,1,z,Tue Jan 20 2026 13:53:25 GMT-0600 (Central Standard Time),830789.7000000477,1000,O,z,729,1,1,1746.9000000953674,829042.7999999523,7730,NTS,B,20
1,14,test,3,C,triangle.png,1,z,Tue Jan 20 2026 13:53:25 GMT-0600 (Central Standard Time),833288.100000143,1900,O,z,574,9,1,2494.800000190735,830793.2999999523,7730,NTS,B,21
6,15,test,3,C,triangle.png,1,m,Tue Jan 20 2026 13:53:25 GMT-0600 (Central Standard Time),834938.2999999523,1000,O,m,623,13,1,1646.7999999523163,833291.5,7730,NTS,B,22
6,16,test,3,C,circle.png,1,m,Tue Jan 20 2026 13:53:25 GMT-0600 (Central Standard Time),837702.9000000954,1900,O,m,841,21,1,2761.4000000953674,834941.5,7730,NTS,B,23
2,17,test,3,C,circle.png,1,z,Tue Jan 20 2026 13:53:25 GMT-0600 (Central Standard Time),840069.0,1700,O,z,636,10,1,2362.7000000476837,837706.2999999523,7730,NTS,B,24
6,0,test,4,C,circle.png,0,m,Tue Jan 20 2026 13:53:25 GMT-0600 (Central Standard Time),881290.9000000954,1900,O,None,1517,21,1,3431.100000143051,877859.7999999523,7730,NTS,B,1
2,0,test,4,C,triangle.png,0,m,Tue Jan 20 2026 13:53:25 GMT-0600 (Central Standard Time),883923.2000000477,2000,O,z,615,2,1,2629.0,881294.2000000477,7730,NTS,B,2
7,0,test,4,C,triangle.png,0,z,Tue Jan 20 2026 13:53:25 GMT-0600 (Central Standard Time),886771.2000000477,1700,O,m,1122,22,1,2844.5999999046326,883926.600000143,7730,NTS,B,3
1,1,test,4,C,circle.png,1,z,Tue Jan 20 2026 13:53:25 GMT-0600 (Central Standard Time),888653.2999999523,1000,O,z,851,17,1,1879.5999999046326,886773.7000000477,7730,NTS,B,4
8,2,test,4,C,triangle.png,1,m,Tue Jan 20 2026 13:53:25 GMT-0600 (Central Standard Time),891020.7000000477,1600,O,m,738,23,1,2364.5,888656.2000000477,7730,NTS,B,5
8,3,test,4,C,triangle.png,1,m,Tue Jan 20 2026 13:53:25 GMT-0600 (Central Standard Time),893135.5,1600,O,m,492,7,1,2112.0,891023.5,7730,NTS,B,6
1,4,test,4,C,triangle.png,1,z,Tue Jan 20 2026 13:53:25 GMT-0600 (Central Standard Time),895651.0,1900,O,z,597,9,1,2512.5999999046326,893138.4000000954,7730,NTS,B,7
1,5,test,4,C,circle.png,1,z,Tue Jan 20 2026 13:53:25 GMT-0600 (Central Standard Time),897385.2999999523,1000,O,z,699,1,1,1731.2999999523163,895654.0,7730,NTS,B,8
8,6,test,4,C,circle.png,1,m,Tue Jan 20 2026 13:53:25 GMT-0600 (Central Standard Time),899233.7999999523,1200,O,m,623,15,1,1846.0,897387.7999999523,7730,NTS,B,9
4,7,test,4,C,circle.png,1,z,Tue Jan 20 2026 13:53:25 GMT-0600 (Central Standard Time),901349.7999999523,1400,O,z,688,20,1,2113.199999809265,899236.600000143,7730,NTS,B,10
7,8,test,4,C,circle.png,1,m,Tue Jan 20 2026 13:53:25 GMT-0600 (Central Standard Time),904115.7999999523,2000,O,m,746,14,1,2762.5999999046326,901353.2000000477,7730,NTS,B,11
3,9,test,4,C,triangle.png,1,z,Tue Jan 20 2026 13:53:25 GMT-0600 (Central Standard Time),906097.9000000954,1200,O,z,766,3,1,1978.7000000476837,904119.2000000477,7730,NTS,B,12
9,10,test,4,C,circle.png,1,m,Tue Jan 20 2026 13:53:25 GMT-0600 (Central Standard Time),908331.0,1500,O,m,714,8,1,2230.5,906100.5,7730,NTS,B,13
3,11,test,4,C,circle.png,1,z,Tue Jan 20 2026 13:53:25 GMT-0600 (Central Standard Time),910563.2999999523,1600,O,z,613,11,1,2228.699999809265,908334.600000143,7730,NTS,B,14
3,12,test,4,C,triangle.png,1,z,Tue Jan 20 2026 13:53:25 GMT-0600 (Central Standard Time),912479.2000000477,1200,O,z,684,19,1,1911.7999999523163,910567.4000000954,7730,NTS,B,15
4,13,test,4,C,circle.png,1,z,Tue Jan 20 2026 13:53:25 GMT-0600 (Central Standard Time),915346.0,1400,O,z,1447,4,1,2863.5999999046326,912482.4000000954,7730,NTS,B,16
6,14,test,4,C,circle.png,1,m,Tue Jan 20 2026 13:53:25 GMT-0600 (Central Standard Time),917978.2000000477,1900,O,m,713,5,1,2629.2999999523163,915348.9000000954,7730,NTS,B,17
4,14,test,4,C,triangle.png,0,m,Tue Jan 20 2026 13:53:25 GMT-0600 (Central Standard Time),920243.600000143,1500,O,z,737,12,1,2262.300000190735,917981.2999999523,7730,NTS,B,18
6,15,test,4,C,triangle.png,1,m,Tue Jan 20 2026 13:53:25 GMT-0600 (Central Standard Time),922076.5,1000,O,m,812,13,1,1830.0,920246.5,7730,NTS,B,19
9,16,test,4,C,circle.png,1,m,Tue Jan 20 2026 13:53:25 GMT-0600 (Central Standard Time),924193.0,1500,O,m,600,24,1,2114.0,922079.0,7730,NTS,B,20
2,16,test,4,C,triangle.png,0,m,Tue Jan 20 2026 13:53:25 GMT-0600 (Central Standard Time),926941.7999999523,2000,O,z,720,18,1,2746.199999809265,924195.600000143,7730,NTS,B,21
2,17,test,4,C,circle.png,1,z,Tue Jan 20 2026 13:53:25 GMT-0600 (Central Standard Time),929324.100000143,1700,O,z,654,10,1,2379.0,926945.100000143,7730,NTS,B,22
7,17,test,4,C,triangle.png,0,z,Tue Jan 20 2026 13:53:25 GMT-0600 (Central Standard Time),931757.2000000477,1700,O,m,712,6,1,2430.2999999523163,929326.9000000954,7730,NTS,B,23
9,17,test,4,C,triangle.png,0,z,Tue Jan 20 2026 13:53:25 GMT-0600 (Central Standard Time),934475.4000000954,1400,O,m,1284,16,1,2715.0,931760.4000000954,7730,NTS,B,24
