acc_sum,block,block_c,condition,correct,correct_response,datetime,endtime,flanker,jitter,project,response,response_test_buffer_response,response_test_target_response,response_time,response_time_test_buffer_response,response_time_test_target_response,row_sel,session_number,start_end,starttime,subject_id,target,task,task_vers,time_test_buffer,time_test_buffer_response,time_test_constants,time_test_flanker,time_test_jitter,time_test_logger,time_test_target,time_test_target_response,time_test_variables,trial
0,prac,1,inc,0,z,Fri Mar 13 2026 09:43:23 GMT-0500 (Central Daylight Time),141201.0,rock,900,O,None,,,1800,,,10,1,4974.0,136227.0,7739,kind,AF,A,,,,,,,,,,1
1,prac,1,inc,1,m,Fri Mar 13 2026 09:43:23 GMT-0500 (Central Daylight Time),144566.40000009537,hate,1100,O,m,,,945,,,4,1,3341.600000143051,141224.79999995232,7739,film,AF,A,,,,,,,,,,2
2,prac,1,inc,1,m,Fri Mar 13 2026 09:43:23 GMT-0500 (Central Daylight Time),147849.0,elated,900,O,m,,,1058,,,6,1,3263.2000000476837,144585.79999995232,7739,napkin,AF,A,,,,,,,,,,3
3,prac,1,con,1,z,Fri Mar 13 2026 09:43:23 GMT-0500 (Central Daylight Time),151014.5,love,1000,O,z,,,836,,,11,1,3143.899999856949,147870.60000014305,7739,love,AF,A,,,,,,,,,,4
4,prac,1,con,1,z,Fri Mar 13 2026 09:43:23 GMT-0500 (Central Daylight Time),154413.5,rage,1000,O,z,,,1069,,,15,1,3378.2000000476837,151035.29999995232,7739,rage,AF,A,,,,,,,,,,5
5,prac,1,inc,1,m,Fri Mar 13 2026 09:43:23 GMT-0500 (Central Daylight Time),157495.60000014305,brutal,1100,O,m,,,652,,,8,1,3067.300000190735,154428.29999995232,7739,window,AF,A,,,,,,,,,,6
5,prac,1,con,0,m,Fri Mar 13 2026 09:43:23 GMT-0500 (Central Daylight Time),160776.90000009537,bell,1000,O,z,,,955,,,3,1,3263.100000143051,157513.79999995232,7739,bell,AF,A,,,,,,,,,,7
6,prac,1,inc,1,z,Fri Mar 13 2026 09:43:23 GMT-0500 (Central Daylight Time),164076.60000014305,film,900,O,z,,,1096,,,14,1,3293.5,160783.10000014305,7739,hate,AF,A,,,,,,,,,,8
7,prac,1,con,1,m,Fri Mar 13 2026 09:43:23 GMT-0500 (Central Daylight Time),166959.10000014305,step,800,O,m,,,751,,,1,1,2865.9000000953674,164093.20000004768,7739,step,AF,A,,,,,,,,,,9
8,prac,1,con,1,z,Fri Mar 13 2026 09:43:23 GMT-0500 (Central Daylight Time),169741.60000014305,brutal,800,O,z,,,660,,,13,1,2759.800000190735,166981.79999995232,7739,brutal,AF,A,,,,,,,,,,10
8,prac,1,inc,0,z,Fri Mar 13 2026 09:43:23 GMT-0500 (Central Daylight Time),173572.60000014305,napkin,1100,O,m,,,1411,,,12,1,3808.600000143051,169764.0,7739,friend,AF,A,,,,,,,,,,11
8,prac,1,con,0,m,Fri Mar 13 2026 09:43:23 GMT-0500 (Central Daylight Time),178638.5,remote,1000,O,None,,,1800,,,7,1,5060.099999904633,173578.40000009537,7739,remote,AF,A,,,,,,,,,,12
9,prac,1,inc,1,m,Fri Mar 13 2026 09:43:23 GMT-0500 (Central Daylight Time),181637.60000014305,kind,900,O,m,,,770,,,2,1,2975.800000190735,178661.79999995232,7739,rock,AF,A,,,,,,,,,,13
10,prac,1,con,1,m,Fri Mar 13 2026 09:43:23 GMT-0500 (Central Daylight Time),184403.20000004768,jacket,800,O,m,,,647,,,5,1,2741.0999999046326,181662.10000014305,7739,jacket,AF,A,,,,,,,,,,14
11,prac,1,inc,1,z,Fri Mar 13 2026 09:43:23 GMT-0500 (Central Daylight Time),187719.20000004768,window,1100,O,z,,,894,,,16,1,3296.0,184423.20000004768,7739,temper,AF,A,,,,,,,,,,15
12,prac,1,con,1,z,Fri Mar 13 2026 09:43:23 GMT-0500 (Central Daylight Time),190784.79999995232,elated,800,O,z,,,934,,,9,1,3043.0999999046326,187741.70000004768,7739,elated,AF,A,,,,,,,,,,16
1,test,1,con,1,z,Fri Mar 13 2026 09:43:23 GMT-0500 (Central Daylight Time),221741.40000009537,temper,1000,O,z,z,None,1906,1691.0,215.0,59,1,3448.100000143051,218293.29999995232,7739,temper,AF,A,216373,216373,214625,215641,214626,218074,216158,216158,218073,1
2,test,1,inc,1,z,Fri Mar 13 2026 09:43:23 GMT-0500 (Central Daylight Time),224140.5,rock,900,O,z,z,None,948,749.0,199.0,54,1,2375.0,221765.5,7739,rage,AF,A,219723,219723,218098,219007,218099,220473,219523,219523,220472,2
3,test,1,inc,1,z,Fri Mar 13 2026 09:43:23 GMT-0500 (Central Daylight Time),226739.40000009537,remote,1000,O,z,z,None,1042,842.0,200.0,63,1,2578.100000143051,224161.29999995232,7739,temper,AF,A,222222,222222,220493,221506,220495,223072,222021,222021,223071,3
4,test,1,inc,1,z,Fri Mar 13 2026 09:43:23 GMT-0500 (Central Daylight Time),228872.0,step,800,O,z,z,None,778,578.0,200.0,13,1,2111.399999856949,226760.60000014305,7739,kind,AF,A,224622,224622,223093,223904,223094,225204,224421,224421,225204,4
5,test,1,con,1,z,Fri Mar 13 2026 09:43:23 GMT-0500 (Central Daylight Time),231687.90000009537,hate,1100,O,z,z,None,1161,962.0,199.0,44,1,2795.2000000476837,228892.70000004768,7739,hate,AF,A,227054,227054,225225,226337,225226,228020,226854,226854,228020,5
6,test,1,inc,1,m,Fri Mar 13 2026 09:43:23 GMT-0500 (Central Daylight Time),234003.40000009537,hate,1100,O,m,m,None,656,457.0,199.0,88,1,2293.0,231710.40000009537,7739,bell,AF,A,229870,229870,228042,229153,228044,230336,229670,229670,230335,6
7,test,1,inc,1,z,Fri Mar 13 2026 09:43:23 GMT-0500 (Central Daylight Time),236302.90000009537,bell,1000,O,z,z,None,762,563.0,199.0,15,1,2285.600000143051,234017.29999995232,7739,kind,AF,A,232069,232069,230349,231353,230350,232635,231869,231869,232635,7
8,test,1,con,1,z,Fri Mar 13 2026 09:43:23 GMT-0500 (Central Daylight Time),238334.90000009537,brutal,800,O,z,z,None,669,470.0,199.0,33,1,2011.5,236323.40000009537,7739,brutal,AF,A,234185,234185,232655,233469,232656,234667,233985,233985,234667,8
9,test,1,con,1,m,Fri Mar 13 2026 09:43:23 GMT-0500 (Central Daylight Time),240667.29999995232,window,1100,O,m,m,None,697,497.0,200.0,124,1,2324.0,238343.29999995232,7739,window,AF,A,236501,236501,234675,235784,234676,236999,236300,236300,236999,9
10,test,1,con,1,m,Fri Mar 13 2026 09:43:23 GMT-0500 (Central Daylight Time),242584.20000004768,window,900,O,m,m,None,478,278.0,200.0,122,1,1911.0,240673.20000004768,7739,window,AF,A,238634,238634,237005,237916,237006,238916,238433,238433,238916,10
11,test,1,con,1,z,Fri Mar 13 2026 09:43:23 GMT-0500 (Central Daylight Time),244633.60000014305,hate,800,O,z,z,None,684,484.0,200.0,41,1,2028.1000001430511,242605.5,7739,hate,AF,A,240466,240467,238938,239750,238939,240966,240266,240266,240966,11
12,test,1,inc,1,m,Fri Mar 13 2026 09:43:23 GMT-0500 (Central Daylight Time),246965.60000014305,hate,1100,O,m,m,None,670,471.0,199.0,80,1,2311.600000143051,244654.0,7739,rock,AF,A,242816,242816,240986,242099,240987,243298,242615,242616,243298,12
13,test,1,inc,1,m,Fri Mar 13 2026 09:43:23 GMT-0500 (Central Daylight Time),249231.90000009537,kind,900,O,m,m,None,820,621.0,199.0,70,1,2258.600000143051,246973.29999995232,7739,step,AF,A,244931,244931,243305,244215,243306,245564,244731,244731,245564,13
14,test,1,con,1,m,Fri Mar 13 2026 09:43:23 GMT-0500 (Central Daylight Time),251447.90000009537,window,800,O,m,m,None,853,654.0,199.0,121,1,2196.100000143051,249251.79999995232,7739,window,AF,A,247114,247114,245584,246398,245585,247780,246914,246914,247780,14
15,test,1,con,1,m,Fri Mar 13 2026 09:43:23 GMT-0500 (Central Daylight Time),253381.70000004768,bell,800,O,m,m,None,583,383.0,200.0,81,1,1912.5999999046326,251469.10000014305,7739,bell,AF,A,249330,249330,247801,248613,247802,249714,249129,249129,249714,15
16,test,1,con,1,m,Fri Mar 13 2026 09:43:23 GMT-0500 (Central Daylight Time),255513.29999995232,step,900,O,m,m,None,676,477.0,199.0,66,1,2106.0,253407.29999995232,7739,step,AF,A,251363,251363,249739,250646,249741,251845,251163,251163,251845,16
17,test,1,inc,1,m,Fri Mar 13 2026 09:43:23 GMT-0500 (Central Daylight Time),257562.0,elated,800,O,m,m,None,691,492.0,199.0,109,1,2028.0,255534.0,7739,napkin,AF,A,253394,253395,251866,252679,251867,253894,253195,253195,253894,17
18,test,1,inc,1,z,Fri Mar 13 2026 09:43:23 GMT-0500 (Central Daylight Time),259812.0,film,1100,O,z,z,None,616,416.0,200.0,56,1,2244.5,257567.5,7739,rage,AF,A,255728,255728,253900,255010,253900,256144,255527,255527,256144,18
19,test,1,inc,1,m,Fri Mar 13 2026 09:43:23 GMT-0500 (Central Daylight Time),262294.2999999523,friend,1100,O,m,m,None,821,622.0,199.0,112,1,2462.0,259832.29999995232,7739,napkin,AF,A,257994,257994,256164,257277,256165,258626,257794,257794,258626,19
20,test,1,con,1,z,Fri Mar 13 2026 09:43:23 GMT-0500 (Central Daylight Time),264776.90000009537,friend,900,O,z,z,None,1027,827.0,200.0,26,1,2462.2999999523163,262314.60000014305,7739,friend,AF,A,260277,260277,258647,259560,258648,261109,260076,260076,261109,20
21,test,1,con,1,z,Fri Mar 13 2026 09:43:23 GMT-0500 (Central Daylight Time),267042.7999999523,rage,1000,O,z,z,None,699,500.0,199.0,51,1,2245.199999809265,264797.60000014305,7739,rage,AF,A,262859,262859,261130,262142,261131,263375,262659,262659,263375,21
22,test,1,con,1,m,Fri Mar 13 2026 09:43:23 GMT-0500 (Central Daylight Time),270574.2000000477,step,1100,O,m,m,None,1876,1677.0,199.0,68,1,3510.5,267063.7000000477,7739,step,AF,A,265225,265225,263396,264508,263397,266906,265025,265025,266906,22
23,test,1,inc,1,z,Fri Mar 13 2026 09:43:23 GMT-0500 (Central Daylight Time),272991.0,window,1100,O,z,z,None,780,579.0,201.0,8,1,2408.899999856949,270582.10000014305,7739,elated,AF,A,268740,268741,266914,268023,266915,269323,268539,268539,269323,23
24,test,1,con,1,m,Fri Mar 13 2026 09:43:23 GMT-0500 (Central Daylight Time),275739.2999999523,remote,1000,O,m,m,None,1197,998.0,199.0,115,1,2729.0999999046326,273010.2000000477,7739,remote,AF,A,271073,271073,269342,270356,269343,272071,270873,270873,272071,24
25,test,1,con,1,z,Fri Mar 13 2026 09:43:23 GMT-0500 (Central Daylight Time),278389.2000000477,rage,900,O,z,z,None,1190,991.0,199.0,50,1,2630.9000000953674,275758.2999999523,7739,rage,AF,A,273721,273721,272090,273006,272091,274721,273522,273522,274721,25
26,test,1,con,1,z,Fri Mar 13 2026 09:43:23 GMT-0500 (Central Daylight Time),280704.2999999523,love,1100,O,z,z,None,660,460.0,200.0,20,1,2296.0999999046326,278408.2000000477,7739,love,AF,A,276570,276570,274740,275854,274741,277036,276370,276370,277036,26
27,test,1,inc,1,m,Fri Mar 13 2026 09:43:23 GMT-0500 (Central Daylight Time),282704.40000009537,rage,800,O,m,m,None,653,453.0,200.0,77,1,1995.2000000476837,280709.2000000477,7739,rock,AF,A,278571,278571,277041,277853,277041,279037,278370,278370,279036,27
28,test,1,inc,1,z,Fri Mar 13 2026 09:43:23 GMT-0500 (Central Daylight Time),285336.90000009537,remote,1000,O,z,z,None,1076,861.0,215.0,39,1,2613.100000143051,282723.7999999523,7739,brutal,AF,A,280803,280803,279056,280069,279057,281669,280587,280587,281669,28
29,test,1,con,1,m,Fri Mar 13 2026 09:43:23 GMT-0500 (Central Daylight Time),287619.5,remote,900,O,m,m,None,815,616.0,199.0,114,1,2261.0,285358.5,7739,remote,AF,A,283319,283319,281691,282602,281691,283952,283119,283119,283951,29
30,test,1,con,1,m,Fri Mar 13 2026 09:43:23 GMT-0500 (Central Daylight Time),290467.90000009537,rock,1100,O,m,m,None,1189,989.0,200.0,76,1,2828.7999999523163,287639.10000014305,7739,rock,AF,A,285802,285802,283971,285085,283972,286800,285601,285601,286800,30
31,test,1,con,1,z,Fri Mar 13 2026 09:43:23 GMT-0500 (Central Daylight Time),292984.40000009537,kind,1000,O,z,z,None,969,770.0,199.0,11,1,2508.7999999523163,290475.60000014305,7739,kind,AF,A,288534,288534,286808,287817,286808,289316,288334,288334,289316,31
32,test,1,con,1,m,Fri Mar 13 2026 09:43:23 GMT-0500 (Central Daylight Time),295633.2000000477,bell,1100,O,m,m,None,992,793.0,199.0,84,1,2629.2999999523163,293003.90000009537,7739,bell,AF,A,291166,291166,289336,290450,289337,291965,290966,290966,291965,32
33,test,1,inc,1,m,Fri Mar 13 2026 09:43:23 GMT-0500 (Central Daylight Time),298115.5,friend,1100,O,m,m,None,832,633.0,199.0,128,1,2469.2999999523163,295646.2000000477,7739,window,AF,A,293798,293798,291978,293083,291979,294448,293599,293599,294448,33
34,test,1,inc,1,m,Fri Mar 13 2026 09:43:23 GMT-0500 (Central Daylight Time),300514.40000009537,temper,1000,O,m,m,None,849,648.0,201.0,103,1,2385.0,298129.40000009537,7739,jacket,AF,A,296181,296182,294461,295465,294462,296847,295980,295980,296846,34
35,test,1,con,1,m,Fri Mar 13 2026 09:43:23 GMT-0500 (Central Daylight Time),302464.7000000477,bell,900,O,m,m,None,502,303.0,199.0,82,1,1945.4000000953674,300519.2999999523,7739,bell,AF,A,298480,298481,296851,297764,296852,298797,298281,298281,298797,35
36,test,1,con,1,m,Fri Mar 13 2026 09:43:23 GMT-0500 (Central Daylight Time),304430.40000009537,napkin,800,O,m,m,None,604,405.0,199.0,105,1,1945.5,302484.90000009537,7739,napkin,AF,A,300347,300347,298817,299630,298818,300762,300147,300147,300762,36
37,test,1,con,1,m,Fri Mar 13 2026 09:43:23 GMT-0500 (Central Daylight Time),306296.7000000477,film,800,O,m,m,None,519,320.0,199.0,89,1,1853.7999999523163,304442.90000009537,7739,film,AF,A,302296,302296,300775,301579,300775,302629,302096,302096,302629,37
38,test,1,con,1,m,Fri Mar 13 2026 09:43:23 GMT-0500 (Central Daylight Time),308295.2999999523,rock,800,O,m,m,None,642,443.0,199.0,73,1,1979.3999998569489,306315.90000009537,7739,rock,AF,A,304179,304179,302648,303462,302649,304627,303978,303979,304627,38
39,test,1,inc,1,z,Fri Mar 13 2026 09:43:23 GMT-0500 (Central Daylight Time),310728.5,remote,1000,O,z,z,None,887,687.0,200.0,31,1,2428.2999999523163,308300.2000000477,7739,friend,AF,A,306361,306361,304632,305644,304633,307061,306160,306160,307061,39
40,test,1,con,1,m,Fri Mar 13 2026 09:43:23 GMT-0500 (Central Daylight Time),313144.40000009537,napkin,1100,O,m,m,None,761,561.0,200.0,108,1,2396.100000143051,310748.2999999523,7739,napkin,AF,A,308910,308911,307080,308193,307081,309477,308710,308710,309476,40
41,test,1,inc,1,z,Fri Mar 13 2026 09:43:23 GMT-0500 (Central Daylight Time),315327.10000014305,jacket,800,O,z,z,None,829,630.0,199.0,29,1,2163.2000000476837,313163.90000009537,7739,friend,AF,A,311026,311026,309496,310310,309497,311659,310826,310826,311659,41
42,test,1,inc,1,z,Fri Mar 13 2026 09:43:23 GMT-0500 (Central Daylight Time),317593.0,remote,1000,O,z,z,None,702,503.0,199.0,7,1,2245.0,315348.0,7739,elated,AF,A,313409,313409,311680,312692,311681,313925,313209,313209,313925,42
43,test,1,inc,1,m,Fri Mar 13 2026 09:43:23 GMT-0500 (Central Daylight Time),320358.7000000477,hate,1100,O,m,m,None,1104,905.0,199.0,96,1,2745.2000000476837,317613.5,7739,film,AF,A,315775,315775,313946,315058,313947,316691,315575,315575,316691,43
44,test,1,inc,1,m,Fri Mar 13 2026 09:43:23 GMT-0500 (Central Daylight Time),322574.2999999523,love,1000,O,m,m,None,661,462.0,199.0,71,1,2191.5,320382.7999999523,7739,step,AF,A,318441,318441,316715,317724,316716,318906,318241,318241,318906,44
45,test,1,inc,1,m,Fri Mar 13 2026 09:43:23 GMT-0500 (Central Daylight Time),324840.0,brutal,900,O,m,m,None,826,627.0,199.0,126,1,2255.0,322585.0,7739,window,AF,A,320540,320540,318917,319823,318918,321172,320340,320340,321172,45
46,test,1,inc,1,m,Fri Mar 13 2026 09:43:23 GMT-0500 (Central Daylight Time),327073.10000014305,kind,900,O,m,m,None,787,587.0,200.0,78,1,2225.9000000953674,324847.2000000477,7739,rock,AF,A,322805,322805,321179,322088,321180,323405,322605,322605,323405,46
47,test,1,inc,1,z,Fri Mar 13 2026 09:43:23 GMT-0500 (Central Daylight Time),329339.10000014305,film,1100,O,z,z,None,609,410.0,199.0,48,1,2247.0,327092.10000014305,7739,hate,AF,A,325254,325254,323424,324539,323425,325671,325055,325055,325671,47
48,test,1,con,1,m,Fri Mar 13 2026 09:43:23 GMT-0500 (Central Daylight Time),331421.60000014305,jacket,800,O,m,m,None,722,523.0,199.0,97,1,2063.600000143051,329358.0,7739,jacket,AF,A,327221,327221,325690,326504,325691,327754,327021,327021,327754,48
49,test,1,inc,1,z,Fri Mar 13 2026 09:43:23 GMT-0500 (Central Daylight Time),334286.7999999523,napkin,900,O,z,z,None,1409,1210.0,199.0,62,1,2847.2999999523163,331439.5,7739,temper,AF,A,329404,329404,327772,328686,327772,330619,329204,329204,330619,49
49,test,1,con,0,z,Fri Mar 13 2026 09:43:23 GMT-0500 (Central Daylight Time),336720.0,elated,1100,O,m,m,None,794,595.0,199.0,4,1,2428.2999999523163,334291.7000000477,7739,elated,AF,A,332453,332453,330624,331736,330624,333052,332253,332253,333052,50
50,test,1,con,1,z,Fri Mar 13 2026 09:43:23 GMT-0500 (Central Daylight Time),338919.2000000477,hate,900,O,z,z,None,738,538.0,200.0,42,1,2180.7999999523163,336738.40000009537,7739,hate,AF,A,334702,334702,333070,333985,333071,335251,334501,334501,335251,51
51,test,1,inc,1,m,Fri Mar 13 2026 09:43:23 GMT-0500 (Central Daylight Time),341068.90000009537,kind,900,O,m,m,None,699,499.0,200.0,94,1,2129.9000000953674,338939.0,7739,film,AF,A,336900,336901,335271,336185,335272,337401,336700,336700,337401,52
52,test,1,inc,1,z,Fri Mar 13 2026 09:43:23 GMT-0500 (Central Daylight Time),343217.90000009537,jacket,800,O,z,z,None,785,585.0,200.0,37,1,2126.7000000476837,341091.2000000477,7739,brutal,AF,A,338951,338951,337423,338233,337424,339550,338750,338750,339550,53
53,test,1,inc,1,m,Fri Mar 13 2026 09:43:23 GMT-0500 (Central Daylight Time),345450.40000009537,rage,800,O,m,m,None,868,668.0,200.0,85,1,2216.7999999523163,343233.60000014305,7739,bell,AF,A,341099,341099,339566,340383,339566,341782,340899,340899,341782,54
54,test,1,con,1,z,Fri Mar 13 2026 09:43:23 GMT-0500 (Central Daylight Time),347949.10000014305,temper,800,O,z,z,None,1147,948.0,199.0,57,1,2478.7000000476837,345470.40000009537,7739,temper,AF,A,343332,343332,341802,342615,341804,344281,343132,343132,344281,55
55,test,1,con,1,z,Fri Mar 13 2026 09:43:23 GMT-0500 (Central Daylight Time),349865.7999999523,friend,800,O,z,z,None,551,352.0,199.0,25,1,1897.1999998092651,347968.60000014305,7739,friend,AF,A,345831,345832,344301,345114,344301,346198,345631,345632,346198,56
56,test,1,con,1,m,Fri Mar 13 2026 09:43:23 GMT-0500 (Central Daylight Time),352264.60000014305,film,900,O,m,m,None,936,721.0,215.0,90,1,2378.5,349886.10000014305,7739,film,AF,A,347863,347863,346218,347131,346219,348597,347648,347648,348597,57
57,test,1,con,1,z,Fri Mar 13 2026 09:43:23 GMT-0500 (Central Daylight Time),354180.2999999523,elated,800,O,z,z,None,563,364.0,199.0,1,1,1895.0999999046326,352285.2000000477,7739,elated,AF,A,350147,350147,348617,349430,348618,350512,349947,349947,350512,58
58,test,1,con,1,m,Fri Mar 13 2026 09:43:23 GMT-0500 (Central Daylight Time),356796.40000009537,rock,900,O,m,m,None,1174,974.0,200.0,74,1,2608.9000000953674,354187.5,7739,rock,AF,A,352146,352146,350520,351430,350520,353129,351945,351945,353128,59
59,test,1,con,1,z,Fri Mar 13 2026 09:43:23 GMT-0500 (Central Daylight Time),358796.10000014305,kind,800,O,z,z,None,633,433.0,200.0,9,1,1980.8000001907349,356815.2999999523,7739,kind,AF,A,354679,354679,353147,353961,353148,355128,354478,354478,355128,60
60,test,1,con,1,z,Fri Mar 13 2026 09:43:23 GMT-0500 (Central Daylight Time),361378.7999999523,rage,1100,O,z,z,None,918,719.0,199.0,52,1,2564.0999999046326,358814.7000000477,7739,rage,AF,A,356977,356977,355147,356261,355148,357711,356778,356778,357711,61
61,test,1,con,1,z,Fri Mar 13 2026 09:43:23 GMT-0500 (Central Daylight Time),363677.7999999523,friend,1100,O,z,z,None,639,423.0,216.0,28,1,2279.0999999046326,361398.7000000477,7739,friend,AF,A,359577,359577,357731,358844,357732,360010,359360,359361,360010,62
62,test,1,inc,1,m,Fri Mar 13 2026 09:43:23 GMT-0500 (Central Daylight Time),365959.7999999523,rage,800,O,m,m,None,917,718.0,199.0,93,1,2262.199999809265,363697.60000014305,7739,film,AF,A,361560,361560,360030,360843,360031,362292,361360,361360,362292,63
63,test,1,con,1,m,Fri Mar 13 2026 09:43:23 GMT-0500 (Central Daylight Time),368193.0,step,1000,O,m,m,None,694,494.0,200.0,67,1,2227.0,365966.0,7739,step,AF,A,364026,364026,362298,363309,362298,364525,363825,363825,364525,64
64,test,1,inc,1,z,Fri Mar 13 2026 09:43:23 GMT-0500 (Central Daylight Time),370825.2000000477,film,1100,O,z,z,None,976,777.0,199.0,16,1,2611.7999999523163,368213.40000009537,7739,kind,AF,A,366375,366375,364545,365658,364546,367157,366175,366175,367157,65
65,test,1,con,1,z,Fri Mar 13 2026 09:43:23 GMT-0500 (Central Daylight Time),373707.7999999523,hate,1000,O,z,z,None,1325,1125.0,200.0,43,1,2862.399999856949,370845.40000009537,7739,hate,AF,A,368907,368907,367177,368190,367178,370040,368707,368707,370040,66
66,test,1,con,1,z,Fri Mar 13 2026 09:43:23 GMT-0500 (Central Daylight Time),376090.40000009537,love,1000,O,z,z,None,817,618.0,199.0,19,1,2363.2999999523163,373727.10000014305,7739,love,AF,A,371789,371789,370059,371073,370060,372422,371590,371590,372422,67
67,test,1,inc,1,m,Fri Mar 13 2026 09:43:23 GMT-0500 (Central Daylight Time),378489.5,love,1000,O,m,m,None,844,644.0,200.0,95,1,2381.2999999523163,376108.2000000477,7739,film,AF,A,374172,374172,372440,373455,372441,374822,373972,373972,374822,68
68,test,1,con,1,m,Fri Mar 13 2026 09:43:23 GMT-0500 (Central Daylight Time),381338.10000014305,film,1000,O,m,m,None,1282,1067.0,215.0,91,1,2830.100000143051,378508.0,7739,film,AF,A,376587,376587,374840,375855,374841,377670,376372,376372,377670,69
69,test,1,inc,1,m,Fri Mar 13 2026 09:43:23 GMT-0500 (Central Daylight Time),383788.2999999523,temper,1000,O,m,m,None,915,716.0,199.0,111,1,2440.2999999523163,381348.0,7739,napkin,AF,A,379404,379404,377680,378687,377681,380120,379204,379204,380120,70
69,test,1,inc,0,m,Fri Mar 13 2026 09:43:23 GMT-0500 (Central Daylight Time),385720.60000014305,elated,800,O,z,z,None,569,370.0,199.0,101,1,1913.7000000476837,383806.90000009537,7739,jacket,AF,A,381670,381670,380139,380953,380140,382053,381470,381470,382053,71
70,test,1,inc,1,z,Fri Mar 13 2026 09:43:23 GMT-0500 (Central Daylight Time),388153.10000014305,jacket,800,O,z,z,None,1077,877.0,200.0,61,1,2414.300000190735,385738.7999999523,7739,temper,AF,A,383603,383603,382071,382886,382072,384485,383402,383402,384485,72
71,test,1,con,1,z,Fri Mar 13 2026 09:43:23 GMT-0500 (Central Daylight Time),390502.2000000477,elated,1000,O,z,z,None,788,589.0,199.0,3,1,2332.7000000476837,388169.5,7739,elated,AF,A,386235,386235,384502,385518,384502,386834,386035,386035,386834,73
72,test,1,inc,1,m,Fri Mar 13 2026 09:43:23 GMT-0500 (Central Daylight Time),392517.7999999523,elated,800,O,m,m,None,663,463.0,200.0,117,1,1995.5999999046326,390522.2000000477,7739,remote,AF,A,388384,388384,386854,387668,386856,388850,388184,388184,388850,74
73,test,1,inc,1,z,Fri Mar 13 2026 09:43:23 GMT-0500 (Central Daylight Time),394734.2999999523,step,800,O,z,z,None,878,672.0,206.0,53,1,2207.699999809265,392526.60000014305,7739,rage,AF,A,390384,390384,388859,389667,388859,391066,390177,390177,391066,75
74,test,1,inc,1,m,Fri Mar 13 2026 09:43:23 GMT-0500 (Central Daylight Time),397316.2000000477,temper,1000,O,m,m,None,1031,831.0,200.0,119,1,2561.2000000476837,394755.0,7739,remote,AF,A,392816,392816,391087,392100,391088,393648,392615,392615,393648,76
75,test,1,inc,1,z,Fri Mar 13 2026 09:43:23 GMT-0500 (Central Daylight Time),400048.40000009537,rock,900,O,z,z,None,1291,1092.0,199.0,14,1,2724.600000143051,397323.7999999523,7739,kind,AF,A,395282,395282,393656,394565,393656,396380,395082,395082,396380,77
76,test,1,con,1,m,Fri Mar 13 2026 09:43:23 GMT-0500 (Central Daylight Time),402097.7000000477,jacket,900,O,m,m,None,600,400.0,200.0,98,1,2043.7999999523163,400053.90000009537,7739,jacket,AF,A,398014,398015,396386,397298,396386,398430,397814,397814,398430,78
76,test,1,inc,0,z,Fri Mar 13 2026 09:43:23 GMT-0500 (Central Daylight Time),404714.10000014305,bell,1000,O,m,m,None,1076,877.0,199.0,23,1,2610.5,402103.60000014305,7739,love,AF,A,400163,400163,398436,399447,398436,401046,399964,399964,401046,79
76,test,1,con,0,z,Fri Mar 13 2026 09:43:23 GMT-0500 (Central Daylight Time),407280.2999999523,temper,1100,O,m,m,None,905,704.0,201.0,60,1,2547.199999809265,404733.10000014305,7739,temper,AF,A,402896,402896,401065,402179,401066,403612,402695,402695,403612,80
77,test,1,inc,1,z,Fri Mar 13 2026 09:43:23 GMT-0500 (Central Daylight Time),409678.60000014305,window,1100,O,z,z,None,745,546.0,199.0,40,1,2379.100000143051,407299.5,7739,brutal,AF,A,405462,405462,403632,404745,403633,406011,405262,405262,406011,81
78,test,1,inc,1,z,Fri Mar 13 2026 09:43:23 GMT-0500 (Central Daylight Time),412227.7000000477,film,1100,O,z,z,None,904,705.0,199.0,24,1,2541.0999999046326,409686.60000014305,7739,love,AF,A,407845,407845,406019,407128,406019,408560,407645,407645,408560,82
79,test,1,con,1,m,Fri Mar 13 2026 09:43:23 GMT-0500 (Central Daylight Time),414910.40000009537,window,1000,O,m,m,None,1136,937.0,199.0,123,1,2675.7000000476837,412234.7000000477,7739,window,AF,A,410294,410294,408567,409577,408567,411243,410094,410094,411242,83
80,test,1,con,1,m,Fri Mar 13 2026 09:43:23 GMT-0500 (Central Daylight Time),416993.60000014305,napkin,900,O,m,m,None,644,445.0,199.0,106,1,2075.9000000953674,414917.7000000477,7739,napkin,AF,A,412875,412875,411250,412160,411250,413326,412676,412676,413326,84
81,test,1,inc,1,z,Fri Mar 13 2026 09:43:23 GMT-0500 (Central Daylight Time),419459.60000014305,bell,1000,O,z,z,None,900,685.0,215.0,47,1,2446.0,417013.60000014305,7739,hate,AF,A,415091,415091,413346,414359,413347,415792,414875,414876,415792,85
82,test,1,inc,1,m,Fri Mar 13 2026 09:43:23 GMT-0500 (Central Daylight Time),421874.7999999523,temper,1000,O,m,m,None,858,658.0,200.0,127,1,2397.0,419477.7999999523,7739,window,AF,A,417541,417541,415810,416825,415811,418207,417341,417341,418207,86
83,test,1,con,1,m,Fri Mar 13 2026 09:43:23 GMT-0500 (Central Daylight Time),424224.60000014305,remote,800,O,m,m,None,1011,812.0,199.0,113,1,2341.600000143051,421883.0,7739,remote,AF,A,419740,419740,418215,419024,418215,420557,419540,419540,420557,87
84,test,1,con,1,z,Fri Mar 13 2026 09:43:23 GMT-0500 (Central Daylight Time),426906.2000000477,elated,900,O,z,z,None,1223,1023.0,200.0,2,1,2661.5999999046326,424244.60000014305,7739,elated,AF,A,422207,422207,420577,421490,420578,423238,422006,422006,423238,88
85,test,1,con,1,m,Fri Mar 13 2026 09:43:23 GMT-0500 (Central Daylight Time),430072.7000000477,film,1100,O,m,m,None,1529,1329.0,200.0,92,1,3159.9000000953674,426912.7999999523,7739,film,AF,A,425071,425071,423245,424355,423245,426405,424871,424871,426405,89
86,test,1,inc,1,m,Fri Mar 13 2026 09:43:23 GMT-0500 (Central Daylight Time),433087.60000014305,friend,1100,O,m,m,None,1351,1152.0,199.0,104,1,2995.300000190735,430092.2999999523,7739,jacket,AF,A,428253,428254,426424,427538,426425,429420,428053,428054,429420,90
87,test,1,inc,1,m,Fri Mar 13 2026 09:43:23 GMT-0500 (Central Daylight Time),435853.40000009537,friend,1100,O,m,m,None,1120,921.0,199.0,120,1,2760.100000143051,433093.2999999523,7739,remote,AF,A,431253,431253,429425,430536,429426,432185,431053,431053,432185,91
88,test,1,inc,1,m,Fri Mar 13 2026 09:43:23 GMT-0500 (Central Daylight Time),438002.7000000477,brutal,900,O,m,m,None,708,508.0,200.0,102,1,2143.5999999046326,435859.10000014305,7739,jacket,AF,A,433818,433818,432191,433102,432192,434335,433618,433618,434335,92
89,test,1,con,1,z,Fri Mar 13 2026 09:43:23 GMT-0500 (Central Daylight Time),440052.10000014305,kind,900,O,z,z,None,606,406.0,200.0,10,1,2044.2000000476837,438007.90000009537,7739,kind,AF,A,435968,435968,434340,435251,434340,436384,435768,435768,436384,93
90,test,1,inc,1,m,Fri Mar 13 2026 09:43:23 GMT-0500 (Central Daylight Time),442201.2000000477,rage,800,O,m,m,None,801,601.0,200.0,69,1,2143.5,440057.7000000477,7739,step,AF,A,437917,437917,436390,437201,436390,438533,437717,437717,438533,94
91,test,1,inc,1,m,Fri Mar 13 2026 09:43:23 GMT-0500 (Central Daylight Time),444484.60000014305,kind,900,O,m,m,None,849,649.0,200.0,86,1,2278.300000190735,442206.2999999523,7739,bell,AF,A,440166,440167,438538,439451,438539,440817,439966,439966,440817,95
92,test,1,con,1,m,Fri Mar 13 2026 09:43:23 GMT-0500 (Central Daylight Time),446733.7999999523,napkin,1000,O,m,m,None,689,489.0,200.0,107,1,2230.699999809265,444503.10000014305,7739,napkin,AF,A,442567,442567,440835,441850,440836,443066,442366,442366,443066,96
92,test,1,inc,0,z,Fri Mar 13 2026 09:43:23 GMT-0500 (Central Daylight Time),449099.10000014305,napkin,900,O,m,m,None,907,707.0,200.0,6,1,2346.2000000476837,446752.90000009537,7739,elated,AF,A,444715,444715,443085,443999,443086,445431,444515,444515,445431,97
93,test,1,inc,1,z,Fri Mar 13 2026 09:43:23 GMT-0500 (Central Daylight Time),451381.5,napkin,900,O,z,z,None,846,646.0,200.0,30,1,2276.5999999046326,449104.90000009537,7739,friend,AF,A,447064,447064,445437,446348,445437,447714,446864,446864,447714,98
94,test,1,con,1,z,Fri Mar 13 2026 09:43:23 GMT-0500 (Central Daylight Time),454363.90000009537,temper,900,O,z,z,None,1545,1330.0,215.0,58,1,2976.7999999523163,451387.10000014305,7739,temper,AF,A,449364,449364,447719,448632,447719,450696,449149,449149,450696,99
95,test,1,con,1,m,Fri Mar 13 2026 09:43:23 GMT-0500 (Central Daylight Time),456680.7000000477,bell,1000,O,m,m,None,778,578.0,200.0,83,1,2311.4000000953674,454369.2999999523,7739,bell,AF,A,452429,452429,450701,451713,450701,453013,452229,452229,453013,100
96,test,1,con,1,m,Fri Mar 13 2026 09:43:23 GMT-0500 (Central Daylight Time),459179.10000014305,jacket,1000,O,m,m,None,955,756.0,199.0,99,1,2485.600000143051,456693.5,7739,jacket,AF,A,454746,454746,453026,454029,453026,455511,454546,454546,455511,101
97,test,1,inc,1,m,Fri Mar 13 2026 09:43:23 GMT-0500 (Central Daylight Time),461578.2999999523,hate,1100,O,m,m,None,773,573.0,200.0,72,1,2393.7999999523163,459184.5,7739,step,AF,A,457329,457329,455516,456627,455517,457910,457128,457128,457910,102
98,test,1,inc,1,z,Fri Mar 13 2026 09:43:23 GMT-0500 (Central Daylight Time),463811.60000014305,step,800,O,z,z,None,891,692.0,199.0,21,1,2228.5,461583.10000014305,7739,love,AF,A,459444,459444,457915,458727,457915,460144,459245,459245,460143,103
99,test,1,inc,1,m,Fri Mar 13 2026 09:43:23 GMT-0500 (Central Daylight Time),466027.40000009537,love,1000,O,m,m,None,651,452.0,199.0,79,1,2198.100000143051,463829.2999999523,7739,rock,AF,A,461892,461892,460161,461177,460162,462360,461693,461693,462359,104
100,test,1,con,1,z,Fri Mar 13 2026 09:43:23 GMT-0500 (Central Daylight Time),468242.90000009537,brutal,1100,O,z,z,None,564,365.0,199.0,36,1,2196.7000000476837,466046.2000000477,7739,brutal,AF,A,464209,464209,462378,463492,462379,464575,464010,464010,464575,105
101,test,1,inc,1,m,Fri Mar 13 2026 09:43:23 GMT-0500 (Central Daylight Time),470325.7999999523,brutal,900,O,m,m,None,646,431.0,215.0,118,1,2075.399999856949,468250.40000009537,7739,remote,AF,A,466225,466225,464582,465492,464583,466658,466009,466009,466658,106
102,test,1,con,1,z,Fri Mar 13 2026 09:43:23 GMT-0500 (Central Daylight Time),473808.2999999523,brutal,1000,O,z,z,None,1919,1720.0,199.0,35,1,3464.0,470344.2999999523,7739,brutal,AF,A,468408,468408,466676,467692,466677,470140,468208,468208,470140,107
103,test,1,inc,1,z,Fri Mar 13 2026 09:43:23 GMT-0500 (Central Daylight Time),476623.7999999523,window,1100,O,z,z,None,1154,954.0,200.0,32,1,2794.0999999046326,473829.7000000477,7739,friend,AF,A,471990,471990,470162,471274,470163,472956,471790,471790,472956,108
104,test,1,inc,1,z,Fri Mar 13 2026 09:43:23 GMT-0500 (Central Daylight Time),479139.2999999523,window,1100,O,z,z,None,848,649.0,199.0,64,1,2494.399999856949,476644.90000009537,7739,temper,AF,A,474805,474806,472977,474090,472978,475471,474606,474606,475471,109
105,test,1,con,1,z,Fri Mar 13 2026 09:43:23 GMT-0500 (Central Daylight Time),481788.2000000477,kind,1100,O,z,z,None,1013,813.0,200.0,12,1,2637.5,479150.7000000477,7739,kind,AF,A,477305,477305,475483,476589,475483,478120,477105,477105,478120,110
106,test,1,inc,1,z,Fri Mar 13 2026 09:43:23 GMT-0500 (Central Daylight Time),484220.90000009537,bell,1000,O,z,z,None,889,689.0,200.0,55,1,2427.100000143051,481793.7999999523,7739,rage,AF,A,479854,479854,478126,479138,478126,480553,479654,479654,480553,111
107,test,1,con,1,z,Fri Mar 13 2026 09:43:23 GMT-0500 (Central Daylight Time),486221.0,love,900,O,z,z,None,564,365.0,199.0,18,1,1993.7000000476837,484227.2999999523,7739,love,AF,A,482187,482187,480559,481471,480560,482553,481987,481987,482553,112
108,test,1,con,1,m,Fri Mar 13 2026 09:43:23 GMT-0500 (Central Daylight Time),488753.5,step,800,O,m,m,None,1184,969.0,215.0,65,1,2511.899999856949,486241.60000014305,7739,step,AF,A,484103,484103,482574,483385,482574,485086,483886,483887,485086,113
109,test,1,inc,1,m,Fri Mar 13 2026 09:43:23 GMT-0500 (Central Daylight Time),491086.0,love,1000,O,m,m,None,774,573.0,201.0,87,1,2311.5999999046326,488774.40000009537,7739,bell,AF,A,486835,486835,485106,486119,485107,487418,486634,486634,487418,114
110,test,1,con,1,z,Fri Mar 13 2026 09:43:23 GMT-0500 (Central Daylight Time),493351.90000009537,rage,800,O,z,z,None,903,704.0,199.0,49,1,2246.600000143051,491105.2999999523,7739,rage,AF,A,488968,488968,487437,488251,487438,489684,488768,488768,489684,115
111,test,1,con,1,m,Fri Mar 13 2026 09:43:23 GMT-0500 (Central Daylight Time),495551.0,jacket,1100,O,m,m,None,546,347.0,199.0,100,1,2180.2999999523163,493370.7000000477,7739,jacket,AF,A,491533,491533,489703,490817,489704,491883,491334,491334,491883,116
112,test,1,inc,1,z,Fri Mar 13 2026 09:43:23 GMT-0500 (Central Daylight Time),497933.7000000477,rock,900,O,z,z,None,922,723.0,199.0,22,1,2365.4000000953674,495568.2999999523,7739,love,AF,A,493533,493533,491900,492817,491901,494266,493333,493334,494266,117
113,test,1,inc,1,m,Fri Mar 13 2026 09:43:23 GMT-0500 (Central Daylight Time),500066.40000009537,elated,800,O,m,m,None,768,553.0,215.0,125,1,2114.7000000476837,497951.7000000477,7739,window,AF,A,495831,495831,494284,495099,494285,496399,495616,495616,496398,118
114,test,1,con,1,m,Fri Mar 13 2026 09:43:23 GMT-0500 (Central Daylight Time),502949.0,remote,1100,O,m,m,None,1232,1032.0,200.0,116,1,2863.7999999523163,500085.2000000477,7739,remote,AF,A,498249,498249,496417,497532,496418,499281,498048,498048,499281,119
115,test,1,con,1,m,Fri Mar 13 2026 09:43:23 GMT-0500 (Central Daylight Time),505265.10000014305,rock,1000,O,m,m,None,753,554.0,199.0,75,1,2296.9000000953674,502968.2000000477,7739,rock,AF,A,501030,501030,499300,500314,499301,501597,500831,500831,501597,120
116,test,1,con,1,z,Fri Mar 13 2026 09:43:23 GMT-0500 (Central Daylight Time),507413.60000014305,friend,1000,O,z,z,None,596,397.0,199.0,27,1,2128.300000190735,505285.2999999523,7739,friend,AF,A,503346,503347,501617,502630,501618,503746,503147,503147,503746,121
117,test,1,inc,1,z,Fri Mar 13 2026 09:43:23 GMT-0500 (Central Daylight Time),509795.7000000477,jacket,800,O,z,z,None,1022,823.0,199.0,5,1,2362.2000000476837,507433.5,7739,elated,AF,A,505295,505295,503766,504579,503766,506128,505096,505096,506128,122
118,test,1,con,1,z,Fri Mar 13 2026 09:43:23 GMT-0500 (Central Daylight Time),512595.40000009537,brutal,900,O,z,z,None,1359,1159.0,200.0,34,1,2794.4000000953674,509801.0,7739,brutal,AF,A,507761,507761,506133,507044,506133,508928,507561,507561,508927,123
119,test,1,inc,1,z,Fri Mar 13 2026 09:43:23 GMT-0500 (Central Daylight Time),515211.40000009537,napkin,900,O,z,z,None,1150,950.0,200.0,38,1,2597.100000143051,512614.2999999523,7739,brutal,AF,A,510577,510578,508946,509861,508947,511544,510377,510377,511543,124
120,test,1,inc,1,z,Fri Mar 13 2026 09:43:23 GMT-0500 (Central Daylight Time),517660.40000009537,rock,900,O,z,z,None,983,783.0,200.0,46,1,2428.100000143051,515232.2999999523,7739,hate,AF,A,513193,513193,511564,512476,511565,513993,512993,512993,513992,125
121,test,1,inc,1,z,Fri Mar 13 2026 09:43:23 GMT-0500 (Central Daylight Time),519793.2000000477,step,800,O,z,z,None,776,577.0,199.0,45,1,2114.0999999046326,517679.10000014305,7739,hate,AF,A,515543,515543,514011,514826,514012,516125,515343,515343,516125,126
122,test,1,con,1,z,Fri Mar 13 2026 09:43:23 GMT-0500 (Central Daylight Time),522075.7999999523,love,800,O,z,z,None,924,709.0,215.0,17,1,2264.199999809265,519811.60000014305,7739,love,AF,A,517691,517691,516144,516959,516146,518408,517475,517476,518408,127
123,test,1,inc,1,m,Fri Mar 13 2026 09:43:23 GMT-0500 (Central Daylight Time),524708.2999999523,brutal,900,O,m,m,None,1182,983.0,199.0,110,1,2614.2999999523163,522094.0,7739,napkin,AF,A,520041,520041,518426,519340,518427,521040,519841,519841,521040,128
