acc_sum,block,block_c,change,condition,correct,correct_response,datetime,endtime,face,project,response,response_time,row_sel,session_number,start_end,starttime,subject_id,task,task_vers,trial
0,prac,1,,1-Back,,,Wed Feb 11 2026 13:20:34 GMT-0500 (Eastern Standard Time),,097_m_f_n_a.png,I,space,5992,1,1,,,9056,NNB,B,0
1,prac,1,0.0,1-Back,1.0,m,Wed Feb 11 2026 13:20:34 GMT-0500 (Eastern Standard Time),117231.5,152_y_f_n_a.png,I,m,934,2,1,1848.1999998092651,115383.30000019073,9056,NNB,B,1
1,prac,1,1.0,1-Back,0.0,z,Wed Feb 11 2026 13:20:34 GMT-0500 (Eastern Standard Time),120014.5,152_y_f_n_a.png,I,None,2004,3,1,2770.5,117244.0,9056,NNB,B,2
2,prac,1,0.0,1-Back,1.0,m,Wed Feb 11 2026 13:20:34 GMT-0500 (Eastern Standard Time),122814.69999980927,176_o_m_n_a.png,I,m,1857,4,1,2783.800000190735,120030.89999961853,9056,NNB,B,3
3,prac,1,0.0,1-Back,1.0,m,Wed Feb 11 2026 13:20:34 GMT-0500 (Eastern Standard Time),124814.80000019073,126_m_m_n_a.png,I,m,1206,5,1,1984.1000003814697,122830.69999980927,9056,NNB,B,4
4,prac,1,1.0,1-Back,1.0,z,Wed Feb 11 2026 13:20:34 GMT-0500 (Eastern Standard Time),126398.0,126_m_m_n_a.png,I,z,788,6,1,1565.9000005722046,124832.0999994278,9056,NNB,B,5
5,prac,1,0.0,1-Back,1.0,m,Wed Feb 11 2026 13:20:34 GMT-0500 (Eastern Standard Time),128281.39999961853,086_o_f_n_a.png,I,m,1098,7,1,1870.8000001907349,126410.5999994278,9056,NNB,B,6
6,prac,1,0.0,1-Back,1.0,m,Wed Feb 11 2026 13:20:34 GMT-0500 (Eastern Standard Time),130464.69999980927,178_m_m_n_a.png,I,m,1251,8,1,2172.300000190735,128292.39999961853,9056,NNB,B,7
7,prac,1,0.0,1-Back,1.0,m,Wed Feb 11 2026 13:20:34 GMT-0500 (Eastern Standard Time),132214.69999980927,097_m_f_n_a.png,I,m,967,9,1,1737.5,130477.19999980927,9056,NNB,B,8
8,prac,1,1.0,1-Back,1.0,z,Wed Feb 11 2026 13:20:34 GMT-0500 (Eastern Standard Time),133848.0,097_m_f_n_a.png,I,z,852,10,1,1623.1000003814697,132224.89999961853,9056,NNB,B,9
9,prac,1,0.0,1-Back,1.0,m,Wed Feb 11 2026 13:20:34 GMT-0500 (Eastern Standard Time),135548.0999994278,176_o_m_n_a.png,I,m,912,11,1,1687.5,133860.5999994278,9056,NNB,B,10
10,prac,1,0.0,1-Back,1.0,m,Wed Feb 11 2026 13:20:34 GMT-0500 (Eastern Standard Time),137681.5,173_y_f_n_a.png,I,m,1202,12,1,2120.1000003814697,135561.39999961853,9056,NNB,B,11
0,test,1,0.0,1-Back,,,Wed Feb 11 2026 13:20:34 GMT-0500 (Eastern Standard Time),137681.5,152_y_f_n_a.png,I,space,13710,1,1,2120.1000003814697,135561.39999961853,9056,NNB,B,0
1,test,1,0.0,1-Back,1.0,m,Wed Feb 11 2026 13:20:34 GMT-0500 (Eastern Standard Time),164131.30000019073,029_m_f_n_a.png,I,m,802,2,1,1823.5,162307.80000019073,9056,NNB,B,1
2,test,1,0.0,1-Back,1.0,m,Wed Feb 11 2026 13:20:34 GMT-0500 (Eastern Standard Time),165964.5999994278,173_y_f_n_a.png,I,m,808,3,1,1824.5,164140.0999994278,9056,NNB,B,2
3,test,1,1.0,1-Back,1.0,z,Wed Feb 11 2026 13:20:34 GMT-0500 (Eastern Standard Time),167714.5999994278,173_y_f_n_a.png,I,z,720,4,1,1739.3999996185303,165975.19999980927,9056,NNB,B,3
4,test,1,0.0,1-Back,1.0,m,Wed Feb 11 2026 13:20:34 GMT-0500 (Eastern Standard Time),169497.80000019073,029_m_f_n_a.png,I,m,761,5,1,1772.9000005722046,167724.89999961853,9056,NNB,B,4
5,test,1,0.0,1-Back,1.0,m,Wed Feb 11 2026 13:20:34 GMT-0500 (Eastern Standard Time),171314.5,176_o_m_n_a.png,I,m,786,6,1,1807.9000005722046,169506.5999994278,9056,NNB,B,5
6,test,1,1.0,1-Back,1.0,z,Wed Feb 11 2026 13:20:34 GMT-0500 (Eastern Standard Time),173114.5,176_o_m_n_a.png,I,z,777,7,1,1792.6999998092651,171321.80000019073,9056,NNB,B,6
7,test,1,0.0,1-Back,1.0,m,Wed Feb 11 2026 13:20:34 GMT-0500 (Eastern Standard Time),174981.30000019073,126_m_m_n_a.png,I,m,833,8,1,1855.6000003814697,173125.69999980927,9056,NNB,B,7
8,test,1,0.0,1-Back,1.0,m,Wed Feb 11 2026 13:20:34 GMT-0500 (Eastern Standard Time),176947.89999961853,086_o_f_n_a.png,I,m,934,9,1,1955.8000001907349,174992.0999994278,9056,NNB,B,8
9,test,1,0.0,1-Back,1.0,m,Wed Feb 11 2026 13:20:34 GMT-0500 (Eastern Standard Time),178814.5999994278,126_m_m_n_a.png,I,m,840,10,1,1857.7999992370605,176956.80000019073,9056,NNB,B,9
10,test,1,0.0,1-Back,1.0,m,Wed Feb 11 2026 13:20:34 GMT-0500 (Eastern Standard Time),180614.19999980927,153_y_m_n_a.png,I,m,781,11,1,1789.6000003814697,178824.5999994278,9056,NNB,B,10
11,test,1,1.0,1-Back,1.0,z,Wed Feb 11 2026 13:20:34 GMT-0500 (Eastern Standard Time),182414.39999961853,153_y_m_n_a.png,I,z,774,12,1,1792.0,180622.39999961853,9056,NNB,B,11
12,test,1,0.0,1-Back,1.0,m,Wed Feb 11 2026 13:20:34 GMT-0500 (Eastern Standard Time),184314.5,110_o_f_n_a.png,I,m,877,13,1,1890.4000005722046,182424.0999994278,9056,NNB,B,12
13,test,1,1.0,1-Back,1.0,z,Wed Feb 11 2026 13:20:34 GMT-0500 (Eastern Standard Time),186397.80000019073,110_o_f_n_a.png,I,z,1057,14,1,2072.300000190735,184325.5,9056,NNB,B,13
14,test,1,0.0,1-Back,1.0,m,Wed Feb 11 2026 13:20:34 GMT-0500 (Eastern Standard Time),188314.5,013_y_m_n_a.png,I,m,894,15,1,1907.6000003814697,186406.89999961853,9056,NNB,B,14
15,test,1,0.0,1-Back,1.0,m,Wed Feb 11 2026 13:20:34 GMT-0500 (Eastern Standard Time),190181.0999994278,097_m_f_n_a.png,I,m,833,16,1,1857.1999998092651,188323.89999961853,9056,NNB,B,15
16,test,1,0.0,1-Back,1.0,m,Wed Feb 11 2026 13:20:34 GMT-0500 (Eastern Standard Time),192180.5,065_o_m_n_a.png,I,m,965,17,1,1990.3000001907349,190190.19999980927,9056,NNB,B,16
17,test,1,0.0,1-Back,1.0,m,Wed Feb 11 2026 13:20:34 GMT-0500 (Eastern Standard Time),194147.80000019073,097_m_f_n_a.png,I,m,935,18,1,1962.9000005722046,192184.89999961853,9056,NNB,B,17
0,test,2,0.0,1-Back,,,Wed Feb 11 2026 13:20:34 GMT-0500 (Eastern Standard Time),194147.80000019073,126_m_m_n_a.png,I,space,2591,1,1,1962.9000005722046,192184.89999961853,9056,NNB,B,0
1,test,2,0.0,1-Back,1.0,m,Wed Feb 11 2026 13:20:34 GMT-0500 (Eastern Standard Time),200681.0,029_m_f_n_a.png,I,m,895,2,1,1905.1000003814697,198775.89999961853,9056,NNB,B,1
1,test,2,1.0,1-Back,0.0,z,Wed Feb 11 2026 13:20:34 GMT-0500 (Eastern Standard Time),202814.5,029_m_f_n_a.png,I,m,1106,3,1,2124.199999809265,200690.30000019073,9056,NNB,B,2
2,test,2,0.0,1-Back,1.0,m,Wed Feb 11 2026 13:20:34 GMT-0500 (Eastern Standard Time),204747.89999961853,126_m_m_n_a.png,I,m,910,4,1,1925.5,202822.39999961853,9056,NNB,B,3
3,test,2,0.0,1-Back,1.0,m,Wed Feb 11 2026 13:20:34 GMT-0500 (Eastern Standard Time),206547.80000019073,153_y_m_n_a.png,I,m,768,5,1,1790.5,204757.30000019073,9056,NNB,B,4
4,test,2,0.0,1-Back,1.0,m,Wed Feb 11 2026 13:20:34 GMT-0500 (Eastern Standard Time),208347.80000019073,152_y_f_n_a.png,I,m,776,6,1,1792.1000003814697,206555.69999980927,9056,NNB,B,5
5,test,2,1.0,1-Back,1.0,z,Wed Feb 11 2026 13:20:34 GMT-0500 (Eastern Standard Time),209997.80000019073,152_y_f_n_a.png,I,z,624,7,1,1640.1000003814697,208357.69999980927,9056,NNB,B,6
6,test,2,0.0,1-Back,1.0,m,Wed Feb 11 2026 13:20:34 GMT-0500 (Eastern Standard Time),211664.5,153_y_m_n_a.png,I,m,638,8,1,1659.0,210005.5,9056,NNB,B,7
7,test,2,0.0,1-Back,1.0,m,Wed Feb 11 2026 13:20:34 GMT-0500 (Eastern Standard Time),213381.39999961853,110_o_f_n_a.png,I,m,699,9,1,1708.0999994277954,211673.30000019073,9056,NNB,B,8
8,test,2,0.0,1-Back,1.0,m,Wed Feb 11 2026 13:20:34 GMT-0500 (Eastern Standard Time),215097.80000019073,178_m_m_n_a.png,I,m,695,10,1,1708.9000005722046,213388.89999961853,9056,NNB,B,9
9,test,2,1.0,1-Back,1.0,z,Wed Feb 11 2026 13:20:34 GMT-0500 (Eastern Standard Time),216897.80000019073,178_m_m_n_a.png,I,z,770,11,1,1791.1000003814697,215106.69999980927,9056,NNB,B,10
10,test,2,0.0,1-Back,1.0,m,Wed Feb 11 2026 13:20:34 GMT-0500 (Eastern Standard Time),218597.89999961853,110_o_f_n_a.png,I,m,682,12,1,1687.8999996185303,216910.0,9056,NNB,B,11
11,test,2,0.0,1-Back,1.0,m,Wed Feb 11 2026 13:20:34 GMT-0500 (Eastern Standard Time),220464.5,086_o_f_n_a.png,I,m,838,13,1,1857.6000003814697,218606.89999961853,9056,NNB,B,12
12,test,2,0.0,1-Back,1.0,m,Wed Feb 11 2026 13:20:34 GMT-0500 (Eastern Standard Time),222481.19999980927,176_o_m_n_a.png,I,m,987,14,1,2007.3999996185303,220473.80000019073,9056,NNB,B,13
13,test,2,0.0,1-Back,1.0,m,Wed Feb 11 2026 13:20:34 GMT-0500 (Eastern Standard Time),224447.89999961853,065_o_m_n_a.png,I,m,938,15,1,1958.0999994277954,222489.80000019073,9056,NNB,B,14
14,test,2,1.0,1-Back,1.0,z,Wed Feb 11 2026 13:20:34 GMT-0500 (Eastern Standard Time),226214.30000019073,065_o_m_n_a.png,I,z,749,16,1,1758.8000001907349,224455.5,9056,NNB,B,15
15,test,2,0.0,1-Back,1.0,m,Wed Feb 11 2026 13:20:34 GMT-0500 (Eastern Standard Time),228014.39999961853,013_y_m_n_a.png,I,m,773,17,1,1792.5999994277954,226221.80000019073,9056,NNB,B,16
16,test,2,1.0,1-Back,1.0,z,Wed Feb 11 2026 13:20:34 GMT-0500 (Eastern Standard Time),229914.5,013_y_m_n_a.png,I,z,877,18,1,1890.9000005722046,228023.5999994278,9056,NNB,B,17
0,test,3,1.0,1-Back,,,Wed Feb 11 2026 13:20:34 GMT-0500 (Eastern Standard Time),229914.5,173_y_f_n_a.png,I,space,4177,1,1,1890.9000005722046,228023.5999994278,9056,NNB,B,0
1,test,3,0.0,1-Back,1.0,m,Wed Feb 11 2026 13:20:34 GMT-0500 (Eastern Standard Time),238131.0999994278,065_o_m_n_a.png,I,m,835,1,1,1868.1999998092651,236262.89999961853,9056,NNB,B,1
1,test,3,1.0,1-Back,0.0,z,Wed Feb 11 2026 13:20:34 GMT-0500 (Eastern Standard Time),240147.69999980927,065_o_m_n_a.png,I,m,985,1,1,2007.3999996185303,238140.30000019073,9056,NNB,B,2
2,test,3,0.0,1-Back,1.0,m,Wed Feb 11 2026 13:20:34 GMT-0500 (Eastern Standard Time),242097.80000019073,097_m_f_n_a.png,I,m,920,1,1,1941.5,240156.30000019073,9056,NNB,B,3
3,test,3,1.0,1-Back,1.0,z,Wed Feb 11 2026 13:20:34 GMT-0500 (Eastern Standard Time),243931.19999980927,097_m_f_n_a.png,I,z,810,1,1,1825.6999998092651,242105.5,9056,NNB,B,4
4,test,3,0.0,1-Back,1.0,m,Wed Feb 11 2026 13:20:34 GMT-0500 (Eastern Standard Time),245531.0999994278,110_o_f_n_a.png,I,m,576,1,1,1591.2999992370605,243939.80000019073,9056,NNB,B,5
5,test,3,0.0,1-Back,1.0,m,Wed Feb 11 2026 13:20:34 GMT-0500 (Eastern Standard Time),247397.80000019073,153_y_m_n_a.png,I,m,848,1,1,1858.5,245539.30000019073,9056,NNB,B,6
6,test,3,0.0,1-Back,1.0,m,Wed Feb 11 2026 13:20:34 GMT-0500 (Eastern Standard Time),249464.39999961853,110_o_f_n_a.png,I,m,1046,1,1,2059.0999994277954,247405.30000019073,9056,NNB,B,7
7,test,3,0.0,1-Back,1.0,m,Wed Feb 11 2026 13:20:34 GMT-0500 (Eastern Standard Time),251331.0,013_y_m_n_a.png,I,m,835,1,1,1857.4000005722046,249473.5999994278,9056,NNB,B,8
8,test,3,1.0,1-Back,1.0,z,Wed Feb 11 2026 13:20:34 GMT-0500 (Eastern Standard Time),253064.39999961853,013_y_m_n_a.png,I,z,713,1,1,1724.0999994277954,251340.30000019073,9056,NNB,B,9
9,test,3,0.0,1-Back,1.0,m,Wed Feb 11 2026 13:20:34 GMT-0500 (Eastern Standard Time),254897.80000019073,029_m_f_n_a.png,I,m,803,1,1,1819.5,253078.30000019073,9056,NNB,B,10
10,test,3,0.0,1-Back,1.0,m,Wed Feb 11 2026 13:20:34 GMT-0500 (Eastern Standard Time),256681.0999994278,152_y_f_n_a.png,I,m,762,1,1,1773.8999996185303,254907.19999980927,9056,NNB,B,11
10,test,3,1.0,1-Back,0.0,z,Wed Feb 11 2026 13:20:34 GMT-0500 (Eastern Standard Time),258664.39999961853,152_y_f_n_a.png,I,m,963,1,1,1973.5999994277954,256690.80000019073,9056,NNB,B,12
11,test,3,0.0,1-Back,1.0,m,Wed Feb 11 2026 13:20:34 GMT-0500 (Eastern Standard Time),260364.39999961853,029_m_f_n_a.png,I,m,677,1,1,1690.8999996185303,258673.5,9056,NNB,B,13
12,test,3,0.0,1-Back,1.0,m,Wed Feb 11 2026 13:20:34 GMT-0500 (Eastern Standard Time),262114.39999961853,126_m_m_n_a.png,I,m,719,1,1,1742.0999994277954,260372.30000019073,9056,NNB,B,14
13,test,3,1.0,1-Back,1.0,z,Wed Feb 11 2026 13:20:34 GMT-0500 (Eastern Standard Time),263764.39999961853,126_m_m_n_a.png,I,z,617,1,1,1640.3999996185303,262124.0,9056,NNB,B,15
14,test,3,0.0,1-Back,1.0,m,Wed Feb 11 2026 13:20:34 GMT-0500 (Eastern Standard Time),265447.5,086_o_f_n_a.png,I,m,663,1,1,1675.0,263772.5,9056,NNB,B,16
15,test,3,1.0,1-Back,1.0,z,Wed Feb 11 2026 13:20:34 GMT-0500 (Eastern Standard Time),267947.69999980927,086_o_f_n_a.png,I,z,1476,1,1,2491.5,265456.19999980927,9056,NNB,B,17
0,test,4,1.0,1-Back,,,Wed Feb 11 2026 13:20:34 GMT-0500 (Eastern Standard Time),267947.69999980927,097_m_f_n_a.png,I,space,1880,1,1,2491.5,265456.19999980927,9056,NNB,B,0
1,test,4,0.0,1-Back,1.0,m,Wed Feb 11 2026 13:20:34 GMT-0500 (Eastern Standard Time),273798.0999994278,065_o_m_n_a.png,I,m,800,2,1,1805.0,271993.0999994278,9056,NNB,B,1
2,test,4,0.0,1-Back,1.0,m,Wed Feb 11 2026 13:20:34 GMT-0500 (Eastern Standard Time),275447.5,097_m_f_n_a.png,I,m,630,3,1,1641.6999998092651,273805.80000019073,9056,NNB,B,2
3,test,4,0.0,1-Back,1.0,m,Wed Feb 11 2026 13:20:34 GMT-0500 (Eastern Standard Time),277064.39999961853,110_o_f_n_a.png,I,m,596,4,1,1609.1999998092651,275455.19999980927,9056,NNB,B,3
4,test,4,1.0,1-Back,1.0,z,Wed Feb 11 2026 13:20:34 GMT-0500 (Eastern Standard Time),278814.39999961853,110_o_f_n_a.png,I,z,723,5,1,1740.8000001907349,277073.5999994278,9056,NNB,B,4
5,test,4,0.0,1-Back,1.0,m,Wed Feb 11 2026 13:20:34 GMT-0500 (Eastern Standard Time),280464.39999961853,152_y_f_n_a.png,I,m,621,6,1,1641.0999994277954,278823.30000019073,9056,NNB,B,5
6,test,4,0.0,1-Back,1.0,m,Wed Feb 11 2026 13:20:34 GMT-0500 (Eastern Standard Time),282081.0999994278,153_y_m_n_a.png,I,m,587,7,1,1607.5999994277954,280473.5,9056,NNB,B,6
7,test,4,1.0,1-Back,1.0,z,Wed Feb 11 2026 13:20:34 GMT-0500 (Eastern Standard Time),283797.80000019073,153_y_m_n_a.png,I,z,683,8,1,1708.2000007629395,282089.5999994278,9056,NNB,B,7
8,test,4,0.0,1-Back,1.0,m,Wed Feb 11 2026 13:20:34 GMT-0500 (Eastern Standard Time),285430.80000019073,152_y_f_n_a.png,I,m,614,9,1,1624.3000001907349,283806.5,9056,NNB,B,8
9,test,4,0.0,1-Back,1.0,m,Wed Feb 11 2026 13:20:34 GMT-0500 (Eastern Standard Time),287164.39999961853,178_m_m_n_a.png,I,m,708,10,1,1722.1999998092651,285442.19999980927,9056,NNB,B,9
10,test,4,1.0,1-Back,1.0,z,Wed Feb 11 2026 13:20:34 GMT-0500 (Eastern Standard Time),289081.0,178_m_m_n_a.png,I,z,895,11,1,1909.0,287172.0,9056,NNB,B,10
11,test,4,0.0,1-Back,1.0,m,Wed Feb 11 2026 13:20:34 GMT-0500 (Eastern Standard Time),290697.69999980927,086_o_f_n_a.png,I,m,594,12,1,1608.1000003814697,289089.5999994278,9056,NNB,B,11
12,test,4,0.0,1-Back,1.0,m,Wed Feb 11 2026 13:20:34 GMT-0500 (Eastern Standard Time),292230.80000019073,176_o_m_n_a.png,I,m,514,13,1,1524.4000005722046,290706.39999961853,9056,NNB,B,12
13,test,4,0.0,1-Back,1.0,m,Wed Feb 11 2026 13:20:34 GMT-0500 (Eastern Standard Time),294130.69999980927,086_o_f_n_a.png,I,m,868,14,1,1889.6999998092651,292241.0,9056,NNB,B,13
14,test,4,0.0,1-Back,1.0,m,Wed Feb 11 2026 13:20:34 GMT-0500 (Eastern Standard Time),295997.69999980927,173_y_f_n_a.png,I,m,840,15,1,1863.1000003814697,294134.5999994278,9056,NNB,B,14
15,test,4,1.0,1-Back,1.0,z,Wed Feb 11 2026 13:20:34 GMT-0500 (Eastern Standard Time),297681.0,173_y_f_n_a.png,I,z,654,16,1,1674.9000005722046,296006.0999994278,9056,NNB,B,15
16,test,4,0.0,1-Back,1.0,m,Wed Feb 11 2026 13:20:34 GMT-0500 (Eastern Standard Time),299314.30000019073,029_m_f_n_a.png,I,m,602,17,1,1624.9000005722046,297689.39999961853,9056,NNB,B,16
17,test,4,1.0,1-Back,1.0,z,Wed Feb 11 2026 13:20:34 GMT-0500 (Eastern Standard Time),301015.19999980927,029_m_f_n_a.png,I,z,681,18,1,1691.6999998092651,299323.5,9056,NNB,B,17
0,test,5,1.0,1-Back,,,Wed Feb 11 2026 13:20:34 GMT-0500 (Eastern Standard Time),301015.19999980927,176_o_m_n_a.png,I,space,2628,1,1,1691.6999998092651,299323.5,9056,NNB,B,0
0,test,5,1.0,1-Back,0.0,z,Wed Feb 11 2026 13:20:34 GMT-0500 (Eastern Standard Time),307397.69999980927,176_o_m_n_a.png,I,m,699,2,1,1722.8000001907349,305674.89999961853,9056,NNB,B,1
0,test,5,0.0,1-Back,0.0,m,Wed Feb 11 2026 13:20:34 GMT-0500 (Eastern Standard Time),310431.0999994278,152_y_f_n_a.png,I,None,2016,3,1,3024.5999994277954,307406.5,9056,NNB,B,2
1,test,5,0.0,1-Back,1.0,m,Wed Feb 11 2026 13:20:34 GMT-0500 (Eastern Standard Time),312597.5999994278,153_y_m_n_a.png,I,m,1149,4,1,2157.0,310440.5999994278,9056,NNB,B,3
2,test,5,0.0,1-Back,1.0,m,Wed Feb 11 2026 13:20:34 GMT-0500 (Eastern Standard Time),314447.5999994278,152_y_f_n_a.png,I,m,822,5,1,1843.7999992370605,312603.80000019073,9056,NNB,B,4
3,test,5,0.0,1-Back,1.0,m,Wed Feb 11 2026 13:20:34 GMT-0500 (Eastern Standard Time),316214.0999994278,126_m_m_n_a.png,I,m,748,6,1,1755.6999998092651,314458.39999961853,9056,NNB,B,5
4,test,5,1.0,1-Back,1.0,z,Wed Feb 11 2026 13:20:34 GMT-0500 (Eastern Standard Time),317947.80000019073,126_m_m_n_a.png,I,z,710,7,1,1726.6000003814697,316221.19999980927,9056,NNB,B,6
5,test,5,0.0,1-Back,1.0,m,Wed Feb 11 2026 13:20:34 GMT-0500 (Eastern Standard Time),319681.0,173_y_f_n_a.png,I,m,704,8,1,1724.9000005722046,317956.0999994278,9056,NNB,B,7
6,test,5,0.0,1-Back,1.0,m,Wed Feb 11 2026 13:20:34 GMT-0500 (Eastern Standard Time),321514.30000019073,013_y_m_n_a.png,I,m,810,9,1,1825.4000005722046,319688.89999961853,9056,NNB,B,8
7,test,5,0.0,1-Back,1.0,m,Wed Feb 11 2026 13:20:34 GMT-0500 (Eastern Standard Time),323297.80000019073,173_y_f_n_a.png,I,m,753,10,1,1775.4000005722046,321522.39999961853,9056,NNB,B,9
8,test,5,0.0,1-Back,1.0,m,Wed Feb 11 2026 13:20:34 GMT-0500 (Eastern Standard Time),324997.69999980927,086_o_f_n_a.png,I,m,666,11,1,1690.8999996185303,323306.80000019073,9056,NNB,B,10
9,test,5,1.0,1-Back,1.0,z,Wed Feb 11 2026 13:20:34 GMT-0500 (Eastern Standard Time),326697.69999980927,086_o_f_n_a.png,I,z,678,12,1,1692.1999998092651,325005.5,9056,NNB,B,11
10,test,5,0.0,1-Back,1.0,m,Wed Feb 11 2026 13:20:34 GMT-0500 (Eastern Standard Time),328397.5999994278,065_o_m_n_a.png,I,m,674,13,1,1690.6999998092651,326706.89999961853,9056,NNB,B,12
11,test,5,0.0,1-Back,1.0,m,Wed Feb 11 2026 13:20:34 GMT-0500 (Eastern Standard Time),330114.39999961853,097_m_f_n_a.png,I,m,685,14,1,1708.0,328406.39999961853,9056,NNB,B,13
12,test,5,1.0,1-Back,1.0,z,Wed Feb 11 2026 13:20:34 GMT-0500 (Eastern Standard Time),332230.69999980927,097_m_f_n_a.png,I,z,1097,15,1,2107.3999996185303,330123.30000019073,9056,NNB,B,14
13,test,5,0.0,1-Back,1.0,m,Wed Feb 11 2026 13:20:34 GMT-0500 (Eastern Standard Time),333914.39999961853,065_o_m_n_a.png,I,m,661,16,1,1675.3999996185303,332239.0,9056,NNB,B,15
14,test,5,0.0,1-Back,1.0,m,Wed Feb 11 2026 13:20:34 GMT-0500 (Eastern Standard Time),335631.0999994278,029_m_f_n_a.png,I,m,689,17,1,1707.8999996185303,333923.19999980927,9056,NNB,B,16
15,test,5,0.0,1-Back,1.0,m,Wed Feb 11 2026 13:20:34 GMT-0500 (Eastern Standard Time),337330.89999961853,178_m_m_n_a.png,I,m,668,18,1,1691.8999996185303,335639.0,9056,NNB,B,17
0,prac,1,0.0,2-Back,,,Wed Feb 11 2026 13:20:34 GMT-0500 (Eastern Standard Time),337330.89999961853,013_y_m_n_a.png,I,space,8090,1,1,1691.8999996185303,335639.0,9056,NNB,B,0
0,prac,1,0.0,2-Back,,,Wed Feb 11 2026 13:20:34 GMT-0500 (Eastern Standard Time),337330.89999961853,029_m_f_n_a.png,I,space,8090,2,1,1691.8999996185303,335639.0,9056,NNB,B,0
1,prac,1,1.0,2-Back,1.0,m,Wed Feb 11 2026 13:20:34 GMT-0500 (Eastern Standard Time),442030.5,065_o_m_n_a.png,I,m,1565,3,1,2490.1000003814697,439540.39999961853,9056,NNB,B,1
2,prac,1,0.0,2-Back,1.0,m,Wed Feb 11 2026 13:20:34 GMT-0500 (Eastern Standard Time),444331.0,086_o_f_n_a.png,I,m,1356,4,1,2292.0,442039.0,9056,NNB,B,2
3,prac,1,0.0,2-Back,1.0,z,Wed Feb 11 2026 13:20:34 GMT-0500 (Eastern Standard Time),446031.0,065_o_m_n_a.png,I,z,910,5,1,1688.0,444343.0,9056,NNB,B,3
4,prac,1,1.0,2-Back,1.0,z,Wed Feb 11 2026 13:20:34 GMT-0500 (Eastern Standard Time),448447.5999994278,086_o_f_n_a.png,I,z,1623,6,1,2401.699999809265,446045.89999961853,9056,NNB,B,4
5,prac,1,0.0,2-Back,1.0,m,Wed Feb 11 2026 13:20:34 GMT-0500 (Eastern Standard Time),450447.5999994278,178_m_m_n_a.png,I,m,1064,7,1,1982.5999994277954,448465.0,9056,NNB,B,5
6,prac,1,0.0,2-Back,1.0,m,Wed Feb 11 2026 13:20:34 GMT-0500 (Eastern Standard Time),452564.30000019073,176_o_m_n_a.png,I,m,1177,8,1,2103.1000003814697,450461.19999980927,9056,NNB,B,6
7,prac,1,0.0,2-Back,1.0,m,Wed Feb 11 2026 13:20:34 GMT-0500 (Eastern Standard Time),454597.80000019073,173_y_f_n_a.png,I,m,1112,9,1,2017.3000001907349,452580.5,9056,NNB,B,7
8,prac,1,1.0,2-Back,1.0,z,Wed Feb 11 2026 13:20:34 GMT-0500 (Eastern Standard Time),456347.69999980927,176_o_m_n_a.png,I,z,961,10,1,1735.8999996185303,454611.80000019073,9056,NNB,B,8
9,prac,1,0.0,2-Back,1.0,m,Wed Feb 11 2026 13:20:34 GMT-0500 (Eastern Standard Time),458397.5999994278,152_y_f_n_a.png,I,m,1128,11,1,2038.7999992370605,456358.80000019073,9056,NNB,B,9
9,prac,1,0.0,2-Back,0.0,m,Wed Feb 11 2026 13:20:34 GMT-0500 (Eastern Standard Time),460314.19999980927,178_m_m_n_a.png,I,z,1133,12,1,1906.6999998092651,458407.5,9056,NNB,B,10
0,test,1,0.0,2-Back,,,Wed Feb 11 2026 13:20:34 GMT-0500 (Eastern Standard Time),460314.19999980927,153_y_m_n_a.png,I,space,11120,1,1,1906.6999998092651,458407.5,9056,NNB,B,0
0,test,1,0.0,2-Back,,,Wed Feb 11 2026 13:20:34 GMT-0500 (Eastern Standard Time),460314.19999980927,153_y_m_n_a.png,I,space,11120,2,1,1906.6999998092651,458407.5,9056,NNB,B,0
1,test,1,0.0,2-Back,1.0,m,Wed Feb 11 2026 13:20:34 GMT-0500 (Eastern Standard Time),487347.5999994278,086_o_f_n_a.png,I,m,1018,3,1,2041.0999994277954,485306.5,9056,NNB,B,1
2,test,1,0.0,2-Back,1.0,m,Wed Feb 11 2026 13:20:34 GMT-0500 (Eastern Standard Time),489314.30000019073,126_m_m_n_a.png,I,m,936,4,1,1957.2000007629395,487357.0999994278,9056,NNB,B,2
3,test,1,1.0,2-Back,1.0,z,Wed Feb 11 2026 13:20:34 GMT-0500 (Eastern Standard Time),491197.39999961853,086_o_f_n_a.png,I,z,858,5,1,1873.5999994277954,489323.80000019073,9056,NNB,B,3
4,test,1,0.0,2-Back,1.0,m,Wed Feb 11 2026 13:20:34 GMT-0500 (Eastern Standard Time),493113.5,152_y_f_n_a.png,I,m,893,6,1,1907.4000005722046,491206.0999994278,9056,NNB,B,4
4,test,1,0.0,2-Back,0.0,m,Wed Feb 11 2026 13:20:34 GMT-0500 (Eastern Standard Time),495114.0999994278,126_m_m_n_a.png,I,z,977,7,1,1995.8999996185303,493118.19999980927,9056,NNB,B,5
5,test,1,1.0,2-Back,1.0,z,Wed Feb 11 2026 13:20:34 GMT-0500 (Eastern Standard Time),497230.89999961853,152_y_f_n_a.png,I,z,1089,8,1,2108.800000190735,495122.0999994278,9056,NNB,B,6
6,test,1,0.0,2-Back,1.0,m,Wed Feb 11 2026 13:20:34 GMT-0500 (Eastern Standard Time),499214.19999980927,013_y_m_n_a.png,I,m,957,9,1,1974.6000003814697,497239.5999994278,9056,NNB,B,7
7,test,1,0.0,2-Back,1.0,m,Wed Feb 11 2026 13:20:34 GMT-0500 (Eastern Standard Time),501330.80000019073,110_o_f_n_a.png,I,m,1085,10,1,2107.9000005722046,499222.89999961853,9056,NNB,B,8
8,test,1,1.0,2-Back,1.0,z,Wed Feb 11 2026 13:20:34 GMT-0500 (Eastern Standard Time),503530.80000019073,013_y_m_n_a.png,I,z,1177,11,1,2191.6000003814697,501339.19999980927,9056,NNB,B,9
9,test,1,0.0,2-Back,1.0,m,Wed Feb 11 2026 13:20:34 GMT-0500 (Eastern Standard Time),505764.19999980927,029_m_f_n_a.png,I,m,1201,12,1,2223.3999996185303,503540.80000019073,9056,NNB,B,10
9,test,1,0.0,2-Back,0.0,m,Wed Feb 11 2026 13:20:34 GMT-0500 (Eastern Standard Time),508797.69999980927,029_m_f_n_a.png,I,None,2016,13,1,3024.3999996185303,505773.30000019073,9056,NNB,B,11
10,test,1,0.0,2-Back,1.0,m,Wed Feb 11 2026 13:20:34 GMT-0500 (Eastern Standard Time),510780.69999980927,065_o_m_n_a.png,I,m,958,14,1,1974.8000001907349,508805.89999961853,9056,NNB,B,12
11,test,1,0.0,2-Back,1.0,m,Wed Feb 11 2026 13:20:34 GMT-0500 (Eastern Standard Time),512914.19999980927,110_o_f_n_a.png,I,m,1103,15,1,2121.1000003814697,510793.0999994278,9056,NNB,B,13
12,test,1,1.0,2-Back,1.0,z,Wed Feb 11 2026 13:20:34 GMT-0500 (Eastern Standard Time),514997.5,065_o_m_n_a.png,I,z,1050,16,1,2074.5,512923.0,9056,NNB,B,14
13,test,1,0.0,2-Back,1.0,m,Wed Feb 11 2026 13:20:34 GMT-0500 (Eastern Standard Time),517064.0999994278,097_m_f_n_a.png,I,m,1046,17,1,2059.0999994277954,515005.0,9056,NNB,B,15
14,test,1,0.0,2-Back,1.0,m,Wed Feb 11 2026 13:20:34 GMT-0500 (Eastern Standard Time),519163.5,178_m_m_n_a.png,I,m,1075,18,1,2092.1000003814697,517071.39999961853,9056,NNB,B,16
0,test,2,0.0,2-Back,,,Wed Feb 11 2026 13:20:34 GMT-0500 (Eastern Standard Time),519163.5,178_m_m_n_a.png,I,space,2489,1,1,2092.1000003814697,517071.39999961853,9056,NNB,B,0
0,test,2,0.0,2-Back,,,Wed Feb 11 2026 13:20:34 GMT-0500 (Eastern Standard Time),519163.5,173_y_f_n_a.png,I,space,2489,2,1,2092.1000003814697,517071.39999961853,9056,NNB,B,0
1,test,2,1.0,2-Back,1.0,z,Wed Feb 11 2026 13:20:34 GMT-0500 (Eastern Standard Time),529030.5999994278,178_m_m_n_a.png,I,z,1164,3,1,2173.5,526857.0999994278,9056,NNB,B,1
2,test,2,0.0,2-Back,1.0,m,Wed Feb 11 2026 13:20:34 GMT-0500 (Eastern Standard Time),531047.0999994278,097_m_f_n_a.png,I,m,997,4,1,2007.8999996185303,529039.1999998093,9056,NNB,B,2
3,test,2,0.0,2-Back,1.0,m,Wed Feb 11 2026 13:20:34 GMT-0500 (Eastern Standard Time),533764.0,173_y_f_n_a.png,I,m,1684,5,1,2708.300000190735,531055.6999998093,9056,NNB,B,3
4,test,2,0.0,2-Back,1.0,m,Wed Feb 11 2026 13:20:34 GMT-0500 (Eastern Standard Time),535764.0999994278,065_o_m_n_a.png,I,m,966,6,1,1990.5999994277954,533773.5,9056,NNB,B,4
5,test,2,0.0,2-Back,1.0,m,Wed Feb 11 2026 13:20:34 GMT-0500 (Eastern Standard Time),537730.8000001907,152_y_f_n_a.png,I,m,935,7,1,1956.9000005722046,535773.8999996185,9056,NNB,B,5
6,test,2,1.0,2-Back,1.0,z,Wed Feb 11 2026 13:20:34 GMT-0500 (Eastern Standard Time),539647.5,065_o_m_n_a.png,I,z,890,8,1,1905.3000001907349,537742.1999998093,9056,NNB,B,6
7,test,2,0.0,2-Back,1.0,m,Wed Feb 11 2026 13:20:34 GMT-0500 (Eastern Standard Time),541747.1999998093,013_y_m_n_a.png,I,m,1067,9,1,2090.6000003814697,539656.5999994278,9056,NNB,B,7
7,test,2,0.0,2-Back,0.0,m,Wed Feb 11 2026 13:20:34 GMT-0500 (Eastern Standard Time),544780.8999996185,013_y_m_n_a.png,I,None,2016,10,1,3028.300000190735,541752.5999994278,9056,NNB,B,8
8,test,2,0.0,2-Back,1.0,m,Wed Feb 11 2026 13:20:34 GMT-0500 (Eastern Standard Time),546564.0999994278,029_m_f_n_a.png,I,m,751,11,1,1774.7999992370605,544789.3000001907,9056,NNB,B,9
9,test,2,0.0,2-Back,1.0,m,Wed Feb 11 2026 13:20:34 GMT-0500 (Eastern Standard Time),548530.8000001907,173_y_f_n_a.png,I,m,936,12,1,1955.9000005722046,546574.8999996185,9056,NNB,B,10
10,test,2,1.0,2-Back,1.0,z,Wed Feb 11 2026 13:20:34 GMT-0500 (Eastern Standard Time),550380.8999996185,029_m_f_n_a.png,I,z,825,13,1,1840.3999996185303,548540.5,9056,NNB,B,11
11,test,2,0.0,2-Back,1.0,m,Wed Feb 11 2026 13:20:34 GMT-0500 (Eastern Standard Time),552380.8000001907,176_o_m_n_a.png,I,m,975,14,1,1990.6000003814697,550390.1999998093,9056,NNB,B,12
12,test,2,0.0,2-Back,1.0,m,Wed Feb 11 2026 13:20:34 GMT-0500 (Eastern Standard Time),554764.0999994278,176_o_m_n_a.png,I,m,1359,15,1,2375.0,552389.0999994278,9056,NNB,B,13
13,test,2,0.0,2-Back,1.0,m,Wed Feb 11 2026 13:20:34 GMT-0500 (Eastern Standard Time),557214.0999994278,110_o_f_n_a.png,I,m,1424,16,1,2440.5,554773.5999994278,9056,NNB,B,14
14,test,2,0.0,2-Back,1.0,m,Wed Feb 11 2026 13:20:34 GMT-0500 (Eastern Standard Time),559247.0999994278,126_m_m_n_a.png,I,m,1005,17,1,2024.5999994277954,557222.5,9056,NNB,B,15
15,test,2,1.0,2-Back,1.0,z,Wed Feb 11 2026 13:20:34 GMT-0500 (Eastern Standard Time),561264.0999994278,110_o_f_n_a.png,I,z,988,18,1,2012.5999994277954,559251.5,9056,NNB,B,16
0,test,3,1.0,2-Back,,,Wed Feb 11 2026 13:20:34 GMT-0500 (Eastern Standard Time),561264.0999994278,153_y_m_n_a.png,I,space,2163,1,1,2012.5999994277954,559251.5,9056,NNB,B,0
0,test,3,1.0,2-Back,,,Wed Feb 11 2026 13:20:34 GMT-0500 (Eastern Standard Time),561264.0999994278,153_y_m_n_a.png,I,space,2163,2,1,2012.5999994277954,559251.5,9056,NNB,B,0
1,test,3,0.0,2-Back,1.0,m,Wed Feb 11 2026 13:20:34 GMT-0500 (Eastern Standard Time),570997.5999994278,110_o_f_n_a.png,I,m,1366,3,1,2374.0999994277954,568623.5,9056,NNB,B,1
2,test,3,0.0,2-Back,1.0,m,Wed Feb 11 2026 13:20:34 GMT-0500 (Eastern Standard Time),573230.8000001907,178_m_m_n_a.png,I,m,1206,4,1,2225.9000005722046,571004.8999996185,9056,NNB,B,2
3,test,3,1.0,2-Back,1.0,z,Wed Feb 11 2026 13:20:34 GMT-0500 (Eastern Standard Time),575413.8000001907,110_o_f_n_a.png,I,z,1165,5,1,2171.9000005722046,573241.8999996185,9056,NNB,B,3
4,test,3,0.0,2-Back,1.0,m,Wed Feb 11 2026 13:20:34 GMT-0500 (Eastern Standard Time),577547.1999998093,013_y_m_n_a.png,I,m,1109,6,1,2127.199999809265,575420.0,9056,NNB,B,4
4,test,3,0.0,2-Back,0.0,m,Wed Feb 11 2026 13:20:34 GMT-0500 (Eastern Standard Time),579864.0,178_m_m_n_a.png,I,z,1296,7,1,2309.1000003814697,577554.8999996185,9056,NNB,B,5
5,test,3,1.0,2-Back,1.0,z,Wed Feb 11 2026 13:20:34 GMT-0500 (Eastern Standard Time),582280.6999998093,013_y_m_n_a.png,I,z,1395,8,1,2408.5,579872.1999998093,9056,NNB,B,6
6,test,3,0.0,2-Back,1.0,m,Wed Feb 11 2026 13:20:34 GMT-0500 (Eastern Standard Time),584347.3999996185,173_y_f_n_a.png,I,m,1043,9,1,2058.300000190735,582289.0999994278,9056,NNB,B,7
7,test,3,0.0,2-Back,1.0,m,Wed Feb 11 2026 13:20:34 GMT-0500 (Eastern Standard Time),586847.5,126_m_m_n_a.png,I,m,1472,10,1,2489.9000005722046,584357.5999994278,9056,NNB,B,8
8,test,3,1.0,2-Back,1.0,z,Wed Feb 11 2026 13:20:34 GMT-0500 (Eastern Standard Time),588847.3999996185,173_y_f_n_a.png,I,z,972,11,1,1990.0,586857.3999996185,9056,NNB,B,9
9,test,3,1.0,2-Back,1.0,z,Wed Feb 11 2026 13:20:34 GMT-0500 (Eastern Standard Time),591397.5,126_m_m_n_a.png,I,z,1532,12,1,2541.300000190735,588856.1999998093,9056,NNB,B,10
10,test,3,0.0,2-Back,1.0,m,Wed Feb 11 2026 13:20:34 GMT-0500 (Eastern Standard Time),593314.0999994278,110_o_f_n_a.png,I,m,870,13,1,1906.6999998092651,591407.3999996185,9056,NNB,B,11
11,test,3,0.0,2-Back,1.0,m,Wed Feb 11 2026 13:20:34 GMT-0500 (Eastern Standard Time),595564.0,097_m_f_n_a.png,I,m,1226,14,1,2241.9000005722046,593322.0999994278,9056,NNB,B,12
12,test,3,0.0,2-Back,1.0,m,Wed Feb 11 2026 13:20:34 GMT-0500 (Eastern Standard Time),597630.0999994278,065_o_m_n_a.png,I,m,1038,15,1,2056.5,595573.5999994278,9056,NNB,B,13
13,test,3,1.0,2-Back,1.0,z,Wed Feb 11 2026 13:20:34 GMT-0500 (Eastern Standard Time),599747.3999996185,097_m_f_n_a.png,I,z,1085,16,1,2113.199999809265,597634.1999998093,9056,NNB,B,14
14,test,3,0.0,2-Back,1.0,m,Wed Feb 11 2026 13:20:34 GMT-0500 (Eastern Standard Time),602347.3000001907,086_o_f_n_a.png,I,m,1575,17,1,2590.6000003814697,599756.6999998093,9056,NNB,B,15
15,test,3,0.0,2-Back,1.0,m,Wed Feb 11 2026 13:20:34 GMT-0500 (Eastern Standard Time),605230.5999994278,086_o_f_n_a.png,I,m,1856,18,1,2872.699999809265,602357.8999996185,9056,NNB,B,16
0,test,4,0.0,2-Back,,,Wed Feb 11 2026 13:20:34 GMT-0500 (Eastern Standard Time),605230.5999994278,176_o_m_n_a.png,I,space,3157,1,1,2872.699999809265,602357.8999996185,9056,NNB,B,0
0,test,4,0.0,2-Back,,,Wed Feb 11 2026 13:20:34 GMT-0500 (Eastern Standard Time),605230.5999994278,152_y_f_n_a.png,I,space,3157,2,1,2872.699999809265,602357.8999996185,9056,NNB,B,0
1,test,4,1.0,2-Back,1.0,z,Wed Feb 11 2026 13:20:34 GMT-0500 (Eastern Standard Time),616230.3000001907,176_o_m_n_a.png,I,z,1464,3,1,2473.7000007629395,613756.5999994278,9056,NNB,B,1
2,test,4,1.0,2-Back,1.0,z,Wed Feb 11 2026 13:20:34 GMT-0500 (Eastern Standard Time),618247.0999994278,152_y_f_n_a.png,I,z,980,4,1,1992.0,616255.0999994278,9056,NNB,B,2
3,test,4,0.0,2-Back,1.0,m,Wed Feb 11 2026 13:20:34 GMT-0500 (Eastern Standard Time),620547.3999996185,110_o_f_n_a.png,I,m,1267,5,1,2291.699999809265,618255.6999998093,9056,NNB,B,3
4,test,4,0.0,2-Back,1.0,m,Wed Feb 11 2026 13:20:34 GMT-0500 (Eastern Standard Time),622847.3999996185,110_o_f_n_a.png,I,m,1272,6,1,2291.300000190735,620556.0999994278,9056,NNB,B,4
5,test,4,0.0,2-Back,1.0,m,Wed Feb 11 2026 13:20:34 GMT-0500 (Eastern Standard Time),625114.0,029_m_f_n_a.png,I,m,1244,7,1,2257.5,622856.5,9056,NNB,B,5
6,test,4,0.0,2-Back,1.0,m,Wed Feb 11 2026 13:20:34 GMT-0500 (Eastern Standard Time),627147.0,013_y_m_n_a.png,I,m,1009,8,1,2023.6999998092651,625123.3000001907,9056,NNB,B,6
7,test,4,1.0,2-Back,1.0,z,Wed Feb 11 2026 13:20:34 GMT-0500 (Eastern Standard Time),629197.3000001907,029_m_f_n_a.png,I,z,1024,9,1,2046.1000003814697,627151.1999998093,9056,NNB,B,7
8,test,4,0.0,2-Back,1.0,m,Wed Feb 11 2026 13:20:34 GMT-0500 (Eastern Standard Time),631413.8000001907,126_m_m_n_a.png,I,m,1198,10,1,2206.800000190735,629207.0,9056,NNB,B,8
8,test,4,0.0,2-Back,0.0,m,Wed Feb 11 2026 13:20:34 GMT-0500 (Eastern Standard Time),633397.3999996185,013_y_m_n_a.png,I,z,966,11,1,1976.0999994277954,631421.3000001907,9056,NNB,B,9
8,test,4,0.0,2-Back,0.0,m,Wed Feb 11 2026 13:20:34 GMT-0500 (Eastern Standard Time),636430.8999996185,086_o_f_n_a.png,I,None,2015,12,1,3026.5,633404.3999996185,9056,NNB,B,10
9,test,4,0.0,2-Back,1.0,m,Wed Feb 11 2026 13:20:34 GMT-0500 (Eastern Standard Time),638614.8000001907,153_y_m_n_a.png,I,m,1148,13,1,2161.800000190735,636453.0,9056,NNB,B,11
10,test,4,1.0,2-Back,1.0,z,Wed Feb 11 2026 13:20:34 GMT-0500 (Eastern Standard Time),640680.3999996185,086_o_f_n_a.png,I,z,1045,14,1,2057.0999994277954,638623.3000001907,9056,NNB,B,12
11,test,4,1.0,2-Back,1.0,z,Wed Feb 11 2026 13:20:34 GMT-0500 (Eastern Standard Time),643297.3000001907,153_y_m_n_a.png,I,z,1587,15,1,2610.0,640687.3000001907,9056,NNB,B,13
12,test,4,0.0,2-Back,1.0,m,Wed Feb 11 2026 13:20:34 GMT-0500 (Eastern Standard Time),645317.1999998093,178_m_m_n_a.png,I,m,1002,16,1,2012.5,643304.6999998093,9056,NNB,B,14
13,test,4,0.0,2-Back,1.0,m,Wed Feb 11 2026 13:20:34 GMT-0500 (Eastern Standard Time),647647.0,097_m_f_n_a.png,I,m,1289,17,1,2310.6000003814697,645336.3999996185,9056,NNB,B,15
14,test,4,1.0,2-Back,1.0,z,Wed Feb 11 2026 13:20:34 GMT-0500 (Eastern Standard Time),650164.0,178_m_m_n_a.png,I,z,1480,18,1,2512.699999809265,647651.3000001907,9056,NNB,B,16
0,test,5,1.0,2-Back,,,Wed Feb 11 2026 13:20:34 GMT-0500 (Eastern Standard Time),650164.0,153_y_m_n_a.png,I,space,6319,1,1,2512.699999809265,647651.3000001907,9056,NNB,B,0
0,test,5,1.0,2-Back,,,Wed Feb 11 2026 13:20:34 GMT-0500 (Eastern Standard Time),650164.0,097_m_f_n_a.png,I,space,6319,2,1,2512.699999809265,647651.3000001907,9056,NNB,B,0
1,test,5,1.0,2-Back,1.0,z,Wed Feb 11 2026 13:20:34 GMT-0500 (Eastern Standard Time),664080.5999994278,153_y_m_n_a.png,I,z,1239,3,1,2256.5999994277954,661824.0,9056,NNB,B,1
2,test,5,1.0,2-Back,1.0,z,Wed Feb 11 2026 13:20:34 GMT-0500 (Eastern Standard Time),666063.1999998093,097_m_f_n_a.png,I,z,954,4,1,1974.3000001907349,664088.8999996185,9056,NNB,B,2
3,test,5,0.0,2-Back,1.0,m,Wed Feb 11 2026 13:20:34 GMT-0500 (Eastern Standard Time),667930.5999994278,086_o_f_n_a.png,I,m,844,5,1,1861.6999998092651,666068.8999996185,9056,NNB,B,3
4,test,5,0.0,2-Back,1.0,m,Wed Feb 11 2026 13:20:34 GMT-0500 (Eastern Standard Time),670197.3000001907,153_y_m_n_a.png,I,m,1233,6,1,2258.1000003814697,667939.1999998093,9056,NNB,B,4
5,test,5,0.0,2-Back,1.0,m,Wed Feb 11 2026 13:20:34 GMT-0500 (Eastern Standard Time),672197.5,173_y_f_n_a.png,I,m,982,7,1,1991.3000001907349,670206.1999998093,9056,NNB,B,5
5,test,5,0.0,2-Back,0.0,m,Wed Feb 11 2026 13:20:34 GMT-0500 (Eastern Standard Time),674230.3000001907,086_o_f_n_a.png,I,z,1015,8,1,2025.2000007629395,672205.0999994278,9056,NNB,B,6
6,test,5,1.0,2-Back,1.0,z,Wed Feb 11 2026 13:20:34 GMT-0500 (Eastern Standard Time),676197.3999996185,173_y_f_n_a.png,I,z,949,9,1,1958.5999994277954,674238.8000001907,9056,NNB,B,7
7,test,5,0.0,2-Back,1.0,m,Wed Feb 11 2026 13:20:34 GMT-0500 (Eastern Standard Time),678647.0,065_o_m_n_a.png,I,m,917,10,1,2442.9000005722046,676204.0999994278,9056,NNB,B,8
8,test,5,0.0,2-Back,1.0,m,Wed Feb 11 2026 13:20:34 GMT-0500 (Eastern Standard Time),680747.3000001907,029_m_f_n_a.png,I,m,1038,11,1,2092.6000003814697,678654.6999998093,9056,NNB,B,9
9,test,5,0.0,2-Back,1.0,m,Wed Feb 11 2026 13:20:34 GMT-0500 (Eastern Standard Time),682830.5999994278,126_m_m_n_a.png,I,m,1056,12,1,2074.5,680756.0999994278,9056,NNB,B,10
10,test,5,0.0,2-Back,1.0,m,Wed Feb 11 2026 13:20:34 GMT-0500 (Eastern Standard Time),684897.0,065_o_m_n_a.png,I,m,1043,13,1,2059.0,682838.0,9056,NNB,B,11
11,test,5,1.0,2-Back,1.0,z,Wed Feb 11 2026 13:20:34 GMT-0500 (Eastern Standard Time),687047.0,126_m_m_n_a.png,I,z,1130,14,1,2141.5,684905.5,9056,NNB,B,12
12,test,5,0.0,2-Back,1.0,m,Wed Feb 11 2026 13:20:34 GMT-0500 (Eastern Standard Time),689080.5,152_y_f_n_a.png,I,m,1009,15,1,2024.3000001907349,687056.1999998093,9056,NNB,B,13
13,test,5,0.0,2-Back,1.0,m,Wed Feb 11 2026 13:20:34 GMT-0500 (Eastern Standard Time),691114.0,176_o_m_n_a.png,I,m,1011,16,1,2022.3000001907349,689091.6999998093,9056,NNB,B,14
14,test,5,0.0,2-Back,1.0,m,Wed Feb 11 2026 13:20:34 GMT-0500 (Eastern Standard Time),693230.5,029_m_f_n_a.png,I,m,1090,17,1,2108.1000003814697,691122.3999996185,9056,NNB,B,15
15,test,5,1.0,2-Back,1.0,z,Wed Feb 11 2026 13:20:34 GMT-0500 (Eastern Standard Time),695397.3000001907,176_o_m_n_a.png,I,z,1133,18,1,2157.7000007629395,693239.5999994278,9056,NNB,B,16
