acc_sum,block,block_c,change,condition,correct,correct_response,datetime,endtime,face,project,response,response_time,row_sel,session_number,start_end,starttime,subject_id,task,task_vers,trial
0,prac,1,,1-Back,,,Fri Dec 05 2025 09:55:09 GMT-0600 (Central Standard Time),,012_o_f_d_a.png,O,space,5187,1,1,,,7254,VNB,C,0
1,prac,1,0.0,1-Back,1.0,m,Fri Dec 05 2025 09:55:09 GMT-0600 (Central Standard Time),122462.30000001192,022_y_f_n_a.png,O,m,1301,2,1,2153.199999988079,120309.10000002384,7254,VNB,C,1
2,prac,1,0.0,1-Back,1.0,m,Fri Dec 05 2025 09:55:09 GMT-0600 (Central Standard Time),124859.60000002384,014_m_m_h_a.png,O,m,1532,3,1,2386.400000035763,122473.19999998808,7254,VNB,C,2
2,prac,1,0.0,1-Back,0.0,m,Fri Dec 05 2025 09:55:09 GMT-0600 (Central Standard Time),126459.40000003576,025_y_m_d_a.png,O,z,744,4,1,1589.5,124869.90000003576,7254,VNB,C,3
3,prac,1,0.0,1-Back,1.0,m,Fri Dec 05 2025 09:55:09 GMT-0600 (Central Standard Time),128592.19999998808,012_o_f_n_a.png,O,m,1256,5,1,2122.199999988079,126470.0,7254,VNB,C,4
4,prac,1,1.0,1-Back,1.0,z,Fri Dec 05 2025 09:55:09 GMT-0600 (Central Standard Time),130427.90000003576,025_y_m_n_a.png,O,z,978,6,1,1825.6000000238419,128602.30000001192,7254,VNB,C,5
5,prac,1,0.0,1-Back,1.0,m,Fri Dec 05 2025 09:55:09 GMT-0600 (Central Standard Time),132090.80000001192,015_o_m_h_a.png,O,m,792,7,1,1652.3999999761581,130438.40000003576,7254,VNB,C,6
6,prac,1,0.0,1-Back,1.0,m,Fri Dec 05 2025 09:55:09 GMT-0600 (Central Standard Time),134390.69999998808,019_m_f_d_a.png,O,m,1426,8,1,2289.5,132101.19999998808,7254,VNB,C,7
7,prac,1,1.0,1-Back,1.0,z,Fri Dec 05 2025 09:55:09 GMT-0600 (Central Standard Time),136240.30000001192,022_y_f_d_a.png,O,z,981,9,1,1838.1000000238419,134402.19999998808,7254,VNB,C,8
8,prac,1,0.0,1-Back,1.0,m,Fri Dec 05 2025 09:55:09 GMT-0600 (Central Standard Time),138372.40000003576,014_m_m_n_a.png,O,m,1273,10,1,2119.0,136253.40000003576,7254,VNB,C,9
9,prac,1,0.0,1-Back,1.0,m,Fri Dec 05 2025 09:55:09 GMT-0600 (Central Standard Time),140304.69999998808,012_o_f_h_a.png,O,m,1059,11,1,1922.199999988079,138382.5,7254,VNB,C,10
10,prac,1,0.0,1-Back,1.0,m,Fri Dec 05 2025 09:55:09 GMT-0600 (Central Standard Time),142254.60000002384,025_y_m_d_a.png,O,m,1101,12,1,1938.699999988079,140315.90000003576,7254,VNB,C,11
0,test,1,0.0,1-Back,,,Fri Dec 05 2025 09:55:09 GMT-0600 (Central Standard Time),142254.60000002384,022_y_f_d_a.png,O,space,4183,1,1,1938.699999988079,140315.90000003576,7254,VNB,C,0
1,test,1,0.0,1-Back,1.0,m,Fri Dec 05 2025 09:55:09 GMT-0600 (Central Standard Time),154084.30000001192,019_m_f_n_a.png,O,m,590,2,1,1602.0,152482.30000001192,7254,VNB,C,1
2,test,1,0.0,1-Back,1.0,m,Fri Dec 05 2025 09:55:09 GMT-0600 (Central Standard Time),155783.10000002384,015_o_m_h_a.png,O,m,671,3,1,1692.6000000238419,154090.5,7254,VNB,C,2
3,test,1,1.0,1-Back,1.0,z,Fri Dec 05 2025 09:55:09 GMT-0600 (Central Standard Time),157449.10000002384,014_m_m_h_a.png,O,z,643,4,1,1660.800000011921,155788.30000001192,7254,VNB,C,3
4,test,1,0.0,1-Back,1.0,m,Fri Dec 05 2025 09:55:09 GMT-0600 (Central Standard Time),159183.0,012_o_f_n_a.png,O,m,712,5,1,1726.5,157456.5,7254,VNB,C,4
5,test,1,0.0,1-Back,1.0,m,Fri Dec 05 2025 09:55:09 GMT-0600 (Central Standard Time),160998.5,025_y_m_d_a.png,O,m,790,6,1,1809.699999988079,159188.80000001192,7254,VNB,C,5
6,test,1,1.0,1-Back,1.0,z,Fri Dec 05 2025 09:55:09 GMT-0600 (Central Standard Time),162915.30000001192,019_m_f_d_a.png,O,z,893,7,1,1908.0,161007.30000001192,7254,VNB,C,6
7,test,1,0.0,1-Back,1.0,m,Fri Dec 05 2025 09:55:09 GMT-0600 (Central Standard Time),164831.60000002384,022_y_f_h_a.png,O,m,898,8,1,1908.5,162923.10000002384,7254,VNB,C,7
8,test,1,0.0,1-Back,1.0,m,Fri Dec 05 2025 09:55:09 GMT-0600 (Central Standard Time),166646.30000001192,015_o_m_n_a.png,O,m,793,9,1,1799.5,164846.80000001192,7254,VNB,C,8
9,test,1,0.0,1-Back,1.0,m,Fri Dec 05 2025 09:55:09 GMT-0600 (Central Standard Time),168314.5,025_y_m_h_a.png,O,m,636,10,1,1664.5,166650.0,7254,VNB,C,9
10,test,1,0.0,1-Back,1.0,m,Fri Dec 05 2025 09:55:09 GMT-0600 (Central Standard Time),170046.30000001192,015_o_m_d_a.png,O,m,706,11,1,1727.6000000238419,168318.69999998808,7254,VNB,C,10
11,test,1,1.0,1-Back,1.0,z,Fri Dec 05 2025 09:55:09 GMT-0600 (Central Standard Time),171694.5,012_o_f_d_a.png,O,z,630,12,1,1640.199999988079,170054.30000001192,7254,VNB,C,11
12,test,1,0.0,1-Back,1.0,m,Fri Dec 05 2025 09:55:09 GMT-0600 (Central Standard Time),173410.19999998808,014_m_m_n_a.png,O,m,692,13,1,1707.3999999761581,171702.80000001192,7254,VNB,C,12
13,test,1,1.0,1-Back,1.0,z,Fri Dec 05 2025 09:55:09 GMT-0600 (Central Standard Time),175611.60000002384,022_y_f_n_a.png,O,z,1176,14,1,2197.699999988079,173413.90000003576,7254,VNB,C,13
14,test,1,0.0,1-Back,1.0,m,Fri Dec 05 2025 09:55:09 GMT-0600 (Central Standard Time),177465.10000002384,019_m_f_h_a.png,O,m,824,15,1,1844.9000000357628,175620.19999998808,7254,VNB,C,14
15,test,1,0.0,1-Back,1.0,m,Fri Dec 05 2025 09:55:09 GMT-0600 (Central Standard Time),180008.30000001192,014_m_m_d_a.png,O,m,1528,16,1,2534.399999976158,177473.90000003576,7254,VNB,C,15
16,test,1,0.0,1-Back,1.0,m,Fri Dec 05 2025 09:55:09 GMT-0600 (Central Standard Time),182125.19999998808,025_y_m_n_a.png,O,m,1100,17,1,2108.5,180016.69999998808,7254,VNB,C,16
17,test,1,0.0,1-Back,1.0,m,Fri Dec 05 2025 09:55:09 GMT-0600 (Central Standard Time),184191.19999998808,012_o_f_h_a.png,O,m,1045,18,1,2057.699999988079,182133.5,7254,VNB,C,17
0,test,2,0.0,1-Back,,,Fri Dec 05 2025 09:55:09 GMT-0600 (Central Standard Time),184191.19999998808,025_y_m_n_a.png,O,space,1534,1,1,2057.699999988079,182133.5,7254,VNB,C,0
1,test,2,0.0,1-Back,1.0,m,Fri Dec 05 2025 09:55:09 GMT-0600 (Central Standard Time),189505.30000001192,022_y_f_h_a.png,O,m,722,2,1,1739.5,187765.80000001192,7254,VNB,C,1
2,test,2,1.0,1-Back,1.0,m,Fri Dec 05 2025 09:55:09 GMT-0600 (Central Standard Time),191372.10000002384,015_o_m_n_a.png,O,m,850,3,1,1861.300000011921,189510.80000001192,7254,VNB,C,2
3,test,2,0.0,1-Back,1.0,m,Fri Dec 05 2025 09:55:09 GMT-0600 (Central Standard Time),193270.60000002384,019_m_f_d_a.png,O,m,870,4,1,1893.4000000357628,191377.19999998808,7254,VNB,C,3
4,test,2,0.0,1-Back,1.0,z,Fri Dec 05 2025 09:55:09 GMT-0600 (Central Standard Time),195038.30000001192,014_m_m_d_a.png,O,z,749,5,1,1763.8999999761581,193274.40000003576,7254,VNB,C,4
5,test,2,0.0,1-Back,1.0,m,Fri Dec 05 2025 09:55:09 GMT-0600 (Central Standard Time),196870.0,025_y_m_h_a.png,O,m,806,6,1,1824.699999988079,195045.30000001192,7254,VNB,C,5
6,test,2,1.0,1-Back,1.0,z,Fri Dec 05 2025 09:55:09 GMT-0600 (Central Standard Time),198653.10000002384,012_o_f_h_a.png,O,z,755,7,1,1773.4000000357628,196879.69999998808,7254,VNB,C,6
7,test,2,0.0,1-Back,1.0,m,Fri Dec 05 2025 09:55:09 GMT-0600 (Central Standard Time),200538.60000002384,019_m_f_n_a.png,O,m,853,8,1,1875.300000011921,198663.30000001192,7254,VNB,C,7
8,test,2,0.0,1-Back,1.0,m,Fri Dec 05 2025 09:55:09 GMT-0600 (Central Standard Time),202535.30000001192,022_y_f_d_a.png,O,m,970,9,1,1989.300000011921,200546.0,7254,VNB,C,8
9,test,2,0.0,1-Back,1.0,m,Fri Dec 05 2025 09:55:09 GMT-0600 (Central Standard Time),204484.40000003576,014_m_m_n_a.png,O,m,923,10,1,1938.9000000357628,202545.5,7254,VNB,C,9
10,test,2,1.0,1-Back,1.0,m,Fri Dec 05 2025 09:55:09 GMT-0600 (Central Standard Time),206367.80000001192,019_m_f_h_a.png,O,m,864,11,1,1874.1000000238419,204493.69999998808,7254,VNB,C,10
11,test,2,0.0,1-Back,1.0,z,Fri Dec 05 2025 09:55:09 GMT-0600 (Central Standard Time),208267.80000001192,015_o_m_h_a.png,O,z,868,12,1,1895.300000011921,206372.5,7254,VNB,C,11
12,test,2,0.0,1-Back,1.0,m,Fri Dec 05 2025 09:55:09 GMT-0600 (Central Standard Time),210049.80000001192,025_y_m_d_a.png,O,m,759,13,1,1773.0,208276.80000001192,7254,VNB,C,12
13,test,2,0.0,1-Back,1.0,m,Fri Dec 05 2025 09:55:09 GMT-0600 (Central Standard Time),211916.40000003576,012_o_f_n_a.png,O,m,842,14,1,1859.7000000476837,210056.69999998808,7254,VNB,C,13
14,test,2,0.0,1-Back,1.0,z,Fri Dec 05 2025 09:55:09 GMT-0600 (Central Standard Time),213648.60000002384,022_y_f_n_a.png,O,z,702,15,1,1725.4000000357628,211923.19999998808,7254,VNB,C,14
15,test,2,1.0,1-Back,1.0,m,Fri Dec 05 2025 09:55:09 GMT-0600 (Central Standard Time),215731.5,014_m_m_h_a.png,O,m,1058,16,1,2076.699999988079,213654.80000001192,7254,VNB,C,15
16,test,2,0.0,1-Back,1.0,m,Fri Dec 05 2025 09:55:09 GMT-0600 (Central Standard Time),217680.90000003576,012_o_f_d_a.png,O,m,927,17,1,1941.4000000357628,215739.5,7254,VNB,C,16
17,test,2,1.0,1-Back,1.0,z,Fri Dec 05 2025 09:55:09 GMT-0600 (Central Standard Time),219598.19999998808,015_o_m_d_a.png,O,z,886,18,1,1911.3999999761581,217686.80000001192,7254,VNB,C,17
0,test,3,1.0,1-Back,,,Fri Dec 05 2025 09:55:09 GMT-0600 (Central Standard Time),219598.19999998808,012_o_f_h_a.png,O,space,1236,1,1,1911.3999999761581,217686.80000001192,7254,VNB,C,0
1,test,3,0.0,1-Back,1.0,m,Fri Dec 05 2025 09:55:09 GMT-0600 (Central Standard Time),224811.30000001192,019_m_f_d_a.png,O,m,839,2,1,1855.8999999761581,222955.40000003576,7254,VNB,C,1
2,test,3,1.0,1-Back,1.0,m,Fri Dec 05 2025 09:55:09 GMT-0600 (Central Standard Time),226644.40000003576,014_m_m_n_a.png,O,m,801,3,1,1826.5,224817.90000003576,7254,VNB,C,2
3,test,3,0.0,1-Back,1.0,z,Fri Dec 05 2025 09:55:09 GMT-0600 (Central Standard Time),228427.30000001192,012_o_f_n_a.png,O,z,759,4,1,1774.300000011921,226653.0,7254,VNB,C,3
4,test,3,1.0,1-Back,1.0,m,Fri Dec 05 2025 09:55:09 GMT-0600 (Central Standard Time),230178.30000001192,015_o_m_d_a.png,O,m,726,5,1,1741.0,228437.30000001192,7254,VNB,C,4
5,test,3,0.0,1-Back,1.0,m,Fri Dec 05 2025 09:55:09 GMT-0600 (Central Standard Time),231925.90000003576,022_y_f_h_a.png,O,m,730,6,1,1739.5,230186.40000003576,7254,VNB,C,5
6,test,3,0.0,1-Back,1.0,z,Fri Dec 05 2025 09:55:09 GMT-0600 (Central Standard Time),233791.90000003576,025_y_m_h_a.png,O,z,836,7,1,1861.800000011921,231930.10000002384,7254,VNB,C,6
7,test,3,0.0,1-Back,1.0,m,Fri Dec 05 2025 09:55:09 GMT-0600 (Central Standard Time),235643.60000002384,019_m_f_n_a.png,O,m,819,8,1,1844.300000011921,233799.30000001192,7254,VNB,C,7
8,test,3,0.0,1-Back,1.0,m,Fri Dec 05 2025 09:55:09 GMT-0600 (Central Standard Time),237607.40000003576,022_y_f_d_a.png,O,m,935,9,1,1953.6000000238419,235653.80000001192,7254,VNB,C,8
9,test,3,1.0,1-Back,1.0,m,Fri Dec 05 2025 09:55:09 GMT-0600 (Central Standard Time),239457.10000002384,015_o_m_n_a.png,O,m,827,10,1,1843.300000011921,237613.80000001192,7254,VNB,C,9
10,test,3,0.0,1-Back,1.0,m,Fri Dec 05 2025 09:55:09 GMT-0600 (Central Standard Time),241157.19999998808,014_m_m_h_a.png,O,m,668,11,1,1693.699999988079,239463.5,7254,VNB,C,10
11,test,3,0.0,1-Back,1.0,z,Fri Dec 05 2025 09:55:09 GMT-0600 (Central Standard Time),242672.60000002384,019_m_f_h_a.png,O,z,467,12,1,1496.699999988079,241175.90000003576,7254,VNB,C,11
12,test,3,1.0,1-Back,1.0,m,Fri Dec 05 2025 09:55:09 GMT-0600 (Central Standard Time),244371.30000001192,012_o_f_d_a.png,O,m,673,13,1,1691.699999988079,242679.60000002384,7254,VNB,C,12
13,test,3,0.0,1-Back,1.0,z,Fri Dec 05 2025 09:55:09 GMT-0600 (Central Standard Time),246122.90000003576,014_m_m_d_a.png,O,z,727,14,1,1745.9000000357628,244377.0,7254,VNB,C,13
14,test,3,0.0,1-Back,1.0,m,Fri Dec 05 2025 09:55:09 GMT-0600 (Central Standard Time),247903.5,025_y_m_n_a.png,O,m,752,15,1,1773.8999999761581,246129.60000002384,7254,VNB,C,14
15,test,3,1.0,1-Back,1.0,m,Fri Dec 05 2025 09:55:09 GMT-0600 (Central Standard Time),249604.0,015_o_m_h_a.png,O,m,668,16,1,1693.5999999642372,247910.40000003576,7254,VNB,C,15
16,test,3,0.0,1-Back,1.0,m,Fri Dec 05 2025 09:55:09 GMT-0600 (Central Standard Time),251354.80000001192,025_y_m_d_a.png,O,m,733,17,1,1744.5,249610.30000001192,7254,VNB,C,16
17,test,3,1.0,1-Back,1.0,m,Fri Dec 05 2025 09:55:09 GMT-0600 (Central Standard Time),253118.40000003576,022_y_f_n_a.png,O,m,719,18,1,1751.4000000357628,251367.0,7254,VNB,C,17
0,test,4,1.0,1-Back,,,Fri Dec 05 2025 09:55:09 GMT-0600 (Central Standard Time),253118.40000003576,014_m_m_d_a.png,O,space,1302,1,1,1751.4000000357628,251367.0,7254,VNB,C,0
1,test,4,0.0,1-Back,1.0,z,Fri Dec 05 2025 09:55:09 GMT-0600 (Central Standard Time),258051.5,015_o_m_d_a.png,O,z,575,2,1,1589.0,256462.5,7254,VNB,C,1
2,test,4,0.0,1-Back,1.0,m,Fri Dec 05 2025 09:55:09 GMT-0600 (Central Standard Time),259633.30000001192,025_y_m_h_a.png,O,m,559,3,1,1571.6000000238419,258061.69999998808,7254,VNB,C,2
3,test,4,0.0,1-Back,1.0,m,Fri Dec 05 2025 09:55:09 GMT-0600 (Central Standard Time),261352.40000003576,019_m_f_n_a.png,O,m,688,4,1,1707.5,259644.90000003576,7254,VNB,C,3
4,test,4,1.0,1-Back,1.0,m,Fri Dec 05 2025 09:55:09 GMT-0600 (Central Standard Time),263016.0,012_o_f_h_a.png,O,m,638,5,1,1654.199999988079,261361.80000001192,7254,VNB,C,4
5,test,4,0.0,1-Back,1.0,m,Fri Dec 05 2025 09:55:09 GMT-0600 (Central Standard Time),264581.6999999881,014_m_m_n_a.png,O,m,538,6,1,1555.7999999523163,263025.90000003576,7254,VNB,C,5
6,test,4,0.0,1-Back,1.0,m,Fri Dec 05 2025 09:55:09 GMT-0600 (Central Standard Time),266230.6999999881,025_y_m_d_a.png,O,m,627,7,1,1642.199999988079,264588.5,7254,VNB,C,6
7,test,4,1.0,1-Back,1.0,z,Fri Dec 05 2025 09:55:09 GMT-0600 (Central Standard Time),268014.10000002384,022_y_f_d_a.png,O,z,764,8,1,1779.6000000238419,266234.5,7254,VNB,C,7
8,test,4,0.0,1-Back,1.0,m,Fri Dec 05 2025 09:55:09 GMT-0600 (Central Standard Time),269831.1999999881,019_m_f_h_a.png,O,m,789,9,1,1810.0,268021.1999999881,7254,VNB,C,8
9,test,4,0.0,1-Back,1.0,z,Fri Dec 05 2025 09:55:09 GMT-0600 (Central Standard Time),271614.40000003576,015_o_m_h_a.png,O,z,751,10,1,1775.1000000238419,269839.3000000119,7254,VNB,C,9
10,test,4,1.0,1-Back,1.0,m,Fri Dec 05 2025 09:55:09 GMT-0600 (Central Standard Time),273312.5,012_o_f_n_a.png,O,m,667,11,1,1688.8999999761581,271623.60000002384,7254,VNB,C,10
11,test,4,0.0,1-Back,1.0,m,Fri Dec 05 2025 09:55:09 GMT-0600 (Central Standard Time),275212.5,019_m_f_d_a.png,O,m,868,12,1,1891.0,273321.5,7254,VNB,C,11
12,test,4,0.0,1-Back,1.0,m,Fri Dec 05 2025 09:55:09 GMT-0600 (Central Standard Time),277129.40000003576,022_y_f_n_a.png,O,m,886,13,1,1909.300000011921,275220.10000002384,7254,VNB,C,12
13,test,4,0.0,1-Back,1.0,m,Fri Dec 05 2025 09:55:09 GMT-0600 (Central Standard Time),278860.6999999881,012_o_f_d_a.png,O,m,700,14,1,1724.0,277136.6999999881,7254,VNB,C,13
14,test,4,0.0,1-Back,1.0,m,Fri Dec 05 2025 09:55:09 GMT-0600 (Central Standard Time),280476.8000000119,022_y_f_h_a.png,O,m,599,15,1,1611.699999988079,278865.10000002384,7254,VNB,C,14
15,test,4,1.0,1-Back,1.0,z,Fri Dec 05 2025 09:55:09 GMT-0600 (Central Standard Time),281993.0,014_m_m_h_a.png,O,z,492,16,1,1513.199999988079,280479.8000000119,7254,VNB,C,15
16,test,4,0.0,1-Back,1.0,m,Fri Dec 05 2025 09:55:09 GMT-0600 (Central Standard Time),283644.10000002384,015_o_m_n_a.png,O,m,617,17,1,1643.9000000357628,282000.1999999881,7254,VNB,C,16
17,test,4,1.0,1-Back,1.0,z,Fri Dec 05 2025 09:55:09 GMT-0600 (Central Standard Time),285475.8000000119,025_y_m_n_a.png,O,z,800,18,1,1823.1000000238419,283652.6999999881,7254,VNB,C,17
0,test,5,1.0,1-Back,,,Fri Dec 05 2025 09:55:09 GMT-0600 (Central Standard Time),285475.8000000119,015_o_m_n_a.png,O,space,1234,1,1,1823.1000000238419,283652.6999999881,7254,VNB,C,0
1,test,5,1.0,1-Back,1.0,m,Fri Dec 05 2025 09:55:09 GMT-0600 (Central Standard Time),290424.3000000119,012_o_f_h_a.png,O,m,662,2,1,1676.3999999761581,288747.90000003576,7254,VNB,C,1
2,test,5,0.0,1-Back,1.0,m,Fri Dec 05 2025 09:55:09 GMT-0600 (Central Standard Time),292172.5,025_y_m_d_a.png,O,m,731,3,1,1740.0999999642372,290432.40000003576,7254,VNB,C,2
3,test,5,0.0,1-Back,1.0,z,Fri Dec 05 2025 09:55:09 GMT-0600 (Central Standard Time),293923.6999999881,015_o_m_d_a.png,O,z,727,4,1,1748.0999999642372,292175.60000002384,7254,VNB,C,3
4,test,5,0.0,1-Back,1.0,m,Fri Dec 05 2025 09:55:09 GMT-0600 (Central Standard Time),295689.1999999881,019_m_f_h_a.png,O,m,742,5,1,1756.5,293932.6999999881,7254,VNB,C,4
5,test,5,0.0,1-Back,1.0,m,Fri Dec 05 2025 09:55:09 GMT-0600 (Central Standard Time),297971.5,022_y_f_n_a.png,O,m,1258,6,1,2276.5,295695.0,7254,VNB,C,5
6,test,5,1.0,1-Back,1.0,z,Fri Dec 05 2025 09:55:09 GMT-0600 (Central Standard Time),299604.0,012_o_f_n_a.png,O,z,601,7,1,1620.0,297984.0,7254,VNB,C,6
7,test,5,0.0,1-Back,1.0,m,Fri Dec 05 2025 09:55:09 GMT-0600 (Central Standard Time),301403.90000003576,019_m_f_d_a.png,O,m,768,8,1,1790.7000000476837,299613.1999999881,7254,VNB,C,7
8,test,5,0.0,1-Back,1.0,m,Fri Dec 05 2025 09:55:09 GMT-0600 (Central Standard Time),303087.3000000119,025_y_m_h_a.png,O,m,655,9,1,1672.300000011921,301415.0,7254,VNB,C,8
9,test,5,0.0,1-Back,1.0,m,Fri Dec 05 2025 09:55:09 GMT-0600 (Central Standard Time),304837.40000003576,022_y_f_d_a.png,O,m,717,10,1,1736.300000011921,303101.10000002384,7254,VNB,C,9
10,test,5,0.0,1-Back,1.0,m,Fri Dec 05 2025 09:55:09 GMT-0600 (Central Standard Time),306438.40000003576,014_m_m_n_a.png,O,m,569,11,1,1593.6000000238419,304844.8000000119,7254,VNB,C,10
11,test,5,1.0,1-Back,1.0,z,Fri Dec 05 2025 09:55:09 GMT-0600 (Central Standard Time),307934.90000003576,019_m_f_n_a.png,O,z,471,12,1,1489.6000000238419,306445.3000000119,7254,VNB,C,11
12,test,5,0.0,1-Back,1.0,m,Fri Dec 05 2025 09:55:09 GMT-0600 (Central Standard Time),309518.0,015_o_m_h_a.png,O,m,563,13,1,1575.199999988079,307942.8000000119,7254,VNB,C,12
13,test,5,0.0,1-Back,1.0,z,Fri Dec 05 2025 09:55:09 GMT-0600 (Central Standard Time),311267.5,014_m_m_h_a.png,O,z,724,14,1,1739.5,309528.0,7254,VNB,C,13
14,test,5,1.0,1-Back,1.0,m,Fri Dec 05 2025 09:55:09 GMT-0600 (Central Standard Time),313383.0,012_o_f_d_a.png,O,m,1094,15,1,2111.800000011921,311271.1999999881,7254,VNB,C,14
15,test,5,0.0,1-Back,1.0,m,Fri Dec 05 2025 09:55:09 GMT-0600 (Central Standard Time),315249.10000002384,025_y_m_n_a.png,O,m,843,16,1,1861.4000000357628,313387.6999999881,7254,VNB,C,15
16,test,5,0.0,1-Back,1.0,m,Fri Dec 05 2025 09:55:09 GMT-0600 (Central Standard Time),316798.60000002384,022_y_f_h_a.png,O,m,528,17,1,1544.300000011921,315254.3000000119,7254,VNB,C,16
17,test,5,0.0,1-Back,1.0,m,Fri Dec 05 2025 09:55:09 GMT-0600 (Central Standard Time),318415.6999999881,014_m_m_d_a.png,O,m,595,18,1,1609.5,316806.1999999881,7254,VNB,C,17
0,prac,1,0.0,2-Back,,,Fri Dec 05 2025 09:55:09 GMT-0600 (Central Standard Time),318415.6999999881,019_m_f_n_a.png,O,space,6764,1,1,1609.5,316806.1999999881,7254,VNB,C,0
0,prac,1,0.0,2-Back,,,Fri Dec 05 2025 09:55:09 GMT-0600 (Central Standard Time),318415.6999999881,012_o_f_h_a.png,O,space,6764,2,1,1609.5,316806.1999999881,7254,VNB,C,0
0,prac,1,0.0,2-Back,0.0,m,Fri Dec 05 2025 09:55:09 GMT-0600 (Central Standard Time),414118.40000003576,015_o_m_d_a.png,O,None,2007,3,1,2858.900000035763,411259.5,7254,VNB,C,1
1,prac,1,1.0,2-Back,1.0,z,Fri Dec 05 2025 09:55:09 GMT-0600 (Central Standard Time),416801.40000003576,014_m_m_h_a.png,O,z,1822,4,1,2674.400000035763,414127.0,7254,VNB,C,2
2,prac,1,0.0,2-Back,1.0,m,Fri Dec 05 2025 09:55:09 GMT-0600 (Central Standard Time),418550.6999999881,022_y_f_n_a.png,O,m,877,5,1,1739.5,416811.1999999881,7254,VNB,C,3
3,prac,1,1.0,2-Back,1.0,z,Fri Dec 05 2025 09:55:09 GMT-0600 (Central Standard Time),420584.0,015_o_m_h_a.png,O,z,1164,6,1,2022.3999999761581,418561.60000002384,7254,VNB,C,4
3,prac,1,1.0,2-Back,0.0,z,Fri Dec 05 2025 09:55:09 GMT-0600 (Central Standard Time),422366.40000003576,025_y_m_n_a.png,O,m,930,7,1,1768.5,420597.90000003576,7254,VNB,C,5
4,prac,1,0.0,2-Back,1.0,m,Fri Dec 05 2025 09:55:09 GMT-0600 (Central Standard Time),425149.6999999881,019_m_f_d_a.png,O,m,1908,8,1,2772.699999988079,422377.0,7254,VNB,C,6
4,prac,1,0.0,2-Back,0.0,m,Fri Dec 05 2025 09:55:09 GMT-0600 (Central Standard Time),427148.3000000119,012_o_f_d_a.png,O,z,1133,9,1,1986.800000011921,425161.5,7254,VNB,C,7
5,prac,1,0.0,2-Back,1.0,m,Fri Dec 05 2025 09:55:09 GMT-0600 (Central Standard Time),429697.8000000119,014_m_m_h_a.png,O,m,1756,10,1,2539.199999988079,427158.60000002384,7254,VNB,C,8
6,prac,1,1.0,2-Back,1.0,z,Fri Dec 05 2025 09:55:09 GMT-0600 (Central Standard Time),432146.90000003576,022_y_f_d_a.png,O,z,1571,11,1,2437.2000000476837,429709.6999999881,7254,VNB,C,9
7,prac,1,0.0,2-Back,1.0,m,Fri Dec 05 2025 09:55:09 GMT-0600 (Central Standard Time),434279.40000003576,015_o_m_n_a.png,O,m,1264,12,1,2123.2000000476837,432156.1999999881,7254,VNB,C,10
0,test,1,0.0,2-Back,,,Fri Dec 05 2025 09:55:09 GMT-0600 (Central Standard Time),434279.40000003576,025_y_m_h_a.png,O,space,7132,1,1,2123.2000000476837,432156.1999999881,7254,VNB,C,0
0,test,1,0.0,2-Back,,,Fri Dec 05 2025 09:55:09 GMT-0600 (Central Standard Time),434279.40000003576,012_o_f_n_a.png,O,space,7132,2,1,2123.2000000476837,432156.1999999881,7254,VNB,C,0
1,test,1,0.0,2-Back,1.0,z,Fri Dec 05 2025 09:55:09 GMT-0600 (Central Standard Time),452907.6999999881,015_o_m_h_a.png,O,z,943,3,1,1958.5999999642372,450949.10000002384,7254,VNB,C,1
2,test,1,0.0,2-Back,1.0,m,Fri Dec 05 2025 09:55:09 GMT-0600 (Central Standard Time),455321.5,019_m_f_d_a.png,O,m,1382,4,1,2410.199999988079,452911.3000000119,7254,VNB,C,2
2,test,1,1.0,2-Back,0.0,m,Fri Dec 05 2025 09:55:09 GMT-0600 (Central Standard Time),457303.6999999881,025_y_m_n_a.png,O,z,952,5,1,1977.699999988079,455326.0,7254,VNB,C,3
3,test,1,0.0,2-Back,1.0,z,Fri Dec 05 2025 09:55:09 GMT-0600 (Central Standard Time),459819.6999999881,022_y_f_d_a.png,O,z,1488,6,1,2509.5,457310.1999999881,7254,VNB,C,4
4,test,1,0.0,2-Back,1.0,m,Fri Dec 05 2025 09:55:09 GMT-0600 (Central Standard Time),462419.3000000119,014_m_m_h_a.png,O,m,1583,7,1,2591.899999976158,459827.40000003576,7254,VNB,C,5
4,test,1,1.0,2-Back,0.0,m,Fri Dec 05 2025 09:55:09 GMT-0600 (Central Standard Time),465452.1999999881,022_y_f_n_a.png,O,None,2015,8,1,3024.7999999523163,462427.40000003576,7254,VNB,C,6
5,test,1,0.0,2-Back,1.0,z,Fri Dec 05 2025 09:55:09 GMT-0600 (Central Standard Time),468136.0,012_o_f_h_a.png,O,z,1663,9,1,2674.399999976158,465461.60000002384,7254,VNB,C,7
5,test,1,0.0,2-Back,0.0,m,Fri Dec 05 2025 09:55:09 GMT-0600 (Central Standard Time),471166.0,015_o_m_d_a.png,O,None,2014,10,1,3026.199999988079,468139.8000000119,7254,VNB,C,8
6,test,1,1.0,2-Back,1.0,m,Fri Dec 05 2025 09:55:09 GMT-0600 (Central Standard Time),473498.6999999881,014_m_m_d_a.png,O,m,1300,11,1,2322.399999976158,471176.3000000119,7254,VNB,C,9
6,test,1,0.0,2-Back,0.0,m,Fri Dec 05 2025 09:55:09 GMT-0600 (Central Standard Time),475516.1999999881,019_m_f_n_a.png,O,z,992,12,1,2008.7999999523163,473507.40000003576,7254,VNB,C,10
7,test,1,0.0,2-Back,1.0,m,Fri Dec 05 2025 09:55:09 GMT-0600 (Central Standard Time),477966.60000002384,022_y_f_h_a.png,O,m,1422,13,1,2441.900000035763,475524.6999999881,7254,VNB,C,11
7,test,1,0.0,2-Back,0.0,z,Fri Dec 05 2025 09:55:09 GMT-0600 (Central Standard Time),480981.90000003576,014_m_m_n_a.png,O,None,2002,14,1,3009.300000011921,477972.60000002384,7254,VNB,C,12
8,test,1,0.0,2-Back,1.0,m,Fri Dec 05 2025 09:55:09 GMT-0600 (Central Standard Time),483278.8000000119,025_y_m_d_a.png,O,m,1278,15,1,2290.300000011921,480988.5,7254,VNB,C,13
8,test,1,1.0,2-Back,0.0,m,Fri Dec 05 2025 09:55:09 GMT-0600 (Central Standard Time),486311.8000000119,019_m_f_h_a.png,O,None,2015,16,1,3024.5,483287.3000000119,7254,VNB,C,14
9,test,1,0.0,2-Back,1.0,z,Fri Dec 05 2025 09:55:09 GMT-0600 (Central Standard Time),488527.0,012_o_f_d_a.png,O,z,1186,17,1,2207.300000011921,486319.6999999881,7254,VNB,C,15
10,test,1,0.0,2-Back,1.0,m,Fri Dec 05 2025 09:55:09 GMT-0600 (Central Standard Time),491392.8000000119,015_o_m_n_a.png,O,m,1836,18,1,2854.600000023842,488538.1999999881,7254,VNB,C,16
0,test,2,0.0,2-Back,,,Fri Dec 05 2025 09:55:09 GMT-0600 (Central Standard Time),491392.8000000119,014_m_m_h_a.png,O,space,3950,1,1,2854.600000023842,488538.1999999881,7254,VNB,C,0
0,test,2,0.0,2-Back,,,Fri Dec 05 2025 09:55:09 GMT-0600 (Central Standard Time),491392.8000000119,022_y_f_n_a.png,O,space,3950,2,1,2854.600000023842,488538.1999999881,7254,VNB,C,0
1,test,2,1.0,2-Back,1.0,z,Fri Dec 05 2025 09:55:09 GMT-0600 (Central Standard Time),503173.60000002384,012_o_f_h_a.png,O,z,1586,3,1,2611.800000011921,500561.8000000119,7254,VNB,C,1
2,test,2,0.0,2-Back,1.0,m,Fri Dec 05 2025 09:55:09 GMT-0600 (Central Standard Time),505255.1999999881,015_o_m_d_a.png,O,m,1053,4,1,2070.7999999523163,503184.40000003576,7254,VNB,C,2
2,test,2,0.0,2-Back,0.0,m,Fri Dec 05 2025 09:55:09 GMT-0600 (Central Standard Time),507654.90000003576,019_m_f_d_a.png,O,z,1378,5,1,2391.100000023842,505263.8000000119,7254,VNB,C,3
2,test,2,0.0,2-Back,0.0,m,Fri Dec 05 2025 09:55:09 GMT-0600 (Central Standard Time),509672.10000002384,025_y_m_h_a.png,O,z,987,6,1,2012.1000000238419,507660.0,7254,VNB,C,4
3,test,2,0.0,2-Back,1.0,m,Fri Dec 05 2025 09:55:09 GMT-0600 (Central Standard Time),511969.90000003576,012_o_f_n_a.png,O,m,1271,7,1,2289.2000000476837,509680.6999999881,7254,VNB,C,5
4,test,2,1.0,2-Back,1.0,z,Fri Dec 05 2025 09:55:09 GMT-0600 (Central Standard Time),514237.40000003576,015_o_m_h_a.png,O,z,1241,8,1,2257.5,511979.90000003576,7254,VNB,C,6
5,test,2,0.0,2-Back,1.0,m,Fri Dec 05 2025 09:55:09 GMT-0600 (Central Standard Time),517169.10000002384,022_y_f_d_a.png,O,m,1886,9,1,2918.300000011921,514250.8000000119,7254,VNB,C,7
5,test,2,0.0,2-Back,0.0,m,Fri Dec 05 2025 09:55:09 GMT-0600 (Central Standard Time),520201.60000002384,025_y_m_d_a.png,O,None,2016,10,1,3023.100000023842,517178.5,7254,VNB,C,8
6,test,2,0.0,2-Back,1.0,m,Fri Dec 05 2025 09:55:09 GMT-0600 (Central Standard Time),523166.40000003576,014_m_m_n_a.png,O,m,1947,11,1,2952.900000035763,520213.5,7254,VNB,C,9
7,test,2,0.0,2-Back,1.0,m,Fri Dec 05 2025 09:55:09 GMT-0600 (Central Standard Time),525916.3000000119,019_m_f_h_a.png,O,m,1716,12,1,2740.899999976158,523175.40000003576,7254,VNB,C,10
8,test,2,1.0,2-Back,1.0,z,Fri Dec 05 2025 09:55:09 GMT-0600 (Central Standard Time),528665.4000000358,015_o_m_n_a.png,O,z,1719,13,1,2740.600000023842,525924.8000000119,7254,VNB,C,11
9,test,2,0.0,2-Back,1.0,m,Fri Dec 05 2025 09:55:09 GMT-0600 (Central Standard Time),530730.1000000238,012_o_f_d_a.png,O,m,1041,14,1,2055.5,528674.6000000238,7254,VNB,C,12
10,test,2,0.0,2-Back,1.0,m,Fri Dec 05 2025 09:55:09 GMT-0600 (Central Standard Time),533479.5,022_y_f_h_a.png,O,m,1720,15,1,2741.899999976158,530737.6000000238,7254,VNB,C,13
11,test,2,0.0,2-Back,1.0,z,Fri Dec 05 2025 09:55:09 GMT-0600 (Central Standard Time),535763.3000000119,014_m_m_d_a.png,O,z,1259,16,1,2278.800000011921,533484.5,7254,VNB,C,14
11,test,2,0.0,2-Back,0.0,m,Fri Dec 05 2025 09:55:09 GMT-0600 (Central Standard Time),538494.8000000119,025_y_m_n_a.png,O,z,1705,17,1,2726.600000023842,535768.1999999881,7254,VNB,C,15
12,test,2,1.0,2-Back,1.0,m,Fri Dec 05 2025 09:55:09 GMT-0600 (Central Standard Time),541394.8000000119,019_m_f_n_a.png,O,m,1867,18,1,2890.300000011921,538504.5,7254,VNB,C,16
0,test,3,1.0,2-Back,,,Fri Dec 05 2025 09:55:09 GMT-0600 (Central Standard Time),541394.8000000119,015_o_m_n_a.png,O,space,10967,1,1,2890.300000011921,538504.5,7254,VNB,C,0
0,test,3,1.0,2-Back,,,Fri Dec 05 2025 09:55:09 GMT-0600 (Central Standard Time),541394.8000000119,012_o_f_d_a.png,O,space,10967,2,1,2890.300000011921,538504.5,7254,VNB,C,0
1,test,3,0.0,2-Back,1.0,m,Fri Dec 05 2025 09:55:09 GMT-0600 (Central Standard Time),559838.5,022_y_f_h_a.png,O,m,1398,3,1,2404.800000011921,557433.6999999881,7254,VNB,C,1
2,test,3,0.0,2-Back,1.0,z,Fri Dec 05 2025 09:55:09 GMT-0600 (Central Standard Time),562288.6000000238,019_m_f_d_a.png,O,z,1429,4,1,2441.400000035763,559847.1999999881,7254,VNB,C,2
3,test,3,1.0,2-Back,1.0,m,Fri Dec 05 2025 09:55:09 GMT-0600 (Central Standard Time),565120.1999999881,025_y_m_n_a.png,O,m,1812,5,1,2820.2999999523163,562299.9000000358,7254,VNB,C,3
3,test,3,0.0,2-Back,0.0,m,Fri Dec 05 2025 09:55:09 GMT-0600 (Central Standard Time),568136.6000000238,015_o_m_h_a.png,O,None,2001,6,1,3008.0,565128.6000000238,7254,VNB,C,4
4,test,3,0.0,2-Back,1.0,z,Fri Dec 05 2025 09:55:09 GMT-0600 (Central Standard Time),570836.6000000238,022_y_f_n_a.png,O,z,1668,7,1,2692.100000023842,568144.5,7254,VNB,C,5
5,test,3,1.0,2-Back,1.0,m,Fri Dec 05 2025 09:55:09 GMT-0600 (Central Standard Time),573151.6999999881,014_m_m_d_a.png,O,m,1289,8,1,2309.2999999523163,570842.4000000358,7254,VNB,C,6
5,test,3,0.0,2-Back,0.0,m,Fri Dec 05 2025 09:55:09 GMT-0600 (Central Standard Time),575216.9000000358,025_y_m_d_a.png,O,z,1046,9,1,2059.7000000476837,573157.1999999881,7254,VNB,C,7
6,test,3,0.0,2-Back,1.0,m,Fri Dec 05 2025 09:55:09 GMT-0600 (Central Standard Time),577365.3000000119,012_o_f_h_a.png,O,m,1122,10,1,2141.800000011921,575223.5,7254,VNB,C,8
7,test,3,1.0,2-Back,1.0,m,Fri Dec 05 2025 09:55:09 GMT-0600 (Central Standard Time),579414.9000000358,019_m_f_n_a.png,O,m,1019,11,1,2042.0,577372.9000000358,7254,VNB,C,9
8,test,3,1.0,2-Back,1.0,z,Fri Dec 05 2025 09:55:09 GMT-0600 (Central Standard Time),581581.9000000358,014_m_m_h_a.png,O,z,1133,12,1,2159.300000011921,579422.6000000238,7254,VNB,C,10
9,test,3,0.0,2-Back,1.0,m,Fri Dec 05 2025 09:55:09 GMT-0600 (Central Standard Time),583497.8000000119,022_y_f_d_a.png,O,m,893,13,1,1906.300000011921,581591.5,7254,VNB,C,11
9,test,3,0.0,2-Back,0.0,m,Fri Dec 05 2025 09:55:09 GMT-0600 (Central Standard Time),585863.4000000358,012_o_f_n_a.png,O,z,1346,14,1,2360.100000023842,583503.3000000119,7254,VNB,C,12
10,test,3,0.0,2-Back,1.0,z,Fri Dec 05 2025 09:55:09 GMT-0600 (Central Standard Time),588112.3000000119,015_o_m_d_a.png,O,z,1219,15,1,2241.0,585871.3000000119,7254,VNB,C,13
11,test,3,1.0,2-Back,1.0,m,Fri Dec 05 2025 09:55:09 GMT-0600 (Central Standard Time),590177.1000000238,019_m_f_h_a.png,O,m,1042,16,1,2060.100000023842,588117.0,7254,VNB,C,14
11,test,3,0.0,2-Back,0.0,m,Fri Dec 05 2025 09:55:09 GMT-0600 (Central Standard Time),592944.6000000238,014_m_m_n_a.png,O,z,1736,17,1,2760.5,590184.1000000238,7254,VNB,C,15
12,test,3,0.0,2-Back,1.0,z,Fri Dec 05 2025 09:55:09 GMT-0600 (Central Standard Time),595710.6999999881,025_y_m_h_a.png,O,z,1738,18,1,2755.399999976158,592955.3000000119,7254,VNB,C,16
0,test,4,0.0,2-Back,,,Fri Dec 05 2025 09:55:09 GMT-0600 (Central Standard Time),595710.6999999881,019_m_f_n_a.png,O,space,1750,1,1,2755.399999976158,592955.3000000119,7254,VNB,C,0
0,test,4,0.0,2-Back,,,Fri Dec 05 2025 09:55:09 GMT-0600 (Central Standard Time),595710.6999999881,015_o_m_n_a.png,O,space,1750,2,1,2755.399999976158,592955.3000000119,7254,VNB,C,0
1,test,4,1.0,2-Back,1.0,m,Fri Dec 05 2025 09:55:09 GMT-0600 (Central Standard Time),605039.4000000358,025_y_m_h_a.png,O,m,1325,3,1,2345.2000000476837,602694.1999999881,7254,VNB,C,1
1,test,4,1.0,2-Back,0.0,m,Fri Dec 05 2025 09:55:09 GMT-0600 (Central Standard Time),607689.6000000238,012_o_f_d_a.png,O,z,1626,4,1,2642.800000011921,605046.8000000119,7254,VNB,C,2
2,test,4,0.0,2-Back,1.0,z,Fri Dec 05 2025 09:55:09 GMT-0600 (Central Standard Time),610122.1000000238,015_o_m_h_a.png,O,z,1402,5,1,2426.300000011921,607695.8000000119,7254,VNB,C,3
3,test,4,0.0,2-Back,1.0,m,Fri Dec 05 2025 09:55:09 GMT-0600 (Central Standard Time),612971.8000000119,014_m_m_n_a.png,O,m,1827,6,1,2839.0,610132.8000000119,7254,VNB,C,4
4,test,4,0.0,2-Back,1.0,m,Fri Dec 05 2025 09:55:09 GMT-0600 (Central Standard Time),615619.5,019_m_f_d_a.png,O,m,1623,7,1,2642.399999976158,612977.1000000238,7254,VNB,C,5
5,test,4,0.0,2-Back,1.0,z,Fri Dec 05 2025 09:55:09 GMT-0600 (Central Standard Time),617722.5,022_y_f_n_a.png,O,z,1083,8,1,2093.699999988079,615628.8000000119,7254,VNB,C,6
6,test,4,1.0,2-Back,1.0,m,Fri Dec 05 2025 09:55:09 GMT-0600 (Central Standard Time),620136.5,012_o_f_h_a.png,O,m,1395,9,1,2405.300000011921,617731.1999999881,7254,VNB,C,7
7,test,4,0.0,2-Back,1.0,m,Fri Dec 05 2025 09:55:09 GMT-0600 (Central Standard Time),623102.0,014_m_m_h_a.png,O,m,1947,10,1,2956.399999976158,620145.6000000238,7254,VNB,C,8
8,test,4,0.0,2-Back,1.0,m,Fri Dec 05 2025 09:55:09 GMT-0600 (Central Standard Time),625316.8000000119,022_y_f_d_a.png,O,m,1183,11,1,2207.800000011921,623109.0,7254,VNB,C,9
9,test,4,0.0,2-Back,1.0,m,Fri Dec 05 2025 09:55:09 GMT-0600 (Central Standard Time),628100.0,025_y_m_n_a.png,O,m,1752,12,1,2772.300000011921,625327.6999999881,7254,VNB,C,10
10,test,4,0.0,2-Back,1.0,z,Fri Dec 05 2025 09:55:09 GMT-0600 (Central Standard Time),630481.8000000119,015_o_m_d_a.png,O,z,1347,13,1,2368.199999988079,628113.6000000238,7254,VNB,C,11
11,test,4,1.0,2-Back,1.0,m,Fri Dec 05 2025 09:55:09 GMT-0600 (Central Standard Time),632648.5,019_m_f_h_a.png,O,m,1137,14,1,2157.099999964237,630491.4000000358,7254,VNB,C,12
12,test,4,1.0,2-Back,1.0,m,Fri Dec 05 2025 09:55:09 GMT-0600 (Central Standard Time),635463.6000000238,022_y_f_h_a.png,O,m,1782,15,1,2805.0,632658.6000000238,7254,VNB,C,13
13,test,4,0.0,2-Back,1.0,m,Fri Dec 05 2025 09:55:09 GMT-0600 (Central Standard Time),637846.8000000119,012_o_f_n_a.png,O,m,1354,16,1,2375.5,635471.3000000119,7254,VNB,C,14
14,test,4,0.0,2-Back,1.0,m,Fri Dec 05 2025 09:55:09 GMT-0600 (Central Standard Time),640828.4000000358,025_y_m_d_a.png,O,m,1932,17,1,2968.5,637859.9000000358,7254,VNB,C,15
15,test,4,1.0,2-Back,1.0,m,Fri Dec 05 2025 09:55:09 GMT-0600 (Central Standard Time),643495.5,014_m_m_d_a.png,O,m,1647,18,1,2657.699999988079,640837.8000000119,7254,VNB,C,16
0,test,5,1.0,2-Back,,,Fri Dec 05 2025 09:55:09 GMT-0600 (Central Standard Time),643495.5,022_y_f_d_a.png,O,space,2444,1,1,2657.699999988079,640837.8000000119,7254,VNB,C,0
0,test,5,1.0,2-Back,,,Fri Dec 05 2025 09:55:09 GMT-0600 (Central Standard Time),643495.5,012_o_f_h_a.png,O,space,2444,2,1,2657.699999988079,640837.8000000119,7254,VNB,C,0
1,test,5,1.0,2-Back,1.0,z,Fri Dec 05 2025 09:55:09 GMT-0600 (Central Standard Time),653708.9000000358,015_o_m_d_a.png,O,z,1534,3,1,2543.800000011921,651165.1000000238,7254,VNB,C,1
2,test,5,1.0,2-Back,1.0,m,Fri Dec 05 2025 09:55:09 GMT-0600 (Central Standard Time),655724.5,019_m_f_n_a.png,O,m,988,4,1,2009.0,653715.5,7254,VNB,C,2
2,test,5,0.0,2-Back,0.0,m,Fri Dec 05 2025 09:55:09 GMT-0600 (Central Standard Time),658758.1999999881,014_m_m_h_a.png,O,None,2017,5,1,3026.099999964237,655732.1000000238,7254,VNB,C,3
3,test,5,0.0,2-Back,1.0,z,Fri Dec 05 2025 09:55:09 GMT-0600 (Central Standard Time),661039.8000000119,022_y_f_n_a.png,O,z,1252,6,1,2269.0,658770.8000000119,7254,VNB,C,4
3,test,5,0.0,2-Back,0.0,m,Fri Dec 05 2025 09:55:09 GMT-0600 (Central Standard Time),664072.3000000119,012_o_f_d_a.png,O,None,2016,7,1,3025.300000011921,661047.0,7254,VNB,C,5
4,test,5,0.0,2-Back,1.0,m,Fri Dec 05 2025 09:55:09 GMT-0600 (Central Standard Time),667038.3000000119,015_o_m_h_a.png,O,m,1940,8,1,2959.699999988079,664078.6000000238,7254,VNB,C,6
5,test,5,1.0,2-Back,1.0,z,Fri Dec 05 2025 09:55:09 GMT-0600 (Central Standard Time),669685.4000000358,019_m_f_d_a.png,O,z,1621,9,1,2639.800000011921,667045.6000000238,7254,VNB,C,7
5,test,5,0.0,2-Back,0.0,m,Fri Dec 05 2025 09:55:09 GMT-0600 (Central Standard Time),672652.5,025_y_m_n_a.png,O,z,1940,10,1,2964.099999964237,669688.4000000358,7254,VNB,C,8
5,test,5,0.0,2-Back,0.0,m,Fri Dec 05 2025 09:55:09 GMT-0600 (Central Standard Time),675653.9000000358,014_m_m_n_a.png,O,z,1983,11,1,2994.600000023842,672659.3000000119,7254,VNB,C,9
5,test,5,0.0,2-Back,0.0,m,Fri Dec 05 2025 09:55:09 GMT-0600 (Central Standard Time),678670.6999999881,022_y_f_h_a.png,O,None,2002,12,1,3012.599999964237,675658.1000000238,7254,VNB,C,10
6,test,5,0.0,2-Back,1.0,m,Fri Dec 05 2025 09:55:09 GMT-0600 (Central Standard Time),681217.0,025_y_m_d_a.png,O,m,1510,13,1,2535.800000011921,678681.1999999881,7254,VNB,C,11
7,test,5,1.0,2-Back,1.0,z,Fri Dec 05 2025 09:55:09 GMT-0600 (Central Standard Time),684182.4000000358,019_m_f_h_a.png,O,z,1938,14,1,2955.2000000476837,681227.1999999881,7254,VNB,C,12
8,test,5,0.0,2-Back,1.0,m,Fri Dec 05 2025 09:55:09 GMT-0600 (Central Standard Time),686914.6999999881,015_o_m_n_a.png,O,m,1707,15,1,2722.2999999523163,684192.4000000358,7254,VNB,C,13
8,test,5,0.0,2-Back,0.0,m,Fri Dec 05 2025 09:55:09 GMT-0600 (Central Standard Time),689446.5,014_m_m_d_a.png,O,z,1512,16,1,2524.899999976158,686921.6000000238,7254,VNB,C,14
9,test,5,0.0,2-Back,1.0,z,Fri Dec 05 2025 09:55:09 GMT-0600 (Central Standard Time),692362.4000000358,012_o_f_n_a.png,O,z,1882,17,1,2909.300000011921,689453.1000000238,7254,VNB,C,15
10,test,5,1.0,2-Back,1.0,m,Fri Dec 05 2025 09:55:09 GMT-0600 (Central Standard Time),694712.4000000358,025_y_m_h_a.png,O,m,1328,18,1,2343.400000035763,692369.0,7254,VNB,C,16
