acc_sum,block,block_c,condition,correct,correct_response,datetime,endtime,flanker,jitter,project,response,response_test_buffer_response,response_test_target_response,response_time,response_time_test_buffer_response,response_time_test_target_response,row_sel,session_number,start_end,starttime,subject_id,target,task,task_vers,time_test_buffer,time_test_buffer_response,time_test_constants,time_test_flanker,time_test_jitter,time_test_logger,time_test_target,time_test_target_response,time_test_variables,trial
1,prac,1,con,1,m,Tue Jun 09 2026 13:37:06 GMT-0500 (Central Daylight Time),71228.10000014305,remote,1000,I,m,,,694,,,7,1,2994.4000000953674,68233.70000004768,8121,remote,AF,A,,,,,,,,,,1
2,prac,1,con,1,z,Tue Jun 09 2026 13:37:06 GMT-0500 (Central Daylight Time),73993.79999995232,rage,1000,I,z,,,455,,,15,1,2758.5,71235.29999995232,8121,rage,AF,A,,,,,,,,,,2
3,prac,1,con,1,z,Tue Jun 09 2026 13:37:06 GMT-0500 (Central Daylight Time),76593.0,elated,800,I,z,,,496,,,9,1,2593.5999999046326,73999.40000009537,8121,elated,AF,A,,,,,,,,,,3
4,prac,1,con,1,m,Tue Jun 09 2026 13:37:06 GMT-0500 (Central Daylight Time),79358.60000014305,bell,1000,I,m,,,459,,,3,1,2760.7000000476837,76597.90000009537,8121,bell,AF,A,,,,,,,,,,4
5,prac,1,con,1,m,Tue Jun 09 2026 13:37:06 GMT-0500 (Central Daylight Time),81958.10000014305,jacket,800,I,m,,,500,,,5,1,2594.7000000476837,79363.40000009537,8121,jacket,AF,A,,,,,,,,,,5
6,prac,1,inc,1,m,Tue Jun 09 2026 13:37:06 GMT-0500 (Central Daylight Time),84850.10000014305,kind,900,I,m,,,601,,,2,1,2887.0,81963.10000014305,8121,rock,AF,A,,,,,,,,,,6
7,prac,1,con,1,m,Tue Jun 09 2026 13:37:06 GMT-0500 (Central Daylight Time),87423.0,step,800,I,m,,,450,,,1,1,2566.5999999046326,84856.40000009537,8121,step,AF,A,,,,,,,,,,7
8,prac,1,con,1,z,Tue Jun 09 2026 13:37:06 GMT-0500 (Central Daylight Time),90122.0,love,1000,I,z,,,397,,,11,1,2694.2000000476837,87427.79999995232,8121,love,AF,A,,,,,,,,,,8
9,prac,1,inc,1,z,Tue Jun 09 2026 13:37:06 GMT-0500 (Central Daylight Time),93021.20000004768,rock,900,I,z,,,685,,,10,1,2894.5999999046326,90126.60000014305,8121,kind,AF,A,,,,,,,,,,9
10,prac,1,inc,1,z,Tue Jun 09 2026 13:37:06 GMT-0500 (Central Daylight Time),95953.5,film,900,I,z,,,723,,,14,1,2926.7000000476837,93026.79999995232,8121,hate,AF,A,,,,,,,,,,10
11,prac,1,inc,1,m,Tue Jun 09 2026 13:37:06 GMT-0500 (Central Daylight Time),99102.79999995232,brutal,1100,I,m,,,733,,,8,1,3143.5999999046326,95959.20000004768,8121,window,AF,A,,,,,,,,,,11
12,prac,1,inc,1,m,Tue Jun 09 2026 13:37:06 GMT-0500 (Central Daylight Time),102101.60000014305,hate,1100,I,m,,,592,,,4,1,2994.2000000476837,99107.40000009537,8121,film,AF,A,,,,,,,,,,12
13,prac,1,inc,1,z,Tue Jun 09 2026 13:37:06 GMT-0500 (Central Daylight Time),105100.60000014305,window,1100,I,z,,,585,,,16,1,2994.4000000953674,102106.20000004768,8121,temper,AF,A,,,,,,,,,,13
14,prac,1,con,1,z,Tue Jun 09 2026 13:37:06 GMT-0500 (Central Daylight Time),107916.5,brutal,800,I,z,,,710,,,13,1,2811.5,105105.0,8121,brutal,AF,A,,,,,,,,,,14
15,prac,1,inc,1,z,Tue Jun 09 2026 13:37:06 GMT-0500 (Central Daylight Time),111032.20000004768,napkin,1100,I,z,,,714,,,12,1,3111.2000000476837,107921.0,8121,friend,AF,A,,,,,,,,,,15
16,prac,1,inc,1,m,Tue Jun 09 2026 13:37:06 GMT-0500 (Central Daylight Time),113897.79999995232,elated,900,I,m,,,662,,,6,1,2861.199999809265,111036.60000014305,8121,napkin,AF,A,,,,,,,,,,16
1,test,1,con,1,m,Tue Jun 09 2026 13:37:06 GMT-0500 (Central Daylight Time),120312.5,napkin,900,I,m,m,None,565,366.0,199.0,106,1,2011.2999999523163,118301.20000004768,8121,napkin,AF,A,114608,114608,112979,113891,112980,114991,114407,114408,114990,1
2,test,1,inc,1,m,Tue Jun 09 2026 13:37:06 GMT-0500 (Central Daylight Time),122228.5,elated,800,I,m,m,None,569,370.0,199.0,109,1,1911.2000000476837,120317.29999995232,8121,napkin,AF,A,116524,116524,114995,115807,114996,116907,116324,116324,116907,2
3,test,1,inc,1,z,Tue Jun 09 2026 13:37:06 GMT-0500 (Central Daylight Time),124511.20000004768,remote,1000,I,z,z,None,734,534.0,200.0,39,1,2277.7999999523163,122233.40000009537,8121,brutal,AF,A,118640,118640,116911,117923,116912,119189,118439,118439,119189,3
4,test,1,con,1,z,Tue Jun 09 2026 13:37:06 GMT-0500 (Central Daylight Time),126710.60000014305,elated,1100,I,z,z,None,561,361.0,200.0,4,1,2194.800000190735,124515.79999995232,8121,elated,AF,A,121022,121022,119194,120306,119194,121389,120822,120822,121389,4
5,test,1,con,1,m,Tue Jun 09 2026 13:37:06 GMT-0500 (Central Daylight Time),128810.0,film,1000,I,m,m,None,556,357.0,199.0,91,1,2095.0,126715.0,8121,film,AF,A,123122,123122,121393,122405,121393,123488,122922,122922,123488,5
6,test,1,con,1,m,Tue Jun 09 2026 13:37:06 GMT-0500 (Central Daylight Time),130975.70000004768,step,1000,I,m,m,None,626,426.0,200.0,67,1,2161.2999999523163,128814.40000009537,8121,step,AF,A,125221,125221,123492,124504,123493,125654,125021,125021,125654,6
7,test,1,inc,1,z,Tue Jun 09 2026 13:37:06 GMT-0500 (Central Daylight Time),132991.70000004768,jacket,800,I,z,z,None,634,434.0,200.0,61,1,2011.4000000953674,130980.29999995232,8121,temper,AF,A,127220,127220,125658,126518,125659,127670,127020,127020,127670,7
8,test,1,con,1,z,Tue Jun 09 2026 13:37:06 GMT-0500 (Central Daylight Time),134958.0,rage,1000,I,z,z,None,428,228.0,200.0,51,1,1960.7999999523163,132997.20000004768,8121,rage,AF,A,129403,129403,127675,128686,127676,129636,129203,129203,129636,8
9,test,1,inc,1,z,Tue Jun 09 2026 13:37:06 GMT-0500 (Central Daylight Time),137207.29999995232,window,1100,I,z,z,None,610,410.0,200.0,64,1,2244.7999999523163,134962.5,8121,temper,AF,A,131469,131469,129641,130753,129641,131885,131269,131269,131885,9
10,test,1,inc,1,m,Tue Jun 09 2026 13:37:06 GMT-0500 (Central Daylight Time),139289.70000004768,temper,1000,I,m,m,None,549,349.0,200.0,111,1,2077.7000000476837,137212.0,8121,napkin,AF,A,133618,133618,131890,132902,131890,133968,133418,133418,133968,10
11,test,1,inc,1,z,Tue Jun 09 2026 13:37:06 GMT-0500 (Central Daylight Time),141289.40000009537,step,800,I,z,z,None,658,457.0,201.0,53,1,1994.9000000953674,139294.5,8121,rage,AF,A,135502,135502,133972,134785,133973,135967,135301,135301,135967,11
12,test,1,con,1,m,Tue Jun 09 2026 13:37:06 GMT-0500 (Central Daylight Time),143505.20000004768,remote,1000,I,m,m,None,674,475.0,199.0,115,1,2211.0,141294.20000004768,8121,remote,AF,A,137700,137700,135972,136984,135973,138183,137501,137501,138183,12
13,test,1,con,1,z,Tue Jun 09 2026 13:37:06 GMT-0500 (Central Daylight Time),145338.10000014305,brutal,800,I,z,z,None,489,289.0,200.0,33,1,1828.4000000953674,143509.70000004768,8121,brutal,AF,A,139717,139717,138188,139000,138188,140016,139516,139516,140016,13
14,test,1,con,1,m,Tue Jun 09 2026 13:37:06 GMT-0500 (Central Daylight Time),147237.29999995232,rock,800,I,m,m,None,562,362.0,200.0,73,1,1894.8999998569489,145342.40000009537,8121,rock,AF,A,141549,141549,140020,140833,140021,141915,141349,141349,141915,14
15,test,1,inc,1,m,Tue Jun 09 2026 13:37:06 GMT-0500 (Central Daylight Time),149503.20000004768,hate,1100,I,m,m,None,618,418.0,200.0,72,1,2261.4000000953674,147241.79999995232,8121,step,AF,A,143748,143748,141920,143032,141920,144181,143548,143548,144181,15
16,test,1,con,1,z,Tue Jun 09 2026 13:37:06 GMT-0500 (Central Daylight Time),151669.29999995232,rage,1100,I,z,z,None,526,327.0,199.0,52,1,2161.5999999046326,149507.70000004768,8121,rage,AF,A,146015,146015,144186,145298,144186,146347,145815,145815,146347,16
17,test,1,inc,1,m,Tue Jun 09 2026 13:37:06 GMT-0500 (Central Daylight Time),153702.0,kind,900,I,m,m,None,593,394.0,199.0,94,1,2027.7000000476837,151674.29999995232,8121,film,AF,A,147980,147981,146352,147264,146353,148380,147781,147781,148380,17
18,test,1,con,1,m,Tue Jun 09 2026 13:37:06 GMT-0500 (Central Daylight Time),155584.70000004768,bell,900,I,m,m,None,449,185.0,264.0,82,1,1878.0999999046326,153706.60000014305,8121,bell,AF,A,150077,150077,148385,149297,148385,150263,149813,149813,150263,18
19,test,1,con,1,z,Tue Jun 09 2026 13:37:06 GMT-0500 (Central Daylight Time),157667.70000004768,elated,900,I,z,z,None,645,446.0,199.0,2,1,2075.2000000476837,155592.5,8121,elated,AF,A,151896,151896,150271,151179,150271,152346,151696,151696,152346,19
20,test,1,con,1,m,Tue Jun 09 2026 13:37:06 GMT-0500 (Central Daylight Time),159683.40000009537,napkin,1000,I,m,m,None,471,272.0,199.0,107,1,2011.2999999523163,157672.10000014305,8121,napkin,AF,A,154079,154079,152350,153362,152350,154362,153879,153879,154361,20
21,test,1,con,1,m,Tue Jun 09 2026 13:37:06 GMT-0500 (Central Daylight Time),161932.79999995232,window,900,I,m,m,None,811,611.0,200.0,122,1,2245.0,159687.79999995232,8121,window,AF,A,155995,155995,154366,155278,154366,156611,155795,155795,156611,21
22,test,1,con,1,m,Tue Jun 09 2026 13:37:06 GMT-0500 (Central Daylight Time),164048.70000004768,rock,900,I,m,m,None,675,475.0,200.0,74,1,2109.5999999046326,161939.10000014305,8121,rock,AF,A,158244,158244,156617,157527,156617,158727,158044,158044,158727,22
23,test,1,con,1,m,Tue Jun 09 2026 13:37:06 GMT-0500 (Central Daylight Time),166015.0,rock,1000,I,m,m,None,418,218.0,200.0,75,1,1961.5999999046326,164053.40000009537,8121,rock,AF,A,160460,160460,158731,159743,158732,160693,160260,160260,160693,23
24,test,1,inc,1,z,Tue Jun 09 2026 13:37:06 GMT-0500 (Central Daylight Time),167914.0,step,800,I,z,z,None,565,365.0,200.0,45,1,1894.5,166019.5,8121,hate,AF,A,162226,162226,160698,161510,160698,162592,162026,162026,162592,24
25,test,1,con,1,m,Tue Jun 09 2026 13:37:06 GMT-0500 (Central Daylight Time),170096.90000009537,rock,1100,I,m,m,None,542,342.0,200.0,76,1,2178.7999999523163,167918.10000014305,8121,rock,AF,A,164425,164425,162596,163709,162596,164775,164225,164225,164775,25
26,test,1,con,1,m,Tue Jun 09 2026 13:37:06 GMT-0500 (Central Daylight Time),172246.10000014305,step,900,I,m,m,None,702,502.0,200.0,66,1,2144.600000143051,170101.5,8121,step,AF,A,166408,166408,164780,165692,164780,166924,166208,166208,166924,26
27,test,1,inc,1,m,Tue Jun 09 2026 13:37:06 GMT-0500 (Central Daylight Time),174445.60000014305,friend,1100,I,m,m,None,561,362.0,199.0,104,1,2195.100000143051,172250.5,8121,jacket,AF,A,168757,168757,166929,168041,166929,169124,168558,168558,169124,27
28,test,1,inc,1,z,Tue Jun 09 2026 13:37:06 GMT-0500 (Central Daylight Time),176511.70000004768,step,800,I,z,z,None,717,517.0,200.0,13,1,2061.7000000476837,174450.0,8121,kind,AF,A,170657,170657,169128,169940,169128,171190,170457,170457,171190,28
29,test,1,inc,1,m,Tue Jun 09 2026 13:37:06 GMT-0500 (Central Daylight Time),178578.0,temper,1000,I,m,m,None,530,331.0,199.0,127,1,2061.5,176516.5,8121,window,AF,A,172923,172923,171195,172206,171195,173256,172723,172723,173256,29
30,test,1,con,1,m,Tue Jun 09 2026 13:37:06 GMT-0500 (Central Daylight Time),181244.20000004768,jacket,1100,I,m,m,None,1020,821.0,199.0,100,1,2662.2000000476837,178582.0,8121,jacket,AF,A,175089,175089,173260,174372,173260,175922,174889,174889,175922,30
31,test,1,con,1,z,Tue Jun 09 2026 13:37:06 GMT-0500 (Central Daylight Time),183426.20000004768,elated,1000,I,z,z,None,640,441.0,199.0,3,1,2177.4000000953674,181248.79999995232,8121,elated,AF,A,177654,177654,175927,176938,175927,178104,177455,177455,178104,31
32,test,1,con,1,m,Tue Jun 09 2026 13:37:06 GMT-0500 (Central Daylight Time),185475.40000009537,film,900,I,m,m,None,612,413.0,199.0,90,1,2044.7000000476837,183430.70000004768,8121,film,AF,A,179737,179737,178109,179021,178109,180154,179538,179538,180153,32
33,test,1,con,1,z,Tue Jun 09 2026 13:37:06 GMT-0500 (Central Daylight Time),187508.20000004768,friend,1000,I,z,z,None,495,296.0,199.0,27,1,2028.7999999523163,185479.40000009537,8121,friend,AF,A,181887,181887,180157,181170,180158,182186,181687,181687,182186,33
34,test,1,inc,1,z,Tue Jun 09 2026 13:37:06 GMT-0500 (Central Daylight Time),189624.29999995232,bell,1000,I,z,z,None,583,383.0,200.0,55,1,2112.0999999046326,187512.20000004768,8121,rage,AF,A,183919,183919,182190,183203,182191,184302,183719,183719,184302,34
35,test,1,inc,1,z,Tue Jun 09 2026 13:37:06 GMT-0500 (Central Daylight Time),191823.70000004768,film,1100,I,z,z,None,559,359.0,200.0,48,1,2195.5999999046326,189628.10000014305,8121,hate,AF,A,186136,186136,184306,185419,184306,186502,185935,185935,186502,35
36,test,1,con,1,z,Tue Jun 09 2026 13:37:06 GMT-0500 (Central Daylight Time),193822.70000004768,hate,1000,I,z,z,None,450,251.0,199.0,43,1,1994.2000000476837,191828.5,8121,hate,AF,A,188235,188235,186507,187518,186507,188501,188035,188035,188501,36
37,test,1,con,1,z,Tue Jun 09 2026 13:37:06 GMT-0500 (Central Daylight Time),195838.79999995232,kind,1000,I,z,z,None,468,268.0,200.0,11,1,2011.1999998092651,193827.60000014305,8121,kind,AF,A,190234,190234,188506,189518,188506,190517,190034,190034,190517,37
38,test,1,inc,1,m,Tue Jun 09 2026 13:37:06 GMT-0500 (Central Daylight Time),197905.0,brutal,900,I,m,m,None,633,433.0,200.0,102,1,2062.0,195843.0,8121,jacket,AF,A,192150,192150,190521,191434,190521,192583,191950,191950,192583,38
39,test,1,inc,1,m,Tue Jun 09 2026 13:37:06 GMT-0500 (Central Daylight Time),200104.5,temper,1000,I,m,m,None,650,450.0,200.0,119,1,2194.7000000476837,197909.79999995232,8121,remote,AF,A,194316,194316,192588,193599,192588,194783,194116,194116,194783,39
40,test,1,inc,1,z,Tue Jun 09 2026 13:37:06 GMT-0500 (Central Daylight Time),202120.20000004768,napkin,900,I,z,z,None,573,374.0,199.0,38,1,2011.0,200109.20000004768,8121,brutal,AF,A,196415,196416,194787,195699,194787,196798,196216,196216,196798,40
41,test,1,inc,1,z,Tue Jun 09 2026 13:37:06 GMT-0500 (Central Daylight Time),204269.70000004768,jacket,800,I,z,z,None,810,611.0,199.0,29,1,2145.2999999523163,202124.40000009537,8121,friend,AF,A,198331,198331,196802,197615,196803,198948,198131,198132,198948,41
42,test,1,inc,1,z,Tue Jun 09 2026 13:37:06 GMT-0500 (Central Daylight Time),206418.90000009537,film,1100,I,z,z,None,505,306.0,199.0,24,1,2144.5,204274.40000009537,8121,love,AF,A,200780,200780,198952,200064,198953,201097,200581,200581,201097,42
43,test,1,inc,1,z,Tue Jun 09 2026 13:37:06 GMT-0500 (Central Daylight Time),208318.40000009537,rock,900,I,z,z,None,461,261.0,200.0,46,1,1895.2999999523163,206423.10000014305,8121,hate,AF,A,202730,202730,201101,202014,201102,202997,202530,202530,202996,43
44,test,1,inc,1,z,Tue Jun 09 2026 13:37:06 GMT-0500 (Central Daylight Time),210584.10000014305,window,1100,I,z,z,None,616,417.0,199.0,8,1,2261.600000143051,208322.5,8121,elated,AF,A,204829,204829,203001,204113,203001,205262,204630,204630,205262,44
45,test,1,con,1,z,Tue Jun 09 2026 13:37:06 GMT-0500 (Central Daylight Time),212567.0,temper,900,I,z,z,None,535,335.0,200.0,58,1,1978.7000000476837,210588.29999995232,8121,temper,AF,A,206895,206895,205266,206179,205267,207245,206695,206695,207245,45
46,test,1,con,1,z,Tue Jun 09 2026 13:37:06 GMT-0500 (Central Daylight Time),214466.10000014305,love,1000,I,z,z,None,356,156.0,200.0,19,1,1895.1000001430511,212571.0,8121,love,AF,A,208978,208978,207249,208262,207249,209144,208778,208778,209144,46
47,test,1,con,1,z,Tue Jun 09 2026 13:37:06 GMT-0500 (Central Daylight Time),216300.40000009537,friend,900,I,z,z,None,395,196.0,199.0,26,1,1829.4000000953674,214471.0,8121,friend,AF,A,210777,210778,209149,210062,209149,210978,210578,210578,210978,47
48,test,1,inc,1,z,Tue Jun 09 2026 13:37:06 GMT-0500 (Central Daylight Time),218148.79999995232,step,800,I,z,z,None,504,304.0,200.0,21,1,1844.1999998092651,216304.60000014305,8121,love,AF,A,212510,212510,210983,211794,210983,212827,212310,212310,212827,48
49,test,1,inc,1,m,Tue Jun 09 2026 13:37:06 GMT-0500 (Central Daylight Time),220280.90000009537,love,1000,I,m,m,None,597,398.0,199.0,95,1,2128.2000000476837,218152.70000004768,8121,film,AF,A,214560,214560,212831,213843,212831,214959,214360,214360,214959,49
50,test,1,con,1,z,Tue Jun 09 2026 13:37:06 GMT-0500 (Central Daylight Time),222180.70000004768,friend,800,I,z,z,None,554,355.0,199.0,25,1,1895.9000000953674,220284.79999995232,8121,friend,AF,A,216492,216492,214963,215776,214963,216859,216292,216293,216859,50
51,test,1,con,1,m,Tue Jun 09 2026 13:37:06 GMT-0500 (Central Daylight Time),224213.29999995232,step,800,I,m,m,None,685,486.0,199.0,65,1,2028.3999998569489,222184.90000009537,8121,step,AF,A,218391,218392,216863,217675,216863,218891,218192,218192,218891,51
52,test,1,con,1,m,Tue Jun 09 2026 13:37:06 GMT-0500 (Central Daylight Time),226255.90000009537,jacket,900,I,m,m,None,593,393.0,200.0,98,1,2038.2999999523163,224217.60000014305,8121,jacket,AF,A,220524,220524,218896,219808,218896,220934,220324,220324,220934,52
53,test,1,con,1,z,Tue Jun 09 2026 13:37:06 GMT-0500 (Central Daylight Time),228078.90000009537,love,800,I,z,z,None,475,276.0,199.0,17,1,1815.0,226263.90000009537,8121,love,AF,A,222474,222474,220942,221757,220942,222757,222274,222274,222757,53
54,test,1,con,1,m,Tue Jun 09 2026 13:37:06 GMT-0500 (Central Daylight Time),230261.5,napkin,1100,I,m,m,None,536,337.0,199.0,108,1,2178.2999999523163,228083.20000004768,8121,napkin,AF,A,224590,224590,222761,223873,222761,224940,224390,224390,224940,54
55,test,1,con,1,m,Tue Jun 09 2026 13:37:06 GMT-0500 (Central Daylight Time),232360.60000014305,window,1100,I,m,m,None,458,258.0,200.0,124,1,2095.100000143051,230265.5,8121,window,AF,A,226773,226773,224944,226056,224944,227039,226572,226572,227039,55
55,test,1,con,0,z,Tue Jun 09 2026 13:37:06 GMT-0500 (Central Daylight Time),234143.29999995232,temper,800,I,m,m,None,443,243.0,200.0,57,1,1778.6999998092651,232364.60000014305,8121,temper,AF,A,228572,228572,227043,227856,227043,228822,228372,228372,228821,56
56,test,1,con,1,z,Tue Jun 09 2026 13:37:06 GMT-0500 (Central Daylight Time),236442.70000004768,hate,1100,I,z,z,None,654,454.0,200.0,44,1,2295.4000000953674,234147.29999995232,8121,hate,AF,A,230656,230656,228825,229938,228826,231121,230455,230455,231121,57
57,test,1,inc,1,m,Tue Jun 09 2026 13:37:06 GMT-0500 (Central Daylight Time),238408.79999995232,rage,800,I,m,m,None,632,433.0,199.0,77,1,1961.8999998569489,236446.90000009537,8121,rock,AF,A,232654,232654,231125,231937,231125,233087,232454,232454,233087,58
58,test,1,inc,1,z,Tue Jun 09 2026 13:37:06 GMT-0500 (Central Daylight Time),240391.70000004768,jacket,800,I,z,z,None,642,442.0,200.0,37,1,1979.0,238412.70000004768,8121,brutal,AF,A,234620,234620,233091,233904,233091,235070,234420,234420,235070,59
59,test,1,inc,1,z,Tue Jun 09 2026 13:37:06 GMT-0500 (Central Daylight Time),242324.40000009537,napkin,900,I,z,z,None,495,296.0,199.0,30,1,1928.2999999523163,240396.10000014305,8121,friend,AF,A,236703,236703,235074,235986,235074,237003,236503,236503,237002,60
60,test,1,con,1,m,Tue Jun 09 2026 13:37:06 GMT-0500 (Central Daylight Time),244440.40000009537,step,1100,I,m,m,None,466,267.0,199.0,68,1,2111.7000000476837,242328.70000004768,8121,step,AF,A,238835,238835,237007,238119,237007,239119,238636,238636,239118,61
61,test,1,inc,1,z,Tue Jun 09 2026 13:37:06 GMT-0500 (Central Daylight Time),246589.70000004768,film,1100,I,z,z,None,510,311.0,199.0,16,1,2144.7999999523163,244444.90000009537,8121,kind,AF,A,240951,240951,239123,240235,239123,241268,240752,240752,241268,62
62,test,1,inc,1,m,Tue Jun 09 2026 13:37:06 GMT-0500 (Central Daylight Time),248822.40000009537,friend,1100,I,m,m,None,594,394.0,200.0,120,1,2228.0,246594.40000009537,8121,remote,AF,A,243101,243101,241272,242384,241273,243501,242900,242900,243500,63
63,test,1,con,1,m,Tue Jun 09 2026 13:37:06 GMT-0500 (Central Daylight Time),250888.29999995232,bell,1100,I,m,m,None,433,233.0,200.0,84,1,2061.899999856949,248826.40000009537,8121,bell,AF,A,245333,245333,243504,244617,243505,245566,245133,245133,245566,64
64,test,1,con,1,z,Tue Jun 09 2026 13:37:06 GMT-0500 (Central Daylight Time),252920.70000004768,temper,1100,I,z,z,None,398,199.0,199.0,60,1,2028.0999999046326,250892.60000014305,8121,temper,AF,A,247399,247399,245571,246684,245571,247599,247200,247200,247599,65
65,test,1,con,1,m,Tue Jun 09 2026 13:37:06 GMT-0500 (Central Daylight Time),255020.40000009537,film,1100,I,m,m,None,462,263.0,199.0,92,1,2095.100000143051,252925.29999995232,8121,film,AF,A,249432,249432,247603,248715,247604,249698,249233,249233,249698,66
66,test,1,con,1,z,Tue Jun 09 2026 13:37:06 GMT-0500 (Central Daylight Time),256786.60000014305,rage,800,I,z,z,None,429,230.0,199.0,49,1,1761.8000001907349,255024.79999995232,8121,rage,AF,A,251232,251232,249703,250515,249703,251465,251032,251032,251465,67
67,test,1,inc,1,z,Tue Jun 09 2026 13:37:06 GMT-0500 (Central Daylight Time),258852.40000009537,bell,1000,I,z,z,None,519,320.0,199.0,47,1,2061.7999999523163,256790.60000014305,8121,hate,AF,A,253197,253198,251469,252481,251469,253530,252998,252998,253530,68
68,test,1,con,1,z,Tue Jun 09 2026 13:37:06 GMT-0500 (Central Daylight Time),260586.29999995232,kind,800,I,z,z,None,397,198.0,199.0,9,1,1729.5,258856.79999995232,8121,kind,AF,A,255064,255064,253535,254347,253535,255264,254864,254864,255264,69
69,test,1,con,1,m,Tue Jun 09 2026 13:37:06 GMT-0500 (Central Daylight Time),262451.2999999523,window,800,I,m,m,None,521,321.0,200.0,121,1,1860.8999998569489,260590.40000009537,8121,window,AF,A,256797,256798,255268,256080,255269,257129,256597,256597,257129,70
69,test,1,inc,0,m,Tue Jun 09 2026 13:37:06 GMT-0500 (Central Daylight Time),264300.7000000477,kind,900,I,z,z,None,410,211.0,199.0,86,1,1845.5,262455.2000000477,8121,bell,AF,A,258763,258763,257133,258046,257133,258979,258563,258563,258979,71
70,test,1,inc,1,m,Tue Jun 09 2026 13:37:06 GMT-0500 (Central Daylight Time),266516.60000014305,friend,1100,I,m,m,None,579,379.0,200.0,128,1,2211.800000190735,264304.7999999523,8121,window,AF,A,260812,260812,258983,260096,258983,261195,260612,260612,261195,72
71,test,1,inc,1,m,Tue Jun 09 2026 13:37:06 GMT-0500 (Central Daylight Time),268616.2000000477,brutal,900,I,m,m,None,659,459.0,200.0,118,1,2095.5999999046326,266520.60000014305,8121,remote,AF,A,262828,262828,261199,262112,261199,263294,262628,262628,263294,73
72,test,1,inc,1,m,Tue Jun 09 2026 13:37:06 GMT-0500 (Central Daylight Time),270732.10000014305,brutal,900,I,m,m,None,680,480.0,200.0,126,1,2111.5,268620.60000014305,8121,window,AF,A,264927,264927,263299,264211,263299,265410,264727,264727,265410,74
73,test,1,inc,1,z,Tue Jun 09 2026 13:37:06 GMT-0500 (Central Daylight Time),272731.2999999523,napkin,900,I,z,z,None,555,355.0,200.0,62,1,1995.0999999046326,270736.2000000477,8121,temper,AF,A,267043,267043,265414,266327,265414,267409,266843,266843,267409,75
74,test,1,inc,1,z,Tue Jun 09 2026 13:37:06 GMT-0500 (Central Daylight Time),274747.7000000477,bell,1000,I,z,z,None,470,271.0,199.0,23,1,2012.5999999046326,272735.10000014305,8121,love,AF,A,269143,269143,267413,268426,267413,269426,268942,268943,269426,76
75,test,1,inc,1,m,Tue Jun 09 2026 13:37:06 GMT-0500 (Central Daylight Time),276731.2999999523,rage,800,I,m,m,None,639,440.0,199.0,85,1,1979.5,274751.7999999523,8121,bell,AF,A,270958,270958,269430,270242,269430,271409,270759,270759,271409,77
76,test,1,con,1,z,Tue Jun 09 2026 13:37:06 GMT-0500 (Central Daylight Time),278746.10000014305,friend,1100,I,z,z,None,381,181.0,200.0,28,1,2010.4000000953674,276735.7000000477,8121,friend,AF,A,273241,273241,271414,272525,271414,273424,273041,273041,273424,78
77,test,1,con,1,z,Tue Jun 09 2026 13:37:06 GMT-0500 (Central Daylight Time),281078.90000009537,brutal,1000,I,z,z,None,784,585.0,199.0,35,1,2328.5,278750.40000009537,8121,brutal,AF,A,275157,275157,273428,274441,273429,275757,274957,274958,275757,79
78,test,1,con,1,m,Tue Jun 09 2026 13:37:06 GMT-0500 (Central Daylight Time),282928.2999999523,napkin,800,I,m,m,None,516,316.0,200.0,105,1,1845.0999999046326,281083.2000000477,8121,napkin,AF,A,277290,277290,275761,276574,275762,277606,277090,277090,277606,80
79,test,1,con,1,m,Tue Jun 09 2026 13:37:06 GMT-0500 (Central Daylight Time),284794.2000000477,remote,800,I,m,m,None,531,331.0,200.0,113,1,1862.0,282932.2000000477,8121,remote,AF,A,279139,279139,277610,278423,277610,279472,278939,278939,279472,81
80,test,1,inc,1,m,Tue Jun 09 2026 13:37:06 GMT-0500 (Central Daylight Time),286777.40000009537,elated,800,I,m,m,None,633,434.0,199.0,101,1,1979.2999999523163,284798.10000014305,8121,jacket,AF,A,281005,281005,279476,280289,279476,281455,280806,280806,281455,82
81,test,1,inc,1,z,Tue Jun 09 2026 13:37:06 GMT-0500 (Central Daylight Time),289009.5,window,1100,I,z,z,None,590,390.0,200.0,40,1,2228.0999999046326,286781.40000009537,8121,brutal,AF,A,283288,283288,281459,282572,281460,283688,283088,283088,283688,83
82,test,1,inc,1,z,Tue Jun 09 2026 13:37:06 GMT-0500 (Central Daylight Time),291192.2999999523,film,1100,I,z,z,None,533,334.0,199.0,56,1,2177.2999999523163,289015.0,8121,rage,AF,A,285520,285520,283693,284804,283693,285870,285320,285321,285870,84
83,test,1,con,1,z,Tue Jun 09 2026 13:37:06 GMT-0500 (Central Daylight Time),293258.40000009537,temper,1000,I,z,z,None,524,324.0,200.0,59,1,2061.9000000953674,291196.5,8121,temper,AF,A,287603,287603,285875,286887,285875,287937,287403,287403,287936,85
84,test,1,inc,1,m,Tue Jun 09 2026 13:37:06 GMT-0500 (Central Daylight Time),295391.10000014305,love,1000,I,m,m,None,584,385.0,199.0,87,1,2128.600000143051,293262.5,8121,bell,AF,A,289670,289670,287941,288954,287941,290069,289470,289470,290069,86
85,test,1,con,1,m,Tue Jun 09 2026 13:37:06 GMT-0500 (Central Daylight Time),297457.0,jacket,1000,I,m,m,None,459,250.0,209.0,99,1,2061.7000000476837,295395.2999999523,8121,jacket,AF,A,291869,291869,290073,291086,290074,292135,291660,291660,292135,87
86,test,1,con,1,z,Tue Jun 09 2026 13:37:06 GMT-0500 (Central Daylight Time),299639.7000000477,love,1100,I,z,z,None,542,342.0,200.0,20,1,2178.2999999523163,297461.40000009537,8121,love,AF,A,293968,293968,292139,293252,292140,294318,293768,293768,294318,88
87,test,1,inc,1,z,Tue Jun 09 2026 13:37:06 GMT-0500 (Central Daylight Time),301722.2000000477,remote,1000,I,z,z,None,545,330.0,215.0,63,1,2078.2000000476837,299644.0,8121,temper,AF,A,296068,296068,294322,295334,294322,296400,295852,295852,296400,89
88,test,1,inc,1,z,Tue Jun 09 2026 13:37:06 GMT-0500 (Central Daylight Time),303805.10000014305,remote,1000,I,z,z,None,545,345.0,200.0,7,1,2078.4000000953674,301726.7000000477,8121,elated,AF,A,298133,298133,296405,297417,296405,298483,297933,297933,298483,90
89,test,1,con,1,z,Tue Jun 09 2026 13:37:06 GMT-0500 (Central Daylight Time),305754.40000009537,kind,900,I,z,z,None,515,315.0,200.0,10,1,1945.2000000476837,303809.2000000477,8121,kind,AF,A,300116,300116,298487,299400,298487,300432,299916,299916,300432,91
90,test,1,inc,1,m,Tue Jun 09 2026 13:37:06 GMT-0500 (Central Daylight Time),307887.0,love,1000,I,m,m,None,583,384.0,199.0,71,1,2128.399999856949,305758.60000014305,8121,step,AF,A,302166,302166,300437,301449,300437,302565,301966,301966,302565,92
91,test,1,inc,1,z,Tue Jun 09 2026 13:37:06 GMT-0500 (Central Daylight Time),309936.40000009537,rock,900,I,z,z,None,609,408.0,201.0,14,1,2045.5,307890.90000009537,8121,kind,AF,A,304199,304199,302569,303482,302569,304614,303998,303998,304614,93
92,test,1,inc,1,z,Tue Jun 09 2026 13:37:06 GMT-0500 (Central Daylight Time),312135.7000000477,window,1100,I,z,z,None,558,359.0,199.0,32,1,2195.2000000476837,309940.5,8121,friend,AF,A,306448,306448,304619,305731,304619,306814,306248,306248,306814,94
93,test,1,inc,1,m,Tue Jun 09 2026 13:37:06 GMT-0500 (Central Daylight Time),314335.10000014305,hate,1100,I,m,m,None,560,360.0,200.0,80,1,2195.5,312139.60000014305,8121,rock,AF,A,308647,308647,306818,307932,306818,309013,308447,308447,309013,95
94,test,1,con,1,z,Tue Jun 09 2026 13:37:06 GMT-0500 (Central Daylight Time),316317.60000014305,rage,900,I,z,z,None,544,344.0,200.0,50,1,1978.4000000953674,314339.2000000477,8121,rage,AF,A,310646,310646,309017,309930,309018,310996,310446,310446,310996,96
95,test,1,con,1,z,Tue Jun 09 2026 13:37:06 GMT-0500 (Central Daylight Time),318384.90000009537,kind,1100,I,z,z,None,426,226.0,200.0,12,1,2062.7999999523163,316322.10000014305,8121,kind,AF,A,312829,312829,311000,312112,311000,313063,312629,312629,313063,97
96,test,1,con,1,z,Tue Jun 09 2026 13:37:06 GMT-0500 (Central Daylight Time),320249.7999999523,hate,900,I,z,z,None,424,223.0,201.0,42,1,1860.3999998569489,318389.40000009537,8121,hate,AF,A,314696,314696,313067,313978,313068,314928,314495,314495,314928,98
97,test,1,inc,1,m,Tue Jun 09 2026 13:37:06 GMT-0500 (Central Daylight Time),322265.60000014305,kind,900,I,m,m,None,582,382.0,200.0,70,1,2011.7000000476837,320253.90000009537,8121,step,AF,A,316561,316561,314932,315845,314932,316944,316361,316361,316944,99
98,test,1,inc,1,m,Tue Jun 09 2026 13:37:06 GMT-0500 (Central Daylight Time),324248.5,love,1000,I,m,m,None,441,241.0,200.0,79,1,1978.8999998569489,322269.60000014305,8121,rock,AF,A,318677,318677,316948,317961,316948,318927,318477,318477,318926,100
99,test,1,inc,1,m,Tue Jun 09 2026 13:37:06 GMT-0500 (Central Daylight Time),326231.40000009537,brutal,900,I,m,m,None,543,343.0,200.0,110,1,1979.1000001430511,324252.2999999523,8121,napkin,AF,A,320560,320560,318930,319843,318931,320910,320360,320360,320909,101
100,test,1,inc,1,z,Tue Jun 09 2026 13:37:06 GMT-0500 (Central Daylight Time),328314.0,remote,1000,I,z,z,None,538,339.0,199.0,31,1,2078.5,326235.5,8121,friend,AF,A,322643,322643,320914,321926,320914,322992,322443,322443,322992,102
101,test,1,con,1,m,Tue Jun 09 2026 13:37:06 GMT-0500 (Central Daylight Time),330213.7000000477,film,800,I,m,m,None,553,353.0,200.0,89,1,1895.5999999046326,328318.10000014305,8121,film,AF,A,324525,324525,322996,323810,322996,324892,324325,324325,324892,103
102,test,1,inc,1,z,Tue Jun 09 2026 13:37:06 GMT-0500 (Central Daylight Time),332379.40000009537,rock,900,I,z,z,None,729,530.0,199.0,54,1,2161.600000143051,330217.7999999523,8121,rage,AF,A,326524,326524,324896,325808,324896,327057,326325,326325,327057,104
103,test,1,inc,1,m,Tue Jun 09 2026 13:37:06 GMT-0500 (Central Daylight Time),334612.2999999523,friend,1100,I,m,m,None,587,388.0,199.0,112,1,2228.5,332383.7999999523,8121,napkin,AF,A,328890,328890,327062,328174,327062,329290,328691,328691,329290,105
104,test,1,con,1,m,Tue Jun 09 2026 13:37:06 GMT-0500 (Central Daylight Time),336611.60000014305,window,1000,I,m,m,None,455,254.0,201.0,123,1,1995.3000001907349,334616.2999999523,8121,window,AF,A,331024,331024,329294,330307,329295,331290,330823,330823,331290,106
105,test,1,con,1,z,Tue Jun 09 2026 13:37:06 GMT-0500 (Central Daylight Time),338711.0,brutal,1100,I,z,z,None,451,252.0,199.0,36,1,2095.2999999523163,336615.7000000477,8121,brutal,AF,A,333122,333122,331294,332406,331294,333389,332923,332923,333389,107
106,test,1,inc,1,m,Tue Jun 09 2026 13:37:06 GMT-0500 (Central Daylight Time),340976.7000000477,hate,1100,I,m,m,None,625,425.0,200.0,88,1,2261.5,338715.2000000477,8121,bell,AF,A,335222,335222,333393,334505,333393,335655,335022,335022,335655,108
107,test,1,con,1,m,Tue Jun 09 2026 13:37:06 GMT-0500 (Central Daylight Time),343026.0,remote,900,I,m,m,None,605,406.0,199.0,114,1,2044.7000000476837,340981.2999999523,8121,remote,AF,A,337288,337288,335659,336571,335660,337704,337088,337088,337704,109
108,test,1,inc,1,m,Tue Jun 09 2026 13:37:06 GMT-0500 (Central Daylight Time),344976.40000009537,kind,900,I,m,m,None,492,293.0,199.0,78,1,1945.6000001430511,343030.7999999523,8121,rock,AF,A,339354,339354,337709,338650,337709,339655,339154,339154,339654,110
109,test,1,inc,1,z,Tue Jun 09 2026 13:37:06 GMT-0500 (Central Daylight Time),346891.5,napkin,900,I,z,z,None,479,280.0,199.0,6,1,1910.7999999523163,344980.7000000477,8121,elated,AF,A,341287,341287,339659,340570,339659,341570,341087,341087,341570,111
110,test,1,con,1,m,Tue Jun 09 2026 13:37:06 GMT-0500 (Central Daylight Time),349090.90000009537,remote,1100,I,m,m,None,562,362.0,200.0,116,1,2195.4000000953674,346895.5,8121,remote,AF,A,343404,343404,341574,342686,341574,343769,343203,343203,343769,112
111,test,1,con,1,m,Tue Jun 09 2026 13:37:06 GMT-0500 (Central Daylight Time),351456.90000009537,bell,1000,I,m,m,None,831,632.0,199.0,83,1,2361.7999999523163,349095.10000014305,8121,bell,AF,A,345502,345502,343773,344785,343773,346135,345302,345302,346135,113
112,test,1,inc,1,z,Tue Jun 09 2026 13:37:06 GMT-0500 (Central Daylight Time),353355.90000009537,jacket,800,I,z,z,None,554,355.0,199.0,5,1,1894.4000000953674,351461.5,8121,elated,AF,A,347667,347667,346140,346951,346140,348034,347468,347468,348034,114
113,test,1,inc,1,z,Tue Jun 09 2026 13:37:06 GMT-0500 (Central Daylight Time),355522.10000014305,bell,1000,I,z,z,None,623,423.0,200.0,15,1,2162.100000143051,353360.0,8121,kind,AF,A,349767,349767,348038,349051,348038,350200,349567,349567,350200,115
114,test,1,con,1,m,Tue Jun 09 2026 13:37:06 GMT-0500 (Central Daylight Time),357438.2999999523,jacket,800,I,m,m,None,570,370.0,200.0,97,1,1911.6999998092651,355526.60000014305,8121,jacket,AF,A,351733,351733,350205,351017,350205,352116,351533,351533,352116,116
115,test,1,con,1,z,Tue Jun 09 2026 13:37:06 GMT-0500 (Central Daylight Time),359303.7999999523,love,900,I,z,z,None,432,233.0,199.0,18,1,1861.5999999046326,357442.2000000477,8121,love,AF,A,353749,353749,352120,353033,352120,353982,353550,353550,353982,117
116,test,1,inc,1,m,Tue Jun 09 2026 13:37:06 GMT-0500 (Central Daylight Time),361203.7999999523,rage,800,I,m,m,None,554,355.0,199.0,69,1,1896.2999999523163,359307.5,8121,step,AF,A,355515,355515,353986,354799,353986,355882,355316,355316,355882,118
117,test,1,inc,1,m,Tue Jun 09 2026 13:37:06 GMT-0500 (Central Daylight Time),363136.2999999523,elated,800,I,m,m,None,599,399.0,200.0,125,1,1928.5,361207.7999999523,8121,window,AF,A,357415,357415,355886,356698,355886,357814,357215,357215,357814,119
118,test,1,con,1,m,Tue Jun 09 2026 13:37:06 GMT-0500 (Central Daylight Time),364952.7000000477,bell,800,I,m,m,None,466,267.0,199.0,81,1,1812.2000000476837,363140.5,8121,bell,AF,A,359347,359347,357819,358631,357819,359631,359148,359148,359631,120
119,test,1,con,1,z,Tue Jun 09 2026 13:37:06 GMT-0500 (Central Daylight Time),367068.40000009537,brutal,900,I,z,z,None,677,478.0,199.0,34,1,2111.5,364956.90000009537,8121,brutal,AF,A,361264,361264,359635,360547,359635,361746,361064,361064,361746,121
120,test,1,inc,1,z,Tue Jun 09 2026 13:37:06 GMT-0500 (Central Daylight Time),368967.90000009537,rock,900,I,z,z,None,457,258.0,199.0,22,1,1895.6000001430511,367072.2999999523,8121,love,AF,A,363380,363380,361750,362664,361751,363646,363180,363180,363646,122
121,test,1,inc,1,m,Tue Jun 09 2026 13:37:06 GMT-0500 (Central Daylight Time),370900.5,elated,800,I,m,m,None,587,387.0,200.0,117,1,1928.3999998569489,368972.10000014305,8121,remote,AF,A,365179,365179,363650,364463,363650,365579,364979,364979,365579,123
122,test,1,inc,1,m,Tue Jun 09 2026 13:37:06 GMT-0500 (Central Daylight Time),372866.60000014305,rage,800,I,m,m,None,621,422.0,199.0,93,1,1962.1000001430511,370904.5,8121,film,AF,A,367112,367112,365583,366396,365583,367545,366912,366912,367545,124
123,test,1,inc,1,m,Tue Jun 09 2026 13:37:06 GMT-0500 (Central Daylight Time),375032.90000009537,hate,1100,I,m,m,None,525,325.0,200.0,96,1,2162.0,372870.90000009537,8121,film,AF,A,369378,369378,367549,368661,367549,369711,369178,369178,369711,125
124,test,1,inc,1,m,Tue Jun 09 2026 13:37:06 GMT-0500 (Central Daylight Time),377132.2000000477,temper,1000,I,m,m,None,554,355.0,199.0,103,1,2095.0999999046326,375037.10000014305,8121,jacket,AF,A,371444,371444,369715,370727,369715,371810,371244,371244,371810,126
125,test,1,con,1,z,Tue Jun 09 2026 13:37:06 GMT-0500 (Central Daylight Time),379064.60000014305,elated,800,I,z,z,None,591,391.0,200.0,1,1,1928.0,377136.60000014305,8121,elated,AF,A,373343,373343,371815,372627,371815,373743,373143,373143,373743,127
126,test,1,con,1,z,Tue Jun 09 2026 13:37:06 GMT-0500 (Central Daylight Time),380814.40000009537,hate,800,I,z,z,None,410,210.0,200.0,41,1,1746.1000001430511,379068.2999999523,8121,hate,AF,A,375276,375276,373746,374559,373747,375493,375076,375076,375492,128
