block_c,block_dur,condition,countdown,datetime,endtime,list,multichar_response,project,response,response_time,session_number,start_end,starttime,subject_id,task,task_vers,trial
,,,,Wed Feb 25 2026 16:19:55 GMT-0600 (Central Standard Time),,,,O,space,754,1,,,7763,WL,C,
prac,,0,,Wed Feb 25 2026 16:19:55 GMT-0600 (Central Standard Time),,NA,b,O,b,3533,1,,,7763,WL,C,1.0
prac,,0,,Wed Feb 25 2026 16:19:55 GMT-0600 (Central Standard Time),,NA,bo,O,o,309,1,,,7763,WL,C,1.0
prac,,0,,Wed Feb 25 2026 16:19:55 GMT-0600 (Central Standard Time),,NA,boo,O,o,142,1,,,7763,WL,C,1.0
prac,,0,,Wed Feb 25 2026 16:19:55 GMT-0600 (Central Standard Time),,NA,boos,O,s,297,1,,,7763,WL,C,1.0
prac,,0,,Wed Feb 25 2026 16:19:55 GMT-0600 (Central Standard Time),,NA,boost,O,t,207,1,,,7763,WL,C,1.0
prac,,0,,Wed Feb 25 2026 16:19:55 GMT-0600 (Central Standard Time),,NA,boostenter,O,enter,1589,1,,,7763,WL,C,1.0
1,1.8659999370574951,learn,58134.000062942505,Wed Feb 25 2026 16:19:55 GMT-0600 (Central Standard Time),138336.70000000298,A,t,O,t,1843,1,1865.5,136471.20000000298,7763,WL,C,1.0
1,2.069000005722046,learn,57930.999994277954,Wed Feb 25 2026 16:19:55 GMT-0600 (Central Standard Time),138539.5,A,to,O,o,190,1,2068.2999999970198,136471.20000000298,7763,WL,C,1.0
1,2.3489999771118164,learn,57651.00002288818,Wed Feb 25 2026 16:19:55 GMT-0600 (Central Standard Time),138820.0,A,tow,O,w,260,1,2348.7999999970198,136471.20000000298,7763,WL,C,1.0
1,2.4659998416900635,learn,57534.00015830994,Wed Feb 25 2026 16:19:55 GMT-0600 (Central Standard Time),138936.59999999404,A,towe,O,e,107,1,2465.3999999910593,136471.20000000298,7763,WL,C,1.0
1,2.6009998321533203,learn,57399.00016784668,Wed Feb 25 2026 16:19:55 GMT-0600 (Central Standard Time),139072.0,A,tower,O,r,111,1,2600.7999999970198,136471.20000000298,7763,WL,C,1.0
1,3.3480000495910645,learn,56651.999950408936,Wed Feb 25 2026 16:19:55 GMT-0600 (Central Standard Time),139818.5,A,towerenter,O,enter,725,1,3347.2999999970198,136471.20000000298,7763,WL,C,1.0
1,4.598999977111816,learn,55401.00002288818,Wed Feb 25 2026 16:19:55 GMT-0600 (Central Standard Time),141070.09999999404,A,s,O,s,1235,1,1251.2000000029802,139818.89999999106,7763,WL,C,2.0
1,5.013999938964844,learn,54986.000061035156,Wed Feb 25 2026 16:19:55 GMT-0600 (Central Standard Time),141485.09999999404,A,su,O,u,401,1,1666.2000000029802,139818.89999999106,7763,WL,C,2.0
1,5.549000024795532,learn,54450.99997520447,Wed Feb 25 2026 16:19:55 GMT-0600 (Central Standard Time),142019.29999999702,A,sug,O,g,520,1,2200.4000000059605,139818.89999999106,7763,WL,C,2.0
1,5.781999826431274,learn,54218.000173568726,Wed Feb 25 2026 16:19:55 GMT-0600 (Central Standard Time),142252.70000000298,A,suga,O,a,218,1,2433.800000011921,139818.89999999106,7763,WL,C,2.0
1,5.932999849319458,learn,54067.00015068054,Wed Feb 25 2026 16:19:55 GMT-0600 (Central Standard Time),142403.89999999106,A,sugar,O,r,142,1,2585.0,139818.89999999106,7763,WL,C,2.0
1,6.2149999141693115,learn,53785.00008583069,Wed Feb 25 2026 16:19:55 GMT-0600 (Central Standard Time),142685.29999999702,A,sugarenter,O,enter,266,1,2866.4000000059605,139818.89999999106,7763,WL,C,2.0
1,6.830999851226807,learn,53169.00014877319,Wed Feb 25 2026 16:19:55 GMT-0600 (Central Standard Time),143301.70000000298,A,w,O,w,601,1,616.0,142685.70000000298,7763,WL,C,3.0
1,7.017999887466431,learn,52982.00011253357,Wed Feb 25 2026 16:19:55 GMT-0600 (Central Standard Time),143488.39999999106,A,wh,O,h,169,1,802.6999999880791,142685.70000000298,7763,WL,C,3.0
1,7.230000019073486,learn,52769.999980926514,Wed Feb 25 2026 16:19:55 GMT-0600 (Central Standard Time),143700.79999999702,A,whe,O,e,197,1,1015.0999999940395,142685.70000000298,7763,WL,C,3.0
1,7.5299999713897705,learn,52470.00002861023,Wed Feb 25 2026 16:19:55 GMT-0600 (Central Standard Time),144001.20000000298,A,whea,O,a,280,1,1315.5,142685.70000000298,7763,WL,C,3.0
1,7.846999883651733,learn,52153.00011634827,Wed Feb 25 2026 16:19:55 GMT-0600 (Central Standard Time),144317.79999999702,A,wheat,O,t,309,1,1632.0999999940395,142685.70000000298,7763,WL,C,3.0
1,8.146999835968018,learn,51853.00016403198,Wed Feb 25 2026 16:19:55 GMT-0600 (Central Standard Time),144617.5,A,wheatenter,O,enter,280,1,1931.7999999970198,142685.70000000298,7763,WL,C,3.0
1,8.52999997138977,learn,51470.00002861023,Wed Feb 25 2026 16:19:55 GMT-0600 (Central Standard Time),145000.89999999106,A,c,O,c,365,1,383.09999999403954,144617.79999999702,7763,WL,C,4.0
1,8.698999881744385,learn,51301.000118255615,Wed Feb 25 2026 16:19:55 GMT-0600 (Central Standard Time),145169.70000000298,A,co,O,o,148,1,551.9000000059605,144617.79999999702,7763,WL,C,4.0
1,8.88100004196167,learn,51118.99995803833,Wed Feb 25 2026 16:19:55 GMT-0600 (Central Standard Time),145351.29999999702,A,cor,O,r,170,1,733.5,144617.79999999702,7763,WL,C,4.0
1,9.180999994277954,learn,50819.000005722046,Wed Feb 25 2026 16:19:55 GMT-0600 (Central Standard Time),145651.29999999702,A,corn,O,n,280,1,1033.5,144617.79999999702,7763,WL,C,4.0
1,9.48199987411499,learn,50518.00012588501,Wed Feb 25 2026 16:19:55 GMT-0600 (Central Standard Time),145952.89999999106,A,cornenter,O,enter,291,1,1335.0999999940395,144617.79999999702,7763,WL,C,4.0
1,10.263000011444092,learn,49736.99998855591,Wed Feb 25 2026 16:19:55 GMT-0600 (Central Standard Time),146733.89999999106,A,h,O,h,766,1,780.7999999970198,145953.09999999404,7763,WL,C,5.0
1,10.429999828338623,learn,49570.00017166138,Wed Feb 25 2026 16:19:55 GMT-0600 (Central Standard Time),146900.5,A,ho,O,o,152,1,947.4000000059605,145953.09999999404,7763,WL,C,5.0
1,10.645999908447266,learn,49354.000091552734,Wed Feb 25 2026 16:19:55 GMT-0600 (Central Standard Time),147116.29999999702,A,hom,O,m,200,1,1163.2000000029802,145953.09999999404,7763,WL,C,5.0
1,10.832000017166138,learn,49167.99998283386,Wed Feb 25 2026 16:19:55 GMT-0600 (Central Standard Time),147302.5,A,home,O,e,163,1,1349.4000000059605,145953.09999999404,7763,WL,C,5.0
1,11.02999997138977,learn,48970.00002861023,Wed Feb 25 2026 16:19:55 GMT-0600 (Central Standard Time),147500.29999999702,A,homeenter,O,enter,192,1,1547.2000000029802,145953.09999999404,7763,WL,C,5.0
1,11.69700002670288,learn,48302.99997329712,Wed Feb 25 2026 16:19:55 GMT-0600 (Central Standard Time),148167.39999999106,A,q,O,q,646,1,666.6999999880791,147500.70000000298,7763,WL,C,6.0
1,11.896999835968018,learn,48103.00016403198,Wed Feb 25 2026 16:19:55 GMT-0600 (Central Standard Time),148367.59999999404,A,qu,O,u,183,1,866.8999999910593,147500.70000000298,7763,WL,C,6.0
1,12.246999979019165,learn,47753.000020980835,Wed Feb 25 2026 16:19:55 GMT-0600 (Central Standard Time),148717.39999999106,A,que,O,e,343,1,1216.699999988079,147500.70000000298,7763,WL,C,6.0
1,12.779000043869019,learn,47220.99995613098,Wed Feb 25 2026 16:19:55 GMT-0600 (Central Standard Time),149249.59999999404,A,quee,O,e,522,1,1748.8999999910593,147500.70000000298,7763,WL,C,6.0
1,13.146999835968018,learn,46853.00016403198,Wed Feb 25 2026 16:19:55 GMT-0600 (Central Standard Time),149617.89999999106,A,queen,O,n,355,1,2117.199999988079,147500.70000000298,7763,WL,C,6.0
1,13.411999940872192,learn,46588.00005912781,Wed Feb 25 2026 16:19:55 GMT-0600 (Central Standard Time),149882.79999999702,A,queenenter,O,enter,246,1,2382.0999999940395,147500.70000000298,7763,WL,C,6.0
1,14.361999988555908,learn,45638.00001144409,Wed Feb 25 2026 16:19:55 GMT-0600 (Central Standard Time),150832.59999999404,A,b,O,b,939,1,949.5,149883.09999999404,7763,WL,C,7.0
1,14.51199984550476,learn,45488.00015449524,Wed Feb 25 2026 16:19:55 GMT-0600 (Central Standard Time),150982.29999999702,A,bo,O,o,135,1,1099.2000000029802,149883.09999999404,7763,WL,C,7.0
1,14.730999946594238,learn,45269.00005340576,Wed Feb 25 2026 16:19:55 GMT-0600 (Central Standard Time),151201.79999999702,A,boy,O,y,209,1,1318.7000000029802,149883.09999999404,7763,WL,C,7.0
1,15.92799997329712,learn,44072.00002670288,Wed Feb 25 2026 16:19:55 GMT-0600 (Central Standard Time),152398.89999999106,A,boyenter,O,enter,1189,1,2515.7999999970198,149883.09999999404,7763,WL,C,7.0
1,16.461999893188477,learn,43538.00010681152,Wed Feb 25 2026 16:19:55 GMT-0600 (Central Standard Time),152932.5,A,h,O,h,528,1,533.2999999970198,152399.20000000298,7763,WL,C,8.0
1,16.710999965667725,learn,43289.000034332275,Wed Feb 25 2026 16:19:55 GMT-0600 (Central Standard Time),153181.29999999702,A,ho,O,o,226,1,782.0999999940395,152399.20000000298,7763,WL,C,8.0
1,16.92799997329712,learn,43072.00002670288,Wed Feb 25 2026 16:19:55 GMT-0600 (Central Standard Time),153398.5,A,hom,O,m,212,1,999.2999999970198,152399.20000000298,7763,WL,C,8.0
1,17.126999855041504,learn,42873.000144958496,Wed Feb 25 2026 16:19:55 GMT-0600 (Central Standard Time),153598.29999999702,A,home,O,e,179,1,1199.0999999940395,152399.20000000298,7763,WL,C,8.0
1,18.14400005340576,learn,41855.99994659424,Wed Feb 25 2026 16:19:55 GMT-0600 (Central Standard Time),154614.79999999702,A,homeenter,O,enter,998,1,2215.5999999940395,152399.20000000298,7763,WL,C,8.0
1,19.16100001335144,learn,40838.99998664856,Wed Feb 25 2026 16:19:55 GMT-0600 (Central Standard Time),155631.29999999702,A,d,O,d,999,1,1016.2999999970198,154615.0,7763,WL,C,9.0
1,19.310999870300293,learn,40689.00012969971,Wed Feb 25 2026 16:19:55 GMT-0600 (Central Standard Time),155781.70000000298,A,do,O,o,136,1,1166.7000000029802,154615.0,7763,WL,C,9.0
1,19.49399995803833,learn,40506.00004196167,Wed Feb 25 2026 16:19:55 GMT-0600 (Central Standard Time),155964.59999999404,A,doc,O,c,177,1,1349.5999999940395,154615.0,7763,WL,C,9.0
1,19.727999925613403,learn,40272.0000743866,Wed Feb 25 2026 16:19:55 GMT-0600 (Central Standard Time),156198.89999999106,A,doct,O,t,228,1,1583.8999999910593,154615.0,7763,WL,C,9.0
1,19.861999988555908,learn,40138.00001144409,Wed Feb 25 2026 16:19:55 GMT-0600 (Central Standard Time),156332.29999999702,A,docto,O,o,121,1,1717.2999999970198,154615.0,7763,WL,C,9.0
1,20.075999975204468,learn,39924.00002479553,Wed Feb 25 2026 16:19:55 GMT-0600 (Central Standard Time),156547.0,A,doctor,O,r,201,1,1932.0,154615.0,7763,WL,C,9.0
1,20.359999895095825,learn,39640.000104904175,Wed Feb 25 2026 16:19:55 GMT-0600 (Central Standard Time),156830.70000000298,A,doctorenter,O,enter,267,1,2215.7000000029802,154615.0,7763,WL,C,9.0
1,24.258999824523926,learn,35741.000175476074,Wed Feb 25 2026 16:19:55 GMT-0600 (Central Standard Time),160729.29999999702,A,f,O,f,3879,1,3898.2999999970198,156831.0,7763,WL,C,10.0
1,24.441999912261963,learn,35558.00008773804,Wed Feb 25 2026 16:19:55 GMT-0600 (Central Standard Time),160912.59999999404,A,fl,O,l,173,1,4081.5999999940395,156831.0,7763,WL,C,10.0
1,24.592000007629395,learn,35407.999992370605,Wed Feb 25 2026 16:19:55 GMT-0600 (Central Standard Time),161063.09999999404,A,fla,O,a,144,1,4232.0999999940395,156831.0,7763,WL,C,10.0
1,24.859999895095825,learn,35140.000104904175,Wed Feb 25 2026 16:19:55 GMT-0600 (Central Standard Time),161331.0,A,flag,O,g,245,1,4500.0,156831.0,7763,WL,C,10.0
1,25.424000024795532,learn,34575.99997520447,Wed Feb 25 2026 16:19:55 GMT-0600 (Central Standard Time),161895.39999999106,A,flagenter,O,enter,551,1,5064.399999991059,156831.0,7763,WL,C,10.0
1,26.158999919891357,learn,33841.00008010864,Wed Feb 25 2026 16:19:55 GMT-0600 (Central Standard Time),162629.79999999702,A,n,O,n,720,1,734.0999999940395,161895.70000000298,7763,WL,C,11.0
1,26.30900001525879,learn,33690.99998474121,Wed Feb 25 2026 16:19:55 GMT-0600 (Central Standard Time),162780.09999999404,A,na,O,a,137,1,884.3999999910593,161895.70000000298,7763,WL,C,11.0
1,26.490999937057495,learn,33509.000062942505,Wed Feb 25 2026 16:19:55 GMT-0600 (Central Standard Time),162962.0,A,nai,O,i,171,1,1066.2999999970198,161895.70000000298,7763,WL,C,11.0
1,26.757999897003174,learn,33242.000102996826,Wed Feb 25 2026 16:19:55 GMT-0600 (Central Standard Time),163228.79999999702,A,nail,O,l,251,1,1333.0999999940395,161895.70000000298,7763,WL,C,11.0
1,27.10800004005432,learn,32891.99995994568,Wed Feb 25 2026 16:19:55 GMT-0600 (Central Standard Time),163578.79999999702,A,nailenter,O,enter,339,1,1683.0999999940395,161895.70000000298,7763,WL,C,11.0
1,29.389999866485596,learn,30610.000133514404,Wed Feb 25 2026 16:19:55 GMT-0600 (Central Standard Time),165861.5,A,s,O,s,2277,1,2282.2999999970198,163579.20000000298,7763,WL,C,12.0
1,29.52300000190735,learn,30476.99999809265,Wed Feb 25 2026 16:19:55 GMT-0600 (Central Standard Time),165994.70000000298,A,sh,O,h,120,1,2415.5,163579.20000000298,7763,WL,C,12.0
1,29.658999919891357,learn,30341.000080108643,Wed Feb 25 2026 16:19:55 GMT-0600 (Central Standard Time),166129.79999999702,A,sho,O,o,115,1,2550.5999999940395,163579.20000000298,7763,WL,C,12.0
1,29.83899998664856,learn,30161.00001335144,Wed Feb 25 2026 16:19:55 GMT-0600 (Central Standard Time),166310.0,A,shor,O,r,161,1,2730.7999999970198,163579.20000000298,7763,WL,C,12.0
1,30.789999961853027,learn,29210.000038146973,Wed Feb 25 2026 16:19:55 GMT-0600 (Central Standard Time),167261.5,A,shore,O,e,932,1,3682.2999999970198,163579.20000000298,7763,WL,C,12.0
1,31.240000009536743,learn,28759.999990463257,Wed Feb 25 2026 16:19:55 GMT-0600 (Central Standard Time),167710.79999999702,A,shoreenter,O,enter,432,1,4131.5999999940395,163579.20000000298,7763,WL,C,12.0
1,31.692999839782715,learn,28307.000160217285,Wed Feb 25 2026 16:19:55 GMT-0600 (Central Standard Time),168164.20000000298,A,c,O,c,439,1,453.1000000089407,167711.09999999404,7763,WL,C,13.0
1,31.872999906539917,learn,28127.000093460083,Wed Feb 25 2026 16:19:55 GMT-0600 (Central Standard Time),168344.70000000298,A,ca,O,a,162,1,633.6000000089407,167711.09999999404,7763,WL,C,13.0
1,32.07299995422363,learn,27927.000045776367,Wed Feb 25 2026 16:19:55 GMT-0600 (Central Standard Time),168543.79999999702,A,cam,O,m,182,1,832.7000000029802,167711.09999999404,7763,WL,C,13.0
1,32.25600004196167,learn,27743.99995803833,Wed Feb 25 2026 16:19:55 GMT-0600 (Central Standard Time),168726.70000000298,A,camp,O,p,177,1,1015.6000000089407,167711.09999999404,7763,WL,C,13.0
1,32.72199988365173,learn,27278.000116348267,Wed Feb 25 2026 16:19:55 GMT-0600 (Central Standard Time),169193.39999999106,A,campenter,O,enter,455,1,1482.2999999970198,167711.09999999404,7763,WL,C,13.0
1,60.013999938964844,learn,-13.99993896484375,Wed Feb 25 2026 16:19:55 GMT-0600 (Central Standard Time),196485.0,A,None,O,None,27287,1,27291.29999999702,169193.70000000298,7763,WL,C,14.0
2,1.2009999752044678,learn,58799.00002479553,Wed Feb 25 2026 16:19:55 GMT-0600 (Central Standard Time),275710.200000003,A,l,O,l,1186,1,1200.2000000029802,274510.0,7763,WL,C,1.0
2,1.3990001678466797,learn,58600.99983215332,Wed Feb 25 2026 16:19:55 GMT-0600 (Central Standard Time),275909.09999999404,A,le,O,e,182,1,1399.0999999940395,274510.0,7763,WL,C,1.0
2,1.5830001831054688,learn,58416.99981689453,Wed Feb 25 2026 16:19:55 GMT-0600 (Central Standard Time),276093.0,A,let,O,t,175,1,1583.0,274510.0,7763,WL,C,1.0
2,1.7669999599456787,learn,58233.00004005432,Wed Feb 25 2026 16:19:55 GMT-0600 (Central Standard Time),276276.299999997,A,lett,O,t,177,1,1766.2999999970198,274510.0,7763,WL,C,1.0
2,2.001000165939331,learn,57998.99983406067,Wed Feb 25 2026 16:19:55 GMT-0600 (Central Standard Time),276510.5,A,lette,O,e,211,1,2000.5,274510.0,7763,WL,C,1.0
2,2.065999984741211,learn,57934.00001525879,Wed Feb 25 2026 16:19:55 GMT-0600 (Central Standard Time),276576.0,A,letter,O,r,45,1,2066.0,274510.0,7763,WL,C,1.0
2,2.3320000171661377,learn,57667.99998283386,Wed Feb 25 2026 16:19:55 GMT-0600 (Central Standard Time),276841.39999999106,A,letterenter,O,enter,255,1,2331.3999999910593,274510.0,7763,WL,C,1.0
2,2.7160000801086426,learn,57283.99991989136,Wed Feb 25 2026 16:19:55 GMT-0600 (Central Standard Time),277225.5,A,c,O,c,374,1,383.90000000596046,276841.59999999404,7763,WL,C,2.0
2,2.86899995803833,learn,57131.00004196167,Wed Feb 25 2026 16:19:55 GMT-0600 (Central Standard Time),277378.39999999106,A,ca,O,a,139,1,536.7999999970198,276841.59999999404,7763,WL,C,2.0
2,3.0830001831054688,learn,56916.99981689453,Wed Feb 25 2026 16:19:55 GMT-0600 (Central Standard Time),277592.5,A,cat,O,t,198,1,750.9000000059605,276841.59999999404,7763,WL,C,2.0
2,3.2150001525878906,learn,56784.99984741211,Wed Feb 25 2026 16:19:55 GMT-0600 (Central Standard Time),277725.09999999404,A,catt,O,t,115,1,883.5,276841.59999999404,7763,WL,C,2.0
2,3.432000160217285,learn,56567.999839782715,Wed Feb 25 2026 16:19:55 GMT-0600 (Central Standard Time),277941.700000003,A,cattl,O,l,206,1,1100.1000000089407,276841.59999999404,7763,WL,C,2.0
2,3.5989999771118164,learn,56401.00002288818,Wed Feb 25 2026 16:19:55 GMT-0600 (Central Standard Time),278108.89999999106,A,cattle,O,e,144,1,1267.2999999970198,276841.59999999404,7763,WL,C,2.0
2,3.8330001831054688,learn,56166.99981689453,Wed Feb 25 2026 16:19:55 GMT-0600 (Central Standard Time),278342.299999997,A,cattleenter,O,enter,223,1,1500.7000000029802,276841.59999999404,7763,WL,C,2.0
2,4.898000001907349,learn,55101.99999809265,Wed Feb 25 2026 16:19:55 GMT-0600 (Central Standard Time),279408.09999999404,A,b,O,b,1057,1,1065.5,278342.59999999404,7763,WL,C,3.0
2,5.04800009727478,learn,54951.99990272522,Wed Feb 25 2026 16:19:55 GMT-0600 (Central Standard Time),279558.0,A,bo,O,o,128,1,1215.4000000059605,278342.59999999404,7763,WL,C,3.0
2,5.266000032424927,learn,54733.99996757507,Wed Feb 25 2026 16:19:55 GMT-0600 (Central Standard Time),279775.200000003,A,bod,O,d,198,1,1432.6000000089407,278342.59999999404,7763,WL,C,3.0
2,5.432000160217285,learn,54567.999839782715,Wed Feb 25 2026 16:19:55 GMT-0600 (Central Standard Time),279941.799999997,A,body,O,y,150,1,1599.2000000029802,278342.59999999404,7763,WL,C,3.0
2,5.732000112533569,learn,54267.99988746643,Wed Feb 25 2026 16:19:55 GMT-0600 (Central Standard Time),280241.799999997,A,bodyenter,O,enter,282,1,1899.2000000029802,278342.59999999404,7763,WL,C,3.0
2,6.215000152587891,learn,53784.99984741211,Wed Feb 25 2026 16:19:55 GMT-0600 (Central Standard Time),280724.39999999106,A,q,O,q,462,1,482.29999999701977,280242.09999999404,7763,WL,C,4.0
2,6.398000001907349,learn,53601.99999809265,Wed Feb 25 2026 16:19:55 GMT-0600 (Central Standard Time),280907.59999999404,A,qu,O,u,170,1,665.5,280242.09999999404,7763,WL,C,4.0
2,6.699000120162964,learn,53300.999879837036,Wed Feb 25 2026 16:19:55 GMT-0600 (Central Standard Time),281208.700000003,A,que,O,e,283,1,966.6000000089407,280242.09999999404,7763,WL,C,4.0
2,6.89900016784668,learn,53100.99983215332,Wed Feb 25 2026 16:19:55 GMT-0600 (Central Standard Time),281408.799999997,A,quee,O,e,191,1,1166.7000000029802,280242.09999999404,7763,WL,C,4.0
2,7.148000001907349,learn,52851.99999809265,Wed Feb 25 2026 16:19:55 GMT-0600 (Central Standard Time),281658.39999999106,A,queen,O,n,230,1,1416.2999999970198,280242.09999999404,7763,WL,C,4.0
2,7.430999994277954,learn,52569.000005722046,Wed Feb 25 2026 16:19:55 GMT-0600 (Central Standard Time),281941.09999999404,A,queenenter,O,enter,265,1,1699.0,280242.09999999404,7763,WL,C,4.0
2,7.998000144958496,learn,52001.999855041504,Wed Feb 25 2026 16:19:55 GMT-0600 (Central Standard Time),282507.59999999404,A,t,O,t,555,1,566.2000000029802,281941.39999999106,7763,WL,C,5.0
2,8.097000122070312,learn,51902.99987792969,Wed Feb 25 2026 16:19:55 GMT-0600 (Central Standard Time),282606.799999997,A,to,O,o,83,1,665.4000000059605,281941.39999999106,7763,WL,C,5.0
2,8.27999997138977,learn,51720.00002861023,Wed Feb 25 2026 16:19:55 GMT-0600 (Central Standard Time),282790.39999999106,A,tow,O,w,166,1,849.0,281941.39999999106,7763,WL,C,5.0
2,8.44700002670288,learn,51552.99997329712,Wed Feb 25 2026 16:19:55 GMT-0600 (Central Standard Time),282957.5,A,towe,O,e,150,1,1016.1000000089407,281941.39999999106,7763,WL,C,5.0
2,8.547000169754028,learn,51452.99983024597,Wed Feb 25 2026 16:19:55 GMT-0600 (Central Standard Time),283056.799999997,A,tower,O,r,89,1,1115.4000000059605,281941.39999999106,7763,WL,C,5.0
2,8.814000129699707,learn,51185.99987030029,Wed Feb 25 2026 16:19:55 GMT-0600 (Central Standard Time),283323.89999999106,A,towerenter,O,enter,253,1,1382.5,281941.39999999106,7763,WL,C,5.0
2,9.13100004196167,learn,50868.99995803833,Wed Feb 25 2026 16:19:55 GMT-0600 (Central Standard Time),283641.09999999404,A,f,O,f,300,1,317.0,283324.09999999404,7763,WL,C,6.0
2,9.263000011444092,learn,50736.99998855591,Wed Feb 25 2026 16:19:55 GMT-0600 (Central Standard Time),283773.200000003,A,fl,O,l,126,1,449.1000000089407,283324.09999999404,7763,WL,C,6.0
2,9.414000034332275,learn,50585.999965667725,Wed Feb 25 2026 16:19:55 GMT-0600 (Central Standard Time),283924.5,A,fla,O,a,142,1,600.4000000059605,283324.09999999404,7763,WL,C,6.0
2,9.597000122070312,learn,50402.99987792969,Wed Feb 25 2026 16:19:55 GMT-0600 (Central Standard Time),284107.0,A,flag,O,g,163,1,782.9000000059605,283324.09999999404,7763,WL,C,6.0
2,9.77999997138977,learn,50220.00002861023,Wed Feb 25 2026 16:19:55 GMT-0600 (Central Standard Time),284290.5,A,flagenter,O,enter,171,1,966.4000000059605,283324.09999999404,7763,WL,C,6.0
2,10.097000122070312,learn,49902.99987792969,Wed Feb 25 2026 16:19:55 GMT-0600 (Central Standard Time),284606.59999999404,A,n,O,n,310,1,315.8999999910593,284290.700000003,7763,WL,C,7.0
2,10.213000059127808,learn,49786.99994087219,Wed Feb 25 2026 16:19:55 GMT-0600 (Central Standard Time),284723.09999999404,A,na,O,a,102,1,432.3999999910593,284290.700000003,7763,WL,C,7.0
2,10.414000034332275,learn,49585.999965667725,Wed Feb 25 2026 16:19:55 GMT-0600 (Central Standard Time),284924.0,A,nai,O,i,177,1,633.2999999970198,284290.700000003,7763,WL,C,7.0
2,10.680000066757202,learn,49319.9999332428,Wed Feb 25 2026 16:19:55 GMT-0600 (Central Standard Time),285190.299999997,A,nail,O,l,262,1,899.5999999940395,284290.700000003,7763,WL,C,7.0
2,10.996999979019165,learn,49003.000020980835,Wed Feb 25 2026 16:19:55 GMT-0600 (Central Standard Time),285507.299999997,A,nailenter,O,enter,296,1,1216.5999999940395,284290.700000003,7763,WL,C,7.0
2,11.713000059127808,learn,48286.99994087219,Wed Feb 25 2026 16:19:55 GMT-0600 (Central Standard Time),286223.09999999404,A,d,O,d,700,1,715.5999999940395,285507.5,7763,WL,C,8.0
2,11.847000122070312,learn,48152.99987792969,Wed Feb 25 2026 16:19:55 GMT-0600 (Central Standard Time),286356.700000003,A,do,O,o,118,1,849.2000000029802,285507.5,7763,WL,C,8.0
2,12.078999996185303,learn,47921.0000038147,Wed Feb 25 2026 16:19:55 GMT-0600 (Central Standard Time),286589.0,A,doc,O,c,227,1,1081.5,285507.5,7763,WL,C,8.0
2,12.312000036239624,learn,47687.999963760376,Wed Feb 25 2026 16:19:55 GMT-0600 (Central Standard Time),286822.5,A,doct,O,t,217,1,1315.0,285507.5,7763,WL,C,8.0
2,12.446000099182129,learn,47553.99990081787,Wed Feb 25 2026 16:19:55 GMT-0600 (Central Standard Time),286956.299999997,A,docto,O,o,111,1,1448.7999999970198,285507.5,7763,WL,C,8.0
2,12.580000162124634,learn,47419.999837875366,Wed Feb 25 2026 16:19:55 GMT-0600 (Central Standard Time),287090.299999997,A,doctor,O,r,121,1,1582.7999999970198,285507.5,7763,WL,C,8.0
2,12.848000049591064,learn,47151.999950408936,Wed Feb 25 2026 16:19:55 GMT-0600 (Central Standard Time),287358.59999999404,A,doctorenter,O,enter,252,1,1851.0999999940395,285507.5,7763,WL,C,8.0
2,13.081000089645386,learn,46918.999910354614,Wed Feb 25 2026 16:19:55 GMT-0600 (Central Standard Time),287590.59999999404,A,b,O,b,217,1,231.79999999701977,287358.799999997,7763,WL,C,9.0
2,13.229000091552734,learn,46770.999908447266,Wed Feb 25 2026 16:19:55 GMT-0600 (Central Standard Time),287739.09999999404,A,bo,O,o,135,1,380.29999999701977,287358.799999997,7763,WL,C,9.0
2,13.46399998664856,learn,46536.00001335144,Wed Feb 25 2026 16:19:55 GMT-0600 (Central Standard Time),287973.89999999106,A,boy,O,y,211,1,615.0999999940395,287358.799999997,7763,WL,C,9.0
2,13.796000003814697,learn,46203.9999961853,Wed Feb 25 2026 16:19:55 GMT-0600 (Central Standard Time),288305.700000003,A,boyenter,O,enter,322,1,946.9000000059605,287358.799999997,7763,WL,C,9.0
2,14.662000179290771,learn,45337.99982070923,Wed Feb 25 2026 16:19:55 GMT-0600 (Central Standard Time),289172.200000003,A,s,O,s,853,1,866.2000000029802,288306.0,7763,WL,C,10.0
2,14.811000108718872,learn,45188.99989128113,Wed Feb 25 2026 16:19:55 GMT-0600 (Central Standard Time),289321.39999999106,A,su,O,u,132,1,1015.3999999910593,288306.0,7763,WL,C,10.0
2,14.960999965667725,learn,45039.000034332275,Wed Feb 25 2026 16:19:55 GMT-0600 (Central Standard Time),289471.200000003,A,sur,O,r,134,1,1165.2000000029802,288306.0,7763,WL,C,10.0
2,15.162000179290771,learn,44837.99982070923,Wed Feb 25 2026 16:19:55 GMT-0600 (Central Standard Time),289672.0,A,surg,O,g,192,1,1366.0,288306.0,7763,WL,C,10.0
2,15.861999988555908,learn,44138.00001144409,Wed Feb 25 2026 16:19:55 GMT-0600 (Central Standard Time),290371.700000003,A,sur,O,backspace,695,1,2065.7000000029802,288306.0,7763,WL,C,10.0
2,16.042999982833862,learn,43957.00001716614,Wed Feb 25 2026 16:19:55 GMT-0600 (Central Standard Time),290553.09999999404,A,su,O,backspace,162,1,2247.0999999940395,288306.0,7763,WL,C,10.0
2,16.478000164031982,learn,43521.99983596802,Wed Feb 25 2026 16:19:55 GMT-0600 (Central Standard Time),290988.299999997,A,sug,O,g,416,1,2682.2999999970198,288306.0,7763,WL,C,10.0
2,16.778000116348267,learn,43221.99988365173,Wed Feb 25 2026 16:19:55 GMT-0600 (Central Standard Time),291287.799999997,A,suga,O,a,290,1,2981.7999999970198,288306.0,7763,WL,C,10.0
2,17.026999950408936,learn,42973.000049591064,Wed Feb 25 2026 16:19:55 GMT-0600 (Central Standard Time),291537.200000003,A,sugar,O,r,238,1,3231.2000000029802,288306.0,7763,WL,C,10.0
2,17.312999963760376,learn,42687.000036239624,Wed Feb 25 2026 16:19:55 GMT-0600 (Central Standard Time),291822.89999999106,A,sugarenter,O,enter,280,1,3516.8999999910593,288306.0,7763,WL,C,10.0
2,17.627000093460083,learn,42372.99990653992,Wed Feb 25 2026 16:19:55 GMT-0600 (Central Standard Time),292137.200000003,A,c,O,c,295,1,314.1000000089407,291823.09999999404,7763,WL,C,11.0
2,17.729000091552734,learn,42270.999908447266,Wed Feb 25 2026 16:19:55 GMT-0600 (Central Standard Time),292238.799999997,A,co,O,o,92,1,415.70000000298023,291823.09999999404,7763,WL,C,11.0
2,17.91100001335144,learn,42088.99998664856,Wed Feb 25 2026 16:19:55 GMT-0600 (Central Standard Time),292420.5,A,cor,O,r,167,1,597.4000000059605,291823.09999999404,7763,WL,C,11.0
2,18.17799997329712,learn,41822.00002670288,Wed Feb 25 2026 16:19:55 GMT-0600 (Central Standard Time),292687.59999999404,A,corn,O,n,248,1,864.5,291823.09999999404,7763,WL,C,11.0
2,18.68400001525879,learn,41315.99998474121,Wed Feb 25 2026 16:19:55 GMT-0600 (Central Standard Time),293194.09999999404,A,cornenter,O,enter,502,1,1371.0,291823.09999999404,7763,WL,C,11.0
2,20.39400005340576,learn,39605.99994659424,Wed Feb 25 2026 16:19:55 GMT-0600 (Central Standard Time),294904.299999997,A,w,O,w,1696,1,1710.0,293194.299999997,7763,WL,C,12.0
2,20.593000173568726,learn,39406.999826431274,Wed Feb 25 2026 16:19:55 GMT-0600 (Central Standard Time),295103.5,A,wh,O,h,182,1,1909.2000000029802,293194.299999997,7763,WL,C,12.0
2,20.743000030517578,learn,39256.99996948242,Wed Feb 25 2026 16:19:55 GMT-0600 (Central Standard Time),295252.59999999404,A,whe,O,e,142,1,2058.2999999970198,293194.299999997,7763,WL,C,12.0
2,20.960999965667725,learn,39039.000034332275,Wed Feb 25 2026 16:19:55 GMT-0600 (Central Standard Time),295470.89999999106,A,whea,O,a,211,1,2276.5999999940395,293194.299999997,7763,WL,C,12.0
2,21.194000005722046,learn,38805.999994277954,Wed Feb 25 2026 16:19:55 GMT-0600 (Central Standard Time),295704.0,A,wheat,O,t,218,1,2509.7000000029802,293194.299999997,7763,WL,C,12.0
2,21.56000018119812,learn,38439.99981880188,Wed Feb 25 2026 16:19:55 GMT-0600 (Central Standard Time),296070.39999999106,A,wheatenter,O,enter,351,1,2876.0999999940395,293194.299999997,7763,WL,C,12.0
2,21.960000038146973,learn,38039.99996185303,Wed Feb 25 2026 16:19:55 GMT-0600 (Central Standard Time),296469.89999999106,A,f,O,f,394,1,399.19999998807907,296070.700000003,7763,WL,C,13.0
2,22.093000173568726,learn,37906.999826431274,Wed Feb 25 2026 16:19:55 GMT-0600 (Central Standard Time),296603.0,A,fl,O,l,113,1,532.2999999970198,296070.700000003,7763,WL,C,13.0
2,22.243000030517578,learn,37756.99996948242,Wed Feb 25 2026 16:19:55 GMT-0600 (Central Standard Time),296752.59999999404,A,fla,O,a,139,1,681.8999999910593,296070.700000003,7763,WL,C,13.0
2,22.444000005722046,learn,37555.999994277954,Wed Feb 25 2026 16:19:55 GMT-0600 (Central Standard Time),296953.700000003,A,flag,O,g,182,1,883.0,296070.700000003,7763,WL,C,13.0
2,22.72699999809265,learn,37273.00000190735,Wed Feb 25 2026 16:19:55 GMT-0600 (Central Standard Time),297236.89999999106,A,flagenter,O,enter,261,1,1166.199999988079,296070.700000003,7763,WL,C,13.0
2,23.493000030517578,learn,36506.99996948242,Wed Feb 25 2026 16:19:55 GMT-0600 (Central Standard Time),298002.59999999404,A,n,O,n,755,1,765.3999999910593,297237.200000003,7763,WL,C,14.0
2,23.659000158309937,learn,36340.99984169006,Wed Feb 25 2026 16:19:55 GMT-0600 (Central Standard Time),298168.89999999106,A,na,O,a,149,1,931.6999999880791,297237.200000003,7763,WL,C,14.0
2,23.81000018119812,learn,36189.99981880188,Wed Feb 25 2026 16:19:55 GMT-0600 (Central Standard Time),298319.89999999106,A,nai,O,i,135,1,1082.699999988079,297237.200000003,7763,WL,C,14.0
2,24.075999975204468,learn,35924.00002479553,Wed Feb 25 2026 16:19:55 GMT-0600 (Central Standard Time),298585.799999997,A,nail,O,l,246,1,1348.5999999940395,297237.200000003,7763,WL,C,14.0
2,24.360000133514404,learn,35639.999866485596,Wed Feb 25 2026 16:19:55 GMT-0600 (Central Standard Time),298869.59999999404,A,nailenter,O,enter,271,1,1632.3999999910593,297237.200000003,7763,WL,C,14.0
2,28.674000024795532,learn,31325.999975204468,Wed Feb 25 2026 16:19:55 GMT-0600 (Central Standard Time),303184.299999997,A,t,O,t,4307,1,4314.5,298869.799999997,7763,WL,C,15.0
2,28.808000087738037,learn,31191.999912261963,Wed Feb 25 2026 16:19:55 GMT-0600 (Central Standard Time),303317.59999999404,A,to,O,o,119,1,4447.79999999702,298869.799999997,7763,WL,C,15.0
2,28.973999977111816,learn,31026.000022888184,Wed Feb 25 2026 16:19:55 GMT-0600 (Central Standard Time),303484.5,A,tow,O,w,154,1,4614.70000000298,298869.799999997,7763,WL,C,15.0
2,29.075000047683716,learn,30924.999952316284,Wed Feb 25 2026 16:19:55 GMT-0600 (Central Standard Time),303586.09999999404,A,towe,O,e,90,1,4716.29999999702,298869.799999997,7763,WL,C,15.0
2,29.19099998474121,learn,30809.00001525879,Wed Feb 25 2026 16:19:55 GMT-0600 (Central Standard Time),303700.700000003,A,tower,O,r,100,1,4830.9000000059605,298869.799999997,7763,WL,C,15.0
2,29.574000120162964,learn,30425.999879837036,Wed Feb 25 2026 16:19:55 GMT-0600 (Central Standard Time),304084.299999997,A,towerenter,O,enter,371,1,5214.5,298869.799999997,7763,WL,C,15.0
3,1.6499998569488525,learn,58350.00014305115,Wed Feb 25 2026 16:19:55 GMT-0600 (Central Standard Time),381076.299999997,A,c,O,c,1634,1,1649.2999999970198,379427.0,7763,WL,C,1.0
3,1.866999864578247,learn,58133.00013542175,Wed Feb 25 2026 16:19:55 GMT-0600 (Central Standard Time),381293.0,A,ca,O,a,199,1,1866.0,379427.0,7763,WL,C,1.0
3,2.0339999198913574,learn,57966.00008010864,Wed Feb 25 2026 16:19:55 GMT-0600 (Central Standard Time),381460.09999999404,A,cam,O,m,152,1,2033.0999999940395,379427.0,7763,WL,C,1.0
3,2.2159998416900635,learn,57784.00015830994,Wed Feb 25 2026 16:19:55 GMT-0600 (Central Standard Time),381642.39999999106,A,camp,O,p,171,1,2215.3999999910593,379427.0,7763,WL,C,1.0
3,2.632999897003174,learn,57367.000102996826,Wed Feb 25 2026 16:19:55 GMT-0600 (Central Standard Time),382058.89999999106,A,campenter,O,enter,394,1,2631.8999999910593,379427.0,7763,WL,C,1.0
3,3.9489998817443848,learn,56051.000118255615,Wed Feb 25 2026 16:19:55 GMT-0600 (Central Standard Time),383376.0,A,l,O,l,1308,1,1316.7999999970198,382059.200000003,7763,WL,C,2.0
3,4.098999977111816,learn,55901.00002288818,Wed Feb 25 2026 16:19:55 GMT-0600 (Central Standard Time),383525.59999999404,A,le,O,e,144,1,1466.3999999910593,382059.200000003,7763,WL,C,2.0
3,4.299000024795532,learn,55700.99997520447,Wed Feb 25 2026 16:19:55 GMT-0600 (Central Standard Time),383725.0,A,let,O,t,194,1,1665.7999999970198,382059.200000003,7763,WL,C,2.0
3,4.516000032424927,learn,55483.99996757507,Wed Feb 25 2026 16:19:55 GMT-0600 (Central Standard Time),383943.0,A,lett,O,t,201,1,1883.7999999970198,382059.200000003,7763,WL,C,2.0
3,4.697999954223633,learn,55302.00004577637,Wed Feb 25 2026 16:19:55 GMT-0600 (Central Standard Time),384124.799999997,A,lette,O,e,175,1,2065.5999999940395,382059.200000003,7763,WL,C,2.0
3,4.799000024795532,learn,55200.99997520447,Wed Feb 25 2026 16:19:55 GMT-0600 (Central Standard Time),384225.39999999106,A,letter,O,r,90,1,2166.199999988079,382059.200000003,7763,WL,C,2.0
3,5.082000017166138,learn,54917.99998283386,Wed Feb 25 2026 16:19:55 GMT-0600 (Central Standard Time),384508.39999999106,A,letterenter,O,enter,277,1,2449.199999988079,382059.200000003,7763,WL,C,2.0
3,5.665999889373779,learn,54334.00011062622,Wed Feb 25 2026 16:19:55 GMT-0600 (Central Standard Time),385092.39999999106,A,s,O,s,571,1,583.6999999880791,384508.700000003,7763,WL,C,3.0
3,5.781999826431274,learn,54218.000173568726,Wed Feb 25 2026 16:19:55 GMT-0600 (Central Standard Time),385208.299999997,A,sh,O,h,106,1,699.5999999940395,384508.700000003,7763,WL,C,3.0
3,5.881999969482422,learn,54118.00003051758,Wed Feb 25 2026 16:19:55 GMT-0600 (Central Standard Time),385308.59999999404,A,sho,O,o,87,1,799.8999999910593,384508.700000003,7763,WL,C,3.0
3,6.080999851226807,learn,53919.00014877319,Wed Feb 25 2026 16:19:55 GMT-0600 (Central Standard Time),385507.5,A,shor,O,r,178,1,998.7999999970198,384508.700000003,7763,WL,C,3.0
3,6.263999938964844,learn,53736.000061035156,Wed Feb 25 2026 16:19:55 GMT-0600 (Central Standard Time),385690.5,A,shore,O,e,160,1,1181.7999999970198,384508.700000003,7763,WL,C,3.0
3,6.4649999141693115,learn,53535.00008583069,Wed Feb 25 2026 16:19:55 GMT-0600 (Central Standard Time),385891.299999997,A,shoreenter,O,enter,188,1,1382.5999999940395,384508.700000003,7763,WL,C,3.0
3,6.998999834060669,learn,53001.00016593933,Wed Feb 25 2026 16:19:55 GMT-0600 (Central Standard Time),386425.200000003,A,b,O,b,516,1,533.6000000089407,385891.59999999404,7763,WL,C,4.0
3,7.131999969482422,learn,52868.00003051758,Wed Feb 25 2026 16:19:55 GMT-0600 (Central Standard Time),386558.0,A,bo,O,o,112,1,666.4000000059605,385891.59999999404,7763,WL,C,4.0
3,7.2809998989105225,learn,52719.00010108948,Wed Feb 25 2026 16:19:55 GMT-0600 (Central Standard Time),386707.700000003,A,bod,O,d,135,1,816.1000000089407,385891.59999999404,7763,WL,C,4.0
3,7.430999994277954,learn,52569.000005722046,Wed Feb 25 2026 16:19:55 GMT-0600 (Central Standard Time),386857.39999999106,A,body,O,y,133,1,965.7999999970198,385891.59999999404,7763,WL,C,4.0
3,7.680999994277954,learn,52319.000005722046,Wed Feb 25 2026 16:19:55 GMT-0600 (Central Standard Time),387107.59999999404,A,bodyenter,O,enter,235,1,1216.0,385891.59999999404,7763,WL,C,4.0
3,8.096999883651733,learn,51903.00011634827,Wed Feb 25 2026 16:19:55 GMT-0600 (Central Standard Time),387523.89999999106,A,c,O,c,397,1,416.09999999403954,387107.799999997,7763,WL,C,5.0
3,8.230999946594238,learn,51769.00005340576,Wed Feb 25 2026 16:19:55 GMT-0600 (Central Standard Time),387657.799999997,A,co,O,o,117,1,550.0,387107.799999997,7763,WL,C,5.0
3,8.846999883651733,learn,51153.00011634827,Wed Feb 25 2026 16:19:55 GMT-0600 (Central Standard Time),388273.5,A,c,O,backspace,596,1,1165.7000000029802,387107.799999997,7763,WL,C,5.0
3,9.047999858856201,learn,50952.0001411438,Wed Feb 25 2026 16:19:55 GMT-0600 (Central Standard Time),388474.5,A,,O,backspace,179,1,1366.7000000029802,387107.799999997,7763,WL,C,5.0
3,9.329999923706055,learn,50670.000076293945,Wed Feb 25 2026 16:19:55 GMT-0600 (Central Standard Time),388756.200000003,A,d,O,d,267,1,1648.4000000059605,387107.799999997,7763,WL,C,5.0
3,9.463000059127808,learn,50536.99994087219,Wed Feb 25 2026 16:19:55 GMT-0600 (Central Standard Time),388889.5,A,do,O,o,114,1,1781.7000000029802,387107.799999997,7763,WL,C,5.0
3,9.63100004196167,learn,50368.99995803833,Wed Feb 25 2026 16:19:55 GMT-0600 (Central Standard Time),389057.09999999404,A,doc,O,c,156,1,1949.2999999970198,387107.799999997,7763,WL,C,5.0
3,9.86299991607666,learn,50137.00008392334,Wed Feb 25 2026 16:19:55 GMT-0600 (Central Standard Time),389289.200000003,A,doct,O,t,213,1,2181.4000000059605,387107.799999997,7763,WL,C,5.0
3,10.013000011444092,learn,49986.99998855591,Wed Feb 25 2026 16:19:55 GMT-0600 (Central Standard Time),389439.700000003,A,docto,O,o,133,1,2331.9000000059605,387107.799999997,7763,WL,C,5.0
3,10.19700002670288,learn,49802.99997329712,Wed Feb 25 2026 16:19:55 GMT-0600 (Central Standard Time),389624.0,A,doctor,O,r,174,1,2516.2000000029802,387107.799999997,7763,WL,C,5.0
3,10.429999828338623,learn,49570.00017166138,Wed Feb 25 2026 16:19:55 GMT-0600 (Central Standard Time),389856.799999997,A,doctorenter,O,enter,217,1,2749.0,387107.799999997,7763,WL,C,5.0
3,11.095999956130981,learn,48904.00004386902,Wed Feb 25 2026 16:19:55 GMT-0600 (Central Standard Time),390522.59999999404,A,b,O,b,655,1,665.5999999940395,389857.0,7763,WL,C,6.0
3,11.263000011444092,learn,48736.99998855591,Wed Feb 25 2026 16:19:55 GMT-0600 (Central Standard Time),390689.299999997,A,bo,O,o,156,1,832.2999999970198,389857.0,7763,WL,C,6.0
3,11.463000059127808,learn,48536.99994087219,Wed Feb 25 2026 16:19:55 GMT-0600 (Central Standard Time),390889.09999999404,A,boy,O,y,180,1,1032.0999999940395,389857.0,7763,WL,C,6.0
3,11.777999877929688,learn,48222.00012207031,Wed Feb 25 2026 16:19:55 GMT-0600 (Central Standard Time),391205.0,A,boyenter,O,enter,300,1,1348.0,389857.0,7763,WL,C,6.0
3,12.69700002670288,learn,47302.99997329712,Wed Feb 25 2026 16:19:55 GMT-0600 (Central Standard Time),392123.5,A,t,O,t,898,1,918.4000000059605,391205.09999999404,7763,WL,C,7.0
3,12.846999883651733,learn,47153.00011634827,Wed Feb 25 2026 16:19:55 GMT-0600 (Central Standard Time),392273.200000003,A,to,O,o,130,1,1068.1000000089407,391205.09999999404,7763,WL,C,7.0
3,13.078999996185303,learn,46921.0000038147,Wed Feb 25 2026 16:19:55 GMT-0600 (Central Standard Time),392505.39999999106,A,tow,O,w,211,1,1300.2999999970198,391205.09999999404,7763,WL,C,7.0
3,13.312999963760376,learn,46687.000036239624,Wed Feb 25 2026 16:19:55 GMT-0600 (Central Standard Time),392739.39999999106,A,towe,O,e,219,1,1534.2999999970198,391205.09999999404,7763,WL,C,7.0
3,13.378000020980835,learn,46621.999979019165,Wed Feb 25 2026 16:19:55 GMT-0600 (Central Standard Time),392804.799999997,A,tower,O,r,57,1,1599.7000000029802,391205.09999999404,7763,WL,C,7.0
3,13.711999893188477,learn,46288.00010681152,Wed Feb 25 2026 16:19:55 GMT-0600 (Central Standard Time),393138.700000003,A,towerenter,O,enter,322,1,1933.6000000089407,391205.09999999404,7763,WL,C,7.0
3,14.27999997138977,learn,45720.00002861023,Wed Feb 25 2026 16:19:55 GMT-0600 (Central Standard Time),393706.200000003,A,n,O,n,549,1,567.2000000029802,393139.0,7763,WL,C,8.0
3,14.828999996185303,learn,45171.0000038147,Wed Feb 25 2026 16:19:55 GMT-0600 (Central Standard Time),394255.5,A,,O,backspace,530,1,1116.5,393139.0,7763,WL,C,8.0
3,15.128999948501587,learn,44871.00005149841,Wed Feb 25 2026 16:19:55 GMT-0600 (Central Standard Time),394555.700000003,A,h,O,h,290,1,1416.7000000029802,393139.0,7763,WL,C,8.0
3,15.361999988555908,learn,44638.00001144409,Wed Feb 25 2026 16:19:55 GMT-0600 (Central Standard Time),394788.59999999404,A,ho,O,o,212,1,1649.5999999940395,393139.0,7763,WL,C,8.0
3,15.644999980926514,learn,44355.000019073486,Wed Feb 25 2026 16:19:55 GMT-0600 (Central Standard Time),395071.200000003,A,hom,O,m,266,1,1932.2000000029802,393139.0,7763,WL,C,8.0
3,15.843999862670898,learn,44156.0001373291,Wed Feb 25 2026 16:19:55 GMT-0600 (Central Standard Time),395270.799999997,A,home,O,e,182,1,2131.7999999970198,393139.0,7763,WL,C,8.0
3,16.027999877929688,learn,43972.00012207031,Wed Feb 25 2026 16:19:55 GMT-0600 (Central Standard Time),395454.700000003,A,homeenter,O,enter,175,1,2315.7000000029802,393139.0,7763,WL,C,8.0
3,16.277999877929688,learn,43722.00012207031,Wed Feb 25 2026 16:19:55 GMT-0600 (Central Standard Time),395704.200000003,A,q,O,q,233,1,249.30000001192093,395454.89999999106,7763,WL,C,9.0
3,16.427000045776367,learn,43572.99995422363,Wed Feb 25 2026 16:19:55 GMT-0600 (Central Standard Time),395853.799999997,A,qu,O,u,141,1,398.90000000596046,395454.89999999106,7763,WL,C,9.0
3,16.67899990081787,learn,43321.00009918213,Wed Feb 25 2026 16:19:55 GMT-0600 (Central Standard Time),396105.200000003,A,que,O,e,234,1,650.3000000119209,395454.89999999106,7763,WL,C,9.0
3,16.860999822616577,learn,43139.00017738342,Wed Feb 25 2026 16:19:55 GMT-0600 (Central Standard Time),396287.799999997,A,quee,O,e,175,1,832.9000000059605,395454.89999999106,7763,WL,C,9.0
3,17.110999822616577,learn,42889.00017738342,Wed Feb 25 2026 16:19:55 GMT-0600 (Central Standard Time),396537.59999999404,A,queen,O,n,230,1,1082.7000000029802,395454.89999999106,7763,WL,C,9.0
3,17.394999980926514,learn,42605.000019073486,Wed Feb 25 2026 16:19:55 GMT-0600 (Central Standard Time),396821.200000003,A,queenenter,O,enter,257,1,1366.300000011921,395454.89999999106,7763,WL,C,9.0
3,18.794999837875366,learn,41205.000162124634,Wed Feb 25 2026 16:19:55 GMT-0600 (Central Standard Time),398221.89999999106,A,w,O,w,1381,1,1400.3999999910593,396821.5,7763,WL,C,10.0
3,18.97699999809265,learn,41023.00000190735,Wed Feb 25 2026 16:19:55 GMT-0600 (Central Standard Time),398403.39999999106,A,wh,O,h,167,1,1581.8999999910593,396821.5,7763,WL,C,10.0
3,19.15999984741211,learn,40840.00015258789,Wed Feb 25 2026 16:19:55 GMT-0600 (Central Standard Time),398586.799999997,A,whe,O,e,170,1,1765.2999999970198,396821.5,7763,WL,C,10.0
3,19.361999988555908,learn,40638.00001144409,Wed Feb 25 2026 16:19:55 GMT-0600 (Central Standard Time),398788.0,A,whea,O,a,180,1,1966.5,396821.5,7763,WL,C,10.0
3,19.57699990272522,learn,40423.00009727478,Wed Feb 25 2026 16:19:55 GMT-0600 (Central Standard Time),399003.700000003,A,wheat,O,t,201,1,2182.2000000029802,396821.5,7763,WL,C,10.0
3,19.810999870300293,learn,40189.00012969971,Wed Feb 25 2026 16:19:55 GMT-0600 (Central Standard Time),399237.89999999106,A,wheatenter,O,enter,219,1,2416.3999999910593,396821.5,7763,WL,C,10.0
3,20.05999994277954,learn,39940.00005722046,Wed Feb 25 2026 16:19:55 GMT-0600 (Central Standard Time),399486.799999997,A,c,O,c,230,1,248.70000000298023,399238.09999999404,7763,WL,C,11.0
3,20.17799997329712,learn,39822.00002670288,Wed Feb 25 2026 16:19:55 GMT-0600 (Central Standard Time),399604.09999999404,A,co,O,o,94,1,366.0,399238.09999999404,7763,WL,C,11.0
3,20.32699990272522,learn,39673.00009727478,Wed Feb 25 2026 16:19:55 GMT-0600 (Central Standard Time),399753.200000003,A,cor,O,r,138,1,515.1000000089407,399238.09999999404,7763,WL,C,11.0
3,20.543999910354614,learn,39456.000089645386,Wed Feb 25 2026 16:19:55 GMT-0600 (Central Standard Time),399970.799999997,A,corn,O,n,204,1,732.7000000029802,399238.09999999404,7763,WL,C,11.0
3,20.942999839782715,learn,39057.000160217285,Wed Feb 25 2026 16:19:55 GMT-0600 (Central Standard Time),400369.700000003,A,cornenter,O,enter,380,1,1131.6000000089407,399238.09999999404,7763,WL,C,11.0
3,21.293999910354614,learn,38706.000089645386,Wed Feb 25 2026 16:19:55 GMT-0600 (Central Standard Time),400720.700000003,A,s,O,s,334,1,350.80000001192093,400369.89999999106,7763,WL,C,12.0
3,21.493000030517578,learn,38506.99996948242,Wed Feb 25 2026 16:19:55 GMT-0600 (Central Standard Time),400919.5,A,su,O,u,180,1,549.6000000089407,400369.89999999106,7763,WL,C,12.0
3,22.191999912261963,learn,37808.00008773804,Wed Feb 25 2026 16:19:55 GMT-0600 (Central Standard Time),401618.799999997,A,sug,O,g,681,1,1248.9000000059605,400369.89999999106,7763,WL,C,12.0
3,22.425999879837036,learn,37574.000120162964,Wed Feb 25 2026 16:19:55 GMT-0600 (Central Standard Time),401852.39999999106,A,suga,O,a,219,1,1482.5,400369.89999999106,7763,WL,C,12.0
3,22.691999912261963,learn,37308.00008773804,Wed Feb 25 2026 16:19:55 GMT-0600 (Central Standard Time),402118.700000003,A,sugar,O,r,255,1,1748.800000011921,400369.89999999106,7763,WL,C,12.0
3,23.424999952316284,learn,36575.000047683716,Wed Feb 25 2026 16:19:55 GMT-0600 (Central Standard Time),402851.59999999404,A,sugarenter,O,enter,719,1,2481.7000000029802,400369.89999999106,7763,WL,C,12.0
3,24.408999919891357,learn,35591.00008010864,Wed Feb 25 2026 16:19:55 GMT-0600 (Central Standard Time),403835.5,A,f,O,f,964,1,983.6000000089407,402851.89999999106,7763,WL,C,13.0
3,24.556999921798706,learn,35443.000078201294,Wed Feb 25 2026 16:19:55 GMT-0600 (Central Standard Time),403984.299999997,A,fl,O,l,137,1,1132.4000000059605,402851.89999999106,7763,WL,C,13.0
3,24.743000030517578,learn,35256.99996948242,Wed Feb 25 2026 16:19:55 GMT-0600 (Central Standard Time),404169.799999997,A,fla,O,a,166,1,1317.9000000059605,402851.89999999106,7763,WL,C,13.0
3,24.94099998474121,learn,35059.00001525879,Wed Feb 25 2026 16:19:55 GMT-0600 (Central Standard Time),404367.799999997,A,flag,O,g,188,1,1515.9000000059605,402851.89999999106,7763,WL,C,13.0
3,25.19099998474121,learn,34809.00001525879,Wed Feb 25 2026 16:19:55 GMT-0600 (Central Standard Time),404618.09999999404,A,flagenter,O,enter,238,1,1766.2000000029802,402851.89999999106,7763,WL,C,13.0
3,25.825000047683716,learn,34174.999952316284,Wed Feb 25 2026 16:19:55 GMT-0600 (Central Standard Time),405251.700000003,A,n,O,n,621,1,633.4000000059605,404618.299999997,7763,WL,C,14.0
3,25.990999937057495,learn,34009.000062942505,Wed Feb 25 2026 16:19:55 GMT-0600 (Central Standard Time),405417.700000003,A,na,O,a,156,1,799.4000000059605,404618.299999997,7763,WL,C,14.0
3,26.507999897003174,learn,33492.000102996826,Wed Feb 25 2026 16:19:55 GMT-0600 (Central Standard Time),405934.799999997,A,nai,O,i,501,1,1316.5,404618.299999997,7763,WL,C,14.0
3,26.825000047683716,learn,33174.999952316284,Wed Feb 25 2026 16:19:55 GMT-0600 (Central Standard Time),406251.39999999106,A,nail,O,l,304,1,1633.0999999940395,404618.299999997,7763,WL,C,14.0
3,27.174000024795532,learn,32825.99997520447,Wed Feb 25 2026 16:19:55 GMT-0600 (Central Standard Time),406600.799999997,A,nailenter,O,enter,333,1,1982.5,404618.299999997,7763,WL,C,14.0
3,34.50600004196167,learn,25493.99995803833,Wed Feb 25 2026 16:19:55 GMT-0600 (Central Standard Time),413932.39999999106,A,l,O,l,7312,1,7331.399999991059,406601.0,7763,WL,C,15.0
3,34.67199993133545,learn,25328.00006866455,Wed Feb 25 2026 16:19:55 GMT-0600 (Central Standard Time),414099.09999999404,A,le,O,e,157,1,7498.0999999940395,406601.0,7763,WL,C,15.0
3,34.888999938964844,learn,25111.000061035156,Wed Feb 25 2026 16:19:55 GMT-0600 (Central Standard Time),414316.09999999404,A,let,O,t,205,1,7715.0999999940395,406601.0,7763,WL,C,15.0
3,35.05499982833862,learn,24945.000171661377,Wed Feb 25 2026 16:19:55 GMT-0600 (Central Standard Time),414482.200000003,A,lett,O,t,158,1,7881.20000000298,406601.0,7763,WL,C,15.0
3,35.23799991607666,learn,24762.00008392334,Wed Feb 25 2026 16:19:55 GMT-0600 (Central Standard Time),414665.299999997,A,lette,O,e,165,1,8064.29999999702,406601.0,7763,WL,C,15.0
3,35.32200002670288,learn,24677.99997329712,Wed Feb 25 2026 16:19:55 GMT-0600 (Central Standard Time),414749.0,A,letter,O,r,70,1,8148.0,406601.0,7763,WL,C,15.0
3,35.52199983596802,learn,24478.000164031982,Wed Feb 25 2026 16:19:55 GMT-0600 (Central Standard Time),414948.59999999404,A,letterenter,O,enter,192,1,8347.59999999404,406601.0,7763,WL,C,15.0
4,1.1160001754760742,learn,58883.999824523926,Wed Feb 25 2026 16:19:55 GMT-0600 (Central Standard Time),490325.0,A,l,O,l,1103,1,1115.7999999970198,489209.200000003,7763,WL,C,1.0
4,1.315000057220459,learn,58684.99994277954,Wed Feb 25 2026 16:19:55 GMT-0600 (Central Standard Time),490524.89999999106,A,le,O,e,186,1,1315.699999988079,489209.200000003,7763,WL,C,1.0
4,1.5170001983642578,learn,58482.99980163574,Wed Feb 25 2026 16:19:55 GMT-0600 (Central Standard Time),490726.0,A,let,O,t,197,1,1516.7999999970198,489209.200000003,7763,WL,C,1.0
4,1.6990001201629639,learn,58300.999879837036,Wed Feb 25 2026 16:19:55 GMT-0600 (Central Standard Time),490907.799999997,A,lett,O,t,161,1,1698.5999999940395,489209.200000003,7763,WL,C,1.0
4,1.8640000820159912,learn,58135.99991798401,Wed Feb 25 2026 16:19:55 GMT-0600 (Central Standard Time),491073.700000003,A,lette,O,e,147,1,1864.5,489209.200000003,7763,WL,C,1.0
4,1.9310002326965332,learn,58068.99976730347,Wed Feb 25 2026 16:19:55 GMT-0600 (Central Standard Time),491140.700000003,A,letter,O,r,51,1,1931.5,489209.200000003,7763,WL,C,1.0
4,2.2320001125335693,learn,57767.99988746643,Wed Feb 25 2026 16:19:55 GMT-0600 (Central Standard Time),491441.09999999404,A,letterenter,O,enter,292,1,2231.8999999910593,489209.200000003,7763,WL,C,1.0
4,2.5810000896453857,learn,57418.999910354614,Wed Feb 25 2026 16:19:55 GMT-0600 (Central Standard Time),491790.59999999404,A,c,O,c,341,1,349.29999999701977,491441.299999997,7763,WL,C,2.0
4,2.7660000324249268,learn,57233.99996757507,Wed Feb 25 2026 16:19:55 GMT-0600 (Central Standard Time),491974.89999999106,A,ca,O,a,176,1,533.5999999940395,491441.299999997,7763,WL,C,2.0
4,2.949000120162964,learn,57050.999879837036,Wed Feb 25 2026 16:19:55 GMT-0600 (Central Standard Time),492157.89999999106,A,cat,O,t,170,1,716.5999999940395,491441.299999997,7763,WL,C,2.0
4,3.0830001831054688,learn,56916.99981689453,Wed Feb 25 2026 16:19:55 GMT-0600 (Central Standard Time),492291.89999999106,A,catt,O,t,121,1,850.5999999940395,491441.299999997,7763,WL,C,2.0
4,3.2310001850128174,learn,56768.99981498718,Wed Feb 25 2026 16:19:55 GMT-0600 (Central Standard Time),492439.799999997,A,cattl,O,l,133,1,998.5,491441.299999997,7763,WL,C,2.0
4,3.365000009536743,learn,56634.99999046326,Wed Feb 25 2026 16:19:55 GMT-0600 (Central Standard Time),492574.39999999106,A,cattle,O,e,128,1,1133.0999999940395,491441.299999997,7763,WL,C,2.0
4,3.5980000495910645,learn,56401.999950408936,Wed Feb 25 2026 16:19:55 GMT-0600 (Central Standard Time),492806.89999999106,A,cattleenter,O,enter,217,1,1365.5999999940395,491441.299999997,7763,WL,C,2.0
4,3.865000009536743,learn,56134.99999046326,Wed Feb 25 2026 16:19:55 GMT-0600 (Central Standard Time),493074.59999999404,A,s,O,s,247,1,267.3999999910593,492807.200000003,7763,WL,C,3.0
4,3.999000072479248,learn,56000.99992752075,Wed Feb 25 2026 16:19:55 GMT-0600 (Central Standard Time),493208.299999997,A,sh,O,h,117,1,401.09999999403954,492807.200000003,7763,WL,C,3.0
4,4.0970001220703125,learn,55902.99987792969,Wed Feb 25 2026 16:19:55 GMT-0600 (Central Standard Time),493306.39999999106,A,sho,O,o,77,1,499.19999998807907,492807.200000003,7763,WL,C,3.0
4,4.264000177383423,learn,55735.99982261658,Wed Feb 25 2026 16:19:55 GMT-0600 (Central Standard Time),493473.39999999106,A,shor,O,r,148,1,666.1999999880791,492807.200000003,7763,WL,C,3.0
4,4.397000074386597,learn,55602.9999256134,Wed Feb 25 2026 16:19:55 GMT-0600 (Central Standard Time),493606.5,A,shore,O,e,117,1,799.2999999970198,492807.200000003,7763,WL,C,3.0
4,4.5990002155303955,learn,55400.999784469604,Wed Feb 25 2026 16:19:55 GMT-0600 (Central Standard Time),493807.89999999106,A,shoreenter,O,enter,177,1,1000.6999999880791,492807.200000003,7763,WL,C,3.0
4,4.966000080108643,learn,55033.99991989136,Wed Feb 25 2026 16:19:55 GMT-0600 (Central Standard Time),494174.799999997,A,b,O,b,346,1,366.70000000298023,493808.09999999404,7763,WL,C,4.0
4,5.080000162124634,learn,54919.999837875366,Wed Feb 25 2026 16:19:55 GMT-0600 (Central Standard Time),494289.59999999404,A,bo,O,o,106,1,481.5,493808.09999999404,7763,WL,C,4.0
4,5.314000129699707,learn,54685.99987030029,Wed Feb 25 2026 16:19:55 GMT-0600 (Central Standard Time),494523.0,A,bod,O,d,212,1,714.9000000059605,493808.09999999404,7763,WL,C,4.0
4,5.514000177383423,learn,54485.99982261658,Wed Feb 25 2026 16:19:55 GMT-0600 (Central Standard Time),494723.700000003,A,body,O,y,179,1,915.6000000089407,493808.09999999404,7763,WL,C,4.0
4,5.814000129699707,learn,54185.99987030029,Wed Feb 25 2026 16:19:55 GMT-0600 (Central Standard Time),495023.200000003,A,bodyenter,O,enter,283,1,1215.1000000089407,493808.09999999404,7763,WL,C,4.0
4,6.080000162124634,learn,53919.999837875366,Wed Feb 25 2026 16:19:55 GMT-0600 (Central Standard Time),495289.200000003,A,t,O,t,247,1,265.70000000298023,495023.5,7763,WL,C,5.0
4,6.197000026702881,learn,53802.99997329712,Wed Feb 25 2026 16:19:55 GMT-0600 (Central Standard Time),495406.5,A,to,O,o,108,1,383.0,495023.5,7763,WL,C,5.0
4,6.38100004196167,learn,53618.99995803833,Wed Feb 25 2026 16:19:55 GMT-0600 (Central Standard Time),495590.39999999106,A,tow,O,w,163,1,566.8999999910593,495023.5,7763,WL,C,5.0
4,6.446000099182129,learn,53553.99990081787,Wed Feb 25 2026 16:19:55 GMT-0600 (Central Standard Time),495655.39999999106,A,towe,O,e,55,1,631.8999999910593,495023.5,7763,WL,C,5.0
4,6.5980000495910645,learn,53401.999950408936,Wed Feb 25 2026 16:19:55 GMT-0600 (Central Standard Time),495807.799999997,A,tower,O,r,134,1,784.2999999970198,495023.5,7763,WL,C,5.0
4,6.863000154495239,learn,53136.99984550476,Wed Feb 25 2026 16:19:55 GMT-0600 (Central Standard Time),496071.89999999106,A,towerenter,O,enter,245,1,1048.3999999910593,495023.5,7763,WL,C,5.0
4,7.213000059127808,learn,52786.99994087219,Wed Feb 25 2026 16:19:55 GMT-0600 (Central Standard Time),496422.39999999106,A,f,O,f,346,1,350.29999999701977,496072.09999999404,7763,WL,C,6.0
4,7.3480000495910645,learn,52651.999950408936,Wed Feb 25 2026 16:19:55 GMT-0600 (Central Standard Time),496557.0,A,fl,O,l,119,1,484.90000000596046,496072.09999999404,7763,WL,C,6.0
4,7.496000051498413,learn,52503.99994850159,Wed Feb 25 2026 16:19:55 GMT-0600 (Central Standard Time),496705.5,A,fla,O,a,128,1,633.4000000059605,496072.09999999404,7763,WL,C,6.0
4,7.680000066757202,learn,52319.9999332428,Wed Feb 25 2026 16:19:55 GMT-0600 (Central Standard Time),496889.39999999106,A,flag,O,g,163,1,817.2999999970198,496072.09999999404,7763,WL,C,6.0
4,7.797000169754028,learn,52202.99983024597,Wed Feb 25 2026 16:19:55 GMT-0600 (Central Standard Time),497005.799999997,A,flagenter,O,enter,102,1,933.7000000029802,496072.09999999404,7763,WL,C,6.0
4,8.115000009536743,learn,51884.99999046326,Wed Feb 25 2026 16:19:55 GMT-0600 (Central Standard Time),497324.09999999404,A,n,O,n,306,1,318.0,497006.09999999404,7763,WL,C,7.0
4,8.229000091552734,learn,51770.999908447266,Wed Feb 25 2026 16:19:55 GMT-0600 (Central Standard Time),497438.799999997,A,na,O,a,91,1,432.70000000298023,497006.09999999404,7763,WL,C,7.0
4,8.413000106811523,learn,51586.99989318848,Wed Feb 25 2026 16:19:55 GMT-0600 (Central Standard Time),497622.299999997,A,nai,O,i,177,1,616.2000000029802,497006.09999999404,7763,WL,C,7.0
4,8.663000106811523,learn,51336.99989318848,Wed Feb 25 2026 16:19:55 GMT-0600 (Central Standard Time),497872.5,A,nail,O,l,239,1,866.4000000059605,497006.09999999404,7763,WL,C,7.0
4,8.946000099182129,learn,51053.99990081787,Wed Feb 25 2026 16:19:55 GMT-0600 (Central Standard Time),498155.09999999404,A,nailenter,O,enter,268,1,1149.0,497006.09999999404,7763,WL,C,7.0
4,9.414000034332275,learn,50585.999965667725,Wed Feb 25 2026 16:19:55 GMT-0600 (Central Standard Time),498623.200000003,A,q,O,q,449,1,468.0,498155.200000003,7763,WL,C,8.0
4,9.59600019454956,learn,50403.99980545044,Wed Feb 25 2026 16:19:55 GMT-0600 (Central Standard Time),498805.799999997,A,qu,O,u,169,1,650.5999999940395,498155.200000003,7763,WL,C,8.0
4,9.879000186920166,learn,50120.999813079834,Wed Feb 25 2026 16:19:55 GMT-0600 (Central Standard Time),499088.700000003,A,que,O,e,272,1,933.5,498155.200000003,7763,WL,C,8.0
4,10.045000076293945,learn,49954.999923706055,Wed Feb 25 2026 16:19:55 GMT-0600 (Central Standard Time),499253.799999997,A,quee,O,e,150,1,1098.5999999940395,498155.200000003,7763,WL,C,8.0
4,10.246000051498413,learn,49753.99994850159,Wed Feb 25 2026 16:19:55 GMT-0600 (Central Standard Time),499455.200000003,A,queen,O,n,186,1,1300.0,498155.200000003,7763,WL,C,8.0
4,10.544000148773193,learn,49455.99985122681,Wed Feb 25 2026 16:19:55 GMT-0600 (Central Standard Time),499753.0,A,queenenter,O,enter,284,1,1597.7999999970198,498155.200000003,7763,WL,C,8.0
4,12.496000051498413,learn,47503.99994850159,Wed Feb 25 2026 16:19:55 GMT-0600 (Central Standard Time),501705.0,A,c,O,c,1944,1,1951.7000000029802,499753.299999997,7763,WL,C,9.0
4,12.646000146865845,learn,47353.999853134155,Wed Feb 25 2026 16:19:55 GMT-0600 (Central Standard Time),501855.39999999106,A,ca,O,a,134,1,2102.0999999940395,499753.299999997,7763,WL,C,9.0
4,12.812000036239624,learn,47187.999963760376,Wed Feb 25 2026 16:19:55 GMT-0600 (Central Standard Time),502021.09999999404,A,cam,O,m,159,1,2267.7999999970198,499753.299999997,7763,WL,C,9.0
4,13.01200008392334,learn,46987.99991607666,Wed Feb 25 2026 16:19:55 GMT-0600 (Central Standard Time),502220.799999997,A,camp,O,p,193,1,2467.5,499753.299999997,7763,WL,C,9.0
4,13.360000133514404,learn,46639.999866485596,Wed Feb 25 2026 16:19:55 GMT-0600 (Central Standard Time),502569.59999999404,A,campenter,O,enter,339,1,2816.2999999970198,499753.299999997,7763,WL,C,9.0
4,15.49400019645691,learn,44505.99980354309,Wed Feb 25 2026 16:19:55 GMT-0600 (Central Standard Time),504702.799999997,A,f,O,f,2119,1,2132.9000000059605,502569.89999999106,7763,WL,C,10.0
4,15.611000061035156,learn,44388.999938964844,Wed Feb 25 2026 16:19:55 GMT-0600 (Central Standard Time),504820.59999999404,A,fl,O,l,103,1,2250.7000000029802,502569.89999999106,7763,WL,C,10.0
4,15.760000228881836,learn,44239.999771118164,Wed Feb 25 2026 16:19:55 GMT-0600 (Central Standard Time),504969.700000003,A,fla,O,a,139,1,2399.800000011921,502569.89999999106,7763,WL,C,10.0
4,15.961000204086304,learn,44038.999795913696,Wed Feb 25 2026 16:19:55 GMT-0600 (Central Standard Time),505170.299999997,A,flag,O,g,181,1,2600.4000000059605,502569.89999999106,7763,WL,C,10.0
4,16.210000038146973,learn,43789.99996185303,Wed Feb 25 2026 16:19:55 GMT-0600 (Central Standard Time),505419.39999999106,A,flagenter,O,enter,228,1,2849.5,502569.89999999106,7763,WL,C,10.0
4,16.66100001335144,learn,43338.99998664856,Wed Feb 25 2026 16:19:55 GMT-0600 (Central Standard Time),505869.799999997,A,n,O,n,435,1,450.09999999403954,505419.700000003,7763,WL,C,11.0
4,16.81000018119812,learn,43189.99981880188,Wed Feb 25 2026 16:19:55 GMT-0600 (Central Standard Time),506019.299999997,A,na,O,a,131,1,599.5999999940395,505419.700000003,7763,WL,C,11.0
4,17.013000011444092,learn,42986.99998855591,Wed Feb 25 2026 16:19:55 GMT-0600 (Central Standard Time),506222.0,A,nai,O,i,181,1,802.2999999970198,505419.700000003,7763,WL,C,11.0
4,17.246000051498413,learn,42753.99994850159,Wed Feb 25 2026 16:19:55 GMT-0600 (Central Standard Time),506455.59999999404,A,nail,O,l,217,1,1035.8999999910593,505419.700000003,7763,WL,C,11.0
4,17.561000108718872,learn,42438.99989128113,Wed Feb 25 2026 16:19:55 GMT-0600 (Central Standard Time),506770.5,A,nailenter,O,enter,302,1,1350.7999999970198,505419.700000003,7763,WL,C,11.0
4,18.29300022125244,learn,41706.99977874756,Wed Feb 25 2026 16:19:55 GMT-0600 (Central Standard Time),507502.59999999404,A,c,O,c,716,1,731.7999999970198,506770.799999997,7763,WL,C,12.0
4,18.392000198364258,learn,41607.99980163574,Wed Feb 25 2026 16:19:55 GMT-0600 (Central Standard Time),507601.5,A,co,O,o,86,1,830.7000000029802,506770.799999997,7763,WL,C,12.0
4,18.593000173568726,learn,41406.999826431274,Wed Feb 25 2026 16:19:55 GMT-0600 (Central Standard Time),507801.89999999106,A,cor,O,r,188,1,1031.0999999940395,506770.799999997,7763,WL,C,12.0
4,18.778000116348267,learn,41221.99988365173,Wed Feb 25 2026 16:19:55 GMT-0600 (Central Standard Time),507987.09999999404,A,corn,O,n,174,1,1216.2999999970198,506770.799999997,7763,WL,C,12.0
4,19.06000018119812,learn,40939.99981880188,Wed Feb 25 2026 16:19:55 GMT-0600 (Central Standard Time),508269.0,A,cornenter,O,enter,268,1,1498.2000000029802,506770.799999997,7763,WL,C,12.0
4,19.328999996185303,learn,40671.0000038147,Wed Feb 25 2026 16:19:55 GMT-0600 (Central Standard Time),508537.89999999106,A,w,O,w,259,1,268.69999998807907,508269.200000003,7763,WL,C,13.0
4,19.49500012397766,learn,40504.99987602234,Wed Feb 25 2026 16:19:55 GMT-0600 (Central Standard Time),508703.89999999106,A,wh,O,h,162,1,434.69999998807907,508269.200000003,7763,WL,C,13.0
4,19.776000022888184,learn,40223.99997711182,Wed Feb 25 2026 16:19:55 GMT-0600 (Central Standard Time),508985.0,A,whe,O,e,269,1,715.7999999970198,508269.200000003,7763,WL,C,13.0
4,20.177000045776367,learn,39822.99995422363,Wed Feb 25 2026 16:19:55 GMT-0600 (Central Standard Time),509386.0,A,whea,O,a,388,1,1116.7999999970198,508269.200000003,7763,WL,C,13.0
4,20.64400005340576,learn,39355.99994659424,Wed Feb 25 2026 16:19:55 GMT-0600 (Central Standard Time),509852.799999997,A,wheat,O,t,443,1,1583.5999999940395,508269.200000003,7763,WL,C,13.0
4,20.87600016593933,learn,39123.99983406067,Wed Feb 25 2026 16:19:55 GMT-0600 (Central Standard Time),510085.200000003,A,wheatenter,O,enter,226,1,1816.0,508269.200000003,7763,WL,C,13.0
4,21.192000150680542,learn,38807.99984931946,Wed Feb 25 2026 16:19:55 GMT-0600 (Central Standard Time),510401.799999997,A,s,O,s,306,1,316.40000000596046,510085.39999999106,7763,WL,C,14.0
4,21.359000205993652,learn,38640.99979400635,Wed Feb 25 2026 16:19:55 GMT-0600 (Central Standard Time),510568.0,A,su,O,u,148,1,482.6000000089407,510085.39999999106,7763,WL,C,14.0
4,21.509000062942505,learn,38490.999937057495,Wed Feb 25 2026 16:19:55 GMT-0600 (Central Standard Time),510718.0,A,sur,O,r,143,1,632.6000000089407,510085.39999999106,7763,WL,C,14.0
4,22.875,learn,37125.0,Wed Feb 25 2026 16:19:55 GMT-0600 (Central Standard Time),512084.299999997,A,su,O,backspace,1346,1,1998.9000000059605,510085.39999999106,7763,WL,C,14.0
4,23.076000213623047,learn,36923.99978637695,Wed Feb 25 2026 16:19:55 GMT-0600 (Central Standard Time),512285.09999999404,A,sug,O,g,179,1,2199.7000000029802,510085.39999999106,7763,WL,C,14.0
4,23.407000064849854,learn,36592.99993515015,Wed Feb 25 2026 16:19:55 GMT-0600 (Central Standard Time),512616.59999999404,A,sugu,O,u,321,1,2531.2000000029802,510085.39999999106,7763,WL,C,14.0
4,23.79100012779236,learn,36208.99987220764,Wed Feb 25 2026 16:19:55 GMT-0600 (Central Standard Time),513000.299999997,A,sugua,O,a,374,1,2914.9000000059605,510085.39999999106,7763,WL,C,14.0
4,24.158000230789185,learn,35841.999769210815,Wed Feb 25 2026 16:19:55 GMT-0600 (Central Standard Time),513367.299999997,A,suguar,O,r,345,1,3281.9000000059605,510085.39999999106,7763,WL,C,14.0
4,25.207000017166138,learn,34792.99998283386,Wed Feb 25 2026 16:19:55 GMT-0600 (Central Standard Time),514416.39999999106,A,suguarenter,O,enter,1032,1,4331.0,510085.39999999106,7763,WL,C,14.0
4,40.985000133514404,learn,19014.999866485596,Wed Feb 25 2026 16:19:55 GMT-0600 (Central Standard Time),530194.799999997,A,enter,O,enter,15759,1,15778.20000000298,514416.59999999404,7763,WL,C,15.0
5,0.8830001354217529,learn,60000.0,Wed Feb 25 2026 16:19:55 GMT-0600 (Central Standard Time),599457.3999999911,A,h,O,h,865,1,883.2999999970198,598574.099999994,7763,WL,C,1.0
5,1.0499999523162842,learn,60000.0,Wed Feb 25 2026 16:19:55 GMT-0600 (Central Standard Time),599624.200000003,A,ho,O,o,157,1,1050.1000000089407,598574.099999994,7763,WL,C,1.0
5,1.248000144958496,learn,60000.0,Wed Feb 25 2026 16:19:55 GMT-0600 (Central Standard Time),599822.5,A,hom,O,m,182,1,1248.4000000059605,598574.099999994,7763,WL,C,1.0
5,1.4660000801086426,learn,60000.0,Wed Feb 25 2026 16:19:55 GMT-0600 (Central Standard Time),600040.099999994,A,home,O,e,203,1,1466.0,598574.099999994,7763,WL,C,1.0
5,1.6500000953674316,learn,60000.0,Wed Feb 25 2026 16:19:55 GMT-0600 (Central Standard Time),600223.799999997,A,homeenter,O,enter,175,1,1649.7000000029802,598574.099999994,7763,WL,C,1.0
5,2.0829999446868896,learn,60000.0,Wed Feb 25 2026 16:19:55 GMT-0600 (Central Standard Time),600657.0,A,c,O,c,425,1,433.1000000089407,600223.8999999911,7763,WL,C,2.0
5,2.265000104904175,learn,60000.0,Wed Feb 25 2026 16:19:55 GMT-0600 (Central Standard Time),600839.099999994,A,ca,O,a,176,1,615.2000000029802,600223.8999999911,7763,WL,C,2.0
5,2.4160001277923584,learn,60000.0,Wed Feb 25 2026 16:19:55 GMT-0600 (Central Standard Time),600989.599999994,A,cam,O,m,144,1,765.7000000029802,600223.8999999911,7763,WL,C,2.0
5,2.5970001220703125,learn,60000.0,Wed Feb 25 2026 16:19:55 GMT-0600 (Central Standard Time),601171.3999999911,A,camp,O,p,168,1,947.5,600223.8999999911,7763,WL,C,2.0
5,2.9149999618530273,learn,60000.0,Wed Feb 25 2026 16:19:55 GMT-0600 (Central Standard Time),601488.799999997,A,campenter,O,enter,300,1,1264.9000000059605,600223.8999999911,7763,WL,C,2.0
5,3.2320001125335693,learn,60000.0,Wed Feb 25 2026 16:19:55 GMT-0600 (Central Standard Time),601806.099999994,A,l,O,l,313,1,317.0,601489.099999994,7763,WL,C,3.0
5,3.4010000228881836,learn,60000.0,Wed Feb 25 2026 16:19:55 GMT-0600 (Central Standard Time),601975.0,A,le,O,e,147,1,485.90000000596046,601489.099999994,7763,WL,C,3.0
5,3.5980000495910645,learn,60000.0,Wed Feb 25 2026 16:19:55 GMT-0600 (Central Standard Time),602172.3999999911,A,let,O,t,184,1,683.2999999970198,601489.099999994,7763,WL,C,3.0
5,3.7320001125335693,learn,60000.0,Wed Feb 25 2026 16:19:55 GMT-0600 (Central Standard Time),602306.0,A,lett,O,t,116,1,816.9000000059605,601489.099999994,7763,WL,C,3.0
5,3.9149999618530273,learn,60000.0,Wed Feb 25 2026 16:19:55 GMT-0600 (Central Standard Time),602489.299999997,A,lette,O,e,173,1,1000.2000000029802,601489.099999994,7763,WL,C,3.0
5,3.998000144958496,learn,60000.0,Wed Feb 25 2026 16:19:55 GMT-0600 (Central Standard Time),602571.8999999911,A,letter,O,r,77,1,1082.7999999970198,601489.099999994,7763,WL,C,3.0
5,4.200000047683716,learn,60000.0,Wed Feb 25 2026 16:19:55 GMT-0600 (Central Standard Time),602773.799999997,A,letterenter,O,enter,186,1,1284.7000000029802,601489.099999994,7763,WL,C,3.0
5,4.5299999713897705,learn,60000.0,Wed Feb 25 2026 16:19:55 GMT-0600 (Central Standard Time),603104.5,A,c,O,c,322,1,330.5,602774.0,7763,WL,C,4.0
5,4.730999946594238,learn,60000.0,Wed Feb 25 2026 16:19:55 GMT-0600 (Central Standard Time),603305.099999994,A,ca,O,a,191,1,531.0999999940395,602774.0,7763,WL,C,4.0
5,4.982000112533569,learn,60000.0,Wed Feb 25 2026 16:19:55 GMT-0600 (Central Standard Time),603556.5,A,cat,O,t,230,1,782.5,602774.0,7763,WL,C,4.0
5,5.1000001430511475,learn,60000.0,Wed Feb 25 2026 16:19:55 GMT-0600 (Central Standard Time),603673.700000003,A,catt,O,t,106,1,899.7000000029802,602774.0,7763,WL,C,4.0
5,5.299000024795532,learn,60000.0,Wed Feb 25 2026 16:19:55 GMT-0600 (Central Standard Time),603873.099999994,A,cattl,O,l,182,1,1099.0999999940395,602774.0,7763,WL,C,4.0
5,5.447999954223633,learn,60000.0,Wed Feb 25 2026 16:19:55 GMT-0600 (Central Standard Time),604022.599999994,A,cattle,O,e,140,1,1248.5999999940395,602774.0,7763,WL,C,4.0
5,5.680999994277954,learn,60000.0,Wed Feb 25 2026 16:19:55 GMT-0600 (Central Standard Time),604254.799999997,A,cattleenter,O,enter,224,1,1480.7999999970198,602774.0,7763,WL,C,4.0
5,6.016000032424927,learn,60000.0,Wed Feb 25 2026 16:19:55 GMT-0600 (Central Standard Time),604589.799999997,A,t,O,t,316,1,334.79999999701977,604255.0,7763,WL,C,5.0
5,6.130000114440918,learn,60000.0,Wed Feb 25 2026 16:19:55 GMT-0600 (Central Standard Time),604703.8999999911,A,to,O,o,96,1,448.8999999910593,604255.0,7763,WL,C,5.0
5,6.296999931335449,learn,60000.0,Wed Feb 25 2026 16:19:55 GMT-0600 (Central Standard Time),604871.099999994,A,tow,O,w,160,1,616.0999999940395,604255.0,7763,WL,C,5.0
5,6.447999954223633,learn,60000.0,Wed Feb 25 2026 16:19:55 GMT-0600 (Central Standard Time),605021.5,A,towe,O,e,146,1,766.5,604255.0,7763,WL,C,5.0
5,6.582000017166138,learn,60000.0,Wed Feb 25 2026 16:19:55 GMT-0600 (Central Standard Time),605156.099999994,A,tower,O,r,124,1,901.0999999940395,604255.0,7763,WL,C,5.0
5,6.831000089645386,learn,60000.0,Wed Feb 25 2026 16:19:55 GMT-0600 (Central Standard Time),605404.700000003,A,towerenter,O,enter,243,1,1149.7000000029802,604255.0,7763,WL,C,5.0
5,7.88100004196167,learn,60000.0,Wed Feb 25 2026 16:19:55 GMT-0600 (Central Standard Time),606454.799999997,A,q,O,q,1035,1,1049.7999999970198,605405.0,7763,WL,C,6.0
5,8.078999996185303,learn,60000.0,Wed Feb 25 2026 16:19:55 GMT-0600 (Central Standard Time),606653.200000003,A,qu,O,u,184,1,1248.2000000029802,605405.0,7763,WL,C,6.0
5,8.315000057220459,learn,60000.0,Wed Feb 25 2026 16:19:55 GMT-0600 (Central Standard Time),606889.599999994,A,que,O,e,219,1,1484.5999999940395,605405.0,7763,WL,C,6.0
5,8.446000099182129,learn,60000.0,Wed Feb 25 2026 16:19:55 GMT-0600 (Central Standard Time),607020.299999997,A,quee,O,e,125,1,1615.2999999970198,605405.0,7763,WL,C,6.0
5,8.746000051498413,learn,60000.0,Wed Feb 25 2026 16:19:55 GMT-0600 (Central Standard Time),607319.799999997,A,queen,O,n,290,1,1914.7999999970198,605405.0,7763,WL,C,6.0
5,9.11299991607666,learn,60000.0,Wed Feb 25 2026 16:19:55 GMT-0600 (Central Standard Time),607686.799999997,A,queenenter,O,enter,351,1,2281.7999999970198,605405.0,7763,WL,C,6.0
5,9.531000137329102,learn,60000.0,Wed Feb 25 2026 16:19:55 GMT-0600 (Central Standard Time),608104.8999999911,A,f,O,f,400,1,417.69999998807907,607687.200000003,7763,WL,C,7.0
5,9.646000146865845,learn,60000.0,Wed Feb 25 2026 16:19:55 GMT-0600 (Central Standard Time),608220.099999994,A,fl,O,l,94,1,532.8999999910593,607687.200000003,7763,WL,C,7.0
5,9.814000129699707,learn,60000.0,Wed Feb 25 2026 16:19:55 GMT-0600 (Central Standard Time),608388.0,A,fla,O,a,149,1,700.7999999970198,607687.200000003,7763,WL,C,7.0
5,9.963000059127808,learn,60000.0,Wed Feb 25 2026 16:19:55 GMT-0600 (Central Standard Time),608536.8999999911,A,flag,O,g,139,1,849.6999999880791,607687.200000003,7763,WL,C,7.0
5,10.128999948501587,learn,60000.0,Wed Feb 25 2026 16:19:55 GMT-0600 (Central Standard Time),608703.5,A,flagenter,O,enter,153,1,1016.2999999970198,607687.200000003,7763,WL,C,7.0
5,10.42900013923645,learn,60000.0,Wed Feb 25 2026 16:19:55 GMT-0600 (Central Standard Time),609003.299999997,A,n,O,n,289,1,299.59999999403954,608703.700000003,7763,WL,C,8.0
5,10.578999996185303,learn,60000.0,Wed Feb 25 2026 16:19:55 GMT-0600 (Central Standard Time),609153.599999994,A,na,O,a,140,1,449.8999999910593,608703.700000003,7763,WL,C,8.0
5,10.746000051498413,learn,60000.0,Wed Feb 25 2026 16:19:55 GMT-0600 (Central Standard Time),609320.0,A,nai,O,i,151,1,616.2999999970198,608703.700000003,7763,WL,C,8.0
5,10.96399998664856,learn,60000.0,Wed Feb 25 2026 16:19:55 GMT-0600 (Central Standard Time),609538.5,A,nail,O,l,209,1,834.7999999970198,608703.700000003,7763,WL,C,8.0
5,11.229000091552734,learn,60000.0,Wed Feb 25 2026 16:19:55 GMT-0600 (Central Standard Time),609803.299999997,A,nailenter,O,enter,245,1,1099.5999999940395,608703.700000003,7763,WL,C,8.0
5,11.496000051498413,learn,60000.0,Wed Feb 25 2026 16:19:55 GMT-0600 (Central Standard Time),610070.099999994,A,b,O,b,253,1,266.59999999403954,609803.5,7763,WL,C,9.0
5,11.611999988555908,learn,60000.0,Wed Feb 25 2026 16:19:55 GMT-0600 (Central Standard Time),610185.8999999911,A,bo,O,o,104,1,382.3999999910593,609803.5,7763,WL,C,9.0
5,11.864000082015991,learn,60000.0,Wed Feb 25 2026 16:19:55 GMT-0600 (Central Standard Time),610437.799999997,A,boy,O,y,228,1,634.2999999970198,609803.5,7763,WL,C,9.0
5,12.17799997329712,learn,60000.0,Wed Feb 25 2026 16:19:55 GMT-0600 (Central Standard Time),610752.3999999911,A,boyenter,O,enter,305,1,948.8999999910593,609803.5,7763,WL,C,9.0
5,12.464999914169312,learn,60000.0,Wed Feb 25 2026 16:19:55 GMT-0600 (Central Standard Time),611039.5,A,d,O,d,271,1,286.90000000596046,610752.599999994,7763,WL,C,10.0
5,12.597000122070312,learn,60000.0,Wed Feb 25 2026 16:19:55 GMT-0600 (Central Standard Time),611171.299999997,A,do,O,o,112,1,418.70000000298023,610752.599999994,7763,WL,C,10.0
5,12.745000123977661,learn,60000.0,Wed Feb 25 2026 16:19:55 GMT-0600 (Central Standard Time),611319.5,A,doc,O,c,143,1,566.9000000059605,610752.599999994,7763,WL,C,10.0
5,12.962000131607056,learn,60000.0,Wed Feb 25 2026 16:19:55 GMT-0600 (Central Standard Time),611536.099999994,A,doct,O,t,199,1,783.5,610752.599999994,7763,WL,C,10.0
5,13.111999988555908,learn,60000.0,Wed Feb 25 2026 16:19:55 GMT-0600 (Central Standard Time),611686.3999999911,A,docto,O,o,136,1,933.7999999970198,610752.599999994,7763,WL,C,10.0
5,13.295000076293945,learn,60000.0,Wed Feb 25 2026 16:19:55 GMT-0600 (Central Standard Time),611869.299999997,A,doctor,O,r,178,1,1116.7000000029802,610752.599999994,7763,WL,C,10.0
5,13.462000131607056,learn,60000.0,Wed Feb 25 2026 16:19:55 GMT-0600 (Central Standard Time),612036.200000003,A,doctorenter,O,enter,162,1,1283.6000000089407,610752.599999994,7763,WL,C,10.0
5,13.812000036239624,learn,60000.0,Wed Feb 25 2026 16:19:55 GMT-0600 (Central Standard Time),612385.8999999911,A,s,O,s,331,1,349.3999999910593,612036.5,7763,WL,C,11.0
5,13.92799997329712,learn,60000.0,Wed Feb 25 2026 16:19:55 GMT-0600 (Central Standard Time),612501.599999994,A,sh,O,h,102,1,465.09999999403954,612036.5,7763,WL,C,11.0
5,14.07800006866455,learn,60000.0,Wed Feb 25 2026 16:19:55 GMT-0600 (Central Standard Time),612652.200000003,A,sho,O,o,146,1,615.7000000029802,612036.5,7763,WL,C,11.0
5,14.312000036239624,learn,60000.0,Wed Feb 25 2026 16:19:55 GMT-0600 (Central Standard Time),612886.099999994,A,shor,O,r,219,1,849.5999999940395,612036.5,7763,WL,C,11.0
5,14.51200008392334,learn,60000.0,Wed Feb 25 2026 16:19:55 GMT-0600 (Central Standard Time),613085.599999994,A,shore,O,e,186,1,1049.0999999940395,612036.5,7763,WL,C,11.0
5,14.727999925613403,learn,60000.0,Wed Feb 25 2026 16:19:55 GMT-0600 (Central Standard Time),613302.0,A,shoreenter,O,enter,210,1,1265.5,612036.5,7763,WL,C,11.0
5,16.0770001411438,learn,60000.0,Wed Feb 25 2026 16:19:55 GMT-0600 (Central Standard Time),614651.5,A,w,O,w,1346,1,1349.2999999970198,613302.200000003,7763,WL,C,12.0
5,16.278000116348267,learn,60000.0,Wed Feb 25 2026 16:19:55 GMT-0600 (Central Standard Time),614852.3999999911,A,wh,O,h,181,1,1550.199999988079,613302.200000003,7763,WL,C,12.0
5,16.41100001335144,learn,60000.0,Wed Feb 25 2026 16:19:55 GMT-0600 (Central Standard Time),614985.599999994,A,whe,O,e,122,1,1683.3999999910593,613302.200000003,7763,WL,C,12.0
5,16.59500002861023,learn,60000.0,Wed Feb 25 2026 16:19:55 GMT-0600 (Central Standard Time),615169.5,A,whea,O,a,160,1,1867.2999999970198,613302.200000003,7763,WL,C,12.0
5,16.794000148773193,learn,60000.0,Wed Feb 25 2026 16:19:55 GMT-0600 (Central Standard Time),615368.099999994,A,wheat,O,t,188,1,2065.8999999910593,613302.200000003,7763,WL,C,12.0
5,17.094000101089478,learn,60000.0,Wed Feb 25 2026 16:19:55 GMT-0600 (Central Standard Time),615668.200000003,A,wheatenter,O,enter,287,1,2366.0,613302.200000003,7763,WL,C,12.0
5,17.644999980926514,learn,60000.0,Wed Feb 25 2026 16:19:55 GMT-0600 (Central Standard Time),616218.799999997,A,s,O,s,530,1,550.4000000059605,615668.3999999911,7763,WL,C,13.0
5,17.795000076293945,learn,60000.0,Wed Feb 25 2026 16:19:55 GMT-0600 (Central Standard Time),616369.099999994,A,su,O,u,131,1,700.7000000029802,615668.3999999911,7763,WL,C,13.0
5,17.960000038146973,learn,60000.0,Wed Feb 25 2026 16:19:55 GMT-0600 (Central Standard Time),616534.299999997,A,sur,O,r,144,1,865.9000000059605,615668.3999999911,7763,WL,C,13.0
5,18.526000022888184,learn,60000.0,Wed Feb 25 2026 16:19:55 GMT-0600 (Central Standard Time),617100.599999994,A,su,O,backspace,550,1,1432.2000000029802,615668.3999999911,7763,WL,C,13.0
5,18.710000038146973,learn,60000.0,Wed Feb 25 2026 16:19:55 GMT-0600 (Central Standard Time),617284.0,A,sug,O,g,169,1,1615.6000000089407,615668.3999999911,7763,WL,C,13.0
5,19.07800006866455,learn,60000.0,Wed Feb 25 2026 16:19:55 GMT-0600 (Central Standard Time),617651.8999999911,A,suga,O,a,355,1,1983.5,615668.3999999911,7763,WL,C,13.0
5,19.32800006866455,learn,60000.0,Wed Feb 25 2026 16:19:55 GMT-0600 (Central Standard Time),617902.099999994,A,sugar,O,r,241,1,2233.7000000029802,615668.3999999911,7763,WL,C,13.0
5,19.509000062942505,learn,60000.0,Wed Feb 25 2026 16:19:55 GMT-0600 (Central Standard Time),618082.799999997,A,sugarenter,O,enter,169,1,2414.4000000059605,615668.3999999911,7763,WL,C,13.0
5,19.776000022888184,learn,60000.0,Wed Feb 25 2026 16:19:55 GMT-0600 (Central Standard Time),618349.799999997,A,c,O,c,253,1,266.79999999701977,618083.0,7763,WL,C,14.0
5,19.908999919891357,learn,60000.0,Wed Feb 25 2026 16:19:55 GMT-0600 (Central Standard Time),618483.200000003,A,co,O,o,111,1,400.20000000298023,618083.0,7763,WL,C,14.0
5,20.075999975204468,learn,60000.0,Wed Feb 25 2026 16:19:55 GMT-0600 (Central Standard Time),618650.299999997,A,cor,O,r,149,1,567.2999999970198,618083.0,7763,WL,C,14.0
5,20.276000022888184,learn,60000.0,Wed Feb 25 2026 16:19:55 GMT-0600 (Central Standard Time),618849.8999999911,A,corn,O,n,188,1,766.8999999910593,618083.0,7763,WL,C,14.0
5,20.561000108718872,learn,60000.0,Wed Feb 25 2026 16:19:55 GMT-0600 (Central Standard Time),619134.8999999911,A,cornenter,O,enter,275,1,1051.8999999910593,618083.0,7763,WL,C,14.0
5,41.80299997329712,learn,60000.0,Wed Feb 25 2026 16:19:55 GMT-0600 (Central Standard Time),640376.700000003,A,enter,O,enter,21233,1,21241.60000000894,619135.099999994,7763,WL,C,15.0
6,0.9340000152587891,distr,59065.99998474121,Wed Feb 25 2026 16:19:55 GMT-0600 (Central Standard Time),726116.3999999911,B,m,O,m,915,1,934.0999999940395,725182.299999997,7763,WL,C,1.0
6,1.1019999980926514,distr,58898.00000190735,Wed Feb 25 2026 16:19:55 GMT-0600 (Central Standard Time),726283.5,B,mo,O,o,155,1,1101.2000000029802,725182.299999997,7763,WL,C,1.0
6,1.3350000381469727,distr,58664.99996185303,Wed Feb 25 2026 16:19:55 GMT-0600 (Central Standard Time),726516.8999999911,B,mot,O,t,220,1,1334.5999999940395,725182.299999997,7763,WL,C,1.0
6,1.434999942779541,distr,58565.00005722046,Wed Feb 25 2026 16:19:55 GMT-0600 (Central Standard Time),726617.0,B,moth,O,h,91,1,1434.7000000029802,725182.299999997,7763,WL,C,1.0
6,1.6009998321533203,distr,58399.00016784668,Wed Feb 25 2026 16:19:55 GMT-0600 (Central Standard Time),726783.099999994,B,mothe,O,e,150,1,1600.7999999970198,725182.299999997,7763,WL,C,1.0
6,1.684000015258789,distr,58315.99998474121,Wed Feb 25 2026 16:19:55 GMT-0600 (Central Standard Time),726866.299999997,B,mother,O,r,62,1,1684.0,725182.299999997,7763,WL,C,1.0
6,1.9509999752044678,distr,58049.00002479553,Wed Feb 25 2026 16:19:55 GMT-0600 (Central Standard Time),727133.299999997,B,motherenter,O,enter,260,1,1951.0,725182.299999997,7763,WL,C,1.0
6,3.065999984741211,distr,56934.00001525879,Wed Feb 25 2026 16:19:55 GMT-0600 (Central Standard Time),728248.200000003,B,m,O,m,1097,1,1114.6000000089407,727133.599999994,7763,WL,C,2.0
6,3.232999801635742,distr,56767.00019836426,Wed Feb 25 2026 16:19:55 GMT-0600 (Central Standard Time),728415.099999994,B,mo,O,o,158,1,1281.5,727133.599999994,7763,WL,C,2.0
6,3.384999990463257,distr,56615.00000953674,Wed Feb 25 2026 16:19:55 GMT-0600 (Central Standard Time),728567.299999997,B,mon,O,n,137,1,1433.7000000029802,727133.599999994,7763,WL,C,2.0
6,3.5349998474121094,distr,56465.00015258789,Wed Feb 25 2026 16:19:55 GMT-0600 (Central Standard Time),728717.200000003,B,mone,O,e,145,1,1583.6000000089407,727133.599999994,7763,WL,C,2.0
6,3.6679999828338623,distr,56332.00001716614,Wed Feb 25 2026 16:19:55 GMT-0600 (Central Standard Time),728849.599999994,B,money,O,y,120,1,1716.0,727133.599999994,7763,WL,C,2.0
6,3.9659998416900635,distr,56034.00015830994,Wed Feb 25 2026 16:19:55 GMT-0600 (Central Standard Time),729148.200000003,B,moneyenter,O,enter,285,1,2014.6000000089407,727133.599999994,7763,WL,C,2.0
6,4.335000038146973,distr,55664.99996185303,Wed Feb 25 2026 16:19:55 GMT-0600 (Central Standard Time),729516.5,B,d,O,d,363,1,368.1000000089407,729148.3999999911,7763,WL,C,3.0
6,4.4670000076293945,distr,55532.999992370605,Wed Feb 25 2026 16:19:55 GMT-0600 (Central Standard Time),729649.0,B,do,O,o,122,1,500.6000000089407,729148.3999999911,7763,WL,C,3.0
6,4.682999849319458,distr,55317.00015068054,Wed Feb 25 2026 16:19:55 GMT-0600 (Central Standard Time),729864.5,B,dol,O,l,198,1,716.1000000089407,729148.3999999911,7763,WL,C,3.0
6,4.83299994468689,distr,55167.00005531311,Wed Feb 25 2026 16:19:55 GMT-0600 (Central Standard Time),730014.5,B,doll,O,l,134,1,866.1000000089407,729148.3999999911,7763,WL,C,3.0
6,4.983999967575073,distr,55016.00003242493,Wed Feb 25 2026 16:19:55 GMT-0600 (Central Standard Time),730165.8999999911,B,dolla,O,a,131,1,1017.5,729148.3999999911,7763,WL,C,3.0
6,5.06499981880188,distr,54935.00018119812,Wed Feb 25 2026 16:19:55 GMT-0600 (Central Standard Time),730247.0,B,dollar,O,r,71,1,1098.6000000089407,729148.3999999911,7763,WL,C,3.0
6,5.248999834060669,distr,54751.00016593933,Wed Feb 25 2026 16:19:55 GMT-0600 (Central Standard Time),730430.5,B,dollarenter,O,enter,180,1,1282.1000000089407,729148.3999999911,7763,WL,C,3.0
6,5.567999839782715,distr,54432.000160217285,Wed Feb 25 2026 16:19:55 GMT-0600 (Central Standard Time),730749.3999999911,B,s,O,s,298,1,318.69999998807907,730430.700000003,7763,WL,C,4.0
6,5.665999889373779,distr,54334.00011062622,Wed Feb 25 2026 16:19:55 GMT-0600 (Central Standard Time),730848.0,B,sk,O,k,89,1,417.29999999701977,730430.700000003,7763,WL,C,4.0
6,5.898999929428101,distr,54101.0000705719,Wed Feb 25 2026 16:19:55 GMT-0600 (Central Standard Time),731081.099999994,B,sky,O,y,222,1,650.3999999910593,730430.700000003,7763,WL,C,4.0
6,6.232999801635742,distr,53767.00019836426,Wed Feb 25 2026 16:19:55 GMT-0600 (Central Standard Time),731414.299999997,B,skyenter,O,enter,321,1,983.5999999940395,730430.700000003,7763,WL,C,4.0
6,6.549999952316284,distr,53450.000047683716,Wed Feb 25 2026 16:19:55 GMT-0600 (Central Standard Time),731731.3999999911,B,v,O,v,305,1,316.79999999701977,731414.599999994,7763,WL,C,5.0
6,6.7159998416900635,distr,53284.00015830994,Wed Feb 25 2026 16:19:55 GMT-0600 (Central Standard Time),731898.200000003,B,va,O,a,156,1,483.6000000089407,731414.599999994,7763,WL,C,5.0
6,6.8999998569488525,distr,53100.00014305115,Wed Feb 25 2026 16:19:55 GMT-0600 (Central Standard Time),732081.799999997,B,val,O,l,166,1,667.2000000029802,731414.599999994,7763,WL,C,5.0
6,7.0329999923706055,distr,52967.000007629395,Wed Feb 25 2026 16:19:55 GMT-0600 (Central Standard Time),732214.5,B,vall,O,l,118,1,799.9000000059605,731414.599999994,7763,WL,C,5.0
6,7.184000015258789,distr,52815.99998474121,Wed Feb 25 2026 16:19:55 GMT-0600 (Central Standard Time),732365.5,B,valle,O,e,146,1,950.9000000059605,731414.599999994,7763,WL,C,5.0
6,7.348999977111816,distr,52651.00002288818,Wed Feb 25 2026 16:19:55 GMT-0600 (Central Standard Time),732530.5,B,valley,O,y,144,1,1115.9000000059605,731414.599999994,7763,WL,C,5.0
6,7.664999961853027,distr,52335.00003814697,Wed Feb 25 2026 16:19:55 GMT-0600 (Central Standard Time),732847.0,B,valleyenter,O,enter,308,1,1432.4000000059605,731414.599999994,7763,WL,C,5.0
6,9.281999826431274,distr,50718.000173568726,Wed Feb 25 2026 16:19:55 GMT-0600 (Central Standard Time),734464.0,B,c,O,c,1608,1,1616.7999999970198,732847.200000003,7763,WL,C,6.0
6,9.432999849319458,distr,50567.00015068054,Wed Feb 25 2026 16:19:55 GMT-0600 (Central Standard Time),734614.700000003,B,ch,O,h,136,1,1767.5,732847.200000003,7763,WL,C,6.0
6,9.615000009536743,distr,50384.99999046326,Wed Feb 25 2026 16:19:55 GMT-0600 (Central Standard Time),734796.3999999911,B,chr,O,r,176,1,1949.199999988079,732847.200000003,7763,WL,C,6.0
6,9.763999938964844,distr,50236.000061035156,Wed Feb 25 2026 16:19:55 GMT-0600 (Central Standard Time),734946.299999997,B,chri,O,i,139,1,2099.0999999940395,732847.200000003,7763,WL,C,6.0
6,9.930999994277954,distr,50069.000005722046,Wed Feb 25 2026 16:19:55 GMT-0600 (Central Standard Time),735112.8999999911,B,chris,O,s,146,1,2265.699999988079,732847.200000003,7763,WL,C,6.0
6,10.131999969482422,distr,49868.00003051758,Wed Feb 25 2026 16:19:55 GMT-0600 (Central Standard Time),735313.299999997,B,christ,O,t,190,1,2466.0999999940395,732847.200000003,7763,WL,C,6.0
6,10.332000017166138,distr,49667.99998283386,Wed Feb 25 2026 16:19:55 GMT-0600 (Central Standard Time),735513.599999994,B,christm,O,m,191,1,2666.3999999910593,732847.200000003,7763,WL,C,6.0
6,10.497999906539917,distr,49502.00009346008,Wed Feb 25 2026 16:19:55 GMT-0600 (Central Standard Time),735679.599999994,B,christma,O,a,157,1,2832.3999999910593,732847.200000003,7763,WL,C,6.0
6,10.697999954223633,distr,49302.00004577637,Wed Feb 25 2026 16:19:55 GMT-0600 (Central Standard Time),735880.299999997,B,christmas,O,s,191,1,3033.0999999940395,732847.200000003,7763,WL,C,6.0
6,10.964999914169312,distr,49035.00008583069,Wed Feb 25 2026 16:19:55 GMT-0600 (Central Standard Time),736146.5,B,christmasenter,O,enter,246,1,3299.2999999970198,732847.200000003,7763,WL,C,6.0
6,11.266000032424927,distr,48733.99996757507,Wed Feb 25 2026 16:19:55 GMT-0600 (Central Standard Time),736447.3999999911,B,m,O,m,294,1,300.59999999403954,736146.799999997,7763,WL,C,7.0
6,11.414999961853027,distr,48585.00003814697,Wed Feb 25 2026 16:19:55 GMT-0600 (Central Standard Time),736596.3999999911,B,me,O,e,127,1,449.59999999403954,736146.799999997,7763,WL,C,7.0
6,11.613999843597412,distr,48386.00015640259,Wed Feb 25 2026 16:19:55 GMT-0600 (Central Standard Time),736795.799999997,B,mea,O,a,185,1,649.0,736146.799999997,7763,WL,C,7.0
6,11.929999828338623,distr,48070.00017166138,Wed Feb 25 2026 16:19:55 GMT-0600 (Central Standard Time),737111.5,B,meat,O,t,306,1,964.7000000029802,736146.799999997,7763,WL,C,7.0
6,12.345999956130981,distr,47654.00004386902,Wed Feb 25 2026 16:19:55 GMT-0600 (Central Standard Time),737528.0,B,meatenter,O,enter,400,1,1381.2000000029802,736146.799999997,7763,WL,C,7.0
6,17.84500002861023,distr,42154.99997138977,Wed Feb 25 2026 16:19:55 GMT-0600 (Central Standard Time),743026.8999999911,B,t,O,t,5479,1,5498.699999988079,737528.200000003,7763,WL,C,8.0
6,17.944000005722046,distr,42055.999994277954,Wed Feb 25 2026 16:19:55 GMT-0600 (Central Standard Time),743126.200000003,B,to,O,o,90,1,5598.0,737528.200000003,7763,WL,C,8.0
6,18.161999940872192,distr,41838.00005912781,Wed Feb 25 2026 16:19:55 GMT-0600 (Central Standard Time),743344.299999997,B,too,O,o,207,1,5816.0999999940395,737528.200000003,7763,WL,C,8.0
6,18.411999940872192,distr,41588.00005912781,Wed Feb 25 2026 16:19:55 GMT-0600 (Central Standard Time),743594.099999994,B,tool,O,l,230,1,6065.899999991059,737528.200000003,7763,WL,C,8.0
6,18.728999853134155,distr,41271.000146865845,Wed Feb 25 2026 16:19:55 GMT-0600 (Central Standard Time),743910.799999997,B,toolenter,O,enter,300,1,6382.5999999940395,737528.200000003,7763,WL,C,8.0
6,20.078999996185303,distr,39921.0000038147,Wed Feb 25 2026 16:19:55 GMT-0600 (Central Standard Time),745260.3999999911,B,h,O,h,1345,1,1349.2999999970198,743911.099999994,7763,WL,C,9.0
6,20.227999925613403,distr,39772.0000743866,Wed Feb 25 2026 16:19:55 GMT-0600 (Central Standard Time),745410.0,B,ho,O,o,138,1,1498.9000000059605,743911.099999994,7763,WL,C,9.0
6,20.394999980926514,distr,39605.000019073486,Wed Feb 25 2026 16:19:55 GMT-0600 (Central Standard Time),745576.599999994,B,hot,O,t,148,1,1665.5,743911.099999994,7763,WL,C,9.0
6,20.5479998588562,distr,39452.0001411438,Wed Feb 25 2026 16:19:55 GMT-0600 (Central Standard Time),745730.200000003,B,hote,O,e,142,1,1819.1000000089407,743911.099999994,7763,WL,C,9.0
6,20.728999853134155,distr,39271.000146865845,Wed Feb 25 2026 16:19:55 GMT-0600 (Central Standard Time),745911.099999994,B,hotel,O,l,175,1,2000.0,743911.099999994,7763,WL,C,9.0
6,20.994999885559082,distr,39005.00011444092,Wed Feb 25 2026 16:19:55 GMT-0600 (Central Standard Time),746176.799999997,B,hotelenter,O,enter,246,1,2265.7000000029802,743911.099999994,7763,WL,C,9.0
6,37.539000034332275,distr,22460.999965667725,Wed Feb 25 2026 16:19:55 GMT-0600 (Central Standard Time),762721.299999997,B,enter,O,enter,16534,1,16544.20000000298,746177.099999994,7763,WL,C,10.0
6,60.013999938964844,distr,-13.99993896484375,Wed Feb 25 2026 16:19:55 GMT-0600 (Central Standard Time),785196.3999999911,B,None,O,None,22470,1,22474.79999999702,762721.599999994,7763,WL,C,11.0
7,0.8840000629425049,immed,59115.999937057495,Wed Feb 25 2026 16:19:55 GMT-0600 (Central Standard Time),791597.099999994,A,t,O,t,879,1,883.2999999970198,790713.799999997,7763,WL,C,1.0
7,1.0150001049041748,immed,58984.999895095825,Wed Feb 25 2026 16:19:55 GMT-0600 (Central Standard Time),791728.599999994,A,to,O,o,113,1,1014.7999999970198,790713.799999997,7763,WL,C,1.0
7,1.181999921798706,immed,58818.000078201294,Wed Feb 25 2026 16:19:55 GMT-0600 (Central Standard Time),791895.599999994,A,tow,O,w,150,1,1181.7999999970198,790713.799999997,7763,WL,C,1.0
7,1.2820000648498535,immed,58717.99993515015,Wed Feb 25 2026 16:19:55 GMT-0600 (Central Standard Time),791994.8999999911,A,towe,O,e,89,1,1281.0999999940395,790713.799999997,7763,WL,C,1.0
7,1.3989999294281006,immed,58601.0000705719,Wed Feb 25 2026 16:19:55 GMT-0600 (Central Standard Time),792112.5,A,tower,O,r,100,1,1398.7000000029802,790713.799999997,7763,WL,C,1.0
7,1.681999921798706,immed,58318.000078201294,Wed Feb 25 2026 16:19:55 GMT-0600 (Central Standard Time),792394.8999999911,A,towerenter,O,enter,263,1,1681.0999999940395,790713.799999997,7763,WL,C,1.0
7,2.0169999599456787,immed,57983.00004005432,Wed Feb 25 2026 16:19:55 GMT-0600 (Central Standard Time),792730.0,A,c,O,c,316,1,334.90000000596046,792395.099999994,7763,WL,C,2.0
7,2.181999921798706,immed,57818.000078201294,Wed Feb 25 2026 16:19:55 GMT-0600 (Central Standard Time),792894.8999999911,A,ca,O,a,150,1,499.79999999701977,792395.099999994,7763,WL,C,2.0
7,2.6480000019073486,immed,57351.99999809265,Wed Feb 25 2026 16:19:55 GMT-0600 (Central Standard Time),793361.700000003,A,cat,O,t,450,1,966.6000000089407,792395.099999994,7763,WL,C,2.0
7,2.815000057220459,immed,57184.99994277954,Wed Feb 25 2026 16:19:55 GMT-0600 (Central Standard Time),793528.299999997,A,catt,O,t,147,1,1133.2000000029802,792395.099999994,7763,WL,C,2.0
7,2.9820001125335693,immed,57017.99988746643,Wed Feb 25 2026 16:19:55 GMT-0600 (Central Standard Time),793695.200000003,A,cattl,O,l,153,1,1300.1000000089407,792395.099999994,7763,WL,C,2.0
7,3.1660001277923584,immed,56833.99987220764,Wed Feb 25 2026 16:19:55 GMT-0600 (Central Standard Time),793879.3999999911,A,cattle,O,e,180,1,1484.2999999970198,792395.099999994,7763,WL,C,2.0
7,3.3480000495910645,immed,56651.999950408936,Wed Feb 25 2026 16:19:55 GMT-0600 (Central Standard Time),794060.799999997,A,cattleenter,O,enter,177,1,1665.7000000029802,792395.099999994,7763,WL,C,2.0
7,3.5320000648498535,immed,56467.99993515015,Wed Feb 25 2026 16:19:55 GMT-0600 (Central Standard Time),794245.299999997,A,s,O,s,163,1,184.20000000298023,794061.099999994,7763,WL,C,3.0
7,3.6640000343322754,immed,56335.999965667725,Wed Feb 25 2026 16:19:55 GMT-0600 (Central Standard Time),794377.5,A,sh,O,h,123,1,316.40000000596046,794061.099999994,7763,WL,C,3.0
7,3.765000104904175,immed,56234.999895095825,Wed Feb 25 2026 16:19:55 GMT-0600 (Central Standard Time),794478.0,A,sho,O,o,94,1,416.90000000596046,794061.099999994,7763,WL,C,3.0
7,3.9140000343322754,immed,56085.999965667725,Wed Feb 25 2026 16:19:55 GMT-0600 (Central Standard Time),794627.299999997,A,shor,O,r,129,1,566.2000000029802,794061.099999994,7763,WL,C,3.0
7,4.0320000648498535,immed,55967.99993515015,Wed Feb 25 2026 16:19:55 GMT-0600 (Central Standard Time),794745.700000003,A,shore,O,e,109,1,684.6000000089407,794061.099999994,7763,WL,C,3.0
7,4.281000137329102,immed,55718.9998626709,Wed Feb 25 2026 16:19:55 GMT-0600 (Central Standard Time),794993.8999999911,A,shoreenter,O,enter,227,1,932.7999999970198,794061.099999994,7763,WL,C,3.0
7,4.463000059127808,immed,55536.99994087219,Wed Feb 25 2026 16:19:55 GMT-0600 (Central Standard Time),795176.5,A,b,O,b,166,1,182.40000000596046,794994.099999994,7763,WL,C,4.0
7,4.5959999561309814,immed,55404.00004386902,Wed Feb 25 2026 16:19:55 GMT-0600 (Central Standard Time),795309.5,A,bo,O,o,119,1,315.40000000596046,794994.099999994,7763,WL,C,4.0
7,4.7799999713897705,immed,55220.00002861023,Wed Feb 25 2026 16:19:55 GMT-0600 (Central Standard Time),795493.599999994,A,bod,O,d,178,1,499.5,794994.099999994,7763,WL,C,4.0
7,4.96399998664856,immed,55036.00001335144,Wed Feb 25 2026 16:19:55 GMT-0600 (Central Standard Time),795677.5,A,body,O,y,171,1,683.4000000059605,794994.099999994,7763,WL,C,4.0
7,5.213000059127808,immed,54786.99994087219,Wed Feb 25 2026 16:19:55 GMT-0600 (Central Standard Time),795926.299999997,A,bodyenter,O,enter,239,1,932.2000000029802,794994.099999994,7763,WL,C,4.0
7,5.430000066757202,immed,54569.9999332428,Wed Feb 25 2026 16:19:55 GMT-0600 (Central Standard Time),796143.3999999911,A,c,O,c,209,1,216.8999999910593,795926.5,7763,WL,C,5.0
7,5.579999923706055,immed,54420.000076293945,Wed Feb 25 2026 16:19:55 GMT-0600 (Central Standard Time),796292.700000003,A,ca,O,a,137,1,366.20000000298023,795926.5,7763,WL,C,5.0
7,5.746999979019165,immed,54253.000020980835,Wed Feb 25 2026 16:19:55 GMT-0600 (Central Standard Time),796460.0,A,cam,O,m,149,1,533.5,795926.5,7763,WL,C,5.0
7,5.949000120162964,immed,54050.999879837036,Wed Feb 25 2026 16:19:55 GMT-0600 (Central Standard Time),796661.799999997,A,camp,O,p,180,1,735.2999999970198,795926.5,7763,WL,C,5.0
7,6.247999906539917,immed,53752.00009346008,Wed Feb 25 2026 16:19:55 GMT-0600 (Central Standard Time),796961.700000003,A,campenter,O,enter,280,1,1035.2000000029802,795926.5,7763,WL,C,5.0
7,6.864000082015991,immed,53135.99991798401,Wed Feb 25 2026 16:19:55 GMT-0600 (Central Standard Time),797576.8999999911,A,q,O,q,606,1,614.8999999910593,796962.0,7763,WL,C,6.0
7,7.0290000438690186,immed,52970.99995613098,Wed Feb 25 2026 16:19:55 GMT-0600 (Central Standard Time),797742.200000003,A,qu,O,u,158,1,780.2000000029802,796962.0,7763,WL,C,6.0
7,7.246999979019165,immed,52753.000020980835,Wed Feb 25 2026 16:19:55 GMT-0600 (Central Standard Time),797959.8999999911,A,que,O,e,211,1,997.8999999910593,796962.0,7763,WL,C,6.0
7,7.413000106811523,immed,52586.99989318848,Wed Feb 25 2026 16:19:55 GMT-0600 (Central Standard Time),798125.799999997,A,quee,O,e,153,1,1163.7999999970198,796962.0,7763,WL,C,6.0
7,7.647000074386597,immed,52352.9999256134,Wed Feb 25 2026 16:19:55 GMT-0600 (Central Standard Time),798359.799999997,A,queen,O,n,218,1,1397.7999999970198,796962.0,7763,WL,C,6.0
7,7.895999908447266,immed,52104.000091552734,Wed Feb 25 2026 16:19:55 GMT-0600 (Central Standard Time),798609.099999994,A,queenenter,O,enter,242,1,1647.0999999940395,796962.0,7763,WL,C,6.0
7,8.11299991607666,immed,51887.00008392334,Wed Feb 25 2026 16:19:55 GMT-0600 (Central Standard Time),798826.700000003,A,f,O,f,207,1,217.40000000596046,798609.299999997,7763,WL,C,7.0
7,8.29699993133545,immed,51703.00006866455,Wed Feb 25 2026 16:19:55 GMT-0600 (Central Standard Time),799010.3999999911,A,fl,O,l,173,1,401.09999999403954,798609.299999997,7763,WL,C,7.0
7,8.44700002670288,immed,51552.99997329712,Wed Feb 25 2026 16:19:55 GMT-0600 (Central Standard Time),799160.299999997,A,fla,O,a,134,1,551.0,798609.299999997,7763,WL,C,7.0
7,8.630000114440918,immed,51369.99988555908,Wed Feb 25 2026 16:19:55 GMT-0600 (Central Standard Time),799343.5,A,flag,O,g,163,1,734.2000000029802,798609.299999997,7763,WL,C,7.0
7,8.746000051498413,immed,51253.99994850159,Wed Feb 25 2026 16:19:55 GMT-0600 (Central Standard Time),799459.200000003,A,flagenter,O,enter,103,1,849.9000000059605,798609.299999997,7763,WL,C,7.0
7,9.015000104904175,immed,50984.999895095825,Wed Feb 25 2026 16:19:55 GMT-0600 (Central Standard Time),799728.299999997,A,n,O,n,264,1,268.90000000596046,799459.3999999911,7763,WL,C,8.0
7,9.163000106811523,immed,50836.99989318848,Wed Feb 25 2026 16:19:55 GMT-0600 (Central Standard Time),799876.299999997,A,na,O,a,135,1,416.90000000596046,799459.3999999911,7763,WL,C,8.0
7,9.329999923706055,immed,50670.000076293945,Wed Feb 25 2026 16:19:55 GMT-0600 (Central Standard Time),800043.299999997,A,nai,O,i,156,1,583.9000000059605,799459.3999999911,7763,WL,C,8.0
7,9.515000104904175,immed,50484.999895095825,Wed Feb 25 2026 16:19:55 GMT-0600 (Central Standard Time),800227.799999997,A,nail,O,l,180,1,768.4000000059605,799459.3999999911,7763,WL,C,8.0
7,10.628999948501587,immed,49371.00005149841,Wed Feb 25 2026 16:19:55 GMT-0600 (Central Standard Time),801341.700000003,A,nailenter,O,enter,1100,1,1882.300000011921,799459.3999999911,7763,WL,C,8.0
7,10.979000091552734,immed,49020.999908447266,Wed Feb 25 2026 16:19:55 GMT-0600 (Central Standard Time),801692.3999999911,A,h,O,h,347,1,350.5,801341.8999999911,7763,WL,C,9.0
7,11.194000005722046,immed,48805.999994277954,Wed Feb 25 2026 16:19:55 GMT-0600 (Central Standard Time),801907.299999997,A,ho,O,o,202,1,565.4000000059605,801341.8999999911,7763,WL,C,9.0
7,11.41100001335144,immed,48588.99998664856,Wed Feb 25 2026 16:19:55 GMT-0600 (Central Standard Time),802124.0,A,hom,O,m,213,1,782.1000000089407,801341.8999999911,7763,WL,C,9.0
7,11.562999963760376,immed,48437.000036239624,Wed Feb 25 2026 16:19:55 GMT-0600 (Central Standard Time),802276.799999997,A,home,O,e,149,1,934.9000000059605,801341.8999999911,7763,WL,C,9.0
7,11.894999980926514,immed,48105.000019073486,Wed Feb 25 2026 16:19:55 GMT-0600 (Central Standard Time),802608.700000003,A,homel,O,l,322,1,1266.800000011921,801341.8999999911,7763,WL,C,9.0
7,11.995000123977661,immed,48004.99987602234,Wed Feb 25 2026 16:19:55 GMT-0600 (Central Standard Time),802707.799999997,A,homele,O,e,94,1,1365.9000000059605,801341.8999999911,7763,WL,C,9.0
7,12.194999933242798,immed,47805.0000667572,Wed Feb 25 2026 16:19:55 GMT-0600 (Central Standard Time),802908.0,A,homelet,O,t,188,1,1566.1000000089407,801341.8999999911,7763,WL,C,9.0
7,12.36299991607666,immed,47637.00008392334,Wed Feb 25 2026 16:19:55 GMT-0600 (Central Standard Time),803075.799999997,A,homelett,O,t,149,1,1733.9000000059605,801341.8999999911,7763,WL,C,9.0
7,12.763000011444092,immed,47236.99998855591,Wed Feb 25 2026 16:19:55 GMT-0600 (Central Standard Time),803475.799999997,A,homelet,O,backspace,388,1,2133.9000000059605,801341.8999999911,7763,WL,C,9.0
7,12.92799997329712,immed,47072.00002670288,Wed Feb 25 2026 16:19:55 GMT-0600 (Central Standard Time),803641.700000003,A,homele,O,backspace,147,1,2299.800000011921,801341.8999999911,7763,WL,C,9.0
7,13.078999996185303,immed,46921.0000038147,Wed Feb 25 2026 16:19:55 GMT-0600 (Central Standard Time),803792.099999994,A,homel,O,backspace,142,1,2450.2000000029802,801341.8999999911,7763,WL,C,9.0
7,13.230000019073486,immed,46769.999980926514,Wed Feb 25 2026 16:19:55 GMT-0600 (Central Standard Time),803943.099999994,A,home,O,backspace,143,1,2601.2000000029802,801341.8999999911,7763,WL,C,9.0
7,13.645999908447266,immed,46354.000091552734,Wed Feb 25 2026 16:19:55 GMT-0600 (Central Standard Time),804359.700000003,A,homeenter,O,enter,400,1,3017.800000011921,801341.8999999911,7763,WL,C,9.0
7,14.17900013923645,immed,45820.99986076355,Wed Feb 25 2026 16:19:55 GMT-0600 (Central Standard Time),804892.5,A,l,O,l,512,1,532.5,804360.0,7763,WL,C,10.0
7,14.510999917984009,immed,45489.00008201599,Wed Feb 25 2026 16:19:55 GMT-0600 (Central Standard Time),805224.5,A,le,O,e,314,1,864.5,804360.0,7763,WL,C,10.0
7,14.776999950408936,immed,45223.000049591064,Wed Feb 25 2026 16:19:55 GMT-0600 (Central Standard Time),805490.3999999911,A,let,O,t,249,1,1130.3999999910593,804360.0,7763,WL,C,10.0
7,14.92799997329712,immed,45072.00002670288,Wed Feb 25 2026 16:19:55 GMT-0600 (Central Standard Time),805641.099999994,A,lett,O,t,140,1,1281.0999999940395,804360.0,7763,WL,C,10.0
7,15.09500002861023,immed,44904.99997138977,Wed Feb 25 2026 16:19:55 GMT-0600 (Central Standard Time),805807.799999997,A,lette,O,e,159,1,1447.7999999970198,804360.0,7763,WL,C,10.0
7,15.177000045776367,immed,44822.99995422363,Wed Feb 25 2026 16:19:55 GMT-0600 (Central Standard Time),805889.8999999911,A,letter,O,r,71,1,1529.8999999910593,804360.0,7763,WL,C,10.0
7,15.42900013923645,immed,44570.99986076355,Wed Feb 25 2026 16:19:55 GMT-0600 (Central Standard Time),806142.599999994,A,letterenter,O,enter,240,1,1782.5999999940395,804360.0,7763,WL,C,10.0
7,15.842999935150146,immed,44157.00006484985,Wed Feb 25 2026 16:19:55 GMT-0600 (Central Standard Time),806556.3999999911,A,d,O,d,400,1,413.59999999403954,806142.799999997,7763,WL,C,11.0
7,16.01099991798401,immed,43989.00008201599,Wed Feb 25 2026 16:19:55 GMT-0600 (Central Standard Time),806724.299999997,A,do,O,o,150,1,581.5,806142.799999997,7763,WL,C,11.0
