acc_sum,block,block_c,condition,correct,correct_response,datetime,endtime,flanker,jitter,project,response,response_test_buffer_response,response_test_target_response,response_time,response_time_test_buffer_response,response_time_test_target_response,row_sel,session_number,start_end,starttime,subject_id,target,task,task_vers,time_test_buffer,time_test_buffer_response,time_test_constants,time_test_flanker,time_test_jitter,time_test_logger,time_test_target,time_test_target_response,time_test_variables,trial
1,prac,1,inc,1,m,Thu Feb 05 2026 13:48:48 GMT-0500 (Eastern Standard Time),141047.6000000001,hate,1100,I,m,,,772,,,4,1,3176.7000000001863,137870.8999999999,9057,film,AF,A,,,,,,,,,,1
2,prac,1,inc,1,m,Thu Feb 05 2026 13:48:48 GMT-0500 (Eastern Standard Time),143847.30000000028,kind,900,I,m,,,587,,,2,1,2790.0,141057.30000000028,9057,rock,AF,A,,,,,,,,,,2
3,prac,1,con,1,z,Thu Feb 05 2026 13:48:48 GMT-0500 (Eastern Standard Time),146547.3999999999,love,1000,I,z,,,384,,,11,1,2691.0,143856.3999999999,9057,love,AF,A,,,,,,,,,,3
4,prac,1,inc,1,z,Thu Feb 05 2026 13:48:48 GMT-0500 (Eastern Standard Time),149480.7000000002,rock,900,I,z,,,728,,,10,1,2924.600000000093,146556.1000000001,9057,kind,AF,A,,,,,,,,,,4
5,prac,1,inc,1,z,Thu Feb 05 2026 13:48:48 GMT-0500 (Eastern Standard Time),152863.5,window,1100,I,z,,,963,,,16,1,3365.2999999998137,149498.2000000002,9057,temper,AF,A,,,,,,,,,,5
6,prac,1,con,1,m,Thu Feb 05 2026 13:48:48 GMT-0500 (Eastern Standard Time),155430.5,jacket,800,I,m,,,455,,,5,1,2560.399999999907,152870.1000000001,9057,jacket,AF,A,,,,,,,,,,6
7,prac,1,inc,1,z,Thu Feb 05 2026 13:48:48 GMT-0500 (Eastern Standard Time),158497.30000000028,napkin,1100,I,z,,,661,,,12,1,3054.9000000003725,155442.3999999999,9057,friend,AF,A,,,,,,,,,,7
8,prac,1,con,1,m,Thu Feb 05 2026 13:48:48 GMT-0500 (Eastern Standard Time),161314.1000000001,bell,1000,I,m,,,502,,,3,1,2808.2000000001863,158505.8999999999,9057,bell,AF,A,,,,,,,,,,8
9,prac,1,con,1,z,Thu Feb 05 2026 13:48:48 GMT-0500 (Eastern Standard Time),163897.2000000002,elated,800,I,z,,,477,,,9,1,2574.2000000001863,161323.0,9057,elated,AF,A,,,,,,,,,,9
10,prac,1,con,1,m,Thu Feb 05 2026 13:48:48 GMT-0500 (Eastern Standard Time),166647.2000000002,remote,1000,I,m,,,446,,,7,1,2738.600000000093,163908.6000000001,9057,remote,AF,A,,,,,,,,,,10
11,prac,1,inc,1,m,Thu Feb 05 2026 13:48:48 GMT-0500 (Eastern Standard Time),169730.6000000001,brutal,1100,I,m,,,676,,,8,1,3073.399999999907,166657.2000000002,9057,window,AF,A,,,,,,,,,,11
12,prac,1,con,1,z,Thu Feb 05 2026 13:48:48 GMT-0500 (Eastern Standard Time),172297.3999999999,brutal,800,I,z,,,461,,,13,1,2558.0999999996275,169739.30000000028,9057,brutal,AF,A,,,,,,,,,,12
13,prac,1,inc,1,m,Thu Feb 05 2026 13:48:48 GMT-0500 (Eastern Standard Time),175014.0,elated,900,I,m,,,507,,,6,1,2706.6999999997206,172307.30000000028,9057,napkin,AF,A,,,,,,,,,,13
14,prac,1,con,1,m,Thu Feb 05 2026 13:48:48 GMT-0500 (Eastern Standard Time),177564.0,step,800,I,m,,,433,,,1,1,2542.2999999998137,175021.7000000002,9057,step,AF,A,,,,,,,,,,14
15,prac,1,inc,1,z,Thu Feb 05 2026 13:48:48 GMT-0500 (Eastern Standard Time),180330.6000000001,film,900,I,z,,,551,,,14,1,2757.2000000001863,177573.3999999999,9057,hate,AF,A,,,,,,,,,,15
16,prac,1,con,1,z,Thu Feb 05 2026 13:48:48 GMT-0500 (Eastern Standard Time),183130.6000000001,rage,1000,I,z,,,492,,,15,1,2791.2999999998137,180339.30000000028,9057,rage,AF,A,,,,,,,,,,16
1,test,1,con,1,z,Thu Feb 05 2026 13:48:48 GMT-0500 (Eastern Standard Time),197247.3999999999,temper,1100,I,z,z,None,439,240.0,199.0,60,1,2075.899999999907,195171.5,9057,temper,AF,A,190999,190999,189172,190282,189173,191249,190799,190799,191248,1
2,test,1,con,1,z,Thu Feb 05 2026 13:48:48 GMT-0500 (Eastern Standard Time),199263.80000000028,hate,1000,I,z,z,None,480,281.0,199.0,43,1,2006.9000000003725,197256.8999999999,9057,hate,AF,A,192982,192982,191258,192265,191258,193265,192782,192782,193265,2
3,test,1,inc,1,z,Thu Feb 05 2026 13:48:48 GMT-0500 (Eastern Standard Time),201530.5,film,1100,I,z,z,None,618,419.0,199.0,24,1,2257.100000000093,199273.3999999999,9057,love,AF,A,195099,195099,193274,194382,193275,195532,194899,194899,195531,3
4,test,1,con,1,m,Thu Feb 05 2026 13:48:48 GMT-0500 (Eastern Standard Time),203547.0,jacket,1100,I,m,m,None,377,177.0,200.0,100,1,2007.6999999997206,201539.30000000028,9057,jacket,AF,A,197365,197365,195540,196649,195541,197548,197165,197165,197548,4
5,test,1,con,1,z,Thu Feb 05 2026 13:48:48 GMT-0500 (Eastern Standard Time),205414.0,love,800,I,z,z,None,524,325.0,199.0,17,1,1860.7999999998137,203553.2000000002,9057,love,AF,A,199082,199082,197554,198365,197555,199415,198882,198882,199415,5
6,test,1,con,1,z,Thu Feb 05 2026 13:48:48 GMT-0500 (Eastern Standard Time),207163.7000000002,elated,800,I,z,z,None,400,201.0,199.0,1,1,1741.3000000002794,205422.3999999999,9057,elated,AF,A,200949,200949,199423,200232,199424,201165,200749,200749,201165,6
6,test,1,con,0,m,Thu Feb 05 2026 13:48:48 GMT-0500 (Eastern Standard Time),209063.7000000002,window,1000,I,z,z,None,364,164.0,200.0,123,1,1894.7000000001863,207169.0,9057,window,AF,A,202899,202899,201170,202182,201170,203065,202698,202698,203065,7
7,test,1,con,1,m,Thu Feb 05 2026 13:48:48 GMT-0500 (Eastern Standard Time),211330.7000000002,napkin,1000,I,m,m,None,728,529.0,199.0,107,1,2257.600000000093,209073.1000000001,9057,napkin,AF,A,204798,204798,203074,204082,203074,205332,204599,204599,205332,8
8,test,1,inc,1,m,Thu Feb 05 2026 13:48:48 GMT-0500 (Eastern Standard Time),213447.30000000028,love,1000,I,m,m,None,574,374.0,200.0,79,1,2106.9000000003725,211340.3999999999,9057,rock,AF,A,207065,207065,205341,206348,205342,207448,206865,206865,207448,9
9,test,1,con,1,z,Thu Feb 05 2026 13:48:48 GMT-0500 (Eastern Standard Time),215280.6000000001,rage,900,I,z,z,None,389,189.0,200.0,50,1,1825.2000000001863,213455.3999999999,9057,rage,AF,A,209082,209082,207456,208365,207457,209282,208882,208882,209282,10
9,test,1,con,0,z,Thu Feb 05 2026 13:48:48 GMT-0500 (Eastern Standard Time),217513.80000000028,elated,1100,I,m,m,None,586,386.0,200.0,4,1,2224.9000000003725,215288.8999999999,9057,elated,AF,A,211116,211116,209290,210399,209290,211515,210915,210915,211515,11
10,test,1,inc,1,m,Thu Feb 05 2026 13:48:48 GMT-0500 (Eastern Standard Time),219498.8999999999,rage,800,I,m,m,None,646,447.0,199.0,77,1,1978.2999999998137,217520.6000000001,9057,rock,AF,A,213048,213048,211522,212332,211522,213500,212849,212849,213500,12
11,test,1,inc,1,z,Thu Feb 05 2026 13:48:48 GMT-0500 (Eastern Standard Time),221663.80000000028,remote,1000,I,z,z,None,622,422.0,200.0,31,1,2154.2000000001863,219509.6000000001,9057,friend,AF,A,215232,215232,213511,214515,213511,215665,215032,215032,215665,13
12,test,1,inc,1,z,Thu Feb 05 2026 13:48:48 GMT-0500 (Eastern Standard Time),224180.6000000001,window,1100,I,z,z,None,867,668.0,199.0,64,1,2510.399999999907,221670.2000000002,9057,temper,AF,A,217499,217499,215671,216782,215672,218182,217299,217299,218182,14
13,test,1,con,1,m,Thu Feb 05 2026 13:48:48 GMT-0500 (Eastern Standard Time),225964.0,film,800,I,m,m,None,442,243.0,199.0,89,1,1774.3999999999069,224189.6000000001,9057,film,AF,A,219716,219716,218191,218999,218191,219965,219516,219516,219965,15
14,test,1,con,1,z,Thu Feb 05 2026 13:48:48 GMT-0500 (Eastern Standard Time),227747.5,brutal,800,I,z,z,None,443,244.0,199.0,33,1,1775.5,225972.0,9057,brutal,AF,A,221499,221499,219973,220782,219974,221749,221299,221299,221748,16
15,test,1,con,1,z,Thu Feb 05 2026 13:48:48 GMT-0500 (Eastern Standard Time),229647.30000000028,friend,900,I,z,z,None,456,257.0,199.0,26,1,1890.9000000003725,227756.3999999999,9057,friend,AF,A,223382,223382,221757,222665,221758,223648,223182,223182,223648,17
16,test,1,con,1,z,Thu Feb 05 2026 13:48:48 GMT-0500 (Eastern Standard Time),231614.30000000028,brutal,1000,I,z,z,None,433,233.0,200.0,35,1,1958.6000000000931,229655.7000000002,9057,brutal,AF,A,225382,225382,223657,224665,223657,225615,225182,225182,225615,18
17,test,1,inc,1,z,Thu Feb 05 2026 13:48:48 GMT-0500 (Eastern Standard Time),233680.6000000001,napkin,900,I,z,z,None,623,423.0,200.0,62,1,2058.899999999907,231621.7000000002,9057,temper,AF,A,227248,227248,225623,226532,225623,227682,227048,227048,227682,19
18,test,1,con,1,m,Thu Feb 05 2026 13:48:48 GMT-0500 (Eastern Standard Time),235563.8999999999,jacket,900,I,m,m,None,443,243.0,200.0,98,1,1874.8999999999069,233689.0,9057,jacket,AF,A,229315,229316,227690,228598,227690,229565,229115,229115,229565,20
19,test,1,inc,1,z,Thu Feb 05 2026 13:48:48 GMT-0500 (Eastern Standard Time),237513.8999999999,napkin,900,I,z,z,None,504,305.0,199.0,6,1,1940.7999999998137,235573.1000000001,9057,elated,AF,A,231198,231198,229574,230482,229575,231515,230999,230999,231515,21
20,test,1,inc,1,z,Thu Feb 05 2026 13:48:48 GMT-0500 (Eastern Standard Time),239497.5,step,800,I,z,z,None,637,438.0,199.0,13,1,1973.6000000000931,237523.8999999999,9057,kind,AF,A,233049,233049,231525,232332,231525,233499,232849,232849,233498,22
21,test,1,inc,1,z,Thu Feb 05 2026 13:48:48 GMT-0500 (Eastern Standard Time),241747.30000000028,film,1100,I,z,z,None,602,403.0,199.0,56,1,2240.5,239506.80000000028,9057,rage,AF,A,235332,235332,233508,234615,233508,235748,235132,235132,235748,23
22,test,1,inc,1,m,Thu Feb 05 2026 13:48:48 GMT-0500 (Eastern Standard Time),243797.30000000028,brutal,900,I,m,m,None,600,401.0,199.0,110,1,2041.2000000001863,241756.1000000001,9057,napkin,AF,A,237382,237382,235757,236665,235758,237798,237182,237182,237798,24
23,test,1,inc,1,z,Thu Feb 05 2026 13:48:48 GMT-0500 (Eastern Standard Time),245947.1000000001,napkin,900,I,z,z,None,711,511.0,200.0,30,1,2142.0,243805.1000000001,9057,friend,AF,A,239432,239432,237806,238715,237806,239948,239232,239232,239948,25
24,test,1,con,1,z,Thu Feb 05 2026 13:48:48 GMT-0500 (Eastern Standard Time),247947.30000000028,temper,900,I,z,z,None,553,353.0,200.0,58,1,1991.2000000001863,245956.1000000001,9057,temper,AF,A,241582,241582,239957,240865,239958,241949,241382,241382,241948,26
25,test,1,con,1,m,Thu Feb 05 2026 13:48:48 GMT-0500 (Eastern Standard Time),249780.7000000002,rock,800,I,m,m,None,493,293.0,200.0,73,1,1824.8000000002794,247955.8999999999,9057,rock,AF,A,243482,243482,241957,242766,241957,243782,243282,243282,243782,27
26,test,1,inc,1,m,Thu Feb 05 2026 13:48:48 GMT-0500 (Eastern Standard Time),252280.80000000028,hate,1100,I,m,m,None,854,655.0,199.0,96,1,2491.2000000001863,249789.6000000001,9057,film,AF,A,245616,245616,243791,244899,243791,246282,245415,245416,246282,28
27,test,1,inc,1,m,Thu Feb 05 2026 13:48:48 GMT-0500 (Eastern Standard Time),254580.7000000002,love,1000,I,m,m,None,750,551.0,199.0,87,1,2290.600000000093,252290.1000000001,9057,bell,AF,A,248016,248016,246291,247299,246291,248582,247816,247816,248582,29
28,test,1,con,1,z,Thu Feb 05 2026 13:48:48 GMT-0500 (Eastern Standard Time),256813.6000000001,love,1100,I,z,z,None,598,398.0,200.0,20,1,2224.2999999998137,254589.30000000028,9057,love,AF,A,250416,250416,248590,249699,248591,250815,250215,250215,250815,30
29,test,1,con,1,z,Thu Feb 05 2026 13:48:48 GMT-0500 (Eastern Standard Time),258614.1000000001,friend,800,I,z,z,None,449,250.0,199.0,25,1,1795.5,256818.6000000001,9057,friend,AF,A,252349,252349,250820,251632,250820,252615,252149,252149,252615,31
30,test,1,con,1,m,Thu Feb 05 2026 13:48:48 GMT-0500 (Eastern Standard Time),260714.0,film,1000,I,m,m,None,561,362.0,199.0,91,1,2091.6999999997206,258622.30000000028,9057,film,AF,A,254349,254349,252623,253632,252624,254715,254149,254149,254715,32
31,test,1,con,1,m,Thu Feb 05 2026 13:48:48 GMT-0500 (Eastern Standard Time),262580.6000000001,film,900,I,m,m,None,425,226.0,199.0,90,1,1858.0,260722.6000000001,9057,film,AF,A,256349,256349,254724,255632,254724,256582,256149,256149,256582,33
32,test,1,con,1,z,Thu Feb 05 2026 13:48:48 GMT-0500 (Eastern Standard Time),264397.3999999999,hate,900,I,z,z,None,375,175.0,200.0,42,1,1807.1999999997206,262590.2000000002,9057,hate,AF,A,258216,258216,256591,257499,256592,258398,258015,258015,258398,34
33,test,1,con,1,m,Thu Feb 05 2026 13:48:48 GMT-0500 (Eastern Standard Time),266347.5,jacket,1000,I,m,m,None,403,203.0,200.0,99,1,1939.6999999997206,264407.8000000003,9057,jacket,AF,A,260132,260132,258409,259415,258409,260349,259932,259932,260348,35
34,test,1,inc,1,m,Thu Feb 05 2026 13:48:48 GMT-0500 (Eastern Standard Time),268497.3000000003,friend,1100,I,m,m,None,513,313.0,200.0,104,1,2139.2000000001863,266358.1000000001,9057,jacket,AF,A,262182,262182,260359,261466,260360,262498,261982,261982,262498,36
35,test,1,con,1,z,Thu Feb 05 2026 13:48:48 GMT-0500 (Eastern Standard Time),270830.3000000003,rage,1000,I,z,z,None,798,598.0,200.0,51,1,2324.7000000001863,268505.6000000001,9057,rage,AF,A,264232,264232,262507,263515,262507,264831,264032,264032,264831,37
36,test,1,inc,1,z,Thu Feb 05 2026 13:48:48 GMT-0500 (Eastern Standard Time),272880.5,jacket,800,I,z,z,None,712,513.0,199.0,5,1,2043.3999999999069,270837.1000000001,9057,elated,AF,A,266365,266365,264838,265649,264839,266882,266165,266166,266882,38
37,test,1,con,1,z,Thu Feb 05 2026 13:48:48 GMT-0500 (Eastern Standard Time),274747.3000000003,love,900,I,z,z,None,426,227.0,199.0,18,1,1861.0,272886.3000000003,9057,love,AF,A,268516,268516,266887,267799,266888,268749,268316,268316,268748,39
38,test,1,con,1,z,Thu Feb 05 2026 13:48:48 GMT-0500 (Eastern Standard Time),276830.7000000002,brutal,1100,I,z,z,None,441,241.0,200.0,36,1,2074.5,274756.2000000002,9057,brutal,AF,A,270582,270582,268757,269865,268758,270832,270382,270382,270832,40
38,test,1,con,0,m,Thu Feb 05 2026 13:48:48 GMT-0500 (Eastern Standard Time),279047.1000000001,bell,1100,I,z,z,None,579,380.0,199.0,84,1,2207.7999999998137,276839.3000000003,9057,bell,AF,A,272666,272666,270840,271949,270841,273048,272466,272466,273048,41
39,test,1,inc,1,m,Thu Feb 05 2026 13:48:48 GMT-0500 (Eastern Standard Time),280980.7000000002,rage,800,I,m,m,None,593,393.0,200.0,69,1,1928.3999999999069,279052.3000000003,9057,step,AF,A,274582,274582,273053,273865,273054,274982,274382,274382,274982,42
40,test,1,inc,1,z,Thu Feb 05 2026 13:48:48 GMT-0500 (Eastern Standard Time),282863.8999999999,jacket,800,I,z,z,None,546,347.0,199.0,37,1,1874.1999999997206,280989.7000000002,9057,brutal,AF,A,276516,276516,274991,275799,274991,276865,276316,276316,276865,43
41,test,1,inc,1,m,Thu Feb 05 2026 13:48:48 GMT-0500 (Eastern Standard Time),285280.5,friend,1100,I,m,m,None,778,579.0,199.0,128,1,2408.600000000093,282871.8999999999,9057,window,AF,A,278699,278699,276873,277982,276873,279282,278499,278499,279282,44
42,test,1,con,1,m,Thu Feb 05 2026 13:48:48 GMT-0500 (Eastern Standard Time),287080.6000000001,remote,800,I,m,m,None,464,264.0,200.0,113,1,1793.6000000000931,285287.0,9057,remote,AF,A,280815,280815,279288,280099,279288,281082,280615,280615,281082,45
43,test,1,inc,1,z,Thu Feb 05 2026 13:48:48 GMT-0500 (Eastern Standard Time),288914.0,step,800,I,z,z,None,493,294.0,199.0,45,1,1823.1000000000931,287090.8999999999,9057,hate,AF,A,282616,282616,281092,281899,281092,282915,282416,282416,282915,46
44,test,1,inc,1,m,Thu Feb 05 2026 13:48:48 GMT-0500 (Eastern Standard Time),291230.8000000003,friend,1100,I,m,m,None,673,474.0,199.0,112,1,2307.5,288923.3000000003,9057,napkin,AF,A,284749,284749,282924,284032,282925,285232,284549,284549,285232,47
45,test,1,con,1,m,Thu Feb 05 2026 13:48:48 GMT-0500 (Eastern Standard Time),293730.8000000003,rock,1000,I,m,m,None,953,754.0,199.0,75,1,2489.600000000093,291241.2000000002,9057,rock,AF,A,286965,286965,285242,286249,285243,287732,286766,286766,287732,48
46,test,1,inc,1,z,Thu Feb 05 2026 13:48:48 GMT-0500 (Eastern Standard Time),296114.0,remote,1000,I,z,z,None,835,636.0,199.0,39,1,2374.1999999997206,293739.8000000003,9057,brutal,AF,A,289466,289466,287741,288749,287741,290115,289266,289266,290115,49
47,test,1,inc,1,m,Thu Feb 05 2026 13:48:48 GMT-0500 (Eastern Standard Time),298330.8999999999,hate,1100,I,m,m,None,577,378.0,199.0,72,1,2209.6999999997206,296121.2000000002,9057,step,AF,A,291949,291949,290122,291232,290123,292332,291749,291749,292332,50
47,test,1,con,0,z,Thu Feb 05 2026 13:48:48 GMT-0500 (Eastern Standard Time),300247.3000000003,hate,800,I,m,m,None,571,372.0,199.0,41,1,1907.3000000002794,298340.0,9057,hate,AF,A,293866,293866,292341,293149,292341,294248,293665,293666,294248,51
48,test,1,inc,1,z,Thu Feb 05 2026 13:48:48 GMT-0500 (Eastern Standard Time),302497.5,rock,900,I,z,z,None,805,605.0,200.0,46,1,2241.600000000093,300255.8999999999,9057,hate,AF,A,295882,295882,294257,295166,294257,296499,295682,295682,296499,52
49,test,1,con,1,m,Thu Feb 05 2026 13:48:48 GMT-0500 (Eastern Standard Time),304580.7000000002,napkin,900,I,m,m,None,643,443.0,200.0,106,1,2075.0,302505.7000000002,9057,napkin,AF,A,298132,298132,296507,297415,296507,298582,297932,297932,298582,53
50,test,1,inc,1,m,Thu Feb 05 2026 13:48:48 GMT-0500 (Eastern Standard Time),306930.5,hate,1100,I,m,m,None,711,511.0,200.0,88,1,2336.0,304594.5,9057,bell,AF,A,300415,300415,298595,299699,298596,300932,300215,300215,300932,54
51,test,1,con,1,m,Thu Feb 05 2026 13:48:48 GMT-0500 (Eastern Standard Time),308847.3000000003,rock,900,I,m,m,None,480,281.0,199.0,74,1,1911.5,306935.8000000003,9057,rock,AF,A,302566,302566,300937,301849,300937,302848,302365,302366,302848,55
51,test,1,con,0,z,Thu Feb 05 2026 13:48:48 GMT-0500 (Eastern Standard Time),310864.0,friend,1000,I,m,m,None,481,281.0,200.0,27,1,2007.0,308857.0,9057,friend,AF,A,304582,304582,302858,303865,302858,304865,304382,304382,304865,56
52,test,1,inc,1,m,Thu Feb 05 2026 13:48:48 GMT-0500 (Eastern Standard Time),312797.5,elated,800,I,m,m,None,583,384.0,199.0,125,1,1922.7999999998137,310874.7000000002,9057,window,AF,A,306399,306399,304876,305683,304876,306799,306199,306199,306798,57
53,test,1,inc,1,m,Thu Feb 05 2026 13:48:48 GMT-0500 (Eastern Standard Time),314814.1000000001,brutal,900,I,m,m,None,565,366.0,199.0,118,1,2005.8999999999069,312808.2000000002,9057,remote,AF,A,308432,308433,306809,307715,306810,308815,308233,308233,308815,58
54,test,1,inc,1,z,Thu Feb 05 2026 13:48:48 GMT-0500 (Eastern Standard Time),317030.8999999999,window,1100,I,z,z,None,573,374.0,199.0,32,1,2203.0,314827.8999999999,9057,friend,AF,A,310649,310649,308829,309932,308830,311032,310449,310449,311032,59
55,test,1,inc,1,z,Thu Feb 05 2026 13:48:48 GMT-0500 (Eastern Standard Time),319114.0,rock,900,I,z,z,None,636,437.0,199.0,22,1,2074.399999999907,317039.6000000001,9057,love,AF,A,312666,312666,311041,311949,311041,313115,312466,312466,313115,60
56,test,1,con,1,z,Thu Feb 05 2026 13:48:48 GMT-0500 (Eastern Standard Time),321830.8999999999,kind,900,I,z,z,None,1274,1074.0,200.0,10,1,2706.0,319124.8999999999,9057,kind,AF,A,314749,314749,313126,314032,313126,315832,314549,314549,315832,61
57,test,1,inc,1,m,Thu Feb 05 2026 13:48:48 GMT-0500 (Eastern Standard Time),323930.7000000002,love,1000,I,m,m,None,552,353.0,199.0,95,1,2088.600000000093,321842.1000000001,9057,film,AF,A,317566,317566,315843,316849,315843,317932,317366,317366,317932,62
58,test,1,inc,1,z,Thu Feb 05 2026 13:48:48 GMT-0500 (Eastern Standard Time),326247.3999999999,window,1100,I,z,z,None,673,473.0,200.0,8,1,2308.0999999996275,323939.3000000003,9057,elated,AF,A,319766,319766,317940,319049,317941,320249,319565,319565,320248,63
59,test,1,con,1,z,Thu Feb 05 2026 13:48:48 GMT-0500 (Eastern Standard Time),328630.6000000001,rage,800,I,z,z,None,1040,840.0,200.0,49,1,2374.600000000093,326256.0,9057,rage,AF,A,321782,321782,320257,321065,320257,322632,321582,321582,322632,64
60,test,1,inc,1,z,Thu Feb 05 2026 13:48:48 GMT-0500 (Eastern Standard Time),330980.8999999999,window,1100,I,z,z,None,709,509.0,200.0,40,1,2345.0,328635.8999999999,9057,brutal,AF,A,324466,324466,322637,323749,322637,324982,324265,324265,324982,65
61,test,1,con,1,m,Thu Feb 05 2026 13:48:48 GMT-0500 (Eastern Standard Time),332813.8000000003,bell,800,I,m,m,None,498,298.0,200.0,81,1,1824.3000000002794,330989.5,9057,bell,AF,A,326516,326516,324991,325799,324991,326815,326315,326315,326815,66
62,test,1,inc,1,m,Thu Feb 05 2026 13:48:48 GMT-0500 (Eastern Standard Time),335014.0,brutal,900,I,m,m,None,765,566.0,199.0,126,1,2194.100000000093,332819.8999999999,9057,window,AF,A,328448,328448,326821,327732,326821,329015,328249,328249,329015,67
63,test,1,con,1,m,Thu Feb 05 2026 13:48:48 GMT-0500 (Eastern Standard Time),337097.3999999999,remote,1000,I,m,m,None,545,346.0,199.0,115,1,2078.5,335018.8999999999,9057,remote,AF,A,330749,330749,329020,330032,329020,331098,330549,330549,331098,68
64,test,1,con,1,m,Thu Feb 05 2026 13:48:48 GMT-0500 (Eastern Standard Time),339097.3999999999,remote,900,I,m,m,None,563,363.0,200.0,114,1,1990.2999999998137,337107.1000000001,9057,remote,AF,A,332732,332732,331108,332015,331108,333098,332532,332532,333098,69
65,test,1,inc,1,m,Thu Feb 05 2026 13:48:48 GMT-0500 (Eastern Standard Time),341048.2000000002,elated,800,I,m,m,None,613,413.0,200.0,101,1,1943.2000000001863,339105.0,9057,jacket,AF,A,334633,334633,333106,333916,333106,335049,334432,334432,335049,70
66,test,1,con,1,m,Thu Feb 05 2026 13:48:48 GMT-0500 (Eastern Standard Time),343147.3000000003,window,1100,I,m,m,None,452,252.0,200.0,124,1,2094.100000000093,341053.2000000002,9057,window,AF,A,336882,336882,335054,336166,335055,337148,336682,336682,337148,71
67,test,1,con,1,z,Thu Feb 05 2026 13:48:48 GMT-0500 (Eastern Standard Time),345530.6000000001,friend,1100,I,z,z,None,744,543.0,201.0,28,1,2373.899999999907,343156.7000000002,9057,friend,AF,A,338983,338983,337158,338266,337158,339532,338782,338782,339532,72
68,test,1,inc,1,z,Thu Feb 05 2026 13:48:48 GMT-0500 (Eastern Standard Time),347380.8999999999,step,800,I,z,z,None,500,301.0,199.0,21,1,1843.5999999996275,345537.3000000003,9057,love,AF,A,341066,341066,339538,340349,339539,341382,340866,340866,341382,73
69,test,1,inc,1,z,Thu Feb 05 2026 13:48:48 GMT-0500 (Eastern Standard Time),349414.0,napkin,900,I,z,z,None,591,391.0,200.0,38,1,2021.7999999998137,347392.2000000002,9057,brutal,AF,A,343016,343016,341393,342299,341394,343415,342815,342815,343415,74
70,test,1,con,1,m,Thu Feb 05 2026 13:48:48 GMT-0500 (Eastern Standard Time),351497.5,window,900,I,m,m,None,646,446.0,200.0,122,1,2073.1999999997206,349424.3000000003,9057,window,AF,A,345049,345049,343425,344332,343426,345499,344849,344849,345499,75
71,test,1,inc,1,z,Thu Feb 05 2026 13:48:48 GMT-0500 (Eastern Standard Time),353530.8999999999,rock,900,I,z,z,None,587,387.0,200.0,54,1,2022.3999999999069,351508.5,9057,rage,AF,A,347132,347132,345510,346415,345510,347532,346932,346932,347532,76
72,test,1,inc,1,m,Thu Feb 05 2026 13:48:48 GMT-0500 (Eastern Standard Time),355580.8999999999,kind,900,I,m,m,None,599,400.0,199.0,86,1,2041.6999999997206,353539.2000000002,9057,bell,AF,A,349166,349166,347540,348449,347541,349582,348966,348966,349582,77
73,test,1,inc,1,z,Thu Feb 05 2026 13:48:48 GMT-0500 (Eastern Standard Time),357697.5,remote,1000,I,z,z,None,579,379.0,200.0,7,1,2105.7999999998137,355591.7000000002,9057,elated,AF,A,351316,351316,349593,350599,349593,351699,351115,351115,351699,78
74,test,1,inc,1,m,Thu Feb 05 2026 13:48:48 GMT-0500 (Eastern Standard Time),359764.2000000002,temper,1000,I,m,m,None,519,319.0,200.0,119,1,2057.100000000093,357707.1000000001,9057,remote,AF,A,353432,353432,351708,352716,351709,353765,353232,353232,353765,79
75,test,1,inc,1,m,Thu Feb 05 2026 13:48:48 GMT-0500 (Eastern Standard Time),361797.6000000001,rage,800,I,m,m,None,692,492.0,200.0,85,1,2020.2999999998137,359777.3000000003,9057,bell,AF,A,355299,355299,353778,354582,353779,355799,355099,355099,355799,80
76,test,1,inc,1,m,Thu Feb 05 2026 13:48:48 GMT-0500 (Eastern Standard Time),363780.8000000003,kind,900,I,m,m,None,542,342.0,200.0,70,1,1972.9000000003725,361807.8999999999,9057,step,AF,A,357432,357432,355809,356716,355809,357782,357232,357232,357782,81
77,test,1,con,1,z,Thu Feb 05 2026 13:48:48 GMT-0500 (Eastern Standard Time),365814.3000000003,temper,800,I,z,z,None,682,483.0,199.0,57,1,2028.3000000002794,363786.0,9057,temper,AF,A,359316,359316,357787,358599,357787,359815,359116,359116,359815,82
78,test,1,con,1,m,Thu Feb 05 2026 13:48:48 GMT-0500 (Eastern Standard Time),367864.3999999999,napkin,800,I,m,m,None,706,506.0,200.0,105,1,2041.5999999996275,365822.8000000003,9057,napkin,AF,A,361349,361349,359824,360632,359824,361865,361149,361149,361865,83
79,test,1,con,1,z,Thu Feb 05 2026 13:48:48 GMT-0500 (Eastern Standard Time),369847.3999999999,kind,1000,I,z,z,None,448,248.0,200.0,11,1,1974.0999999996275,367873.3000000003,9057,kind,AF,A,363599,363599,361874,362882,361875,363848,363399,363399,363848,84
80,test,1,con,1,m,Thu Feb 05 2026 13:48:48 GMT-0500 (Eastern Standard Time),371914.1000000001,window,800,I,m,m,None,721,521.0,200.0,121,1,2056.7000000001863,369857.3999999999,9057,window,AF,A,365382,365382,363858,364666,363859,365915,365182,365182,365915,85
81,test,1,con,1,m,Thu Feb 05 2026 13:48:48 GMT-0500 (Eastern Standard Time),373864.2000000002,bell,1000,I,m,m,None,405,206.0,199.0,83,1,1941.3000000002794,371922.8999999999,9057,bell,AF,A,367649,367649,365924,366932,365924,367865,367449,367449,367865,86
82,test,1,inc,1,z,Thu Feb 05 2026 13:48:48 GMT-0500 (Eastern Standard Time),375697.3999999999,step,800,I,z,z,None,487,287.0,200.0,53,1,1819.5999999996275,373877.8000000003,9057,rage,AF,A,369399,369399,367879,368682,367880,369698,369199,369199,369698,87
83,test,1,inc,1,z,Thu Feb 05 2026 13:48:48 GMT-0500 (Eastern Standard Time),377914.1000000001,bell,1000,I,z,z,None,670,470.0,200.0,15,1,2211.600000000093,375702.5,9057,kind,AF,A,371432,371432,369704,370716,369704,371915,371232,371232,371915,88
84,test,1,inc,1,m,Thu Feb 05 2026 13:48:48 GMT-0500 (Eastern Standard Time),379914.3999999999,brutal,900,I,m,m,None,554,354.0,200.0,102,1,1994.0,377920.3999999999,9057,jacket,AF,A,373549,373549,371921,372832,371922,373916,373349,373349,373915,89
85,test,1,inc,1,m,Thu Feb 05 2026 13:48:48 GMT-0500 (Eastern Standard Time),382014.1000000001,temper,1000,I,m,m,None,557,357.0,200.0,111,1,2091.0,379923.1000000001,9057,napkin,AF,A,375649,375649,373924,374932,373924,376015,375449,375449,376015,90
86,test,1,con,1,z,Thu Feb 05 2026 13:48:48 GMT-0500 (Eastern Standard Time),383997.3999999999,love,1000,I,z,z,None,432,233.0,199.0,19,1,1977.2999999998137,382020.1000000001,9057,love,AF,A,377749,377749,376021,377032,376022,377998,377549,377549,377998,91
87,test,1,con,1,m,Thu Feb 05 2026 13:48:48 GMT-0500 (Eastern Standard Time),386030.6000000001,napkin,1100,I,m,m,None,398,198.0,200.0,108,1,2026.5,384004.1000000001,9057,napkin,AF,A,379832,379833,378005,379116,378006,380032,379632,379632,380032,92
88,test,1,con,1,z,Thu Feb 05 2026 13:48:48 GMT-0500 (Eastern Standard Time),388330.8999999999,hate,1100,I,z,z,None,652,453.0,199.0,44,1,2292.5999999996275,386038.3000000003,9057,hate,AF,A,381866,381866,380039,381149,380040,382332,381666,381666,382332,93
89,test,1,con,1,z,Thu Feb 05 2026 13:48:48 GMT-0500 (Eastern Standard Time),390547.6000000001,kind,800,I,z,z,None,869,669.0,200.0,9,1,2208.2999999998137,388339.3000000003,9057,kind,AF,A,383866,383866,382340,383149,382341,384549,383665,383665,384549,94
90,test,1,con,1,m,Thu Feb 05 2026 13:48:48 GMT-0500 (Eastern Standard Time),392531.0,step,800,I,m,m,None,644,444.0,200.0,65,1,1974.1000000000931,390556.8999999999,9057,step,AF,A,386083,386083,384558,385366,384558,386532,385882,385882,386532,95
91,test,1,con,1,m,Thu Feb 05 2026 13:48:48 GMT-0500 (Eastern Standard Time),394463.8999999999,jacket,800,I,m,m,None,588,388.0,200.0,97,1,1925.1999999997206,392538.7000000002,9057,jacket,AF,A,388066,388066,386540,387349,386540,388465,387865,387865,388465,96
92,test,1,con,1,m,Thu Feb 05 2026 13:48:48 GMT-0500 (Eastern Standard Time),396448.2000000002,step,1000,I,m,m,None,447,247.0,200.0,67,1,1978.7000000001863,394469.5,9057,step,AF,A,390199,390199,388471,389484,388471,390449,389998,389998,390449,97
93,test,1,inc,1,m,Thu Feb 05 2026 13:48:48 GMT-0500 (Eastern Standard Time),398497.3999999999,elated,800,I,m,m,None,705,505.0,200.0,109,1,2042.0,396455.3999999999,9057,napkin,AF,A,391982,391982,390456,391266,390457,392499,391782,391782,392498,98
94,test,1,inc,1,z,Thu Feb 05 2026 13:48:48 GMT-0500 (Eastern Standard Time),400680.8999999999,film,1100,I,z,z,None,545,346.0,199.0,48,1,2178.5999999996275,398502.3000000003,9057,hate,AF,A,394333,394333,392503,393616,392504,394682,394133,394133,394682,99
94,test,1,inc,0,z,Thu Feb 05 2026 13:48:48 GMT-0500 (Eastern Standard Time),402847.6000000001,film,1100,I,m,m,None,522,323.0,199.0,16,1,2153.7999999998137,400693.8000000003,9057,kind,AF,A,396516,396516,394695,395799,394696,396849,396316,396316,396849,100
95,test,1,con,1,m,Thu Feb 05 2026 13:48:48 GMT-0500 (Eastern Standard Time),404747.5,bell,900,I,m,m,None,460,261.0,199.0,82,1,1891.6000000000931,402855.8999999999,9057,bell,AF,A,398482,398482,396857,397766,396857,398749,398283,398283,398749,101
96,test,1,con,1,z,Thu Feb 05 2026 13:48:48 GMT-0500 (Eastern Standard Time),406897.3000000003,elated,1000,I,z,z,None,604,404.0,200.0,3,1,2141.5,404755.8000000003,9057,elated,AF,A,400482,400483,398757,399765,398757,400898,400282,400282,400898,102
97,test,1,con,1,m,Thu Feb 05 2026 13:48:48 GMT-0500 (Eastern Standard Time),409031.0,step,900,I,m,m,None,700,500.0,200.0,66,1,2129.100000000093,406901.8999999999,9057,step,AF,A,402532,402532,400903,401815,400903,403032,402332,402332,403032,103
98,test,1,inc,1,m,Thu Feb 05 2026 13:48:48 GMT-0500 (Eastern Standard Time),411281.0,hate,1100,I,m,m,None,612,413.0,199.0,80,1,2237.1999999997206,409043.8000000003,9057,rock,AF,A,404866,404866,403045,404149,403045,405282,404666,404666,405282,104
99,test,1,con,1,z,Thu Feb 05 2026 13:48:48 GMT-0500 (Eastern Standard Time),413397.7000000002,temper,1000,I,z,z,None,566,367.0,199.0,59,1,2108.5,411289.2000000002,9057,temper,AF,A,407015,407016,405290,406299,405291,407399,406816,406816,407399,105
100,test,1,inc,1,z,Thu Feb 05 2026 13:48:48 GMT-0500 (Eastern Standard Time),415464.5,jacket,800,I,z,z,None,722,522.0,200.0,61,1,2057.0,413407.5,9057,temper,AF,A,408933,408933,407409,408216,407409,409466,408732,408732,409465,106
101,test,1,con,1,z,Thu Feb 05 2026 13:48:48 GMT-0500 (Eastern Standard Time),417614.8999999999,kind,1100,I,z,z,None,515,315.0,200.0,12,1,2141.5,415473.3999999999,9057,kind,AF,A,411299,411299,409474,410582,409475,411616,411099,411099,411616,107
102,test,1,con,1,m,Thu Feb 05 2026 13:48:48 GMT-0500 (Eastern Standard Time),419964.5,film,1100,I,m,m,None,702,502.0,200.0,92,1,2339.6999999997206,417624.8000000003,9057,film,AF,A,413449,413449,411626,412733,411626,413966,413249,413249,413965,108
103,test,1,inc,1,m,Thu Feb 05 2026 13:48:48 GMT-0500 (Eastern Standard Time),421964.3000000003,kind,900,I,m,m,None,552,352.0,200.0,78,1,1990.6000000000931,419973.7000000002,9057,rock,AF,A,415599,415599,413975,414882,413975,415965,415399,415399,415965,109
104,test,1,inc,1,m,Thu Feb 05 2026 13:48:48 GMT-0500 (Eastern Standard Time),424230.8999999999,temper,1000,I,m,m,None,732,532.0,200.0,103,1,2258.7999999998137,421972.1000000001,9057,jacket,AF,A,417699,417699,415973,416982,415973,418232,417499,417499,418232,110
105,test,1,inc,1,z,Thu Feb 05 2026 13:48:48 GMT-0500 (Eastern Standard Time),426230.8000000003,jacket,800,I,z,z,None,664,465.0,199.0,29,1,1991.0,424239.8000000003,9057,friend,AF,A,419766,419766,418241,419049,418241,420232,419566,419566,420232,111
106,test,1,inc,1,m,Thu Feb 05 2026 13:48:48 GMT-0500 (Eastern Standard Time),428764.3999999999,kind,900,I,m,m,None,1092,893.0,199.0,94,1,2523.0,426241.3999999999,9057,film,AF,A,421866,421866,420242,421149,420243,422765,421666,421666,422765,112
107,test,1,inc,1,z,Thu Feb 05 2026 13:48:48 GMT-0500 (Eastern Standard Time),430964.3000000003,bell,1000,I,z,z,None,660,460.0,200.0,47,1,2189.4000000003725,428774.8999999999,9057,hate,AF,A,424499,424499,422776,423782,422776,424965,424299,424299,424965,113
108,test,1,con,1,m,Thu Feb 05 2026 13:48:48 GMT-0500 (Eastern Standard Time),433281.0,rock,1100,I,m,m,None,680,480.0,200.0,76,1,2309.0,430972.0,9057,rock,AF,A,426799,426799,424973,426083,424973,427282,426599,426599,427282,114
109,test,1,inc,1,m,Thu Feb 05 2026 13:48:48 GMT-0500 (Eastern Standard Time),435248.3000000003,rage,800,I,m,m,None,629,430.0,199.0,93,1,1954.6000000000931,433293.7000000002,9057,film,AF,A,428816,428816,427295,428099,427295,429249,428616,428616,429249,115
110,test,1,inc,1,z,Thu Feb 05 2026 13:48:48 GMT-0500 (Eastern Standard Time),437397.8000000003,bell,1000,I,z,z,None,609,409.0,200.0,55,1,2143.3000000002794,435254.5,9057,rage,AF,A,430982,430982,429256,430265,429256,431399,430782,430782,431399,116
111,test,1,con,1,m,Thu Feb 05 2026 13:48:48 GMT-0500 (Eastern Standard Time),439614.6000000001,step,1100,I,m,m,None,583,383.0,200.0,68,1,2208.399999999907,437406.2000000002,9057,step,AF,A,433232,433232,431407,432516,431408,433616,433032,433032,433616,117
112,test,1,con,1,z,Thu Feb 05 2026 13:48:48 GMT-0500 (Eastern Standard Time),441680.8999999999,rage,1100,I,z,z,None,422,222.0,200.0,52,1,2058.0,439622.8999999999,9057,rage,AF,A,435449,435449,433624,434732,433624,435682,435249,435249,435682,118
113,test,1,inc,1,z,Thu Feb 05 2026 13:48:48 GMT-0500 (Eastern Standard Time),443897.6000000001,remote,1000,I,z,z,None,670,471.0,199.0,63,1,2207.600000000093,441690.0,9057,temper,AF,A,437416,437416,435691,436699,435691,437899,437216,437216,437899,119
114,test,1,inc,1,m,Thu Feb 05 2026 13:48:48 GMT-0500 (Eastern Standard Time),445997.8000000003,elated,800,I,m,m,None,749,550.0,199.0,117,1,2088.9000000003725,443908.8999999999,9057,remote,AF,A,439433,439433,437910,438716,437910,439999,439232,439233,439999,120
115,test,1,inc,1,z,Thu Feb 05 2026 13:48:48 GMT-0500 (Eastern Standard Time),448015.3000000003,rock,900,I,z,z,None,575,375.0,200.0,14,1,2010.2000000001863,446005.1000000001,9057,kind,AF,A,441632,441632,440006,440916,440006,442016,441432,441432,442016,121
116,test,1,con,1,z,Thu Feb 05 2026 13:48:48 GMT-0500 (Eastern Standard Time),449897.6000000001,brutal,900,I,z,z,None,438,238.0,200.0,34,1,1869.5,448028.1000000001,9057,brutal,AF,A,443649,443649,442029,442933,442030,443899,443449,443449,443899,122
117,test,1,inc,1,z,Thu Feb 05 2026 13:48:48 GMT-0500 (Eastern Standard Time),452081.0,bell,1000,I,z,z,None,647,447.0,200.0,23,1,2175.100000000093,449905.8999999999,9057,love,AF,A,445632,445632,443907,444916,443907,446082,445432,445432,446082,123
118,test,1,inc,1,m,Thu Feb 05 2026 13:48:48 GMT-0500 (Eastern Standard Time),454164.3000000003,temper,1000,I,m,m,None,542,343.0,199.0,127,1,2075.0,452089.3000000003,9057,window,AF,A,447815,447816,446090,447099,446091,448165,447616,447616,448165,124
119,test,1,inc,1,m,Thu Feb 05 2026 13:48:48 GMT-0500 (Eastern Standard Time),456314.3000000003,love,1000,I,m,m,None,611,412.0,199.0,71,1,2142.100000000093,454172.2000000002,9057,step,AF,A,449899,449899,448173,449182,448174,450315,449699,449699,450315,125
120,test,1,con,1,m,Thu Feb 05 2026 13:48:48 GMT-0500 (Eastern Standard Time),458381.1000000001,remote,1100,I,m,m,None,426,226.0,200.0,116,1,2059.2000000001863,456321.8999999999,9057,remote,AF,A,452149,452149,450323,451432,450323,452382,451949,451949,452382,126
120,test,1,con,0,z,Thu Feb 05 2026 13:48:48 GMT-0500 (Eastern Standard Time),460314.3999999999,elated,900,I,m,m,None,494,295.0,199.0,2,1,1924.1999999997206,458390.2000000002,9057,elated,AF,A,454016,454016,452391,453299,452392,454315,453816,453816,454315,127
121,test,1,inc,1,m,Thu Feb 05 2026 13:48:48 GMT-0500 (Eastern Standard Time),462581.1000000001,friend,1100,I,m,m,None,626,426.0,200.0,120,1,2256.2999999998137,460324.8000000003,9057,remote,AF,A,456149,456149,454326,455432,454326,456582,455949,455949,456582,128
