acc_sum,block,block_c,change,condition,correct,correct_response,datetime,endtime,face,project,response,response_time,row_sel,session_number,start_end,starttime,subject_id,task,task_vers,trial
0,prac,1,,1-Back,,,Fri May 29 2026 14:22:18 GMT-0500 (Central Daylight Time),,124_o_f_d_a.png,I,space,2281,1,2,,,8100,VNB,A,0
1,prac,1,0.0,1-Back,1.0,m,Fri May 29 2026 14:22:18 GMT-0500 (Central Daylight Time),133570.5,071_y_f_n_a.png,I,m,969,2,2,1759.9000000059605,131810.59999999404,8100,VNB,A,1
2,prac,1,0.0,1-Back,1.0,m,Fri May 29 2026 14:22:18 GMT-0500 (Central Daylight Time),135219.39999997616,165_m_m_h_a.png,I,m,839,3,2,1644.0,133575.39999997616,8100,VNB,A,2
3,prac,1,0.0,1-Back,1.0,m,Fri May 29 2026 14:22:18 GMT-0500 (Central Daylight Time),136802.5,109_y_m_d_a.png,I,m,772,4,2,1573.2000000178814,135229.29999998212,8100,VNB,A,3
4,prac,1,0.0,1-Back,1.0,m,Fri May 29 2026 14:22:18 GMT-0500 (Central Daylight Time),138434.79999998212,124_o_f_n_a.png,I,m,812,5,2,1628.0,136806.79999998212,8100,VNB,A,4
4,prac,1,1.0,1-Back,0.0,z,Fri May 29 2026 14:22:18 GMT-0500 (Central Daylight Time),140749.19999998808,109_y_m_n_a.png,I,m,1509,6,2,2305.199999988079,138444.0,8100,VNB,A,5
5,prac,1,0.0,1-Back,1.0,m,Fri May 29 2026 14:22:18 GMT-0500 (Central Daylight Time),142449.0,039_o_m_h_a.png,I,m,902,7,2,1695.300000011921,140753.69999998808,8100,VNB,A,6
6,prac,1,0.0,1-Back,1.0,m,Fri May 29 2026 14:22:18 GMT-0500 (Central Daylight Time),144517.79999998212,139_m_f_d_a.png,I,m,1260,8,2,2059.699999988079,142458.09999999404,8100,VNB,A,7
6,prac,1,1.0,1-Back,0.0,z,Fri May 29 2026 14:22:18 GMT-0500 (Central Daylight Time),146549.39999997616,071_y_f_d_a.png,I,m,1242,9,2,2027.2999999821186,144522.09999999404,8100,VNB,A,8
6,prac,1,0.0,1-Back,0.0,m,Fri May 29 2026 14:22:18 GMT-0500 (Central Daylight Time),149348.39999997616,165_m_m_n_a.png,I,None,2001,10,2,2788.399999976158,146560.0,8100,VNB,A,9
7,prac,1,0.0,1-Back,1.0,m,Fri May 29 2026 14:22:18 GMT-0500 (Central Daylight Time),150846.79999998212,124_o_f_h_a.png,I,m,702,11,2,1494.4000000059605,149352.39999997616,8100,VNB,A,10
8,prac,1,0.0,1-Back,1.0,m,Fri May 29 2026 14:22:18 GMT-0500 (Central Daylight Time),152746.09999999404,109_y_m_d_a.png,I,m,1110,12,2,1891.2000000178814,150854.89999997616,8100,VNB,A,11
0,prac,2,0.0,1-Back,,,Fri May 29 2026 14:22:18 GMT-0500 (Central Daylight Time),152746.09999999404,124_o_f_d_a.png,I,a,3202,1,2,1891.2000000178814,150854.89999997616,8100,VNB,A,0
1,prac,2,0.0,1-Back,1.0,m,Fri May 29 2026 14:22:18 GMT-0500 (Central Daylight Time),161176.69999998808,071_y_f_n_a.png,I,m,1375,2,2,2179.5999999940395,158997.09999999404,8100,VNB,A,1
2,prac,2,0.0,1-Back,1.0,m,Fri May 29 2026 14:22:18 GMT-0500 (Central Daylight Time),163225.89999997616,165_m_m_h_a.png,I,m,1247,3,2,2043.5999999940395,161182.29999998212,8100,VNB,A,2
3,prac,2,0.0,1-Back,1.0,m,Fri May 29 2026 14:22:18 GMT-0500 (Central Daylight Time),164925.59999999404,109_y_m_d_a.png,I,m,920,4,2,1690.800000011921,163234.79999998212,8100,VNB,A,3
4,prac,2,0.0,1-Back,1.0,m,Fri May 29 2026 14:22:18 GMT-0500 (Central Daylight Time),167024.79999998212,124_o_f_n_a.png,I,m,1269,5,2,2092.0999999940395,164932.69999998808,8100,VNB,A,4
4,prac,2,1.0,1-Back,0.0,z,Fri May 29 2026 14:22:18 GMT-0500 (Central Daylight Time),169224.89999997616,109_y_m_n_a.png,I,m,1393,6,2,2192.199999988079,167032.69999998808,8100,VNB,A,5
5,prac,2,0.0,1-Back,1.0,m,Fri May 29 2026 14:22:18 GMT-0500 (Central Daylight Time),171606.79999998212,039_o_m_h_a.png,I,m,1585,7,2,2375.0,169231.79999998212,8100,VNB,A,6
6,prac,2,0.0,1-Back,1.0,m,Fri May 29 2026 14:22:18 GMT-0500 (Central Daylight Time),173956.0,139_m_f_d_a.png,I,m,1536,8,2,2341.2000000178814,171614.79999998212,8100,VNB,A,7
7,prac,2,1.0,1-Back,1.0,z,Fri May 29 2026 14:22:18 GMT-0500 (Central Daylight Time),175722.0,071_y_f_d_a.png,I,z,964,9,2,1758.9000000059605,173963.09999999404,8100,VNB,A,8
8,prac,2,0.0,1-Back,1.0,m,Fri May 29 2026 14:22:18 GMT-0500 (Central Daylight Time),177404.69999998808,165_m_m_n_a.png,I,m,875,10,2,1673.800000011921,175730.89999997616,8100,VNB,A,9
9,prac,2,0.0,1-Back,1.0,m,Fri May 29 2026 14:22:18 GMT-0500 (Central Daylight Time),179170.79999998212,124_o_f_h_a.png,I,m,941,11,2,1758.699999988079,177412.09999999404,8100,VNB,A,10
10,prac,2,0.0,1-Back,1.0,m,Fri May 29 2026 14:22:18 GMT-0500 (Central Daylight Time),180720.59999999404,109_y_m_d_a.png,I,m,766,12,2,1539.7000000178814,179180.89999997616,8100,VNB,A,11
0,test,1,0.0,1-Back,,,Fri May 29 2026 14:22:18 GMT-0500 (Central Daylight Time),180720.59999999404,071_y_f_d_a.png,I,space,1734,1,2,1539.7000000178814,179180.89999997616,8100,VNB,A,0
1,test,1,0.0,1-Back,1.0,m,Fri May 29 2026 14:22:18 GMT-0500 (Central Daylight Time),193101.39999997616,139_m_f_n_a.png,I,m,834,2,2,1857.199999988079,191244.19999998808,8100,VNB,A,1
2,test,1,0.0,1-Back,1.0,m,Fri May 29 2026 14:22:18 GMT-0500 (Central Daylight Time),194784.5,039_o_m_h_a.png,I,m,661,3,2,1679.4000000059605,193105.09999999404,8100,VNB,A,2
3,test,1,1.0,1-Back,1.0,z,Fri May 29 2026 14:22:18 GMT-0500 (Central Daylight Time),196414.79999998212,165_m_m_h_a.png,I,z,612,4,2,1627.0999999940395,194787.69999998808,8100,VNB,A,3
4,test,1,0.0,1-Back,1.0,m,Fri May 29 2026 14:22:18 GMT-0500 (Central Daylight Time),198231.89999997616,124_o_f_n_a.png,I,m,788,5,2,1813.2999999821186,196418.59999999404,8100,VNB,A,4
5,test,1,0.0,1-Back,1.0,m,Fri May 29 2026 14:22:18 GMT-0500 (Central Daylight Time),200131.59999999404,109_y_m_d_a.png,I,m,868,6,2,1896.5999999940395,198235.0,8100,VNB,A,5
5,test,1,1.0,1-Back,0.0,z,Fri May 29 2026 14:22:18 GMT-0500 (Central Daylight Time),201913.09999999404,139_m_f_d_a.png,I,m,758,7,2,1776.9000000059605,200136.19999998808,8100,VNB,A,6
6,test,1,0.0,1-Back,1.0,m,Fri May 29 2026 14:22:18 GMT-0500 (Central Daylight Time),203929.19999998808,071_y_f_h_a.png,I,m,992,8,2,2013.699999988079,201915.5,8100,VNB,A,7
7,test,1,0.0,1-Back,1.0,m,Fri May 29 2026 14:22:18 GMT-0500 (Central Daylight Time),205562.19999998808,039_o_m_n_a.png,I,m,612,9,2,1630.199999988079,203932.0,8100,VNB,A,8
8,test,1,0.0,1-Back,1.0,m,Fri May 29 2026 14:22:18 GMT-0500 (Central Daylight Time),207261.69999998808,109_y_m_h_a.png,I,m,680,10,2,1697.5,205564.19999998808,8100,VNB,A,9
9,test,1,0.0,1-Back,1.0,m,Fri May 29 2026 14:22:18 GMT-0500 (Central Daylight Time),209013.29999998212,039_o_m_d_a.png,I,m,717,11,2,1748.7999999821186,207264.5,8100,VNB,A,10
10,test,1,1.0,1-Back,1.0,z,Fri May 29 2026 14:22:18 GMT-0500 (Central Daylight Time),210560.39999997616,124_o_f_d_a.png,I,z,517,12,2,1544.5,209015.89999997616,8100,VNB,A,11
11,test,1,0.0,1-Back,1.0,m,Fri May 29 2026 14:22:18 GMT-0500 (Central Daylight Time),212296.39999997616,165_m_m_n_a.png,I,m,701,13,2,1731.2999999821186,210565.09999999404,8100,VNB,A,12
12,test,1,1.0,1-Back,1.0,z,Fri May 29 2026 14:22:18 GMT-0500 (Central Daylight Time),214194.39999997616,071_y_f_n_a.png,I,z,878,14,2,1894.7999999821186,212299.59999999404,8100,VNB,A,13
13,test,1,0.0,1-Back,1.0,m,Fri May 29 2026 14:22:18 GMT-0500 (Central Daylight Time),216242.59999999404,139_m_f_h_a.png,I,m,1017,15,2,2044.4000000059605,214198.19999998808,8100,VNB,A,14
13,test,1,0.0,1-Back,0.0,m,Fri May 29 2026 14:22:18 GMT-0500 (Central Daylight Time),218159.5,165_m_m_d_a.png,I,z,882,16,2,1913.2000000178814,216246.29999998212,8100,VNB,A,15
14,test,1,0.0,1-Back,1.0,m,Fri May 29 2026 14:22:18 GMT-0500 (Central Daylight Time),220691.79999998212,109_y_m_n_a.png,I,m,1509,17,2,2528.5999999940395,218163.19999998808,8100,VNB,A,16
15,test,1,0.0,1-Back,1.0,m,Fri May 29 2026 14:22:18 GMT-0500 (Central Daylight Time),222891.5,124_o_f_h_a.png,I,m,1167,18,2,2196.600000023842,220694.89999997616,8100,VNB,A,17
0,test,2,0.0,1-Back,,,Fri May 29 2026 14:22:18 GMT-0500 (Central Daylight Time),222891.5,109_y_m_n_a.png,I,space,1095,1,2,2196.600000023842,220694.89999997616,8100,VNB,A,0
1,test,2,0.0,1-Back,1.0,m,Fri May 29 2026 14:22:18 GMT-0500 (Central Daylight Time),227872.5,071_y_f_h_a.png,I,m,836,2,2,1863.2000000178814,226009.29999998212,8100,VNB,A,1
2,test,2,1.0,1-Back,1.0,m,Fri May 29 2026 14:22:18 GMT-0500 (Central Daylight Time),229922.29999998212,039_o_m_n_a.png,I,m,1019,3,2,2046.4000000059605,227875.89999997616,8100,VNB,A,2
3,test,2,0.0,1-Back,1.0,m,Fri May 29 2026 14:22:18 GMT-0500 (Central Daylight Time),232086.89999997616,139_m_f_d_a.png,I,m,1135,4,2,2161.199999988079,229925.69999998808,8100,VNB,A,3
4,test,2,0.0,1-Back,1.0,z,Fri May 29 2026 14:22:18 GMT-0500 (Central Daylight Time),233936.69999998808,165_m_m_d_a.png,I,z,826,5,2,1847.5,232089.19999998808,8100,VNB,A,4
5,test,2,0.0,1-Back,1.0,m,Fri May 29 2026 14:22:18 GMT-0500 (Central Daylight Time),235752.79999998212,109_y_m_h_a.png,I,m,785,6,2,1812.4000000059605,233940.39999997616,8100,VNB,A,5
6,test,2,1.0,1-Back,1.0,z,Fri May 29 2026 14:22:18 GMT-0500 (Central Daylight Time),237619.19999998808,124_o_f_h_a.png,I,z,840,7,2,1862.5999999940395,235756.59999999404,8100,VNB,A,6
7,test,2,0.0,1-Back,1.0,m,Fri May 29 2026 14:22:18 GMT-0500 (Central Daylight Time),239302.5,139_m_f_n_a.png,I,m,655,8,2,1680.7000000178814,237621.79999998212,8100,VNB,A,7
8,test,2,0.0,1-Back,1.0,m,Fri May 29 2026 14:22:18 GMT-0500 (Central Daylight Time),241135.5,071_y_f_d_a.png,I,m,811,9,2,1829.4000000059605,239306.09999999404,8100,VNB,A,8
9,test,2,0.0,1-Back,1.0,m,Fri May 29 2026 14:22:18 GMT-0500 (Central Daylight Time),242767.59999999404,165_m_m_n_a.png,I,m,604,10,2,1629.5,241138.09999999404,8100,VNB,A,9
10,test,2,1.0,1-Back,1.0,m,Fri May 29 2026 14:22:18 GMT-0500 (Central Daylight Time),244516.39999997616,139_m_f_h_a.png,I,m,715,11,2,1745.5,242770.89999997616,8100,VNB,A,10
11,test,2,0.0,1-Back,1.0,z,Fri May 29 2026 14:22:18 GMT-0500 (Central Daylight Time),246216.5,039_o_m_h_a.png,I,z,677,12,2,1697.800000011921,244518.69999998808,8100,VNB,A,11
12,test,2,0.0,1-Back,1.0,m,Fri May 29 2026 14:22:18 GMT-0500 (Central Daylight Time),247899.09999999404,109_y_m_d_a.png,I,m,658,13,2,1678.0999999940395,246221.0,8100,VNB,A,12
13,test,2,0.0,1-Back,1.0,m,Fri May 29 2026 14:22:18 GMT-0500 (Central Daylight Time),249815.69999998808,124_o_f_n_a.png,I,m,886,14,2,1913.0,247902.69999998808,8100,VNB,A,13
14,test,2,0.0,1-Back,1.0,z,Fri May 29 2026 14:22:18 GMT-0500 (Central Daylight Time),251780.69999998808,071_y_f_n_a.png,I,z,933,15,2,1961.5999999940395,249819.09999999404,8100,VNB,A,14
15,test,2,1.0,1-Back,1.0,m,Fri May 29 2026 14:22:18 GMT-0500 (Central Daylight Time),253597.69999998808,165_m_m_h_a.png,I,m,797,16,2,1812.5,251785.19999998808,8100,VNB,A,15
15,test,2,0.0,1-Back,0.0,m,Fri May 29 2026 14:22:18 GMT-0500 (Central Daylight Time),255314.29999998212,124_o_f_d_a.png,I,z,693,17,2,1713.0999999940395,253601.19999998808,8100,VNB,A,16
16,test,2,1.0,1-Back,1.0,z,Fri May 29 2026 14:22:18 GMT-0500 (Central Daylight Time),257062.5,039_o_m_d_a.png,I,z,721,18,2,1745.4000000059605,255317.09999999404,8100,VNB,A,17
0,test,3,1.0,1-Back,,,Fri May 29 2026 14:22:18 GMT-0500 (Central Daylight Time),257062.5,124_o_f_h_a.png,I,space,1151,1,2,1745.4000000059605,255317.09999999404,8100,VNB,A,0
1,test,3,0.0,1-Back,1.0,m,Fri May 29 2026 14:22:18 GMT-0500 (Central Daylight Time),261994.19999998808,139_m_f_d_a.png,I,m,683,2,2,1708.699999988079,260285.5,8100,VNB,A,1
2,test,3,1.0,1-Back,1.0,m,Fri May 29 2026 14:22:18 GMT-0500 (Central Daylight Time),263776.89999997616,165_m_m_n_a.png,I,m,759,3,2,1780.5999999940395,261996.29999998212,8100,VNB,A,2
3,test,3,0.0,1-Back,1.0,z,Fri May 29 2026 14:22:18 GMT-0500 (Central Daylight Time),265427.5,124_o_f_n_a.png,I,z,617,4,2,1647.2000000178814,263780.2999999821,8100,VNB,A,3
4,test,3,1.0,1-Back,1.0,m,Fri May 29 2026 14:22:18 GMT-0500 (Central Daylight Time),267276.89999997616,039_o_m_d_a.png,I,m,815,5,2,1845.2999999821186,265431.59999999404,8100,VNB,A,4
5,test,3,0.0,1-Back,1.0,m,Fri May 29 2026 14:22:18 GMT-0500 (Central Daylight Time),268944.2999999821,071_y_f_h_a.png,I,m,646,6,2,1664.9000000059605,267279.39999997616,8100,VNB,A,5
6,test,3,0.0,1-Back,1.0,z,Fri May 29 2026 14:22:18 GMT-0500 (Central Daylight Time),270426.5,109_y_m_h_a.png,I,z,459,7,2,1476.5,268950.0,8100,VNB,A,6
7,test,3,0.0,1-Back,1.0,m,Fri May 29 2026 14:22:18 GMT-0500 (Central Daylight Time),272127.09999999404,139_m_f_n_a.png,I,m,669,8,2,1698.0,270429.09999999404,8100,VNB,A,7
8,test,3,0.0,1-Back,1.0,m,Fri May 29 2026 14:22:18 GMT-0500 (Central Daylight Time),273957.59999999404,071_y_f_d_a.png,I,m,803,9,2,1827.5,272130.09999999404,8100,VNB,A,8
9,test,3,1.0,1-Back,1.0,m,Fri May 29 2026 14:22:18 GMT-0500 (Central Daylight Time),275573.59999999404,039_o_m_n_a.png,I,m,595,10,2,1607.800000011921,273965.7999999821,8100,VNB,A,9
10,test,3,0.0,1-Back,1.0,m,Fri May 29 2026 14:22:18 GMT-0500 (Central Daylight Time),277256.5,165_m_m_h_a.png,I,m,660,11,2,1679.4000000059605,275577.09999999404,8100,VNB,A,10
11,test,3,0.0,1-Back,1.0,z,Fri May 29 2026 14:22:18 GMT-0500 (Central Daylight Time),278806.89999997616,139_m_f_h_a.png,I,z,521,12,2,1547.2999999821186,277259.59999999404,8100,VNB,A,11
12,test,3,1.0,1-Back,1.0,m,Fri May 29 2026 14:22:18 GMT-0500 (Central Daylight Time),280424.5,124_o_f_d_a.png,I,m,599,13,2,1609.1000000238419,278815.39999997616,8100,VNB,A,12
13,test,3,0.0,1-Back,1.0,z,Fri May 29 2026 14:22:18 GMT-0500 (Central Daylight Time),282287.59999999404,165_m_m_d_a.png,I,z,844,14,2,1860.7000000178814,280426.89999997616,8100,VNB,A,13
14,test,3,0.0,1-Back,1.0,m,Fri May 29 2026 14:22:18 GMT-0500 (Central Daylight Time),284188.5,109_y_m_n_a.png,I,m,876,15,2,1898.300000011921,282290.1999999881,8100,VNB,A,14
15,test,3,1.0,1-Back,1.0,m,Fri May 29 2026 14:22:18 GMT-0500 (Central Daylight Time),285853.39999997616,039_o_m_h_a.png,I,m,638,16,2,1656.5,284196.89999997616,8100,VNB,A,15
16,test,3,0.0,1-Back,1.0,m,Fri May 29 2026 14:22:18 GMT-0500 (Central Daylight Time),287671.89999997616,109_y_m_d_a.png,I,m,787,17,2,1812.5,285859.39999997616,8100,VNB,A,16
17,test,3,1.0,1-Back,1.0,m,Fri May 29 2026 14:22:18 GMT-0500 (Central Daylight Time),289402.5,071_y_f_n_a.png,I,m,708,18,2,1727.4000000059605,287675.09999999404,8100,VNB,A,17
0,test,4,1.0,1-Back,,,Fri May 29 2026 14:22:18 GMT-0500 (Central Daylight Time),289402.5,165_m_m_d_a.png,I,space,1128,1,2,1727.4000000059605,287675.09999999404,8100,VNB,A,0
1,test,4,0.0,1-Back,1.0,z,Fri May 29 2026 14:22:18 GMT-0500 (Central Daylight Time),294667.0,039_o_m_d_a.png,I,z,1092,2,2,2111.300000011921,292555.6999999881,8100,VNB,A,1
2,test,4,0.0,1-Back,1.0,m,Fri May 29 2026 14:22:18 GMT-0500 (Central Daylight Time),296300.39999997616,109_y_m_h_a.png,I,m,607,3,2,1630.2999999821186,294670.09999999404,8100,VNB,A,2
3,test,4,0.0,1-Back,1.0,m,Fri May 29 2026 14:22:18 GMT-0500 (Central Daylight Time),297949.89999997616,139_m_f_n_a.png,I,m,630,4,2,1642.5999999940395,296307.2999999821,8100,VNB,A,3
4,test,4,1.0,1-Back,1.0,m,Fri May 29 2026 14:22:18 GMT-0500 (Central Daylight Time),299648.5,124_o_f_h_a.png,I,m,675,5,2,1695.800000011921,297952.6999999881,8100,VNB,A,4
5,test,4,0.0,1-Back,1.0,m,Fri May 29 2026 14:22:18 GMT-0500 (Central Daylight Time),301382.2999999821,165_m_m_n_a.png,I,m,716,6,2,1730.0999999940395,299652.1999999881,8100,VNB,A,5
6,test,4,0.0,1-Back,1.0,m,Fri May 29 2026 14:22:18 GMT-0500 (Central Daylight Time),303248.1999999881,109_y_m_d_a.png,I,m,835,7,2,1862.0,301386.1999999881,8100,VNB,A,6
7,test,4,1.0,1-Back,1.0,z,Fri May 29 2026 14:22:18 GMT-0500 (Central Daylight Time),305230.39999997616,071_y_f_d_a.png,I,z,954,8,2,1978.0999999940395,303252.2999999821,8100,VNB,A,7
8,test,4,0.0,1-Back,1.0,m,Fri May 29 2026 14:22:18 GMT-0500 (Central Daylight Time),306980.7999999821,139_m_f_h_a.png,I,m,717,9,2,1743.7999999821186,305237.0,8100,VNB,A,8
9,test,4,0.0,1-Back,1.0,z,Fri May 29 2026 14:22:18 GMT-0500 (Central Daylight Time),308546.7999999821,039_o_m_h_a.png,I,z,532,10,2,1561.699999988079,306985.09999999404,8100,VNB,A,9
10,test,4,1.0,1-Back,1.0,m,Fri May 29 2026 14:22:18 GMT-0500 (Central Daylight Time),310178.89999997616,124_o_f_n_a.png,I,m,600,11,2,1628.8999999761581,308550.0,8100,VNB,A,10
11,test,4,0.0,1-Back,1.0,m,Fri May 29 2026 14:22:18 GMT-0500 (Central Daylight Time),312245.39999997616,139_m_f_d_a.png,I,m,1033,12,2,2061.7999999821186,310183.59999999404,8100,VNB,A,11
12,test,4,0.0,1-Back,1.0,m,Fri May 29 2026 14:22:18 GMT-0500 (Central Daylight Time),314663.59999999404,071_y_f_n_a.png,I,m,1390,13,2,2414.800000011921,312248.7999999821,8100,VNB,A,12
13,test,4,0.0,1-Back,1.0,m,Fri May 29 2026 14:22:18 GMT-0500 (Central Daylight Time),317127.89999997616,124_o_f_d_a.png,I,m,1438,14,2,2462.199999988079,314665.6999999881,8100,VNB,A,13
14,test,4,0.0,1-Back,1.0,m,Fri May 29 2026 14:22:18 GMT-0500 (Central Daylight Time),319043.6999999881,071_y_f_h_a.png,I,m,885,15,2,1910.9000000059605,317132.7999999821,8100,VNB,A,14
15,test,4,1.0,1-Back,1.0,z,Fri May 29 2026 14:22:18 GMT-0500 (Central Daylight Time),320593.6999999881,165_m_m_h_a.png,I,z,520,16,2,1547.0,319046.6999999881,8100,VNB,A,15
16,test,4,0.0,1-Back,1.0,m,Fri May 29 2026 14:22:18 GMT-0500 (Central Daylight Time),322458.5,039_o_m_n_a.png,I,m,841,17,2,1861.7000000178814,320596.7999999821,8100,VNB,A,16
17,test,4,1.0,1-Back,1.0,z,Fri May 29 2026 14:22:18 GMT-0500 (Central Daylight Time),324392.39999997616,109_y_m_n_a.png,I,z,904,18,2,1930.7999999821186,322461.59999999404,8100,VNB,A,17
0,test,5,1.0,1-Back,,,Fri May 29 2026 14:22:18 GMT-0500 (Central Daylight Time),324392.39999997616,039_o_m_n_a.png,I,space,1133,1,2,1930.7999999821186,322461.59999999404,8100,VNB,A,0
1,test,5,1.0,1-Back,1.0,m,Fri May 29 2026 14:22:18 GMT-0500 (Central Daylight Time),329673.1999999881,124_o_f_h_a.png,I,m,1085,2,2,2110.5,327562.6999999881,8100,VNB,A,1
1,test,5,0.0,1-Back,0.0,m,Fri May 29 2026 14:22:18 GMT-0500 (Central Daylight Time),332221.2999999821,109_y_m_d_a.png,I,z,1529,3,2,2545.2999999821186,329676.0,8100,VNB,A,2
2,test,5,0.0,1-Back,1.0,z,Fri May 29 2026 14:22:18 GMT-0500 (Central Daylight Time),334070.6999999881,039_o_m_d_a.png,I,z,827,4,2,1846.9000000059605,332223.7999999821,8100,VNB,A,3
3,test,5,0.0,1-Back,1.0,m,Fri May 29 2026 14:22:18 GMT-0500 (Central Daylight Time),335971.7999999821,139_m_f_h_a.png,I,m,875,5,2,1899.0999999940395,334072.6999999881,8100,VNB,A,4
4,test,5,0.0,1-Back,1.0,m,Fri May 29 2026 14:22:18 GMT-0500 (Central Daylight Time),337736.1999999881,071_y_f_n_a.png,I,m,742,6,2,1762.0,335974.1999999881,8100,VNB,A,5
5,test,5,1.0,1-Back,1.0,z,Fri May 29 2026 14:22:18 GMT-0500 (Central Daylight Time),339519.39999997616,124_o_f_n_a.png,I,z,762,7,2,1780.8999999761581,337738.5,8100,VNB,A,6
6,test,5,0.0,1-Back,1.0,m,Fri May 29 2026 14:22:18 GMT-0500 (Central Daylight Time),341503.09999999404,139_m_f_d_a.png,I,m,954,8,2,1980.5,339522.59999999404,8100,VNB,A,7
6,test,5,0.0,1-Back,0.0,m,Fri May 29 2026 14:22:18 GMT-0500 (Central Daylight Time),343218.0,109_y_m_h_a.png,I,z,690,9,2,1712.5,341505.5,8100,VNB,A,8
6,test,5,0.0,1-Back,0.0,m,Fri May 29 2026 14:22:18 GMT-0500 (Central Daylight Time),344987.0,071_y_f_d_a.png,I,z,736,10,2,1767.0,343220.0,8100,VNB,A,9
7,test,5,0.0,1-Back,1.0,m,Fri May 29 2026 14:22:18 GMT-0500 (Central Daylight Time),346567.7999999821,165_m_m_n_a.png,I,m,554,11,2,1577.7999999821186,344990.0,8100,VNB,A,10
8,test,5,1.0,1-Back,1.0,z,Fri May 29 2026 14:22:18 GMT-0500 (Central Daylight Time),348316.5,139_m_f_n_a.png,I,z,715,12,2,1745.1000000238419,346571.39999997616,8100,VNB,A,11
9,test,5,0.0,1-Back,1.0,m,Fri May 29 2026 14:22:18 GMT-0500 (Central Daylight Time),350217.2999999821,039_o_m_h_a.png,I,m,871,13,2,1897.9000000059605,348319.39999997616,8100,VNB,A,12
10,test,5,0.0,1-Back,1.0,z,Fri May 29 2026 14:22:18 GMT-0500 (Central Daylight Time),351965.09999999404,165_m_m_h_a.png,I,z,722,14,2,1744.800000011921,350220.2999999821,8100,VNB,A,13
11,test,5,1.0,1-Back,1.0,m,Fri May 29 2026 14:22:18 GMT-0500 (Central Daylight Time),353648.39999997616,124_o_f_d_a.png,I,m,661,15,2,1680.699999988079,351967.6999999881,8100,VNB,A,14
12,test,5,0.0,1-Back,1.0,m,Fri May 29 2026 14:22:18 GMT-0500 (Central Daylight Time),355447.59999999404,109_y_m_n_a.png,I,m,777,16,2,1795.9000000059605,353651.6999999881,8100,VNB,A,15
13,test,5,0.0,1-Back,1.0,m,Fri May 29 2026 14:22:18 GMT-0500 (Central Daylight Time),357131.6999999881,071_y_f_h_a.png,I,m,658,17,2,1681.0,355450.6999999881,8100,VNB,A,16
14,test,5,0.0,1-Back,1.0,m,Fri May 29 2026 14:22:18 GMT-0500 (Central Daylight Time),359181.6999999881,165_m_m_d_a.png,I,m,1023,18,2,2047.5999999940395,357134.09999999404,8100,VNB,A,17
0,prac,1,0.0,2-Back,,,Fri May 29 2026 14:22:18 GMT-0500 (Central Daylight Time),359181.6999999881,139_m_f_n_a.png,I,space,2967,1,2,2047.5999999940395,357134.09999999404,8100,VNB,A,0
0,prac,1,0.0,2-Back,,,Fri May 29 2026 14:22:18 GMT-0500 (Central Daylight Time),359181.6999999881,124_o_f_h_a.png,I,space,2967,2,2,2047.5999999940395,357134.09999999404,8100,VNB,A,0
1,prac,1,0.0,2-Back,1.0,m,Fri May 29 2026 14:22:18 GMT-0500 (Central Daylight Time),439089.39999997616,039_o_m_d_a.png,I,m,1341,3,2,2144.0,436945.39999997616,8100,VNB,A,1
2,prac,1,1.0,2-Back,1.0,z,Fri May 29 2026 14:22:18 GMT-0500 (Central Daylight Time),441037.5,165_m_m_h_a.png,I,z,1134,4,2,1941.5,439096.0,8100,VNB,A,2
2,prac,1,0.0,2-Back,0.0,m,Fri May 29 2026 14:22:18 GMT-0500 (Central Daylight Time),443154.2999999821,071_y_f_n_a.png,I,z,1318,5,2,2114.0999999940395,441040.1999999881,8100,VNB,A,3
3,prac,1,1.0,2-Back,1.0,z,Fri May 29 2026 14:22:18 GMT-0500 (Central Daylight Time),445221.2999999821,039_o_m_h_a.png,I,z,1278,6,2,2060.0999999940395,443161.1999999881,8100,VNB,A,4
3,prac,1,1.0,2-Back,0.0,z,Fri May 29 2026 14:22:18 GMT-0500 (Central Daylight Time),447302.1999999881,109_y_m_n_a.png,I,m,1270,7,2,2075.699999988079,445226.5,8100,VNB,A,5
3,prac,1,0.0,2-Back,0.0,m,Fri May 29 2026 14:22:18 GMT-0500 (Central Daylight Time),449385.59999999404,139_m_f_d_a.png,I,z,1269,8,2,2073.0,447312.59999999404,8100,VNB,A,6
3,prac,1,0.0,2-Back,0.0,m,Fri May 29 2026 14:22:18 GMT-0500 (Central Daylight Time),451384.7999999821,124_o_f_d_a.png,I,z,1171,9,2,1994.4000000059605,449390.39999997616,8100,VNB,A,7
4,prac,1,0.0,2-Back,1.0,m,Fri May 29 2026 14:22:18 GMT-0500 (Central Daylight Time),453750.1999999881,165_m_m_h_a.png,I,m,1580,10,2,2360.9000000059605,451389.2999999821,8100,VNB,A,8
4,prac,1,1.0,2-Back,0.0,z,Fri May 29 2026 14:22:18 GMT-0500 (Central Daylight Time),456065.2999999821,071_y_f_d_a.png,I,m,1515,11,2,2310.4000000059605,453754.89999997616,8100,VNB,A,9
4,prac,1,0.0,2-Back,0.0,m,Fri May 29 2026 14:22:18 GMT-0500 (Central Daylight Time),458232.0,039_o_m_n_a.png,I,z,1357,12,2,2158.7000000178814,456073.2999999821,8100,VNB,A,10
0,prac,2,0.0,2-Back,,,Fri May 29 2026 14:22:18 GMT-0500 (Central Daylight Time),458232.0,139_m_f_n_a.png,I,a,4747,1,2,2158.7000000178814,456073.2999999821,8100,VNB,A,0
0,prac,2,0.0,2-Back,,,Fri May 29 2026 14:22:18 GMT-0500 (Central Daylight Time),458232.0,124_o_f_h_a.png,I,a,4747,2,2,2158.7000000178814,456073.2999999821,8100,VNB,A,0
0,prac,2,0.0,2-Back,0.0,m,Fri May 29 2026 14:22:18 GMT-0500 (Central Daylight Time),469946.2999999821,039_o_m_d_a.png,I,z,1048,3,2,1847.5,468098.7999999821,8100,VNB,A,1
0,prac,2,1.0,2-Back,0.0,z,Fri May 29 2026 14:22:18 GMT-0500 (Central Daylight Time),472309.89999997616,165_m_m_h_a.png,I,m,1583,4,2,2354.699999988079,469955.1999999881,8100,VNB,A,2
1,prac,2,0.0,2-Back,1.0,m,Fri May 29 2026 14:22:18 GMT-0500 (Central Daylight Time),475027.59999999404,071_y_f_n_a.png,I,m,1913,5,2,2712.7000000178814,472314.89999997616,8100,VNB,A,3
2,prac,2,1.0,2-Back,1.0,z,Fri May 29 2026 14:22:18 GMT-0500 (Central Daylight Time),476926.1999999881,039_o_m_h_a.png,I,z,1102,6,2,1894.0,475032.1999999881,8100,VNB,A,4
3,prac,2,1.0,2-Back,1.0,z,Fri May 29 2026 14:22:18 GMT-0500 (Central Daylight Time),479343.5,109_y_m_n_a.png,I,z,1608,7,2,2412.800000011921,476930.6999999881,8100,VNB,A,5
4,prac,2,0.0,2-Back,1.0,m,Fri May 29 2026 14:22:18 GMT-0500 (Central Daylight Time),481159.0,139_m_f_d_a.png,I,m,1030,8,2,1808.1000000238419,479350.89999997616,8100,VNB,A,6
5,prac,2,0.0,2-Back,1.0,m,Fri May 29 2026 14:22:18 GMT-0500 (Central Daylight Time),483758.1999999881,124_o_f_d_a.png,I,m,1789,9,2,2594.5,481163.6999999881,8100,VNB,A,7
6,prac,2,0.0,2-Back,1.0,m,Fri May 29 2026 14:22:18 GMT-0500 (Central Daylight Time),485724.89999997616,165_m_m_h_a.png,I,m,1184,10,2,1961.5,483763.39999997616,8100,VNB,A,8
6,prac,2,1.0,2-Back,0.0,z,Fri May 29 2026 14:22:18 GMT-0500 (Central Daylight Time),487741.2999999821,071_y_f_d_a.png,I,m,1211,11,2,2011.9000000059605,485729.39999997616,8100,VNB,A,9
7,prac,2,0.0,2-Back,1.0,m,Fri May 29 2026 14:22:18 GMT-0500 (Central Daylight Time),489755.7999999821,039_o_m_n_a.png,I,m,1211,12,2,2006.2999999821186,487749.5,8100,VNB,A,10
0,test,1,0.0,2-Back,,,Fri May 29 2026 14:22:18 GMT-0500 (Central Daylight Time),489755.7999999821,109_y_m_h_a.png,I,space,1450,1,2,2006.2999999821186,487749.5,8100,VNB,A,0
0,test,1,0.0,2-Back,,,Fri May 29 2026 14:22:18 GMT-0500 (Central Daylight Time),489755.7999999821,124_o_f_n_a.png,I,space,1450,2,2,2006.2999999821186,487749.5,8100,VNB,A,0
1,test,1,0.0,2-Back,1.0,z,Fri May 29 2026 14:22:18 GMT-0500 (Central Daylight Time),505085.89999997616,039_o_m_h_a.png,I,z,868,3,2,1898.199999988079,503187.6999999881,8100,VNB,A,1
2,test,1,0.0,2-Back,1.0,m,Fri May 29 2026 14:22:18 GMT-0500 (Central Daylight Time),507132.7999999821,139_m_f_d_a.png,I,m,1015,4,2,2044.4000000059605,505088.39999997616,8100,VNB,A,2
2,test,1,1.0,2-Back,0.0,m,Fri May 29 2026 14:22:18 GMT-0500 (Central Daylight Time),509282.2999999821,109_y_m_n_a.png,I,z,1126,5,2,2147.2999999821186,507135.0,8100,VNB,A,3
2,test,1,0.0,2-Back,0.0,z,Fri May 29 2026 14:22:18 GMT-0500 (Central Daylight Time),511431.0,071_y_f_d_a.png,I,m,1127,6,2,2145.9000000059605,509285.09999999404,8100,VNB,A,4
3,test,1,0.0,2-Back,1.0,m,Fri May 29 2026 14:22:18 GMT-0500 (Central Daylight Time),513530.7999999821,165_m_m_h_a.png,I,m,1068,7,2,2096.2999999821186,511434.5,8100,VNB,A,5
3,test,1,1.0,2-Back,0.0,m,Fri May 29 2026 14:22:18 GMT-0500 (Central Daylight Time),515930.39999997616,071_y_f_n_a.png,I,z,1375,8,2,2395.199999988079,513535.1999999881,8100,VNB,A,6
3,test,1,0.0,2-Back,0.0,z,Fri May 29 2026 14:22:18 GMT-0500 (Central Daylight Time),518812.1999999881,124_o_f_h_a.png,I,m,1850,9,2,2878.5999999940395,515933.59999999404,8100,VNB,A,7
4,test,1,0.0,2-Back,1.0,m,Fri May 29 2026 14:22:18 GMT-0500 (Central Daylight Time),521561.39999997616,039_o_m_d_a.png,I,m,1717,10,2,2744.199999988079,518817.1999999881,8100,VNB,A,8
4,test,1,1.0,2-Back,0.0,m,Fri May 29 2026 14:22:18 GMT-0500 (Central Daylight Time),524593.8999999762,165_m_m_d_a.png,I,None,2016,11,2,3027.0,521566.89999997616,8100,VNB,A,9
5,test,1,0.0,2-Back,1.0,m,Fri May 29 2026 14:22:18 GMT-0500 (Central Daylight Time),526676.599999994,139_m_f_n_a.png,I,m,1050,12,2,2077.7000000178814,524598.8999999762,8100,VNB,A,10
6,test,1,0.0,2-Back,1.0,m,Fri May 29 2026 14:22:18 GMT-0500 (Central Daylight Time),528742.1999999881,071_y_f_h_a.png,I,m,1046,13,2,2061.300000011921,526680.8999999762,8100,VNB,A,11
7,test,1,0.0,2-Back,1.0,z,Fri May 29 2026 14:22:18 GMT-0500 (Central Daylight Time),530892.6999999881,165_m_m_n_a.png,I,z,1125,14,2,2146.0,528746.6999999881,8100,VNB,A,12
8,test,1,0.0,2-Back,1.0,m,Fri May 29 2026 14:22:18 GMT-0500 (Central Daylight Time),533057.7999999821,109_y_m_d_a.png,I,m,1142,15,2,2159.699999988079,530898.099999994,8100,VNB,A,13
8,test,1,1.0,2-Back,0.0,m,Fri May 29 2026 14:22:18 GMT-0500 (Central Daylight Time),534623.7999999821,139_m_f_h_a.png,I,z,536,16,2,1561.5999999940395,533062.1999999881,8100,VNB,A,14
8,test,1,0.0,2-Back,0.0,z,Fri May 29 2026 14:22:18 GMT-0500 (Central Daylight Time),536772.599999994,124_o_f_d_a.png,I,m,1122,17,2,2144.9000000059605,534627.6999999881,8100,VNB,A,15
9,test,1,0.0,2-Back,1.0,m,Fri May 29 2026 14:22:18 GMT-0500 (Central Daylight Time),539189.3999999762,039_o_m_n_a.png,I,m,1399,18,2,2414.399999976158,536775.0,8100,VNB,A,16
0,test,2,0.0,2-Back,,,Fri May 29 2026 14:22:18 GMT-0500 (Central Daylight Time),539189.3999999762,165_m_m_h_a.png,I,space,2525,1,2,2414.399999976158,536775.0,8100,VNB,A,0
0,test,2,0.0,2-Back,,,Fri May 29 2026 14:22:18 GMT-0500 (Central Daylight Time),539189.3999999762,071_y_f_n_a.png,I,space,2525,2,2,2414.399999976158,536775.0,8100,VNB,A,0
1,test,2,1.0,2-Back,1.0,z,Fri May 29 2026 14:22:18 GMT-0500 (Central Daylight Time),548519.599999994,124_o_f_h_a.png,I,z,693,3,2,1710.800000011921,546808.7999999821,8100,VNB,A,1
2,test,2,0.0,2-Back,1.0,m,Fri May 29 2026 14:22:18 GMT-0500 (Central Daylight Time),550537.1999999881,039_o_m_d_a.png,I,m,994,4,2,2015.5,548521.6999999881,8100,VNB,A,2
3,test,2,0.0,2-Back,1.0,m,Fri May 29 2026 14:22:18 GMT-0500 (Central Daylight Time),553201.7999999821,139_m_f_d_a.png,I,m,1643,5,2,2662.5,550539.2999999821,8100,VNB,A,3
4,test,2,0.0,2-Back,1.0,m,Fri May 29 2026 14:22:18 GMT-0500 (Central Daylight Time),555134.099999994,109_y_m_h_a.png,I,m,904,6,2,1929.2000000178814,553204.8999999762,8100,VNB,A,4
5,test,2,0.0,2-Back,1.0,m,Fri May 29 2026 14:22:18 GMT-0500 (Central Daylight Time),557417.0,124_o_f_n_a.png,I,m,1251,7,2,2279.0,555138.0,8100,VNB,A,5
5,test,2,1.0,2-Back,0.0,z,Fri May 29 2026 14:22:18 GMT-0500 (Central Daylight Time),560050.099999994,039_o_m_h_a.png,I,m,1600,8,2,2629.300000011921,557420.7999999821,8100,VNB,A,6
5,test,2,0.0,2-Back,0.0,m,Fri May 29 2026 14:22:18 GMT-0500 (Central Daylight Time),562014.8999999762,071_y_f_d_a.png,I,z,945,9,2,1960.3999999761581,560054.5,8100,VNB,A,7
6,test,2,0.0,2-Back,1.0,m,Fri May 29 2026 14:22:18 GMT-0500 (Central Daylight Time),564413.7999999821,109_y_m_d_a.png,I,m,1371,10,2,2395.199999988079,562018.599999994,8100,VNB,A,8
7,test,2,0.0,2-Back,1.0,m,Fri May 29 2026 14:22:18 GMT-0500 (Central Daylight Time),566963.599999994,165_m_m_n_a.png,I,m,1524,11,2,2547.9000000059605,564415.6999999881,8100,VNB,A,9
7,test,2,0.0,2-Back,0.0,m,Fri May 29 2026 14:22:18 GMT-0500 (Central Daylight Time),568963.8999999762,139_m_f_h_a.png,I,z,968,12,2,1995.5,566968.3999999762,8100,VNB,A,10
7,test,2,1.0,2-Back,0.0,z,Fri May 29 2026 14:22:18 GMT-0500 (Central Daylight Time),570995.1999999881,039_o_m_n_a.png,I,m,1015,13,2,2028.0999999940395,568967.099999994,8100,VNB,A,11
8,test,2,0.0,2-Back,1.0,m,Fri May 29 2026 14:22:18 GMT-0500 (Central Daylight Time),573045.2999999821,124_o_f_d_a.png,I,m,1030,14,2,2047.5,570997.7999999821,8100,VNB,A,12
8,test,2,0.0,2-Back,0.0,m,Fri May 29 2026 14:22:18 GMT-0500 (Central Daylight Time),574678.0,071_y_f_h_a.png,I,z,606,15,2,1629.4000000059605,573048.599999994,8100,VNB,A,13
8,test,2,0.0,2-Back,0.0,z,Fri May 29 2026 14:22:18 GMT-0500 (Central Daylight Time),577646.099999994,165_m_m_d_a.png,I,m,1935,16,2,2965.300000011921,574680.7999999821,8100,VNB,A,14
9,test,2,0.0,2-Back,1.0,m,Fri May 29 2026 14:22:18 GMT-0500 (Central Daylight Time),580325.6999999881,109_y_m_n_a.png,I,m,1662,17,2,2676.4000000059605,577649.2999999821,8100,VNB,A,15
10,test,2,1.0,2-Back,1.0,m,Fri May 29 2026 14:22:18 GMT-0500 (Central Daylight Time),582492.5,139_m_f_n_a.png,I,m,1135,18,2,2164.600000023842,580327.8999999762,8100,VNB,A,16
0,test,3,1.0,2-Back,,,Fri May 29 2026 14:22:18 GMT-0500 (Central Daylight Time),582492.5,039_o_m_n_a.png,I,space,902,1,2,2164.600000023842,580327.8999999762,8100,VNB,A,0
0,test,3,1.0,2-Back,,,Fri May 29 2026 14:22:18 GMT-0500 (Central Daylight Time),582492.5,124_o_f_d_a.png,I,space,902,2,2,2164.600000023842,580327.8999999762,8100,VNB,A,0
1,test,3,0.0,2-Back,1.0,m,Fri May 29 2026 14:22:18 GMT-0500 (Central Daylight Time),590272.7999999821,071_y_f_h_a.png,I,m,809,3,2,1827.199999988079,588445.599999994,8100,VNB,A,1
1,test,3,0.0,2-Back,0.0,z,Fri May 29 2026 14:22:18 GMT-0500 (Central Daylight Time),592773.1999999881,139_m_f_d_a.png,I,m,1471,4,2,2496.800000011921,590276.3999999762,8100,VNB,A,2
1,test,3,1.0,2-Back,0.0,m,Fri May 29 2026 14:22:18 GMT-0500 (Central Daylight Time),594805.7999999821,109_y_m_n_a.png,I,z,1000,5,2,2029.9000000059605,592775.8999999762,8100,VNB,A,3
1,test,3,0.0,2-Back,0.0,m,Fri May 29 2026 14:22:18 GMT-0500 (Central Daylight Time),597838.1999999881,039_o_m_h_a.png,I,None,2015,6,2,3028.9000000059605,594809.2999999821,8100,VNB,A,4
1,test,3,0.0,2-Back,0.0,z,Fri May 29 2026 14:22:18 GMT-0500 (Central Daylight Time),600005.8999999762,071_y_f_n_a.png,I,m,1134,7,2,2162.0,597843.8999999762,8100,VNB,A,5
2,test,3,1.0,2-Back,1.0,m,Fri May 29 2026 14:22:18 GMT-0500 (Central Daylight Time),602120.099999994,165_m_m_d_a.png,I,m,1097,8,2,2111.0999999940395,600009.0,8100,VNB,A,6
2,test,3,0.0,2-Back,0.0,m,Fri May 29 2026 14:22:18 GMT-0500 (Central Daylight Time),604285.599999994,109_y_m_d_a.png,I,z,1134,9,2,2162.5999999940395,602123.0,8100,VNB,A,7
3,test,3,0.0,2-Back,1.0,m,Fri May 29 2026 14:22:18 GMT-0500 (Central Daylight Time),606934.2999999821,124_o_f_h_a.png,I,m,1622,10,2,2646.5,604287.7999999821,8100,VNB,A,8
4,test,3,1.0,2-Back,1.0,m,Fri May 29 2026 14:22:18 GMT-0500 (Central Daylight Time),609534.8999999762,139_m_f_n_a.png,I,m,1567,11,2,2597.5,606937.3999999762,8100,VNB,A,9
5,test,3,1.0,2-Back,1.0,z,Fri May 29 2026 14:22:18 GMT-0500 (Central Daylight Time),611700.2999999821,165_m_m_h_a.png,I,z,1135,12,2,2161.699999988079,609538.599999994,8100,VNB,A,10
6,test,3,0.0,2-Back,1.0,m,Fri May 29 2026 14:22:18 GMT-0500 (Central Daylight Time),613784.099999994,071_y_f_d_a.png,I,m,1065,13,2,2080.300000011921,611703.7999999821,8100,VNB,A,11
7,test,3,0.0,2-Back,1.0,m,Fri May 29 2026 14:22:18 GMT-0500 (Central Daylight Time),615898.7999999821,124_o_f_n_a.png,I,m,1092,14,2,2112.5,613786.2999999821,8100,VNB,A,12
8,test,3,0.0,2-Back,1.0,z,Fri May 29 2026 14:22:18 GMT-0500 (Central Daylight Time),617483.5,039_o_m_d_a.png,I,z,549,15,2,1582.6000000238419,615900.8999999762,8100,VNB,A,13
9,test,3,1.0,2-Back,1.0,m,Fri May 29 2026 14:22:18 GMT-0500 (Central Daylight Time),619995.6999999881,139_m_f_h_a.png,I,m,1489,16,2,2508.9000000059605,617486.7999999821,8100,VNB,A,14
10,test,3,0.0,2-Back,1.0,m,Fri May 29 2026 14:22:18 GMT-0500 (Central Daylight Time),622096.1999999881,165_m_m_n_a.png,I,m,1070,17,2,2098.699999988079,619997.5,8100,VNB,A,15
11,test,3,0.0,2-Back,1.0,z,Fri May 29 2026 14:22:18 GMT-0500 (Central Daylight Time),623780.8999999762,109_y_m_h_a.png,I,z,651,18,2,1681.199999988079,622099.6999999881,8100,VNB,A,16
0,test,4,0.0,2-Back,,,Fri May 29 2026 14:22:18 GMT-0500 (Central Daylight Time),623780.8999999762,139_m_f_n_a.png,I,space,1697,1,2,1681.199999988079,622099.6999999881,8100,VNB,A,0
0,test,4,0.0,2-Back,,,Fri May 29 2026 14:22:18 GMT-0500 (Central Daylight Time),623780.8999999762,039_o_m_n_a.png,I,space,1697,2,2,1681.199999988079,622099.6999999881,8100,VNB,A,0
1,test,4,1.0,2-Back,1.0,m,Fri May 29 2026 14:22:18 GMT-0500 (Central Daylight Time),632443.0,109_y_m_h_a.png,I,m,874,3,2,1890.7000000178814,630552.2999999821,8100,VNB,A,1
2,test,4,1.0,2-Back,1.0,m,Fri May 29 2026 14:22:18 GMT-0500 (Central Daylight Time),634359.2999999821,124_o_f_d_a.png,I,m,886,4,2,1911.5,632447.7999999821,8100,VNB,A,2
3,test,4,0.0,2-Back,1.0,z,Fri May 29 2026 14:22:18 GMT-0500 (Central Daylight Time),636841.6999999881,039_o_m_h_a.png,I,z,1451,5,2,2479.5,634362.1999999881,8100,VNB,A,3
3,test,4,0.0,2-Back,0.0,m,Fri May 29 2026 14:22:18 GMT-0500 (Central Daylight Time),639158.6999999881,165_m_m_n_a.png,I,z,1298,6,2,2313.5,636845.1999999881,8100,VNB,A,4
4,test,4,0.0,2-Back,1.0,m,Fri May 29 2026 14:22:18 GMT-0500 (Central Daylight Time),641941.0,139_m_f_d_a.png,I,m,1755,7,2,2778.2000000178814,639162.7999999821,8100,VNB,A,5
5,test,4,0.0,2-Back,1.0,z,Fri May 29 2026 14:22:18 GMT-0500 (Central Daylight Time),644255.5,071_y_f_n_a.png,I,z,1287,8,2,2311.9000000059605,641943.599999994,8100,VNB,A,6
6,test,4,1.0,2-Back,1.0,m,Fri May 29 2026 14:22:18 GMT-0500 (Central Daylight Time),646972.1999999881,124_o_f_h_a.png,I,m,1687,9,2,2709.4000000059605,644262.7999999821,8100,VNB,A,7
7,test,4,0.0,2-Back,1.0,m,Fri May 29 2026 14:22:18 GMT-0500 (Central Daylight Time),649955.1999999881,165_m_m_h_a.png,I,m,1952,10,2,2980.800000011921,646974.3999999762,8100,VNB,A,8
8,test,4,0.0,2-Back,1.0,m,Fri May 29 2026 14:22:18 GMT-0500 (Central Daylight Time),652387.6999999881,071_y_f_d_a.png,I,m,1408,11,2,2427.199999988079,649960.5,8100,VNB,A,9
9,test,4,0.0,2-Back,1.0,m,Fri May 29 2026 14:22:18 GMT-0500 (Central Daylight Time),654519.0,109_y_m_n_a.png,I,m,1103,12,2,2127.600000023842,652391.3999999762,8100,VNB,A,10
10,test,4,0.0,2-Back,1.0,z,Fri May 29 2026 14:22:18 GMT-0500 (Central Daylight Time),656085.0,039_o_m_d_a.png,I,z,534,13,2,1562.6000000238419,654522.3999999762,8100,VNB,A,11
11,test,4,1.0,2-Back,1.0,m,Fri May 29 2026 14:22:18 GMT-0500 (Central Daylight Time),658467.099999994,139_m_f_h_a.png,I,m,1357,14,2,2377.7000000178814,656089.3999999762,8100,VNB,A,12
11,test,4,1.0,2-Back,0.0,m,Fri May 29 2026 14:22:18 GMT-0500 (Central Daylight Time),660751.0,071_y_f_h_a.png,I,z,1255,15,2,2276.600000023842,658474.3999999762,8100,VNB,A,13
12,test,4,0.0,2-Back,1.0,m,Fri May 29 2026 14:22:18 GMT-0500 (Central Daylight Time),662983.7999999821,124_o_f_n_a.png,I,m,1204,16,2,2229.199999988079,660754.599999994,8100,VNB,A,14
13,test,4,0.0,2-Back,1.0,m,Fri May 29 2026 14:22:18 GMT-0500 (Central Daylight Time),664749.099999994,109_y_m_d_a.png,I,m,736,17,2,1762.4000000059605,662986.6999999881,8100,VNB,A,15
14,test,4,1.0,2-Back,1.0,m,Fri May 29 2026 14:22:18 GMT-0500 (Central Daylight Time),667681.6999999881,165_m_m_d_a.png,I,m,1900,18,2,2929.699999988079,664752.0,8100,VNB,A,16
0,test,5,1.0,2-Back,,,Fri May 29 2026 14:22:18 GMT-0500 (Central Daylight Time),667681.6999999881,071_y_f_d_a.png,I,space,932,1,2,2929.699999988079,664752.0,8100,VNB,A,0
0,test,5,1.0,2-Back,,,Fri May 29 2026 14:22:18 GMT-0500 (Central Daylight Time),667681.6999999881,124_o_f_h_a.png,I,space,932,2,2,2929.699999988079,664752.0,8100,VNB,A,0
1,test,5,1.0,2-Back,1.0,z,Fri May 29 2026 14:22:18 GMT-0500 (Central Daylight Time),675428.6999999881,039_o_m_d_a.png,I,z,708,3,2,1723.4000000059605,673705.2999999821,8100,VNB,A,1
2,test,5,1.0,2-Back,1.0,m,Fri May 29 2026 14:22:18 GMT-0500 (Central Daylight Time),677128.6999999881,139_m_f_n_a.png,I,m,678,4,2,1696.199999988079,675432.5,8100,VNB,A,2
3,test,5,0.0,2-Back,1.0,m,Fri May 29 2026 14:22:18 GMT-0500 (Central Daylight Time),679295.599999994,165_m_m_h_a.png,I,m,1138,5,2,2162.300000011921,677133.2999999821,8100,VNB,A,3
4,test,5,0.0,2-Back,1.0,z,Fri May 29 2026 14:22:18 GMT-0500 (Central Daylight Time),681411.0,071_y_f_n_a.png,I,z,1094,6,2,2112.600000023842,679298.3999999762,8100,VNB,A,4
5,test,5,0.0,2-Back,1.0,m,Fri May 29 2026 14:22:18 GMT-0500 (Central Daylight Time),683543.5,124_o_f_d_a.png,I,m,1104,7,2,2129.5,681414.0,8100,VNB,A,5
6,test,5,0.0,2-Back,1.0,m,Fri May 29 2026 14:22:18 GMT-0500 (Central Daylight Time),685776.5,039_o_m_h_a.png,I,m,1211,8,2,2229.2000000178814,683547.2999999821,8100,VNB,A,6
7,test,5,1.0,2-Back,1.0,z,Fri May 29 2026 14:22:18 GMT-0500 (Central Daylight Time),687542.5,139_m_f_d_a.png,I,z,748,9,2,1762.800000011921,685779.6999999881,8100,VNB,A,7
8,test,5,0.0,2-Back,1.0,m,Fri May 29 2026 14:22:18 GMT-0500 (Central Daylight Time),689342.599999994,109_y_m_n_a.png,I,m,768,10,2,1797.0,687545.599999994,8100,VNB,A,8
9,test,5,0.0,2-Back,1.0,m,Fri May 29 2026 14:22:18 GMT-0500 (Central Daylight Time),691357.8999999762,165_m_m_n_a.png,I,m,1000,11,2,2011.5,689346.3999999762,8100,VNB,A,9
9,test,5,0.0,2-Back,0.0,m,Fri May 29 2026 14:22:18 GMT-0500 (Central Daylight Time),693240.099999994,071_y_f_h_a.png,I,z,861,12,2,1879.0999999940395,691361.0,8100,VNB,A,10
10,test,5,0.0,2-Back,1.0,m,Fri May 29 2026 14:22:18 GMT-0500 (Central Daylight Time),696056.599999994,109_y_m_d_a.png,I,m,1794,13,2,2813.7000000178814,693242.8999999762,8100,VNB,A,11
10,test,5,1.0,2-Back,0.0,z,Fri May 29 2026 14:22:18 GMT-0500 (Central Daylight Time),698371.0,139_m_f_h_a.png,I,m,1283,14,2,2311.5,696059.5,8100,VNB,A,12
10,test,5,0.0,2-Back,0.0,m,Fri May 29 2026 14:22:18 GMT-0500 (Central Daylight Time),699969.8999999762,039_o_m_n_a.png,I,z,566,15,2,1597.0,698372.8999999762,8100,VNB,A,13
11,test,5,0.0,2-Back,1.0,m,Fri May 29 2026 14:22:18 GMT-0500 (Central Daylight Time),702168.7999999821,165_m_m_d_a.png,I,m,1167,16,2,2197.199999988079,699971.599999994,8100,VNB,A,14
11,test,5,0.0,2-Back,0.0,z,Fri May 29 2026 14:22:18 GMT-0500 (Central Daylight Time),704268.7999999821,124_o_f_n_a.png,I,m,1073,17,2,2098.0999999940395,702170.6999999881,8100,VNB,A,15
12,test,5,1.0,2-Back,1.0,m,Fri May 29 2026 14:22:18 GMT-0500 (Central Daylight Time),706253.3999999762,109_y_m_h_a.png,I,m,955,18,2,1982.5999999940395,704270.7999999821,8100,VNB,A,16
