Q,Q1,Q2,Q3,Q4,acc_sum,block,block_c,correct,correct_response,datetime,endtime,project,response,response_time,row_sel,session_number,squiggle1,squiggle1x,squiggle1y,squiggle2,squiggle2x,squiggle2y,squiggle3,squiggle3x,squiggle3y,squiggle4,squiggle4x,squiggle4y,start_end,starttime,subject_id,target_congruent,task,task_vers,testsquiggle,testsquigglex,testsquiggley,time_practice_delay,time_practice_fixation,time_practice_stimuli,time_practice_study,time_test_delay,time_test_fixation,time_test_stimuli,time_test_study,trial
1,1,0,0,0,0,prac,1,0,z,Tue Mar 03 2026 17:17:46 GMT-0600 (Central Standard Time),184044.1000000015,O,None,2015,1,,66.bmp,-120,-120,67.bmp,120,-120,68.bmp,-120,120,69.bmp,120,120,10807.10000000149,173237.0,7766,yes,SM,C,66.bmp,-120,-120,171788,165763,173789,167774,,,,,1
3,0,0,1,0,0,prac,1,0,m,Tue Mar 03 2026 17:17:46 GMT-0600 (Central Standard Time),194591.6000000015,O,z,1722,2,,70.bmp,-120,-120,71.bmp,120,-120,72.bmp,-120,120,73.bmp,120,120,10544.200000001118,184047.40000000037,7766,no,SM,C,73.bmp,-120,120,182602,176574,184620,178587,,,,,2
4,0,0,0,1,0,prac,1,0,m,Tue Mar 03 2026 17:17:46 GMT-0600 (Central Standard Time),205421.6000000015,O,None,2016,3,,74.bmp,-120,-120,75.bmp,120,-120,76.bmp,-120,120,77.bmp,120,120,10825.400000000373,194596.20000000112,7766,no,SM,C,74.bmp,120,120,193147,187123,195165,189134,,,,,3
2,0,1,0,0,0,prac,1,0,z,Tue Mar 03 2026 17:17:46 GMT-0600 (Central Standard Time),216250.20000000112,O,None,2016,4,,78.bmp,-120,-120,79.bmp,120,-120,80.bmp,-120,120,81.bmp,120,120,10821.800000000745,205428.40000000037,7766,yes,SM,C,79.bmp,120,-120,203978,197955,205994,199963,,,,,4
3,0,0,1,0,0,prac,1,0,z,Tue Mar 03 2026 17:17:46 GMT-0600 (Central Standard Time),226881.90000000037,O,m,1806,5,,82.bmp,-120,-120,83.bmp,120,-120,84.bmp,-120,120,85.bmp,120,120,10625.699999999255,216256.20000000112,7766,yes,SM,C,84.bmp,-120,120,214808,208782,216825,210793,,,,,5
1,1,0,0,0,0,prac,1,0,m,Tue Mar 03 2026 17:17:46 GMT-0600 (Central Standard Time),237694.30000000075,O,None,2002,6,,86.bmp,-120,-120,87.bmp,120,-120,88.bmp,-120,120,89.bmp,120,120,10807.300000000745,226887.0,7766,no,SM,C,89.bmp,-120,-120,225438,219413,227454,221423,,,,,6
2,0,1,0,0,1,prac,1,1,m,Tue Mar 03 2026 17:17:46 GMT-0600 (Central Standard Time),248392.80000000075,O,m,1883,7,,90.bmp,-120,-120,91.bmp,120,-120,92.bmp,-120,120,93.bmp,120,120,10693.0,237699.80000000075,7766,no,SM,C,90.bmp,120,-120,236255,230226,238268,232237,,,,,7
4,0,0,0,1,1,prac,1,0,z,Tue Mar 03 2026 17:17:46 GMT-0600 (Central Standard Time),259204.20000000112,O,None,2001,8,,94.bmp,-120,-120,95.bmp,120,-120,96.bmp,-120,120,97.bmp,120,120,10808.800000000745,248395.40000000037,7766,yes,SM,C,97.bmp,120,120,246947,240922,248962,242931,,,,,8
1,1,0,0,0,1,prac,2,1,z,Tue Mar 03 2026 17:17:46 GMT-0600 (Central Standard Time),274765.80000000075,O,z,1767,1,,66.bmp,-120,-120,67.bmp,120,-120,68.bmp,-120,120,69.bmp,120,120,10590.599999999627,264175.2000000011,7766,yes,SM,C,66.bmp,-120,-120,262727,256701,264743,258712,,,,,1
3,0,0,1,0,1,prac,2,0,m,Tue Mar 03 2026 17:17:46 GMT-0600 (Central Standard Time),285594.9000000004,O,None,2016,2,,70.bmp,-120,-120,71.bmp,120,-120,72.bmp,-120,120,73.bmp,120,120,10823.599999999627,274771.30000000075,7766,no,SM,C,73.bmp,-120,120,273323,267297,275340,269308,,,,,2
4,0,0,0,1,2,prac,2,1,m,Tue Mar 03 2026 17:17:46 GMT-0600 (Central Standard Time),295840.7000000011,O,m,1421,3,,74.bmp,-120,-120,75.bmp,120,-120,76.bmp,-120,120,77.bmp,120,120,10242.300000000745,285598.4000000004,7766,no,SM,C,74.bmp,120,120,284153,278125,286170,280139,,,,,3
2,0,1,0,0,3,prac,2,1,z,Tue Mar 03 2026 17:17:46 GMT-0600 (Central Standard Time),306105.9000000004,O,z,1449,4,,78.bmp,-120,-120,79.bmp,120,-120,80.bmp,-120,120,81.bmp,120,120,10261.799999998882,295844.1000000015,7766,yes,SM,C,79.bmp,120,-120,294400,288370,296416,290386,,,,,4
3,0,0,1,0,4,prac,2,1,z,Tue Mar 03 2026 17:17:46 GMT-0600 (Central Standard Time),316635.7000000011,O,z,1711,5,,82.bmp,-120,-120,83.bmp,120,-120,84.bmp,-120,120,85.bmp,120,120,10526.0,306109.7000000011,7766,yes,SM,C,84.bmp,-120,120,304664,298636,306680,300648,,,,,5
1,1,0,0,0,5,prac,2,1,m,Tue Mar 03 2026 17:17:46 GMT-0600 (Central Standard Time),327415.4000000004,O,m,1966,6,,86.bmp,-120,-120,87.bmp,120,-120,88.bmp,-120,120,89.bmp,120,120,10774.299999998882,316641.1000000015,7766,no,SM,C,89.bmp,-120,-120,315191,309168,317193,311178,,,,,6
2,0,1,0,0,6,prac,2,1,m,Tue Mar 03 2026 17:17:46 GMT-0600 (Central Standard Time),337678.1000000015,O,m,1430,7,,90.bmp,-120,-120,91.bmp,120,-120,92.bmp,-120,120,93.bmp,120,120,10258.200000001118,327419.9000000004,7766,no,SM,C,90.bmp,120,-120,325974,319946,327991,321960,,,,,7
4,0,0,0,1,6,prac,2,0,z,Tue Mar 03 2026 17:17:46 GMT-0600 (Central Standard Time),348508.1000000015,O,None,2015,8,,94.bmp,-120,-120,95.bmp,120,-120,96.bmp,-120,120,97.bmp,120,120,10822.700000001118,337685.4000000004,7766,yes,SM,C,97.bmp,120,120,336236,330212,338253,332221,,,,,8
4,0,0,0,1,0,test,1,0,m,Tue Mar 03 2026 17:17:46 GMT-0600 (Central Standard Time),373634.30000000075,O,None,2014,1,,98.bmp,-120,-120,99.bmp,120,-120,100.bmp,-120,120,93.bmp,120,120,10058.400000000373,363575.9000000004,7766,yes,SM,C,100.bmp,120,120,336236,330212,338253,332221,362128.0,356102.0,364146.0,358113.0,1
2,0,1,0,0,1,test,1,1,m,Tue Mar 03 2026 17:17:46 GMT-0600 (Central Standard Time),383263.0,O,m,1565,2,,51.bmp,-120,-120,52.bmp,120,-120,53.bmp,-120,120,54.bmp,120,120,9624.099999999627,373638.9000000004,7766,yes,SM,C,53.bmp,120,-120,336236,330212,338253,332221,372192.0,366165.0,374208.0,368177.0,2
1,1,0,0,0,2,test,1,1,z,Tue Mar 03 2026 17:17:46 GMT-0600 (Central Standard Time),392878.2000000011,O,z,1562,3,,55.bmp,-120,-120,56.bmp,120,-120,57.bmp,-120,120,58.bmp,120,120,9613.200000001118,383265.0,7766,yes,SM,C,55.bmp,-120,-120,336236,330212,338253,332221,381822.0,375791.0,383838.0,377808.0,3
3,0,0,1,0,3,test,1,1,m,Tue Mar 03 2026 17:17:46 GMT-0600 (Central Standard Time),402592.7000000011,O,m,1659,4,,59.bmp,-120,-120,60.bmp,120,-120,61.bmp,-120,120,62.bmp,120,120,9708.599999999627,392884.1000000015,7766,yes,SM,C,59.bmp,-120,120,336236,330212,338253,332221,391435.0,385411.0,393452.0,387421.0,4
2,0,1,0,0,3,test,1,0,z,Tue Mar 03 2026 17:17:46 GMT-0600 (Central Standard Time),412305.9000000004,O,m,1656,5,,63.bmp,-120,-120,64.bmp,120,-120,65.bmp,-120,120,66.bmp,120,120,9709.799999998882,402596.1000000015,7766,yes,SM,C,64.bmp,120,-120,336236,330212,338253,332221,401149.0,395122.0,403166.0,397134.0,5
3,0,0,1,0,4,test,1,1,z,Tue Mar 03 2026 17:17:46 GMT-0600 (Central Standard Time),421834.7000000011,O,z,1471,6,,67.bmp,-120,-120,68.bmp,120,-120,69.bmp,-120,120,70.bmp,120,120,9526.599999999627,412308.1000000015,7766,yes,SM,C,69.bmp,-120,120,336236,330212,338253,332221,410862.0,404834.0,412879.0,406847.0,6
4,0,0,0,1,4,test,1,0,z,Tue Mar 03 2026 17:17:46 GMT-0600 (Central Standard Time),431549.30000000075,O,m,1650,7,,71.bmp,-120,-120,72.bmp,120,-120,73.bmp,-120,120,74.bmp,120,120,9712.800000000745,421836.5,7766,yes,SM,C,74.bmp,120,120,336236,330212,338253,332221,420393.0,414363.0,422408.0,416377.0,7
2,0,1,0,0,4,test,1,0,m,Tue Mar 03 2026 17:17:46 GMT-0600 (Central Standard Time),441329.2000000011,O,z,1716,8,,75.bmp,-120,-120,76.bmp,120,-120,77.bmp,-120,120,78.bmp,120,120,9777.0,431552.2000000011,7766,yes,SM,C,75.bmp,120,-120,336236,330212,338253,332221,430107.0,424078.0,432124.0,426092.0,8
3,0,0,1,0,5,test,1,1,m,Tue Mar 03 2026 17:17:46 GMT-0600 (Central Standard Time),450859.80000000075,O,m,1470,9,,79.bmp,-120,-120,80.bmp,120,-120,81.bmp,-120,120,82.bmp,120,120,9526.099999999627,441333.7000000011,7766,yes,SM,C,80.bmp,-120,120,336236,330212,338253,332221,439888.0,433860.0,441903.0,435872.0,9
4,0,0,0,1,6,test,1,1,z,Tue Mar 03 2026 17:17:46 GMT-0600 (Central Standard Time),460472.6000000015,O,z,1558,10,,87.bmp,-120,-120,88.bmp,120,-120,89.bmp,-120,120,90.bmp,120,120,9609.60000000149,450863.0,7766,yes,SM,C,90.bmp,120,120,336236,330212,338253,332221,449417.0,443389.0,451433.0,445401.0,10
3,0,0,1,0,6,test,1,0,z,Tue Mar 03 2026 17:17:46 GMT-0600 (Central Standard Time),470535.80000000075,O,None,2015,11,,83.bmp,-120,-120,84.bmp,120,-120,85.bmp,-120,120,86.bmp,120,120,10058.5,460477.30000000075,7766,yes,SM,C,85.bmp,-120,120,336236,330212,338253,332221,459031.0,453004.0,461047.0,455016.0,11
2,0,1,0,0,7,test,1,1,m,Tue Mar 03 2026 17:17:46 GMT-0600 (Central Standard Time),480433.0,O,m,1840,12,,91.bmp,-120,-120,92.bmp,120,-120,93.bmp,-120,120,94.bmp,120,120,9891.699999999255,470541.30000000075,7766,yes,SM,C,91.bmp,120,-120,336236,330212,338253,332221,469094.0,463068.0,471111.0,465079.0,12
3,0,0,1,0,8,test,1,1,m,Tue Mar 03 2026 17:17:46 GMT-0600 (Central Standard Time),489947.30000000075,O,m,1470,13,,95.bmp,-120,-120,96.bmp,120,-120,97.bmp,-120,120,98.bmp,120,120,9509.60000000149,480437.69999999925,7766,yes,SM,C,96.bmp,-120,120,336236,330212,338253,332221,478990.0,472964.0,480992.0,474976.0,13
1,1,0,0,0,9,test,1,1,z,Tue Mar 03 2026 17:17:46 GMT-0600 (Central Standard Time),499426.5,O,z,1421,14,,99.bmp,-120,-120,100.bmp,120,-120,54.bmp,-120,120,51.bmp,120,120,9476.5,489950.0,7766,yes,SM,C,99.bmp,-120,-120,336236,330212,338253,332221,488504.0,482476.0,490521.0,484489.0,14
4,0,0,0,1,9,test,1,0,m,Tue Mar 03 2026 17:17:46 GMT-0600 (Central Standard Time),509490.30000000075,O,None,2016,15,,60.bmp,-120,-120,61.bmp,120,-120,62.bmp,-120,120,63.bmp,120,120,10061.199999999255,499429.1000000015,7766,yes,SM,C,61.bmp,120,120,336236,330212,338253,332221,497984.0,491955.0,500000.0,493969.0,15
1,1,0,0,0,10,test,1,1,m,Tue Mar 03 2026 17:17:46 GMT-0600 (Central Standard Time),519186.80000000075,O,m,1639,16,,52.bmp,-120,-120,53.bmp,120,-120,54.bmp,-120,120,55.bmp,120,120,9690.89999999851,509495.90000000224,7766,yes,SM,C,55.bmp,-120,-120,336236,330212,338253,332221,508048.0,502022.0,510064.0,504033.0,16
3,0,0,1,0,11,test,1,1,m,Tue Mar 03 2026 17:17:46 GMT-0600 (Central Standard Time),528633.3000000007,O,m,1389,17,,72.bmp,-120,-120,73.bmp,120,-120,74.bmp,-120,120,75.bmp,120,120,9442.10000000149,519191.19999999925,7766,yes,SM,C,72.bmp,-120,120,336236,330212,338253,332221,517745.0,511718.0,519762.0,513731.0,17
1,1,0,0,0,11,test,1,0,z,Tue Mar 03 2026 17:17:46 GMT-0600 (Central Standard Time),538699.1999999993,O,None,2017,18,,56.bmp,-120,-120,57.bmp,120,-120,58.bmp,-120,120,59.bmp,120,120,10062.099999997765,528637.1000000015,7766,yes,SM,C,56.bmp,-120,-120,336236,330212,338253,332221,527191.0,521163.0,529208.0,523177.0,18
2,0,1,0,0,12,test,1,1,z,Tue Mar 03 2026 17:17:46 GMT-0600 (Central Standard Time),548145.1000000015,O,z,1411,19,,76.bmp,-120,-120,77.bmp,120,-120,78.bmp,-120,120,79.bmp,120,120,9441.10000000149,538704.0,7766,yes,SM,C,77.bmp,120,-120,336236,330212,338253,332221,537255.0,531230.0,539259.0,533239.0,19
3,0,0,1,0,13,test,1,1,z,Tue Mar 03 2026 17:17:46 GMT-0600 (Central Standard Time),557475.0,O,z,1273,20,,80.bmp,-120,-120,81.bmp,120,-120,82.bmp,-120,120,83.bmp,120,120,9327.800000000745,548147.1999999993,7766,yes,SM,C,82.bmp,-120,120,336236,330212,338253,332221,546701.0,540673.0,548718.0,542688.0,20
1,1,0,0,0,14,test,1,1,m,Tue Mar 03 2026 17:17:46 GMT-0600 (Central Standard Time),567355.3000000007,O,m,1820,21,,64.bmp,-120,-120,65.bmp,120,-120,66.bmp,-120,120,67.bmp,120,120,9877.0,557478.3000000007,7766,yes,SM,C,66.bmp,-120,-120,336236,330212,338253,332221,556033.0,550005.0,558051.0,552018.0,21
4,0,0,0,1,15,test,1,1,z,Tue Mar 03 2026 17:17:46 GMT-0600 (Central Standard Time),576935.5,O,z,1518,22,,68.bmp,-120,-120,69.bmp,120,-120,70.bmp,-120,120,71.bmp,120,120,9577.0,567358.5,7766,yes,SM,C,71.bmp,120,120,336236,330212,338253,332221,565913.0,559886.0,567929.0,561899.0,22
1,1,0,0,0,16,test,1,1,m,Tue Mar 03 2026 17:17:46 GMT-0600 (Central Standard Time),586915.8000000007,O,m,1931,23,,84.bmp,-120,-120,85.bmp,120,-120,86.bmp,-120,120,87.bmp,120,120,9977.199999999255,576938.6000000015,7766,yes,SM,C,87.bmp,-120,-120,336236,330212,338253,332221,575493.0,569465.0,577510.0,571478.0,23
2,0,1,0,0,17,test,1,1,z,Tue Mar 03 2026 17:17:46 GMT-0600 (Central Standard Time),596679.1000000015,O,z,1708,24,,92.bmp,-120,-120,93.bmp,120,-120,94.bmp,-120,120,95.bmp,120,120,9758.800000000745,586920.3000000007,7766,yes,SM,C,93.bmp,120,-120,336236,330212,338253,332221,585474.0,579447.0,587491.0,581458.0,24
4,0,0,0,1,18,test,1,1,m,Tue Mar 03 2026 17:17:46 GMT-0600 (Central Standard Time),606475.8000000007,O,m,1735,25,,96.bmp,-120,-120,97.bmp,120,-120,98.bmp,-120,120,99.bmp,120,120,9792.699999999255,596683.1000000015,7766,yes,SM,C,98.bmp,120,120,336236,330212,338253,332221,595239.0,589209.0,597255.0,591223.0,25
1,1,0,0,0,19,test,1,1,z,Tue Mar 03 2026 17:17:46 GMT-0600 (Central Standard Time),616274.4000000022,O,z,1748,26,,88.bmp,-120,-120,89.bmp,120,-120,90.bmp,-120,120,91.bmp,120,120,9794.5,606479.9000000022,7766,yes,SM,C,88.bmp,-120,-120,336236,330212,338253,332221,605034.0,599006.0,607051.0,601019.0,26
4,0,0,0,1,20,test,1,1,z,Tue Mar 03 2026 17:17:46 GMT-0600 (Central Standard Time),625886.9000000022,O,z,1559,27,,100.bmp,-120,-120,61.bmp,120,-120,51.bmp,-120,120,52.bmp,120,120,9610.10000000149,616276.8000000007,7766,yes,SM,C,52.bmp,120,120,336236,330212,338253,332221,614832.0,608803.0,616847.0,610815.0,27
3,0,0,1,0,20,test,1,0,m,Tue Mar 03 2026 17:17:46 GMT-0600 (Central Standard Time),635950.1999999993,O,None,2015,28,,53.bmp,-120,-120,54.bmp,120,-120,55.bmp,-120,120,56.bmp,120,120,10060.0,625890.1999999993,7766,yes,SM,C,53.bmp,-120,120,336236,330212,338253,332221,624444.0,618416.0,626461.0,620430.0,28
2,0,1,0,0,20,test,1,0,z,Tue Mar 03 2026 17:17:46 GMT-0600 (Central Standard Time),645963.9000000022,O,m,1949,29,,57.bmp,-120,-120,58.bmp,120,-120,59.bmp,-120,120,60.bmp,120,120,10009.60000000149,635954.3000000007,7766,yes,SM,C,58.bmp,120,-120,336236,330212,338253,332221,634508.0,628481.0,636525.0,630495.0,29
3,0,0,1,0,20,test,1,0,z,Tue Mar 03 2026 17:17:46 GMT-0600 (Central Standard Time),656027.0,O,None,2014,30,,61.bmp,-120,-120,62.bmp,120,-120,63.bmp,-120,120,64.bmp,120,120,10060.300000000745,645966.6999999993,7766,yes,SM,C,63.bmp,-120,120,336236,330212,338253,332221,644523.0,638493.0,646539.0,640506.0,30
1,1,0,0,0,20,test,1,0,z,Tue Mar 03 2026 17:17:46 GMT-0600 (Central Standard Time),666091.1000000015,O,None,2017,31,,65.bmp,-120,-120,66.bmp,120,-120,67.bmp,-120,120,68.bmp,120,120,10061.400000002235,656029.6999999993,7766,yes,SM,C,65.bmp,-120,-120,336236,330212,338253,332221,654586.0,648556.0,656600.0,650571.0,31
2,0,1,0,0,21,test,1,1,m,Tue Mar 03 2026 17:17:46 GMT-0600 (Central Standard Time),675620.8000000007,O,m,1469,32,,69.bmp,-120,-120,70.bmp,120,-120,71.bmp,-120,120,72.bmp,120,120,9524.60000000149,666096.1999999993,7766,yes,SM,C,69.bmp,120,-120,336236,330212,338253,332221,664650.0,658623.0,666665.0,660633.0,32
4,0,0,0,1,21,test,1,0,z,Tue Mar 03 2026 17:17:46 GMT-0600 (Central Standard Time),685685.1000000015,O,None,2015,33,,81.bmp,-120,-120,82.bmp,120,-120,83.bmp,-120,120,84.bmp,120,120,10060.900000002235,675624.1999999993,7766,yes,SM,C,84.bmp,120,120,336236,330212,338253,332221,674179.0,668150.0,676196.0,670164.0,33
2,0,1,0,0,21,test,1,0,z,Tue Mar 03 2026 17:17:46 GMT-0600 (Central Standard Time),695465.6999999993,O,m,1724,34,,73.bmp,-120,-120,74.bmp,120,-120,75.bmp,-120,120,76.bmp,120,120,9775.79999999702,685689.9000000022,7766,yes,SM,C,74.bmp,120,-120,336236,330212,338253,332221,684242.0,678216.0,686259.0,680228.0,34
4,0,0,0,1,22,test,1,1,m,Tue Mar 03 2026 17:17:46 GMT-0600 (Central Standard Time),704711.4000000022,O,m,1183,35,,77.bmp,-120,-120,78.bmp,120,-120,79.bmp,-120,120,80.bmp,120,120,9242.10000000149,695469.3000000007,7766,yes,SM,C,79.bmp,120,120,336236,330212,338253,332221,694022.0,687995.0,696039.0,690007.0,35
3,0,0,1,0,22,test,1,0,m,Tue Mar 03 2026 17:17:46 GMT-0600 (Central Standard Time),714775.0,O,None,2016,36,,85.bmp,-120,-120,86.bmp,120,-120,87.bmp,-120,120,88.bmp,120,120,10058.699999999255,704716.3000000007,7766,yes,SM,C,85.bmp,-120,120,336236,330212,338253,332221,703270.0,697243.0,705285.0,699253.0,36
1,1,0,0,0,23,test,1,1,m,Tue Mar 03 2026 17:17:46 GMT-0600 (Central Standard Time),724072.0,O,m,1242,37,,89.bmp,-120,-120,90.bmp,120,-120,91.bmp,-120,120,92.bmp,120,120,9288.800000000745,714783.1999999993,7766,yes,SM,C,90.bmp,-120,-120,336236,330212,338253,332221,713333.0,707310.0,715349.0,709318.0,37
2,0,1,0,0,24,test,1,1,m,Tue Mar 03 2026 17:17:46 GMT-0600 (Central Standard Time),733736.1999999993,O,m,1625,38,,93.bmp,-120,-120,94.bmp,120,-120,95.bmp,-120,120,96.bmp,120,120,9659.89999999851,724076.3000000007,7766,yes,SM,C,95.bmp,120,-120,336236,330212,338253,332221,722628.0,716603.0,724631.0,718615.0,38
4,0,0,0,1,24,test,1,0,z,Tue Mar 03 2026 17:17:46 GMT-0600 (Central Standard Time),743797.8000000007,O,None,2014,39,,97.bmp,-120,-120,98.bmp,120,-120,99.bmp,-120,120,100.bmp,120,120,10056.89999999851,733740.9000000022,7766,yes,SM,C,100.bmp,120,120,336236,330212,338253,332221,732293.0,726267.0,734310.0,728281.0,39
3,0,0,1,0,25,test,1,1,m,Tue Mar 03 2026 17:17:46 GMT-0600 (Central Standard Time),753162.3000000007,O,m,1304,40,,54.bmp,-120,-120,55.bmp,120,-120,56.bmp,-120,120,57.bmp,120,120,9361.89999999851,743800.4000000022,7766,yes,SM,C,55.bmp,-120,120,336236,330212,338253,332221,742357.0,736327.0,744374.0,738341.0,40
1,1,0,0,0,26,test,1,1,z,Tue Mar 03 2026 17:17:46 GMT-0600 (Central Standard Time),762960.5,O,z,1749,41,,58.bmp,-120,-120,59.bmp,120,-120,60.bmp,-120,120,61.bmp,120,120,9796.199999999255,753164.3000000007,7766,yes,SM,C,58.bmp,-120,-120,336236,330212,338253,332221,751721.0,745691.0,753737.0,747705.0,41
4,0,0,0,1,27,test,1,1,z,Tue Mar 03 2026 17:17:46 GMT-0600 (Central Standard Time),772557.6999999993,O,z,1538,42,,62.bmp,-120,-120,63.bmp,120,-120,64.bmp,-120,120,65.bmp,120,120,9594.39999999851,762963.3000000007,7766,yes,SM,C,65.bmp,120,120,336236,330212,338253,332221,761519.0,755490.0,763533.0,757503.0,42
1,1,0,0,0,28,test,1,1,z,Tue Mar 03 2026 17:17:46 GMT-0600 (Central Standard Time),782121.0,O,z,1509,43,,66.bmp,-120,-120,67.bmp,120,-120,68.bmp,-120,120,69.bmp,120,120,9559.89999999851,772561.1000000015,7766,yes,SM,C,66.bmp,-120,-120,336236,330212,338253,332221,771115.0,765087.0,773131.0,767100.0,43
4,0,0,0,1,29,test,1,1,m,Tue Mar 03 2026 17:17:46 GMT-0600 (Central Standard Time),791501.4000000022,O,m,1320,44,,54.bmp,-120,-120,51.bmp,120,-120,52.bmp,-120,120,53.bmp,120,120,9377.0,782124.4000000022,7766,yes,SM,C,54.bmp,120,120,336236,330212,338253,332221,780679.0,774651.0,782695.0,776664.0,44
1,1,0,0,0,30,test,1,1,m,Tue Mar 03 2026 17:17:46 GMT-0600 (Central Standard Time),801064.6000000015,O,m,1509,45,,78.bmp,-120,-120,79.bmp,120,-120,80.bmp,-120,120,81.bmp,120,120,9559.800000000745,791504.8000000007,7766,yes,SM,C,81.bmp,-120,-120,336236,330212,338253,332221,790058.0,784031.0,792073.0,786044.0,45
1,1,0,0,0,31,test,1,1,m,Tue Mar 03 2026 17:17:46 GMT-0600 (Central Standard Time),810529.3000000007,O,m,1400,46,,70.bmp,-120,-120,71.bmp,120,-120,72.bmp,-120,120,73.bmp,120,120,9460.300000000745,801069.0,7766,yes,SM,C,71.bmp,-120,-120,336236,330212,338253,332221,799622.0,793595.0,801639.0,795609.0,46
3,0,0,1,0,32,test,1,1,z,Tue Mar 03 2026 17:17:46 GMT-0600 (Central Standard Time),820242.6999999993,O,z,1665,47,,74.bmp,-120,-120,75.bmp,120,-120,76.bmp,-120,120,77.bmp,120,120,9710.099999997765,810532.6000000015,7766,yes,SM,C,76.bmp,-120,120,336236,330212,338253,332221,809085.0,803059.0,811102.0,805071.0,47
3,0,0,1,0,32,test,1,0,z,Tue Mar 03 2026 17:17:46 GMT-0600 (Central Standard Time),829871.6999999993,O,m,1575,48,,90.bmp,-120,-120,91.bmp,120,-120,92.bmp,-120,120,93.bmp,120,120,9624.29999999702,820247.4000000022,7766,yes,SM,C,92.bmp,-120,120,336236,330212,338253,332221,818800.0,812774.0,820816.0,814784.0,48
2,0,1,0,0,33,test,1,1,z,Tue Mar 03 2026 17:17:46 GMT-0600 (Central Standard Time),839419.1000000015,O,z,1511,49,,86.bmp,-120,-120,87.bmp,120,-120,88.bmp,-120,120,89.bmp,120,120,9542.900000002235,829876.1999999993,7766,yes,SM,C,87.bmp,120,-120,336236,330212,338253,332221,828429.0,822402.0,830433.0,824415.0,49
3,0,0,1,0,34,test,1,1,m,Tue Mar 03 2026 17:17:46 GMT-0600 (Central Standard Time),848816.8000000007,O,m,1334,50,,82.bmp,-120,-120,83.bmp,120,-120,84.bmp,-120,120,85.bmp,120,120,9394.39999999851,839422.4000000022,7766,yes,SM,C,82.bmp,-120,120,336236,330212,338253,332221,837976.0,831949.0,839993.0,833963.0,50
2,0,1,0,0,34,test,1,0,z,Tue Mar 03 2026 17:17:46 GMT-0600 (Central Standard Time),858879.3000000007,O,None,2015,51,,94.bmp,-120,-120,95.bmp,120,-120,96.bmp,-120,120,97.bmp,120,120,10057.60000000149,848821.6999999993,7766,yes,SM,C,95.bmp,120,-120,336236,330212,338253,332221,847374.0,841348.0,849390.0,843359.0,51
4,0,0,0,1,35,test,1,1,m,Tue Mar 03 2026 17:17:46 GMT-0600 (Central Standard Time),868309.1000000015,O,m,1378,52,,98.bmp,-120,-120,99.bmp,120,-120,100.bmp,-120,120,81.bmp,120,120,9427.5,858881.6000000015,7766,yes,SM,C,98.bmp,120,120,336236,330212,338253,332221,857436.0,851408.0,859453.0,853421.0,52
3,0,0,1,0,35,test,1,0,z,Tue Mar 03 2026 17:17:46 GMT-0600 (Central Standard Time),878373.9000000022,O,None,2016,53,,51.bmp,-120,-120,52.bmp,120,-120,53.bmp,-120,120,54.bmp,120,120,10062.400000002235,868311.5,7766,yes,SM,C,53.bmp,-120,120,336236,330212,338253,332221,866868.0,860838.0,868884.0,862852.0,53
1,1,0,0,0,36,test,1,1,m,Tue Mar 03 2026 17:17:46 GMT-0600 (Central Standard Time),887986.9000000022,O,m,1556,54,,55.bmp,-120,-120,56.bmp,120,-120,57.bmp,-120,120,58.bmp,120,120,9606.70000000298,878380.1999999993,7766,yes,SM,C,57.bmp,-120,-120,336236,330212,338253,332221,876931.0,870907.0,878947.0,872916.0,54
4,0,0,0,1,36,test,1,0,z,Tue Mar 03 2026 17:17:46 GMT-0600 (Central Standard Time),898034.9000000022,O,None,2001,55,,59.bmp,-120,-120,60.bmp,120,-120,61.bmp,-120,120,62.bmp,120,120,10044.400000002235,887990.5,7766,yes,SM,C,62.bmp,120,120,336236,330212,338253,332221,886544.0,880517.0,888560.0,882530.0,55
2,0,1,0,0,37,test,1,1,m,Tue Mar 03 2026 17:17:46 GMT-0600 (Central Standard Time),907331.1999999993,O,m,1246,56,,63.bmp,-120,-120,64.bmp,120,-120,65.bmp,-120,120,66.bmp,120,120,9291.699999999255,898039.5,7766,yes,SM,C,63.bmp,120,-120,336236,330212,338253,332221,896591.0,890566.0,898608.0,892577.0,56
4,0,0,0,1,37,test,1,0,m,Tue Mar 03 2026 17:17:46 GMT-0600 (Central Standard Time),917394.4000000022,O,None,2015,57,,67.bmp,-120,-120,68.bmp,120,-120,69.bmp,-120,120,70.bmp,120,120,10059.0,907335.4000000022,7766,yes,SM,C,68.bmp,120,120,336236,330212,338253,332221,905889.0,899862.0,907905.0,901875.0,57
3,0,0,1,0,38,test,1,1,z,Tue Mar 03 2026 17:17:46 GMT-0600 (Central Standard Time),927291.6000000015,O,z,1862,58,,71.bmp,-120,-120,72.bmp,120,-120,73.bmp,-120,120,74.bmp,120,120,9893.400000002235,917398.1999999993,7766,yes,SM,C,73.bmp,-120,120,336236,330212,338253,332221,915950.0,909925.0,917954.0,911937.0,58
2,0,1,0,0,38,test,1,0,m,Tue Mar 03 2026 17:17:46 GMT-0600 (Central Standard Time),937354.3000000007,O,None,2015,59,,75.bmp,-120,-120,76.bmp,120,-120,77.bmp,-120,120,78.bmp,120,120,10057.89999999851,927296.4000000022,7766,yes,SM,C,78.bmp,120,-120,336236,330212,338253,332221,925849.0,919823.0,927865.0,921834.0,59
1,1,0,0,0,39,test,1,1,z,Tue Mar 03 2026 17:17:46 GMT-0600 (Central Standard Time),946984.3000000007,O,z,1575,60,,79.bmp,-120,-120,80.bmp,120,-120,81.bmp,-120,120,82.bmp,120,120,9625.89999999851,937358.4000000022,7766,yes,SM,C,79.bmp,-120,-120,336236,330212,338253,332221,935912.0,929885.0,937928.0,931897.0,60
2,0,1,0,0,40,test,1,1,z,Tue Mar 03 2026 17:17:46 GMT-0600 (Central Standard Time),956365.4000000022,O,z,1328,61,,83.bmp,-120,-120,84.bmp,120,-120,85.bmp,-120,120,86.bmp,120,120,9376.60000000149,946988.8000000007,7766,yes,SM,C,84.bmp,120,-120,336236,330212,338253,332221,945543.0,939515.0,947559.0,941528.0,61
4,0,0,0,1,41,test,1,1,z,Tue Mar 03 2026 17:17:46 GMT-0600 (Central Standard Time),966178.1000000015,O,z,1754,62,,91.bmp,-120,-120,92.bmp,120,-120,93.bmp,-120,120,94.bmp,120,120,9808.800000000745,956369.3000000007,7766,yes,SM,C,94.bmp,120,120,336236,330212,338253,332221,954922.0,948896.0,956940.0,950909.0,62
1,1,0,0,0,41,test,1,0,m,Tue Mar 03 2026 17:17:46 GMT-0600 (Central Standard Time),976242.3000000007,O,None,2014,63,,95.bmp,-120,-120,96.bmp,120,-120,97.bmp,-120,120,98.bmp,120,120,10059.60000000149,966182.6999999993,7766,yes,SM,C,95.bmp,-120,120,336236,330212,338253,332221,964736.0,958709.0,966754.0,960720.0,63
2,0,1,0,0,41,test,1,0,z,Tue Mar 03 2026 17:17:46 GMT-0600 (Central Standard Time),986305.6000000015,O,None,2015,64,,99.bmp,-120,-120,100.bmp,120,-120,62.bmp,-120,120,51.bmp,120,120,10058.10000000149,976247.5,7766,yes,SM,C,100.bmp,120,-120,336236,330212,338253,332221,974800.0,968774.0,976816.0,970785.0,64
4,0,0,0,1,42,test,1,1,m,Tue Mar 03 2026 17:17:46 GMT-0600 (Central Standard Time),996153.1999999993,O,m,1806,65,,52.bmp,-120,-120,53.bmp,120,-120,54.bmp,-120,120,55.bmp,120,120,9844.29999999702,986308.9000000022,7766,yes,SM,C,54.bmp,120,120,336236,330212,338253,332221,984863.0,978835.0,986865.0,980848.0,65
3,0,0,1,0,43,test,1,1,m,Tue Mar 03 2026 17:17:46 GMT-0600 (Central Standard Time),1005551.0,O,m,1336,66,,56.bmp,-120,-120,57.bmp,120,-120,58.bmp,-120,120,59.bmp,120,120,9395.0,996156.0,7766,yes,SM,C,59.bmp,-120,120,336236,330212,338253,332221,994711.0,988682.0,996727.0,990696.0,66
2,0,1,0,0,44,test,1,1,m,Tue Mar 03 2026 17:17:46 GMT-0600 (Central Standard Time),1015196.1999999993,O,m,1597,67,,87.bmp,-120,-120,88.bmp,120,-120,89.bmp,-120,120,90.bmp,120,120,9641.599999997765,1005554.6000000015,7766,yes,SM,C,89.bmp,120,-120,336236,330212,338253,332221,1004107.0,998081.0,1006125.0,1000093.0,67
3,0,0,1,0,44,test,1,0,z,Tue Mar 03 2026 17:17:46 GMT-0600 (Central Standard Time),1025245.9000000022,O,None,2001,68,,60.bmp,-120,-120,61.bmp,120,-120,62.bmp,-120,120,63.bmp,120,120,10046.10000000149,1015199.8000000007,7766,yes,SM,C,62.bmp,-120,120,336236,330212,338253,332221,1013754.0,1007726.0,1015771.0,1009739.0,68
1,1,0,0,0,45,test,1,1,m,Tue Mar 03 2026 17:17:46 GMT-0600 (Central Standard Time),1034790.5,O,m,1501,69,,64.bmp,-120,-120,65.bmp,120,-120,66.bmp,-120,120,67.bmp,120,120,9541.300000000745,1025249.1999999993,7766,yes,SM,C,65.bmp,-120,-120,336236,330212,338253,332221,1023785.0,1017776.0,1025802.0,1019784.0,69
2,0,1,0,0,46,test,1,1,m,Tue Mar 03 2026 17:17:46 GMT-0600 (Central Standard Time),1044571.4000000022,O,m,1723,70,,68.bmp,-120,-120,69.bmp,120,-120,70.bmp,-120,120,71.bmp,120,120,9776.900000002235,1034794.5,7766,yes,SM,C,70.bmp,120,-120,336236,330212,338253,332221,1033349.0,1027321.0,1035364.0,1029333.0,70
4,0,0,0,1,47,test,1,1,z,Tue Mar 03 2026 17:17:46 GMT-0600 (Central Standard Time),1053883.0,O,z,1263,71,,72.bmp,-120,-120,73.bmp,120,-120,74.bmp,-120,120,75.bmp,120,120,9308.099999997765,1044574.9000000022,7766,yes,SM,C,75.bmp,120,120,336236,330212,338253,332221,1043130.0,1037101.0,1045144.0,1039114.0,71
1,1,0,0,0,48,test,1,1,z,Tue Mar 03 2026 17:17:46 GMT-0600 (Central Standard Time),1063598.3000000007,O,z,1653,72,,76.bmp,-120,-120,77.bmp,120,-120,78.bmp,-120,120,79.bmp,120,120,9713.199999999255,1053885.1000000015,7766,yes,SM,C,76.bmp,-120,-120,336236,330212,338253,332221,1052441.0,1046411.0,1054458.0,1048426.0,72
2,0,1,0,0,48,test,1,0,z,Tue Mar 03 2026 17:17:46 GMT-0600 (Central Standard Time),1073311.1000000015,O,m,1660,73,,80.bmp,-120,-120,81.bmp,120,-120,82.bmp,-120,120,83.bmp,120,120,9707.60000000149,1063603.5,7766,yes,SM,C,81.bmp,120,-120,336236,330212,338253,332221,1062156.0,1056130.0,1064171.0,1058141.0,73
4,0,0,0,1,49,test,1,1,m,Tue Mar 03 2026 17:17:46 GMT-0600 (Central Standard Time),1083107.8000000007,O,m,1737,74,,84.bmp,-120,-120,85.bmp,120,-120,86.bmp,-120,120,87.bmp,120,120,9791.300000000745,1073316.5,7766,yes,SM,C,86.bmp,120,120,336236,330212,338253,332221,1071870.0,1065843.0,1073885.0,1067854.0,74
2,0,1,0,0,50,test,1,1,m,Tue Mar 03 2026 17:17:46 GMT-0600 (Central Standard Time),1092822.0,O,m,1653,75,,88.bmp,-120,-120,89.bmp,120,-120,90.bmp,-120,120,91.bmp,120,120,9712.0,1083110.0,7766,yes,SM,C,91.bmp,120,-120,336236,330212,338253,332221,1081665.0,1075636.0,1083683.0,1077650.0,75
1,1,0,0,0,51,test,1,1,z,Tue Mar 03 2026 17:17:46 GMT-0600 (Central Standard Time),1102051.8000000007,O,z,1172,76,,92.bmp,-120,-120,93.bmp,120,-120,94.bmp,-120,120,95.bmp,120,120,9226.800000000745,1092825.0,7766,yes,SM,C,92.bmp,-120,-120,336236,330212,338253,332221,1091379.0,1085351.0,1093395.0,1087365.0,76
3,0,0,1,0,52,test,1,1,z,Tue Mar 03 2026 17:17:46 GMT-0600 (Central Standard Time),1111682.1000000015,O,z,1589,77,,100.bmp,-120,-120,61.bmp,120,-120,51.bmp,-120,120,52.bmp,120,120,9625.60000000149,1102056.5,7766,yes,SM,C,51.bmp,-120,120,336236,330212,338253,332221,1100608.0,1094583.0,1102610.0,1096593.0,77
1,1,0,0,0,53,test,1,1,m,Tue Mar 03 2026 17:17:46 GMT-0600 (Central Standard Time),1121428.3000000007,O,m,1694,78,,96.bmp,-120,-120,97.bmp,120,-120,98.bmp,-120,120,99.bmp,120,120,9742.89999999851,1111685.4000000022,7766,yes,SM,C,97.bmp,-120,-120,336236,330212,338253,332221,1110241.0,1104212.0,1112257.0,1106225.0,78
4,0,0,0,1,54,test,1,1,m,Tue Mar 03 2026 17:17:46 GMT-0600 (Central Standard Time),1131026.9000000022,O,m,1541,79,,57.bmp,-120,-120,58.bmp,120,-120,59.bmp,-120,120,60.bmp,120,120,9595.70000000298,1121431.1999999993,7766,yes,SM,C,57.bmp,120,120,336236,330212,338253,332221,1119987.0,1113957.0,1122003.0,1115971.0,79
3,0,0,1,0,55,test,1,1,m,Tue Mar 03 2026 17:17:46 GMT-0600 (Central Standard Time),1140390.5,O,m,1310,80,,53.bmp,-120,-120,54.bmp,120,-120,55.bmp,-120,120,56.bmp,120,120,9360.89999999851,1131029.6000000015,7766,yes,SM,C,56.bmp,-120,120,336236,330212,338253,332221,1129585.0,1123556.0,1131601.0,1125570.0,80
