acc_sum,block,block_c,change,condition,correct,correct_response,datetime,endtime,face,project,response,response_time,row_sel,session_number,start_end,starttime,subject_id,task,task_vers,trial
0,prac,1,,1-Back,,,Tue Mar 17 2026 09:32:23 GMT-0400 (Eastern Daylight Time),,093_m_f_n_a.png,I,space,15436,1,1,,,9068,NNB,C,0
1,prac,1,0.0,1-Back,1.0,m,Tue Mar 17 2026 09:32:23 GMT-0400 (Eastern Daylight Time),248687.6000000001,098_y_f_n_a.png,I,m,573,2,1,1481.3999999999069,247206.2000000002,9068,NNB,C,1
2,prac,1,1.0,1-Back,1.0,z,Tue Mar 17 2026 09:32:23 GMT-0400 (Eastern Daylight Time),250854.7999999998,098_y_f_n_a.png,I,z,1385,3,1,2162.1999999997206,248692.6000000001,9068,NNB,C,2
3,prac,1,0.0,1-Back,1.0,m,Tue Mar 17 2026 09:32:23 GMT-0400 (Eastern Daylight Time),252421.6000000001,059_o_m_n_a.png,I,m,642,4,1,1557.8000000002794,250863.7999999998,9068,NNB,C,3
4,prac,1,0.0,1-Back,1.0,m,Tue Mar 17 2026 09:32:23 GMT-0400 (Eastern Daylight Time),253921.5,092_m_m_n_a.png,I,m,554,5,1,1485.7000000001863,252435.7999999998,9068,NNB,C,4
5,prac,1,1.0,1-Back,1.0,z,Tue Mar 17 2026 09:32:23 GMT-0400 (Eastern Daylight Time),255221.2000000002,092_m_m_n_a.png,I,z,516,6,1,1291.8000000002794,253929.3999999999,9068,NNB,C,5
6,prac,1,0.0,1-Back,1.0,m,Tue Mar 17 2026 09:32:23 GMT-0400 (Eastern Daylight Time),256821.6000000001,130_o_f_n_a.png,I,m,628,7,1,1586.0,255235.6000000001,9068,NNB,C,6
7,prac,1,0.0,1-Back,1.0,m,Tue Mar 17 2026 09:32:23 GMT-0400 (Eastern Daylight Time),258571.2000000002,082_m_m_n_a.png,I,m,823,8,1,1741.4000000003725,256829.7999999998,9068,NNB,C,7
8,prac,1,0.0,1-Back,1.0,m,Tue Mar 17 2026 09:32:23 GMT-0400 (Eastern Daylight Time),259954.6000000001,093_m_f_n_a.png,I,m,596,9,1,1368.6000000000931,258586.0,9068,NNB,C,8
9,prac,1,1.0,1-Back,1.0,z,Tue Mar 17 2026 09:32:23 GMT-0400 (Eastern Daylight Time),261387.5,093_m_f_n_a.png,I,z,643,10,1,1425.1000000000931,259962.3999999999,9068,NNB,C,9
10,prac,1,0.0,1-Back,1.0,m,Tue Mar 17 2026 09:32:23 GMT-0400 (Eastern Daylight Time),262804.7999999998,059_o_m_n_a.png,I,m,628,11,1,1403.3999999999069,261401.3999999999,9068,NNB,C,10
11,prac,1,0.0,1-Back,1.0,m,Tue Mar 17 2026 09:32:23 GMT-0400 (Eastern Daylight Time),264704.6000000001,028_y_f_n_a.png,I,m,981,12,1,1888.8000000002794,262815.7999999998,9068,NNB,C,11
0,test,1,0.0,1-Back,,,Tue Mar 17 2026 09:32:23 GMT-0400 (Eastern Daylight Time),264704.6000000001,098_y_f_n_a.png,I,space,16457,1,1,1888.8000000002794,262815.7999999998,9068,NNB,C,0
1,test,1,0.0,1-Back,1.0,m,Tue Mar 17 2026 09:32:23 GMT-0400 (Eastern Daylight Time),291804.7999999998,006_m_f_n_a.png,I,m,535,2,1,1553.1999999997206,290251.6000000001,9068,NNB,C,1
2,test,1,0.0,1-Back,1.0,m,Tue Mar 17 2026 09:32:23 GMT-0400 (Eastern Daylight Time),293421.2000000002,028_y_f_n_a.png,I,m,584,3,1,1610.2000000001863,291811.0,9068,NNB,C,2
3,test,1,1.0,1-Back,1.0,z,Tue Mar 17 2026 09:32:23 GMT-0400 (Eastern Daylight Time),294921.2999999998,028_y_f_n_a.png,I,z,455,4,1,1481.1999999997206,293440.1000000001,9068,NNB,C,3
4,test,1,0.0,1-Back,1.0,m,Tue Mar 17 2026 09:32:23 GMT-0400 (Eastern Daylight Time),296471.2000000002,006_m_f_n_a.png,I,m,522,5,1,1543.1000000000931,294928.1000000001,9068,NNB,C,4
5,test,1,0.0,1-Back,1.0,m,Tue Mar 17 2026 09:32:23 GMT-0400 (Eastern Daylight Time),298287.6000000001,059_o_m_n_a.png,I,m,798,6,1,1804.7000000001863,296482.8999999999,9068,NNB,C,5
6,test,1,1.0,1-Back,1.0,z,Tue Mar 17 2026 09:32:23 GMT-0400 (Eastern Daylight Time),299871.0,059_o_m_n_a.png,I,z,565,7,1,1576.0,298295.0,9068,NNB,C,6
7,test,1,0.0,1-Back,1.0,m,Tue Mar 17 2026 09:32:23 GMT-0400 (Eastern Daylight Time),301471.2999999998,092_m_m_n_a.png,I,m,582,8,1,1590.2999999998137,299881.0,9068,NNB,C,7
8,test,1,0.0,1-Back,1.0,m,Tue Mar 17 2026 09:32:23 GMT-0400 (Eastern Daylight Time),303037.7000000002,130_o_f_n_a.png,I,m,532,9,1,1559.3000000002794,301478.3999999999,9068,NNB,C,8
9,test,1,0.0,1-Back,1.0,m,Tue Mar 17 2026 09:32:23 GMT-0400 (Eastern Daylight Time),304571.2999999998,092_m_m_n_a.png,I,m,503,10,1,1528.2999999998137,303043.0,9068,NNB,C,9
10,test,1,0.0,1-Back,1.0,m,Tue Mar 17 2026 09:32:23 GMT-0400 (Eastern Daylight Time),306221.2000000002,057_y_m_n_a.png,I,m,618,11,1,1641.4000000003725,304579.7999999998,9068,NNB,C,10
11,test,1,1.0,1-Back,1.0,z,Tue Mar 17 2026 09:32:23 GMT-0400 (Eastern Daylight Time),308021.2999999998,057_y_m_n_a.png,I,z,776,12,1,1788.1999999997206,306233.1000000001,9068,NNB,C,11
12,test,1,0.0,1-Back,1.0,m,Tue Mar 17 2026 09:32:23 GMT-0400 (Eastern Daylight Time),309687.8999999999,030_o_f_n_a.png,I,m,640,13,1,1659.3999999999069,308028.5,9068,NNB,C,12
13,test,1,1.0,1-Back,1.0,z,Tue Mar 17 2026 09:32:23 GMT-0400 (Eastern Daylight Time),311237.8999999999,030_o_f_n_a.png,I,z,525,14,1,1537.2999999998137,309700.6000000001,9068,NNB,C,13
14,test,1,0.0,1-Back,1.0,m,Tue Mar 17 2026 09:32:23 GMT-0400 (Eastern Daylight Time),313070.8999999999,031_y_m_n_a.png,I,m,815,15,1,1824.1999999997206,311246.7000000002,9068,NNB,C,14
15,test,1,0.0,1-Back,1.0,m,Tue Mar 17 2026 09:32:23 GMT-0400 (Eastern Daylight Time),315087.6000000001,093_m_f_n_a.png,I,m,997,16,1,2005.1000000000931,313082.5,9068,NNB,C,15
16,test,1,0.0,1-Back,1.0,m,Tue Mar 17 2026 09:32:23 GMT-0400 (Eastern Daylight Time),316637.8999999999,146_o_m_n_a.png,I,m,517,17,1,1541.1000000000931,315096.7999999998,9068,NNB,C,16
17,test,1,0.0,1-Back,1.0,m,Tue Mar 17 2026 09:32:23 GMT-0400 (Eastern Daylight Time),318137.7999999998,093_m_f_n_a.png,I,m,471,18,1,1486.6999999997206,316651.1000000001,9068,NNB,C,17
0,test,2,0.0,1-Back,,,Tue Mar 17 2026 09:32:23 GMT-0400 (Eastern Daylight Time),318137.7999999998,092_m_m_n_a.png,I,space,5283,1,1,1486.6999999997206,316651.1000000001,9068,NNB,C,0
1,test,2,0.0,1-Back,1.0,m,Tue Mar 17 2026 09:32:23 GMT-0400 (Eastern Daylight Time),327104.2999999998,006_m_f_n_a.png,I,m,630,2,1,1643.5999999996275,325460.7000000002,9068,NNB,C,1
2,test,2,1.0,1-Back,1.0,z,Tue Mar 17 2026 09:32:23 GMT-0400 (Eastern Daylight Time),328704.2999999998,006_m_f_n_a.png,I,z,580,3,1,1588.5,327115.7999999998,9068,NNB,C,2
3,test,2,0.0,1-Back,1.0,m,Tue Mar 17 2026 09:32:23 GMT-0400 (Eastern Daylight Time),330237.7999999998,092_m_m_n_a.png,I,m,500,4,1,1526.5,328711.2999999998,9068,NNB,C,3
4,test,2,0.0,1-Back,1.0,m,Tue Mar 17 2026 09:32:23 GMT-0400 (Eastern Daylight Time),331687.8999999999,057_y_m_n_a.png,I,m,422,5,1,1439.6000000000931,330248.2999999998,9068,NNB,C,4
5,test,2,0.0,1-Back,1.0,m,Tue Mar 17 2026 09:32:23 GMT-0400 (Eastern Daylight Time),333154.5,098_y_f_n_a.png,I,m,445,6,1,1460.8999999999069,331693.6000000001,9068,NNB,C,5
6,test,2,1.0,1-Back,1.0,z,Tue Mar 17 2026 09:32:23 GMT-0400 (Eastern Daylight Time),334937.8999999999,098_y_f_n_a.png,I,z,755,7,1,1771.3999999999069,333166.5,9068,NNB,C,6
7,test,2,0.0,1-Back,1.0,m,Tue Mar 17 2026 09:32:23 GMT-0400 (Eastern Daylight Time),336554.6000000001,057_y_m_n_a.png,I,m,587,8,1,1607.7000000001863,334946.8999999999,9068,NNB,C,7
8,test,2,0.0,1-Back,1.0,m,Tue Mar 17 2026 09:32:23 GMT-0400 (Eastern Daylight Time),338021.2000000002,030_o_f_n_a.png,I,m,442,9,1,1456.7000000001863,336564.5,9068,NNB,C,8
9,test,2,0.0,1-Back,1.0,m,Tue Mar 17 2026 09:32:23 GMT-0400 (Eastern Daylight Time),339521.0,082_m_m_n_a.png,I,m,479,10,1,1493.0,338028.0,9068,NNB,C,9
10,test,2,1.0,1-Back,1.0,z,Tue Mar 17 2026 09:32:23 GMT-0400 (Eastern Daylight Time),341121.0,082_m_m_n_a.png,I,z,580,11,1,1586.8999999999069,339534.1000000001,9068,NNB,C,10
11,test,2,0.0,1-Back,1.0,m,Tue Mar 17 2026 09:32:23 GMT-0400 (Eastern Daylight Time),342854.6000000001,030_o_f_n_a.png,I,m,707,12,1,1727.3000000002794,341127.2999999998,9068,NNB,C,11
12,test,2,0.0,1-Back,1.0,m,Tue Mar 17 2026 09:32:23 GMT-0400 (Eastern Daylight Time),344387.7999999998,130_o_f_n_a.png,I,m,510,13,1,1521.6999999997206,342866.1000000001,9068,NNB,C,12
13,test,2,0.0,1-Back,1.0,m,Tue Mar 17 2026 09:32:23 GMT-0400 (Eastern Daylight Time),345887.6000000001,059_o_m_n_a.png,I,m,482,14,1,1492.3999999999069,344395.2000000002,9068,NNB,C,13
14,test,2,0.0,1-Back,1.0,m,Tue Mar 17 2026 09:32:23 GMT-0400 (Eastern Daylight Time),347471.0,146_o_m_n_a.png,I,m,565,15,1,1571.0,345900.0,9068,NNB,C,14
15,test,2,1.0,1-Back,1.0,z,Tue Mar 17 2026 09:32:23 GMT-0400 (Eastern Daylight Time),348971.2000000002,146_o_m_n_a.png,I,z,469,16,1,1494.3000000002794,347476.8999999999,9068,NNB,C,15
16,test,2,0.0,1-Back,1.0,m,Tue Mar 17 2026 09:32:23 GMT-0400 (Eastern Daylight Time),350488.0,031_y_m_n_a.png,I,m,489,17,1,1503.5,348984.5,9068,NNB,C,16
17,test,2,1.0,1-Back,1.0,z,Tue Mar 17 2026 09:32:23 GMT-0400 (Eastern Daylight Time),352104.6000000001,031_y_m_n_a.png,I,z,589,18,1,1609.2000000001863,350495.3999999999,9068,NNB,C,17
0,test,3,1.0,1-Back,,,Tue Mar 17 2026 09:32:23 GMT-0400 (Eastern Daylight Time),352104.6000000001,028_y_f_n_a.png,I,space,1860,1,1,1609.2000000001863,350495.3999999999,9068,NNB,C,0
1,test,3,0.0,1-Back,1.0,m,Tue Mar 17 2026 09:32:23 GMT-0400 (Eastern Daylight Time),357704.5,146_o_m_n_a.png,I,m,540,1,1,1560.2999999998137,356144.2000000002,9068,NNB,C,1
2,test,3,1.0,1-Back,1.0,z,Tue Mar 17 2026 09:32:23 GMT-0400 (Eastern Daylight Time),359204.6000000001,146_o_m_n_a.png,I,z,476,1,1,1485.7000000001863,357718.8999999999,9068,NNB,C,2
3,test,3,0.0,1-Back,1.0,m,Tue Mar 17 2026 09:32:23 GMT-0400 (Eastern Daylight Time),360604.6000000001,093_m_f_n_a.png,I,m,368,1,1,1393.3000000002794,359211.2999999998,9068,NNB,C,3
4,test,3,1.0,1-Back,1.0,z,Tue Mar 17 2026 09:32:23 GMT-0400 (Eastern Daylight Time),362137.8999999999,093_m_f_n_a.png,I,z,504,1,1,1519.2999999998137,360618.6000000001,9068,NNB,C,4
5,test,3,0.0,1-Back,1.0,m,Tue Mar 17 2026 09:32:23 GMT-0400 (Eastern Daylight Time),363704.6000000001,030_o_f_n_a.png,I,m,539,1,1,1559.6000000000931,362145.0,9068,NNB,C,5
6,test,3,0.0,1-Back,1.0,m,Tue Mar 17 2026 09:32:23 GMT-0400 (Eastern Daylight Time),365204.1000000001,057_y_m_n_a.png,I,m,476,1,1,1487.8000000002794,363716.2999999998,9068,NNB,C,6
7,test,3,0.0,1-Back,1.0,m,Tue Mar 17 2026 09:32:23 GMT-0400 (Eastern Daylight Time),366737.7999999998,030_o_f_n_a.png,I,m,512,1,1,1530.1999999997206,365207.6000000001,9068,NNB,C,7
8,test,3,0.0,1-Back,1.0,m,Tue Mar 17 2026 09:32:23 GMT-0400 (Eastern Daylight Time),368304.2999999998,031_y_m_n_a.png,I,m,531,1,1,1548.5,366755.7999999998,9068,NNB,C,8
9,test,3,1.0,1-Back,1.0,z,Tue Mar 17 2026 09:32:23 GMT-0400 (Eastern Daylight Time),369837.8999999999,031_y_m_n_a.png,I,z,500,1,1,1527.5,368310.3999999999,9068,NNB,C,9
10,test,3,0.0,1-Back,1.0,m,Tue Mar 17 2026 09:32:23 GMT-0400 (Eastern Daylight Time),371471.2000000002,006_m_f_n_a.png,I,m,614,1,1,1619.0,369852.2000000002,9068,NNB,C,10
11,test,3,0.0,1-Back,1.0,m,Tue Mar 17 2026 09:32:23 GMT-0400 (Eastern Daylight Time),373004.6000000001,098_y_f_n_a.png,I,m,502,1,1,1527.8000000002794,371476.7999999998,9068,NNB,C,11
12,test,3,1.0,1-Back,1.0,z,Tue Mar 17 2026 09:32:23 GMT-0400 (Eastern Daylight Time),374521.1000000001,098_y_f_n_a.png,I,z,488,1,1,1504.8999999999069,373016.2000000002,9068,NNB,C,12
13,test,3,0.0,1-Back,1.0,m,Tue Mar 17 2026 09:32:23 GMT-0400 (Eastern Daylight Time),376137.8999999999,006_m_f_n_a.png,I,m,587,1,1,1607.7999999998137,374530.1000000001,9068,NNB,C,13
14,test,3,0.0,1-Back,1.0,m,Tue Mar 17 2026 09:32:23 GMT-0400 (Eastern Daylight Time),377654.6000000001,092_m_m_n_a.png,I,m,491,1,1,1503.8000000002794,376150.7999999998,9068,NNB,C,14
15,test,3,1.0,1-Back,1.0,z,Tue Mar 17 2026 09:32:23 GMT-0400 (Eastern Daylight Time),379321.2999999998,092_m_m_n_a.png,I,z,639,1,1,1660.0999999996275,377661.2000000002,9068,NNB,C,15
16,test,3,0.0,1-Back,1.0,m,Tue Mar 17 2026 09:32:23 GMT-0400 (Eastern Daylight Time),380921.2999999998,130_o_f_n_a.png,I,m,571,1,1,1587.2999999998137,379334.0,9068,NNB,C,16
17,test,3,1.0,1-Back,1.0,z,Tue Mar 17 2026 09:32:23 GMT-0400 (Eastern Daylight Time),382437.8999999999,130_o_f_n_a.png,I,z,491,1,1,1508.2999999998137,380929.6000000001,9068,NNB,C,17
0,test,4,1.0,1-Back,,,Tue Mar 17 2026 09:32:23 GMT-0400 (Eastern Daylight Time),382437.8999999999,093_m_f_n_a.png,I,space,1687,1,1,1508.2999999998137,380929.6000000001,9068,NNB,C,0
1,test,4,0.0,1-Back,1.0,m,Tue Mar 17 2026 09:32:23 GMT-0400 (Eastern Daylight Time),387854.6000000001,146_o_m_n_a.png,I,m,534,2,1,1560.3999999999069,386294.2000000002,9068,NNB,C,1
2,test,4,0.0,1-Back,1.0,m,Tue Mar 17 2026 09:32:23 GMT-0400 (Eastern Daylight Time),389354.6000000001,093_m_f_n_a.png,I,m,471,3,1,1485.8000000002794,387868.7999999998,9068,NNB,C,2
3,test,4,0.0,1-Back,1.0,m,Tue Mar 17 2026 09:32:23 GMT-0400 (Eastern Daylight Time),391021.2000000002,030_o_f_n_a.png,I,m,634,4,1,1659.0,389362.2000000002,9068,NNB,C,3
4,test,4,1.0,1-Back,1.0,z,Tue Mar 17 2026 09:32:23 GMT-0400 (Eastern Daylight Time),392487.8999999999,030_o_f_n_a.png,I,z,439,5,1,1454.5,391033.3999999999,9068,NNB,C,4
5,test,4,0.0,1-Back,1.0,m,Tue Mar 17 2026 09:32:23 GMT-0400 (Eastern Daylight Time),393921.0,098_y_f_n_a.png,I,m,413,6,1,1426.8999999999069,392494.1000000001,9068,NNB,C,5
6,test,4,0.0,1-Back,1.0,m,Tue Mar 17 2026 09:32:23 GMT-0400 (Eastern Daylight Time),395537.7999999998,057_y_m_n_a.png,I,m,595,7,1,1604.5999999996275,393933.2000000002,9068,NNB,C,6
7,test,4,1.0,1-Back,1.0,z,Tue Mar 17 2026 09:32:23 GMT-0400 (Eastern Daylight Time),397004.7000000002,057_y_m_n_a.png,I,z,435,8,1,1458.0,395546.7000000002,9068,NNB,C,7
8,test,4,0.0,1-Back,1.0,m,Tue Mar 17 2026 09:32:23 GMT-0400 (Eastern Daylight Time),398521.2000000002,098_y_f_n_a.png,I,m,488,9,1,1509.8000000002794,397011.3999999999,9068,NNB,C,8
9,test,4,0.0,1-Back,1.0,m,Tue Mar 17 2026 09:32:23 GMT-0400 (Eastern Daylight Time),400187.8999999999,082_m_m_n_a.png,I,m,636,10,1,1655.1999999997206,398532.7000000002,9068,NNB,C,9
10,test,4,1.0,1-Back,1.0,z,Tue Mar 17 2026 09:32:23 GMT-0400 (Eastern Daylight Time),401854.6000000001,082_m_m_n_a.png,I,z,633,11,1,1659.5,400195.1000000001,9068,NNB,C,10
11,test,4,0.0,1-Back,1.0,m,Tue Mar 17 2026 09:32:23 GMT-0400 (Eastern Daylight Time),403404.6000000001,130_o_f_n_a.png,I,m,518,12,1,1538.1000000000931,401866.5,9068,NNB,C,11
12,test,4,0.0,1-Back,1.0,m,Tue Mar 17 2026 09:32:23 GMT-0400 (Eastern Daylight Time),404987.8999999999,059_o_m_n_a.png,I,m,552,13,1,1575.5,403412.3999999999,9068,NNB,C,12
13,test,4,0.0,1-Back,1.0,m,Tue Mar 17 2026 09:32:23 GMT-0400 (Eastern Daylight Time),406554.6000000001,130_o_f_n_a.png,I,m,537,14,1,1554.1000000000931,405000.5,9068,NNB,C,13
14,test,4,0.0,1-Back,1.0,m,Tue Mar 17 2026 09:32:23 GMT-0400 (Eastern Daylight Time),408137.8999999999,028_y_f_n_a.png,I,m,554,15,1,1576.3999999999069,406561.5,9068,NNB,C,14
15,test,4,1.0,1-Back,1.0,z,Tue Mar 17 2026 09:32:23 GMT-0400 (Eastern Daylight Time),409587.8999999999,028_y_f_n_a.png,I,z,410,16,1,1433.6999999997206,408154.2000000002,9068,NNB,C,15
16,test,4,0.0,1-Back,1.0,m,Tue Mar 17 2026 09:32:23 GMT-0400 (Eastern Daylight Time),411204.6000000001,006_m_f_n_a.png,I,m,594,17,1,1609.6000000000931,409595.0,9068,NNB,C,16
17,test,4,1.0,1-Back,1.0,z,Tue Mar 17 2026 09:32:23 GMT-0400 (Eastern Daylight Time),412821.3999999999,006_m_f_n_a.png,I,z,593,18,1,1603.6000000000931,411217.7999999998,9068,NNB,C,17
0,test,5,1.0,1-Back,,,Tue Mar 17 2026 09:32:23 GMT-0400 (Eastern Daylight Time),412821.3999999999,059_o_m_n_a.png,I,space,1479,1,1,1603.6000000000931,411217.7999999998,9068,NNB,C,0
1,test,5,1.0,1-Back,1.0,z,Tue Mar 17 2026 09:32:23 GMT-0400 (Eastern Daylight Time),417871.0,059_o_m_n_a.png,I,z,532,2,1,1536.0,416335.0,9068,NNB,C,1
2,test,5,0.0,1-Back,1.0,m,Tue Mar 17 2026 09:32:23 GMT-0400 (Eastern Daylight Time),419504.2000000002,098_y_f_n_a.png,I,m,614,3,1,1627.7000000001863,417876.5,9068,NNB,C,2
3,test,5,0.0,1-Back,1.0,m,Tue Mar 17 2026 09:32:23 GMT-0400 (Eastern Daylight Time),421137.8999999999,057_y_m_n_a.png,I,m,612,4,1,1621.2999999998137,419516.6000000001,9068,NNB,C,3
4,test,5,0.0,1-Back,1.0,m,Tue Mar 17 2026 09:32:23 GMT-0400 (Eastern Daylight Time),422737.7999999998,098_y_f_n_a.png,I,m,580,5,1,1592.8999999999069,421144.8999999999,9068,NNB,C,4
5,test,5,0.0,1-Back,1.0,m,Tue Mar 17 2026 09:32:23 GMT-0400 (Eastern Daylight Time),424354.6000000001,092_m_m_n_a.png,I,m,594,6,1,1603.0,422751.6000000001,9068,NNB,C,5
6,test,5,1.0,1-Back,1.0,z,Tue Mar 17 2026 09:32:23 GMT-0400 (Eastern Daylight Time),425854.8999999999,092_m_m_n_a.png,I,z,482,7,1,1493.7999999998137,424361.1000000001,9068,NNB,C,6
7,test,5,0.0,1-Back,1.0,m,Tue Mar 17 2026 09:32:23 GMT-0400 (Eastern Daylight Time),427404.6000000001,028_y_f_n_a.png,I,m,518,8,1,1538.7000000001863,425865.8999999999,9068,NNB,C,7
8,test,5,0.0,1-Back,1.0,m,Tue Mar 17 2026 09:32:23 GMT-0400 (Eastern Daylight Time),428987.8999999999,031_y_m_n_a.png,I,m,552,9,1,1574.3999999999069,427413.5,9068,NNB,C,8
9,test,5,0.0,1-Back,1.0,m,Tue Mar 17 2026 09:32:23 GMT-0400 (Eastern Daylight Time),430621.2999999998,028_y_f_n_a.png,I,m,601,10,1,1619.3999999999069,429001.8999999999,9068,NNB,C,9
10,test,5,0.0,1-Back,1.0,m,Tue Mar 17 2026 09:32:23 GMT-0400 (Eastern Daylight Time),432221.2999999998,130_o_f_n_a.png,I,m,567,11,1,1592.7999999998137,430628.5,9068,NNB,C,10
11,test,5,1.0,1-Back,1.0,z,Tue Mar 17 2026 09:32:23 GMT-0400 (Eastern Daylight Time),433771.2000000002,130_o_f_n_a.png,I,z,504,12,1,1535.3000000002794,432235.8999999999,9068,NNB,C,11
12,test,5,0.0,1-Back,1.0,m,Tue Mar 17 2026 09:32:23 GMT-0400 (Eastern Daylight Time),435621.2999999998,146_o_m_n_a.png,I,m,826,13,1,1841.6999999997206,433779.6000000001,9068,NNB,C,12
13,test,5,0.0,1-Back,1.0,m,Tue Mar 17 2026 09:32:23 GMT-0400 (Eastern Daylight Time),437104.2999999998,093_m_f_n_a.png,I,m,463,14,1,1470.5999999996275,435633.7000000002,9068,NNB,C,13
14,test,5,1.0,1-Back,1.0,z,Tue Mar 17 2026 09:32:23 GMT-0400 (Eastern Daylight Time),438554.6000000001,093_m_f_n_a.png,I,z,420,15,1,1442.1000000000931,437112.5,9068,NNB,C,14
15,test,5,0.0,1-Back,1.0,m,Tue Mar 17 2026 09:32:23 GMT-0400 (Eastern Daylight Time),440138.0,146_o_m_n_a.png,I,m,554,16,1,1569.5,438568.5,9068,NNB,C,15
16,test,5,0.0,1-Back,1.0,m,Tue Mar 17 2026 09:32:23 GMT-0400 (Eastern Daylight Time),441671.2000000002,006_m_f_n_a.png,I,m,507,17,1,1524.6000000000931,440146.6000000001,9068,NNB,C,16
17,test,5,0.0,1-Back,1.0,m,Tue Mar 17 2026 09:32:23 GMT-0400 (Eastern Daylight Time),443237.8999999999,082_m_m_n_a.png,I,m,542,18,1,1555.1999999997206,441682.7000000002,9068,NNB,C,17
0,prac,1,0.0,2-Back,,,Tue Mar 17 2026 09:32:23 GMT-0400 (Eastern Daylight Time),443237.8999999999,031_y_m_n_a.png,I,space,11839,1,1,1555.1999999997206,441682.7000000002,9068,NNB,C,0
0,prac,1,0.0,2-Back,,,Tue Mar 17 2026 09:32:23 GMT-0400 (Eastern Daylight Time),443237.8999999999,006_m_f_n_a.png,I,space,11839,2,1,1555.1999999997206,441682.7000000002,9068,NNB,C,0
1,prac,1,1.0,2-Back,1.0,m,Tue Mar 17 2026 09:32:23 GMT-0400 (Eastern Daylight Time),590255.0,146_o_m_n_a.png,I,m,1588,3,1,2526.2000000001863,587728.7999999998,9068,NNB,C,1
2,prac,1,0.0,2-Back,1.0,m,Tue Mar 17 2026 09:32:23 GMT-0400 (Eastern Daylight Time),592588.2000000002,130_o_f_n_a.png,I,m,1365,4,1,2315.8000000002794,590272.3999999999,9068,NNB,C,2
3,prac,1,0.0,2-Back,1.0,z,Tue Mar 17 2026 09:32:23 GMT-0400 (Eastern Daylight Time),594604.6000000001,146_o_m_n_a.png,I,z,1226,5,1,2008.7000000001863,592595.8999999999,9068,NNB,C,3
4,prac,1,1.0,2-Back,1.0,z,Tue Mar 17 2026 09:32:23 GMT-0400 (Eastern Daylight Time),596705.1000000001,130_o_f_n_a.png,I,z,1317,6,1,2088.5,594616.6000000001,9068,NNB,C,4
5,prac,1,0.0,2-Back,1.0,m,Tue Mar 17 2026 09:32:23 GMT-0400 (Eastern Daylight Time),598888.1000000001,082_m_m_n_a.png,I,m,1258,7,1,2174.899999999907,596713.2000000002,9068,NNB,C,5
6,prac,1,0.0,2-Back,1.0,m,Tue Mar 17 2026 09:32:23 GMT-0400 (Eastern Daylight Time),600854.7999999998,059_o_m_n_a.png,I,m,1027,8,1,1950.7999999998137,598904.0,9068,NNB,C,6
7,prac,1,0.0,2-Back,1.0,m,Tue Mar 17 2026 09:32:23 GMT-0400 (Eastern Daylight Time),602654.7999999998,028_y_f_n_a.png,I,m,883,9,1,1791.6999999997206,600863.1000000001,9068,NNB,C,7
8,prac,1,1.0,2-Back,1.0,z,Tue Mar 17 2026 09:32:23 GMT-0400 (Eastern Daylight Time),604538.2999999998,059_o_m_n_a.png,I,z,1091,10,1,1870.7999999998137,602667.5,9068,NNB,C,8
9,prac,1,0.0,2-Back,1.0,m,Tue Mar 17 2026 09:32:23 GMT-0400 (Eastern Daylight Time),606404.7999999998,098_y_f_n_a.png,I,m,953,11,1,1858.8999999999069,604545.8999999999,9068,NNB,C,9
9,prac,1,0.0,2-Back,0.0,m,Tue Mar 17 2026 09:32:23 GMT-0400 (Eastern Daylight Time),608321.3999999999,082_m_m_n_a.png,I,z,1130,12,1,1901.6000000000931,606419.7999999998,9068,NNB,C,10
0,test,1,0.0,2-Back,,,Tue Mar 17 2026 09:32:23 GMT-0400 (Eastern Daylight Time),608321.3999999999,057_y_m_n_a.png,I,space,18407,1,1,1901.6000000000931,606419.7999999998,9068,NNB,C,0
0,test,1,0.0,2-Back,,,Tue Mar 17 2026 09:32:23 GMT-0400 (Eastern Daylight Time),608321.3999999999,057_y_m_n_a.png,I,space,18407,2,1,1901.6000000000931,606419.7999999998,9068,NNB,C,0
1,test,1,0.0,2-Back,1.0,m,Tue Mar 17 2026 09:32:23 GMT-0400 (Eastern Daylight Time),649721.5,130_o_f_n_a.png,I,m,589,3,1,1611.0,648110.5,9068,NNB,C,1
2,test,1,0.0,2-Back,1.0,m,Tue Mar 17 2026 09:32:23 GMT-0400 (Eastern Daylight Time),652054.6000000001,092_m_m_n_a.png,I,m,1308,4,1,2319.5,649735.1000000001,9068,NNB,C,2
3,test,1,1.0,2-Back,1.0,z,Tue Mar 17 2026 09:32:23 GMT-0400 (Eastern Daylight Time),653771.2999999998,130_o_f_n_a.png,I,z,687,5,1,1709.3999999999069,652061.8999999999,9068,NNB,C,3
4,test,1,0.0,2-Back,1.0,m,Tue Mar 17 2026 09:32:23 GMT-0400 (Eastern Daylight Time),655838.0,098_y_f_n_a.png,I,m,1033,6,1,2054.5,653783.5,9068,NNB,C,4
5,test,1,0.0,2-Back,1.0,m,Tue Mar 17 2026 09:32:23 GMT-0400 (Eastern Daylight Time),657937.8999999999,092_m_m_n_a.png,I,m,1079,7,1,2093.399999999907,655844.5,9068,NNB,C,5
6,test,1,1.0,2-Back,1.0,z,Tue Mar 17 2026 09:32:23 GMT-0400 (Eastern Daylight Time),659588.0,098_y_f_n_a.png,I,z,627,8,1,1636.7000000001863,657951.2999999998,9068,NNB,C,6
7,test,1,0.0,2-Back,1.0,m,Tue Mar 17 2026 09:32:23 GMT-0400 (Eastern Daylight Time),662121.3999999999,031_y_m_n_a.png,I,m,1505,9,1,2526.600000000093,659594.7999999998,9068,NNB,C,7
8,test,1,0.0,2-Back,1.0,m,Tue Mar 17 2026 09:32:23 GMT-0400 (Eastern Daylight Time),664054.7000000002,030_o_f_n_a.png,I,m,908,10,1,1919.3000000002794,662135.3999999999,9068,NNB,C,8
8,test,1,1.0,2-Back,0.0,z,Tue Mar 17 2026 09:32:23 GMT-0400 (Eastern Daylight Time),665871.2999999998,031_y_m_n_a.png,I,m,799,11,1,1809.1999999997206,664062.1000000001,9068,NNB,C,9
9,test,1,0.0,2-Back,1.0,m,Tue Mar 17 2026 09:32:23 GMT-0400 (Eastern Daylight Time),667788.0,006_m_f_n_a.png,I,m,885,12,1,1906.2999999998137,665881.7000000002,9068,NNB,C,10
10,test,1,0.0,2-Back,1.0,m,Tue Mar 17 2026 09:32:23 GMT-0400 (Eastern Daylight Time),669921.2999999998,006_m_f_n_a.png,I,m,1113,13,1,2125.0999999996275,667796.2000000002,9068,NNB,C,11
11,test,1,0.0,2-Back,1.0,m,Tue Mar 17 2026 09:32:23 GMT-0400 (Eastern Daylight Time),671854.6000000001,146_o_m_n_a.png,I,m,900,14,1,1920.8999999999069,669933.7000000002,9068,NNB,C,12
12,test,1,0.0,2-Back,1.0,m,Tue Mar 17 2026 09:32:23 GMT-0400 (Eastern Daylight Time),673688.0,030_o_f_n_a.png,I,m,806,15,1,1826.7999999998137,671861.2000000002,9068,NNB,C,13
12,test,1,1.0,2-Back,0.0,z,Tue Mar 17 2026 09:32:23 GMT-0400 (Eastern Daylight Time),676138.1000000001,146_o_m_n_a.png,I,m,1405,16,1,2432.8000000002794,673705.2999999998,9068,NNB,C,14
13,test,1,0.0,2-Back,1.0,m,Tue Mar 17 2026 09:32:23 GMT-0400 (Eastern Daylight Time),678038.0,093_m_f_n_a.png,I,m,875,17,1,1893.7000000001863,676144.2999999998,9068,NNB,C,15
14,test,1,0.0,2-Back,1.0,m,Tue Mar 17 2026 09:32:23 GMT-0400 (Eastern Daylight Time),679954.6000000001,082_m_m_n_a.png,I,m,896,18,1,1903.2000000001863,678051.3999999999,9068,NNB,C,16
0,test,2,0.0,2-Back,,,Tue Mar 17 2026 09:32:23 GMT-0400 (Eastern Daylight Time),679954.6000000001,082_m_m_n_a.png,I,space,2394,1,1,1903.2000000001863,678051.3999999999,9068,NNB,C,0
0,test,2,0.0,2-Back,,,Tue Mar 17 2026 09:32:23 GMT-0400 (Eastern Daylight Time),679954.6000000001,028_y_f_n_a.png,I,space,2394,2,1,1903.2000000001863,678051.3999999999,9068,NNB,C,0
1,test,2,1.0,2-Back,1.0,z,Tue Mar 17 2026 09:32:23 GMT-0400 (Eastern Daylight Time),689604.5,082_m_m_n_a.png,I,z,1044,3,1,2060.399999999907,687544.1000000001,9068,NNB,C,1
2,test,2,0.0,2-Back,1.0,m,Tue Mar 17 2026 09:32:23 GMT-0400 (Eastern Daylight Time),691754.7000000002,093_m_f_n_a.png,I,m,1120,4,1,2136.2000000001863,689618.5,9068,NNB,C,2
3,test,2,0.0,2-Back,1.0,m,Tue Mar 17 2026 09:32:23 GMT-0400 (Eastern Daylight Time),694021.2999999998,028_y_f_n_a.png,I,m,1242,5,1,2258.0999999996275,691763.2000000002,9068,NNB,C,3
4,test,2,0.0,2-Back,1.0,m,Tue Mar 17 2026 09:32:23 GMT-0400 (Eastern Daylight Time),695704.7000000002,146_o_m_n_a.png,I,m,640,6,1,1667.9000000003725,694036.7999999998,9068,NNB,C,4
5,test,2,0.0,2-Back,1.0,m,Tue Mar 17 2026 09:32:23 GMT-0400 (Eastern Daylight Time),697871.0,098_y_f_n_a.png,I,m,1148,7,1,2159.100000000093,695711.8999999999,9068,NNB,C,5
6,test,2,1.0,2-Back,1.0,z,Tue Mar 17 2026 09:32:23 GMT-0400 (Eastern Daylight Time),699704.7999999998,146_o_m_n_a.png,I,z,806,8,1,1824.8999999999069,697879.8999999999,9068,NNB,C,6
7,test,2,0.0,2-Back,1.0,m,Tue Mar 17 2026 09:32:23 GMT-0400 (Eastern Daylight Time),702121.3999999999,031_y_m_n_a.png,I,m,1389,9,1,2409.6999999997206,699711.7000000002,9068,NNB,C,7
7,test,2,0.0,2-Back,0.0,m,Tue Mar 17 2026 09:32:23 GMT-0400 (Eastern Daylight Time),705155.0,031_y_m_n_a.png,I,None,2016,10,1,3022.399999999907,702132.6000000001,9068,NNB,C,8
8,test,2,0.0,2-Back,1.0,m,Tue Mar 17 2026 09:32:23 GMT-0400 (Eastern Daylight Time),707173.7999999998,006_m_f_n_a.png,I,m,995,11,1,2011.1999999997206,705162.6000000001,9068,NNB,C,9
9,test,2,0.0,2-Back,1.0,m,Tue Mar 17 2026 09:32:23 GMT-0400 (Eastern Daylight Time),708888.0,028_y_f_n_a.png,I,m,689,12,1,1707.5,707180.5,9068,NNB,C,10
10,test,2,1.0,2-Back,1.0,z,Tue Mar 17 2026 09:32:23 GMT-0400 (Eastern Daylight Time),710471.3999999999,006_m_f_n_a.png,I,z,558,13,1,1576.5,708894.8999999999,9068,NNB,C,11
11,test,2,0.0,2-Back,1.0,m,Tue Mar 17 2026 09:32:23 GMT-0400 (Eastern Daylight Time),712388.0,059_o_m_n_a.png,I,m,893,14,1,1903.3999999999069,710484.6000000001,9068,NNB,C,12
12,test,2,0.0,2-Back,1.0,m,Tue Mar 17 2026 09:32:23 GMT-0400 (Eastern Daylight Time),714421.3999999999,059_o_m_n_a.png,I,m,1009,15,1,2026.6999999997206,712394.7000000002,9068,NNB,C,13
13,test,2,0.0,2-Back,1.0,m,Tue Mar 17 2026 09:32:23 GMT-0400 (Eastern Daylight Time),716738.0,030_o_f_n_a.png,I,m,1295,16,1,2303.399999999907,714434.6000000001,9068,NNB,C,14
14,test,2,0.0,2-Back,1.0,m,Tue Mar 17 2026 09:32:23 GMT-0400 (Eastern Daylight Time),718437.7999999998,092_m_m_n_a.png,I,m,675,17,1,1692.7999999998137,716745.0,9068,NNB,C,15
15,test,2,1.0,2-Back,1.0,z,Tue Mar 17 2026 09:32:23 GMT-0400 (Eastern Daylight Time),721187.8999999999,030_o_f_n_a.png,I,z,1728,18,1,2745.399999999907,718442.5,9068,NNB,C,16
0,test,3,1.0,2-Back,,,Tue Mar 17 2026 09:32:23 GMT-0400 (Eastern Daylight Time),721187.8999999999,057_y_m_n_a.png,I,space,1737,1,1,2745.399999999907,718442.5,9068,NNB,C,0
0,test,3,1.0,2-Back,,,Tue Mar 17 2026 09:32:23 GMT-0400 (Eastern Daylight Time),721187.8999999999,057_y_m_n_a.png,I,space,1737,2,1,2745.399999999907,718442.5,9068,NNB,C,0
1,test,3,0.0,2-Back,1.0,m,Tue Mar 17 2026 09:32:23 GMT-0400 (Eastern Daylight Time),730054.7000000002,030_o_f_n_a.png,I,m,891,3,1,1909.6000000000931,728145.1000000001,9068,NNB,C,1
2,test,3,0.0,2-Back,1.0,m,Tue Mar 17 2026 09:32:23 GMT-0400 (Eastern Daylight Time),732504.7999999998,082_m_m_n_a.png,I,m,1423,4,1,2437.0999999996275,730067.7000000002,9068,NNB,C,2
2,test,3,1.0,2-Back,0.0,z,Tue Mar 17 2026 09:32:23 GMT-0400 (Eastern Daylight Time),735538.2000000002,030_o_f_n_a.png,I,None,2016,5,1,3026.0,732512.2000000002,9068,NNB,C,3
2,test,3,0.0,2-Back,0.0,m,Tue Mar 17 2026 09:32:23 GMT-0400 (Eastern Daylight Time),738571.6000000001,031_y_m_n_a.png,I,None,2015,6,1,3024.100000000093,735547.5,9068,NNB,C,4
3,test,3,0.0,2-Back,1.0,m,Tue Mar 17 2026 09:32:23 GMT-0400 (Eastern Daylight Time),740621.2999999998,082_m_m_n_a.png,I,m,1017,7,1,2043.1999999997206,738578.1000000001,9068,NNB,C,5
4,test,3,1.0,2-Back,1.0,z,Tue Mar 17 2026 09:32:23 GMT-0400 (Eastern Daylight Time),742338.0,031_y_m_n_a.png,I,z,696,8,1,1706.5,740631.5,9068,NNB,C,6
5,test,3,0.0,2-Back,1.0,m,Tue Mar 17 2026 09:32:23 GMT-0400 (Eastern Daylight Time),744254.7999999998,028_y_f_n_a.png,I,m,884,9,1,1909.5999999996275,742345.2000000002,9068,NNB,C,7
6,test,3,0.0,2-Back,1.0,m,Tue Mar 17 2026 09:32:23 GMT-0400 (Eastern Daylight Time),746171.3999999999,092_m_m_n_a.png,I,m,886,10,1,1903.6999999997206,744267.7000000002,9068,NNB,C,8
7,test,3,1.0,2-Back,1.0,z,Tue Mar 17 2026 09:32:23 GMT-0400 (Eastern Daylight Time),748138.1000000001,028_y_f_n_a.png,I,z,938,11,1,1958.3000000002794,746179.7999999998,9068,NNB,C,9
8,test,3,1.0,2-Back,1.0,z,Tue Mar 17 2026 09:32:23 GMT-0400 (Eastern Daylight Time),750287.7999999998,092_m_m_n_a.png,I,z,1131,12,1,2136.5999999996275,748151.2000000002,9068,NNB,C,10
9,test,3,0.0,2-Back,1.0,m,Tue Mar 17 2026 09:32:23 GMT-0400 (Eastern Daylight Time),752137.8999999999,030_o_f_n_a.png,I,m,821,13,1,1844.1999999997206,750293.7000000002,9068,NNB,C,11
10,test,3,0.0,2-Back,1.0,m,Tue Mar 17 2026 09:32:23 GMT-0400 (Eastern Daylight Time),753971.2999999998,093_m_f_n_a.png,I,m,810,14,1,1821.5,752149.7999999998,9068,NNB,C,12
11,test,3,0.0,2-Back,1.0,m,Tue Mar 17 2026 09:32:23 GMT-0400 (Eastern Daylight Time),755971.3999999999,146_o_m_n_a.png,I,m,978,15,1,1993.3999999999069,753978.0,9068,NNB,C,13
12,test,3,1.0,2-Back,1.0,z,Tue Mar 17 2026 09:32:23 GMT-0400 (Eastern Daylight Time),757871.3999999999,093_m_f_n_a.png,I,z,867,16,1,1887.1000000000931,755984.2999999998,9068,NNB,C,14
13,test,3,0.0,2-Back,1.0,m,Tue Mar 17 2026 09:32:23 GMT-0400 (Eastern Daylight Time),760353.8999999999,130_o_f_n_a.png,I,m,1460,17,1,2475.1999999997206,757878.7000000002,9068,NNB,C,15
14,test,3,0.0,2-Back,1.0,m,Tue Mar 17 2026 09:32:23 GMT-0400 (Eastern Daylight Time),762304.5,130_o_f_n_a.png,I,m,931,18,1,1945.2999999998137,760359.2000000002,9068,NNB,C,16
0,test,4,0.0,2-Back,,,Tue Mar 17 2026 09:32:23 GMT-0400 (Eastern Daylight Time),762304.5,059_o_m_n_a.png,I,space,2044,1,1,1945.2999999998137,760359.2000000002,9068,NNB,C,0
0,test,4,0.0,2-Back,,,Tue Mar 17 2026 09:32:23 GMT-0400 (Eastern Daylight Time),762304.5,098_y_f_n_a.png,I,space,2044,2,1,1945.2999999998137,760359.2000000002,9068,NNB,C,0
1,test,4,1.0,2-Back,1.0,z,Tue Mar 17 2026 09:32:23 GMT-0400 (Eastern Daylight Time),771338.1000000001,059_o_m_n_a.png,I,z,622,3,1,1642.0,769696.1000000001,9068,NNB,C,1
2,test,4,1.0,2-Back,1.0,z,Tue Mar 17 2026 09:32:23 GMT-0400 (Eastern Daylight Time),773188.1000000001,098_y_f_n_a.png,I,z,827,4,1,1837.3999999999069,771350.7000000002,9068,NNB,C,2
3,test,4,0.0,2-Back,1.0,m,Tue Mar 17 2026 09:32:23 GMT-0400 (Eastern Daylight Time),775171.3999999999,030_o_f_n_a.png,I,m,961,5,1,1976.2999999998137,773195.1000000001,9068,NNB,C,3
4,test,4,0.0,2-Back,1.0,m,Tue Mar 17 2026 09:32:23 GMT-0400 (Eastern Daylight Time),777237.7999999998,030_o_f_n_a.png,I,m,1042,6,1,2052.399999999907,775185.3999999999,9068,NNB,C,4
5,test,4,0.0,2-Back,1.0,m,Tue Mar 17 2026 09:32:23 GMT-0400 (Eastern Daylight Time),779804.6000000001,006_m_f_n_a.png,I,m,1535,7,1,2559.7000000001863,777244.8999999999,9068,NNB,C,5
6,test,4,0.0,2-Back,1.0,m,Tue Mar 17 2026 09:32:23 GMT-0400 (Eastern Daylight Time),782171.3999999999,031_y_m_n_a.png,I,m,1337,8,1,2354.0,779817.3999999999,9068,NNB,C,6
7,test,4,1.0,2-Back,1.0,z,Tue Mar 17 2026 09:32:23 GMT-0400 (Eastern Daylight Time),783754.7999999998,006_m_f_n_a.png,I,z,553,9,1,1576.0999999996275,782178.7000000002,9068,NNB,C,7
8,test,4,0.0,2-Back,1.0,m,Tue Mar 17 2026 09:32:23 GMT-0400 (Eastern Daylight Time),785604.7000000002,092_m_m_n_a.png,I,m,827,10,1,1837.4000000003725,783767.2999999998,9068,NNB,C,8
9,test,4,0.0,2-Back,1.0,m,Tue Mar 17 2026 09:32:23 GMT-0400 (Eastern Daylight Time),788588.1000000001,031_y_m_n_a.png,I,m,1953,11,1,2976.0,785612.1000000001,9068,NNB,C,9
10,test,4,0.0,2-Back,1.0,m,Tue Mar 17 2026 09:32:23 GMT-0400 (Eastern Daylight Time),790271.2999999998,130_o_f_n_a.png,I,m,665,12,1,1675.0,788596.2999999998,9068,NNB,C,10
11,test,4,0.0,2-Back,1.0,m,Tue Mar 17 2026 09:32:23 GMT-0400 (Eastern Daylight Time),792054.7000000002,057_y_m_n_a.png,I,m,758,13,1,1777.6000000000931,790277.1000000001,9068,NNB,C,11
12,test,4,1.0,2-Back,1.0,z,Tue Mar 17 2026 09:32:23 GMT-0400 (Eastern Daylight Time),793888.8999999999,130_o_f_n_a.png,I,z,798,14,1,1819.0,792069.8999999999,9068,NNB,C,12
13,test,4,1.0,2-Back,1.0,z,Tue Mar 17 2026 09:32:23 GMT-0400 (Eastern Daylight Time),795904.3999999999,057_y_m_n_a.png,I,z,997,15,1,2008.3999999999069,793896.0,9068,NNB,C,13
14,test,4,0.0,2-Back,1.0,m,Tue Mar 17 2026 09:32:23 GMT-0400 (Eastern Daylight Time),797738.1000000001,082_m_m_n_a.png,I,m,803,16,1,1821.0,795917.1000000001,9068,NNB,C,14
15,test,4,0.0,2-Back,1.0,m,Tue Mar 17 2026 09:32:23 GMT-0400 (Eastern Daylight Time),799854.7000000002,093_m_f_n_a.png,I,m,1084,17,1,2109.4000000003725,797745.2999999998,9068,NNB,C,15
16,test,4,1.0,2-Back,1.0,z,Tue Mar 17 2026 09:32:23 GMT-0400 (Eastern Daylight Time),801354.7000000002,082_m_m_n_a.png,I,z,471,18,1,1489.5,799865.2000000002,9068,NNB,C,16
0,test,5,1.0,2-Back,,,Tue Mar 17 2026 09:32:23 GMT-0400 (Eastern Daylight Time),801354.7000000002,057_y_m_n_a.png,I,space,1859,1,1,1489.5,799865.2000000002,9068,NNB,C,0
0,test,5,1.0,2-Back,,,Tue Mar 17 2026 09:32:23 GMT-0400 (Eastern Daylight Time),801354.7000000002,093_m_f_n_a.png,I,space,1859,2,1,1489.5,799865.2000000002,9068,NNB,C,0
1,test,5,1.0,2-Back,1.0,z,Tue Mar 17 2026 09:32:23 GMT-0400 (Eastern Daylight Time),810354.7000000002,057_y_m_n_a.png,I,z,1063,3,1,2077.3000000002794,808277.3999999999,9068,NNB,C,1
2,test,5,1.0,2-Back,1.0,z,Tue Mar 17 2026 09:32:23 GMT-0400 (Eastern Daylight Time),812255.0,093_m_f_n_a.png,I,z,883,4,1,1890.7000000001863,810364.2999999998,9068,NNB,C,2
3,test,5,0.0,2-Back,1.0,m,Tue Mar 17 2026 09:32:23 GMT-0400 (Eastern Daylight Time),814354.7000000002,130_o_f_n_a.png,I,m,1079,5,1,2092.2000000001863,812262.5,9068,NNB,C,3
4,test,5,0.0,2-Back,1.0,m,Tue Mar 17 2026 09:32:23 GMT-0400 (Eastern Daylight Time),816554.7999999998,057_y_m_n_a.png,I,m,1171,6,1,2185.0,814369.7999999998,9068,NNB,C,4
5,test,5,0.0,2-Back,1.0,m,Tue Mar 17 2026 09:32:23 GMT-0400 (Eastern Daylight Time),818804.7000000002,028_y_f_n_a.png,I,m,1227,7,1,2242.7000000001863,816562.0,9068,NNB,C,5
6,test,5,0.0,2-Back,1.0,m,Tue Mar 17 2026 09:32:23 GMT-0400 (Eastern Daylight Time),820838.2000000002,130_o_f_n_a.png,I,m,1008,8,1,2021.5,818816.7000000002,9068,NNB,C,6
7,test,5,1.0,2-Back,1.0,z,Tue Mar 17 2026 09:32:23 GMT-0400 (Eastern Daylight Time),822488.1000000001,028_y_f_n_a.png,I,z,624,9,1,1643.2000000001863,820844.8999999999,9068,NNB,C,7
8,test,5,0.0,2-Back,1.0,m,Tue Mar 17 2026 09:32:23 GMT-0400 (Eastern Daylight Time),824171.3999999999,146_o_m_n_a.png,I,m,653,10,1,1669.0,822502.3999999999,9068,NNB,C,8
9,test,5,0.0,2-Back,1.0,m,Tue Mar 17 2026 09:32:23 GMT-0400 (Eastern Daylight Time),826154.7999999998,006_m_f_n_a.png,I,m,955,11,1,1975.5999999996275,824179.2000000002,9068,NNB,C,9
10,test,5,0.0,2-Back,1.0,m,Tue Mar 17 2026 09:32:23 GMT-0400 (Eastern Daylight Time),828254.6000000001,092_m_m_n_a.png,I,m,1050,12,1,2084.5,826170.1000000001,9068,NNB,C,10
10,test,5,0.0,2-Back,0.0,m,Tue Mar 17 2026 09:32:23 GMT-0400 (Eastern Daylight Time),831288.5,146_o_m_n_a.png,I,None,2016,13,1,3025.600000000093,828262.8999999999,9068,NNB,C,11
10,test,5,1.0,2-Back,0.0,z,Tue Mar 17 2026 09:32:23 GMT-0400 (Eastern Daylight Time),834321.6000000001,092_m_m_n_a.png,I,None,2016,14,1,3022.3000000002794,831299.2999999998,9068,NNB,C,12
11,test,5,0.0,2-Back,1.0,m,Tue Mar 17 2026 09:32:23 GMT-0400 (Eastern Daylight Time),836321.2000000002,098_y_f_n_a.png,I,m,981,15,1,1993.6000000000931,834327.6000000001,9068,NNB,C,13
12,test,5,0.0,2-Back,1.0,m,Tue Mar 17 2026 09:32:23 GMT-0400 (Eastern Daylight Time),837971.5,059_o_m_n_a.png,I,m,627,16,1,1640.2000000001863,836331.2999999998,9068,NNB,C,14
13,test,5,0.0,2-Back,1.0,m,Tue Mar 17 2026 09:32:23 GMT-0400 (Eastern Daylight Time),839571.3999999999,006_m_f_n_a.png,I,m,578,17,1,1593.6999999997206,837977.7000000002,9068,NNB,C,15
14,test,5,1.0,2-Back,1.0,z,Tue Mar 17 2026 09:32:23 GMT-0400 (Eastern Daylight Time),841388.1000000001,059_o_m_n_a.png,I,z,785,18,1,1802.8999999999069,839585.2000000002,9068,NNB,C,16
