acc_sum,block,block_c,condition,correct,correct_response,datetime,endtime,flanker,jitter,project,response,response_test_buffer_response,response_test_target_response,response_time,response_time_test_buffer_response,response_time_test_target_response,row_sel,session_number,start_end,starttime,subject_id,target,task,task_vers,time_test_buffer,time_test_buffer_response,time_test_constants,time_test_flanker,time_test_jitter,time_test_logger,time_test_target,time_test_target_response,time_test_variables,trial
0,prac,1,con,0,z,Mon Nov 03 2025 17:00:00 GMT-0600 (Central Standard Time),175825.40000000037,kiwi,1000,I,None,,,1799,,,7,1,5060.799999998882,170764.6000000015,9999,kiwi,NF,C,,,,,,,,,,1
0,prac,1,inc,0,m,Mon Nov 03 2025 17:00:00 GMT-0600 (Central Standard Time),178258.40000000037,pear,900,I,z,,,230,,,14,1,2427.199999999255,175831.20000000112,9999,iron,NF,C,,,,,,,,,,2
1,prac,1,inc,1,m,Mon Nov 03 2025 17:00:00 GMT-0600 (Central Standard Time),181240.40000000037,raisin,1100,I,m,,,574,,,12,1,2977.0999999996275,178263.30000000075,9999,cobalt,NF,C,,,,,,,,,,3
2,prac,1,inc,1,z,Mon Nov 03 2025 17:00:00 GMT-0600 (Central Standard Time),184022.90000000037,copper,900,I,z,,,567,,,2,1,2777.2999999988824,181245.6000000015,9999,cherry,NF,C,,,,,,,,,,4
3,prac,1,inc,1,m,Mon Nov 03 2025 17:00:00 GMT-0600 (Central Standard Time),186955.70000000112,cherry,900,I,m,,,722,,,10,1,2928.0,184027.70000000112,9999,copper,NF,C,,,,,,,,,,5
4,prac,1,con,1,z,Mon Nov 03 2025 17:00:00 GMT-0600 (Central Standard Time),189554.70000000112,lime,800,I,z,,,497,,,5,1,2594.4000000003725,186960.30000000075,9999,lime,NF,C,,,,,,,,,,6
5,prac,1,con,1,m,Mon Nov 03 2025 17:00:00 GMT-0600 (Central Standard Time),192170.30000000075,gold,800,I,m,,,505,,,13,1,2611.699999999255,189558.6000000015,9999,gold,NF,C,,,,,,,,,,7
6,prac,1,inc,1,m,Mon Nov 03 2025 17:00:00 GMT-0600 (Central Standard Time),195219.5,plum,1100,I,m,,,645,,,16,1,3044.89999999851,192174.6000000015,9999,lead,NF,C,,,,,,,,,,8
7,prac,1,con,1,m,Mon Nov 03 2025 17:00:00 GMT-0600 (Central Standard Time),197968.80000000075,silver,1000,I,m,,,448,,,11,1,2744.800000000745,195224.0,9999,silver,NF,C,,,,,,,,,,9
8,prac,1,inc,1,z,Mon Nov 03 2025 17:00:00 GMT-0600 (Central Standard Time),200801.1000000015,cobalt,1100,I,z,,,430,,,4,1,2828.300000000745,197972.80000000075,9999,raisin,NF,C,,,,,,,,,,10
9,prac,1,inc,1,z,Mon Nov 03 2025 17:00:00 GMT-0600 (Central Standard Time),203717.1000000015,lead,1100,I,z,,,512,,,8,1,2911.9000000003725,200805.20000000112,9999,plum,NF,C,,,,,,,,,,11
10,prac,1,con,1,m,Mon Nov 03 2025 17:00:00 GMT-0600 (Central Standard Time),206466.0,zinc,1000,I,m,,,448,,,15,1,2744.2999999988824,203721.70000000112,9999,zinc,NF,C,,,,,,,,,,12
11,prac,1,con,1,z,Mon Nov 03 2025 17:00:00 GMT-0600 (Central Standard Time),209181.80000000075,orange,1000,I,z,,,403,,,3,1,2711.5999999996275,206470.20000000112,9999,orange,NF,C,,,,,,,,,,13
12,prac,1,con,1,m,Mon Nov 03 2025 17:00:00 GMT-0600 (Central Standard Time),211780.90000000037,bronze,800,I,m,,,509,,,9,1,2595.0999999996275,209185.80000000075,9999,bronze,NF,C,,,,,,,,,,14
13,prac,1,inc,1,z,Mon Nov 03 2025 17:00:00 GMT-0600 (Central Standard Time),214430.1000000015,iron,900,I,z,,,444,,,6,1,2645.0,211785.1000000015,9999,pear,NF,C,,,,,,,,,,15
13,prac,1,con,0,z,Mon Nov 03 2025 17:00:00 GMT-0600 (Central Standard Time),217162.5,banana,800,I,m,,,623,,,1,1,2728.0999999996275,214434.40000000037,9999,banana,NF,C,,,,,,,,,,16
1,prac,2,inc,1,z,Mon Nov 03 2025 17:00:00 GMT-0600 (Central Standard Time),223310.6000000015,lead,1100,I,z,,,577,,,8,1,2977.7000000011176,220332.90000000037,9999,plum,NF,C,,,,,,,,,,1
2,prac,2,con,1,m,Mon Nov 03 2025 17:00:00 GMT-0600 (Central Standard Time),226159.80000000075,silver,1000,I,m,,,541,,,11,1,2844.699999999255,223315.1000000015,9999,silver,NF,C,,,,,,,,,,2
3,prac,2,con,1,z,Mon Nov 03 2025 17:00:00 GMT-0600 (Central Standard Time),228925.80000000075,banana,800,I,z,,,660,,,1,1,2761.5999999996275,226164.20000000112,9999,banana,NF,C,,,,,,,,,,3
4,prac,2,con,1,z,Mon Nov 03 2025 17:00:00 GMT-0600 (Central Standard Time),231441.40000000037,lime,800,I,z,,,414,,,5,1,2511.9000000003725,228929.5,9999,lime,NF,C,,,,,,,,,,4
5,prac,2,inc,1,z,Mon Nov 03 2025 17:00:00 GMT-0600 (Central Standard Time),234324.0,cobalt,1100,I,z,,,478,,,4,1,2878.39999999851,231445.6000000015,9999,raisin,NF,C,,,,,,,,,,5
6,prac,2,inc,1,m,Mon Nov 03 2025 17:00:00 GMT-0600 (Central Standard Time),237556.30000000075,plum,1100,I,m,,,820,,,16,1,3228.0,234328.30000000075,9999,lead,NF,C,,,,,,,,,,6
7,prac,2,con,1,m,Mon Nov 03 2025 17:00:00 GMT-0600 (Central Standard Time),240422.0,gold,800,I,m,,,752,,,13,1,2861.39999999851,237560.6000000015,9999,gold,NF,C,,,,,,,,,,7
8,prac,2,con,1,z,Mon Nov 03 2025 17:00:00 GMT-0600 (Central Standard Time),243187.6000000015,orange,1000,I,z,,,455,,,3,1,2761.60000000149,240426.0,9999,orange,NF,C,,,,,,,,,,8
9,prac,2,con,1,m,Mon Nov 03 2025 17:00:00 GMT-0600 (Central Standard Time),246053.5,zinc,1000,I,m,,,553,,,15,1,2861.2999999988824,243192.20000000112,9999,zinc,NF,C,,,,,,,,,,9
10,prac,2,inc,1,z,Mon Nov 03 2025 17:00:00 GMT-0600 (Central Standard Time),248819.40000000037,copper,900,I,z,,,562,,,2,1,2761.4000000003725,246058.0,9999,cherry,NF,C,,,,,,,,,,10
11,prac,2,inc,1,z,Mon Nov 03 2025 17:00:00 GMT-0600 (Central Standard Time),251701.80000000075,iron,900,I,z,,,668,,,6,1,2878.5,248823.30000000075,9999,pear,NF,C,,,,,,,,,,11
12,prac,2,inc,1,m,Mon Nov 03 2025 17:00:00 GMT-0600 (Central Standard Time),254551.0,cherry,900,I,m,,,642,,,10,1,2845.0999999996275,251705.90000000037,9999,copper,NF,C,,,,,,,,,,12
13,prac,2,con,1,z,Mon Nov 03 2025 17:00:00 GMT-0600 (Central Standard Time),257400.20000000112,kiwi,1000,I,z,,,541,,,7,1,2845.2000000011176,254555.0,9999,kiwi,NF,C,,,,,,,,,,13
14,prac,2,inc,1,m,Mon Nov 03 2025 17:00:00 GMT-0600 (Central Standard Time),260365.90000000037,raisin,1100,I,m,,,553,,,12,1,2961.0999999996275,257404.80000000075,9999,cobalt,NF,C,,,,,,,,,,14
15,prac,2,inc,1,m,Mon Nov 03 2025 17:00:00 GMT-0600 (Central Standard Time),263231.6000000015,pear,900,I,m,,,659,,,14,1,2861.10000000149,260370.5,9999,iron,NF,C,,,,,,,,,,15
16,prac,2,con,1,m,Mon Nov 03 2025 17:00:00 GMT-0600 (Central Standard Time),265864.0,bronze,800,I,m,,,531,,,9,1,2628.199999999255,263235.80000000075,9999,bronze,NF,C,,,,,,,,,,16
1,test,1,con,1,z,Mon Nov 03 2025 17:00:00 GMT-0600 (Central Standard Time),279559.9000000004,cherry,1000,I,z,z,None,543,343.0,200.0,11,1,2080.0,277479.9000000004,9999,cherry,NF,C,274543,274543,272812,273826,272812,274892,274342,274342,274892,1
2,test,1,con,1,z,Mon Nov 03 2025 17:00:00 GMT-0600 (Central Standard Time),281492.4000000004,lime,900,I,z,z,None,489,289.0,200.0,34,1,1927.9000000003725,279564.5,9999,lime,NF,C,276525,276525,274897,275808,274897,276824,276325,276325,276824,2
3,test,1,inc,1,z,Mon Nov 03 2025 17:00:00 GMT-0600 (Central Standard Time),283708.5,cobalt,1100,I,z,z,None,571,372.0,199.0,16,1,2212.199999999255,281496.30000000075,9999,cherry,NF,C,278658,278658,276828,277941,276829,279041,278458,278458,279040,3
4,test,1,con,1,z,Mon Nov 03 2025 17:00:00 GMT-0600 (Central Standard Time),285707.80000000075,pear,800,I,z,z,None,664,464.0,200.0,41,1,1995.5999999996275,283712.2000000011,9999,pear,NF,C,280574,280574,279044,279857,279045,281040,280374,280374,281040,4
5,test,1,inc,1,m,Mon Nov 03 2025 17:00:00 GMT-0600 (Central Standard Time),288123.5,raisin,1100,I,m,m,None,772,572.0,200.0,88,1,2411.89999999851,285711.6000000015,9999,silver,NF,C,282873,282873,281044,282156,281044,283456,282673,282673,283456,5
6,test,1,con,1,m,Mon Nov 03 2025 17:00:00 GMT-0600 (Central Standard Time),290423.2000000011,zinc,900,I,m,m,None,851,652.0,199.0,114,1,2295.4000000003725,288127.80000000075,9999,zinc,NF,C,285089,285089,283460,284372,283460,285755,284889,284889,285755,6
7,test,1,con,1,z,Mon Nov 03 2025 17:00:00 GMT-0600 (Central Standard Time),292723.4000000004,banana,1100,I,z,z,None,665,465.0,200.0,4,1,2296.0999999996275,290427.30000000075,9999,banana,NF,C,287588,287588,285759,286872,285760,288056,287388,287388,288055,7
8,test,1,inc,1,m,Mon Nov 03 2025 17:00:00 GMT-0600 (Central Standard Time),294971.4000000004,plum,1100,I,m,m,None,614,414.0,200.0,128,1,2244.199999999255,292727.2000000011,9999,lead,NF,C,289887,289887,288059,289171,288059,290304,289687,289687,290303,8
9,test,1,con,1,m,Mon Nov 03 2025 17:00:00 GMT-0600 (Central Standard Time),297154.5,iron,1000,I,m,m,None,632,433.0,199.0,107,1,2178.89999999851,294975.6000000015,9999,iron,NF,C,292037,292037,290308,291320,290308,292487,291837,291837,292487,9
10,test,1,con,1,z,Mon Nov 03 2025 17:00:00 GMT-0600 (Central Standard Time),299303.6000000015,cherry,800,I,z,z,None,810,611.0,199.0,9,1,2145.10000000149,297158.5,9999,cherry,NF,C,294019,294019,292491,293303,292491,294636,293820,293820,294636,10
11,test,1,con,1,z,Mon Nov 03 2025 17:00:00 GMT-0600 (Central Standard Time),301469.4000000004,orange,1000,I,z,z,None,627,427.0,200.0,19,1,2161.5999999996275,299307.80000000075,9999,orange,NF,C,296370,296370,294640,295652,294640,296802,296169,296169,296801,11
12,test,1,inc,1,z,Mon Nov 03 2025 17:00:00 GMT-0600 (Central Standard Time),304152.2000000011,silver,1000,I,z,z,None,1143,943.0,200.0,31,1,2678.0999999996275,301474.1000000015,9999,raisin,NF,C,298535,298535,296806,297818,296806,299484,298334,298334,299484,12
13,test,1,inc,1,z,Mon Nov 03 2025 17:00:00 GMT-0600 (Central Standard Time),306434.6000000015,cobalt,1100,I,z,z,None,614,415.0,199.0,24,1,2277.7000000011176,304156.9000000004,9999,orange,NF,C,301350,301351,299489,300648,299489,301767,301151,301151,301767,13
14,test,1,inc,1,m,Mon Nov 03 2025 17:00:00 GMT-0600 (Central Standard Time),308750.5,raisin,1100,I,m,m,None,676,477.0,199.0,80,1,2312.199999999255,306438.30000000075,9999,copper,NF,C,303600,303600,301770,302883,301771,304083,303400,303400,304082,14
15,test,1,con,1,z,Mon Nov 03 2025 17:00:00 GMT-0600 (Central Standard Time),311033.30000000075,kiwi,1000,I,z,z,None,733,534.0,199.0,51,1,2278.300000000745,308755.0,9999,kiwi,NF,C,305816,305816,304087,305099,304087,306365,305616,305616,306365,15
16,test,1,inc,1,m,Mon Nov 03 2025 17:00:00 GMT-0600 (Central Standard Time),313332.5,raisin,1100,I,m,m,None,655,455.0,200.0,72,1,2295.2999999988824,311037.2000000011,9999,bronze,NF,C,308198,308198,306369,307482,306369,308665,307998,307998,308665,16
17,test,1,con,1,z,Mon Nov 03 2025 17:00:00 GMT-0600 (Central Standard Time),315382.1000000015,raisin,1000,I,z,z,None,503,304.0,199.0,27,1,2045.5,313336.6000000015,9999,raisin,NF,C,310398,310398,308669,309681,308669,310714,310198,310198,310714,17
18,test,1,inc,1,z,Mon Nov 03 2025 17:00:00 GMT-0600 (Central Standard Time),317731.30000000075,cobalt,1100,I,z,z,None,707,507.0,200.0,8,1,2345.4000000003725,315385.9000000004,9999,banana,NF,C,312547,312547,310718,311830,310718,313063,312347,312347,313063,18
19,test,1,inc,1,m,Mon Nov 03 2025 17:00:00 GMT-0600 (Central Standard Time),319547.1000000015,lime,800,I,m,m,None,474,274.0,200.0,117,1,1811.800000000745,317735.30000000075,9999,zinc,NF,C,314596,314596,313067,313880,313068,314879,314396,314396,314879,19
20,test,1,con,1,z,Mon Nov 03 2025 17:00:00 GMT-0600 (Central Standard Time),321680.0,plum,1100,I,z,z,None,485,286.0,199.0,60,1,2129.39999999851,319550.6000000015,9999,plum,NF,C,316712,316712,314883,315996,314883,317012,316513,316513,317012,20
20,test,1,con,0,m,Mon Nov 03 2025 17:00:00 GMT-0600 (Central Standard Time),323546.0,gold,900,I,z,z,None,425,225.0,200.0,98,1,1862.3999999985099,321683.6000000015,9999,gold,NF,C,318645,318645,317016,317929,317016,318878,318445,318445,318878,21
21,test,1,con,1,m,Mon Nov 03 2025 17:00:00 GMT-0600 (Central Standard Time),325961.7000000011,zinc,1100,I,m,m,None,766,567.0,199.0,116,1,2411.7000000011176,323550.0,9999,zinc,NF,C,320711,320711,318882,319995,318882,321294,320512,320512,321294,22
22,test,1,inc,1,m,Mon Nov 03 2025 17:00:00 GMT-0600 (Central Standard Time),328111.2000000011,kiwi,1000,I,m,m,None,611,411.0,200.0,111,1,2145.800000000745,325965.4000000004,9999,iron,NF,C,323027,323027,321297,322311,321298,323443,322827,322827,323443,23
23,test,1,con,1,m,Mon Nov 03 2025 17:00:00 GMT-0600 (Central Standard Time),330093.80000000075,zinc,800,I,m,m,None,545,344.0,201.0,113,1,1978.699999999255,328115.1000000015,9999,zinc,NF,C,325078,325078,323447,324372,323447,325426,324877,324877,325426,24
24,test,1,inc,1,z,Mon Nov 03 2025 17:00:00 GMT-0600 (Central Standard Time),332276.6000000015,zinc,1000,I,z,z,None,639,439.0,200.0,55,1,2178.800000000745,330097.80000000075,9999,kiwi,NF,C,327159,327159,325430,326443,325430,327609,326959,326959,327609,25
25,test,1,con,1,z,Mon Nov 03 2025 17:00:00 GMT-0600 (Central Standard Time),334276.1000000015,pear,900,I,z,z,None,556,356.0,200.0,42,1,1995.800000000745,332280.30000000075,9999,pear,NF,C,329242,329242,327612,328525,327613,329608,329042,329042,329608,26
26,test,1,con,1,z,Mon Nov 03 2025 17:00:00 GMT-0600 (Central Standard Time),336308.6000000015,kiwi,800,I,z,z,None,696,496.0,200.0,49,1,2028.300000000745,334280.30000000075,9999,kiwi,NF,C,331141,331141,329612,330425,329613,331641,330941,330941,331641,27
27,test,1,con,1,z,Mon Nov 03 2025 17:00:00 GMT-0600 (Central Standard Time),338275.1000000015,banana,900,I,z,z,None,531,332.0,199.0,2,1,1962.300000000745,336312.80000000075,9999,banana,NF,C,333274,333274,331645,332557,331645,333607,333074,333074,333607,28
28,test,1,con,1,z,Mon Nov 03 2025 17:00:00 GMT-0600 (Central Standard Time),340390.80000000075,lime,1000,I,z,z,None,570,370.0,200.0,35,1,2111.9000000003725,338278.9000000004,9999,lime,NF,C,335340,335340,333611,334623,333611,335723,335140,335140,335723,29
29,test,1,con,1,m,Mon Nov 03 2025 17:00:00 GMT-0600 (Central Standard Time),342490.2000000011,silver,1000,I,m,m,None,550,350.0,200.0,83,1,2095.5999999996275,340394.6000000015,9999,silver,NF,C,337456,337456,335727,336739,335727,337822,337256,337256,337822,30
30,test,1,inc,1,z,Mon Nov 03 2025 17:00:00 GMT-0600 (Central Standard Time),344356.30000000075,gold,800,I,z,z,None,522,322.0,200.0,45,1,1862.5,342493.80000000075,9999,pear,NF,C,339355,339356,337826,338640,337826,339688,339155,339155,339688,31
31,test,1,con,1,z,Mon Nov 03 2025 17:00:00 GMT-0600 (Central Standard Time),346538.5,cherry,1100,I,z,z,None,548,348.0,200.0,12,1,2178.0999999996275,344360.4000000004,9999,cherry,NF,C,341521,341521,339692,340805,339693,341871,341321,341321,341871,32
32,test,1,con,1,z,Mon Nov 03 2025 17:00:00 GMT-0600 (Central Standard Time),348421.30000000075,orange,800,I,z,z,None,537,337.0,200.0,17,1,1878.9000000003725,346542.4000000004,9999,orange,NF,C,343404,343404,341874,342687,341875,343753,343204,343204,343753,33
33,test,1,inc,1,m,Mon Nov 03 2025 17:00:00 GMT-0600 (Central Standard Time),350487.6000000015,orange,1000,I,m,m,None,519,319.0,200.0,71,1,2062.10000000149,348425.5,9999,bronze,NF,C,345487,345487,343758,344770,343758,345820,345286,345286,345820,34
34,test,1,inc,1,z,Mon Nov 03 2025 17:00:00 GMT-0600 (Central Standard Time),352417.80000000075,bronze,800,I,z,z,None,597,397.0,200.0,13,1,1926.4000000003725,350491.4000000004,9999,cherry,NF,C,347353,347353,345823,346636,345824,347750,347153,347153,347750,35
35,test,1,inc,1,m,Mon Nov 03 2025 17:00:00 GMT-0600 (Central Standard Time),354569.9000000004,cherry,900,I,m,m,None,708,509.0,199.0,86,1,2147.699999999255,352422.2000000011,9999,silver,NF,C,349385,349385,347754,348669,347754,349902,349186,349186,349902,36
36,test,1,con,1,z,Mon Nov 03 2025 17:00:00 GMT-0600 (Central Standard Time),356785.5,pear,1100,I,z,z,None,574,375.0,199.0,44,1,2211.39999999851,354574.1000000015,9999,pear,NF,C,351735,351735,349906,351018,349906,352118,351535,351535,352118,37
37,test,1,con,1,z,Mon Nov 03 2025 17:00:00 GMT-0600 (Central Standard Time),358784.9000000004,raisin,900,I,z,z,None,549,334.0,215.0,26,1,1995.0999999996275,356789.80000000075,9999,raisin,NF,C,353767,353767,352122,353034,352122,354117,353552,353552,354117,38
38,test,1,inc,1,m,Mon Nov 03 2025 17:00:00 GMT-0600 (Central Standard Time),360601.2000000011,banana,800,I,m,m,None,476,276.0,200.0,69,1,1812.300000000745,358788.9000000004,9999,bronze,NF,C,355650,355650,354121,354934,354121,355933,355450,355450,355933,39
39,test,1,con,1,m,Mon Nov 03 2025 17:00:00 GMT-0600 (Central Standard Time),362917.1000000015,lead,1100,I,m,m,None,671,471.0,200.0,124,1,2311.800000000745,360605.30000000075,9999,lead,NF,C,357766,357766,355937,357050,355938,358249,357566,357566,358249,40
40,test,1,inc,1,z,Mon Nov 03 2025 17:00:00 GMT-0600 (Central Standard Time),364849.6000000015,copper,900,I,z,z,None,492,292.0,200.0,6,1,1928.800000000745,362920.80000000075,9999,banana,NF,C,359882,359882,358253,359166,358253,360182,359682,359682,360182,41
41,test,1,inc,1,m,Mon Nov 03 2025 17:00:00 GMT-0600 (Central Standard Time),367032.4000000004,plum,1100,I,m,m,None,535,335.0,200.0,120,1,2178.4000000003725,364854.0,9999,zinc,NF,C,362015,362015,360186,361298,360186,362365,361815,361815,362364,42
42,test,1,inc,1,m,Mon Nov 03 2025 17:00:00 GMT-0600 (Central Standard Time),368915.2000000011,banana,800,I,m,m,None,546,347.0,199.0,93,1,1879.0999999996275,367036.1000000015,9999,cobalt,NF,C,363898,363898,362368,363181,362368,364247,363698,363698,364247,43
43,test,1,inc,1,z,Mon Nov 03 2025 17:00:00 GMT-0600 (Central Standard Time),370764.6000000015,gold,800,I,z,z,None,506,306.0,200.0,53,1,1845.7000000011176,368918.9000000004,9999,kiwi,NF,C,365780,365780,364251,365064,364251,366097,365580,365580,366097,44
44,test,1,con,1,z,Mon Nov 03 2025 17:00:00 GMT-0600 (Central Standard Time),372913.9000000004,kiwi,1100,I,z,z,None,507,308.0,199.0,52,1,2145.4000000003725,370768.5,9999,kiwi,NF,C,367929,367930,366100,367213,366101,368246,367730,367730,368246,45
45,test,1,inc,1,m,Mon Nov 03 2025 17:00:00 GMT-0600 (Central Standard Time),375129.80000000075,raisin,1100,I,m,m,None,567,367.0,200.0,96,1,2212.199999999255,372917.6000000015,9999,cobalt,NF,C,370079,370079,368250,369362,368250,370462,369879,369879,370462,46
46,test,1,con,1,m,Mon Nov 03 2025 17:00:00 GMT-0600 (Central Standard Time),377328.80000000075,cobalt,1100,I,m,m,None,574,375.0,199.0,92,1,2195.0,375133.80000000075,9999,cobalt,NF,C,372278,372278,370466,371578,370466,372661,372079,372079,372661,47
47,test,1,con,1,m,Mon Nov 03 2025 17:00:00 GMT-0600 (Central Standard Time),379194.9000000004,cobalt,800,I,m,m,None,523,323.0,200.0,89,1,1862.0,377332.9000000004,9999,cobalt,NF,C,374194,374194,372665,373477,372665,374527,373994,373994,374527,48
48,test,1,inc,1,m,Mon Nov 03 2025 17:00:00 GMT-0600 (Central Standard Time),381160.7000000011,banana,800,I,m,m,None,617,417.0,200.0,77,1,1962.2000000011176,379198.5,9999,copper,NF,C,376060,376060,374531,375344,374531,376493,375860,375860,376493,49
49,test,1,inc,1,z,Mon Nov 03 2025 17:00:00 GMT-0600 (Central Standard Time),383076.9000000004,gold,800,I,z,z,None,571,371.0,200.0,37,1,1912.199999999255,381164.7000000011,9999,lime,NF,C,378026,378026,376497,377310,376497,378409,377826,377826,378409,50
50,test,1,inc,1,z,Mon Nov 03 2025 17:00:00 GMT-0600 (Central Standard Time),384959.9000000004,bronze,800,I,z,z,None,543,343.0,200.0,29,1,1879.0999999996275,383080.80000000075,9999,raisin,NF,C,379942,379942,378413,379226,378413,380292,379742,379742,380292,51
51,test,1,con,1,m,Mon Nov 03 2025 17:00:00 GMT-0600 (Central Standard Time),386909.1000000015,silver,800,I,m,m,None,612,412.0,200.0,81,1,1944.9000000003725,384964.2000000011,9999,silver,NF,C,381825,381825,380296,381108,380296,382241,381625,381625,382241,52
52,test,1,con,1,z,Mon Nov 03 2025 17:00:00 GMT-0600 (Central Standard Time),388858.5,plum,800,I,z,z,None,615,415.0,200.0,57,1,1944.7999999988824,386913.7000000011,9999,plum,NF,C,383774,383774,382246,383058,382246,384191,383574,383574,384191,53
52,test,1,con,0,m,Mon Nov 03 2025 17:00:00 GMT-0600 (Central Standard Time),390591.5,iron,800,I,z,z,None,386,186.0,200.0,105,1,1729.0,388862.5,9999,iron,NF,C,385724,385724,384195,385007,384195,385924,385524,385524,385924,54
53,test,1,con,1,z,Mon Nov 03 2025 17:00:00 GMT-0600 (Central Standard Time),392724.7000000011,plum,1000,I,z,z,None,596,397.0,199.0,59,1,2129.5999999996275,390595.1000000015,9999,plum,NF,C,387657,387657,385927,386940,385927,388057,387457,387457,388057,55
54,test,1,inc,1,m,Mon Nov 03 2025 17:00:00 GMT-0600 (Central Standard Time),394840.30000000075,pear,900,I,m,m,None,675,460.0,215.0,126,1,2111.9000000003725,392728.4000000004,9999,lead,NF,C,389706,389706,388060,388973,388061,390172,389491,389491,390172,56
55,test,1,inc,1,m,Mon Nov 03 2025 17:00:00 GMT-0600 (Central Standard Time),396973.1000000015,kiwi,1000,I,m,m,None,589,389.0,200.0,127,1,2128.9000000003725,394844.2000000011,9999,lead,NF,C,391905,391905,390176,391190,390177,392305,391705,391705,392305,57
56,test,1,con,1,m,Mon Nov 03 2025 17:00:00 GMT-0600 (Central Standard Time),399172.30000000075,copper,1000,I,m,m,None,663,464.0,199.0,75,1,2195.5,396976.80000000075,9999,copper,NF,C,394038,394038,392309,393322,392309,394504,393839,393839,394504,58
57,test,1,inc,1,m,Mon Nov 03 2025 17:00:00 GMT-0600 (Central Standard Time),401204.80000000075,lime,800,I,m,m,None,688,489.0,199.0,101,1,2029.0,399175.80000000075,9999,gold,NF,C,396037,396037,394508,395321,394508,396537,395838,395838,396537,59
58,test,1,con,1,m,Mon Nov 03 2025 17:00:00 GMT-0600 (Central Standard Time),403437.5,iron,1100,I,m,m,None,587,387.0,200.0,108,1,2229.0,401208.5,9999,iron,NF,C,398370,398370,396541,397653,396541,398770,398170,398170,398770,60
59,test,1,inc,1,z,Mon Nov 03 2025 17:00:00 GMT-0600 (Central Standard Time),405487.0,iron,900,I,z,z,None,603,404.0,199.0,46,1,2045.7999999988824,403441.2000000011,9999,pear,NF,C,400402,400402,398773,399686,398774,400819,400203,400203,400819,61
60,test,1,con,1,m,Mon Nov 03 2025 17:00:00 GMT-0600 (Central Standard Time),407519.6000000015,lead,900,I,m,m,None,594,394.0,200.0,122,1,2028.9000000003725,405490.7000000011,9999,lead,NF,C,402452,402452,400823,401736,400823,402852,402252,402252,402852,62
61,test,1,inc,1,z,Mon Nov 03 2025 17:00:00 GMT-0600 (Central Standard Time),409553.0,silver,1000,I,z,z,None,484,284.0,200.0,15,1,2029.199999999255,407523.80000000075,9999,cherry,NF,C,404585,404585,402856,403868,402856,404885,404385,404385,404885,63
62,test,1,inc,1,z,Mon Nov 03 2025 17:00:00 GMT-0600 (Central Standard Time),411551.9000000004,iron,900,I,z,z,None,561,361.0,200.0,62,1,1994.7999999988824,409557.1000000015,9999,plum,NF,C,406517,406517,404889,405801,404889,406884,406317,406317,406884,64
63,test,1,inc,1,m,Mon Nov 03 2025 17:00:00 GMT-0600 (Central Standard Time),413651.0,plum,1100,I,m,m,None,457,257.0,200.0,112,1,2095.39999999851,411555.6000000015,9999,iron,NF,C,408717,408717,406888,408000,406888,408983,408517,408517,408983,65
64,test,1,inc,1,z,Mon Nov 03 2025 17:00:00 GMT-0600 (Central Standard Time),415583.9000000004,iron,900,I,z,z,None,494,294.0,200.0,54,1,1929.199999999255,413654.7000000011,9999,kiwi,NF,C,410616,410616,408987,409900,408987,410916,410416,410416,410916,66
65,test,1,con,1,m,Mon Nov 03 2025 17:00:00 GMT-0600 (Central Standard Time),417583.30000000075,silver,900,I,m,m,None,561,361.0,200.0,82,1,1995.5999999996275,415587.7000000011,9999,silver,NF,C,412549,412549,410920,411833,410920,412915,412349,412349,412915,67
66,test,1,inc,1,m,Mon Nov 03 2025 17:00:00 GMT-0600 (Central Standard Time),419715.7000000011,orange,1000,I,m,m,None,590,390.0,200.0,87,1,2128.5999999996275,417587.1000000015,9999,silver,NF,C,414648,414648,412919,413932,412919,415048,414448,414448,415048,68
66,test,1,con,0,m,Mon Nov 03 2025 17:00:00 GMT-0600 (Central Standard Time),421648.7000000011,gold,800,I,z,z,None,585,385.0,200.0,97,1,1929.300000000745,419719.4000000004,9999,gold,NF,C,416581,416581,415051,415865,415052,416981,416381,416381,416981,69
67,test,1,inc,1,m,Mon Nov 03 2025 17:00:00 GMT-0600 (Central Standard Time),423531.5,banana,800,I,m,m,None,540,230.0,310.0,85,1,1879.199999999255,421652.30000000075,9999,silver,NF,C,418624,418624,416984,417797,416985,418864,418314,418314,418864,70
68,test,1,con,1,m,Mon Nov 03 2025 17:00:00 GMT-0600 (Central Standard Time),425630.9000000004,cobalt,1000,I,m,m,None,552,353.0,199.0,91,1,2095.9000000003725,423535.0,9999,cobalt,NF,C,420596,420596,418867,419880,418867,420963,420397,420397,420963,71
69,test,1,inc,1,z,Mon Nov 03 2025 17:00:00 GMT-0600 (Central Standard Time),427563.6000000015,copper,900,I,z,z,None,489,290.0,199.0,22,1,1928.7000000011176,425634.9000000004,9999,orange,NF,C,422596,422596,420967,421879,420967,422896,422396,422396,422896,72
69,test,1,con,0,m,Mon Nov 03 2025 17:00:00 GMT-0600 (Central Standard Time),429562.7000000011,bronze,900,I,z,z,None,556,357.0,199.0,66,1,1995.300000000745,427567.4000000004,9999,bronze,NF,C,424529,424529,422899,423812,422900,424895,424329,424329,424895,73
70,test,1,inc,1,m,Mon Nov 03 2025 17:00:00 GMT-0600 (Central Standard Time),431778.9000000004,plum,1100,I,m,m,None,574,374.0,200.0,104,1,2212.199999999255,429566.7000000011,9999,gold,NF,C,426728,426728,424899,426012,424899,427111,426528,426528,427111,74
71,test,1,inc,1,z,Mon Nov 03 2025 17:00:00 GMT-0600 (Central Standard Time),433761.5,copper,900,I,z,z,None,533,333.0,200.0,30,1,1978.699999999255,431782.80000000075,9999,raisin,NF,C,428744,428744,427115,428027,427115,429094,428544,428544,429094,75
72,test,1,con,1,m,Mon Nov 03 2025 17:00:00 GMT-0600 (Central Standard Time),436060.9000000004,gold,1100,I,m,m,None,654,455.0,199.0,100,1,2295.7999999988824,433765.1000000015,9999,gold,NF,C,430927,430927,429097,430210,429097,431393,430727,430727,431393,76
73,test,1,con,1,m,Mon Nov 03 2025 17:00:00 GMT-0600 (Central Standard Time),437876.7000000011,bronze,800,I,m,m,None,472,272.0,200.0,65,1,1812.300000000745,436064.4000000004,9999,bronze,NF,C,432926,432926,431396,432209,431397,433209,432726,432726,433209,77
74,test,1,inc,1,z,Mon Nov 03 2025 17:00:00 GMT-0600 (Central Standard Time),440026.6000000015,zinc,1000,I,z,z,None,623,408.0,215.0,39,1,2146.300000000745,437880.30000000075,9999,lime,NF,C,434942,434942,433212,434225,433213,435359,434726,434727,435359,78
75,test,1,inc,1,z,Mon Nov 03 2025 17:00:00 GMT-0600 (Central Standard Time),442359.0,lead,1100,I,z,z,None,687,487.0,200.0,48,1,2328.5,440030.5,9999,pear,NF,C,437191,437191,435363,436475,435363,437691,436991,436991,437691,79
76,test,1,inc,1,z,Mon Nov 03 2025 17:00:00 GMT-0600 (Central Standard Time),444491.6000000015,silver,1000,I,z,z,None,597,397.0,200.0,7,1,2128.800000000745,442362.80000000075,9999,banana,NF,C,439424,439424,437695,438707,437695,439824,439224,439224,439824,80
77,test,1,con,1,z,Mon Nov 03 2025 17:00:00 GMT-0600 (Central Standard Time),446557.5,raisin,800,I,z,z,None,720,521.0,199.0,25,1,2062.2999999988824,444495.2000000011,9999,raisin,NF,C,441357,441357,439827,440640,439828,441890,441157,441157,441890,81
78,test,1,inc,1,m,Mon Nov 03 2025 17:00:00 GMT-0600 (Central Standard Time),448673.30000000075,orange,1000,I,m,m,None,574,375.0,199.0,79,1,2112.0999999996275,446561.2000000011,9999,copper,NF,C,443623,443623,441893,442906,441894,444005,443423,443423,444005,82
79,test,1,inc,1,m,Mon Nov 03 2025 17:00:00 GMT-0600 (Central Standard Time),450706.2000000011,pear,900,I,m,m,None,598,399.0,199.0,102,1,2029.0,448677.2000000011,9999,gold,NF,C,445639,445639,444009,444922,444009,446038,445439,445439,446038,83
80,test,1,inc,1,m,Mon Nov 03 2025 17:00:00 GMT-0600 (Central Standard Time),452672.30000000075,cherry,900,I,m,m,None,527,327.0,200.0,78,1,1962.199999999255,450710.1000000015,9999,copper,NF,C,447671,447671,446042,446956,446042,448004,447471,447471,448004,84
81,test,1,inc,1,z,Mon Nov 03 2025 17:00:00 GMT-0600 (Central Standard Time),454671.7000000011,iron,900,I,z,z,None,551,352.0,199.0,38,1,1995.5999999996275,452676.1000000015,9999,lime,NF,C,449637,449637,448008,448922,448008,450004,449438,449438,450004,85
82,test,1,con,1,m,Mon Nov 03 2025 17:00:00 GMT-0600 (Central Standard Time),456771.0,cobalt,900,I,m,m,None,657,457.0,200.0,90,1,2095.5,454675.5,9999,cobalt,NF,C,451637,451637,450008,450920,450008,452103,451437,451437,452103,86
83,test,1,con,1,z,Mon Nov 03 2025 17:00:00 GMT-0600 (Central Standard Time),458770.5,plum,900,I,z,z,None,550,350.0,200.0,58,1,1994.8999999985099,456775.6000000015,9999,plum,NF,C,453736,453736,452108,453020,452108,454103,453536,453536,454103,87
84,test,1,inc,1,z,Mon Nov 03 2025 17:00:00 GMT-0600 (Central Standard Time),461086.2000000011,copper,900,I,z,z,None,870,671.0,199.0,14,1,2312.0999999996275,458774.1000000015,9999,cherry,NF,C,455735,455735,454106,455019,454106,456418,455536,455536,456418,88
85,test,1,inc,1,z,Mon Nov 03 2025 17:00:00 GMT-0600 (Central Standard Time),463752.0,lead,1100,I,z,z,None,1019,819.0,200.0,64,1,2661.699999999255,461090.30000000075,9999,plum,NF,C,458251,458251,456422,457535,456422,459084,458051,458051,459084,89
86,test,1,inc,1,z,Mon Nov 03 2025 17:00:00 GMT-0600 (Central Standard Time),465585.0,bronze,800,I,z,z,None,484,284.0,200.0,5,1,1829.2999999988824,463755.7000000011,9999,banana,NF,C,460617,460617,459088,459901,459088,460917,460417,460417,460917,90
87,test,1,inc,1,z,Mon Nov 03 2025 17:00:00 GMT-0600 (Central Standard Time),467784.1000000015,lead,1100,I,z,z,None,559,359.0,200.0,56,1,2195.2000000011176,465588.9000000004,9999,kiwi,NF,C,462750,462750,460921,462033,460921,463116,462550,462550,463116,91
88,test,1,con,1,z,Mon Nov 03 2025 17:00:00 GMT-0600 (Central Standard Time),469666.80000000075,banana,800,I,z,z,None,549,349.0,200.0,1,1,1879.0,467787.80000000075,9999,banana,NF,C,464649,464649,463120,463933,463120,464999,464449,464449,464999,92
89,test,1,inc,1,m,Mon Nov 03 2025 17:00:00 GMT-0600 (Central Standard Time),471616.2000000011,cherry,900,I,m,m,None,510,310.0,200.0,70,1,1945.5999999996275,469670.6000000015,9999,bronze,NF,C,466632,466632,465003,465915,465003,466948,466432,466432,466948,93
90,test,1,con,1,z,Mon Nov 03 2025 17:00:00 GMT-0600 (Central Standard Time),473582.4000000004,orange,900,I,z,z,None,520,320.0,200.0,18,1,1961.7999999988824,471620.6000000015,9999,orange,NF,C,468581,468581,466953,467865,466953,468915,468381,468381,468914,94
91,test,1,inc,1,z,Mon Nov 03 2025 17:00:00 GMT-0600 (Central Standard Time),475648.5,zinc,1000,I,z,z,None,526,327.0,199.0,63,1,2062.2999999988824,473586.2000000011,9999,plum,NF,C,470647,470647,468918,469931,468918,470981,470448,470448,470980,95
92,test,1,con,1,m,Mon Nov 03 2025 17:00:00 GMT-0600 (Central Standard Time),477764.4000000004,iron,900,I,m,m,None,680,481.0,199.0,106,1,2112.199999999255,475652.2000000011,9999,iron,NF,C,472613,472613,470984,471897,470984,473097,472414,472414,473096,96
93,test,1,con,1,m,Mon Nov 03 2025 17:00:00 GMT-0600 (Central Standard Time),479880.30000000075,gold,1000,I,m,m,None,569,369.0,200.0,99,1,2112.300000000745,477768.0,9999,gold,NF,C,474829,474829,473100,474113,473100,475213,474629,474629,475212,97
94,test,1,inc,1,z,Mon Nov 03 2025 17:00:00 GMT-0600 (Central Standard Time),482079.7000000011,lead,1100,I,z,z,None,568,353.0,215.0,40,1,2195.7000000011176,479884.0,9999,lime,NF,C,477045,477045,475216,476329,475216,477412,476830,476830,477412,98
95,test,1,inc,1,z,Mon Nov 03 2025 17:00:00 GMT-0600 (Central Standard Time),484295.80000000075,zinc,1000,I,z,z,None,684,485.0,199.0,47,1,2212.0999999996275,482083.7000000011,9999,pear,NF,C,479128,479128,477416,478428,477416,479628,478929,478929,479628,99
96,test,1,con,1,z,Mon Nov 03 2025 17:00:00 GMT-0600 (Central Standard Time),486545.30000000075,orange,1100,I,z,z,None,599,400.0,199.0,20,1,2245.699999999255,484299.6000000015,9999,orange,NF,C,481461,481461,479632,480744,479632,481877,481261,481261,481877,100
97,test,1,con,1,m,Mon Nov 03 2025 17:00:00 GMT-0600 (Central Standard Time),488661.1000000015,lead,1000,I,m,m,None,572,372.0,200.0,123,1,2111.4000000003725,486549.7000000011,9999,lead,NF,C,483610,483610,481882,482894,481882,483993,483410,483410,483993,101
98,test,1,con,1,z,Mon Nov 03 2025 17:00:00 GMT-0600 (Central Standard Time),490677.0,kiwi,900,I,z,z,None,572,372.0,200.0,50,1,2012.2999999988824,488664.7000000011,9999,kiwi,NF,C,485626,485626,483997,484910,483997,486009,485426,485426,486009,102
99,test,1,con,1,z,Mon Nov 03 2025 17:00:00 GMT-0600 (Central Standard Time),492676.4000000004,cherry,900,I,z,z,None,564,364.0,200.0,10,1,1995.7999999988824,490680.6000000015,9999,cherry,NF,C,487642,487642,486013,486926,486013,488008,487442,487442,488008,103
100,test,1,inc,1,z,Mon Nov 03 2025 17:00:00 GMT-0600 (Central Standard Time),495242.2000000011,cobalt,1100,I,z,z,None,851,651.0,200.0,32,1,2562.0999999996275,492680.1000000015,9999,raisin,NF,C,489908,489908,488012,489202,488012,490574,489708,489708,490574,104
101,test,1,con,1,z,Mon Nov 03 2025 17:00:00 GMT-0600 (Central Standard Time),497441.6000000015,pear,1000,I,z,z,None,657,458.0,199.0,43,1,2195.7000000011176,495245.9000000004,9999,pear,NF,C,492307,492307,490578,491591,490578,492774,492108,492108,492774,105
102,test,1,inc,1,m,Mon Nov 03 2025 17:00:00 GMT-0600 (Central Standard Time),499374.30000000075,lime,800,I,m,m,None,587,387.0,200.0,109,1,1928.5,497445.80000000075,9999,iron,NF,C,494307,494307,492778,493590,492778,494706,494107,494107,494706,106
103,test,1,inc,1,m,Mon Nov 03 2025 17:00:00 GMT-0600 (Central Standard Time),501407.1000000015,cherry,900,I,m,m,None,595,395.0,200.0,94,1,2028.800000000745,499378.30000000075,9999,cobalt,NF,C,496339,496339,494710,495623,494711,496739,496139,496139,496739,107
104,test,1,inc,1,z,Mon Nov 03 2025 17:00:00 GMT-0600 (Central Standard Time),503423.1000000015,bronze,800,I,z,z,None,678,478.0,200.0,21,1,2011.9000000003725,501411.2000000011,9999,orange,NF,C,498272,498272,496743,497555,496743,498755,498072,498072,498755,108
104,test,1,con,0,m,Mon Nov 03 2025 17:00:00 GMT-0600 (Central Standard Time),505455.9000000004,bronze,1000,I,z,z,None,486,286.0,200.0,67,1,2029.0,503426.9000000004,9999,bronze,NF,C,500488,500488,498759,499771,498759,500788,500288,500288,500788,109
105,test,1,inc,1,z,Mon Nov 03 2025 17:00:00 GMT-0600 (Central Standard Time),507538.1000000015,silver,1000,I,z,z,None,548,348.0,200.0,23,1,2078.4000000003725,505459.7000000011,9999,orange,NF,C,502521,502521,500792,501804,500792,502870,502321,502321,502870,110
106,test,1,con,1,m,Mon Nov 03 2025 17:00:00 GMT-0600 (Central Standard Time),509437.9000000004,lead,800,I,m,m,None,560,361.0,199.0,121,1,1896.199999999255,507541.7000000011,9999,lead,NF,C,504404,504404,502874,503687,502874,504770,504204,504204,504770,111
107,test,1,con,1,m,Mon Nov 03 2025 17:00:00 GMT-0600 (Central Standard Time),511670.6000000015,bronze,1100,I,m,m,None,595,395.0,200.0,68,1,2229.10000000149,509441.5,9999,bronze,NF,C,506603,506603,504774,505886,504774,507003,506403,506403,507003,112
108,test,1,con,1,m,Mon Nov 03 2025 17:00:00 GMT-0600 (Central Standard Time),513903.2000000011,zinc,1000,I,m,m,None,685,486.0,199.0,115,1,2228.9000000003725,511674.30000000075,9999,zinc,NF,C,508735,508736,507006,508019,507007,509235,508536,508536,509235,113
109,test,1,con,1,m,Mon Nov 03 2025 17:00:00 GMT-0600 (Central Standard Time),515869.1000000015,copper,800,I,m,m,None,621,421.0,200.0,73,1,1961.4000000003725,513907.7000000011,9999,copper,NF,C,510768,510769,509240,510052,509240,511201,510568,510568,511201,114
110,test,1,con,1,m,Mon Nov 03 2025 17:00:00 GMT-0600 (Central Standard Time),517985.0,silver,1100,I,m,m,None,400,193.0,207.0,84,1,2112.5,515872.5,9999,silver,NF,C,513117,513117,511205,512318,511205,513317,512910,512910,513317,115
111,test,1,inc,1,m,Mon Nov 03 2025 17:00:00 GMT-0600 (Central Standard Time),520034.5,lime,800,I,m,m,None,716,516.0,200.0,125,1,2045.7999999988824,517988.7000000011,9999,lead,NF,C,514850,514850,513321,514134,513321,515367,514650,514650,515366,116
112,test,1,con,1,m,Mon Nov 03 2025 17:00:00 GMT-0600 (Central Standard Time),522217.2000000011,copper,1100,I,m,m,None,533,334.0,199.0,76,1,2178.7000000011176,520038.5,9999,copper,NF,C,517199,517199,515371,516484,515371,517549,517000,517000,517549,117
113,test,1,inc,1,m,Mon Nov 03 2025 17:00:00 GMT-0600 (Central Standard Time),524316.6000000015,pear,900,I,m,m,None,664,464.0,200.0,110,1,2095.5,522221.1000000015,9999,iron,NF,C,519182,519182,517553,518466,517553,519649,518982,518982,519649,118
114,test,1,con,1,m,Mon Nov 03 2025 17:00:00 GMT-0600 (Central Standard Time),526282.6000000015,copper,900,I,m,m,None,524,325.0,199.0,74,1,1961.5,524321.1000000015,9999,copper,NF,C,521281,521281,519653,520565,519653,521615,521082,521082,521615,119
115,test,1,inc,1,m,Mon Nov 03 2025 17:00:00 GMT-0600 (Central Standard Time),528265.3000000007,pear,900,I,m,m,None,532,333.0,199.0,118,1,1979.0999999996275,526286.2000000011,9999,zinc,NF,C,523248,523248,521618,522531,521618,523597,523048,523048,523597,120
116,test,1,con,1,z,Mon Nov 03 2025 17:00:00 GMT-0600 (Central Standard Time),530381.7000000011,banana,1000,I,z,z,None,572,372.0,200.0,3,1,2112.9000000003725,528268.8000000007,9999,banana,NF,C,525330,525330,523601,524614,523601,525714,525130,525130,525714,121
117,test,1,con,1,z,Mon Nov 03 2025 17:00:00 GMT-0600 (Central Standard Time),532547.4000000004,raisin,1100,I,z,z,None,524,324.0,200.0,28,1,2162.4000000003725,530385.0,9999,raisin,NF,C,527546,527546,525717,526830,525717,527879,527346,527346,527879,122
118,test,1,con,1,z,Mon Nov 03 2025 17:00:00 GMT-0600 (Central Standard Time),534779.6000000015,lime,1100,I,z,z,None,589,389.0,200.0,36,1,2228.60000000149,532551.0,9999,lime,NF,C,529712,529712,527883,528996,527883,530112,529512,529512,530112,123
119,test,1,inc,1,z,Mon Nov 03 2025 17:00:00 GMT-0600 (Central Standard Time),536712.4000000004,gold,800,I,z,z,None,584,384.0,200.0,61,1,1928.7999999988824,534783.6000000015,9999,plum,NF,C,531645,531645,530116,530929,530116,532045,531445,531445,532044,124
120,test,1,con,1,z,Mon Nov 03 2025 17:00:00 GMT-0600 (Central Standard Time),538762.1000000015,lime,800,I,z,z,None,699,500.0,199.0,33,1,2045.9000000003725,536716.2000000011,9999,lime,NF,C,533578,533578,532048,532861,532048,534094,533378,533378,534094,125
121,test,1,inc,1,m,Mon Nov 03 2025 17:00:00 GMT-0600 (Central Standard Time),540990.6000000015,kiwi,1000,I,m,m,None,695,495.0,200.0,119,1,2224.9000000003725,538765.7000000011,9999,zinc,NF,C,535827,535827,534098,535110,534098,536323,535627,535627,536323,126
122,test,1,inc,1,m,Mon Nov 03 2025 17:00:00 GMT-0600 (Central Standard Time),543178.4000000004,orange,1000,I,m,m,None,633,434.0,199.0,95,1,2184.0,540994.4000000004,9999,cobalt,NF,C,538060,538060,536326,537343,536327,538510,537860,537860,538510,127
123,test,1,inc,1,m,Mon Nov 03 2025 17:00:00 GMT-0600 (Central Standard Time),545293.3000000007,kiwi,1000,I,m,m,None,579,380.0,199.0,103,1,2111.199999999255,543182.1000000015,9999,gold,NF,C,540242,540242,538514,539526,538514,540625,540042,540043,540625,128
