acc_sum,block,block_c,condition,correct,correct_response,datetime,endtime,flanker,jitter,project,response,response_test_buffer_response,response_test_target_response,response_time,response_time_test_buffer_response,response_time_test_target_response,row_sel,session_number,start_end,starttime,subject_id,target,task,task_vers,time_test_buffer,time_test_buffer_response,time_test_constants,time_test_flanker,time_test_jitter,time_test_logger,time_test_target,time_test_target_response,time_test_variables,trial
1,prac,1,inc,1,m,Tue Oct 28 2025 09:39:20 GMT-0500 (Central Daylight Time),272107.60000002384,cherry,900,I,m,,,612,,,10,,2790.6999999284744,269316.90000009537,9999,copper,NF,C,,,,,,,,,,1
2,prac,1,inc,1,m,Tue Oct 28 2025 09:39:20 GMT-0500 (Central Daylight Time),274837.8000000715,pear,900,I,m,,,518,,,14,,2723.7000000476837,272114.10000002384,9999,iron,NF,C,,,,,,,,,,2
3,prac,1,inc,1,m,Tue Oct 28 2025 09:39:20 GMT-0500 (Central Daylight Time),277787.5,raisin,1100,I,m,,,533,,,12,,2941.0,274846.5,9999,cobalt,NF,C,,,,,,,,,,3
4,prac,1,con,1,z,Tue Oct 28 2025 09:39:20 GMT-0500 (Central Daylight Time),280452.7000000477,kiwi,1000,I,z,,,360,,,7,,2659.399999976158,277793.3000000715,9999,kiwi,NF,C,,,,,,,,,,4
5,prac,1,con,1,m,Tue Oct 28 2025 09:39:20 GMT-0500 (Central Daylight Time),282953.7000000477,bronze,800,I,m,,,390,,,9,,2491.0,280462.7000000477,9999,bronze,NF,C,,,,,,,,,,5
6,prac,1,inc,1,z,Tue Oct 28 2025 09:39:20 GMT-0500 (Central Daylight Time),285651.0,iron,900,I,z,,,487,,,6,,2691.0999999046326,282959.90000009537,9999,pear,NF,C,,,,,,,,,,6
7,prac,1,con,1,z,Tue Oct 28 2025 09:39:20 GMT-0500 (Central Daylight Time),288350.3000000715,orange,1000,I,z,,,383,,,3,,2691.600000023842,285658.7000000477,9999,orange,NF,C,,,,,,,,,,7
7,prac,1,inc,0,z,Tue Oct 28 2025 09:39:20 GMT-0500 (Central Daylight Time),291299.2000000477,lead,1100,I,m,,,544,,,8,,2943.7000000476837,288355.5,9999,plum,NF,C,,,,,,,,,,8
8,prac,1,con,1,z,Tue Oct 28 2025 09:39:20 GMT-0500 (Central Daylight Time),293766.3000000715,banana,800,I,z,,,351,,,1,,2463.600000023842,291302.7000000477,9999,banana,NF,C,,,,,,,,,,9
9,prac,1,inc,1,m,Tue Oct 28 2025 09:39:20 GMT-0500 (Central Daylight Time),296680.8000000715,plum,1100,I,m,,,516,,,16,,2909.899999976158,293770.90000009537,9999,lead,NF,C,,,,,,,,,,10
10,prac,1,con,1,m,Tue Oct 28 2025 09:39:20 GMT-0500 (Central Daylight Time),299364.3000000715,silver,1000,I,m,,,385,,,11,,2676.8000000715256,296687.5,9999,silver,NF,C,,,,,,,,,,11
11,prac,1,inc,1,z,Tue Oct 28 2025 09:39:20 GMT-0500 (Central Daylight Time),302047.3000000715,copper,900,I,z,,,475,,,2,,2674.600000023842,299372.7000000477,9999,cherry,NF,C,,,,,,,,,,12
12,prac,1,con,1,m,Tue Oct 28 2025 09:39:20 GMT-0500 (Central Daylight Time),304494.90000009537,gold,800,I,m,,,332,,,13,,2441.4000000953674,302053.5,9999,gold,NF,C,,,,,,,,,,13
13,prac,1,inc,1,z,Tue Oct 28 2025 09:39:20 GMT-0500 (Central Daylight Time),307480.10000002384,cobalt,1100,I,z,,,569,,,4,,2978.899999976158,304501.2000000477,9999,raisin,NF,C,,,,,,,,,,14
14,prac,1,con,1,m,Tue Oct 28 2025 09:39:20 GMT-0500 (Central Daylight Time),310176.60000002384,zinc,1000,I,m,,,391,,,15,,2690.6999999284744,307485.90000009537,9999,zinc,NF,C,,,,,,,,,,15
15,prac,1,con,1,z,Tue Oct 28 2025 09:39:20 GMT-0500 (Central Daylight Time),312892.8000000715,lime,800,I,z,,,610,,,5,,2712.2000000476837,310180.60000002384,9999,lime,NF,C,,,,,,,,,,16
1,test,1,con,1,m,Tue Oct 28 2025 09:39:20 GMT-0500 (Central Daylight Time),326888.8000000715,gold,1100,I,m,m,None,376,175.0,201.0,100,,2012.0,324876.8000000715,9999,gold,NF,C,322745,322745,320915,322027,320915,322927,322543,322543,322927,1
2,test,1,inc,1,m,Tue Oct 28 2025 09:39:20 GMT-0500 (Central Daylight Time),328921.10000002384,orange,1000,I,m,m,None,483,284.0,199.0,79,,2028.1999999284744,326892.90000009537,9999,copper,NF,C,324659,324659,322931,323943,322931,324959,324460,324460,324959,2
3,test,1,inc,1,z,Tue Oct 28 2025 09:39:20 GMT-0500 (Central Daylight Time),331070.3000000715,cobalt,1100,I,z,z,None,503,304.0,199.0,24,,2143.899999976158,328926.40000009537,9999,orange,NF,C,326792,326792,324964,326076,324965,327108,326593,326593,327108,3
4,test,1,con,1,z,Tue Oct 28 2025 09:39:20 GMT-0500 (Central Daylight Time),333052.40000009537,orange,900,I,z,z,None,535,320.0,215.0,18,,1977.8000000715256,331074.60000002384,9999,orange,NF,C,328759,328759,327113,328026,327113,329090,328542,328543,329090,4
5,test,1,con,1,m,Tue Oct 28 2025 09:39:20 GMT-0500 (Central Daylight Time),334835.40000009537,cobalt,900,I,m,m,None,348,148.0,200.0,90,,1778.9000000953674,333056.5,9999,cobalt,NF,C,330725,330725,329095,330007,329095,330873,330524,330524,330873,5
6,test,1,con,1,m,Tue Oct 28 2025 09:39:20 GMT-0500 (Central Daylight Time),336668.3000000715,lead,900,I,m,m,None,389,188.0,201.0,122,,1826.7000000476837,334841.60000002384,9999,lead,NF,C,332507,332507,330880,331790,330880,332706,332306,332306,332706,6
7,test,1,inc,1,m,Tue Oct 28 2025 09:39:20 GMT-0500 (Central Daylight Time),338500.8000000715,banana,800,I,m,m,None,489,289.0,200.0,85,,1829.3999999761581,336671.40000009537,9999,silver,NF,C,334238,334238,332709,333523,332710,334539,334038,334038,334539,7
8,test,1,inc,1,z,Tue Oct 28 2025 09:39:20 GMT-0500 (Central Daylight Time),340334.0,bronze,800,I,z,z,None,485,270.0,215.0,5,,1828.1999999284744,338505.8000000715,9999,banana,NF,C,336089,336089,334544,335356,334544,336372,335874,335874,336372,8
9,test,1,con,1,m,Tue Oct 28 2025 09:39:20 GMT-0500 (Central Daylight Time),342000.0,iron,800,I,m,m,None,333,133.0,200.0,105,,1662.1999999284744,340337.8000000715,9999,iron,NF,C,337890,337890,336376,337188,336376,338038,337689,337689,338038,9
10,test,1,inc,1,z,Tue Oct 28 2025 09:39:20 GMT-0500 (Central Daylight Time),343848.3000000715,iron,900,I,z,z,None,400,199.0,201.0,62,,1844.5,342003.8000000715,9999,plum,NF,C,339672,339672,338042,338955,338042,339886,339470,339470,339886,10
10,test,1,con,0,z,Tue Oct 28 2025 09:39:20 GMT-0500 (Central Daylight Time),345731.8000000715,plum,1000,I,m,m,None,337,138.0,199.0,59,,1879.7000000476837,343852.10000002384,9999,plum,NF,C,341621,341621,339890,340905,339890,341770,341421,341421,341770,11
11,test,1,con,1,m,Tue Oct 28 2025 09:39:20 GMT-0500 (Central Daylight Time),347414.3000000715,bronze,800,I,m,m,None,342,127.0,215.0,65,,1676.8999999761581,345737.40000009537,9999,bronze,NF,C,343320,343320,341775,342587,341776,343452,343105,343105,343452,12
12,test,1,inc,1,m,Tue Oct 28 2025 09:39:20 GMT-0500 (Central Daylight Time),349381.40000009537,orange,1000,I,m,m,None,429,229.0,200.0,95,,1963.8000000715256,347417.60000002384,9999,cobalt,NF,C,345187,345187,343456,344470,343456,345419,344986,344986,345419,13
13,test,1,con,1,z,Tue Oct 28 2025 09:39:20 GMT-0500 (Central Daylight Time),351180.10000002384,plum,800,I,z,z,None,461,247.0,214.0,57,,1793.5,349386.60000002384,9999,plum,NF,C,346969,346969,345425,346236,345425,347218,346754,346754,347218,14
14,test,1,con,1,z,Tue Oct 28 2025 09:39:20 GMT-0500 (Central Daylight Time),353063.60000002384,banana,1000,I,z,z,None,334,135.0,199.0,3,,1878.5,351185.10000002384,9999,banana,NF,C,348952,348952,347223,348236,347223,349102,348752,348752,349102,15
15,test,1,inc,1,m,Tue Oct 28 2025 09:39:20 GMT-0500 (Central Daylight Time),354962.3000000715,cherry,900,I,m,m,None,456,257.0,199.0,86,,1891.8000000715256,353070.5,9999,silver,NF,C,350734,350734,349109,350018,349109,351000,350535,350535,351000,16
16,test,1,inc,1,m,Tue Oct 28 2025 09:39:20 GMT-0500 (Central Daylight Time),357128.90000009537,raisin,1100,I,m,m,None,527,326.0,201.0,96,,2160.9000000953674,354968.0,9999,cobalt,NF,C,352834,352834,351006,352117,351006,353167,352633,352633,353167,17
17,test,1,con,1,z,Tue Oct 28 2025 09:39:20 GMT-0500 (Central Daylight Time),358979.40000009537,orange,1000,I,z,z,None,306,91.0,215.0,19,,1844.2000000476837,357135.2000000477,9999,orange,NF,C,354917,354917,353173,354185,353174,355017,354701,354701,355017,18
18,test,1,inc,1,z,Tue Oct 28 2025 09:39:20 GMT-0500 (Central Daylight Time),360960.5,bronze,800,I,z,z,None,649,449.0,200.0,29,,1977.6999999284744,358982.8000000715,9999,raisin,NF,C,356534,356534,355021,355832,355021,356999,356333,356333,356999,19
19,test,1,con,1,m,Tue Oct 28 2025 09:39:20 GMT-0500 (Central Daylight Time),362712.5,iron,900,I,m,m,None,309,95.0,214.0,106,,1745.6999999284744,360966.8000000715,9999,iron,NF,C,358649,358649,357005,357916,357005,358751,358434,358434,358751,20
20,test,1,con,1,z,Tue Oct 28 2025 09:39:20 GMT-0500 (Central Daylight Time),364758.8000000715,raisin,900,I,z,z,None,601,402.0,199.0,26,,2041.7000000476837,362717.10000002384,9999,raisin,NF,C,360381,360381,358755,359664,358755,360797,360181,360181,360797,21
21,test,1,inc,1,z,Tue Oct 28 2025 09:39:20 GMT-0500 (Central Daylight Time),366624.7000000477,gold,800,I,z,z,None,533,333.0,200.0,37,,1860.3999999761581,364764.3000000715,9999,lime,NF,C,362330,362330,360802,361615,360803,362663,362130,362130,362663,22
22,test,1,con,1,m,Tue Oct 28 2025 09:39:20 GMT-0500 (Central Daylight Time),368475.10000002384,lead,1000,I,m,m,None,322,123.0,199.0,123,,1847.6000000238419,366627.5,9999,lead,NF,C,364379,364380,362666,363679,362666,364513,364180,364180,364513,23
23,test,1,inc,1,m,Tue Oct 28 2025 09:39:20 GMT-0500 (Central Daylight Time),370874.5,raisin,1100,I,m,m,None,758,558.0,200.0,88,,2395.0,368479.5,9999,silver,NF,C,366346,366346,364518,365629,364518,366913,366145,366145,366913,24
24,test,1,inc,1,m,Tue Oct 28 2025 09:39:20 GMT-0500 (Central Daylight Time),372841.7000000477,orange,1000,I,m,m,None,419,215.0,204.0,87,,1963.7000000476837,370878.0,9999,silver,NF,C,368648,368649,366916,367929,366916,368880,368444,368444,368880,25
25,test,1,inc,1,z,Tue Oct 28 2025 09:39:20 GMT-0500 (Central Daylight Time),374822.7000000477,copper,900,I,z,z,None,533,318.0,215.0,30,,1972.7000000476837,372850.0,9999,raisin,NF,C,370529,370529,368888,369796,368888,370861,370313,370313,370861,26
26,test,1,con,1,m,Tue Oct 28 2025 09:39:20 GMT-0500 (Central Daylight Time),376672.90000009537,copper,800,I,m,m,None,513,301.0,212.0,73,,1847.0,374825.90000009537,9999,copper,NF,C,372394,372394,370864,371679,370864,372711,372182,372182,372711,27
27,test,1,con,1,z,Tue Oct 28 2025 09:39:20 GMT-0500 (Central Daylight Time),378437.8000000715,cherry,900,I,z,z,None,317,118.0,199.0,10,,1759.0,376678.8000000715,9999,cherry,NF,C,374345,374345,372717,373629,372717,374476,374145,374145,374476,28
28,test,1,inc,1,z,Tue Oct 28 2025 09:39:20 GMT-0500 (Central Daylight Time),380405.3000000715,gold,800,I,z,z,None,621,422.0,199.0,45,,1959.8999999761581,378445.40000009537,9999,pear,NF,C,376009,376009,374483,375295,374484,376443,375810,375810,376443,29
29,test,1,con,1,z,Tue Oct 28 2025 09:39:20 GMT-0500 (Central Daylight Time),382187.5,pear,800,I,z,z,None,433,233.0,200.0,41,,1777.6999999284744,380409.8000000715,9999,pear,NF,C,377976,377976,376448,377259,376448,378226,377776,377776,378226,30
30,test,1,inc,1,z,Tue Oct 28 2025 09:39:20 GMT-0500 (Central Daylight Time),384052.90000009537,gold,800,I,z,z,None,543,329.0,214.0,53,,1861.0,382191.90000009537,9999,kiwi,NF,C,379758,379758,378230,379041,378230,380091,379544,379544,380091,31
31,test,1,con,1,m,Tue Oct 28 2025 09:39:20 GMT-0500 (Central Daylight Time),385969.3000000715,copper,1000,I,m,m,None,373,158.0,215.0,75,,1910.8000000715256,384058.5,9999,copper,NF,C,381841,381841,380097,381110,380097,382007,381625,381625,382007,32
32,test,1,con,1,z,Tue Oct 28 2025 09:39:20 GMT-0500 (Central Daylight Time),387787.0,lime,900,I,z,z,None,384,183.0,201.0,34,,1814.0999999046326,385972.90000009537,9999,lime,NF,C,383641,383641,382011,382924,382011,383825,383440,383440,383825,33
33,test,1,inc,1,m,Tue Oct 28 2025 09:39:20 GMT-0500 (Central Daylight Time),389934.40000009537,plum,1100,I,m,m,None,501,286.0,215.0,128,,2143.8000000715256,387790.60000002384,9999,lead,NF,C,385673,385673,383829,384940,383829,385972,385458,385458,385972,34
34,test,1,inc,1,z,Tue Oct 28 2025 09:39:20 GMT-0500 (Central Daylight Time),392034.0,cobalt,1100,I,z,z,None,456,257.0,199.0,8,,2093.1999999284744,389940.8000000715,9999,banana,NF,C,387806,387806,385979,387091,385979,388072,387606,387606,388072,35
35,test,1,inc,1,z,Tue Oct 28 2025 09:39:20 GMT-0500 (Central Daylight Time),393882.8000000715,bronze,800,I,z,z,None,507,306.0,201.0,21,,1844.1000000238419,392038.7000000477,9999,orange,NF,C,389605,389605,388077,388889,388077,389921,389404,389404,389921,36
36,test,1,inc,1,z,Tue Oct 28 2025 09:39:20 GMT-0500 (Central Daylight Time),395848.3000000715,iron,900,I,z,z,None,515,299.0,216.0,54,,1962.1000000238419,393886.2000000477,9999,kiwi,NF,C,391572,391572,389924,390838,389924,391886,391356,391356,391886,37
37,test,1,con,1,z,Tue Oct 28 2025 09:39:20 GMT-0500 (Central Daylight Time),397832.10000002384,cherry,1100,I,z,z,None,358,159.0,199.0,12,,1980.6000000238419,395851.5,9999,cherry,NF,C,393704,393704,391890,393003,391890,393870,393504,393504,393870,38
38,test,1,con,1,z,Tue Oct 28 2025 09:39:20 GMT-0500 (Central Daylight Time),399747.90000009537,pear,1000,I,z,z,None,395,180.0,215.0,43,,1912.5,397835.40000009537,9999,pear,NF,C,395603,395603,393873,394887,393874,395786,395388,395388,395786,39
39,test,1,inc,1,z,Tue Oct 28 2025 09:39:20 GMT-0500 (Central Daylight Time),401730.40000009537,iron,900,I,z,z,None,539,339.0,200.0,38,,1978.1000000238419,399752.3000000715,9999,lime,NF,C,397420,397420,395790,396703,395791,397768,397219,397219,397768,40
40,test,1,inc,1,m,Tue Oct 28 2025 09:39:20 GMT-0500 (Central Daylight Time),403713.8000000715,pear,900,I,m,m,None,556,341.0,215.0,102,,1979.3999999761581,401734.40000009537,9999,gold,NF,C,399402,399402,397772,398685,397773,399752,399186,399186,399752,41
41,test,1,inc,1,m,Tue Oct 28 2025 09:39:20 GMT-0500 (Central Daylight Time),405629.2000000477,lime,800,I,m,m,None,593,379.0,214.0,101,,1910.8999999761581,403718.3000000715,9999,gold,NF,C,401285,401285,399756,400568,399757,401667,401070,401070,401667,42
42,test,1,inc,1,m,Tue Oct 28 2025 09:39:20 GMT-0500 (Central Daylight Time),407398.40000009537,lime,800,I,m,m,None,430,230.0,200.0,109,,1765.3000000715256,405633.10000002384,9999,iron,NF,C,403201,403202,401671,402484,401671,403436,403001,403001,403436,43
43,test,1,con,1,z,Tue Oct 28 2025 09:39:20 GMT-0500 (Central Daylight Time),409546.8000000715,plum,1100,I,z,z,None,519,317.0,202.0,60,,2142.100000023842,407404.7000000477,9999,plum,NF,C,405268,405268,403443,404551,403443,405585,405066,405066,405585,44
44,test,1,inc,1,z,Tue Oct 28 2025 09:39:20 GMT-0500 (Central Daylight Time),411511.0,silver,1000,I,z,z,None,425,210.0,215.0,7,,1959.3999999761581,409551.60000002384,9999,banana,NF,C,407333,407333,405590,406600,405590,407549,407118,407118,407549,45
45,test,1,con,1,m,Tue Oct 28 2025 09:39:20 GMT-0500 (Central Daylight Time),413443.2000000477,iron,1000,I,m,m,None,388,188.0,200.0,107,,1928.7000000476837,411514.5,9999,iron,NF,C,409283,409283,407553,408565,407553,409481,409083,409083,409481,46
46,test,1,con,1,m,Tue Oct 28 2025 09:39:20 GMT-0500 (Central Daylight Time),415159.5,silver,800,I,m,m,None,376,175.0,201.0,81,,1712.6999999284744,413446.8000000715,9999,silver,NF,C,411017,411017,409485,410299,409485,411198,410815,410815,411198,47
47,test,1,inc,1,m,Tue Oct 28 2025 09:39:20 GMT-0500 (Central Daylight Time),417226.10000002384,plum,1100,I,m,m,None,441,225.0,216.0,112,,2060.2999999523163,415165.8000000715,9999,iron,NF,C,413031,413031,411204,412314,411204,413264,412815,412815,413264,48
47,test,1,con,0,m,Tue Oct 28 2025 09:39:20 GMT-0500 (Central Daylight Time),419142.40000009537,bronze,1000,I,z,z,None,394,195.0,199.0,67,,1910.5,417231.90000009537,9999,bronze,NF,C,414980,414980,413270,414280,413270,415181,414781,414781,415180,49
48,test,1,con,1,m,Tue Oct 28 2025 09:39:20 GMT-0500 (Central Daylight Time),421024.40000009537,gold,800,I,m,m,None,533,333.0,200.0,97,,1877.5,419146.90000009537,9999,gold,NF,C,416714,416714,415185,415998,415185,417063,416513,416513,417062,50
49,test,1,con,1,z,Tue Oct 28 2025 09:39:20 GMT-0500 (Central Daylight Time),423058.3000000715,banana,1100,I,z,z,None,416,217.0,199.0,4,,2028.3999999761581,421029.90000009537,9999,banana,NF,C,418879,418879,417068,418178,417068,419096,418680,418680,419096,51
50,test,1,con,1,m,Tue Oct 28 2025 09:39:20 GMT-0500 (Central Daylight Time),424890.3000000715,copper,900,I,m,m,None,391,190.0,201.0,74,,1828.2000000476837,423062.10000002384,9999,copper,NF,C,420729,420729,419100,420014,419100,420928,420528,420528,420928,52
51,test,1,con,1,m,Tue Oct 28 2025 09:39:20 GMT-0500 (Central Daylight Time),427072.2000000477,lead,1100,I,m,m,None,534,334.0,200.0,124,,2179.0,424893.2000000477,9999,lead,NF,C,422761,422761,420931,422045,420931,423110,422561,422561,423110,53
52,test,1,con,1,z,Tue Oct 28 2025 09:39:20 GMT-0500 (Central Daylight Time),428740.3000000715,banana,800,I,z,z,None,322,107.0,215.0,1,,1665.1000000238419,427075.2000000477,9999,banana,NF,C,424660,424660,423113,423929,423113,424778,424445,424445,424778,54
53,test,1,inc,1,z,Tue Oct 28 2025 09:39:20 GMT-0500 (Central Daylight Time),430688.8000000715,copper,900,I,z,z,None,502,298.0,204.0,22,,1944.8000000715256,428744.0,9999,orange,NF,C,426413,426413,424782,425695,424782,426727,426209,426209,426727,55
54,test,1,con,1,z,Tue Oct 28 2025 09:39:20 GMT-0500 (Central Daylight Time),432721.3000000715,cherry,1000,I,z,z,None,483,281.0,202.0,11,,2027.8999999761581,430693.40000009537,9999,cherry,NF,C,428462,428462,426731,427743,426732,428759,428259,428259,428759,56
55,test,1,con,1,z,Tue Oct 28 2025 09:39:20 GMT-0500 (Central Daylight Time),434470.60000002384,raisin,800,I,z,z,None,418,219.0,199.0,25,,1745.0,432725.60000002384,9999,raisin,NF,C,430276,430276,428764,429575,428764,430509,430076,430076,430509,57
56,test,1,con,1,m,Tue Oct 28 2025 09:39:20 GMT-0500 (Central Daylight Time),436436.10000002384,cobalt,1100,I,m,m,None,320,121.0,199.0,92,,1962.5,434473.60000002384,9999,cobalt,NF,C,432342,432342,430512,431625,430512,432474,432142,432142,432474,58
57,test,1,inc,1,m,Tue Oct 28 2025 09:39:20 GMT-0500 (Central Daylight Time),438318.90000009537,pear,900,I,m,m,None,434,235.0,199.0,110,,1879.9000000953674,436439.0,9999,iron,NF,C,434108,434108,432477,433392,432477,434357,433909,433909,434357,59
58,test,1,inc,1,m,Tue Oct 28 2025 09:39:20 GMT-0500 (Central Daylight Time),440387.40000009537,kiwi,1000,I,m,m,None,533,334.0,199.0,119,,2065.0,438322.40000009537,9999,zinc,NF,C,436090,436090,434360,435374,434361,436426,435890,435891,436425,60
59,test,1,inc,1,m,Tue Oct 28 2025 09:39:20 GMT-0500 (Central Daylight Time),442267.5,lime,800,I,m,m,None,546,346.0,200.0,125,,1874.8999999761581,440392.60000002384,9999,lead,NF,C,437957,437957,436431,437240,436431,438306,437756,437757,438306,61
60,test,1,con,1,m,Tue Oct 28 2025 09:39:20 GMT-0500 (Central Daylight Time),444383.60000002384,bronze,1100,I,m,m,None,476,276.0,200.0,68,,2113.100000023842,442270.5,9999,bronze,NF,C,440139,440139,438309,439422,438309,440422,439939,439939,440422,62
61,test,1,inc,1,m,Tue Oct 28 2025 09:39:20 GMT-0500 (Central Daylight Time),446583.7000000477,kiwi,1000,I,m,m,None,652,452.0,200.0,111,,2196.399999976158,444387.3000000715,9999,iron,NF,C,442155,442155,440425,441439,440426,442622,441955,441955,442622,63
62,test,1,con,1,m,Tue Oct 28 2025 09:39:20 GMT-0500 (Central Daylight Time),448516.5,zinc,800,I,m,m,None,596,396.0,200.0,113,,1929.3999999761581,446587.10000002384,9999,zinc,NF,C,444155,444155,442625,443439,442625,444555,443954,443954,444555,64
63,test,1,con,1,z,Tue Oct 28 2025 09:39:20 GMT-0500 (Central Daylight Time),450250.40000009537,lime,800,I,z,z,None,392,192.0,200.0,33,,1730.3000000715256,448520.10000002384,9999,lime,NF,C,446087,446088,444558,445373,444558,446288,445887,445887,446288,65
64,test,1,con,1,z,Tue Oct 28 2025 09:39:20 GMT-0500 (Central Daylight Time),452049.90000009537,plum,900,I,z,z,None,366,167.0,199.0,58,,1795.7000000476837,450254.2000000477,9999,plum,NF,C,447921,447921,446292,447204,446292,448088,447721,447721,448088,66
65,test,1,inc,1,m,Tue Oct 28 2025 09:39:20 GMT-0500 (Central Daylight Time),454081.8000000715,orange,1000,I,m,m,None,515,300.0,215.0,71,,2027.5,452054.3000000715,9999,bronze,NF,C,449820,449820,448092,449103,448093,450120,449605,449605,450120,67
66,test,1,con,1,m,Tue Oct 28 2025 09:39:20 GMT-0500 (Central Daylight Time),456163.7000000477,bronze,900,I,m,m,None,663,463.0,200.0,66,,2078.100000023842,454085.60000002384,9999,bronze,NF,C,451737,451737,450124,451035,450124,452202,451537,451537,452202,68
67,test,1,con,1,z,Tue Oct 28 2025 09:39:20 GMT-0500 (Central Daylight Time),457930.8000000715,orange,800,I,z,z,None,433,218.0,215.0,17,,1764.5,456166.3000000715,9999,orange,NF,C,453751,453751,452204,453019,452205,453969,453536,453536,453969,69
68,test,1,inc,1,z,Tue Oct 28 2025 09:39:20 GMT-0500 (Central Daylight Time),460030.5,zinc,1000,I,z,z,None,553,338.0,215.0,39,,2094.6999999284744,457935.8000000715,9999,lime,NF,C,455717,455717,453974,454985,453974,456069,455502,455502,456069,70
69,test,1,con,1,m,Tue Oct 28 2025 09:39:20 GMT-0500 (Central Daylight Time),461845.40000009537,gold,900,I,m,m,None,368,169.0,199.0,98,,1811.5,460033.90000009537,9999,gold,NF,C,457702,457702,456072,456984,456072,457883,457503,457503,457883,71
70,test,1,con,1,m,Tue Oct 28 2025 09:39:20 GMT-0500 (Central Daylight Time),463910.90000009537,zinc,1100,I,m,m,None,427,227.0,200.0,116,,2061.2000000476837,461849.7000000477,9999,zinc,NF,C,459717,459717,457888,458999,457888,459949,459516,459516,459949,72
71,test,1,con,1,m,Tue Oct 28 2025 09:39:20 GMT-0500 (Central Daylight Time),465793.5,cobalt,1000,I,m,m,None,365,166.0,199.0,91,,1878.0999999046326,463915.40000009537,9999,cobalt,NF,C,461665,461665,459953,460965,459954,461832,461466,461466,461832,73
72,test,1,inc,1,z,Tue Oct 28 2025 09:39:20 GMT-0500 (Central Daylight Time),467877.7000000477,silver,1000,I,z,z,None,546,344.0,202.0,31,,2081.0,465796.7000000477,9999,raisin,NF,C,463567,463567,461835,462848,461835,463916,463364,463364,463916,74
73,test,1,inc,1,m,Tue Oct 28 2025 09:39:20 GMT-0500 (Central Daylight Time),470108.7000000477,raisin,1100,I,m,m,None,603,388.0,215.0,80,,2227.399999976158,467881.3000000715,9999,copper,NF,C,465747,465747,463919,465031,463920,466147,465532,465532,466147,75
74,test,1,con,1,m,Tue Oct 28 2025 09:39:20 GMT-0500 (Central Daylight Time),472159.40000009537,zinc,900,I,m,m,None,626,412.0,214.0,114,,2046.0,470113.40000009537,9999,zinc,NF,C,467780,467780,466151,467064,466152,468197,467565,467565,468197,76
75,test,1,inc,1,z,Tue Oct 28 2025 09:39:20 GMT-0500 (Central Daylight Time),474424.8000000715,lead,1100,I,z,z,None,641,427.0,214.0,48,,2261.7000000476837,472163.10000002384,9999,pear,NF,C,470029,470029,468201,469313,468201,470463,469814,469815,470463,77
76,test,1,con,1,m,Tue Oct 28 2025 09:39:20 GMT-0500 (Central Daylight Time),476491.3000000715,copper,1100,I,m,m,None,431,231.0,200.0,76,,2062.5,474428.8000000715,9999,copper,NF,C,472296,472296,470467,471579,470467,472529,472096,472096,472529,78
77,test,1,inc,1,z,Tue Oct 28 2025 09:39:20 GMT-0500 (Central Daylight Time),478625.0,lead,1100,I,z,z,None,486,285.0,201.0,56,,2130.2999999523163,476494.7000000477,9999,kiwi,NF,C,474362,474362,472533,473646,472533,474663,474161,474161,474663,79
78,test,1,inc,1,m,Tue Oct 28 2025 09:39:20 GMT-0500 (Central Daylight Time),480773.2000000477,plum,1100,I,m,m,None,504,302.0,202.0,120,,2144.7000000476837,478628.5,9999,zinc,NF,C,476496,476497,474666,475783,474667,476811,476294,476294,476811,80
79,test,1,con,1,z,Tue Oct 28 2025 09:39:20 GMT-0500 (Central Daylight Time),482821.90000009537,kiwi,1000,I,z,z,None,512,312.0,200.0,51,,2045.0,480776.90000009537,9999,kiwi,NF,C,478544,478544,476815,477828,476815,478860,478343,478344,478860,81
80,test,1,inc,1,m,Tue Oct 28 2025 09:39:20 GMT-0500 (Central Daylight Time),484871.40000009537,kiwi,1000,I,m,m,None,501,302.0,199.0,127,,2043.3000000715256,482828.10000002384,9999,lead,NF,C,480593,480593,478866,479878,478866,480909,480393,480393,480909,82
81,test,1,inc,1,m,Tue Oct 28 2025 09:39:20 GMT-0500 (Central Daylight Time),486819.40000009537,lime,800,I,m,m,None,626,412.0,214.0,117,,1941.3000000715256,484878.10000002384,9999,zinc,NF,C,482442,482442,480916,481725,480916,482857,482228,482228,482857,83
82,test,1,inc,1,m,Tue Oct 28 2025 09:39:20 GMT-0500 (Central Daylight Time),488803.90000009537,cherry,900,I,m,m,None,563,363.0,200.0,94,,1981.3000000715256,486822.60000002384,9999,cobalt,NF,C,484476,484476,482861,483775,482861,484842,484276,484276,484842,84
83,test,1,con,1,z,Tue Oct 28 2025 09:39:20 GMT-0500 (Central Daylight Time),490636.60000002384,banana,900,I,z,z,None,397,196.0,201.0,2,,1827.1000000238419,488809.5,9999,banana,NF,C,486475,486475,484848,485758,484848,486675,486274,486274,486675,85
84,test,1,inc,1,z,Tue Oct 28 2025 09:39:20 GMT-0500 (Central Daylight Time),492568.7000000477,gold,800,I,z,z,None,583,383.0,200.0,61,,1924.1000000238419,490644.60000002384,9999,plum,NF,C,488208,488208,486683,487492,486683,488607,488007,488007,488607,86
85,test,1,inc,1,m,Tue Oct 28 2025 09:39:20 GMT-0500 (Central Daylight Time),494451.3000000715,pear,900,I,m,m,None,446,247.0,199.0,126,,1879.5,492571.8000000715,9999,lead,NF,C,490240,490240,488610,489523,488610,490490,490040,490040,490489,87
86,test,1,inc,1,m,Tue Oct 28 2025 09:39:20 GMT-0500 (Central Daylight Time),496636.90000009537,plum,1100,I,m,m,None,539,324.0,215.0,104,,2179.4000000953674,494457.5,9999,gold,NF,C,492339,492339,490496,491606,490496,492675,492124,492124,492675,88
87,test,1,con,1,m,Tue Oct 28 2025 09:39:20 GMT-0500 (Central Daylight Time),498699.7000000477,cobalt,800,I,m,m,None,728,529.0,199.0,89,,2060.0,496639.7000000477,9999,cobalt,NF,C,494206,494206,492678,493489,492678,494738,494007,494007,494737,89
88,test,1,inc,1,m,Tue Oct 28 2025 09:39:20 GMT-0500 (Central Daylight Time),500649.2000000477,pear,900,I,m,m,None,508,309.0,199.0,118,,1941.7000000476837,498707.5,9999,zinc,NF,C,496371,496371,494746,495655,494746,496687,496171,496171,496687,90
89,test,1,con,1,m,Tue Oct 28 2025 09:39:20 GMT-0500 (Central Daylight Time),502598.3000000715,gold,1000,I,m,m,None,401,202.0,199.0,99,,1941.6000000238419,500656.7000000477,9999,gold,NF,C,498421,498421,496695,497705,496695,498636,498221,498221,498636,91
90,test,1,inc,1,z,Tue Oct 28 2025 09:39:20 GMT-0500 (Central Daylight Time),504781.90000009537,cobalt,1100,I,z,z,None,545,345.0,200.0,16,,2178.4000000953674,502603.5,9999,cherry,NF,C,500471,500471,498642,499754,498642,500820,500270,500270,500820,92
91,test,1,con,1,z,Tue Oct 28 2025 09:39:20 GMT-0500 (Central Daylight Time),506997.2000000477,lime,1100,I,z,z,None,578,362.0,216.0,36,,2210.7000000476837,504786.5,9999,lime,NF,C,502670,502670,500825,501936,500825,503035,502454,502454,503035,93
92,test,1,inc,1,z,Tue Oct 28 2025 09:39:20 GMT-0500 (Central Daylight Time),509229.60000002384,cobalt,1100,I,z,z,None,600,387.0,213.0,32,,2228.6999999284744,507000.90000009537,9999,raisin,NF,C,504868,504868,503039,504152,503039,505268,504655,504655,505268,94
93,test,1,inc,1,z,Tue Oct 28 2025 09:39:20 GMT-0500 (Central Daylight Time),511396.10000002384,silver,1000,I,z,z,None,629,414.0,215.0,23,,2156.600000023842,509239.5,9999,orange,NF,C,507018,507018,505278,506285,505278,507434,506801,506802,507434,95
94,test,1,con,1,z,Tue Oct 28 2025 09:39:20 GMT-0500 (Central Daylight Time),513279.2000000477,pear,900,I,z,z,None,435,235.0,200.0,42,,1877.8999999761581,511401.3000000715,9999,pear,NF,C,509068,509068,507439,508352,507440,509317,508867,508867,509317,96
95,test,1,inc,1,z,Tue Oct 28 2025 09:39:20 GMT-0500 (Central Daylight Time),515212.2000000477,copper,900,I,z,z,None,488,289.0,199.0,14,,1927.3999999761581,513284.8000000715,9999,cherry,NF,C,510949,510950,509323,510234,509323,511250,510750,510750,511250,97
96,test,1,con,1,m,Tue Oct 28 2025 09:39:20 GMT-0500 (Central Daylight Time),517194.2000000477,silver,1100,I,m,m,None,347,147.0,200.0,84,,1977.7000000476837,515216.5,9999,silver,NF,C,513083,513085,511255,512368,511255,513232,512883,512883,513232,98
97,test,1,con,1,m,Tue Oct 28 2025 09:39:20 GMT-0500 (Central Daylight Time),519143.7000000477,lead,800,I,m,m,None,608,409.0,199.0,121,,1941.7999999523163,517201.90000009537,9999,lead,NF,C,514766,514766,513240,514049,513240,515182,514565,514566,515182,99
98,test,1,con,1,z,Tue Oct 28 2025 09:39:20 GMT-0500 (Central Daylight Time),521243.40000009537,kiwi,1100,I,z,z,None,465,266.0,199.0,52,,2096.0,519147.40000009537,9999,kiwi,NF,C,517014,517014,515185,516298,515186,517281,516815,516815,517281,100
99,test,1,con,1,z,Tue Oct 28 2025 09:39:20 GMT-0500 (Central Daylight Time),523291.7000000477,raisin,1100,I,z,z,None,412,212.0,200.0,28,,2042.6000000238419,521249.10000002384,9999,raisin,NF,C,519114,519115,517287,518400,517287,519330,518914,518914,519330,101
100,test,1,inc,1,m,Tue Oct 28 2025 09:39:20 GMT-0500 (Central Daylight Time),525058.1000000238,banana,800,I,m,m,None,420,205.0,215.0,93,,1760.7999999523163,523297.3000000715,9999,cobalt,NF,C,520882,520882,519335,520148,519336,521096,520665,520665,521096,102
101,test,1,inc,1,m,Tue Oct 28 2025 09:39:20 GMT-0500 (Central Daylight Time),526909.5,banana,800,I,m,m,None,522,323.0,199.0,69,,1847.5,525062.0,9999,bronze,NF,C,522612,522612,521100,521912,521100,522948,522413,522413,522948,103
102,test,1,inc,1,m,Tue Oct 28 2025 09:39:20 GMT-0500 (Central Daylight Time),528690.8000000715,banana,800,I,m,m,None,448,248.0,200.0,77,,1774.3999999761581,526916.4000000954,9999,copper,NF,C,524480,524480,522954,523763,522955,524729,524280,524280,524729,104
103,test,1,con,1,m,Tue Oct 28 2025 09:39:20 GMT-0500 (Central Daylight Time),530656.4000000954,zinc,1000,I,m,m,None,416,217.0,199.0,115,,1959.4000000953674,528697.0,9999,zinc,NF,C,526462,526462,524735,525745,524735,526694,526263,526263,526694,105
104,test,1,con,1,m,Tue Oct 28 2025 09:39:20 GMT-0500 (Central Daylight Time),532671.3000000715,silver,1000,I,m,m,None,466,250.0,216.0,83,,2010.0,530661.3000000715,9999,silver,NF,C,528445,528445,526699,527711,526700,528709,528229,528229,528709,106
105,test,1,inc,1,z,Tue Oct 28 2025 09:39:20 GMT-0500 (Central Daylight Time),534837.7000000477,zinc,1000,I,z,z,None,626,426.0,200.0,63,,2163.899999976158,532673.8000000715,9999,plum,NF,C,530445,530445,528712,529727,528712,530876,530244,530244,530876,107
106,test,1,inc,1,z,Tue Oct 28 2025 09:39:20 GMT-0500 (Central Daylight Time),536888.3000000715,silver,1000,I,z,z,None,500,301.0,199.0,15,,2046.7000000476837,534841.6000000238,9999,cherry,NF,C,532610,532610,530880,531893,530880,532926,532410,532410,532926,108
107,test,1,inc,1,z,Tue Oct 28 2025 09:39:20 GMT-0500 (Central Daylight Time),538820.9000000954,bronze,800,I,z,z,None,597,395.0,202.0,13,,1929.4000000953674,536891.5,9999,cherry,NF,C,534461,534461,532930,533743,532930,534859,534259,534259,534859,109
108,test,1,con,1,z,Tue Oct 28 2025 09:39:20 GMT-0500 (Central Daylight Time),540703.3000000715,lime,1000,I,z,z,None,343,144.0,199.0,35,,1879.7000000476837,538823.6000000238,9999,lime,NF,C,536592,536592,534862,535876,534862,536741,536392,536392,536741,110
109,test,1,inc,1,z,Tue Oct 28 2025 09:39:20 GMT-0500 (Central Daylight Time),542968.8000000715,lead,1100,I,z,z,None,625,423.0,202.0,40,,2260.7000000476837,540708.1000000238,9999,lime,NF,C,538576,538576,536746,537858,536746,539007,538374,538374,539007,111
110,test,1,inc,1,z,Tue Oct 28 2025 09:39:20 GMT-0500 (Central Daylight Time),544869.6000000238,copper,900,I,z,z,None,460,261.0,199.0,6,,1898.2999999523163,542971.3000000715,9999,banana,NF,C,540641,540642,539009,539925,539010,540908,540442,540442,540908,112
111,test,1,con,1,z,Tue Oct 28 2025 09:39:20 GMT-0500 (Central Daylight Time),546934.4000000954,orange,1100,I,z,z,None,443,228.0,215.0,20,,2062.0,544872.4000000954,9999,orange,NF,C,542739,542739,540910,542023,540911,542972,542524,542524,542972,113
112,test,1,con,1,m,Tue Oct 28 2025 09:39:20 GMT-0500 (Central Daylight Time),548819.2000000477,silver,900,I,m,m,None,457,257.0,200.0,82,,1882.0,546937.2000000477,9999,silver,NF,C,544590,544590,542975,543889,542975,544857,544390,544390,544857,114
113,test,1,inc,1,z,Tue Oct 28 2025 09:39:20 GMT-0500 (Central Daylight Time),550982.4000000954,lead,1100,I,z,z,None,530,329.0,201.0,64,,2160.2000000476837,548822.2000000477,9999,plum,NF,C,546678,546678,544860,545972,544860,547021,546477,546477,547020,115
114,test,1,con,1,z,Tue Oct 28 2025 09:39:20 GMT-0500 (Central Daylight Time),552782.4000000954,cherry,800,I,z,z,None,468,269.0,199.0,9,,1796.7000000476837,550985.7000000477,9999,cherry,NF,C,548538,548538,547024,547837,547024,548820,548339,548339,548820,116
115,test,1,con,1,z,Tue Oct 28 2025 09:39:20 GMT-0500 (Central Daylight Time),554815.3000000715,pear,1100,I,z,z,None,385,184.0,201.0,44,,2027.8000000715256,552787.5,9999,pear,NF,C,550655,550655,548826,549937,548826,550853,550454,550454,550853,117
116,test,1,inc,1,z,Tue Oct 28 2025 09:39:20 GMT-0500 (Central Daylight Time),556765.2000000477,iron,900,I,z,z,None,527,313.0,214.0,46,,1946.3999999761581,554818.8000000715,9999,pear,NF,C,552487,552487,550857,551770,550857,552803,552272,552272,552803,118
117,test,1,con,1,z,Tue Oct 28 2025 09:39:20 GMT-0500 (Central Daylight Time),558698.6000000238,kiwi,800,I,z,z,None,598,397.0,201.0,49,,1929.2999999523163,556769.3000000715,9999,kiwi,NF,C,554339,554339,552807,553620,552808,554737,554137,554137,554737,119
118,test,1,inc,1,m,Tue Oct 28 2025 09:39:20 GMT-0500 (Central Daylight Time),560763.3000000715,raisin,1100,I,m,m,None,439,239.0,200.0,72,,2060.7000000476837,558702.6000000238,9999,bronze,NF,C,556553,556553,554741,555852,554741,556801,556353,556353,556801,120
119,test,1,con,1,m,Tue Oct 28 2025 09:39:20 GMT-0500 (Central Daylight Time),562795.6000000238,iron,1100,I,m,m,None,395,196.0,199.0,108,,2029.2999999523163,560766.3000000715,9999,iron,NF,C,558635,558635,556804,557920,556805,558834,558435,558435,558834,121
120,test,1,con,1,z,Tue Oct 28 2025 09:39:20 GMT-0500 (Central Daylight Time),564746.6000000238,kiwi,900,I,z,z,None,507,308.0,199.0,50,,1948.5,562798.1000000238,9999,kiwi,NF,C,560467,560467,558836,559752,558836,560785,560268,560268,560785,122
121,test,1,con,1,z,Tue Oct 28 2025 09:39:20 GMT-0500 (Central Daylight Time),566845.4000000954,raisin,1000,I,z,z,None,570,371.0,199.0,27,,2095.100000023842,564750.3000000715,9999,raisin,NF,C,562500,562500,560788,561800,560789,562883,562301,562301,562883,123
122,test,1,inc,1,m,Tue Oct 28 2025 09:39:20 GMT-0500 (Central Daylight Time),568778.1000000238,kiwi,1000,I,m,m,None,399,198.0,201.0,103,,1928.6999999284744,566849.4000000954,9999,gold,NF,C,564617,564617,562887,563902,562888,564816,564416,564416,564816,124
123,test,1,inc,1,z,Tue Oct 28 2025 09:39:20 GMT-0500 (Central Daylight Time),570828.3000000715,zinc,1000,I,z,z,None,506,307.0,199.0,47,,2046.3999999761581,568781.9000000954,9999,pear,NF,C,566549,566549,564820,565833,564820,566866,566349,566349,566866,125
124,test,1,inc,1,z,Tue Oct 28 2025 09:39:20 GMT-0500 (Central Daylight Time),572859.1000000238,zinc,1000,I,z,z,None,504,305.0,199.0,55,,2027.6999999284744,570831.4000000954,9999,kiwi,NF,C,568582,568582,566869,567881,566870,568897,568383,568383,568897,126
125,test,1,inc,1,m,Tue Oct 28 2025 09:39:20 GMT-0500 (Central Daylight Time),574692.8000000715,cherry,900,I,m,m,None,388,188.0,200.0,78,,1829.2000000476837,572863.6000000238,9999,copper,NF,C,570531,570531,568902,569814,568902,570731,570331,570331,570731,127
126,test,1,inc,1,m,Tue Oct 28 2025 09:39:20 GMT-0500 (Central Daylight Time),576642.1000000238,cherry,900,I,m,m,None,506,306.0,200.0,70,,1944.0,574698.1000000238,9999,bronze,NF,C,572365,572365,570736,571648,570736,572680,572164,572164,572680,128
