acc_sum,block,block_c,condition,correct,correct_response,datetime,endtime,flanker,jitter,project,response,response_test_buffer_response,response_test_target_response,response_time,response_time_test_buffer_response,response_time_test_target_response,row_sel,session_number,start_end,starttime,subject_id,target,task,task_vers,time_test_buffer,time_test_buffer_response,time_test_constants,time_test_flanker,time_test_jitter,time_test_logger,time_test_target,time_test_target_response,time_test_variables,trial
1,prac,1,con,1,m,Fri Mar 27 2026 15:02:44 GMT-0500 (Central Daylight Time),124755.90000000596,silver,1000,I,m,,,536,,,11,1,2844.699999988079,121911.20000001788,9999,silver,NF,C,,,,,,,,,,1
2,prac,1,con,1,z,Fri Mar 27 2026 15:02:44 GMT-0500 (Central Daylight Time),127138.40000000596,orange,1000,I,z,,,71,,,3,1,2377.5999999940395,124760.80000001192,9999,orange,NF,C,,,,,,,,,,2
3,prac,1,con,1,m,Fri Mar 27 2026 15:02:44 GMT-0500 (Central Daylight Time),129521.09999999404,bronze,800,I,m,,,271,,,9,1,2378.2999999821186,127142.80000001192,9999,bronze,NF,C,,,,,,,,,,3
4,prac,1,con,1,m,Fri Mar 27 2026 15:02:44 GMT-0500 (Central Daylight Time),131720.40000000596,gold,800,I,m,,,10,,,13,1,2195.199999988079,129525.20000001788,9999,gold,NF,C,,,,,,,,,,4
4,prac,1,inc,0,m,Fri Mar 27 2026 15:02:44 GMT-0500 (Central Daylight Time),134102.80000001192,cherry,900,I,z,,,175,,,10,1,2377.5999999940395,131725.20000001788,9999,copper,NF,C,,,,,,,,,,5
5,prac,1,inc,1,z,Fri Mar 27 2026 15:02:44 GMT-0500 (Central Daylight Time),136685.20000001788,copper,900,I,z,,,376,,,2,1,2577.800000011921,134107.40000000596,9999,cherry,NF,C,,,,,,,,,,6
6,prac,1,con,1,z,Fri Mar 27 2026 15:02:44 GMT-0500 (Central Daylight Time),139351.40000000596,kiwi,1000,I,z,,,364,,,7,1,2662.199999988079,136689.20000001788,9999,kiwi,NF,C,,,,,,,,,,7
7,prac,1,con,1,z,Fri Mar 27 2026 15:02:44 GMT-0500 (Central Daylight Time),141867.20000001788,banana,800,I,z,,,402,,,1,1,2511.4000000059605,139355.80000001192,9999,banana,NF,C,,,,,,,,,,8
8,prac,1,inc,1,z,Fri Mar 27 2026 15:02:44 GMT-0500 (Central Daylight Time),144716.20000001788,cobalt,1100,I,z,,,443,,,4,1,2845.2000000178814,141871.0,9999,raisin,NF,C,,,,,,,,,,9
9,prac,1,inc,1,z,Fri Mar 27 2026 15:02:44 GMT-0500 (Central Daylight Time),147398.70000001788,iron,900,I,z,,,475,,,6,1,2678.4000000059605,144720.30000001192,9999,pear,NF,C,,,,,,,,,,10
10,prac,1,inc,1,m,Fri Mar 27 2026 15:02:44 GMT-0500 (Central Daylight Time),150031.40000000596,pear,900,I,m,,,430,,,14,1,2628.699999988079,147402.70000001788,9999,iron,NF,C,,,,,,,,,,11
11,prac,1,inc,1,z,Fri Mar 27 2026 15:02:44 GMT-0500 (Central Daylight Time),152880.30000001192,lead,1100,I,z,,,448,,,8,1,2844.5,150035.80000001192,9999,plum,NF,C,,,,,,,,,,12
12,prac,1,inc,1,m,Fri Mar 27 2026 15:02:44 GMT-0500 (Central Daylight Time),155979.40000000596,plum,1100,I,m,,,557,,,16,1,3094.300000011921,152885.09999999404,9999,lead,NF,C,,,,,,,,,,13
13,prac,1,inc,1,m,Fri Mar 27 2026 15:02:44 GMT-0500 (Central Daylight Time),158762.20000001788,raisin,1100,I,m,,,371,,,12,1,2779.0,155983.20000001788,9999,cobalt,NF,C,,,,,,,,,,14
14,prac,1,con,1,m,Fri Mar 27 2026 15:02:44 GMT-0500 (Central Daylight Time),161461.20000001788,zinc,1000,I,m,,,385,,,15,1,2694.300000011921,158766.90000000596,9999,zinc,NF,C,,,,,,,,,,15
15,prac,1,con,1,z,Fri Mar 27 2026 15:02:44 GMT-0500 (Central Daylight Time),163943.40000000596,lime,800,I,z,,,381,,,5,1,2478.0,161465.40000000596,9999,lime,NF,C,,,,,,,,,,16
1,test,1,inc,1,z,Fri Mar 27 2026 15:02:44 GMT-0500 (Central Daylight Time),171807.80000001192,gold,800,I,z,z,None,499,299.0,200.0,53,1,1829.5,169978.30000001192,9999,kiwi,NF,C,161818,161819,160288,161101,160289,162118,161618,161618,162118,1
2,test,1,con,1,z,Fri Mar 27 2026 15:02:44 GMT-0500 (Central Daylight Time),173540.30000001192,cherry,800,I,z,z,None,395,195.0,200.0,9,1,1727.800000011921,171812.5,9999,cherry,NF,C,163651,163651,162123,162934,162123,163850,163451,163451,163850,2
3,test,1,inc,1,m,Fri Mar 27 2026 15:02:44 GMT-0500 (Central Daylight Time),175240.0,banana,800,I,m,m,None,357,158.0,199.0,93,1,1695.4000000059605,173544.59999999404,9999,cobalt,NF,C,165384,165384,163855,164667,163855,165550,165184,165184,165550,3
4,test,1,inc,1,m,Fri Mar 27 2026 15:02:44 GMT-0500 (Central Daylight Time),177222.80000001192,orange,1000,I,m,m,None,442,242.0,200.0,87,1,1978.5999999940395,175244.20000001788,9999,silver,NF,C,167283,167283,165554,166566,165555,167533,167083,167083,167533,4
5,test,1,inc,1,z,Fri Mar 27 2026 15:02:44 GMT-0500 (Central Daylight Time),178988.90000000596,bronze,800,I,z,z,None,412,212.0,200.0,21,1,1762.0,177226.90000000596,9999,orange,NF,C,169082,169082,167537,168379,167537,169299,168882,168882,169299,5
6,test,1,con,1,m,Fri Mar 27 2026 15:02:44 GMT-0500 (Central Daylight Time),180704.70000001788,zinc,800,I,m,m,None,382,182.0,200.0,113,1,1711.6000000238419,178993.09999999404,9999,zinc,NF,C,170832,170832,169303,170115,169303,171015,170632,170632,171015,6
6,test,1,inc,0,m,Fri Mar 27 2026 15:02:44 GMT-0500 (Central Daylight Time),182520.90000000596,lime,800,I,z,z,None,474,274.0,200.0,125,1,1811.5,180709.40000000596,9999,lead,NF,C,172548,172548,171019,171832,171020,172831,172348,172348,172831,7
7,test,1,con,1,z,Fri Mar 27 2026 15:02:44 GMT-0500 (Central Daylight Time),184536.80000001192,banana,1100,I,z,z,None,374,174.0,200.0,4,1,2012.0,182524.80000001192,9999,banana,NF,C,174664,174664,172835,173948,172835,174847,174464,174464,174847,8
8,test,1,inc,1,z,Fri Mar 27 2026 15:02:44 GMT-0500 (Central Daylight Time),186570.70000001788,zinc,1000,I,z,z,None,489,289.0,200.0,39,1,2030.0,184540.70000001788,9999,lime,NF,C,176580,176580,174851,175864,174851,176881,176380,176380,176881,9
9,test,1,inc,1,m,Fri Mar 27 2026 15:02:44 GMT-0500 (Central Daylight Time),188552.40000000596,raisin,1100,I,m,m,None,349,150.0,199.0,72,1,1977.5,186574.90000000596,9999,bronze,NF,C,178696,178696,176885,177996,176885,178863,178497,178497,178862,10
10,test,1,con,1,m,Fri Mar 27 2026 15:02:44 GMT-0500 (Central Daylight Time),190252.0,lead,800,I,m,m,None,360,161.0,199.0,121,1,1695.2999999821186,188556.70000001788,9999,lead,NF,C,180396,180396,178867,179679,178867,180562,180196,180196,180562,11
11,test,1,inc,1,z,Fri Mar 27 2026 15:02:44 GMT-0500 (Central Daylight Time),192117.90000000596,copper,900,I,z,z,None,419,219.0,200.0,22,1,1861.5,190256.40000000596,9999,orange,NF,C,182195,182195,180566,181479,180567,182428,181995,181995,182428,12
12,test,1,con,1,z,Fri Mar 27 2026 15:02:44 GMT-0500 (Central Daylight Time),194150.59999999404,cherry,1000,I,z,z,None,492,292.0,200.0,11,1,2028.699999988079,192121.90000000596,9999,cherry,NF,C,184161,184161,182432,183444,182432,184461,183961,183961,184461,13
13,test,1,con,1,z,Fri Mar 27 2026 15:02:44 GMT-0500 (Central Daylight Time),196249.90000000596,orange,1100,I,z,z,None,463,264.0,199.0,20,1,2095.4000000059605,194154.5,9999,orange,NF,C,186294,186294,184465,185578,184465,186560,186094,186094,186560,14
14,test,1,inc,1,m,Fri Mar 27 2026 15:02:44 GMT-0500 (Central Daylight Time),198199.59999999404,kiwi,1000,I,m,m,None,409,209.0,200.0,111,1,1945.699999988079,196253.90000000596,9999,iron,NF,C,188293,188293,186564,187578,186564,188510,188093,188093,188510,15
15,test,1,con,1,z,Fri Mar 27 2026 15:02:44 GMT-0500 (Central Daylight Time),199932.20000001788,pear,800,I,z,z,None,386,187.0,199.0,41,1,1727.6000000238419,198204.59999999404,9999,pear,NF,C,190043,190043,188515,189326,188515,190242,189843,189843,190242,16
16,test,1,inc,1,z,Fri Mar 27 2026 15:02:44 GMT-0500 (Central Daylight Time),201699.5,bronze,800,I,z,z,None,434,234.0,200.0,13,1,1763.0999999940395,199936.40000000596,9999,cherry,NF,C,191775,191775,190246,191059,190247,192010,191575,191575,192010,17
17,test,1,con,1,z,Fri Mar 27 2026 15:02:44 GMT-0500 (Central Daylight Time),203531.20000001788,raisin,900,I,z,z,None,388,189.0,199.0,26,1,1826.9000000059605,201704.30000001192,9999,raisin,NF,C,193641,193641,192014,192925,192015,193841,193442,193442,193841,18
18,test,1,inc,1,z,Fri Mar 27 2026 15:02:44 GMT-0500 (Central Daylight Time),205547.20000001788,cobalt,1100,I,z,z,None,380,180.0,200.0,24,1,2012.4000000059605,203534.80000001192,9999,orange,NF,C,195674,195674,193845,194958,193845,195857,195474,195474,195857,19
19,test,1,con,1,m,Fri Mar 27 2026 15:02:44 GMT-0500 (Central Daylight Time),207546.59999999404,cobalt,1100,I,m,m,None,355,155.0,200.0,92,1,1995.5999999940395,205551.0,9999,cobalt,NF,C,197690,197690,195861,196973,195861,197857,197490,197490,197857,20
20,test,1,con,1,z,Fri Mar 27 2026 15:02:44 GMT-0500 (Central Daylight Time),209479.0,lime,900,I,z,z,None,491,292.0,199.0,34,1,1928.7999999821186,207550.20000001788,9999,lime,NF,C,199490,199490,197860,198773,197861,199789,199290,199290,199789,21
21,test,1,inc,1,z,Fri Mar 27 2026 15:02:44 GMT-0500 (Central Daylight Time),211245.5,gold,800,I,z,z,None,427,227.0,200.0,37,1,1762.199999988079,209483.30000001192,9999,lime,NF,C,201322,201323,199793,200606,199794,201556,201122,201122,201555,22
22,test,1,inc,1,z,Fri Mar 27 2026 15:02:44 GMT-0500 (Central Daylight Time),213261.5,silver,1000,I,z,z,None,470,270.0,200.0,7,1,2012.0,211249.5,9999,banana,NF,C,203288,203288,201560,202572,201560,203572,203088,203088,203572,23
23,test,1,con,1,z,Fri Mar 27 2026 15:02:44 GMT-0500 (Central Daylight Time),215210.70000001788,raisin,1100,I,z,z,None,312,111.0,201.0,28,1,1945.300000011921,213265.40000000596,9999,raisin,NF,C,205405,205406,203575,204688,203576,205521,205204,205204,205521,24
24,test,1,con,1,m,Fri Mar 27 2026 15:02:44 GMT-0500 (Central Daylight Time),217109.80000001192,lead,1000,I,m,m,None,350,151.0,199.0,123,1,1895.2000000178814,215214.59999999404,9999,lead,NF,C,207254,207254,205525,206537,205525,207420,207054,207054,207420,25
25,test,1,inc,1,z,Fri Mar 27 2026 15:02:44 GMT-0500 (Central Daylight Time),219342.59999999404,lead,1100,I,z,z,None,593,393.0,200.0,40,1,2228.5999999940395,217114.0,9999,lime,NF,C,209253,209253,207424,208537,207424,209653,209053,209053,209653,26
25,test,1,inc,0,m,Fri Mar 27 2026 15:02:44 GMT-0500 (Central Daylight Time),221458.90000000596,plum,1100,I,z,z,None,479,279.0,200.0,128,1,2112.699999988079,219346.20000001788,9999,lead,NF,C,211486,211486,209656,210769,209656,211769,211286,211286,211769,27
26,test,1,inc,1,m,Fri Mar 27 2026 15:02:44 GMT-0500 (Central Daylight Time),223408.0,cherry,900,I,m,m,None,508,308.0,200.0,86,1,1945.0999999940395,221462.90000000596,9999,silver,NF,C,213402,213402,211773,212685,211773,213718,213202,213202,213718,28
27,test,1,inc,1,z,Fri Mar 27 2026 15:02:44 GMT-0500 (Central Daylight Time),225440.5,silver,1000,I,z,z,None,498,201.0,297.0,23,1,2029.0,223411.5,9999,orange,NF,C,215548,215548,213722,214736,213722,215751,215251,215251,215751,29
28,test,1,con,1,z,Fri Mar 27 2026 15:02:44 GMT-0500 (Central Daylight Time),227223.59999999404,kiwi,800,I,z,z,None,434,234.0,200.0,49,1,1779.0,225444.59999999404,9999,kiwi,NF,C,217284,217284,215755,216568,215755,217534,217084,217084,217534,30
29,test,1,con,1,z,Fri Mar 27 2026 15:02:44 GMT-0500 (Central Daylight Time),229223.0,kiwi,1000,I,z,z,None,473,258.0,215.0,51,1,1995.7999999821186,227227.20000001788,9999,kiwi,NF,C,219268,219268,217537,218550,217538,219533,219051,219052,219533,31
30,test,1,con,1,m,Fri Mar 27 2026 15:02:44 GMT-0500 (Central Daylight Time),231022.09999999404,lead,900,I,m,m,None,351,151.0,200.0,122,1,1795.5,229226.59999999404,9999,lead,NF,C,221166,221166,219537,220450,219537,221332,220966,220966,221332,32
31,test,1,con,1,m,Fri Mar 27 2026 15:02:44 GMT-0500 (Central Daylight Time),233038.70000001788,bronze,1100,I,m,m,None,376,177.0,199.0,68,1,2012.800000011921,231025.90000000596,9999,bronze,NF,C,223165,223165,221336,222449,221336,223349,222966,222966,223349,33
31,test,1,inc,0,m,Fri Mar 27 2026 15:02:44 GMT-0500 (Central Daylight Time),234904.5,orange,1000,I,z,z,None,324,124.0,200.0,95,1,1861.2999999821186,233043.20000001788,9999,cobalt,NF,C,225082,225082,223353,224365,223354,225215,224881,224881,225215,34
32,test,1,inc,1,m,Fri Mar 27 2026 15:02:44 GMT-0500 (Central Daylight Time),237337.0,plum,1100,I,m,m,None,790,590.0,200.0,104,1,2428.0999999940395,234908.90000000596,9999,gold,NF,C,227048,227048,225219,226331,225219,227647,226847,226847,227647,35
33,test,1,inc,1,z,Fri Mar 27 2026 15:02:44 GMT-0500 (Central Daylight Time),239253.40000000596,bronze,800,I,z,z,None,570,370.0,200.0,5,1,1912.5999999940395,237340.80000001192,9999,banana,NF,C,229180,229180,227651,228465,227651,229563,228980,228980,229563,36
34,test,1,inc,1,z,Fri Mar 27 2026 15:02:44 GMT-0500 (Central Daylight Time),241269.20000001788,iron,900,I,z,z,None,578,378.0,200.0,62,1,2012.2000000178814,239257.0,9999,plum,NF,C,231196,231196,229567,230480,229567,231579,230996,230996,231579,37
35,test,1,inc,1,z,Fri Mar 27 2026 15:02:44 GMT-0500 (Central Daylight Time),243401.80000001192,iron,900,I,z,z,None,697,497.0,200.0,38,1,2128.300000011921,241273.5,9999,lime,NF,C,233213,233213,231583,232496,231584,233712,233013,233013,233712,38
36,test,1,con,1,z,Fri Mar 27 2026 15:02:44 GMT-0500 (Central Daylight Time),245601.40000000596,pear,1100,I,z,z,None,556,356.0,200.0,44,1,2195.4000000059605,243406.0,9999,pear,NF,C,235545,235545,233716,234828,233716,235912,235345,235345,235911,39
37,test,1,inc,1,m,Fri Mar 27 2026 15:02:44 GMT-0500 (Central Daylight Time),247483.90000000596,cherry,900,I,m,m,None,460,245.0,215.0,94,1,1879.0,245604.90000000596,9999,cobalt,NF,C,237545,237545,235915,236828,235915,237794,237329,237329,237794,40
38,test,1,con,1,z,Fri Mar 27 2026 15:02:44 GMT-0500 (Central Daylight Time),249533.40000000596,orange,1000,I,z,z,None,501,302.0,199.0,19,1,2046.0,247487.40000000596,9999,orange,NF,C,239527,239527,237797,238811,237798,239843,239328,239328,239843,41
39,test,1,inc,1,z,Fri Mar 27 2026 15:02:44 GMT-0500 (Central Daylight Time),251499.40000000596,copper,900,I,z,z,None,530,330.0,200.0,14,1,1962.199999988079,249537.20000001788,9999,cherry,NF,C,241476,241476,239847,240760,239847,241810,241276,241276,241809,42
40,test,1,inc,1,z,Fri Mar 27 2026 15:02:44 GMT-0500 (Central Daylight Time),253415.20000001788,iron,900,I,z,z,None,467,267.0,200.0,54,1,1912.1000000238419,251503.09999999404,9999,kiwi,NF,C,243442,243442,241813,242726,241813,243725,243242,243242,243725,43
41,test,1,inc,1,z,Fri Mar 27 2026 15:02:44 GMT-0500 (Central Daylight Time),255514.90000000596,cobalt,1100,I,z,z,None,478,279.0,199.0,8,1,2095.4000000059605,253419.5,9999,banana,NF,C,245542,245542,243730,244842,243730,245825,245343,245343,245825,44
42,test,1,con,1,m,Fri Mar 27 2026 15:02:44 GMT-0500 (Central Daylight Time),257430.90000000596,copper,1000,I,m,m,None,366,167.0,199.0,75,1,1912.300000011921,255518.59999999404,9999,copper,NF,C,247558,247558,245829,246841,245829,247741,247358,247358,247741,45
43,test,1,con,1,m,Fri Mar 27 2026 15:02:44 GMT-0500 (Central Daylight Time),259247.09999999404,zinc,900,I,m,m,None,367,166.0,201.0,114,1,1812.3999999761581,257434.70000001788,9999,zinc,NF,C,249375,249375,247745,248657,247745,249557,249174,249174,249557,46
44,test,1,con,1,z,Fri Mar 27 2026 15:02:44 GMT-0500 (Central Daylight Time),261413.09999999404,raisin,1000,I,z,z,None,628,428.0,200.0,27,1,2162.0,259251.09999999404,9999,raisin,NF,C,251290,251290,249561,250574,249561,251723,251090,251090,251723,47
45,test,1,con,1,z,Fri Mar 27 2026 15:02:44 GMT-0500 (Central Daylight Time),263445.8000000119,lime,1100,I,z,z,None,385,185.0,200.0,36,1,2028.9000000059605,261416.90000000596,9999,lime,NF,C,253556,253556,251727,252840,251727,253756,253356,253356,253756,48
46,test,1,con,1,m,Fri Mar 27 2026 15:02:44 GMT-0500 (Central Daylight Time),265328.09999999404,cobalt,1000,I,m,m,None,347,148.0,199.0,91,1,1878.0999999940395,263450.0,9999,cobalt,NF,C,255489,255489,253760,254772,253760,255638,255289,255289,255638,49
47,test,1,inc,1,m,Fri Mar 27 2026 15:02:44 GMT-0500 (Central Daylight Time),267177.90000000596,pear,900,I,m,m,None,405,206.0,199.0,126,1,1846.300000011921,265331.59999999404,9999,lead,NF,C,257271,257271,255642,256555,255642,257488,257072,257072,257488,50
48,test,1,inc,1,m,Fri Mar 27 2026 15:02:44 GMT-0500 (Central Daylight Time),269210.5,raisin,1100,I,m,m,None,395,196.0,199.0,80,1,2028.9000000059605,267181.59999999404,9999,copper,NF,C,259321,259321,257492,258604,257492,259521,259121,259121,259520,51
49,test,1,inc,1,z,Fri Mar 27 2026 15:02:44 GMT-0500 (Central Daylight Time),271143.2000000179,silver,1000,I,z,z,None,390,191.0,199.0,31,1,1928.9000000059605,269214.3000000119,9999,raisin,NF,C,261253,261254,259524,260537,259525,261453,261054,261054,261453,52
50,test,1,inc,1,m,Fri Mar 27 2026 15:02:44 GMT-0500 (Central Daylight Time),273026.09999999404,pear,900,I,m,m,None,462,248.0,214.0,118,1,1879.199999988079,271146.90000000596,9999,zinc,NF,C,263086,263086,261457,262370,261457,263336,262872,262872,263336,53
50,test,1,con,0,m,Fri Mar 27 2026 15:02:44 GMT-0500 (Central Daylight Time),274892.0,cobalt,900,I,z,z,None,428,228.0,200.0,90,1,1862.4000000059605,273029.59999999404,9999,cobalt,NF,C,264969,264969,263340,264253,263340,265202,264769,264769,265202,54
51,test,1,con,1,z,Fri Mar 27 2026 15:02:44 GMT-0500 (Central Daylight Time),276808.0,pear,1000,I,z,z,None,365,166.0,199.0,43,1,1911.699999988079,274896.3000000119,9999,pear,NF,C,266936,266936,265206,266219,265207,267118,266736,266736,267118,55
52,test,1,con,1,m,Fri Mar 27 2026 15:02:44 GMT-0500 (Central Daylight Time),279074.0,zinc,1100,I,m,m,None,631,430.0,201.0,116,1,2262.4000000059605,276811.59999999404,9999,zinc,NF,C,268952,268952,267122,268235,267122,269384,268751,268751,269384,56
53,test,1,con,1,z,Fri Mar 27 2026 15:02:44 GMT-0500 (Central Daylight Time),280923.5,raisin,800,I,z,z,None,504,304.0,200.0,25,1,1845.7999999821186,279077.7000000179,9999,raisin,NF,C,270917,270917,269388,270201,269388,271234,270717,270717,271234,57
54,test,1,con,1,m,Fri Mar 27 2026 15:02:44 GMT-0500 (Central Daylight Time),282906.09999999404,copper,1100,I,m,m,None,347,148.0,199.0,76,1,1978.7999999821186,280927.3000000119,9999,copper,NF,C,273066,273066,271237,272350,271238,273216,272867,272867,273216,58
55,test,1,inc,1,z,Fri Mar 27 2026 15:02:44 GMT-0500 (Central Daylight Time),284922.2000000179,lead,1100,I,z,z,None,381,181.0,200.0,48,1,2012.0,282910.2000000179,9999,pear,NF,C,275049,275049,273220,274333,273220,275232,274849,274849,275232,59
56,test,1,con,1,m,Fri Mar 27 2026 15:02:44 GMT-0500 (Central Daylight Time),286888.2000000179,iron,1100,I,m,m,None,317,117.0,200.0,108,1,1961.7000000178814,284926.5,9999,iron,NF,C,277065,277065,275237,276349,275237,277198,276865,276865,277198,60
57,test,1,inc,1,z,Fri Mar 27 2026 15:02:44 GMT-0500 (Central Daylight Time),288604.40000000596,bronze,800,I,z,z,None,370,171.0,199.0,29,1,1712.699999988079,286891.7000000179,9999,raisin,NF,C,278731,278731,277202,278015,277202,278914,278532,278532,278914,61
58,test,1,inc,1,m,Fri Mar 27 2026 15:02:44 GMT-0500 (Central Daylight Time),290437.0,banana,800,I,m,m,None,486,285.0,201.0,69,1,1829.0,288608.0,9999,bronze,NF,C,280449,280449,278918,279731,278918,280747,280247,280247,280747,62
59,test,1,con,1,m,Fri Mar 27 2026 15:02:44 GMT-0500 (Central Daylight Time),292119.59999999404,copper,800,I,m,m,None,348,148.0,200.0,73,1,1678.2999999821186,290441.3000000119,9999,copper,NF,C,282280,282281,280751,281564,280751,282430,282080,282080,282430,63
60,test,1,inc,1,m,Fri Mar 27 2026 15:02:44 GMT-0500 (Central Daylight Time),294069.40000000596,pear,900,I,m,m,None,502,302.0,200.0,110,1,1946.300000011921,292123.09999999404,9999,iron,NF,C,284063,284063,282433,283347,282433,284380,283863,283863,284379,64
61,test,1,con,1,m,Fri Mar 27 2026 15:02:44 GMT-0500 (Central Daylight Time),295785.40000000596,iron,800,I,m,m,None,380,180.0,200.0,105,1,1712.5,294072.90000000596,9999,iron,NF,C,285913,285913,284383,285196,284383,286096,285712,285712,286095,65
62,test,1,inc,1,m,Fri Mar 27 2026 15:02:44 GMT-0500 (Central Daylight Time),297468.3000000119,lime,800,I,m,m,None,344,144.0,200.0,101,1,1679.0,295789.3000000119,9999,gold,NF,C,287629,287629,286099,286912,286100,287778,287428,287428,287778,66
62,test,1,inc,0,m,Fri Mar 27 2026 15:02:44 GMT-0500 (Central Daylight Time),298817.90000000596,banana,800,I,z,m,z,6,144.0,6.0,77,1,1346.0999999940395,297471.8000000119,9999,copper,NF,C,287629,287629,287782,288595,287782,289128,289112,289112,289128,67
63,test,1,inc,1,m,Fri Mar 27 2026 15:02:44 GMT-0500 (Central Daylight Time),300917.2000000179,kiwi,1000,I,m,m,None,552,353.0,199.0,119,1,2095.5,298821.7000000179,9999,zinc,NF,C,290861,290861,289132,290144,289132,291227,290661,290661,291227,68
64,test,1,con,1,z,Fri Mar 27 2026 15:02:44 GMT-0500 (Central Daylight Time),302866.40000000596,cherry,900,I,z,z,None,513,313.0,200.0,10,1,1945.199999988079,300921.2000000179,9999,cherry,NF,C,292860,292860,291231,292144,291231,293177,292660,292660,293176,69
65,test,1,con,1,m,Fri Mar 27 2026 15:02:44 GMT-0500 (Central Daylight Time),304799.09999999404,silver,900,I,m,m,None,491,292.0,199.0,82,1,1928.2999999821186,302870.8000000119,9999,silver,NF,C,294810,294810,293181,294093,293181,295109,294610,294610,295109,70
65,test,1,con,0,z,Fri Mar 27 2026 15:02:44 GMT-0500 (Central Daylight Time),306832.3000000119,orange,800,I,m,m,None,690,491.0,199.0,17,1,2029.4000000059605,304802.90000000596,9999,orange,NF,C,296642,296642,295113,295926,295113,297142,296443,296443,297142,71
66,test,1,inc,1,z,Fri Mar 27 2026 15:02:44 GMT-0500 (Central Daylight Time),309031.59999999404,lead,1100,I,z,z,None,550,350.0,200.0,56,1,2195.2999999821186,306836.3000000119,9999,kiwi,NF,C,298975,298975,297146,298259,297147,299342,298775,298775,299342,72
67,test,1,inc,1,z,Fri Mar 27 2026 15:02:44 GMT-0500 (Central Daylight Time),311263.8000000119,cobalt,1100,I,z,z,None,583,383.0,200.0,32,1,2228.300000011921,309035.5,9999,raisin,NF,C,301174,301174,299346,300458,299346,301574,300974,300974,301574,73
67,test,1,con,0,m,Fri Mar 27 2026 15:02:44 GMT-0500 (Central Daylight Time),313113.3000000119,bronze,900,I,z,z,None,415,215.0,200.0,66,1,1845.800000011921,311267.5,9999,bronze,NF,C,303207,303207,301578,302490,301578,303424,303007,303007,303423,74
68,test,1,inc,1,m,Fri Mar 27 2026 15:02:44 GMT-0500 (Central Daylight Time),315345.7000000179,kiwi,1000,I,m,m,None,698,498.0,200.0,127,1,2228.7000000178814,313117.0,9999,lead,NF,C,305156,305156,303427,304440,303427,305656,304956,304956,305656,75
69,test,1,con,1,m,Fri Mar 27 2026 15:02:44 GMT-0500 (Central Daylight Time),317278.7000000179,iron,1000,I,m,m,None,384,183.0,201.0,107,1,1929.4000000059605,315349.3000000119,9999,iron,NF,C,307390,307390,305659,306673,305660,307589,307189,307189,307589,76
70,test,1,con,1,m,Fri Mar 27 2026 15:02:44 GMT-0500 (Central Daylight Time),319028.2000000179,bronze,800,I,m,m,None,412,212.0,200.0,65,1,1745.5,317282.7000000179,9999,bronze,NF,C,309122,309122,307593,308405,307593,309338,308922,308922,309338,77
71,test,1,con,1,m,Fri Mar 27 2026 15:02:44 GMT-0500 (Central Daylight Time),320927.5,zinc,1000,I,m,m,None,366,166.0,200.0,115,1,1895.699999988079,319031.8000000119,9999,zinc,NF,C,311071,311071,309342,310355,309342,311238,310871,310871,311238,78
72,test,1,inc,1,m,Fri Mar 27 2026 15:02:44 GMT-0500 (Central Daylight Time),322977.0,raisin,1100,I,m,m,None,406,207.0,199.0,88,1,2046.0,320931.0,9999,silver,NF,C,313070,313070,311241,312354,311241,313287,312871,312871,313287,79
73,test,1,inc,1,m,Fri Mar 27 2026 15:02:44 GMT-0500 (Central Daylight Time),324926.40000000596,cherry,900,I,m,m,None,509,310.0,199.0,78,1,1945.699999988079,322980.7000000179,9999,copper,NF,C,314920,314920,313291,314203,313291,315236,314720,314720,315236,80
74,test,1,con,1,z,Fri Mar 27 2026 15:02:44 GMT-0500 (Central Daylight Time),326925.7000000179,kiwi,900,I,z,z,None,553,353.0,200.0,50,1,1995.6000000238419,324930.09999999404,9999,kiwi,NF,C,316869,316869,315240,316153,315240,317236,316669,316669,317236,81
75,test,1,con,1,z,Fri Mar 27 2026 15:02:44 GMT-0500 (Central Daylight Time),328958.3000000119,banana,1000,I,z,z,None,491,292.0,199.0,3,1,2028.5999999940395,326929.7000000179,9999,banana,NF,C,318969,318969,317240,318252,317240,319268,318769,318769,319268,82
76,test,1,con,1,m,Fri Mar 27 2026 15:02:44 GMT-0500 (Central Daylight Time),330757.90000000596,iron,900,I,m,m,None,358,159.0,199.0,106,1,1795.4000000059605,328962.5,9999,iron,NF,C,320902,320902,319272,320185,319273,321068,320702,320702,321068,83
77,test,1,con,1,z,Fri Mar 27 2026 15:02:44 GMT-0500 (Central Daylight Time),332540.40000000596,banana,800,I,z,z,None,444,244.0,200.0,1,1,1778.800000011921,330761.59999999404,9999,banana,NF,C,322601,322601,321072,321884,321072,322851,322401,322401,322850,84
77,test,1,inc,0,z,Fri Mar 27 2026 15:02:44 GMT-0500 (Central Daylight Time),336072.8000000119,zinc,1000,I,None,None,None,1799,1799.0,199.0,63,1,3528.800000011921,332544.0,9999,plum,NF,C,324584,324584,322854,323867,322854,326383,324384,324384,326383,85
78,test,1,inc,1,z,Fri Mar 27 2026 15:02:44 GMT-0500 (Central Daylight Time),338871.90000000596,zinc,1000,I,z,z,None,1266,1066.0,200.0,47,1,2795.300000011921,336076.59999999404,9999,pear,NF,C,328116,328116,326387,327400,326387,329182,327916,327916,329182,86
79,test,1,inc,1,z,Fri Mar 27 2026 15:02:44 GMT-0500 (Central Daylight Time),340804.7000000179,gold,800,I,z,z,None,594,394.0,200.0,45,1,1929.0,338875.7000000179,9999,pear,NF,C,330715,330715,329186,329999,329186,331115,330515,330515,331115,87
79,test,1,con,0,m,Fri Mar 27 2026 15:02:44 GMT-0500 (Central Daylight Time),342837.40000000596,bronze,1000,I,z,z,None,493,294.0,199.0,67,1,2029.0,340808.40000000596,9999,bronze,NF,C,332848,332848,331118,332131,331119,333147,332648,332648,333147,88
80,test,1,con,1,z,Fri Mar 27 2026 15:02:44 GMT-0500 (Central Daylight Time),344887.8000000119,banana,900,I,z,z,None,616,417.0,199.0,2,1,2046.9000000059605,342840.90000000596,9999,banana,NF,C,334764,334764,333151,334064,333151,335198,334565,334565,335198,89
81,test,1,inc,1,z,Fri Mar 27 2026 15:02:44 GMT-0500 (Central Daylight Time),347135.90000000596,lead,1100,I,z,z,None,608,408.0,200.0,64,1,2244.300000011921,344891.59999999404,9999,plum,NF,C,337030,337030,335202,336313,335202,337446,336830,336830,337446,90
82,test,1,inc,1,z,Fri Mar 27 2026 15:02:44 GMT-0500 (Central Daylight Time),349152.0,copper,900,I,z,z,None,575,375.0,200.0,30,1,2012.4000000059605,347139.59999999404,9999,raisin,NF,C,339079,339079,337450,338364,337450,339462,338879,338879,339462,91
83,test,1,con,1,z,Fri Mar 27 2026 15:02:44 GMT-0500 (Central Daylight Time),351118.0,orange,900,I,z,z,None,526,325.0,201.0,18,1,1962.199999988079,349155.8000000119,9999,orange,NF,C,341096,341097,339466,340379,339466,341428,340895,340895,341428,92
84,test,1,inc,1,z,Fri Mar 27 2026 15:02:44 GMT-0500 (Central Daylight Time),353000.59999999404,iron,900,I,z,z,None,448,248.0,200.0,46,1,1878.699999988079,351121.90000000596,9999,pear,NF,C,343061,343061,341432,342345,341432,343311,342861,342861,343311,93
85,test,1,inc,1,z,Fri Mar 27 2026 15:02:44 GMT-0500 (Central Daylight Time),354817.0,gold,800,I,z,z,None,474,274.0,200.0,61,1,1812.5,353004.5,9999,plum,NF,C,344844,344844,343315,344128,343315,345127,344644,344644,345127,94
86,test,1,con,1,z,Fri Mar 27 2026 15:02:44 GMT-0500 (Central Daylight Time),356817.3000000119,pear,900,I,z,z,None,565,365.0,200.0,42,1,1997.0,354820.3000000119,9999,pear,NF,C,346760,346760,345130,346044,345131,347127,346560,346560,347127,95
87,test,1,inc,1,z,Fri Mar 27 2026 15:02:44 GMT-0500 (Central Daylight Time),358749.3000000119,zinc,1000,I,z,z,None,394,194.0,200.0,55,1,1928.0,356821.3000000119,9999,kiwi,NF,C,348860,348860,347131,348143,347132,349059,348659,348659,349059,96
88,test,1,inc,1,m,Fri Mar 27 2026 15:02:44 GMT-0500 (Central Daylight Time),360598.2000000179,cherry,900,I,m,m,None,410,210.0,200.0,70,1,1845.2000000178814,358753.0,9999,bronze,NF,C,350692,350692,349063,349975,349063,350908,350492,350492,350908,97
89,test,1,con,1,z,Fri Mar 27 2026 15:02:44 GMT-0500 (Central Daylight Time),362714.59999999404,cherry,1100,I,z,z,None,472,272.0,200.0,12,1,2112.5999999940395,360602.0,9999,cherry,NF,C,352742,352742,350912,352025,350912,353025,352541,352541,353025,98
90,test,1,con,1,m,Fri Mar 27 2026 15:02:44 GMT-0500 (Central Daylight Time),364414.2000000179,cobalt,800,I,m,m,None,359,160.0,199.0,89,1,1695.9000000059605,362718.3000000119,9999,cobalt,NF,C,354558,354558,353028,353841,353029,354724,354358,354358,354724,99
91,test,1,inc,1,m,Fri Mar 27 2026 15:02:44 GMT-0500 (Central Daylight Time),366230.0,banana,800,I,m,m,None,477,277.0,200.0,85,1,1811.699999988079,364418.3000000119,9999,silver,NF,C,356257,356257,354728,355541,354729,356540,356057,356057,356540,100
92,test,1,inc,1,z,Fri Mar 27 2026 15:02:44 GMT-0500 (Central Daylight Time),368212.8000000119,silver,1000,I,z,z,None,435,236.0,199.0,15,1,1979.2000000178814,366233.59999999404,9999,cherry,NF,C,358273,358273,356544,357557,356544,358523,358074,358074,358523,101
93,test,1,con,1,z,Fri Mar 27 2026 15:02:44 GMT-0500 (Central Daylight Time),370295.3000000119,lime,1000,I,z,z,None,540,341.0,199.0,35,1,2078.7000000178814,368216.59999999404,9999,lime,NF,C,360256,360256,358527,359539,358527,360605,360056,360056,360605,102
94,test,1,con,1,m,Fri Mar 27 2026 15:02:44 GMT-0500 (Central Daylight Time),372211.3000000119,gold,1000,I,m,m,None,369,170.0,199.0,99,1,1912.4000000059605,370298.90000000596,9999,gold,NF,C,362339,362339,360609,361622,360609,362521,362139,362139,362521,103
95,test,1,con,1,z,Fri Mar 27 2026 15:02:44 GMT-0500 (Central Daylight Time),373977.3000000119,lime,800,I,z,z,None,430,231.0,199.0,33,1,1762.300000011921,372215.0,9999,lime,NF,C,364055,364055,362525,363338,362525,364287,363854,363855,364287,104
95,test,1,con,0,m,Fri Mar 27 2026 15:02:44 GMT-0500 (Central Daylight Time),375810.40000000596,copper,900,I,z,z,None,396,197.0,199.0,74,1,1828.800000011921,373981.59999999404,9999,copper,NF,C,365921,365921,364292,365204,364292,366121,365721,365721,366120,105
96,test,1,con,1,m,Fri Mar 27 2026 15:02:44 GMT-0500 (Central Daylight Time),377626.40000000596,silver,800,I,m,m,None,479,280.0,199.0,81,1,1812.300000011921,375814.09999999404,9999,silver,NF,C,367654,367654,366124,366938,366124,367937,367454,367454,367936,106
97,test,1,inc,1,m,Fri Mar 27 2026 15:02:44 GMT-0500 (Central Daylight Time),379575.7000000179,kiwi,1000,I,m,m,None,415,216.0,199.0,103,1,1945.7000000178814,377630.0,9999,gold,NF,C,369669,369669,367940,368953,367940,369886,369470,369470,369886,107
98,test,1,con,1,m,Fri Mar 27 2026 15:02:44 GMT-0500 (Central Daylight Time),381591.90000000596,gold,1100,I,m,m,None,367,167.0,200.0,100,1,2012.0,379579.90000000596,9999,gold,NF,C,371719,371719,369890,371002,369890,371902,371519,371519,371902,108
99,test,1,inc,1,m,Fri Mar 27 2026 15:02:44 GMT-0500 (Central Daylight Time),383559.40000000596,orange,1000,I,m,m,None,426,226.0,200.0,71,1,1963.800000011921,381595.59999999404,9999,bronze,NF,C,373635,373635,371906,372918,371906,373869,373435,373435,373869,109
100,test,1,inc,1,m,Fri Mar 27 2026 15:02:44 GMT-0500 (Central Daylight Time),385540.40000000596,orange,1000,I,m,m,None,437,236.0,201.0,79,1,1976.800000011921,383563.59999999404,9999,copper,NF,C,375602,375602,373874,374886,373874,375850,375401,375401,375850,110
101,test,1,con,1,m,Fri Mar 27 2026 15:02:44 GMT-0500 (Central Daylight Time),387556.59999999404,silver,1100,I,m,m,None,368,169.0,199.0,84,1,2012.3999999761581,385544.2000000179,9999,silver,NF,C,377684,377684,375854,376967,375854,377867,377484,377484,377867,111
102,test,1,inc,1,m,Fri Mar 27 2026 15:02:44 GMT-0500 (Central Daylight Time),389256.3000000119,lime,800,I,m,m,None,358,158.0,200.0,117,1,1695.9000000059605,387560.40000000596,9999,zinc,NF,C,379400,379400,377870,378683,377871,379566,379200,379200,379566,112
103,test,1,inc,1,m,Fri Mar 27 2026 15:02:44 GMT-0500 (Central Daylight Time),391288.8000000119,plum,1100,I,m,m,None,399,199.0,200.0,112,1,2028.9000000059605,389259.90000000596,9999,iron,NF,C,381399,381399,379570,380691,379570,381599,381199,381199,381599,113
104,test,1,con,1,z,Fri Mar 27 2026 15:02:44 GMT-0500 (Central Daylight Time),393454.59999999404,kiwi,1100,I,z,z,None,517,317.0,200.0,52,1,2162.399999976158,391292.2000000179,9999,kiwi,NF,C,383432,383432,381602,382715,381602,383765,383232,383232,383765,114
105,test,1,inc,1,z,Fri Mar 27 2026 15:02:44 GMT-0500 (Central Daylight Time),395471.0,copper,900,I,z,z,None,567,367.0,200.0,6,1,2012.5999999940395,393458.40000000596,9999,banana,NF,C,385398,385398,383768,384681,383769,385781,385198,385198,385781,115
106,test,1,inc,1,z,Fri Mar 27 2026 15:02:44 GMT-0500 (Central Daylight Time),397586.90000000596,cobalt,1100,I,z,z,None,480,280.0,200.0,16,1,2112.300000011921,395474.59999999404,9999,cherry,NF,C,387614,387614,385785,386899,385785,387897,387414,387414,387897,116
107,test,1,con,1,z,Fri Mar 27 2026 15:02:44 GMT-0500 (Central Daylight Time),399902.90000000596,plum,1100,I,z,z,None,676,476.0,200.0,60,1,2312.0999999940395,397590.8000000119,9999,plum,NF,C,389730,389730,387901,389013,387901,390213,389530,389530,390213,117
108,test,1,con,1,z,Fri Mar 27 2026 15:02:44 GMT-0500 (Central Daylight Time),401818.90000000596,plum,1000,I,z,z,None,396,197.0,199.0,59,1,1912.5,399906.40000000596,9999,plum,NF,C,391929,391929,390216,391229,390217,392129,391730,391730,392129,118
108,test,1,con,0,m,Fri Mar 27 2026 15:02:44 GMT-0500 (Central Daylight Time),403751.59999999404,gold,900,I,z,z,None,499,299.0,200.0,98,1,1929.0999999940395,401822.5,9999,gold,NF,C,393762,393762,392133,393046,392133,394062,393562,393562,394062,119
109,test,1,inc,1,m,Fri Mar 27 2026 15:02:44 GMT-0500 (Central Daylight Time),405917.7000000179,plum,1100,I,m,m,None,525,326.0,199.0,120,1,2162.800000011921,403754.90000000596,9999,zinc,NF,C,395895,395895,394065,395178,394065,396228,395695,395695,396228,120
110,test,1,con,1,z,Fri Mar 27 2026 15:02:44 GMT-0500 (Central Daylight Time),407950.3000000119,plum,900,I,z,z,None,592,393.0,199.0,58,1,2029.0,405921.3000000119,9999,plum,NF,C,397861,397861,396231,397144,396232,398260,397662,397662,398260,121
111,test,1,con,1,m,Fri Mar 27 2026 15:02:44 GMT-0500 (Central Daylight Time),409617.5,gold,800,I,m,m,None,332,132.0,200.0,97,1,1663.4000000059605,407954.09999999404,9999,gold,NF,C,399793,399793,398264,399077,398264,399928,399593,399593,399927,122
112,test,1,con,1,m,Fri Mar 27 2026 15:02:44 GMT-0500 (Central Daylight Time),411565.8000000119,silver,1000,I,m,m,None,401,202.0,199.0,83,1,1944.5,409621.3000000119,9999,silver,NF,C,401659,401659,399931,400943,399932,401876,401460,401460,401876,123
113,test,1,con,1,z,Fri Mar 27 2026 15:02:44 GMT-0500 (Central Daylight Time),413481.7000000179,plum,800,I,z,z,None,573,373.0,200.0,57,1,1912.2000000178814,411569.5,9999,plum,NF,C,403409,403409,401880,402692,401880,403792,403209,403209,403792,124
114,test,1,inc,1,m,Fri Mar 27 2026 15:02:44 GMT-0500 (Central Daylight Time),415747.8000000119,raisin,1100,I,m,m,None,621,421.0,200.0,96,1,2262.5999999940395,413485.2000000179,9999,cobalt,NF,C,405625,405625,403795,404909,403795,406058,405425,405425,406058,125
115,test,1,inc,1,m,Fri Mar 27 2026 15:02:44 GMT-0500 (Central Daylight Time),417763.90000000596,pear,900,I,m,m,None,578,378.0,200.0,102,1,2012.300000011921,415751.59999999404,9999,gold,NF,C,407691,407691,406062,406974,406062,408074,407491,407491,408074,126
116,test,1,inc,1,m,Fri Mar 27 2026 15:02:44 GMT-0500 (Central Daylight Time),419596.7000000179,lime,800,I,m,m,None,486,286.0,200.0,109,1,1829.2000000178814,417767.5,9999,iron,NF,C,409607,409607,408078,408891,408078,409907,409407,409407,409907,127
117,test,1,con,1,m,Fri Mar 27 2026 15:02:44 GMT-0500 (Central Daylight Time),421696.5,lead,1100,I,m,m,None,482,283.0,199.0,124,1,2096.0999999940395,419600.40000000596,9999,lead,NF,C,411723,411723,409910,411023,409911,412007,411524,411524,412007,128
