acc_sum,block,block_c,block_cond,con_img,correct,correct_response,datetime,endtime,face,jitter,line,project,response,response_time,row_sel,session_number,start_end,starttime,subject_id,task,task_vers,trial
1,prac,1,A,haborder.png,1,m,Tue Jul 01 2025 14:51:32 GMT-0500 (Central Daylight Time),75409.60000000149,CFD-BM-020-024-HC.jpg,1500,solid,O,m,951,3,1,3251.7999999970198,72157.80000000447,7180,ATS,B,1
2,prac,1,A,haborder.png,1,m,Tue Jul 01 2025 14:51:32 GMT-0500 (Central Daylight Time),79039.0,CFD-BF-035-007-HC.jpg,2000,solid,O,m,848,5,1,6881.19999999553,72157.80000000447,7180,ATS,B,2
3,prac,1,A,haborder.png,1,m,Tue Jul 01 2025 14:51:32 GMT-0500 (Central Daylight Time),82355.70000000298,CFD-WM-012-007-HC.jpg,1700,solid,O,m,843,9,1,10197.89999999851,72157.80000000447,7180,ATS,B,3
4,prac,1,A,haborder.png,1,m,Tue Jul 01 2025 14:51:32 GMT-0500 (Central Daylight Time),85304.60000000149,CFD-WF-011-006-HC.jpg,1500,solid,O,m,655,11,1,13146.79999999702,72157.80000000447,7180,ATS,B,4
5,prac,1,A,haborder.png,1,z,Tue Jul 01 2025 14:51:32 GMT-0500 (Central Daylight Time),87785.80000000447,CFD-WF-013-015-A.jpg,1000,solid,O,z,665,12,1,15628.0,72157.80000000447,7180,ATS,B,5
6,prac,1,A,haborder.png,1,z,Tue Jul 01 2025 14:51:32 GMT-0500 (Central Daylight Time),91152.40000000596,CFD-WM-009-009-A.jpg,1900,solid,O,z,673,8,1,18994.60000000149,72157.80000000447,7180,ATS,B,6
7,prac,1,A,haborder.png,1,z,Tue Jul 01 2025 14:51:32 GMT-0500 (Central Daylight Time),94184.20000000298,CFD-WF-026-008-A.jpg,1600,solid,O,z,640,10,1,22026.39999999851,72157.80000000447,7180,ATS,B,7
8,prac,1,A,haborder.png,1,z,Tue Jul 01 2025 14:51:32 GMT-0500 (Central Daylight Time),96801.20000000298,CFD-BF-050-012-A.jpg,1200,solid,O,z,622,6,1,24643.39999999851,72157.80000000447,7180,ATS,B,8
9,prac,1,A,haborder.png,1,m,Tue Jul 01 2025 14:51:32 GMT-0500 (Central Daylight Time),100332.5,CFD-BM-015-017-HC.jpg,1700,solid,O,m,1042,1,1,28174.69999999553,72157.80000000447,7180,ATS,B,9
10,prac,1,A,haborder.png,1,z,Tue Jul 01 2025 14:51:32 GMT-0500 (Central Daylight Time),103448.90000000596,CFD-BM-037-041-A.jpg,1600,solid,O,z,746,2,1,31291.10000000149,72157.80000000447,7180,ATS,B,10
11,prac,1,A,haborder.png,1,z,Tue Jul 01 2025 14:51:32 GMT-0500 (Central Daylight Time),105831.5,CFD-BF-051-043-A.jpg,1000,solid,O,z,590,4,1,33673.69999999553,72157.80000000447,7180,ATS,B,11
12,prac,1,A,haborder.png,1,m,Tue Jul 01 2025 14:51:32 GMT-0500 (Central Daylight Time),108747.10000000149,CFD-WM-011-006-HC.jpg,1400,solid,O,m,719,7,1,36589.29999999702,72157.80000000447,7180,ATS,B,12
1,prac,1,B,mfborder.png,1,z,Tue Jul 01 2025 14:51:32 GMT-0500 (Central Daylight Time),142385.90000000596,CFD-BF-035-007-HC.jpg,1400,dash,O,z,1281,7,1,3466.3000000044703,138919.6000000015,7180,ATS,B,1
2,prac,1,B,mfborder.png,1,z,Tue Jul 01 2025 14:51:32 GMT-0500 (Central Daylight Time),144802.5,CFD-WF-011-006-HC.jpg,1000,dash,O,z,645,12,1,5882.89999999851,138919.6000000015,7180,ATS,B,2
3,prac,1,B,mfborder.png,1,m,Tue Jul 01 2025 14:51:32 GMT-0500 (Central Daylight Time),148184.70000000298,CFD-BM-037-041-A.jpg,2000,dash,O,m,589,5,1,9265.10000000149,138919.6000000015,7180,ATS,B,3
4,prac,1,B,mfborder.png,1,z,Tue Jul 01 2025 14:51:32 GMT-0500 (Central Daylight Time),151617.6000000015,CFD-WF-027-007-HC.jpg,1900,dash,O,z,749,8,1,12698.0,138919.6000000015,7180,ATS,B,4
4,prac,1,B,mfborder.png,0,z,Tue Jul 01 2025 14:51:32 GMT-0500 (Central Daylight Time),154915.30000000447,CFD-BF-051-043-A.jpg,1000,dash,O,None,1516,4,1,15995.70000000298,138919.6000000015,7180,ATS,B,5
5,prac,1,B,mfborder.png,1,m,Tue Jul 01 2025 14:51:32 GMT-0500 (Central Daylight Time),157848.70000000298,CFD-WM-037-060-A.jpg,1200,dash,O,m,954,6,1,18929.10000000149,138919.6000000015,7180,ATS,B,6
6,prac,1,B,mfborder.png,1,z,Tue Jul 01 2025 14:51:32 GMT-0500 (Central Daylight Time),160830.5,CFD-BF-027-013-HC.jpg,1500,dash,O,z,683,3,1,21910.89999999851,138919.6000000015,7180,ATS,B,7
7,prac,1,B,mfborder.png,1,m,Tue Jul 01 2025 14:51:32 GMT-0500 (Central Daylight Time),163730.30000000447,CFD-WM-012-007-HC.jpg,1600,dash,O,m,506,10,1,24810.70000000298,138919.6000000015,7180,ATS,B,8
8,prac,1,B,mfborder.png,1,m,Tue Jul 01 2025 14:51:32 GMT-0500 (Central Daylight Time),166994.70000000298,CFD-BM-020-024-HC.jpg,1700,dash,O,m,770,1,1,28075.10000000149,138919.6000000015,7180,ATS,B,9
9,prac,1,B,mfborder.png,1,z,Tue Jul 01 2025 14:51:32 GMT-0500 (Central Daylight Time),170011.0,CFD-WF-026-008-A.jpg,1500,dash,O,z,721,11,1,31091.39999999851,138919.6000000015,7180,ATS,B,10
10,prac,1,B,mfborder.png,1,m,Tue Jul 01 2025 14:51:32 GMT-0500 (Central Daylight Time),173142.1000000015,CFD-BM-041-048-A.jpg,1600,dash,O,m,731,2,1,34222.5,138919.6000000015,7180,ATS,B,11
11,prac,1,B,mfborder.png,1,m,Tue Jul 01 2025 14:51:32 GMT-0500 (Central Daylight Time),176358.6000000015,CFD-WM-009-009-A.jpg,1700,dash,O,m,718,9,1,37439.0,138919.6000000015,7180,ATS,B,12
1,test,1,A,haborder.png,1,z,Tue Jul 01 2025 14:51:32 GMT-0500 (Central Daylight Time),202516.5,CFD-BF-051-043-A.jpg,1000,solid,O,z,687,4,1,1715.2999999970198,200801.20000000298,7180,ATS,B,1
2,test,1,A,haborder.png,1,m,Tue Jul 01 2025 14:51:32 GMT-0500 (Central Daylight Time),204667.20000000298,CFD-BM-020-024-HC.jpg,1500,solid,O,m,625,3,1,3866.0,200801.20000000298,7180,ATS,B,2
3,test,1,A,haborder.png,1,m,Tue Jul 01 2025 14:51:32 GMT-0500 (Central Daylight Time),206766.40000000596,CFD-WM-011-006-HC.jpg,1400,solid,O,m,669,7,1,5965.20000000298,200801.20000000298,7180,ATS,B,3
4,test,1,A,haborder.png,1,z,Tue Jul 01 2025 14:51:32 GMT-0500 (Central Daylight Time),208931.90000000596,CFD-BM-037-041-A.jpg,1600,solid,O,z,546,2,1,8130.70000000298,200801.20000000298,7180,ATS,B,4
5,test,1,A,haborder.png,1,m,Tue Jul 01 2025 14:51:32 GMT-0500 (Central Daylight Time),211564.1000000015,CFD-BM-020-024-HC.jpg,1500,solid,O,m,1102,3,1,10762.89999999851,200801.20000000298,7180,ATS,B,5
6,test,1,A,haborder.png,1,m,Tue Jul 01 2025 14:51:32 GMT-0500 (Central Daylight Time),213945.80000000447,CFD-BM-015-017-HC.jpg,1700,solid,O,m,654,1,1,13144.60000000149,200801.20000000298,7180,ATS,B,6
7,test,1,A,haborder.png,1,z,Tue Jul 01 2025 14:51:32 GMT-0500 (Central Daylight Time),216577.90000000596,CFD-WM-009-009-A.jpg,1900,solid,O,z,714,8,1,15776.70000000298,200801.20000000298,7180,ATS,B,7
8,test,1,A,haborder.png,1,z,Tue Jul 01 2025 14:51:32 GMT-0500 (Central Daylight Time),219044.40000000596,CFD-WM-009-009-A.jpg,1900,solid,O,z,535,8,1,18243.20000000298,200801.20000000298,7180,ATS,B,8
9,test,1,A,haborder.png,1,z,Tue Jul 01 2025 14:51:32 GMT-0500 (Central Daylight Time),221277.90000000596,CFD-WF-026-008-A.jpg,1600,solid,O,z,602,10,1,20476.70000000298,200801.20000000298,7180,ATS,B,9
10,test,1,A,haborder.png,1,z,Tue Jul 01 2025 14:51:32 GMT-0500 (Central Daylight Time),223060.40000000596,CFD-BF-050-012-A.jpg,1200,solid,O,z,565,6,1,22259.20000000298,200801.20000000298,7180,ATS,B,10
11,test,1,A,haborder.png,1,z,Tue Jul 01 2025 14:51:32 GMT-0500 (Central Daylight Time),225309.40000000596,CFD-BM-037-041-A.jpg,1600,solid,O,z,627,2,1,24508.20000000298,200801.20000000298,7180,ATS,B,11
12,test,1,A,haborder.png,1,z,Tue Jul 01 2025 14:51:32 GMT-0500 (Central Daylight Time),227592.30000000447,CFD-WF-026-008-A.jpg,1600,solid,O,z,649,10,1,26791.10000000149,200801.20000000298,7180,ATS,B,12
13,test,1,A,haborder.png,1,m,Tue Jul 01 2025 14:51:32 GMT-0500 (Central Daylight Time),229673.80000000447,CFD-WF-011-006-HC.jpg,1500,solid,O,m,564,11,1,28872.60000000149,200801.20000000298,7180,ATS,B,13
14,test,1,A,haborder.png,1,m,Tue Jul 01 2025 14:51:32 GMT-0500 (Central Daylight Time),232006.70000000298,CFD-BM-015-017-HC.jpg,1700,solid,O,m,608,1,1,31205.5,200801.20000000298,7180,ATS,B,14
15,test,1,A,haborder.png,1,m,Tue Jul 01 2025 14:51:32 GMT-0500 (Central Daylight Time),234372.30000000447,CFD-WM-012-007-HC.jpg,1700,solid,O,m,644,9,1,33571.10000000149,200801.20000000298,7180,ATS,B,15
16,test,1,A,haborder.png,1,m,Tue Jul 01 2025 14:51:32 GMT-0500 (Central Daylight Time),237089.40000000596,CFD-WF-011-006-HC.jpg,1500,solid,O,m,1191,11,1,36288.20000000298,200801.20000000298,7180,ATS,B,16
17,test,1,A,haborder.png,1,m,Tue Jul 01 2025 14:51:32 GMT-0500 (Central Daylight Time),239806.6000000015,CFD-BF-035-007-HC.jpg,2000,solid,O,m,688,5,1,39005.39999999851,200801.20000000298,7180,ATS,B,17
18,test,1,A,haborder.png,1,m,Tue Jul 01 2025 14:51:32 GMT-0500 (Central Daylight Time),242203.40000000596,CFD-WM-012-007-HC.jpg,1700,solid,O,m,670,9,1,41402.20000000298,200801.20000000298,7180,ATS,B,18
19,test,1,A,haborder.png,1,m,Tue Jul 01 2025 14:51:32 GMT-0500 (Central Daylight Time),244186.40000000596,CFD-WM-011-006-HC.jpg,1400,solid,O,m,555,7,1,43385.20000000298,200801.20000000298,7180,ATS,B,19
20,test,1,A,haborder.png,1,m,Tue Jul 01 2025 14:51:32 GMT-0500 (Central Daylight Time),246751.40000000596,CFD-BF-035-007-HC.jpg,2000,solid,O,m,543,5,1,45950.20000000298,200801.20000000298,7180,ATS,B,20
21,test,1,A,haborder.png,1,z,Tue Jul 01 2025 14:51:32 GMT-0500 (Central Daylight Time),248335.0,CFD-BF-051-043-A.jpg,1000,solid,O,z,559,4,1,47533.79999999702,200801.20000000298,7180,ATS,B,21
22,test,1,A,haborder.png,1,z,Tue Jul 01 2025 14:51:32 GMT-0500 (Central Daylight Time),250401.6000000015,CFD-WF-013-015-A.jpg,1000,solid,O,z,1048,12,1,49600.39999999851,200801.20000000298,7180,ATS,B,22
23,test,1,A,haborder.png,1,z,Tue Jul 01 2025 14:51:32 GMT-0500 (Central Daylight Time),251951.20000000298,CFD-WF-013-015-A.jpg,1000,solid,O,z,527,12,1,51150.0,200801.20000000298,7180,ATS,B,23
24,test,1,A,haborder.png,1,z,Tue Jul 01 2025 14:51:32 GMT-0500 (Central Daylight Time),253750.1000000015,CFD-BF-050-012-A.jpg,1200,solid,O,z,575,6,1,52948.89999999851,200801.20000000298,7180,ATS,B,24
1,test,1,B,mfborder.png,1,z,Tue Jul 01 2025 14:51:32 GMT-0500 (Central Daylight Time),272160.30000000447,CFD-BF-035-007-HC.jpg,1400,dash,O,z,824,7,1,2249.8000000044703,269910.5,7180,ATS,B,1
2,test,1,B,mfborder.png,1,m,Tue Jul 01 2025 14:51:32 GMT-0500 (Central Daylight Time),274476.30000000447,CFD-WM-012-007-HC.jpg,1600,dash,O,m,686,10,1,4565.80000000447,269910.5,7180,ATS,B,2
3,test,1,B,mfborder.png,1,z,Tue Jul 01 2025 14:51:32 GMT-0500 (Central Daylight Time),276577.6000000015,CFD-BF-027-013-HC.jpg,1500,dash,O,z,584,3,1,6667.10000000149,269910.5,7180,ATS,B,3
4,test,1,B,mfborder.png,1,m,Tue Jul 01 2025 14:51:32 GMT-0500 (Central Daylight Time),278808.90000000596,CFD-BM-041-048-A.jpg,1600,dash,O,m,607,2,1,8898.40000000596,269910.5,7180,ATS,B,4
5,test,1,B,mfborder.png,1,z,Tue Jul 01 2025 14:51:32 GMT-0500 (Central Daylight Time),281757.0,CFD-WF-027-007-HC.jpg,1900,dash,O,z,1018,8,1,11846.5,269910.5,7180,ATS,B,5
6,test,1,B,mfborder.png,1,z,Tue Jul 01 2025 14:51:32 GMT-0500 (Central Daylight Time),283607.6000000015,CFD-BF-051-043-A.jpg,1000,dash,O,z,818,4,1,13697.10000000149,269910.5,7180,ATS,B,6
7,test,1,B,mfborder.png,1,m,Tue Jul 01 2025 14:51:32 GMT-0500 (Central Daylight Time),285957.90000000596,CFD-WM-009-009-A.jpg,1700,dash,O,m,620,9,1,16047.40000000596,269910.5,7180,ATS,B,7
8,test,1,B,mfborder.png,1,m,Tue Jul 01 2025 14:51:32 GMT-0500 (Central Daylight Time),287673.5,CFD-WM-037-060-A.jpg,1200,dash,O,m,499,6,1,17763.0,269910.5,7180,ATS,B,8
9,test,1,B,mfborder.png,1,z,Tue Jul 01 2025 14:51:32 GMT-0500 (Central Daylight Time),289388.5,CFD-WF-011-006-HC.jpg,1000,dash,O,z,686,12,1,19478.0,269910.5,7180,ATS,B,9
10,test,1,B,mfborder.png,1,z,Tue Jul 01 2025 14:51:32 GMT-0500 (Central Daylight Time),291854.80000000447,CFD-WF-027-007-HC.jpg,1900,dash,O,z,533,8,1,21944.30000000447,269910.5,7180,ATS,B,10
11,test,1,B,mfborder.png,1,z,Tue Jul 01 2025 14:51:32 GMT-0500 (Central Daylight Time),294069.6000000015,CFD-BF-035-007-HC.jpg,1400,dash,O,z,792,7,1,24159.10000000149,269910.5,7180,ATS,B,11
12,test,1,B,mfborder.png,1,m,Tue Jul 01 2025 14:51:32 GMT-0500 (Central Daylight Time),295970.200000003,CFD-WM-037-060-A.jpg,1200,dash,O,m,674,6,1,26059.70000000298,269910.5,7180,ATS,B,12
13,test,1,B,mfborder.png,1,m,Tue Jul 01 2025 14:51:32 GMT-0500 (Central Daylight Time),298452.0,CFD-BM-041-048-A.jpg,1600,dash,O,m,852,2,1,28541.5,269910.5,7180,ATS,B,13
14,test,1,B,mfborder.png,1,z,Tue Jul 01 2025 14:51:32 GMT-0500 (Central Daylight Time),300751.6000000015,CFD-WF-026-008-A.jpg,1500,dash,O,z,773,11,1,30841.10000000149,269910.5,7180,ATS,B,14
15,test,1,B,mfborder.png,1,m,Tue Jul 01 2025 14:51:32 GMT-0500 (Central Daylight Time),303184.90000000596,CFD-BM-020-024-HC.jpg,1700,dash,O,m,707,1,1,33274.40000000596,269910.5,7180,ATS,B,15
16,test,1,B,mfborder.png,1,m,Tue Jul 01 2025 14:51:32 GMT-0500 (Central Daylight Time),305417.80000000447,CFD-WM-012-007-HC.jpg,1600,dash,O,m,617,10,1,35507.30000000447,269910.5,7180,ATS,B,16
17,test,1,B,mfborder.png,1,z,Tue Jul 01 2025 14:51:32 GMT-0500 (Central Daylight Time),307400.6000000015,CFD-WF-011-006-HC.jpg,1000,dash,O,z,966,12,1,37490.10000000149,269910.5,7180,ATS,B,17
18,test,1,B,mfborder.png,1,z,Tue Jul 01 2025 14:51:32 GMT-0500 (Central Daylight Time),310216.40000000596,CFD-BF-027-013-HC.jpg,1500,dash,O,z,1284,3,1,40305.90000000596,269910.5,7180,ATS,B,18
19,test,1,B,mfborder.png,1,m,Tue Jul 01 2025 14:51:32 GMT-0500 (Central Daylight Time),312898.30000000447,CFD-BM-037-041-A.jpg,2000,dash,O,m,657,5,1,42987.80000000447,269910.5,7180,ATS,B,19
20,test,1,B,mfborder.png,1,m,Tue Jul 01 2025 14:51:32 GMT-0500 (Central Daylight Time),315263.40000000596,CFD-WM-009-009-A.jpg,1700,dash,O,m,641,9,1,45352.90000000596,269910.5,7180,ATS,B,20
21,test,1,B,mfborder.png,1,z,Tue Jul 01 2025 14:51:32 GMT-0500 (Central Daylight Time),317446.700000003,CFD-WF-026-008-A.jpg,1500,dash,O,z,659,11,1,47536.20000000298,269910.5,7180,ATS,B,21
22,test,1,B,mfborder.png,1,z,Tue Jul 01 2025 14:51:32 GMT-0500 (Central Daylight Time),319195.6000000015,CFD-BF-051-043-A.jpg,1000,dash,O,z,727,4,1,49285.10000000149,269910.5,7180,ATS,B,22
23,test,1,B,mfborder.png,1,m,Tue Jul 01 2025 14:51:32 GMT-0500 (Central Daylight Time),321964.6000000015,CFD-BM-037-041-A.jpg,2000,dash,O,m,751,5,1,52054.10000000149,269910.5,7180,ATS,B,23
24,test,1,B,mfborder.png,1,m,Tue Jul 01 2025 14:51:32 GMT-0500 (Central Daylight Time),324495.80000000447,CFD-BM-020-024-HC.jpg,1700,dash,O,m,800,1,1,54585.30000000447,269910.5,7180,ATS,B,24
0,8,1,C,haborder.png,0,z,Tue Jul 01 2025 14:51:32 GMT-0500 (Central Daylight Time),392121.90000000596,CFD-BF-050-012-A.jpg,1700,solid,O,None,1516,prac,1,3997.2000000029802,388124.700000003,7180,ATS,B,1
0,6,1,C,mfborder.png,0,m,Tue Jul 01 2025 14:51:32 GMT-0500 (Central Daylight Time),396121.80000000447,CFD-WM-009-009-A.jpg,1700,solid,O,None,1509,prac,1,7997.10000000149,388124.700000003,7180,ATS,B,2
0,1,1,C,mfborder.png,0,z,Tue Jul 01 2025 14:51:32 GMT-0500 (Central Daylight Time),399403.5,CFD-WF-011-006-HC.jpg,1600,dash,O,m,886,prac,1,11278.79999999702,388124.700000003,7180,ATS,B,3
1,12,1,C,haborder.png,1,m,Tue Jul 01 2025 14:51:32 GMT-0500 (Central Daylight Time),402870.0,CFD-WM-011-006-HC.jpg,1400,solid,O,m,1284,prac,1,14745.29999999702,388124.700000003,7180,ATS,B,4
2,2,1,C,mfborder.png,1,z,Tue Jul 01 2025 14:51:32 GMT-0500 (Central Daylight Time),406634.40000000596,CFD-WF-013-015-A.jpg,1500,solid,O,z,1471,prac,1,18509.70000000298,388124.700000003,7180,ATS,B,5
3,5,1,C,mfborder.png,1,m,Tue Jul 01 2025 14:51:32 GMT-0500 (Central Daylight Time),409533.90000000596,CFD-BM-037-041-A.jpg,1200,dash,O,m,883,prac,1,21409.20000000298,388124.700000003,7180,ATS,B,6
4,3,1,C,mfborder.png,1,z,Tue Jul 01 2025 14:51:32 GMT-0500 (Central Daylight Time),412315.90000000596,CFD-BF-035-007-HC.jpg,1000,dash,O,z,991,prac,1,24191.20000000298,388124.700000003,7180,ATS,B,7
5,11,1,C,haborder.png,1,m,Tue Jul 01 2025 14:51:32 GMT-0500 (Central Daylight Time),415498.1000000015,CFD-WM-011-006-HC.jpg,1000,dash,O,m,1397,prac,1,27373.39999999851,388124.700000003,7180,ATS,B,8
6,10,1,C,haborder.png,1,m,Tue Jul 01 2025 14:51:32 GMT-0500 (Central Daylight Time),418915.90000000596,CFD-BM-020-024-HC.jpg,1500,solid,O,m,1143,prac,1,30791.20000000298,388124.700000003,7180,ATS,B,9
7,7,1,C,haborder.png,1,z,Tue Jul 01 2025 14:51:32 GMT-0500 (Central Daylight Time),422529.30000000447,CFD-BF-051-043-A.jpg,1900,dash,O,z,930,prac,1,34404.60000000149,388124.700000003,7180,ATS,B,10
8,9,1,C,haborder.png,1,z,Tue Jul 01 2025 14:51:32 GMT-0500 (Central Daylight Time),425895.80000000447,CFD-WF-026-008-A.jpg,1600,dash,O,z,964,prac,1,37771.10000000149,388124.700000003,7180,ATS,B,11
9,4,1,C,mfborder.png,1,m,Tue Jul 01 2025 14:51:32 GMT-0500 (Central Daylight Time),430078.1000000015,CFD-BM-015-017-HC.jpg,2000,solid,O,m,1407,prac,1,41953.39999999851,388124.700000003,7180,ATS,B,12
1,test,1,C,mfborder.png,1,z,Tue Jul 01 2025 14:51:32 GMT-0500 (Central Daylight Time),459918.1000000015,CFD-BF-027-013-HC.jpg,1700,dash,O,z,1208,1,1,2931.2999999970198,456986.80000000447,7180,ATS,B,1
2,test,1,C,mfborder.png,1,z,Tue Jul 01 2025 14:51:32 GMT-0500 (Central Daylight Time),462550.1000000015,CFD-BF-027-013-HC.jpg,1700,dash,O,z,909,1,1,5563.29999999702,456986.80000000447,7180,ATS,B,2
2,test,1,C,haborder.png,0,z,Tue Jul 01 2025 14:51:32 GMT-0500 (Central Daylight Time),465931.200000003,CFD-BM-037-041-A.jpg,1900,solid,O,m,1461,8,1,8944.39999999851,456986.80000000447,7180,ATS,B,3
2,test,1,C,haborder.png,0,z,Tue Jul 01 2025 14:51:32 GMT-0500 (Central Daylight Time),469148.1000000015,CFD-BM-041-048-A.jpg,1700,solid,O,None,1501,9,1,12161.29999999702,456986.80000000447,7180,ATS,B,4
2,test,1,C,haborder.png,0,m,Tue Jul 01 2025 14:51:32 GMT-0500 (Central Daylight Time),471680.80000000447,CFD-WF-011-006-HC.jpg,1000,solid,O,None,1507,12,1,14694.0,456986.80000000447,7180,ATS,B,5
2,test,1,C,mfborder.png,0,m,Tue Jul 01 2025 14:51:32 GMT-0500 (Central Daylight Time),474679.200000003,CFD-WM-037-060-A.jpg,2000,dash,O,z,966,5,1,17692.39999999851,456986.80000000447,7180,ATS,B,6
3,test,1,C,mfborder.png,1,z,Tue Jul 01 2025 14:51:32 GMT-0500 (Central Daylight Time),477445.5,CFD-WF-026-008-A.jpg,1500,dash,O,z,1234,3,1,20458.69999999553,456986.80000000447,7180,ATS,B,7
3,test,1,C,haborder.png,0,z,Tue Jul 01 2025 14:51:32 GMT-0500 (Central Daylight Time),480377.90000000596,CFD-WM-009-009-A.jpg,1400,solid,O,None,1515,7,1,23391.10000000149,456986.80000000447,7180,ATS,B,8
4,test,1,C,mfborder.png,1,z,Tue Jul 01 2025 14:51:32 GMT-0500 (Central Daylight Time),482810.200000003,CFD-WF-026-008-A.jpg,1500,dash,O,z,905,3,1,25823.39999999851,456986.80000000447,7180,ATS,B,9
5,test,1,C,mfborder.png,1,m,Tue Jul 01 2025 14:51:32 GMT-0500 (Central Daylight Time),484742.1000000015,CFD-WM-012-007-HC.jpg,1000,dash,O,m,909,4,1,27755.29999999702,456986.80000000447,7180,ATS,B,10
6,test,1,C,mfborder.png,1,m,Tue Jul 01 2025 14:51:32 GMT-0500 (Central Daylight Time),487408.200000003,CFD-BM-020-024-HC.jpg,1200,dash,O,m,1446,6,1,30421.39999999851,456986.80000000447,7180,ATS,B,11
6,test,1,C,haborder.png,0,m,Tue Jul 01 2025 14:51:32 GMT-0500 (Central Daylight Time),490440.90000000596,CFD-WF-027-007-HC.jpg,1500,solid,O,None,1514,11,1,33454.10000000149,456986.80000000447,7180,ATS,B,12
7,test,1,C,mfborder.png,1,m,Tue Jul 01 2025 14:51:32 GMT-0500 (Central Daylight Time),492590.80000000447,CFD-BM-020-024-HC.jpg,1200,dash,O,m,926,6,1,35604.0,456986.80000000447,7180,ATS,B,13
7,test,1,C,haborder.png,0,m,Tue Jul 01 2025 14:51:32 GMT-0500 (Central Daylight Time),495723.5,CFD-BF-035-007-HC.jpg,1600,solid,O,None,1515,10,1,38736.69999999553,456986.80000000447,7180,ATS,B,14
8,test,1,C,haborder.png,1,m,Tue Jul 01 2025 14:51:32 GMT-0500 (Central Daylight Time),498570.90000000596,CFD-BF-035-007-HC.jpg,1600,solid,O,m,1221,10,1,41584.10000000149,456986.80000000447,7180,ATS,B,15
9,test,1,C,mfborder.png,1,z,Tue Jul 01 2025 14:51:32 GMT-0500 (Central Daylight Time),501520.5,CFD-BF-051-043-A.jpg,1600,dash,O,z,1322,2,1,44533.69999999553,456986.80000000447,7180,ATS,B,16
9,test,1,C,haborder.png,0,z,Tue Jul 01 2025 14:51:32 GMT-0500 (Central Daylight Time),504954.200000003,CFD-BM-037-041-A.jpg,1900,solid,O,None,1516,8,1,47967.39999999851,456986.80000000447,7180,ATS,B,17
10,test,1,C,haborder.png,1,m,Tue Jul 01 2025 14:51:32 GMT-0500 (Central Daylight Time),507354.90000000596,CFD-WF-011-006-HC.jpg,1000,solid,O,m,1383,12,1,50368.10000000149,456986.80000000447,7180,ATS,B,18
11,test,1,C,haborder.png,1,z,Tue Jul 01 2025 14:51:32 GMT-0500 (Central Daylight Time),509717.80000000447,CFD-WM-009-009-A.jpg,1400,solid,O,z,934,7,1,52731.0,456986.80000000447,7180,ATS,B,19
12,test,1,C,mfborder.png,1,z,Tue Jul 01 2025 14:51:32 GMT-0500 (Central Daylight Time),512601.700000003,CFD-BF-051-043-A.jpg,1600,dash,O,z,1264,2,1,55614.89999999851,456986.80000000447,7180,ATS,B,20
13,test,1,C,mfborder.png,1,m,Tue Jul 01 2025 14:51:32 GMT-0500 (Central Daylight Time),515499.80000000447,CFD-WM-037-060-A.jpg,2000,dash,O,m,878,5,1,58513.0,456986.80000000447,7180,ATS,B,21
14,test,1,C,haborder.png,1,z,Tue Jul 01 2025 14:51:32 GMT-0500 (Central Daylight Time),518515.1000000015,CFD-BM-041-048-A.jpg,1700,solid,O,z,1287,9,1,61528.29999999702,456986.80000000447,7180,ATS,B,22
15,test,1,C,haborder.png,1,m,Tue Jul 01 2025 14:51:32 GMT-0500 (Central Daylight Time),521331.90000000596,CFD-WF-027-007-HC.jpg,1500,solid,O,m,1297,11,1,64345.10000000149,456986.80000000447,7180,ATS,B,23
16,test,1,C,mfborder.png,1,m,Tue Jul 01 2025 14:51:32 GMT-0500 (Central Daylight Time),523787.5,CFD-WM-012-007-HC.jpg,1000,dash,O,m,1429,4,1,66800.69999999553,456986.80000000447,7180,ATS,B,24
0,test,2,C,haborder.png,0,m,Tue Jul 01 2025 14:51:32 GMT-0500 (Central Daylight Time),534311.200000003,CFD-WM-011-006-HC.jpg,1000,solid,O,None,1510,12,1,2533.10000000149,531778.1000000015,7180,ATS,B,1
1,test,2,C,mfborder.png,1,z,Tue Jul 01 2025 14:51:32 GMT-0500 (Central Daylight Time),537344.0,CFD-WF-013-015-A.jpg,1600,dash,O,z,1417,2,1,5565.89999999851,531778.1000000015,7180,ATS,B,2
1,test,2,C,haborder.png,0,z,Tue Jul 01 2025 14:51:32 GMT-0500 (Central Daylight Time),540276.6000000015,CFD-BF-051-043-A.jpg,1400,solid,O,None,1518,7,1,8498.5,531778.1000000015,7180,ATS,B,3
2,test,2,C,mfborder.png,1,z,Tue Jul 01 2025 14:51:32 GMT-0500 (Central Daylight Time),543273.1000000015,CFD-BF-035-007-HC.jpg,1500,dash,O,z,1465,3,1,11495.0,531778.1000000015,7180,ATS,B,4
2,test,2,C,haborder.png,0,z,Tue Jul 01 2025 14:51:32 GMT-0500 (Central Daylight Time),546122.5,CFD-BF-051-043-A.jpg,1400,solid,O,m,1420,7,1,14344.39999999851,531778.1000000015,7180,ATS,B,5
3,test,2,C,mfborder.png,1,m,Tue Jul 01 2025 14:51:32 GMT-0500 (Central Daylight Time),548838.900000006,CFD-WM-009-009-A.jpg,1200,dash,O,m,1483,6,1,17060.80000000447,531778.1000000015,7180,ATS,B,6
4,test,2,C,mfborder.png,1,m,Tue Jul 01 2025 14:51:32 GMT-0500 (Central Daylight Time),551957.1000000015,CFD-BM-037-041-A.jpg,2000,dash,O,m,1100,5,1,20179.0,531778.1000000015,7180,ATS,B,7
4,test,2,C,haborder.png,0,m,Tue Jul 01 2025 14:51:32 GMT-0500 (Central Daylight Time),555087.200000003,CFD-BM-020-024-HC.jpg,1600,solid,O,None,1514,10,1,23309.10000000149,531778.1000000015,7180,ATS,B,8
5,test,2,C,haborder.png,1,z,Tue Jul 01 2025 14:51:32 GMT-0500 (Central Daylight Time),558254.5,CFD-WF-026-008-A.jpg,1700,solid,O,z,1441,9,1,26476.39999999851,531778.1000000015,7180,ATS,B,9
6,test,2,C,mfborder.png,1,z,Tue Jul 01 2025 14:51:32 GMT-0500 (Central Daylight Time),560804.1000000015,CFD-WF-013-015-A.jpg,1600,dash,O,z,931,2,1,29026.0,531778.1000000015,7180,ATS,B,10
7,test,2,C,mfborder.png,1,m,Tue Jul 01 2025 14:51:32 GMT-0500 (Central Daylight Time),563705.1000000015,CFD-BM-037-041-A.jpg,2000,dash,O,m,868,5,1,31927.0,531778.1000000015,7180,ATS,B,11
8,test,2,C,haborder.png,1,m,Tue Jul 01 2025 14:51:32 GMT-0500 (Central Daylight Time),565815.8000000045,CFD-WM-011-006-HC.jpg,1000,solid,O,m,1082,12,1,34037.70000000298,531778.1000000015,7180,ATS,B,12
9,test,2,C,haborder.png,1,z,Tue Jul 01 2025 14:51:32 GMT-0500 (Central Daylight Time),568434.200000003,CFD-WF-026-008-A.jpg,1700,solid,O,z,899,9,1,36656.10000000149,531778.1000000015,7180,ATS,B,13
10,test,2,C,haborder.png,1,m,Tue Jul 01 2025 14:51:32 GMT-0500 (Central Daylight Time),570766.400000006,CFD-WM-011-006-HC.jpg,1500,solid,O,m,801,11,1,38988.30000000447,531778.1000000015,7180,ATS,B,14
11,test,2,C,haborder.png,1,z,Tue Jul 01 2025 14:51:32 GMT-0500 (Central Daylight Time),573649.400000006,CFD-BF-050-012-A.jpg,1900,solid,O,z,964,8,1,41871.30000000447,531778.1000000015,7180,ATS,B,15
11,test,2,C,mfborder.png,0,z,Tue Jul 01 2025 14:51:32 GMT-0500 (Central Daylight Time),576682.1000000015,CFD-BF-035-007-HC.jpg,1500,dash,O,None,1517,3,1,44904.0,531778.1000000015,7180,ATS,B,16
12,test,2,C,mfborder.png,1,z,Tue Jul 01 2025 14:51:32 GMT-0500 (Central Daylight Time),579413.5,CFD-WF-011-006-HC.jpg,1700,dash,O,z,1002,1,1,47635.39999999851,531778.1000000015,7180,ATS,B,17
13,test,2,C,haborder.png,1,m,Tue Jul 01 2025 14:51:32 GMT-0500 (Central Daylight Time),582110.400000006,CFD-BM-020-024-HC.jpg,1600,solid,O,m,1065,10,1,50332.30000000447,531778.1000000015,7180,ATS,B,18
14,test,2,C,mfborder.png,1,z,Tue Jul 01 2025 14:51:32 GMT-0500 (Central Daylight Time),585127.8000000045,CFD-WF-011-006-HC.jpg,1700,dash,O,z,1291,1,1,53349.70000000298,531778.1000000015,7180,ATS,B,19
14,test,2,C,haborder.png,0,m,Tue Jul 01 2025 14:51:32 GMT-0500 (Central Daylight Time),588158.700000003,CFD-WM-011-006-HC.jpg,1500,solid,O,None,1505,11,1,56380.60000000149,531778.1000000015,7180,ATS,B,20
15,test,2,C,mfborder.png,1,m,Tue Jul 01 2025 14:51:32 GMT-0500 (Central Daylight Time),590858.5,CFD-WM-009-009-A.jpg,1200,dash,O,m,1478,6,1,59080.39999999851,531778.1000000015,7180,ATS,B,21
16,test,2,C,mfborder.png,1,m,Tue Jul 01 2025 14:51:32 GMT-0500 (Central Daylight Time),593258.8000000045,CFD-BM-015-017-HC.jpg,1000,dash,O,m,1372,4,1,61480.70000000298,531778.1000000015,7180,ATS,B,22
17,test,2,C,haborder.png,1,z,Tue Jul 01 2025 14:51:32 GMT-0500 (Central Daylight Time),596191.1000000015,CFD-BF-050-012-A.jpg,1900,solid,O,z,999,8,1,64413.0,531778.1000000015,7180,ATS,B,23
18,test,2,C,mfborder.png,1,m,Tue Jul 01 2025 14:51:32 GMT-0500 (Central Daylight Time),598139.900000006,CFD-BM-015-017-HC.jpg,1000,dash,O,m,919,4,1,66361.80000000447,531778.1000000015,7180,ATS,B,24
0,test,3,C,mfborder.png,0,m,Tue Jul 01 2025 14:51:32 GMT-0500 (Central Daylight Time),604337.900000006,CFD-WM-037-060-A.jpg,2000,dash,O,None,1515,5,1,3532.4000000059605,600805.5,7180,ATS,B,1
1,test,3,C,haborder.png,1,m,Tue Jul 01 2025 14:51:32 GMT-0500 (Central Daylight Time),607220.900000006,CFD-WF-027-007-HC.jpg,1500,solid,O,m,1343,11,1,6415.4000000059605,600805.5,7180,ATS,B,2
2,test,3,C,haborder.png,1,z,Tue Jul 01 2025 14:51:32 GMT-0500 (Central Daylight Time),610104.0,CFD-BM-041-048-A.jpg,1700,solid,O,z,1158,9,1,9298.5,600805.5,7180,ATS,B,3
3,test,3,C,haborder.png,1,z,Tue Jul 01 2025 14:51:32 GMT-0500 (Central Daylight Time),612402.400000006,CFD-WM-009-009-A.jpg,1400,solid,O,z,872,7,1,11596.90000000596,600805.5,7180,ATS,B,4
4,test,3,C,haborder.png,1,m,Tue Jul 01 2025 14:51:32 GMT-0500 (Central Daylight Time),615101.0,CFD-BF-035-007-HC.jpg,1600,solid,O,m,1069,10,1,14295.5,600805.5,7180,ATS,B,5
5,test,3,C,mfborder.png,1,m,Tue Jul 01 2025 14:51:32 GMT-0500 (Central Daylight Time),617185.8000000045,CFD-BM-020-024-HC.jpg,1200,dash,O,m,865,6,1,16380.30000000447,600805.5,7180,ATS,B,6
6,test,3,C,mfborder.png,1,z,Tue Jul 01 2025 14:51:32 GMT-0500 (Central Daylight Time),619384.400000006,CFD-WF-026-008-A.jpg,1500,dash,O,z,683,3,1,18578.90000000596,600805.5,7180,ATS,B,7
7,test,3,C,mfborder.png,1,m,Tue Jul 01 2025 14:51:32 GMT-0500 (Central Daylight Time),621199.8000000045,CFD-WM-012-007-HC.jpg,1000,dash,O,m,783,4,1,20394.30000000447,600805.5,7180,ATS,B,8
8,test,3,C,mfborder.png,1,z,Tue Jul 01 2025 14:51:32 GMT-0500 (Central Daylight Time),623831.200000003,CFD-BF-027-013-HC.jpg,1700,dash,O,z,900,1,1,23025.70000000298,600805.5,7180,ATS,B,9
9,test,3,C,haborder.png,1,m,Tue Jul 01 2025 14:51:32 GMT-0500 (Central Daylight Time),626049.0,CFD-WF-011-006-HC.jpg,1000,solid,O,m,1192,12,1,25243.5,600805.5,7180,ATS,B,10
10,test,3,C,mfborder.png,1,m,Tue Jul 01 2025 14:51:32 GMT-0500 (Central Daylight Time),629563.3000000045,CFD-WM-037-060-A.jpg,2000,dash,O,m,1490,5,1,28757.80000000447,600805.5,7180,ATS,B,11
11,test,3,C,haborder.png,1,m,Tue Jul 01 2025 14:51:32 GMT-0500 (Central Daylight Time),632379.900000006,CFD-WF-027-007-HC.jpg,1500,solid,O,m,1288,11,1,31574.40000000596,600805.5,7180,ATS,B,12
12,test,3,C,haborder.png,1,z,Tue Jul 01 2025 14:51:32 GMT-0500 (Central Daylight Time),635179.700000003,CFD-BM-041-048-A.jpg,1700,solid,O,z,1082,9,1,34374.20000000298,600805.5,7180,ATS,B,13
13,test,3,C,mfborder.png,1,z,Tue Jul 01 2025 14:51:32 GMT-0500 (Central Daylight Time),637928.6000000015,CFD-BF-027-013-HC.jpg,1700,dash,O,z,1032,1,1,37123.10000000149,600805.5,7180,ATS,B,14
13,test,3,C,haborder.png,0,z,Tue Jul 01 2025 14:51:32 GMT-0500 (Central Daylight Time),640643.200000003,CFD-WM-009-009-A.jpg,1400,solid,O,m,1296,7,1,39837.70000000298,600805.5,7180,ATS,B,15
13,test,3,C,haborder.png,0,m,Tue Jul 01 2025 14:51:32 GMT-0500 (Central Daylight Time),643775.3000000045,CFD-BF-035-007-HC.jpg,1600,solid,O,None,1514,10,1,42969.80000000447,600805.5,7180,ATS,B,16
14,test,3,C,mfborder.png,1,m,Tue Jul 01 2025 14:51:32 GMT-0500 (Central Daylight Time),646357.200000003,CFD-BM-020-024-HC.jpg,1200,dash,O,m,1351,6,1,45551.70000000298,600805.5,7180,ATS,B,17
15,test,3,C,haborder.png,1,m,Tue Jul 01 2025 14:51:32 GMT-0500 (Central Daylight Time),648772.900000006,CFD-WF-011-006-HC.jpg,1000,solid,O,m,1385,12,1,47967.40000000596,600805.5,7180,ATS,B,18
16,test,3,C,mfborder.png,1,z,Tue Jul 01 2025 14:51:32 GMT-0500 (Central Daylight Time),651691.1000000015,CFD-WF-026-008-A.jpg,1500,dash,O,z,1401,3,1,50885.60000000149,600805.5,7180,ATS,B,19
16,test,3,C,haborder.png,0,z,Tue Jul 01 2025 14:51:32 GMT-0500 (Central Daylight Time),655122.8000000045,CFD-BM-037-041-A.jpg,1900,solid,O,None,1516,8,1,54317.30000000447,600805.5,7180,ATS,B,20
17,test,3,C,haborder.png,1,z,Tue Jul 01 2025 14:51:32 GMT-0500 (Central Daylight Time),658087.3000000045,CFD-BM-037-041-A.jpg,1900,solid,O,z,1041,8,1,57281.80000000447,600805.5,7180,ATS,B,21
18,test,3,C,mfborder.png,1,m,Tue Jul 01 2025 14:51:32 GMT-0500 (Central Daylight Time),660436.400000006,CFD-WM-012-007-HC.jpg,1000,dash,O,m,1326,4,1,59630.90000000596,600805.5,7180,ATS,B,22
19,test,3,C,mfborder.png,1,z,Tue Jul 01 2025 14:51:32 GMT-0500 (Central Daylight Time),662987.5,CFD-BF-051-043-A.jpg,1600,dash,O,z,933,2,1,62182.0,600805.5,7180,ATS,B,23
20,test,3,C,mfborder.png,1,z,Tue Jul 01 2025 14:51:32 GMT-0500 (Central Daylight Time),665235.200000003,CFD-BF-051-043-A.jpg,1600,dash,O,z,609,2,1,64429.70000000298,600805.5,7180,ATS,B,24
0,test,4,C,haborder.png,0,z,Tue Jul 01 2025 14:51:32 GMT-0500 (Central Daylight Time),671968.700000003,CFD-BF-050-012-A.jpg,1900,solid,O,m,1198,8,1,3117.89999999851,668850.8000000045,7180,ATS,B,1
1,test,4,C,haborder.png,1,m,Tue Jul 01 2025 14:51:32 GMT-0500 (Central Daylight Time),674600.1000000015,CFD-BM-020-024-HC.jpg,1600,solid,O,m,1000,10,1,5749.29999999702,668850.8000000045,7180,ATS,B,2
2,test,4,C,mfborder.png,1,z,Tue Jul 01 2025 14:51:32 GMT-0500 (Central Daylight Time),677531.6000000015,CFD-WF-013-015-A.jpg,1600,dash,O,z,1312,2,1,8680.79999999702,668850.8000000045,7180,ATS,B,3
3,test,4,C,mfborder.png,1,z,Tue Jul 01 2025 14:51:32 GMT-0500 (Central Daylight Time),679814.6000000015,CFD-BF-035-007-HC.jpg,1500,dash,O,z,751,3,1,10963.79999999702,668850.8000000045,7180,ATS,B,4
4,test,4,C,mfborder.png,1,m,Tue Jul 01 2025 14:51:32 GMT-0500 (Central Daylight Time),681896.700000003,CFD-WM-009-009-A.jpg,1200,dash,O,m,844,6,1,13045.89999999851,668850.8000000045,7180,ATS,B,5
5,test,4,C,mfborder.png,1,m,Tue Jul 01 2025 14:51:32 GMT-0500 (Central Daylight Time),684845.400000006,CFD-BM-037-041-A.jpg,2000,dash,O,m,919,5,1,15994.60000000149,668850.8000000045,7180,ATS,B,6
6,test,4,C,haborder.png,1,z,Tue Jul 01 2025 14:51:32 GMT-0500 (Central Daylight Time),687776.700000003,CFD-BF-050-012-A.jpg,1900,solid,O,z,1006,8,1,18925.89999999851,668850.8000000045,7180,ATS,B,7
7,test,4,C,haborder.png,1,z,Tue Jul 01 2025 14:51:32 GMT-0500 (Central Daylight Time),690326.0,CFD-WF-026-008-A.jpg,1700,solid,O,z,818,9,1,21475.19999999553,668850.8000000045,7180,ATS,B,8
8,test,4,C,haborder.png,1,m,Tue Jul 01 2025 14:51:32 GMT-0500 (Central Daylight Time),692741.900000006,CFD-BM-020-024-HC.jpg,1600,solid,O,m,792,10,1,23891.10000000149,668850.8000000045,7180,ATS,B,9
9,test,4,C,mfborder.png,1,m,Tue Jul 01 2025 14:51:32 GMT-0500 (Central Daylight Time),695773.6000000015,CFD-BM-037-041-A.jpg,2000,dash,O,m,1010,5,1,26922.79999999702,668850.8000000045,7180,ATS,B,10
10,test,4,C,haborder.png,1,z,Tue Jul 01 2025 14:51:32 GMT-0500 (Central Daylight Time),698357.200000003,CFD-BF-051-043-A.jpg,1400,solid,O,z,1152,7,1,29506.39999999851,668850.8000000045,7180,ATS,B,11
10,test,4,C,mfborder.png,0,z,Tue Jul 01 2025 14:51:32 GMT-0500 (Central Daylight Time),701274.6000000015,CFD-WF-011-006-HC.jpg,1700,dash,O,m,1191,1,1,32423.79999999702,668850.8000000045,7180,ATS,B,12
11,test,4,C,mfborder.png,1,z,Tue Jul 01 2025 14:51:32 GMT-0500 (Central Daylight Time),704089.400000006,CFD-WF-013-015-A.jpg,1600,dash,O,z,1190,2,1,35238.60000000149,668850.8000000045,7180,ATS,B,13
11,test,4,C,haborder.png,0,z,Tue Jul 01 2025 14:51:32 GMT-0500 (Central Daylight Time),707321.900000006,CFD-WF-026-008-A.jpg,1700,solid,O,None,1515,9,1,38471.10000000149,668850.8000000045,7180,ATS,B,14
12,test,4,C,haborder.png,1,m,Tue Jul 01 2025 14:51:32 GMT-0500 (Central Daylight Time),709870.400000006,CFD-WM-011-006-HC.jpg,1500,solid,O,m,1026,11,1,41019.60000000149,668850.8000000045,7180,ATS,B,15
13,test,4,C,mfborder.png,1,z,Tue Jul 01 2025 14:51:32 GMT-0500 (Central Daylight Time),712602.8000000045,CFD-WF-011-006-HC.jpg,1700,dash,O,z,999,1,1,43752.0,668850.8000000045,7180,ATS,B,16
14,test,4,C,haborder.png,1,m,Tue Jul 01 2025 14:51:32 GMT-0500 (Central Daylight Time),714851.6000000015,CFD-WM-011-006-HC.jpg,1000,solid,O,m,1226,12,1,46000.79999999702,668850.8000000045,7180,ATS,B,17
15,test,4,C,mfborder.png,1,z,Tue Jul 01 2025 14:51:32 GMT-0500 (Central Daylight Time),717218.1000000015,CFD-BF-035-007-HC.jpg,1500,dash,O,z,838,3,1,48367.29999999702,668850.8000000045,7180,ATS,B,18
15,test,4,C,haborder.png,0,m,Tue Jul 01 2025 14:51:32 GMT-0500 (Central Daylight Time),719751.700000003,CFD-WM-011-006-HC.jpg,1000,solid,O,None,1516,12,1,50900.89999999851,668850.8000000045,7180,ATS,B,19
16,test,4,C,haborder.png,1,z,Tue Jul 01 2025 14:51:32 GMT-0500 (Central Daylight Time),722200.700000003,CFD-BF-051-043-A.jpg,1400,solid,O,z,1031,7,1,53349.89999999851,668850.8000000045,7180,ATS,B,20
17,test,4,C,haborder.png,1,m,Tue Jul 01 2025 14:51:32 GMT-0500 (Central Daylight Time),724483.1000000015,CFD-WM-011-006-HC.jpg,1500,solid,O,m,750,11,1,55632.29999999702,668850.8000000045,7180,ATS,B,21
18,test,4,C,mfborder.png,1,m,Tue Jul 01 2025 14:51:32 GMT-0500 (Central Daylight Time),726765.6000000015,CFD-BM-015-017-HC.jpg,1000,dash,O,m,1258,4,1,57914.79999999702,668850.8000000045,7180,ATS,B,22
19,test,4,C,mfborder.png,1,m,Tue Jul 01 2025 14:51:32 GMT-0500 (Central Daylight Time),728715.5,CFD-WM-009-009-A.jpg,1200,dash,O,m,721,6,1,59864.69999999553,668850.8000000045,7180,ATS,B,23
20,test,4,C,mfborder.png,1,m,Tue Jul 01 2025 14:51:32 GMT-0500 (Central Daylight Time),730364.700000003,CFD-BM-015-017-HC.jpg,1000,dash,O,m,617,4,1,61513.89999999851,668850.8000000045,7180,ATS,B,24
