acc_sum,block,block_c,block_cond,con_img,correct,correct_response,datetime,endtime,face,jitter,line,project,response,response_time,row_sel,session_number,start_end,starttime,subject_id,task,task_vers,trial
1,prac,1,A,haborder.png,1,m,Thu Mar 05 2026 12:37:44 GMT-0600 (Central Standard Time),65900.19999998808,CFD-WF-017-016-HC.jpg,1500,solid,O,m,1126,11,1,3400.5,62499.69999998808,7753,ATS,A,1
2,prac,1,A,haborder.png,1,z,Thu Mar 05 2026 12:37:44 GMT-0600 (Central Standard Time),69596.39999997616,CFD-WM-013-015-A.jpg,1900,solid,O,z,1010,8,1,7096.699999988079,62499.69999998808,7753,ATS,A,2
3,prac,1,A,haborder.png,1,m,Thu Mar 05 2026 12:37:44 GMT-0600 (Central Standard Time),72797.59999999404,CFD-WM-004-005-HC.jpg,1400,solid,O,m,1009,7,1,10297.90000000596,62499.69999998808,7753,ATS,A,3
4,prac,1,A,haborder.png,1,m,Thu Mar 05 2026 12:37:44 GMT-0600 (Central Standard Time),76046.59999999404,CFD-BM-017-052-HC.jpg,1700,solid,O,m,776,1,1,13546.90000000596,62499.69999998808,7753,ATS,A,4
5,prac,1,A,haborder.png,1,m,Thu Mar 05 2026 12:37:44 GMT-0600 (Central Standard Time),79528.29999998212,CFD-WM-006-013-HC.jpg,1700,solid,O,m,990,9,1,17028.59999999404,62499.69999998808,7753,ATS,A,5
6,prac,1,A,haborder.png,1,z,Thu Mar 05 2026 12:37:44 GMT-0600 (Central Standard Time),82193.89999997616,CFD-BF-023-013-A.jpg,1000,solid,O,z,880,4,1,19694.19999998808,62499.69999998808,7753,ATS,A,6
7,prac,1,A,haborder.png,1,m,Thu Mar 05 2026 12:37:44 GMT-0600 (Central Standard Time),85892.29999998212,CFD-BF-028-020-HC.jpg,2000,solid,O,m,910,5,1,23392.59999999404,62499.69999998808,7753,ATS,A,7
8,prac,1,A,haborder.png,1,z,Thu Mar 05 2026 12:37:44 GMT-0600 (Central Standard Time),88775.69999998808,CFD-BF-039-039-A.jpg,1200,solid,O,z,906,6,1,26276.0,62499.69999998808,7753,ATS,A,8
9,prac,1,A,haborder.png,1,z,Thu Mar 05 2026 12:37:44 GMT-0600 (Central Standard Time),91392.29999998212,CFD-WF-019-015-A.jpg,1000,solid,O,z,824,12,1,28892.59999999404,62499.69999998808,7753,ATS,A,9
10,prac,1,A,haborder.png,1,m,Thu Mar 05 2026 12:37:44 GMT-0600 (Central Standard Time),94707.59999999404,CFD-BM-029-026-HC.jpg,1500,solid,O,m,1033,3,1,32207.90000000596,62499.69999998808,7753,ATS,A,10
11,prac,1,A,haborder.png,1,z,Thu Mar 05 2026 12:37:44 GMT-0600 (Central Standard Time),97955.0,CFD-WF-003-014-A.jpg,1600,solid,O,z,854,10,1,35455.30000001192,62499.69999998808,7753,ATS,A,11
12,prac,1,A,haborder.png,1,z,Thu Mar 05 2026 12:37:44 GMT-0600 (Central Standard Time),101305.09999999404,CFD-BM-005-010-A.jpg,1600,solid,O,z,972,2,1,38805.40000000596,62499.69999998808,7753,ATS,A,12
0,prac,1,B,mfborder.png,0,z,Thu Mar 05 2026 12:37:44 GMT-0600 (Central Standard Time),128380.39999997616,CFD-WF-017-016-HC.jpg,1000,dash,O,None,1515,12,1,3282.199999988079,125098.19999998808,7753,ATS,A,1
1,prac,1,B,mfborder.png,1,z,Thu Mar 05 2026 12:37:44 GMT-0600 (Central Standard Time),131960.69999998808,CFD-WF-003-014-A.jpg,1500,dash,O,z,1294,11,1,6862.5,125098.19999998808,7753,ATS,A,2
2,prac,1,B,mfborder.png,1,m,Thu Mar 05 2026 12:37:44 GMT-0600 (Central Standard Time),135726.09999999404,CFD-BM-029-026-HC.jpg,1700,dash,O,m,1265,1,1,10627.90000000596,125098.19999998808,7753,ATS,A,3
3,prac,1,B,mfborder.png,1,z,Thu Mar 05 2026 12:37:44 GMT-0600 (Central Standard Time),139291.5,CFD-WF-002-008-HC.jpg,1900,dash,O,z,875,8,1,14193.300000011921,125098.19999998808,7753,ATS,A,4
4,prac,1,B,mfborder.png,1,z,Thu Mar 05 2026 12:37:44 GMT-0600 (Central Standard Time),142226.39999997616,CFD-BF-028-020-HC.jpg,1400,dash,O,z,756,7,1,17128.19999998808,125098.19999998808,7753,ATS,A,5
5,prac,1,B,mfborder.png,1,m,Thu Mar 05 2026 12:37:44 GMT-0600 (Central Standard Time),145855.89999997616,CFD-WM-006-013-HC.jpg,1600,dash,O,m,1237,10,1,20757.69999998808,125098.19999998808,7753,ATS,A,6
6,prac,1,B,mfborder.png,1,m,Thu Mar 05 2026 12:37:44 GMT-0600 (Central Standard Time),149622.5,CFD-BM-005-010-A.jpg,2000,dash,O,m,976,5,1,24524.30000001192,125098.19999998808,7753,ATS,A,7
7,prac,1,B,mfborder.png,1,m,Thu Mar 05 2026 12:37:44 GMT-0600 (Central Standard Time),152821.69999998808,CFD-BM-010-019-A.jpg,1600,dash,O,m,810,2,1,27723.5,125098.19999998808,7753,ATS,A,8
8,prac,1,B,mfborder.png,1,z,Thu Mar 05 2026 12:37:44 GMT-0600 (Central Standard Time),155886.5,CFD-BF-010-005-HC.jpg,1500,dash,O,z,774,3,1,30788.30000001192,125098.19999998808,7753,ATS,A,9
9,prac,1,B,mfborder.png,1,m,Thu Mar 05 2026 12:37:44 GMT-0600 (Central Standard Time),159119.59999999404,CFD-WM-013-015-A.jpg,1700,dash,O,m,750,9,1,34021.40000000596,125098.19999998808,7753,ATS,A,10
10,prac,1,B,mfborder.png,1,m,Thu Mar 05 2026 12:37:44 GMT-0600 (Central Standard Time),161918.29999998212,CFD-WM-019-013-A.jpg,1200,dash,O,m,807,6,1,36820.09999999404,125098.19999998808,7753,ATS,A,11
11,prac,1,B,mfborder.png,1,z,Thu Mar 05 2026 12:37:44 GMT-0600 (Central Standard Time),164867.19999998808,CFD-BF-023-013-A.jpg,1000,dash,O,z,1168,4,1,39769.0,125098.19999998808,7753,ATS,A,12
0,test,1,A,haborder.png,0,z,Thu Mar 05 2026 12:37:44 GMT-0600 (Central Standard Time),184143.39999997616,CFD-WF-003-014-A.jpg,1600,solid,O,m,684,10,1,2314.2999999821186,181829.09999999404,7753,ATS,A,1
1,test,1,A,haborder.png,1,m,Thu Mar 05 2026 12:37:44 GMT-0600 (Central Standard Time),186926.89999997616,CFD-BF-028-020-HC.jpg,2000,solid,O,m,751,5,1,5097.799999982119,181829.09999999404,7753,ATS,A,2
2,test,1,A,haborder.png,1,m,Thu Mar 05 2026 12:37:44 GMT-0600 (Central Standard Time),189792.0,CFD-BM-029-026-HC.jpg,1500,solid,O,m,1342,3,1,7962.9000000059605,181829.09999999404,7753,ATS,A,3
3,test,1,A,haborder.png,1,m,Thu Mar 05 2026 12:37:44 GMT-0600 (Central Standard Time),192443.39999997616,CFD-BM-017-052-HC.jpg,1700,solid,O,m,931,1,1,10614.299999982119,181829.09999999404,7753,ATS,A,4
4,test,1,A,haborder.png,1,z,Thu Mar 05 2026 12:37:44 GMT-0600 (Central Standard Time),194692.5,CFD-WF-003-014-A.jpg,1600,solid,O,z,631,10,1,12863.40000000596,181829.09999999404,7753,ATS,A,5
5,test,1,A,haborder.png,1,z,Thu Mar 05 2026 12:37:44 GMT-0600 (Central Standard Time),196706.69999998808,CFD-BF-023-013-A.jpg,1000,solid,O,z,997,4,1,14877.59999999404,181829.09999999404,7753,ATS,A,6
6,test,1,A,haborder.png,1,m,Thu Mar 05 2026 12:37:44 GMT-0600 (Central Standard Time),199239.69999998808,CFD-WM-006-013-HC.jpg,1700,solid,O,m,815,9,1,17410.59999999404,181829.09999999404,7753,ATS,A,7
7,test,1,A,haborder.png,1,m,Thu Mar 05 2026 12:37:44 GMT-0600 (Central Standard Time),201656.09999999404,CFD-BM-029-026-HC.jpg,1500,solid,O,m,885,3,1,19827.0,181829.09999999404,7753,ATS,A,8
8,test,1,A,haborder.png,1,z,Thu Mar 05 2026 12:37:44 GMT-0600 (Central Standard Time),203506.29999998212,CFD-BF-023-013-A.jpg,1000,solid,O,z,833,4,1,21677.19999998808,181829.09999999404,7753,ATS,A,9
9,test,1,A,haborder.png,1,z,Thu Mar 05 2026 12:37:44 GMT-0600 (Central Standard Time),205572.0,CFD-BF-039-039-A.jpg,1200,solid,O,z,849,6,1,23742.90000000596,181829.09999999404,7753,ATS,A,10
9,test,1,A,haborder.png,0,m,Thu Mar 05 2026 12:37:44 GMT-0600 (Central Standard Time),208435.79999998212,CFD-WF-017-016-HC.jpg,1500,solid,O,z,1345,11,1,26606.69999998808,181829.09999999404,7753,ATS,A,11
10,test,1,A,haborder.png,1,m,Thu Mar 05 2026 12:37:44 GMT-0600 (Central Standard Time),210702.0,CFD-WF-017-016-HC.jpg,1500,solid,O,m,733,11,1,28872.90000000596,181829.09999999404,7753,ATS,A,12
11,test,1,A,haborder.png,1,m,Thu Mar 05 2026 12:37:44 GMT-0600 (Central Standard Time),213185.29999998212,CFD-WM-006-013-HC.jpg,1700,solid,O,m,757,9,1,31356.19999998808,181829.09999999404,7753,ATS,A,13
11,test,1,A,haborder.png,0,z,Thu Mar 05 2026 12:37:44 GMT-0600 (Central Standard Time),216235.19999998808,CFD-BM-005-010-A.jpg,1600,solid,O,m,1416,2,1,34406.09999999404,181829.09999999404,7753,ATS,A,14
12,test,1,A,haborder.png,1,z,Thu Mar 05 2026 12:37:44 GMT-0600 (Central Standard Time),219083.19999998808,CFD-WM-013-015-A.jpg,1900,solid,O,z,923,8,1,37254.09999999404,181829.09999999404,7753,ATS,A,15
13,test,1,A,haborder.png,1,z,Thu Mar 05 2026 12:37:44 GMT-0600 (Central Standard Time),221149.79999998212,CFD-BF-039-039-A.jpg,1200,solid,O,z,835,6,1,39320.69999998808,181829.09999999404,7753,ATS,A,16
14,test,1,A,haborder.png,1,m,Thu Mar 05 2026 12:37:44 GMT-0600 (Central Standard Time),223432.59999999404,CFD-WM-004-005-HC.jpg,1400,solid,O,m,857,7,1,41603.5,181829.09999999404,7753,ATS,A,17
15,test,1,A,haborder.png,1,z,Thu Mar 05 2026 12:37:44 GMT-0600 (Central Standard Time),225315.79999998212,CFD-WF-019-015-A.jpg,1000,solid,O,z,866,12,1,43486.69999998808,181829.09999999404,7753,ATS,A,18
16,test,1,A,haborder.png,1,m,Thu Mar 05 2026 12:37:44 GMT-0600 (Central Standard Time),228314.5,CFD-BF-028-020-HC.jpg,2000,solid,O,m,966,5,1,46485.40000000596,181829.09999999404,7753,ATS,A,19
17,test,1,A,haborder.png,1,m,Thu Mar 05 2026 12:37:44 GMT-0600 (Central Standard Time),230697.79999998212,CFD-WM-004-005-HC.jpg,1400,solid,O,m,966,7,1,48868.69999998808,181829.09999999404,7753,ATS,A,20
18,test,1,A,haborder.png,1,z,Thu Mar 05 2026 12:37:44 GMT-0600 (Central Standard Time),232395.69999998808,CFD-WF-019-015-A.jpg,1000,solid,O,z,670,12,1,50566.59999999404,181829.09999999404,7753,ATS,A,21
19,test,1,A,haborder.png,1,z,Thu Mar 05 2026 12:37:44 GMT-0600 (Central Standard Time),235628.09999999404,CFD-WM-013-015-A.jpg,1900,solid,O,z,1303,8,1,53799.0,181829.09999999404,7753,ATS,A,22
20,test,1,A,haborder.png,1,m,Thu Mar 05 2026 12:37:44 GMT-0600 (Central Standard Time),238194.69999998808,CFD-BM-017-052-HC.jpg,1700,solid,O,m,849,1,1,56365.59999999404,181829.09999999404,7753,ATS,A,23
21,test,1,A,haborder.png,1,z,Thu Mar 05 2026 12:37:44 GMT-0600 (Central Standard Time),241175.79999998212,CFD-BM-005-010-A.jpg,1600,solid,O,z,1358,2,1,59346.69999998808,181829.09999999404,7753,ATS,A,24
1,test,1,B,mfborder.png,1,m,Thu Mar 05 2026 12:37:44 GMT-0600 (Central Standard Time),256571.09999999404,CFD-WM-006-013-HC.jpg,1600,dash,O,m,838,10,1,2465.7000000178814,254105.39999997616,7753,ATS,A,1
2,test,1,B,mfborder.png,1,m,Thu Mar 05 2026 12:37:44 GMT-0600 (Central Standard Time),258502.19999998808,CFD-WM-019-013-A.jpg,1200,dash,O,m,707,6,1,4396.800000011921,254105.39999997616,7753,ATS,A,2
3,test,1,B,mfborder.png,1,m,Thu Mar 05 2026 12:37:44 GMT-0600 (Central Standard Time),261186.5,CFD-BM-029-026-HC.jpg,1700,dash,O,m,963,1,1,7081.100000023842,254105.39999997616,7753,ATS,A,3
4,test,1,B,mfborder.png,1,z,Thu Mar 05 2026 12:37:44 GMT-0600 (Central Standard Time),262802.0,CFD-WF-017-016-HC.jpg,1000,dash,O,z,589,12,1,8696.600000023842,254105.39999997616,7753,ATS,A,4
5,test,1,B,mfborder.png,1,m,Thu Mar 05 2026 12:37:44 GMT-0600 (Central Standard Time),265169.0,CFD-BM-010-019-A.jpg,1600,dash,O,m,741,2,1,11063.600000023842,254105.39999997616,7753,ATS,A,5
6,test,1,B,mfborder.png,1,m,Thu Mar 05 2026 12:37:44 GMT-0600 (Central Standard Time),267867.1999999881,CFD-BM-005-010-A.jpg,2000,dash,O,m,678,5,1,13761.800000011921,254105.39999997616,7753,ATS,A,6
7,test,1,B,mfborder.png,1,m,Thu Mar 05 2026 12:37:44 GMT-0600 (Central Standard Time),270166.89999997616,CFD-WM-006-013-HC.jpg,1600,dash,O,m,676,10,1,16061.5,254105.39999997616,7753,ATS,A,7
8,test,1,B,mfborder.png,1,m,Thu Mar 05 2026 12:37:44 GMT-0600 (Central Standard Time),272516.0,CFD-WM-013-015-A.jpg,1700,dash,O,m,631,9,1,18410.600000023842,254105.39999997616,7753,ATS,A,8
9,test,1,B,mfborder.png,1,m,Thu Mar 05 2026 12:37:44 GMT-0600 (Central Standard Time),275198.59999999404,CFD-BM-005-010-A.jpg,2000,dash,O,m,652,5,1,21093.20000001788,254105.39999997616,7753,ATS,A,9
10,test,1,B,mfborder.png,1,z,Thu Mar 05 2026 12:37:44 GMT-0600 (Central Standard Time),277763.2999999821,CFD-WF-002-008-HC.jpg,1900,dash,O,z,636,8,1,23657.90000000596,254105.39999997616,7753,ATS,A,10
11,test,1,B,mfborder.png,1,m,Thu Mar 05 2026 12:37:44 GMT-0600 (Central Standard Time),279597.1999999881,CFD-WM-019-013-A.jpg,1200,dash,O,m,611,6,1,25491.80000001192,254105.39999997616,7753,ATS,A,11
12,test,1,B,mfborder.png,1,z,Thu Mar 05 2026 12:37:44 GMT-0600 (Central Standard Time),281912.7999999821,CFD-WF-003-014-A.jpg,1500,dash,O,z,788,11,1,27807.40000000596,254105.39999997616,7753,ATS,A,12
13,test,1,B,mfborder.png,1,z,Thu Mar 05 2026 12:37:44 GMT-0600 (Central Standard Time),284061.6999999881,CFD-BF-010-005-HC.jpg,1500,dash,O,z,618,3,1,29956.30000001192,254105.39999997616,7753,ATS,A,13
14,test,1,B,mfborder.png,1,z,Thu Mar 05 2026 12:37:44 GMT-0600 (Central Standard Time),286278.1999999881,CFD-BF-010-005-HC.jpg,1500,dash,O,z,683,3,1,32172.80000001192,254105.39999997616,7753,ATS,A,14
15,test,1,B,mfborder.png,1,z,Thu Mar 05 2026 12:37:44 GMT-0600 (Central Standard Time),288894.6999999881,CFD-WF-002-008-HC.jpg,1900,dash,O,z,694,8,1,34789.30000001192,254105.39999997616,7753,ATS,A,15
16,test,1,B,mfborder.png,1,z,Thu Mar 05 2026 12:37:44 GMT-0600 (Central Standard Time),290543.7999999821,CFD-BF-023-013-A.jpg,1000,dash,O,z,624,4,1,36438.40000000596,254105.39999997616,7753,ATS,A,16
17,test,1,B,mfborder.png,1,z,Thu Mar 05 2026 12:37:44 GMT-0600 (Central Standard Time),292659.6999999881,CFD-WF-003-014-A.jpg,1500,dash,O,z,587,11,1,38554.30000001192,254105.39999997616,7753,ATS,A,17
18,test,1,B,mfborder.png,1,z,Thu Mar 05 2026 12:37:44 GMT-0600 (Central Standard Time),294674.89999997616,CFD-BF-028-020-HC.jpg,1400,dash,O,z,584,7,1,40569.5,254105.39999997616,7753,ATS,A,18
19,test,1,B,mfborder.png,1,z,Thu Mar 05 2026 12:37:44 GMT-0600 (Central Standard Time),296508.7999999821,CFD-BF-023-013-A.jpg,1000,dash,O,z,803,4,1,42403.40000000596,254105.39999997616,7753,ATS,A,19
20,test,1,B,mfborder.png,1,m,Thu Mar 05 2026 12:37:44 GMT-0600 (Central Standard Time),298876.5,CFD-BM-029-026-HC.jpg,1700,dash,O,m,650,1,1,44771.10000002384,254105.39999997616,7753,ATS,A,20
21,test,1,B,mfborder.png,1,z,Thu Mar 05 2026 12:37:44 GMT-0600 (Central Standard Time),301539.89999997616,CFD-BF-028-020-HC.jpg,1400,dash,O,z,1236,7,1,47434.5,254105.39999997616,7753,ATS,A,21
22,test,1,B,mfborder.png,1,m,Thu Mar 05 2026 12:37:44 GMT-0600 (Central Standard Time),303890.59999999404,CFD-WM-013-015-A.jpg,1700,dash,O,m,633,9,1,49785.20000001788,254105.39999997616,7753,ATS,A,22
23,test,1,B,mfborder.png,1,z,Thu Mar 05 2026 12:37:44 GMT-0600 (Central Standard Time),305594.6999999881,CFD-WF-017-016-HC.jpg,1000,dash,O,z,675,12,1,51489.30000001192,254105.39999997616,7753,ATS,A,23
24,test,1,B,mfborder.png,1,m,Thu Mar 05 2026 12:37:44 GMT-0600 (Central Standard Time),307938.2999999821,CFD-BM-010-019-A.jpg,1600,dash,O,m,723,2,1,53832.90000000596,254105.39999997616,7753,ATS,A,24
0,prac,1,C,mfborder.png,0,m,Thu Mar 05 2026 12:37:44 GMT-0600 (Central Standard Time),347660.89999997616,CFD-BM-017-052-HC.jpg,2000,solid,O,None,1501,4,1,4282.299999982119,343378.59999999404,7753,ATS,A,1
1,prac,1,C,mfborder.png,1,m,Thu Mar 05 2026 12:37:44 GMT-0600 (Central Standard Time),350758.2999999821,CFD-WM-013-015-A.jpg,1700,solid,O,m,608,6,1,7379.699999988079,343378.59999999404,7753,ATS,A,2
1,prac,1,C,haborder.png,0,z,Thu Mar 05 2026 12:37:44 GMT-0600 (Central Standard Time),354641.7999999821,CFD-WF-003-014-A.jpg,1600,dash,O,None,1515,9,1,11263.199999988079,343378.59999999404,7753,ATS,A,3
1,prac,1,C,haborder.png,0,m,Thu Mar 05 2026 12:37:44 GMT-0600 (Central Standard Time),358338.7999999821,CFD-WM-004-005-HC.jpg,1400,solid,O,None,1516,12,1,14960.199999988079,343378.59999999404,7753,ATS,A,4
2,prac,1,C,haborder.png,1,m,Thu Mar 05 2026 12:37:44 GMT-0600 (Central Standard Time),361256.59999999404,CFD-WM-004-005-HC.jpg,1000,dash,O,m,1125,11,1,17878.0,343378.59999999404,7753,ATS,A,5
3,prac,1,C,haborder.png,1,z,Thu Mar 05 2026 12:37:44 GMT-0600 (Central Standard Time),364855.59999999404,CFD-BF-039-039-A.jpg,1700,solid,O,z,1117,8,1,21477.0,343378.59999999404,7753,ATS,A,6
4,prac,1,C,mfborder.png,1,z,Thu Mar 05 2026 12:37:44 GMT-0600 (Central Standard Time),368253.0,CFD-WF-019-015-A.jpg,1500,solid,O,z,1118,2,1,24874.40000000596,343378.59999999404,7753,ATS,A,7
4,prac,1,C,mfborder.png,0,m,Thu Mar 05 2026 12:37:44 GMT-0600 (Central Standard Time),371436.09999999404,CFD-BM-005-010-A.jpg,1200,dash,O,z,1203,5,1,28057.5,343378.59999999404,7753,ATS,A,8
5,prac,1,C,haborder.png,1,m,Thu Mar 05 2026 12:37:44 GMT-0600 (Central Standard Time),374900.59999999404,CFD-BM-029-026-HC.jpg,1500,solid,O,m,1176,10,1,31522.0,343378.59999999404,7753,ATS,A,9
5,prac,1,C,haborder.png,0,z,Thu Mar 05 2026 12:37:44 GMT-0600 (Central Standard Time),379098.59999999404,CFD-BF-023-013-A.jpg,1900,dash,O,None,1515,7,1,35720.0,343378.59999999404,7753,ATS,A,10
6,prac,1,C,mfborder.png,1,z,Thu Mar 05 2026 12:37:44 GMT-0600 (Central Standard Time),382131.0,CFD-BF-028-020-HC.jpg,1000,dash,O,z,1237,3,1,38752.40000000596,343378.59999999404,7753,ATS,A,11
7,prac,1,C,mfborder.png,1,z,Thu Mar 05 2026 12:37:44 GMT-0600 (Central Standard Time),385564.0,CFD-WF-017-016-HC.jpg,1600,dash,O,z,1044,1,1,42185.40000000596,343378.59999999404,7753,ATS,A,12
0,prac,2,C,haborder.png,0,z,Thu Mar 05 2026 12:37:44 GMT-0600 (Central Standard Time),396044.7999999821,CFD-BF-023-013-A.jpg,1900,dash,O,None,1516,7,1,52666.19999998808,343378.59999999404,7753,ATS,A,1
1,prac,2,C,haborder.png,1,m,Thu Mar 05 2026 12:37:44 GMT-0600 (Central Standard Time),399443.59999999404,CFD-BM-029-026-HC.jpg,1500,solid,O,m,1111,10,1,56065.0,343378.59999999404,7753,ATS,A,2
2,prac,2,C,mfborder.png,1,m,Thu Mar 05 2026 12:37:44 GMT-0600 (Central Standard Time),403374.39999997616,CFD-BM-017-052-HC.jpg,2000,solid,O,m,1141,4,1,59995.79999998212,343378.59999999404,7753,ATS,A,3
3,prac,2,C,mfborder.png,1,z,Thu Mar 05 2026 12:37:44 GMT-0600 (Central Standard Time),406608.09999999404,CFD-WF-019-015-A.jpg,1500,solid,O,z,934,2,1,63229.5,343378.59999999404,7753,ATS,A,4
4,prac,2,C,haborder.png,1,m,Thu Mar 05 2026 12:37:44 GMT-0600 (Central Standard Time),409489.1999999881,CFD-WM-004-005-HC.jpg,1000,dash,O,m,1097,11,1,66110.59999999404,343378.59999999404,7753,ATS,A,5
4,prac,2,C,mfborder.png,0,m,Thu Mar 05 2026 12:37:44 GMT-0600 (Central Standard Time),413489.1999999881,CFD-WM-013-015-A.jpg,1700,solid,O,None,1515,6,1,70110.59999999404,343378.59999999404,7753,ATS,A,6
5,prac,2,C,mfborder.png,1,m,Thu Mar 05 2026 12:37:44 GMT-0600 (Central Standard Time),416372.6999999881,CFD-BM-005-010-A.jpg,1200,dash,O,m,903,5,1,72994.09999999404,343378.59999999404,7753,ATS,A,7
6,prac,2,C,haborder.png,1,z,Thu Mar 05 2026 12:37:44 GMT-0600 (Central Standard Time),419703.89999997616,CFD-WF-003-014-A.jpg,1600,dash,O,z,932,9,1,76325.29999998212,343378.59999999404,7753,ATS,A,8
7,prac,2,C,haborder.png,1,m,Thu Mar 05 2026 12:37:44 GMT-0600 (Central Standard Time),423119.09999999404,CFD-WM-004-005-HC.jpg,1400,solid,O,m,1226,12,1,79740.5,343378.59999999404,7753,ATS,A,9
8,prac,2,C,mfborder.png,1,z,Thu Mar 05 2026 12:37:44 GMT-0600 (Central Standard Time),425851.1999999881,CFD-BF-028-020-HC.jpg,1000,dash,O,z,949,3,1,82472.59999999404,343378.59999999404,7753,ATS,A,10
9,prac,2,C,mfborder.png,1,z,Thu Mar 05 2026 12:37:44 GMT-0600 (Central Standard Time),428967.09999999404,CFD-WF-017-016-HC.jpg,1600,dash,O,z,718,1,1,85588.5,343378.59999999404,7753,ATS,A,11
10,prac,2,C,haborder.png,1,z,Thu Mar 05 2026 12:37:44 GMT-0600 (Central Standard Time),432566.09999999404,CFD-BF-039-039-A.jpg,1700,solid,O,z,1109,8,1,89187.5,343378.59999999404,7753,ATS,A,12
0,test,1,C,haborder.png,0,z,Thu Mar 05 2026 12:37:44 GMT-0600 (Central Standard Time),446444.59999999404,CFD-BM-005-010-A.jpg,1900,solid,O,m,1171,8,1,3099.0999999940395,443345.5,7753,ATS,A,1
0,test,1,C,haborder.png,0,z,Thu Mar 05 2026 12:37:44 GMT-0600 (Central Standard Time),449378.1999999881,CFD-WM-013-015-A.jpg,1400,solid,O,None,1516,7,1,6032.699999988079,443345.5,7753,ATS,A,2
0,test,1,C,haborder.png,0,m,Thu Mar 05 2026 12:37:44 GMT-0600 (Central Standard Time),452008.5,CFD-BF-028-020-HC.jpg,1600,solid,O,z,1009,10,1,8663.0,443345.5,7753,ATS,A,3
0,test,1,C,haborder.png,0,z,Thu Mar 05 2026 12:37:44 GMT-0600 (Central Standard Time),455442.09999999404,CFD-BM-005-010-A.jpg,1900,solid,O,None,1514,8,1,12096.59999999404,443345.5,7753,ATS,A,4
1,test,1,C,mfborder.png,1,m,Thu Mar 05 2026 12:37:44 GMT-0600 (Central Standard Time),457540.59999999404,CFD-WM-006-013-HC.jpg,1000,dash,O,m,1080,4,1,14195.09999999404,443345.5,7753,ATS,A,5
1,test,1,C,haborder.png,0,z,Thu Mar 05 2026 12:37:44 GMT-0600 (Central Standard Time),460589.5,CFD-BM-010-019-A.jpg,1700,solid,O,m,1318,9,1,17244.0,443345.5,7753,ATS,A,6
2,test,1,C,mfborder.png,1,z,Thu Mar 05 2026 12:37:44 GMT-0600 (Central Standard Time),463605.6999999881,CFD-BF-010-005-HC.jpg,1700,dash,O,z,1293,1,1,20260.19999998808,443345.5,7753,ATS,A,7
2,test,1,C,haborder.png,0,m,Thu Mar 05 2026 12:37:44 GMT-0600 (Central Standard Time),466138.09999999404,CFD-WF-017-016-HC.jpg,1000,solid,O,None,1515,12,1,22792.59999999404,443345.5,7753,ATS,A,8
3,test,1,C,mfborder.png,1,z,Thu Mar 05 2026 12:37:44 GMT-0600 (Central Standard Time),468803.09999999404,CFD-WF-003-014-A.jpg,1500,dash,O,z,1146,3,1,25457.59999999404,443345.5,7753,ATS,A,9
4,test,1,C,mfborder.png,1,z,Thu Mar 05 2026 12:37:44 GMT-0600 (Central Standard Time),471554.0,CFD-BF-023-013-A.jpg,1600,dash,O,z,1132,2,1,28208.5,443345.5,7753,ATS,A,10
5,test,1,C,mfborder.png,1,m,Thu Mar 05 2026 12:37:44 GMT-0600 (Central Standard Time),473569.0,CFD-BM-029-026-HC.jpg,1200,dash,O,m,798,6,1,30223.5,443345.5,7753,ATS,A,11
5,test,1,C,haborder.png,0,m,Thu Mar 05 2026 12:37:44 GMT-0600 (Central Standard Time),475500.39999997616,CFD-WF-017-016-HC.jpg,1000,solid,O,z,901,12,1,32154.899999976158,443345.5,7753,ATS,A,12
6,test,1,C,mfborder.png,1,m,Thu Mar 05 2026 12:37:44 GMT-0600 (Central Standard Time),477603.39999997616,CFD-WM-006-013-HC.jpg,1000,dash,O,m,1075,4,1,34257.89999997616,443345.5,7753,ATS,A,13
7,test,1,C,haborder.png,1,z,Thu Mar 05 2026 12:37:44 GMT-0600 (Central Standard Time),480100.7999999821,CFD-WM-013-015-A.jpg,1400,solid,O,z,1081,7,1,36755.29999998212,443345.5,7753,ATS,A,14
8,test,1,C,mfborder.png,1,z,Thu Mar 05 2026 12:37:44 GMT-0600 (Central Standard Time),482716.2999999821,CFD-BF-023-013-A.jpg,1600,dash,O,z,988,2,1,39370.79999998212,443345.5,7753,ATS,A,15
9,test,1,C,mfborder.png,1,m,Thu Mar 05 2026 12:37:44 GMT-0600 (Central Standard Time),484981.5,CFD-BM-029-026-HC.jpg,1200,dash,O,m,1034,6,1,41636.0,443345.5,7753,ATS,A,16
10,test,1,C,mfborder.png,1,z,Thu Mar 05 2026 12:37:44 GMT-0600 (Central Standard Time),487448.7999999821,CFD-WF-003-014-A.jpg,1500,dash,O,z,933,3,1,44103.29999998212,443345.5,7753,ATS,A,17
10,test,1,C,haborder.png,0,z,Thu Mar 05 2026 12:37:44 GMT-0600 (Central Standard Time),490081.7999999821,CFD-BM-010-019-A.jpg,1700,solid,O,m,914,9,1,46736.29999998212,443345.5,7753,ATS,A,18
11,test,1,C,haborder.png,1,m,Thu Mar 05 2026 12:37:44 GMT-0600 (Central Standard Time),492612.89999997616,CFD-BF-028-020-HC.jpg,1600,solid,O,m,902,10,1,49267.39999997616,443345.5,7753,ATS,A,19
12,test,1,C,haborder.png,1,m,Thu Mar 05 2026 12:37:44 GMT-0600 (Central Standard Time),495194.7999999821,CFD-WF-002-008-HC.jpg,1500,solid,O,m,1057,11,1,51849.29999998212,443345.5,7753,ATS,A,20
13,test,1,C,haborder.png,1,m,Thu Mar 05 2026 12:37:44 GMT-0600 (Central Standard Time),497594.0,CFD-WF-002-008-HC.jpg,1500,solid,O,m,871,11,1,54248.5,443345.5,7753,ATS,A,21
14,test,1,C,mfborder.png,1,z,Thu Mar 05 2026 12:37:44 GMT-0600 (Central Standard Time),500310.89999997616,CFD-BF-010-005-HC.jpg,1700,dash,O,z,985,1,1,56965.39999997616,443345.5,7753,ATS,A,22
15,test,1,C,mfborder.png,1,m,Thu Mar 05 2026 12:37:44 GMT-0600 (Central Standard Time),503443.39999997616,CFD-WM-019-013-A.jpg,2000,dash,O,m,1105,5,1,60097.89999997616,443345.5,7753,ATS,A,23
16,test,1,C,mfborder.png,1,m,Thu Mar 05 2026 12:37:44 GMT-0600 (Central Standard Time),506125.2999999821,CFD-WM-019-013-A.jpg,2000,dash,O,m,653,5,1,62779.79999998212,443345.5,7753,ATS,A,24
1,test,2,C,mfborder.png,1,z,Thu Mar 05 2026 12:37:44 GMT-0600 (Central Standard Time),519105.0,CFD-BF-028-020-HC.jpg,1500,dash,O,z,1090,3,1,2616.2000000178814,516488.7999999821,7753,ATS,A,1
1,test,2,C,haborder.png,0,z,Thu Mar 05 2026 12:37:44 GMT-0600 (Central Standard Time),522537.09999999404,CFD-BF-039-039-A.jpg,1900,solid,O,None,1517,8,1,6048.300000011921,516488.7999999821,7753,ATS,A,2
2,test,2,C,mfborder.png,1,m,Thu Mar 05 2026 12:37:44 GMT-0600 (Central Standard Time),524968.599999994,CFD-BM-017-052-HC.jpg,1000,dash,O,m,1399,4,1,8479.800000011921,516488.7999999821,7753,ATS,A,3
2,test,2,C,haborder.png,0,z,Thu Mar 05 2026 12:37:44 GMT-0600 (Central Standard Time),528185.599999994,CFD-WF-003-014-A.jpg,1700,solid,O,None,1501,9,1,11696.800000011921,516488.7999999821,7753,ATS,A,4
2,test,2,C,mfborder.png,0,m,Thu Mar 05 2026 12:37:44 GMT-0600 (Central Standard Time),530684.1999999881,CFD-WM-013-015-A.jpg,1200,dash,O,z,1271,6,1,14195.40000000596,516488.7999999821,7753,ATS,A,5
3,test,2,C,haborder.png,1,z,Thu Mar 05 2026 12:37:44 GMT-0600 (Central Standard Time),533299.5,CFD-BF-023-013-A.jpg,1400,solid,O,z,1197,7,1,16810.70000001788,516488.7999999821,7753,ATS,A,6
3,test,2,C,haborder.png,0,z,Thu Mar 05 2026 12:37:44 GMT-0600 (Central Standard Time),536532.3999999762,CFD-WF-003-014-A.jpg,1700,solid,O,None,1514,9,1,20043.59999999404,516488.7999999821,7753,ATS,A,7
4,test,2,C,mfborder.png,1,z,Thu Mar 05 2026 12:37:44 GMT-0600 (Central Standard Time),539449.8999999762,CFD-WF-019-015-A.jpg,1600,dash,O,z,1284,2,1,22961.09999999404,516488.7999999821,7753,ATS,A,8
5,test,2,C,mfborder.png,1,m,Thu Mar 05 2026 12:37:44 GMT-0600 (Central Standard Time),541796.3999999762,CFD-BM-017-052-HC.jpg,1000,dash,O,m,1327,4,1,25307.59999999404,516488.7999999821,7753,ATS,A,9
6,test,2,C,mfborder.png,1,z,Thu Mar 05 2026 12:37:44 GMT-0600 (Central Standard Time),544263.6999999881,CFD-WF-019-015-A.jpg,1600,dash,O,z,849,2,1,27774.90000000596,516488.7999999821,7753,ATS,A,10
7,test,2,C,mfborder.png,1,m,Thu Mar 05 2026 12:37:44 GMT-0600 (Central Standard Time),546497.099999994,CFD-WM-013-015-A.jpg,1200,dash,O,m,1001,6,1,30008.30000001192,516488.7999999821,7753,ATS,A,11
8,test,2,C,haborder.png,1,z,Thu Mar 05 2026 12:37:44 GMT-0600 (Central Standard Time),549278.1999999881,CFD-BF-023-013-A.jpg,1400,solid,O,z,1352,7,1,32789.40000000596,516488.7999999821,7753,ATS,A,12
9,test,2,C,haborder.png,1,m,Thu Mar 05 2026 12:37:44 GMT-0600 (Central Standard Time),552360.0,CFD-BM-029-026-HC.jpg,1600,solid,O,m,1449,10,1,35871.20000001788,516488.7999999821,7753,ATS,A,13
10,test,2,C,haborder.png,1,m,Thu Mar 05 2026 12:37:44 GMT-0600 (Central Standard Time),554827.2999999821,CFD-WM-004-005-HC.jpg,1500,solid,O,m,939,11,1,38338.5,516488.7999999821,7753,ATS,A,14
11,test,2,C,haborder.png,1,m,Thu Mar 05 2026 12:37:44 GMT-0600 (Central Standard Time),557142.2999999821,CFD-WM-004-005-HC.jpg,1000,solid,O,m,1293,12,1,40653.5,516488.7999999821,7753,ATS,A,15
11,test,2,C,mfborder.png,0,z,Thu Mar 05 2026 12:37:44 GMT-0600 (Central Standard Time),560375.5,CFD-WF-017-016-HC.jpg,1700,dash,O,None,1515,1,1,43886.70000001788,516488.7999999821,7753,ATS,A,16
11,test,2,C,haborder.png,0,z,Thu Mar 05 2026 12:37:44 GMT-0600 (Central Standard Time),563507.0,CFD-BF-039-039-A.jpg,1900,solid,O,m,1200,8,1,47018.20000001788,516488.7999999821,7753,ATS,A,17
11,test,2,C,mfborder.png,0,m,Thu Mar 05 2026 12:37:44 GMT-0600 (Central Standard Time),566656.0,CFD-BM-005-010-A.jpg,2000,dash,O,z,1117,5,1,50167.20000001788,516488.7999999821,7753,ATS,A,18
12,test,2,C,mfborder.png,1,z,Thu Mar 05 2026 12:37:44 GMT-0600 (Central Standard Time),569089.099999994,CFD-BF-028-020-HC.jpg,1500,dash,O,z,907,3,1,52600.30000001192,516488.7999999821,7753,ATS,A,19
13,test,2,C,mfborder.png,1,m,Thu Mar 05 2026 12:37:44 GMT-0600 (Central Standard Time),572454.3999999762,CFD-BM-005-010-A.jpg,2000,dash,O,m,1335,5,1,55965.59999999404,516488.7999999821,7753,ATS,A,20
14,test,2,C,haborder.png,1,m,Thu Mar 05 2026 12:37:44 GMT-0600 (Central Standard Time),575155.5,CFD-WM-004-005-HC.jpg,1500,solid,O,m,1175,11,1,58666.70000001788,516488.7999999821,7753,ATS,A,21
15,test,2,C,mfborder.png,1,z,Thu Mar 05 2026 12:37:44 GMT-0600 (Central Standard Time),577567.8999999762,CFD-WF-017-016-HC.jpg,1700,dash,O,z,699,1,1,61079.09999999404,516488.7999999821,7753,ATS,A,22
16,test,2,C,haborder.png,1,m,Thu Mar 05 2026 12:37:44 GMT-0600 (Central Standard Time),580451.8999999762,CFD-BM-029-026-HC.jpg,1600,solid,O,m,1266,10,1,63963.09999999404,516488.7999999821,7753,ATS,A,23
17,test,2,C,haborder.png,1,m,Thu Mar 05 2026 12:37:44 GMT-0600 (Central Standard Time),582366.8999999762,CFD-WM-004-005-HC.jpg,1000,solid,O,m,884,12,1,65878.09999999404,516488.7999999821,7753,ATS,A,24
1,test,3,C,mfborder.png,1,m,Thu Mar 05 2026 12:37:44 GMT-0600 (Central Standard Time),588865.8999999762,CFD-WM-006-013-HC.jpg,1000,dash,O,m,974,4,1,1999.699999988079,586866.1999999881,7753,ATS,A,1
1,test,3,C,haborder.png,0,m,Thu Mar 05 2026 12:37:44 GMT-0600 (Central Standard Time),591331.5,CFD-WF-002-008-HC.jpg,1500,solid,O,z,938,11,1,4465.300000011921,586866.1999999881,7753,ATS,A,2
2,test,3,C,mfborder.png,1,z,Thu Mar 05 2026 12:37:44 GMT-0600 (Central Standard Time),594047.6999999881,CFD-BF-010-005-HC.jpg,1700,dash,O,z,991,1,1,7181.5,586866.1999999881,7753,ATS,A,3
3,test,3,C,mfborder.png,1,m,Thu Mar 05 2026 12:37:44 GMT-0600 (Central Standard Time),597080.0,CFD-WM-019-013-A.jpg,2000,dash,O,m,1008,5,1,10213.800000011921,586866.1999999881,7753,ATS,A,4
4,test,3,C,haborder.png,1,m,Thu Mar 05 2026 12:37:44 GMT-0600 (Central Standard Time),599828.0,CFD-WF-002-008-HC.jpg,1500,solid,O,m,1220,11,1,12961.800000011921,586866.1999999881,7753,ATS,A,5
5,test,3,C,mfborder.png,1,m,Thu Mar 05 2026 12:37:44 GMT-0600 (Central Standard Time),602244.099999994,CFD-BM-029-026-HC.jpg,1200,dash,O,m,1188,6,1,15377.90000000596,586866.1999999881,7753,ATS,A,6
5,test,3,C,haborder.png,0,z,Thu Mar 05 2026 12:37:44 GMT-0600 (Central Standard Time),605177.7999999821,CFD-WM-013-015-A.jpg,1400,solid,O,None,1517,7,1,18311.59999999404,586866.1999999881,7753,ATS,A,7
5,test,3,C,haborder.png,0,m,Thu Mar 05 2026 12:37:44 GMT-0600 (Central Standard Time),608308.8999999762,CFD-BF-028-020-HC.jpg,1600,solid,O,None,1514,10,1,21442.69999998808,586866.1999999881,7753,ATS,A,8
6,test,3,C,haborder.png,1,m,Thu Mar 05 2026 12:37:44 GMT-0600 (Central Standard Time),610607.6999999881,CFD-WF-017-016-HC.jpg,1000,solid,O,m,1276,12,1,23741.5,586866.1999999881,7753,ATS,A,9
7,test,3,C,haborder.png,1,z,Thu Mar 05 2026 12:37:44 GMT-0600 (Central Standard Time),613491.0,CFD-BM-005-010-A.jpg,1900,solid,O,z,955,8,1,26624.80000001192,586866.1999999881,7753,ATS,A,10
8,test,3,C,mfborder.png,1,m,Thu Mar 05 2026 12:37:44 GMT-0600 (Central Standard Time),615906.7999999821,CFD-WM-006-013-HC.jpg,1000,dash,O,m,1388,4,1,29040.59999999404,586866.1999999881,7753,ATS,A,11
9,test,3,C,mfborder.png,1,z,Thu Mar 05 2026 12:37:44 GMT-0600 (Central Standard Time),618172.1999999881,CFD-BF-023-013-A.jpg,1600,dash,O,z,636,2,1,31306.0,586866.1999999881,7753,ATS,A,12
10,test,3,C,haborder.png,1,m,Thu Mar 05 2026 12:37:44 GMT-0600 (Central Standard Time),620338.7999999821,CFD-WF-017-016-HC.jpg,1000,solid,O,m,1148,12,1,33472.59999999404,586866.1999999881,7753,ATS,A,13
10,test,3,C,haborder.png,0,z,Thu Mar 05 2026 12:37:44 GMT-0600 (Central Standard Time),623287.599999994,CFD-BM-010-019-A.jpg,1700,solid,O,m,1224,9,1,36421.40000000596,586866.1999999881,7753,ATS,A,14
11,test,3,C,mfborder.png,1,z,Thu Mar 05 2026 12:37:44 GMT-0600 (Central Standard Time),625670.7999999821,CFD-WF-003-014-A.jpg,1500,dash,O,z,861,3,1,38804.59999999404,586866.1999999881,7753,ATS,A,15
12,test,3,C,mfborder.png,1,z,Thu Mar 05 2026 12:37:44 GMT-0600 (Central Standard Time),628369.8999999762,CFD-BF-010-005-HC.jpg,1700,dash,O,z,982,1,1,41503.69999998808,586866.1999999881,7753,ATS,A,16
13,test,3,C,mfborder.png,1,z,Thu Mar 05 2026 12:37:44 GMT-0600 (Central Standard Time),631035.7999999821,CFD-BF-023-013-A.jpg,1600,dash,O,z,1031,2,1,44169.59999999404,586866.1999999881,7753,ATS,A,17
14,test,3,C,mfborder.png,1,z,Thu Mar 05 2026 12:37:44 GMT-0600 (Central Standard Time),633784.1999999881,CFD-WF-003-014-A.jpg,1500,dash,O,z,1215,3,1,46918.0,586866.1999999881,7753,ATS,A,18
14,test,3,C,haborder.png,0,z,Thu Mar 05 2026 12:37:44 GMT-0600 (Central Standard Time),637099.8999999762,CFD-BM-005-010-A.jpg,1900,solid,O,m,1407,8,1,50233.69999998808,586866.1999999881,7753,ATS,A,19
15,test,3,C,mfborder.png,1,m,Thu Mar 05 2026 12:37:44 GMT-0600 (Central Standard Time),639199.6999999881,CFD-BM-029-026-HC.jpg,1200,dash,O,m,867,6,1,52333.5,586866.1999999881,7753,ATS,A,20
16,test,3,C,haborder.png,1,z,Thu Mar 05 2026 12:37:44 GMT-0600 (Central Standard Time),642166.0,CFD-BM-010-019-A.jpg,1700,solid,O,z,1236,9,1,55299.80000001192,586866.1999999881,7753,ATS,A,21
16,test,3,C,haborder.png,0,z,Thu Mar 05 2026 12:37:44 GMT-0600 (Central Standard Time),645098.8999999762,CFD-WM-013-015-A.jpg,1400,solid,O,None,1516,7,1,58232.69999998808,586866.1999999881,7753,ATS,A,22
16,test,3,C,mfborder.png,0,m,Thu Mar 05 2026 12:37:44 GMT-0600 (Central Standard Time),648146.1999999881,CFD-WM-019-013-A.jpg,2000,dash,O,z,1022,5,1,61280.0,586866.1999999881,7753,ATS,A,23
17,test,3,C,haborder.png,1,m,Thu Mar 05 2026 12:37:44 GMT-0600 (Central Standard Time),651062.8999999762,CFD-BF-028-020-HC.jpg,1600,solid,O,m,1285,10,1,64196.69999998808,586866.1999999881,7753,ATS,A,24
0,test,4,C,haborder.png,0,z,Thu Mar 05 2026 12:37:44 GMT-0600 (Central Standard Time),658759.5,CFD-BF-039-039-A.jpg,1900,solid,O,None,1515,8,1,3431.0,655328.5,7753,ATS,A,1
1,test,4,C,haborder.png,1,m,Thu Mar 05 2026 12:37:44 GMT-0600 (Central Standard Time),661376.8999999762,CFD-BM-029-026-HC.jpg,1600,solid,O,m,1000,10,1,6048.399999976158,655328.5,7753,ATS,A,2
2,test,4,C,haborder.png,1,m,Thu Mar 05 2026 12:37:44 GMT-0600 (Central Standard Time),663491.3999999762,CFD-WM-004-005-HC.jpg,1000,solid,O,m,1096,12,1,8162.899999976158,655328.5,7753,ATS,A,3
3,test,4,C,mfborder.png,1,z,Thu Mar 05 2026 12:37:44 GMT-0600 (Central Standard Time),665991.2999999821,CFD-BF-028-020-HC.jpg,1500,dash,O,z,976,3,1,10662.799999982119,655328.5,7753,ATS,A,4
4,test,4,C,mfborder.png,1,z,Thu Mar 05 2026 12:37:44 GMT-0600 (Central Standard Time),668607.2999999821,CFD-WF-017-016-HC.jpg,1700,dash,O,z,884,1,1,13278.799999982119,655328.5,7753,ATS,A,5
5,test,4,C,haborder.png,1,m,Thu Mar 05 2026 12:37:44 GMT-0600 (Central Standard Time),671505.6999999881,CFD-BM-029-026-HC.jpg,1600,solid,O,m,1272,10,1,16177.199999988079,655328.5,7753,ATS,A,6
6,test,4,C,haborder.png,1,m,Thu Mar 05 2026 12:37:44 GMT-0600 (Central Standard Time),673538.1999999881,CFD-WM-004-005-HC.jpg,1000,solid,O,m,1015,12,1,18209.69999998808,655328.5,7753,ATS,A,7
7,test,4,C,mfborder.png,1,m,Thu Mar 05 2026 12:37:44 GMT-0600 (Central Standard Time),675888.3999999762,CFD-BM-017-052-HC.jpg,1000,dash,O,m,1325,4,1,20559.899999976158,655328.5,7753,ATS,A,8
8,test,4,C,mfborder.png,1,z,Thu Mar 05 2026 12:37:44 GMT-0600 (Central Standard Time),678870.5,CFD-WF-017-016-HC.jpg,1700,dash,O,z,1252,1,1,23542.0,655328.5,7753,ATS,A,9
9,test,4,C,haborder.png,1,m,Thu Mar 05 2026 12:37:44 GMT-0600 (Central Standard Time),681485.599999994,CFD-WM-004-005-HC.jpg,1500,solid,O,m,1085,11,1,26157.09999999404,655328.5,7753,ATS,A,10
10,test,4,C,mfborder.png,1,m,Thu Mar 05 2026 12:37:44 GMT-0600 (Central Standard Time),684768.599999994,CFD-BM-005-010-A.jpg,2000,dash,O,m,1250,5,1,29440.09999999404,655328.5,7753,ATS,A,11
11,test,4,C,haborder.png,1,m,Thu Mar 05 2026 12:37:44 GMT-0600 (Central Standard Time),687550.3999999762,CFD-WM-004-005-HC.jpg,1500,solid,O,m,1250,11,1,32221.899999976158,655328.5,7753,ATS,A,12
12,test,4,C,mfborder.png,1,z,Thu Mar 05 2026 12:37:44 GMT-0600 (Central Standard Time),690182.2999999821,CFD-BF-028-020-HC.jpg,1500,dash,O,z,1111,3,1,34853.79999998212,655328.5,7753,ATS,A,13
13,test,4,C,mfborder.png,1,m,Thu Mar 05 2026 12:37:44 GMT-0600 (Central Standard Time),692050.099999994,CFD-BM-017-052-HC.jpg,1000,dash,O,m,840,4,1,36721.59999999404,655328.5,7753,ATS,A,14
13,test,4,C,haborder.png,0,z,Thu Mar 05 2026 12:37:44 GMT-0600 (Central Standard Time),694982.5,CFD-BF-023-013-A.jpg,1400,solid,O,None,1515,7,1,39654.0,655328.5,7753,ATS,A,15
14,test,4,C,haborder.png,1,z,Thu Mar 05 2026 12:37:44 GMT-0600 (Central Standard Time),698147.2999999821,CFD-BF-039-039-A.jpg,1900,solid,O,z,1248,8,1,42818.79999998212,655328.5,7753,ATS,A,16
15,test,4,C,haborder.png,1,z,Thu Mar 05 2026 12:37:44 GMT-0600 (Central Standard Time),700879.5,CFD-WF-003-014-A.jpg,1700,solid,O,z,999,9,1,45551.0,655328.5,7753,ATS,A,17
15,test,4,C,mfborder.png,0,m,Thu Mar 05 2026 12:37:44 GMT-0600 (Central Standard Time),703595.6999999881,CFD-WM-013-015-A.jpg,1200,dash,O,None,1501,6,1,48267.19999998808,655328.5,7753,ATS,A,18
16,test,4,C,haborder.png,1,z,Thu Mar 05 2026 12:37:44 GMT-0600 (Central Standard Time),706111.599999994,CFD-BF-023-013-A.jpg,1400,solid,O,z,1092,7,1,50783.09999999404,655328.5,7753,ATS,A,19
17,test,4,C,mfborder.png,1,m,Thu Mar 05 2026 12:37:44 GMT-0600 (Central Standard Time),709094.7999999821,CFD-BM-005-010-A.jpg,2000,dash,O,m,951,5,1,53766.29999998212,655328.5,7753,ATS,A,20
18,test,4,C,mfborder.png,1,z,Thu Mar 05 2026 12:37:44 GMT-0600 (Central Standard Time),711676.599999994,CFD-WF-019-015-A.jpg,1600,dash,O,z,962,2,1,56348.09999999404,655328.5,7753,ATS,A,21
18,test,4,C,haborder.png,0,z,Thu Mar 05 2026 12:37:44 GMT-0600 (Central Standard Time),714908.2999999821,CFD-WF-003-014-A.jpg,1700,solid,O,None,1514,9,1,59579.79999998212,655328.5,7753,ATS,A,22
18,test,4,C,mfborder.png,0,m,Thu Mar 05 2026 12:37:44 GMT-0600 (Central Standard Time),717643.2999999821,CFD-WM-013-015-A.jpg,1200,dash,O,None,1518,6,1,62314.79999998212,655328.5,7753,ATS,A,23
19,test,4,C,mfborder.png,1,z,Thu Mar 05 2026 12:37:44 GMT-0600 (Central Standard Time),720259.099999994,CFD-WF-019-015-A.jpg,1600,dash,O,z,991,2,1,64930.59999999404,655328.5,7753,ATS,A,24
