acc_sum,block,block_c,change,condition,correct,correct_response,datetime,endtime,face,project,response,response_time,row_sel,session_number,start_end,starttime,subject_id,task,task_vers,trial
0,prac,1,,1-Back,,,Thu Oct 02 2025 15:36:31 GMT-0400 (Eastern Daylight Time),,124_o_f_d_a.png,I,space,23844,1,1,,,9031,VNB,A,0
1,prac,1,0.0,1-Back,1.0,m,Thu Oct 02 2025 15:36:31 GMT-0400 (Eastern Daylight Time),6160583.400000095,071_y_f_n_a.png,I,m,1901,2,1,2800.3000000715256,6157783.100000024,9031,VNB,A,1
2,prac,1,0.0,1-Back,1.0,m,Thu Oct 02 2025 15:36:31 GMT-0400 (Eastern Daylight Time),6163016.700000048,165_m_m_h_a.png,I,m,1530,3,1,2417.399999976158,6160599.3000000715,9031,VNB,A,2
3,prac,1,0.0,1-Back,1.0,m,Thu Oct 02 2025 15:36:31 GMT-0400 (Eastern Daylight Time),6165116.8000000715,109_y_m_d_a.png,I,m,1205,4,1,2083.600000023842,6163033.200000048,9031,VNB,A,3
3,prac,1,0.0,1-Back,0.0,m,Thu Oct 02 2025 15:36:31 GMT-0400 (Eastern Daylight Time),6167849.900000095,124_o_f_n_a.png,I,z,1745,5,1,2715.5,6165134.400000095,9031,VNB,A,4
3,prac,1,1.0,1-Back,0.0,z,Thu Oct 02 2025 15:36:31 GMT-0400 (Eastern Daylight Time),6170766.200000048,109_y_m_n_a.png,I,None,2008,6,1,2896.100000023842,6167870.100000024,9031,VNB,A,5
4,prac,1,0.0,1-Back,1.0,m,Thu Oct 02 2025 15:36:31 GMT-0400 (Eastern Daylight Time),6172200.0,039_o_m_h_a.png,I,m,455,7,1,1415.3999999761581,6170784.600000024,9031,VNB,A,6
5,prac,1,0.0,1-Back,1.0,m,Thu Oct 02 2025 15:36:31 GMT-0400 (Eastern Daylight Time),6174266.900000095,139_m_f_d_a.png,I,m,1176,8,1,2048.3000000715256,6172218.600000024,9031,VNB,A,7
6,prac,1,1.0,1-Back,1.0,z,Thu Oct 02 2025 15:36:31 GMT-0400 (Eastern Daylight Time),6176600.0,071_y_f_d_a.png,I,z,1491,9,1,2314.399999976158,6174285.600000024,9031,VNB,A,8
7,prac,1,0.0,1-Back,1.0,m,Thu Oct 02 2025 15:36:31 GMT-0400 (Eastern Daylight Time),6179316.700000048,165_m_m_n_a.png,I,m,1876,10,1,2698.399999976158,6176618.3000000715,9031,VNB,A,9
8,prac,1,0.0,1-Back,1.0,m,Thu Oct 02 2025 15:36:31 GMT-0400 (Eastern Daylight Time),6182133.400000095,124_o_f_h_a.png,I,m,1949,11,1,2797.4000000953674,6179336.0,9031,VNB,A,10
9,prac,1,0.0,1-Back,1.0,m,Thu Oct 02 2025 15:36:31 GMT-0400 (Eastern Daylight Time),6184016.8000000715,109_y_m_d_a.png,I,m,1092,12,1,1867.7000000476837,6182149.100000024,9031,VNB,A,11
0,test,1,0.0,1-Back,,,Thu Oct 02 2025 15:36:31 GMT-0400 (Eastern Daylight Time),6184016.8000000715,071_y_f_d_a.png,I,space,23846,1,1,1867.7000000476837,6182149.100000024,9031,VNB,A,0
1,test,1,0.0,1-Back,1.0,m,Thu Oct 02 2025 15:36:31 GMT-0400 (Eastern Daylight Time),6223349.900000095,139_m_f_n_a.png,I,m,1120,2,1,2150.4000000953674,6221199.5,9031,VNB,A,1
2,test,1,0.0,1-Back,1.0,m,Thu Oct 02 2025 15:36:31 GMT-0400 (Eastern Daylight Time),6225549.8000000715,039_o_m_h_a.png,I,m,1178,3,1,2185.5,6223364.3000000715,9031,VNB,A,2
3,test,1,1.0,1-Back,1.0,z,Thu Oct 02 2025 15:36:31 GMT-0400 (Eastern Daylight Time),6227749.8000000715,165_m_m_h_a.png,I,z,1170,4,1,2186.399999976158,6225563.400000095,9031,VNB,A,3
4,test,1,0.0,1-Back,1.0,m,Thu Oct 02 2025 15:36:31 GMT-0400 (Eastern Daylight Time),6229816.600000024,124_o_f_n_a.png,I,m,1034,5,1,2052.100000023842,6227764.5,9031,VNB,A,4
5,test,1,0.0,1-Back,1.0,m,Thu Oct 02 2025 15:36:31 GMT-0400 (Eastern Daylight Time),6232683.100000024,109_y_m_d_a.png,I,m,1830,6,1,2852.1999999284744,6229830.900000095,9031,VNB,A,5
6,test,1,1.0,1-Back,1.0,z,Thu Oct 02 2025 15:36:31 GMT-0400 (Eastern Daylight Time),6234916.200000048,139_m_f_d_a.png,I,z,1204,7,1,2217.600000023842,6232698.600000024,9031,VNB,A,6
7,test,1,0.0,1-Back,1.0,m,Thu Oct 02 2025 15:36:31 GMT-0400 (Eastern Daylight Time),6236983.200000048,071_y_f_h_a.png,I,m,1035,8,1,2052.0,6234931.200000048,9031,VNB,A,7
8,test,1,0.0,1-Back,1.0,m,Thu Oct 02 2025 15:36:31 GMT-0400 (Eastern Daylight Time),6239099.8000000715,039_o_m_n_a.png,I,m,1096,9,1,2101.5,6236998.3000000715,9031,VNB,A,8
9,test,1,0.0,1-Back,1.0,m,Thu Oct 02 2025 15:36:31 GMT-0400 (Eastern Daylight Time),6241066.3000000715,109_y_m_h_a.png,I,m,948,10,1,1952.3999999761581,6239113.900000095,9031,VNB,A,9
10,test,1,0.0,1-Back,1.0,m,Thu Oct 02 2025 15:36:31 GMT-0400 (Eastern Daylight Time),6242949.3000000715,039_o_m_d_a.png,I,m,836,11,1,1867.0,6241082.3000000715,9031,VNB,A,10
11,test,1,1.0,1-Back,1.0,z,Thu Oct 02 2025 15:36:31 GMT-0400 (Eastern Daylight Time),6245299.8000000715,124_o_f_d_a.png,I,z,1322,12,1,2340.100000023842,6242959.700000048,9031,VNB,A,11
12,test,1,0.0,1-Back,1.0,m,Thu Oct 02 2025 15:36:31 GMT-0400 (Eastern Daylight Time),6247349.900000095,165_m_m_n_a.png,I,m,1020,13,1,2035.6000000238419,6245314.3000000715,9031,VNB,A,12
13,test,1,1.0,1-Back,1.0,z,Thu Oct 02 2025 15:36:31 GMT-0400 (Eastern Daylight Time),6249766.5,071_y_f_n_a.png,I,z,1369,14,1,2398.5,6247368.0,9031,VNB,A,13
14,test,1,0.0,1-Back,1.0,m,Thu Oct 02 2025 15:36:31 GMT-0400 (Eastern Daylight Time),6251882.900000095,139_m_f_h_a.png,I,m,1097,15,1,2102.9000000953674,6249780.0,9031,VNB,A,14
15,test,1,0.0,1-Back,1.0,m,Thu Oct 02 2025 15:36:31 GMT-0400 (Eastern Daylight Time),6253833.600000024,165_m_m_d_a.png,I,m,933,16,1,1937.1000000238419,6251896.5,9031,VNB,A,15
16,test,1,0.0,1-Back,1.0,m,Thu Oct 02 2025 15:36:31 GMT-0400 (Eastern Daylight Time),6256433.200000048,109_y_m_n_a.png,I,m,1558,17,1,2583.100000023842,6253850.100000024,9031,VNB,A,16
17,test,1,0.0,1-Back,1.0,m,Thu Oct 02 2025 15:36:31 GMT-0400 (Eastern Daylight Time),6258266.3000000715,124_o_f_h_a.png,I,m,814,18,1,1819.1000000238419,6256447.200000048,9031,VNB,A,17
0,test,2,0.0,1-Back,,,Thu Oct 02 2025 15:36:31 GMT-0400 (Eastern Daylight Time),6258266.3000000715,109_y_m_n_a.png,I,space,3245,1,1,1819.1000000238419,6256447.200000048,9031,VNB,A,0
1,test,2,0.0,1-Back,1.0,m,Thu Oct 02 2025 15:36:31 GMT-0400 (Eastern Daylight Time),6265433.3000000715,071_y_f_h_a.png,I,m,868,2,1,1885.6000000238419,6263547.700000048,9031,VNB,A,1
2,test,2,1.0,1-Back,1.0,m,Thu Oct 02 2025 15:36:31 GMT-0400 (Eastern Daylight Time),6267499.600000024,039_o_m_n_a.png,I,m,1046,3,1,2052.100000023842,6265447.5,9031,VNB,A,2
2,test,2,0.0,1-Back,0.0,m,Thu Oct 02 2025 15:36:31 GMT-0400 (Eastern Daylight Time),6270282.900000095,139_m_f_d_a.png,I,z,1764,4,1,2768.8000000715256,6267514.100000024,9031,VNB,A,3
2,test,2,0.0,1-Back,0.0,z,Thu Oct 02 2025 15:36:31 GMT-0400 (Eastern Daylight Time),6273316.3000000715,165_m_m_d_a.png,I,None,2015,5,1,3019.100000023842,6270297.200000048,9031,VNB,A,4
3,test,2,0.0,1-Back,1.0,m,Thu Oct 02 2025 15:36:31 GMT-0400 (Eastern Daylight Time),6275316.600000024,109_y_m_h_a.png,I,m,971,6,1,1988.0,6273328.600000024,9031,VNB,A,5
3,test,2,1.0,1-Back,0.0,z,Thu Oct 02 2025 15:36:31 GMT-0400 (Eastern Daylight Time),6277616.600000024,124_o_f_h_a.png,I,m,1276,7,1,2286.5,6275330.100000024,9031,VNB,A,6
4,test,2,0.0,1-Back,1.0,m,Thu Oct 02 2025 15:36:31 GMT-0400 (Eastern Daylight Time),6279450.0,139_m_f_n_a.png,I,m,815,8,1,1819.0999999046326,6277630.900000095,9031,VNB,A,7
5,test,2,0.0,1-Back,1.0,m,Thu Oct 02 2025 15:36:31 GMT-0400 (Eastern Daylight Time),6281449.900000095,071_y_f_d_a.png,I,m,966,9,1,1986.8000000715256,6279463.100000024,9031,VNB,A,8
6,test,2,0.0,1-Back,1.0,m,Thu Oct 02 2025 15:36:31 GMT-0400 (Eastern Daylight Time),6283383.200000048,165_m_m_n_a.png,I,m,902,10,1,1918.7000000476837,6281464.5,9031,VNB,A,9
7,test,2,1.0,1-Back,1.0,m,Thu Oct 02 2025 15:36:31 GMT-0400 (Eastern Daylight Time),6285166.700000048,139_m_f_h_a.png,I,m,760,11,1,1769.7999999523163,6283396.900000095,9031,VNB,A,10
8,test,2,0.0,1-Back,1.0,z,Thu Oct 02 2025 15:36:31 GMT-0400 (Eastern Daylight Time),6287233.100000024,039_o_m_h_a.png,I,z,1041,12,1,2052.5,6285180.600000024,9031,VNB,A,11
9,test,2,0.0,1-Back,1.0,m,Thu Oct 02 2025 15:36:31 GMT-0400 (Eastern Daylight Time),6289033.200000048,109_y_m_d_a.png,I,m,766,13,1,1786.7000000476837,6287246.5,9031,VNB,A,12
10,test,2,0.0,1-Back,1.0,m,Thu Oct 02 2025 15:36:31 GMT-0400 (Eastern Daylight Time),6290866.5,124_o_f_n_a.png,I,m,790,14,1,1807.8999999761581,6289058.600000024,9031,VNB,A,13
11,test,2,0.0,1-Back,1.0,z,Thu Oct 02 2025 15:36:31 GMT-0400 (Eastern Daylight Time),6293566.5,071_y_f_n_a.png,I,z,1677,15,1,2685.2999999523163,6290881.200000048,9031,VNB,A,14
12,test,2,1.0,1-Back,1.0,m,Thu Oct 02 2025 15:36:31 GMT-0400 (Eastern Daylight Time),6295616.400000095,165_m_m_h_a.png,I,m,1025,16,1,2036.7000000476837,6293579.700000048,9031,VNB,A,15
13,test,2,0.0,1-Back,1.0,m,Thu Oct 02 2025 15:36:31 GMT-0400 (Eastern Daylight Time),6297583.100000024,124_o_f_d_a.png,I,m,943,17,1,1952.5,6295630.600000024,9031,VNB,A,16
13,test,2,1.0,1-Back,0.0,z,Thu Oct 02 2025 15:36:31 GMT-0400 (Eastern Daylight Time),6299599.5,039_o_m_d_a.png,I,m,992,18,1,2002.7999999523163,6297596.700000048,9031,VNB,A,17
0,test,3,1.0,1-Back,,,Thu Oct 02 2025 15:36:31 GMT-0400 (Eastern Daylight Time),6299599.5,124_o_f_h_a.png,I,space,3169,1,1,2002.7999999523163,6297596.700000048,9031,VNB,A,0
1,test,3,0.0,1-Back,1.0,m,Thu Oct 02 2025 15:36:31 GMT-0400 (Eastern Daylight Time),6306733.3000000715,139_m_f_d_a.png,I,m,845,2,1,1852.6000000238419,6304880.700000048,9031,VNB,A,1
2,test,3,1.0,1-Back,1.0,m,Thu Oct 02 2025 15:36:31 GMT-0400 (Eastern Daylight Time),6308749.900000095,165_m_m_n_a.png,I,m,995,3,1,2001.5,6306748.400000095,9031,VNB,A,2
2,test,3,0.0,1-Back,0.0,z,Thu Oct 02 2025 15:36:31 GMT-0400 (Eastern Daylight Time),6310783.200000048,124_o_f_n_a.png,I,m,1011,4,1,2020.1000000238419,6308763.100000024,9031,VNB,A,3
3,test,3,1.0,1-Back,1.0,m,Thu Oct 02 2025 15:36:31 GMT-0400 (Eastern Daylight Time),6312749.900000095,039_o_m_d_a.png,I,m,944,5,1,1952.1000000238419,6310797.8000000715,9031,VNB,A,4
4,test,3,0.0,1-Back,1.0,m,Thu Oct 02 2025 15:36:31 GMT-0400 (Eastern Daylight Time),6314466.600000024,071_y_f_h_a.png,I,m,690,6,1,1702.5,6312764.100000024,9031,VNB,A,5
5,test,3,0.0,1-Back,1.0,z,Thu Oct 02 2025 15:36:31 GMT-0400 (Eastern Daylight Time),6316416.5,109_y_m_h_a.png,I,z,925,7,1,1935.3999999761581,6314481.100000024,9031,VNB,A,6
6,test,3,0.0,1-Back,1.0,m,Thu Oct 02 2025 15:36:31 GMT-0400 (Eastern Daylight Time),6318300.700000048,139_m_f_n_a.png,I,m,863,8,1,1869.1000000238419,6316431.600000024,9031,VNB,A,7
7,test,3,0.0,1-Back,1.0,m,Thu Oct 02 2025 15:36:31 GMT-0400 (Eastern Daylight Time),6320099.900000095,071_y_f_d_a.png,I,m,773,9,1,1788.4000000953674,6318311.5,9031,VNB,A,8
8,test,3,1.0,1-Back,1.0,m,Thu Oct 02 2025 15:36:31 GMT-0400 (Eastern Daylight Time),6322116.100000024,039_o_m_n_a.png,I,m,988,10,1,2003.0,6320113.100000024,9031,VNB,A,9
9,test,3,0.0,1-Back,1.0,m,Thu Oct 02 2025 15:36:31 GMT-0400 (Eastern Daylight Time),6324367.3000000715,165_m_m_h_a.png,I,m,1227,11,1,2239.8000000715256,6322127.5,9031,VNB,A,10
10,test,3,0.0,1-Back,1.0,z,Thu Oct 02 2025 15:36:31 GMT-0400 (Eastern Daylight Time),6326299.600000024,139_m_f_h_a.png,I,z,914,12,1,1921.7999999523163,6324377.8000000715,9031,VNB,A,11
11,test,3,1.0,1-Back,1.0,m,Thu Oct 02 2025 15:36:31 GMT-0400 (Eastern Daylight Time),6328133.0,124_o_f_d_a.png,I,m,787,13,1,1817.2999999523163,6326315.700000048,9031,VNB,A,12
12,test,3,0.0,1-Back,1.0,z,Thu Oct 02 2025 15:36:31 GMT-0400 (Eastern Daylight Time),6330166.600000024,165_m_m_d_a.png,I,z,1002,14,1,2019.7999999523163,6328146.8000000715,9031,VNB,A,13
13,test,3,0.0,1-Back,1.0,m,Thu Oct 02 2025 15:36:31 GMT-0400 (Eastern Daylight Time),6332033.200000048,109_y_m_n_a.png,I,m,841,15,1,1852.7999999523163,6330180.400000095,9031,VNB,A,14
14,test,3,1.0,1-Back,1.0,m,Thu Oct 02 2025 15:36:31 GMT-0400 (Eastern Daylight Time),6333999.900000095,039_o_m_h_a.png,I,m,942,16,1,1951.6000000238419,6332048.3000000715,9031,VNB,A,15
15,test,3,0.0,1-Back,1.0,m,Thu Oct 02 2025 15:36:31 GMT-0400 (Eastern Daylight Time),6336250.0,109_y_m_d_a.png,I,m,1232,17,1,2235.899999976158,6334014.100000024,9031,VNB,A,16
16,test,3,1.0,1-Back,1.0,m,Thu Oct 02 2025 15:36:31 GMT-0400 (Eastern Daylight Time),6338133.3000000715,071_y_f_n_a.png,I,m,854,18,1,1870.8000000715256,6336262.5,9031,VNB,A,17
0,test,4,1.0,1-Back,,,Thu Oct 02 2025 15:36:31 GMT-0400 (Eastern Daylight Time),6338133.3000000715,165_m_m_d_a.png,I,space,4650,1,1,1870.8000000715256,6336262.5,9031,VNB,A,0
1,test,4,0.0,1-Back,1.0,z,Thu Oct 02 2025 15:36:31 GMT-0400 (Eastern Daylight Time),6347066.5,039_o_m_d_a.png,I,z,1232,2,1,2235.1999999284744,6344831.3000000715,9031,VNB,A,1
2,test,4,0.0,1-Back,1.0,m,Thu Oct 02 2025 15:36:31 GMT-0400 (Eastern Daylight Time),6348899.700000048,109_y_m_h_a.png,I,m,805,3,1,1821.0,6347078.700000048,9031,VNB,A,2
3,test,4,0.0,1-Back,1.0,m,Thu Oct 02 2025 15:36:31 GMT-0400 (Eastern Daylight Time),6350733.3000000715,139_m_f_n_a.png,I,m,812,4,1,1819.1000000238419,6348914.200000048,9031,VNB,A,3
4,test,4,1.0,1-Back,1.0,m,Thu Oct 02 2025 15:36:31 GMT-0400 (Eastern Daylight Time),6352599.8000000715,124_o_f_h_a.png,I,m,835,5,1,1851.6000000238419,6350748.200000048,9031,VNB,A,4
5,test,4,0.0,1-Back,1.0,m,Thu Oct 02 2025 15:36:31 GMT-0400 (Eastern Daylight Time),6354483.200000048,165_m_m_n_a.png,I,m,856,6,1,1868.8999999761581,6352614.3000000715,9031,VNB,A,5
6,test,4,0.0,1-Back,1.0,m,Thu Oct 02 2025 15:36:31 GMT-0400 (Eastern Daylight Time),6356349.900000095,109_y_m_d_a.png,I,m,844,7,1,1853.1000000238419,6354496.8000000715,9031,VNB,A,6
7,test,4,1.0,1-Back,1.0,z,Thu Oct 02 2025 15:36:31 GMT-0400 (Eastern Daylight Time),6358233.3000000715,071_y_f_d_a.png,I,z,851,8,1,1868.8999999761581,6356364.400000095,9031,VNB,A,7
8,test,4,0.0,1-Back,1.0,m,Thu Oct 02 2025 15:36:31 GMT-0400 (Eastern Daylight Time),6359933.200000048,139_m_f_h_a.png,I,m,678,9,1,1685.7999999523163,6358247.400000095,9031,VNB,A,8
9,test,4,0.0,1-Back,1.0,z,Thu Oct 02 2025 15:36:31 GMT-0400 (Eastern Daylight Time),6361833.5,039_o_m_h_a.png,I,z,882,10,1,1886.1999999284744,6359947.3000000715,9031,VNB,A,9
10,test,4,1.0,1-Back,1.0,m,Thu Oct 02 2025 15:36:31 GMT-0400 (Eastern Daylight Time),6363633.200000048,124_o_f_n_a.png,I,m,775,11,1,1785.3999999761581,6361847.8000000715,9031,VNB,A,10
11,test,4,0.0,1-Back,1.0,m,Thu Oct 02 2025 15:36:31 GMT-0400 (Eastern Daylight Time),6365499.8000000715,139_m_f_d_a.png,I,m,847,12,1,1852.8999999761581,6363646.900000095,9031,VNB,A,11
12,test,4,0.0,1-Back,1.0,m,Thu Oct 02 2025 15:36:31 GMT-0400 (Eastern Daylight Time),6367383.200000048,071_y_f_n_a.png,I,m,852,13,1,1870.2000000476837,6365513.0,9031,VNB,A,12
13,test,4,0.0,1-Back,1.0,m,Thu Oct 02 2025 15:36:31 GMT-0400 (Eastern Daylight Time),6369349.900000095,124_o_f_d_a.png,I,m,937,14,1,1951.3000000715256,6367398.600000024,9031,VNB,A,13
14,test,4,0.0,1-Back,1.0,m,Thu Oct 02 2025 15:36:31 GMT-0400 (Eastern Daylight Time),6371283.400000095,071_y_f_h_a.png,I,m,906,15,1,1919.5,6369363.900000095,9031,VNB,A,14
15,test,4,1.0,1-Back,1.0,z,Thu Oct 02 2025 15:36:31 GMT-0400 (Eastern Daylight Time),6373216.600000024,165_m_m_h_a.png,I,z,908,16,1,1919.0,6371297.600000024,9031,VNB,A,15
16,test,4,0.0,1-Back,1.0,m,Thu Oct 02 2025 15:36:31 GMT-0400 (Eastern Daylight Time),6374932.8000000715,039_o_m_n_a.png,I,m,687,17,1,1701.8999999761581,6373230.900000095,9031,VNB,A,16
17,test,4,1.0,1-Back,1.0,z,Thu Oct 02 2025 15:36:31 GMT-0400 (Eastern Daylight Time),6376999.900000095,109_y_m_n_a.png,I,z,1034,18,1,2055.0,6374944.900000095,9031,VNB,A,17
0,test,5,1.0,1-Back,,,Thu Oct 02 2025 15:36:31 GMT-0400 (Eastern Daylight Time),6376999.900000095,039_o_m_n_a.png,I,space,2441,1,1,2055.0,6374944.900000095,9031,VNB,A,0
1,test,5,1.0,1-Back,1.0,m,Thu Oct 02 2025 15:36:31 GMT-0400 (Eastern Daylight Time),6383249.900000095,124_o_f_h_a.png,I,m,757,2,1,1769.1000000238419,6381480.8000000715,9031,VNB,A,1
2,test,5,0.0,1-Back,1.0,m,Thu Oct 02 2025 15:36:31 GMT-0400 (Eastern Daylight Time),6385149.900000095,109_y_m_d_a.png,I,m,878,3,1,1886.4000000953674,6383263.5,9031,VNB,A,2
2,test,5,0.0,1-Back,0.0,z,Thu Oct 02 2025 15:36:31 GMT-0400 (Eastern Daylight Time),6386816.600000024,039_o_m_d_a.png,I,m,642,4,1,1652.1999999284744,6385164.400000095,9031,VNB,A,3
3,test,5,0.0,1-Back,1.0,m,Thu Oct 02 2025 15:36:31 GMT-0400 (Eastern Daylight Time),6388699.700000048,139_m_f_h_a.png,I,m,864,5,1,1867.7000000476837,6386832.0,9031,VNB,A,4
4,test,5,0.0,1-Back,1.0,m,Thu Oct 02 2025 15:36:31 GMT-0400 (Eastern Daylight Time),6390349.8000000715,071_y_f_n_a.png,I,m,629,6,1,1635.3000000715256,6388714.5,9031,VNB,A,5
5,test,5,1.0,1-Back,1.0,z,Thu Oct 02 2025 15:36:31 GMT-0400 (Eastern Daylight Time),6392349.900000095,124_o_f_n_a.png,I,z,978,7,1,1986.5,6390363.400000095,9031,VNB,A,6
6,test,5,0.0,1-Back,1.0,m,Thu Oct 02 2025 15:36:31 GMT-0400 (Eastern Daylight Time),6394316.5,139_m_f_d_a.png,I,m,929,8,1,1950.6999999284744,6392365.8000000715,9031,VNB,A,7
7,test,5,0.0,1-Back,1.0,m,Thu Oct 02 2025 15:36:31 GMT-0400 (Eastern Daylight Time),6396099.900000095,109_y_m_h_a.png,I,m,755,9,1,1769.1000000238419,6394330.8000000715,9031,VNB,A,8
8,test,5,0.0,1-Back,1.0,m,Thu Oct 02 2025 15:36:31 GMT-0400 (Eastern Daylight Time),6399066.200000048,071_y_f_d_a.png,I,m,1948,10,1,2950.5,6396115.700000048,9031,VNB,A,9
9,test,5,0.0,1-Back,1.0,m,Thu Oct 02 2025 15:36:31 GMT-0400 (Eastern Daylight Time),6400916.5,165_m_m_n_a.png,I,m,821,11,1,1837.0999999046326,6399079.400000095,9031,VNB,A,10
9,test,5,1.0,1-Back,0.0,z,Thu Oct 02 2025 15:36:31 GMT-0400 (Eastern Daylight Time),6403583.200000048,139_m_f_n_a.png,I,m,1643,12,1,2652.7999999523163,6400930.400000095,9031,VNB,A,11
10,test,5,0.0,1-Back,1.0,m,Thu Oct 02 2025 15:36:31 GMT-0400 (Eastern Daylight Time),6405566.600000024,039_o_m_h_a.png,I,m,961,13,1,1968.8999999761581,6403597.700000048,9031,VNB,A,12
10,test,5,0.0,1-Back,0.0,z,Thu Oct 02 2025 15:36:31 GMT-0400 (Eastern Daylight Time),6407216.600000024,165_m_m_h_a.png,I,m,608,14,1,1634.3999999761581,6405582.200000048,9031,VNB,A,13
11,test,5,1.0,1-Back,1.0,m,Thu Oct 02 2025 15:36:31 GMT-0400 (Eastern Daylight Time),6409199.900000095,124_o_f_d_a.png,I,m,959,15,1,1968.3000000715256,6407231.600000024,9031,VNB,A,14
12,test,5,0.0,1-Back,1.0,m,Thu Oct 02 2025 15:36:31 GMT-0400 (Eastern Daylight Time),6411249.900000095,109_y_m_n_a.png,I,m,1025,16,1,2035.4000000953674,6409214.5,9031,VNB,A,15
13,test,5,0.0,1-Back,1.0,m,Thu Oct 02 2025 15:36:31 GMT-0400 (Eastern Daylight Time),6413116.400000095,071_y_f_h_a.png,I,m,846,17,1,1852.3000000715256,6411264.100000024,9031,VNB,A,16
14,test,5,0.0,1-Back,1.0,m,Thu Oct 02 2025 15:36:31 GMT-0400 (Eastern Daylight Time),6414883.3000000715,165_m_m_d_a.png,I,m,722,18,1,1750.2000000476837,6413133.100000024,9031,VNB,A,17
0,prac,1,0.0,2-Back,,,Thu Oct 02 2025 15:36:31 GMT-0400 (Eastern Daylight Time),6414883.3000000715,139_m_f_n_a.png,I,space,17099,1,1,1750.2000000476837,6413133.100000024,9031,VNB,A,0
0,prac,1,0.0,2-Back,,,Thu Oct 02 2025 15:36:31 GMT-0400 (Eastern Daylight Time),6414883.3000000715,124_o_f_h_a.png,I,space,17099,2,1,1750.2000000476837,6413133.100000024,9031,VNB,A,0
1,prac,1,0.0,2-Back,1.0,m,Thu Oct 02 2025 15:36:31 GMT-0400 (Eastern Daylight Time),6550300.200000048,039_o_m_d_a.png,I,m,1451,3,1,2267.100000023842,6548033.100000024,9031,VNB,A,1
1,prac,1,1.0,2-Back,0.0,z,Thu Oct 02 2025 15:36:31 GMT-0400 (Eastern Daylight Time),6553133.3000000715,165_m_m_h_a.png,I,None,2007,4,1,2816.8000000715256,6550316.5,9031,VNB,A,2
1,prac,1,0.0,2-Back,0.0,m,Thu Oct 02 2025 15:36:31 GMT-0400 (Eastern Daylight Time),6555983.400000095,071_y_f_n_a.png,I,None,2011,5,1,2833.7000000476837,6553149.700000048,9031,VNB,A,3
1,prac,1,1.0,2-Back,0.0,z,Thu Oct 02 2025 15:36:31 GMT-0400 (Eastern Daylight Time),6558816.600000024,039_o_m_h_a.png,I,None,2009,6,1,2816.1999999284744,6556000.400000095,9031,VNB,A,4
1,prac,1,1.0,2-Back,0.0,z,Thu Oct 02 2025 15:36:31 GMT-0400 (Eastern Daylight Time),6560366.700000048,109_y_m_n_a.png,I,m,710,7,1,1532.6000000238419,6558834.100000024,9031,VNB,A,5
2,prac,1,0.0,2-Back,1.0,m,Thu Oct 02 2025 15:36:31 GMT-0400 (Eastern Daylight Time),6562016.8000000715,139_m_f_d_a.png,I,m,816,8,1,1633.8000000715256,6560383.0,9031,VNB,A,6
3,prac,1,0.0,2-Back,1.0,m,Thu Oct 02 2025 15:36:31 GMT-0400 (Eastern Daylight Time),6564066.8000000715,124_o_f_d_a.png,I,m,1165,9,1,2033.8999999761581,6562032.900000095,9031,VNB,A,7
4,prac,1,0.0,2-Back,1.0,m,Thu Oct 02 2025 15:36:31 GMT-0400 (Eastern Daylight Time),6565700.100000024,165_m_m_h_a.png,I,m,837,10,1,1616.7999999523163,6564083.3000000715,9031,VNB,A,8
4,prac,1,1.0,2-Back,0.0,z,Thu Oct 02 2025 15:36:31 GMT-0400 (Eastern Daylight Time),6567366.8000000715,071_y_f_d_a.png,I,m,830,11,1,1651.6000000238419,6565715.200000048,9031,VNB,A,9
5,prac,1,0.0,2-Back,1.0,m,Thu Oct 02 2025 15:36:31 GMT-0400 (Eastern Daylight Time),6568833.5,039_o_m_n_a.png,I,m,632,12,1,1449.5999999046326,6567383.900000095,9031,VNB,A,10
0,prac,2,0.0,2-Back,,,Thu Oct 02 2025 15:36:31 GMT-0400 (Eastern Daylight Time),6568833.5,139_m_f_n_a.png,I,a,8481,1,1,1449.5999999046326,6567383.900000095,9031,VNB,A,0
0,prac,2,0.0,2-Back,,,Thu Oct 02 2025 15:36:31 GMT-0400 (Eastern Daylight Time),6568833.5,124_o_f_h_a.png,I,a,8481,2,1,1449.5999999046326,6567383.900000095,9031,VNB,A,0
1,prac,2,0.0,2-Back,1.0,m,Thu Oct 02 2025 15:36:31 GMT-0400 (Eastern Daylight Time),6584400.100000024,039_o_m_d_a.png,I,m,1068,3,1,1883.8999999761581,6582516.200000048,9031,VNB,A,1
1,prac,2,1.0,2-Back,0.0,z,Thu Oct 02 2025 15:36:31 GMT-0400 (Eastern Daylight Time),6587200.700000048,165_m_m_h_a.png,I,None,2015,4,1,2783.7000000476837,6584417.0,9031,VNB,A,2
2,prac,2,0.0,2-Back,1.0,m,Thu Oct 02 2025 15:36:31 GMT-0400 (Eastern Daylight Time),6589283.200000048,071_y_f_n_a.png,I,m,1247,5,1,2069.100000023842,6587214.100000024,9031,VNB,A,3
2,prac,2,1.0,2-Back,0.0,z,Thu Oct 02 2025 15:36:31 GMT-0400 (Eastern Daylight Time),6590850.100000024,039_o_m_h_a.png,I,m,732,6,1,1548.6000000238419,6589301.5,9031,VNB,A,4
2,prac,2,1.0,2-Back,0.0,z,Thu Oct 02 2025 15:36:31 GMT-0400 (Eastern Daylight Time),6593066.700000048,109_y_m_n_a.png,I,m,1370,7,1,2196.399999976158,6590870.3000000715,9031,VNB,A,5
3,prac,2,0.0,2-Back,1.0,m,Thu Oct 02 2025 15:36:31 GMT-0400 (Eastern Daylight Time),6595150.100000024,139_m_f_d_a.png,I,m,1250,8,1,2063.899999976158,6593086.200000048,9031,VNB,A,6
4,prac,2,0.0,2-Back,1.0,m,Thu Oct 02 2025 15:36:31 GMT-0400 (Eastern Daylight Time),6597333.0,124_o_f_d_a.png,I,m,1296,9,1,2163.0999999046326,6595169.900000095,9031,VNB,A,7
5,prac,2,0.0,2-Back,1.0,m,Thu Oct 02 2025 15:36:31 GMT-0400 (Eastern Daylight Time),6599384.100000024,165_m_m_h_a.png,I,m,1253,10,1,2035.3999999761581,6597348.700000048,9031,VNB,A,8
5,prac,2,1.0,2-Back,0.0,z,Thu Oct 02 2025 15:36:31 GMT-0400 (Eastern Daylight Time),6602216.700000048,071_y_f_d_a.png,I,None,2010,11,1,2816.2999999523163,6599400.400000095,9031,VNB,A,9
6,prac,2,0.0,2-Back,1.0,m,Thu Oct 02 2025 15:36:31 GMT-0400 (Eastern Daylight Time),6603800.0,039_o_m_n_a.png,I,m,742,12,1,1563.5999999046326,6602236.400000095,9031,VNB,A,10
0,test,1,0.0,2-Back,,,Thu Oct 02 2025 15:36:31 GMT-0400 (Eastern Daylight Time),6603800.0,109_y_m_h_a.png,I,space,12042,1,1,1563.5999999046326,6602236.400000095,9031,VNB,A,0
0,test,1,0.0,2-Back,,,Thu Oct 02 2025 15:36:31 GMT-0400 (Eastern Daylight Time),6603800.0,124_o_f_n_a.png,I,space,12042,2,1,1563.5999999046326,6602236.400000095,9031,VNB,A,0
1,test,1,0.0,2-Back,1.0,z,Thu Oct 02 2025 15:36:31 GMT-0400 (Eastern Daylight Time),6631883.3000000715,039_o_m_h_a.png,I,z,1580,3,1,2585.7000000476837,6629297.600000024,9031,VNB,A,1
2,test,1,0.0,2-Back,1.0,m,Thu Oct 02 2025 15:36:31 GMT-0400 (Eastern Daylight Time),6634083.400000095,139_m_f_d_a.png,I,m,1157,4,1,2184.100000023842,6631899.3000000715,9031,VNB,A,2
3,test,1,1.0,2-Back,1.0,m,Thu Oct 02 2025 15:36:31 GMT-0400 (Eastern Daylight Time),6636350.0,109_y_m_n_a.png,I,m,1244,5,1,2251.6999999284744,6634098.3000000715,9031,VNB,A,3
3,test,1,0.0,2-Back,0.0,z,Thu Oct 02 2025 15:36:31 GMT-0400 (Eastern Daylight Time),6638833.3000000715,071_y_f_d_a.png,I,m,1458,6,1,2469.100000023842,6636364.200000048,9031,VNB,A,4
4,test,1,0.0,2-Back,1.0,m,Thu Oct 02 2025 15:36:31 GMT-0400 (Eastern Daylight Time),6641600.0,165_m_m_h_a.png,I,m,1726,7,1,2750.5999999046326,6638849.400000095,9031,VNB,A,5
5,test,1,1.0,2-Back,1.0,m,Thu Oct 02 2025 15:36:31 GMT-0400 (Eastern Daylight Time),6643599.900000095,071_y_f_n_a.png,I,m,976,8,1,1984.7000000476837,6641615.200000048,9031,VNB,A,6
5,test,1,0.0,2-Back,0.0,z,Thu Oct 02 2025 15:36:31 GMT-0400 (Eastern Daylight Time),6645816.900000095,124_o_f_h_a.png,I,m,1200,9,1,2201.5,6643615.400000095,9031,VNB,A,7
6,test,1,0.0,2-Back,1.0,m,Thu Oct 02 2025 15:36:31 GMT-0400 (Eastern Daylight Time),6648483.3000000715,039_o_m_d_a.png,I,m,1639,10,1,2652.8000000715256,6645830.5,9031,VNB,A,8
7,test,1,1.0,2-Back,1.0,m,Thu Oct 02 2025 15:36:31 GMT-0400 (Eastern Daylight Time),6650299.900000095,165_m_m_d_a.png,I,m,796,11,1,1802.2000000476837,6648497.700000048,9031,VNB,A,9
8,test,1,0.0,2-Back,1.0,m,Thu Oct 02 2025 15:36:31 GMT-0400 (Eastern Daylight Time),6652083.200000048,139_m_f_n_a.png,I,m,757,12,1,1768.5,6650314.700000048,9031,VNB,A,10
9,test,1,0.0,2-Back,1.0,m,Thu Oct 02 2025 15:36:31 GMT-0400 (Eastern Daylight Time),6654416.600000024,071_y_f_h_a.png,I,m,1308,13,1,2319.0,6652097.600000024,9031,VNB,A,11
9,test,1,0.0,2-Back,0.0,z,Thu Oct 02 2025 15:36:31 GMT-0400 (Eastern Daylight Time),6656650.0,165_m_m_n_a.png,I,m,1183,14,1,2217.6999999284744,6654432.3000000715,9031,VNB,A,12
10,test,1,0.0,2-Back,1.0,m,Thu Oct 02 2025 15:36:31 GMT-0400 (Eastern Daylight Time),6658883.3000000715,109_y_m_d_a.png,I,m,1206,15,1,2217.5,6656665.8000000715,9031,VNB,A,13
10,test,1,1.0,2-Back,0.0,m,Thu Oct 02 2025 15:36:31 GMT-0400 (Eastern Daylight Time),6661800.0,139_m_f_h_a.png,I,z,1868,16,1,2899.899999976158,6658900.100000024,9031,VNB,A,14
10,test,1,0.0,2-Back,0.0,z,Thu Oct 02 2025 15:36:31 GMT-0400 (Eastern Daylight Time),6663733.400000095,124_o_f_d_a.png,I,m,904,17,1,1918.9000000953674,6661814.5,9031,VNB,A,15
11,test,1,0.0,2-Back,1.0,m,Thu Oct 02 2025 15:36:31 GMT-0400 (Eastern Daylight Time),6665883.100000024,039_o_m_n_a.png,I,m,1130,18,1,2135.2999999523163,6663747.8000000715,9031,VNB,A,16
0,test,2,0.0,2-Back,,,Thu Oct 02 2025 15:36:31 GMT-0400 (Eastern Daylight Time),6665883.100000024,165_m_m_h_a.png,I,space,2205,1,1,2135.2999999523163,6663747.8000000715,9031,VNB,A,0
0,test,2,0.0,2-Back,,,Thu Oct 02 2025 15:36:31 GMT-0400 (Eastern Daylight Time),6665883.100000024,071_y_f_n_a.png,I,space,2205,2,1,2135.2999999523163,6663747.8000000715,9031,VNB,A,0
0,test,2,1.0,2-Back,0.0,z,Thu Oct 02 2025 15:36:31 GMT-0400 (Eastern Daylight Time),6675133.200000048,124_o_f_h_a.png,I,m,845,3,1,1865.2999999523163,6673267.900000095,9031,VNB,A,1
1,test,2,0.0,2-Back,1.0,m,Thu Oct 02 2025 15:36:31 GMT-0400 (Eastern Daylight Time),6677683.3000000715,039_o_m_d_a.png,I,m,1521,4,1,2534.2000000476837,6675149.100000024,9031,VNB,A,2
2,test,2,0.0,2-Back,1.0,m,Thu Oct 02 2025 15:36:31 GMT-0400 (Eastern Daylight Time),6679733.3000000715,139_m_f_d_a.png,I,m,1021,5,1,2035.7000000476837,6677697.600000024,9031,VNB,A,3
3,test,2,0.0,2-Back,1.0,m,Thu Oct 02 2025 15:36:31 GMT-0400 (Eastern Daylight Time),6682033.3000000715,109_y_m_h_a.png,I,m,1275,6,1,2285.600000023842,6679747.700000048,9031,VNB,A,4
4,test,2,0.0,2-Back,1.0,m,Thu Oct 02 2025 15:36:31 GMT-0400 (Eastern Daylight Time),6684183.200000048,124_o_f_n_a.png,I,m,1118,7,1,2135.2000000476837,6682048.0,9031,VNB,A,5
4,test,2,1.0,2-Back,0.0,z,Thu Oct 02 2025 15:36:31 GMT-0400 (Eastern Daylight Time),6686266.3000000715,039_o_m_h_a.png,I,m,1048,8,1,2067.100000023842,6684199.200000048,9031,VNB,A,6
5,test,2,0.0,2-Back,1.0,m,Thu Oct 02 2025 15:36:31 GMT-0400 (Eastern Daylight Time),6688083.400000095,071_y_f_d_a.png,I,m,789,9,1,1801.7000000476837,6686281.700000048,9031,VNB,A,7
6,test,2,0.0,2-Back,1.0,m,Thu Oct 02 2025 15:36:31 GMT-0400 (Eastern Daylight Time),6689949.900000095,109_y_m_d_a.png,I,m,845,10,1,1850.9000000953674,6688099.0,9031,VNB,A,8
7,test,2,0.0,2-Back,1.0,m,Thu Oct 02 2025 15:36:31 GMT-0400 (Eastern Daylight Time),6691616.700000048,165_m_m_n_a.png,I,m,642,11,1,1651.3999999761581,6689965.3000000715,9031,VNB,A,9
8,test,2,0.0,2-Back,1.0,m,Thu Oct 02 2025 15:36:31 GMT-0400 (Eastern Daylight Time),6693433.3000000715,139_m_f_h_a.png,I,m,766,12,1,1800.7000000476837,6691632.600000024,9031,VNB,A,10
8,test,2,1.0,2-Back,0.0,z,Thu Oct 02 2025 15:36:31 GMT-0400 (Eastern Daylight Time),6695166.700000048,039_o_m_n_a.png,I,m,710,13,1,1718.6000000238419,6693448.100000024,9031,VNB,A,11
9,test,2,0.0,2-Back,1.0,m,Thu Oct 02 2025 15:36:31 GMT-0400 (Eastern Daylight Time),6697266.600000024,124_o_f_d_a.png,I,m,1073,14,1,2085.0,6695181.600000024,9031,VNB,A,12
10,test,2,0.0,2-Back,1.0,m,Thu Oct 02 2025 15:36:31 GMT-0400 (Eastern Daylight Time),6699450.8000000715,071_y_f_h_a.png,I,m,1165,15,1,2169.5,6697281.3000000715,9031,VNB,A,13
11,test,2,0.0,2-Back,1.0,z,Thu Oct 02 2025 15:36:31 GMT-0400 (Eastern Daylight Time),6701483.0,165_m_m_d_a.png,I,z,1014,16,1,2018.7999999523163,6699464.200000048,9031,VNB,A,14
12,test,2,0.0,2-Back,1.0,m,Thu Oct 02 2025 15:36:31 GMT-0400 (Eastern Daylight Time),6703867.5,109_y_m_n_a.png,I,m,1365,17,1,2373.1999999284744,6701494.3000000715,9031,VNB,A,15
12,test,2,1.0,2-Back,0.0,m,Thu Oct 02 2025 15:36:31 GMT-0400 (Eastern Daylight Time),6706466.400000095,139_m_f_n_a.png,I,z,1556,18,1,2584.4000000953674,6703882.0,9031,VNB,A,16
0,test,3,1.0,2-Back,,,Thu Oct 02 2025 15:36:31 GMT-0400 (Eastern Daylight Time),6706466.400000095,039_o_m_n_a.png,I,space,3670,1,1,2584.4000000953674,6703882.0,9031,VNB,A,0
0,test,3,1.0,2-Back,,,Thu Oct 02 2025 15:36:31 GMT-0400 (Eastern Daylight Time),6706466.400000095,124_o_f_d_a.png,I,space,3670,2,1,2584.4000000953674,6703882.0,9031,VNB,A,0
1,test,3,0.0,2-Back,1.0,m,Thu Oct 02 2025 15:36:31 GMT-0400 (Eastern Daylight Time),6717416.600000024,071_y_f_h_a.png,I,m,1185,3,1,2201.399999976158,6715215.200000048,9031,VNB,A,1
2,test,3,0.0,2-Back,1.0,z,Thu Oct 02 2025 15:36:31 GMT-0400 (Eastern Daylight Time),6719833.400000095,139_m_f_d_a.png,I,z,1366,4,1,2400.5,6717432.900000095,9031,VNB,A,2
2,test,3,1.0,2-Back,0.0,m,Thu Oct 02 2025 15:36:31 GMT-0400 (Eastern Daylight Time),6722500.0,109_y_m_n_a.png,I,z,1622,5,1,2650.399999976158,6719849.600000024,9031,VNB,A,3
3,test,3,0.0,2-Back,1.0,m,Thu Oct 02 2025 15:36:31 GMT-0400 (Eastern Daylight Time),6724850.0,039_o_m_h_a.png,I,m,1324,6,1,2335.0,6722515.0,9031,VNB,A,4
3,test,3,0.0,2-Back,0.0,z,Thu Oct 02 2025 15:36:31 GMT-0400 (Eastern Daylight Time),6726950.100000024,071_y_f_n_a.png,I,m,1054,7,1,2083.6999999284744,6724866.400000095,9031,VNB,A,5
4,test,3,1.0,2-Back,1.0,m,Thu Oct 02 2025 15:36:31 GMT-0400 (Eastern Daylight Time),6729116.5,165_m_m_d_a.png,I,m,1130,8,1,2150.0999999046326,6726966.400000095,9031,VNB,A,6
5,test,3,0.0,2-Back,1.0,m,Thu Oct 02 2025 15:36:31 GMT-0400 (Eastern Daylight Time),6731216.700000048,109_y_m_d_a.png,I,m,1075,9,1,2084.7000000476837,6729132.0,9031,VNB,A,7
6,test,3,0.0,2-Back,1.0,m,Thu Oct 02 2025 15:36:31 GMT-0400 (Eastern Daylight Time),6733067.400000095,124_o_f_h_a.png,I,m,831,10,1,1836.6000000238419,6731230.8000000715,9031,VNB,A,8
7,test,3,1.0,2-Back,1.0,m,Thu Oct 02 2025 15:36:31 GMT-0400 (Eastern Daylight Time),6734850.0,139_m_f_n_a.png,I,m,757,11,1,1768.3999999761581,6733081.600000024,9031,VNB,A,9
7,test,3,1.0,2-Back,0.0,z,Thu Oct 02 2025 15:36:31 GMT-0400 (Eastern Daylight Time),6736566.400000095,165_m_m_h_a.png,I,m,686,12,1,1701.4000000953674,6734865.0,9031,VNB,A,10
8,test,3,0.0,2-Back,1.0,m,Thu Oct 02 2025 15:36:31 GMT-0400 (Eastern Daylight Time),6738616.700000048,071_y_f_d_a.png,I,m,1017,13,1,2036.1000000238419,6736580.600000024,9031,VNB,A,11
9,test,3,0.0,2-Back,1.0,m,Thu Oct 02 2025 15:36:31 GMT-0400 (Eastern Daylight Time),6741233.5,124_o_f_n_a.png,I,m,1592,14,1,2601.5999999046326,6738631.900000095,9031,VNB,A,12
10,test,3,0.0,2-Back,1.0,z,Thu Oct 02 2025 15:36:31 GMT-0400 (Eastern Daylight Time),6744166.700000048,039_o_m_d_a.png,I,z,1886,15,1,2917.2000000476837,6741249.5,9031,VNB,A,13
11,test,3,1.0,2-Back,1.0,m,Thu Oct 02 2025 15:36:31 GMT-0400 (Eastern Daylight Time),6746316.600000024,139_m_f_h_a.png,I,m,1129,16,1,2134.899999976158,6744181.700000048,9031,VNB,A,14
12,test,3,0.0,2-Back,1.0,m,Thu Oct 02 2025 15:36:31 GMT-0400 (Eastern Daylight Time),6748566.8000000715,165_m_m_n_a.png,I,m,1202,17,1,2234.5,6746332.3000000715,9031,VNB,A,15
13,test,3,0.0,2-Back,1.0,z,Thu Oct 02 2025 15:36:31 GMT-0400 (Eastern Daylight Time),6751133.3000000715,109_y_m_h_a.png,I,z,1528,18,1,2551.100000023842,6748582.200000048,9031,VNB,A,16
0,test,4,0.0,2-Back,,,Thu Oct 02 2025 15:36:31 GMT-0400 (Eastern Daylight Time),6751133.3000000715,139_m_f_n_a.png,I,space,2771,1,1,2551.100000023842,6748582.200000048,9031,VNB,A,0
0,test,4,0.0,2-Back,,,Thu Oct 02 2025 15:36:31 GMT-0400 (Eastern Daylight Time),6751133.3000000715,039_o_m_n_a.png,I,space,2771,2,1,2551.100000023842,6748582.200000048,9031,VNB,A,0
1,test,4,1.0,2-Back,1.0,m,Thu Oct 02 2025 15:36:31 GMT-0400 (Eastern Daylight Time),6761266.700000048,109_y_m_h_a.png,I,m,1224,3,1,2234.899999976158,6759031.8000000715,9031,VNB,A,1
2,test,4,1.0,2-Back,1.0,m,Thu Oct 02 2025 15:36:31 GMT-0400 (Eastern Daylight Time),6763516.700000048,124_o_f_d_a.png,I,m,1213,4,1,2233.600000023842,6761283.100000024,9031,VNB,A,2
2,test,4,0.0,2-Back,0.0,z,Thu Oct 02 2025 15:36:31 GMT-0400 (Eastern Daylight Time),6765883.3000000715,039_o_m_h_a.png,I,m,1331,5,1,2350.899999976158,6763532.400000095,9031,VNB,A,3
2,test,4,0.0,2-Back,0.0,m,Thu Oct 02 2025 15:36:31 GMT-0400 (Eastern Daylight Time),6768917.0,165_m_m_n_a.png,I,None,2016,6,1,3018.0999999046326,6765898.900000095,9031,VNB,A,4
3,test,4,0.0,2-Back,1.0,m,Thu Oct 02 2025 15:36:31 GMT-0400 (Eastern Daylight Time),6771299.900000095,139_m_f_d_a.png,I,m,1355,7,1,2367.9000000953674,6768932.0,9031,VNB,A,5
3,test,4,0.0,2-Back,0.0,z,Thu Oct 02 2025 15:36:31 GMT-0400 (Eastern Daylight Time),6773666.700000048,071_y_f_n_a.png,I,m,1340,8,1,2351.600000023842,6771315.100000024,9031,VNB,A,6
4,test,4,1.0,2-Back,1.0,m,Thu Oct 02 2025 15:36:31 GMT-0400 (Eastern Daylight Time),6775450.0,124_o_f_h_a.png,I,m,733,9,1,1764.7999999523163,6773685.200000048,9031,VNB,A,7
5,test,4,0.0,2-Back,1.0,m,Thu Oct 02 2025 15:36:31 GMT-0400 (Eastern Daylight Time),6777150.0,165_m_m_h_a.png,I,m,679,10,1,1685.0,6775465.0,9031,VNB,A,8
6,test,4,0.0,2-Back,1.0,m,Thu Oct 02 2025 15:36:31 GMT-0400 (Eastern Daylight Time),6779066.400000095,071_y_f_d_a.png,I,m,899,11,1,1902.3000000715256,6777164.100000024,9031,VNB,A,9
7,test,4,0.0,2-Back,1.0,m,Thu Oct 02 2025 15:36:31 GMT-0400 (Eastern Daylight Time),6780816.700000048,109_y_m_n_a.png,I,m,725,12,1,1735.7999999523163,6779080.900000095,9031,VNB,A,10
7,test,4,0.0,2-Back,0.0,z,Thu Oct 02 2025 15:36:31 GMT-0400 (Eastern Daylight Time),6782899.900000095,039_o_m_d_a.png,I,m,1038,13,1,2067.600000023842,6780832.3000000715,9031,VNB,A,11
8,test,4,1.0,2-Back,1.0,m,Thu Oct 02 2025 15:36:31 GMT-0400 (Eastern Daylight Time),6784566.700000048,139_m_f_h_a.png,I,m,636,14,1,1651.1000000238419,6782915.600000024,9031,VNB,A,12
9,test,4,1.0,2-Back,1.0,m,Thu Oct 02 2025 15:36:31 GMT-0400 (Eastern Daylight Time),6786366.700000048,071_y_f_h_a.png,I,m,760,15,1,1783.7000000476837,6784583.0,9031,VNB,A,13
10,test,4,0.0,2-Back,1.0,m,Thu Oct 02 2025 15:36:31 GMT-0400 (Eastern Daylight Time),6788150.0,124_o_f_n_a.png,I,m,754,16,1,1769.0,6786381.0,9031,VNB,A,14
11,test,4,0.0,2-Back,1.0,m,Thu Oct 02 2025 15:36:31 GMT-0400 (Eastern Daylight Time),6789867.5,109_y_m_d_a.png,I,m,699,17,1,1702.5,6788165.0,9031,VNB,A,15
12,test,4,1.0,2-Back,1.0,m,Thu Oct 02 2025 15:36:31 GMT-0400 (Eastern Daylight Time),6791700.0,165_m_m_d_a.png,I,m,788,18,1,1814.0,6789886.0,9031,VNB,A,16
0,test,5,1.0,2-Back,,,Thu Oct 02 2025 15:36:31 GMT-0400 (Eastern Daylight Time),6791700.0,071_y_f_d_a.png,I,space,5179,1,1,1814.0,6789886.0,9031,VNB,A,0
0,test,5,1.0,2-Back,,,Thu Oct 02 2025 15:36:31 GMT-0400 (Eastern Daylight Time),6791700.0,124_o_f_h_a.png,I,space,5179,2,1,1814.0,6789886.0,9031,VNB,A,0
0,test,5,1.0,2-Back,0.0,z,Thu Oct 02 2025 15:36:31 GMT-0400 (Eastern Daylight Time),6805083.8000000715,039_o_m_d_a.png,I,None,2016,3,1,3019.0,6802064.8000000715,9031,VNB,A,1
1,test,5,1.0,2-Back,1.0,m,Thu Oct 02 2025 15:36:31 GMT-0400 (Eastern Daylight Time),6807766.700000048,139_m_f_n_a.png,I,m,1636,4,1,2666.2000000476837,6805100.5,9031,VNB,A,2
1,test,5,0.0,2-Back,0.0,m,Thu Oct 02 2025 15:36:31 GMT-0400 (Eastern Daylight Time),6810299.8000000715,165_m_m_h_a.png,I,z,1514,5,1,2518.100000023842,6807781.700000048,9031,VNB,A,3
1,test,5,0.0,2-Back,0.0,z,Thu Oct 02 2025 15:36:31 GMT-0400 (Eastern Daylight Time),6812616.700000048,071_y_f_n_a.png,I,m,1267,6,1,2299.600000023842,6810317.100000024,9031,VNB,A,4
2,test,5,0.0,2-Back,1.0,m,Thu Oct 02 2025 15:36:31 GMT-0400 (Eastern Daylight Time),6814683.100000024,124_o_f_d_a.png,I,m,1031,7,1,2051.1999999284744,6812631.900000095,9031,VNB,A,5
3,test,5,0.0,2-Back,1.0,m,Thu Oct 02 2025 15:36:31 GMT-0400 (Eastern Daylight Time),6816749.700000048,039_o_m_h_a.png,I,m,1028,8,1,2049.899999976158,6814699.8000000715,9031,VNB,A,6
3,test,5,1.0,2-Back,0.0,z,Thu Oct 02 2025 15:36:31 GMT-0400 (Eastern Daylight Time),6818633.400000095,139_m_f_d_a.png,I,m,851,9,1,1871.3000000715256,6816762.100000024,9031,VNB,A,7
4,test,5,0.0,2-Back,1.0,m,Thu Oct 02 2025 15:36:31 GMT-0400 (Eastern Daylight Time),6820316.8000000715,109_y_m_n_a.png,I,m,645,10,1,1666.1000000238419,6818650.700000048,9031,VNB,A,8
5,test,5,0.0,2-Back,1.0,m,Thu Oct 02 2025 15:36:31 GMT-0400 (Eastern Daylight Time),6822050.0,165_m_m_n_a.png,I,m,690,11,1,1717.5999999046326,6820332.400000095,9031,VNB,A,9
6,test,5,0.0,2-Back,1.0,m,Thu Oct 02 2025 15:36:31 GMT-0400 (Eastern Daylight Time),6823850.8000000715,071_y_f_h_a.png,I,m,782,12,1,1785.6000000238419,6822065.200000048,9031,VNB,A,10
7,test,5,0.0,2-Back,1.0,m,Thu Oct 02 2025 15:36:31 GMT-0400 (Eastern Daylight Time),6825700.100000024,109_y_m_d_a.png,I,m,822,13,1,1835.6999999284744,6823864.400000095,9031,VNB,A,11
7,test,5,1.0,2-Back,0.0,z,Thu Oct 02 2025 15:36:31 GMT-0400 (Eastern Daylight Time),6827550.0,139_m_f_h_a.png,I,m,812,14,1,1834.2999999523163,6825715.700000048,9031,VNB,A,12
8,test,5,0.0,2-Back,1.0,m,Thu Oct 02 2025 15:36:31 GMT-0400 (Eastern Daylight Time),6830083.5,039_o_m_n_a.png,I,m,1507,15,1,2517.5,6827566.0,9031,VNB,A,13
9,test,5,0.0,2-Back,1.0,m,Thu Oct 02 2025 15:36:31 GMT-0400 (Eastern Daylight Time),6831983.400000095,165_m_m_d_a.png,I,m,877,16,1,1884.9000000953674,6830098.5,9031,VNB,A,14
9,test,5,0.0,2-Back,0.0,z,Thu Oct 02 2025 15:36:31 GMT-0400 (Eastern Daylight Time),6833850.3000000715,124_o_f_n_a.png,I,m,833,17,1,1849.8999999761581,6832000.400000095,9031,VNB,A,15
10,test,5,1.0,2-Back,1.0,m,Thu Oct 02 2025 15:36:31 GMT-0400 (Eastern Daylight Time),6835616.8000000715,109_y_m_h_a.png,I,m,742,18,1,1751.6000000238419,6833865.200000048,9031,VNB,A,16
