acc_sum,block,block_c,change,condition,correct,correct_response,datetime,endtime,face,project,response,response_time,row_sel,session_number,start_end,starttime,subject_id,task,task_vers,trial
0,prac,1,,1-Back,,,Wed May 13 2026 12:14:06 GMT-0400 (Eastern Daylight Time),,124_o_f_d_a.png,I,space,17734,1,1,,,9081,VNB,A,0
1,prac,1,0.0,1-Back,1.0,m,Wed May 13 2026 12:14:06 GMT-0400 (Eastern Daylight Time),132758.59999999963,071_y_f_n_a.png,I,m,1586,2,1,2406.2000000001863,130352.39999999944,9081,VNB,A,1
2,prac,1,0.0,1-Back,1.0,m,Wed May 13 2026 12:14:06 GMT-0400 (Eastern Daylight Time),135125.09999999963,165_m_m_h_a.png,I,m,1530,3,1,2355.5999999996275,132769.5,9081,VNB,A,2
3,prac,1,0.0,1-Back,1.0,m,Wed May 13 2026 12:14:06 GMT-0400 (Eastern Daylight Time),136758.5,109_y_m_d_a.png,I,m,795,4,1,1622.5,135136.0,9081,VNB,A,3
4,prac,1,0.0,1-Back,1.0,m,Wed May 13 2026 12:14:06 GMT-0400 (Eastern Daylight Time),138459.69999999925,124_o_f_n_a.png,I,m,823,5,1,1690.199999999255,136769.5,9081,VNB,A,4
5,prac,1,1.0,1-Back,1.0,z,Wed May 13 2026 12:14:06 GMT-0400 (Eastern Daylight Time),140241.69999999925,109_y_m_n_a.png,I,z,949,6,1,1772.699999999255,138469.0,9081,VNB,A,5
6,prac,1,0.0,1-Back,1.0,m,Wed May 13 2026 12:14:06 GMT-0400 (Eastern Daylight Time),142191.69999999925,039_o_m_h_a.png,I,m,1129,7,1,1939.199999999255,140252.5,9081,VNB,A,6
7,prac,1,0.0,1-Back,1.0,m,Wed May 13 2026 12:14:06 GMT-0400 (Eastern Daylight Time),143725.09999999963,139_m_f_d_a.png,I,m,715,8,1,1524.4000000003725,142200.69999999925,9081,VNB,A,7
8,prac,1,1.0,1-Back,1.0,z,Wed May 13 2026 12:14:06 GMT-0400 (Eastern Daylight Time),145458.59999999963,071_y_f_d_a.png,I,z,910,9,1,1723.9000000003725,143734.69999999925,9081,VNB,A,8
9,prac,1,0.0,1-Back,1.0,m,Wed May 13 2026 12:14:06 GMT-0400 (Eastern Daylight Time),147091.7999999998,165_m_m_n_a.png,I,m,808,10,1,1623.7000000001863,145468.09999999963,9081,VNB,A,9
10,prac,1,0.0,1-Back,1.0,m,Wed May 13 2026 12:14:06 GMT-0400 (Eastern Daylight Time),148808.39999999944,124_o_f_h_a.png,I,m,871,11,1,1707.3999999994412,147101.0,9081,VNB,A,10
11,prac,1,0.0,1-Back,1.0,m,Wed May 13 2026 12:14:06 GMT-0400 (Eastern Daylight Time),150274.89999999944,109_y_m_d_a.png,I,m,682,12,1,1455.7000000001863,148819.19999999925,9081,VNB,A,11
0,test,1,0.0,1-Back,,,Wed May 13 2026 12:14:06 GMT-0400 (Eastern Daylight Time),150274.89999999944,071_y_f_d_a.png,I,space,17207,1,1,1455.7000000001863,148819.19999999925,9081,VNB,A,0
1,test,1,0.0,1-Back,1.0,m,Wed May 13 2026 12:14:06 GMT-0400 (Eastern Daylight Time),183641.7999999998,139_m_f_n_a.png,I,m,1829,2,1,2845.7999999998137,180796.0,9081,VNB,A,1
2,test,1,0.0,1-Back,1.0,m,Wed May 13 2026 12:14:06 GMT-0400 (Eastern Daylight Time),185574.89999999944,039_o_m_h_a.png,I,m,915,3,1,1926.2000000001863,183648.69999999925,9081,VNB,A,2
3,test,1,1.0,1-Back,1.0,z,Wed May 13 2026 12:14:06 GMT-0400 (Eastern Daylight Time),187758.2999999998,165_m_m_h_a.png,I,z,1158,4,1,2175.600000000559,185582.69999999925,9081,VNB,A,3
4,test,1,0.0,1-Back,1.0,m,Wed May 13 2026 12:14:06 GMT-0400 (Eastern Daylight Time),189475.09999999963,124_o_f_n_a.png,I,m,694,5,1,1709.0999999996275,187766.0,9081,VNB,A,4
5,test,1,0.0,1-Back,1.0,m,Wed May 13 2026 12:14:06 GMT-0400 (Eastern Daylight Time),191158.59999999963,109_y_m_d_a.png,I,m,666,6,1,1676.7999999998137,189481.7999999998,9081,VNB,A,5
6,test,1,1.0,1-Back,1.0,z,Wed May 13 2026 12:14:06 GMT-0400 (Eastern Daylight Time),193158.39999999944,139_m_f_d_a.png,I,z,967,7,1,1990.8999999994412,191167.5,9081,VNB,A,6
7,test,1,0.0,1-Back,1.0,m,Wed May 13 2026 12:14:06 GMT-0400 (Eastern Daylight Time),195325.09999999963,071_y_f_h_a.png,I,m,1142,8,1,2159.0999999996275,193166.0,9081,VNB,A,7
8,test,1,0.0,1-Back,1.0,m,Wed May 13 2026 12:14:06 GMT-0400 (Eastern Daylight Time),197091.69999999925,039_o_m_n_a.png,I,m,736,9,1,1759.5999999996275,195332.09999999963,9081,VNB,A,8
9,test,1,0.0,1-Back,1.0,m,Wed May 13 2026 12:14:06 GMT-0400 (Eastern Daylight Time),199241.69999999925,109_y_m_h_a.png,I,m,1129,10,1,2143.0999999996275,197098.59999999963,9081,VNB,A,9
10,test,1,0.0,1-Back,1.0,m,Wed May 13 2026 12:14:06 GMT-0400 (Eastern Daylight Time),201541.69999999925,039_o_m_d_a.png,I,m,1267,11,1,2292.199999999255,199249.5,9081,VNB,A,10
11,test,1,1.0,1-Back,1.0,z,Wed May 13 2026 12:14:06 GMT-0400 (Eastern Daylight Time),203675.0,124_o_f_d_a.png,I,z,1103,12,1,2127.9000000003725,201547.09999999963,9081,VNB,A,11
12,test,1,0.0,1-Back,1.0,m,Wed May 13 2026 12:14:06 GMT-0400 (Eastern Daylight Time),205591.69999999925,165_m_m_n_a.png,I,m,898,13,1,1909.5,203682.19999999925,9081,VNB,A,12
13,test,1,1.0,1-Back,1.0,z,Wed May 13 2026 12:14:06 GMT-0400 (Eastern Daylight Time),207691.89999999944,071_y_f_n_a.png,I,z,1069,14,1,2093.7000000001863,205598.19999999925,9081,VNB,A,13
14,test,1,0.0,1-Back,1.0,m,Wed May 13 2026 12:14:06 GMT-0400 (Eastern Daylight Time),209608.19999999925,139_m_f_h_a.png,I,m,897,15,1,1908.2999999998137,207699.89999999944,9081,VNB,A,14
15,test,1,0.0,1-Back,1.0,m,Wed May 13 2026 12:14:06 GMT-0400 (Eastern Daylight Time),211258.39999999944,165_m_m_d_a.png,I,m,628,16,1,1643.5,209614.89999999944,9081,VNB,A,15
16,test,1,0.0,1-Back,1.0,m,Wed May 13 2026 12:14:06 GMT-0400 (Eastern Daylight Time),212808.39999999944,109_y_m_n_a.png,I,m,523,17,1,1543.0999999996275,211265.2999999998,9081,VNB,A,16
17,test,1,0.0,1-Back,1.0,m,Wed May 13 2026 12:14:06 GMT-0400 (Eastern Daylight Time),214758.59999999963,124_o_f_h_a.png,I,m,933,18,1,1941.7999999998137,212816.7999999998,9081,VNB,A,17
0,test,2,0.0,1-Back,,,Wed May 13 2026 12:14:06 GMT-0400 (Eastern Daylight Time),214758.59999999963,109_y_m_n_a.png,I,space,1390,1,1,1941.7999999998137,212816.7999999998,9081,VNB,A,0
1,test,2,0.0,1-Back,1.0,m,Wed May 13 2026 12:14:06 GMT-0400 (Eastern Daylight Time),220475.09999999963,071_y_f_h_a.png,I,m,1270,2,1,2292.4000000003725,218182.69999999925,9081,VNB,A,1
2,test,2,1.0,1-Back,1.0,m,Wed May 13 2026 12:14:06 GMT-0400 (Eastern Daylight Time),222158.69999999925,039_o_m_n_a.png,I,m,666,3,1,1676.7999999998137,220481.89999999944,9081,VNB,A,2
2,test,2,0.0,1-Back,0.0,m,Wed May 13 2026 12:14:06 GMT-0400 (Eastern Daylight Time),224225.09999999963,139_m_f_d_a.png,I,z,1038,4,1,2060.0,222165.09999999963,9081,VNB,A,3
3,test,2,0.0,1-Back,1.0,z,Wed May 13 2026 12:14:06 GMT-0400 (Eastern Daylight Time),226375.0,165_m_m_d_a.png,I,z,1132,5,1,2143.0,224232.0,9081,VNB,A,4
4,test,2,0.0,1-Back,1.0,m,Wed May 13 2026 12:14:06 GMT-0400 (Eastern Daylight Time),228508.7999999998,109_y_m_h_a.png,I,m,1101,6,1,2125.600000000559,226383.19999999925,9081,VNB,A,5
5,test,2,1.0,1-Back,1.0,z,Wed May 13 2026 12:14:06 GMT-0400 (Eastern Daylight Time),230325.09999999963,124_o_f_h_a.png,I,z,784,7,1,1812.4000000003725,228512.69999999925,9081,VNB,A,6
6,test,2,0.0,1-Back,1.0,m,Wed May 13 2026 12:14:06 GMT-0400 (Eastern Daylight Time),232058.39999999944,139_m_f_n_a.png,I,m,712,8,1,1726.3999999994412,230332.0,9081,VNB,A,7
7,test,2,0.0,1-Back,1.0,m,Wed May 13 2026 12:14:06 GMT-0400 (Eastern Daylight Time),233975.89999999944,071_y_f_d_a.png,I,m,899,9,1,1910.7999999998137,232065.09999999963,9081,VNB,A,8
8,test,2,0.0,1-Back,1.0,m,Wed May 13 2026 12:14:06 GMT-0400 (Eastern Daylight Time),236391.89999999944,165_m_m_n_a.png,I,m,1390,10,1,2409.899999999441,233982.0,9081,VNB,A,9
9,test,2,1.0,1-Back,1.0,m,Wed May 13 2026 12:14:06 GMT-0400 (Eastern Daylight Time),238191.59999999963,139_m_f_h_a.png,I,m,781,11,1,1793.0999999996275,236398.5,9081,VNB,A,10
10,test,2,0.0,1-Back,1.0,z,Wed May 13 2026 12:14:06 GMT-0400 (Eastern Daylight Time),240675.09999999963,039_o_m_h_a.png,I,z,1460,12,1,2476.9000000003725,238198.19999999925,9081,VNB,A,11
11,test,2,0.0,1-Back,1.0,m,Wed May 13 2026 12:14:06 GMT-0400 (Eastern Daylight Time),242758.59999999963,109_y_m_d_a.png,I,m,1058,13,1,2080.0999999996275,240678.5,9081,VNB,A,12
12,test,2,0.0,1-Back,1.0,m,Wed May 13 2026 12:14:06 GMT-0400 (Eastern Daylight Time),244358.39999999944,124_o_f_n_a.png,I,m,574,14,1,1593.5999999996275,242764.7999999998,9081,VNB,A,13
13,test,2,0.0,1-Back,1.0,z,Wed May 13 2026 12:14:06 GMT-0400 (Eastern Daylight Time),246275.19999999925,071_y_f_n_a.png,I,z,894,15,1,1908.5,244366.69999999925,9081,VNB,A,14
14,test,2,1.0,1-Back,1.0,m,Wed May 13 2026 12:14:06 GMT-0400 (Eastern Daylight Time),248175.19999999925,165_m_m_h_a.png,I,m,874,16,1,1894.0,246281.19999999925,9081,VNB,A,15
15,test,2,0.0,1-Back,1.0,m,Wed May 13 2026 12:14:06 GMT-0400 (Eastern Daylight Time),249858.5,124_o_f_d_a.png,I,m,662,17,1,1674.7000000001863,248183.7999999998,9081,VNB,A,16
16,test,2,1.0,1-Back,1.0,z,Wed May 13 2026 12:14:06 GMT-0400 (Eastern Daylight Time),251675.19999999925,039_o_m_d_a.png,I,z,787,18,1,1810.199999999255,249865.0,9081,VNB,A,17
0,test,3,1.0,1-Back,,,Wed May 13 2026 12:14:06 GMT-0400 (Eastern Daylight Time),251675.19999999925,124_o_f_h_a.png,I,space,1465,1,1,1810.199999999255,249865.0,9081,VNB,A,0
1,test,3,0.0,1-Back,1.0,m,Wed May 13 2026 12:14:06 GMT-0400 (Eastern Daylight Time),257441.89999999944,139_m_f_d_a.png,I,m,1179,2,1,2193.5999999996275,255248.2999999998,9081,VNB,A,1
2,test,3,1.0,1-Back,1.0,m,Wed May 13 2026 12:14:06 GMT-0400 (Eastern Daylight Time),259341.69999999925,165_m_m_n_a.png,I,m,866,3,1,1893.8999999994412,257447.7999999998,9081,VNB,A,2
3,test,3,0.0,1-Back,1.0,z,Wed May 13 2026 12:14:06 GMT-0400 (Eastern Daylight Time),260958.7999999998,124_o_f_n_a.png,I,z,599,4,1,1612.0,259346.7999999998,9081,VNB,A,3
4,test,3,1.0,1-Back,1.0,m,Wed May 13 2026 12:14:06 GMT-0400 (Eastern Daylight Time),262791.69999999925,039_o_m_d_a.png,I,m,814,5,1,1824.0999999996275,260967.59999999963,9081,VNB,A,4
5,test,3,0.0,1-Back,1.0,m,Wed May 13 2026 12:14:06 GMT-0400 (Eastern Daylight Time),264458.39999999944,071_y_f_h_a.png,I,m,645,6,1,1659.7000000001863,262798.69999999925,9081,VNB,A,5
6,test,3,0.0,1-Back,1.0,z,Wed May 13 2026 12:14:06 GMT-0400 (Eastern Daylight Time),266291.7999999998,109_y_m_h_a.png,I,z,811,7,1,1827.5,264464.2999999998,9081,VNB,A,6
7,test,3,0.0,1-Back,1.0,m,Wed May 13 2026 12:14:06 GMT-0400 (Eastern Daylight Time),268158.7999999998,139_m_f_n_a.png,I,m,849,8,1,1862.5,266296.2999999998,9081,VNB,A,7
8,test,3,0.0,1-Back,1.0,m,Wed May 13 2026 12:14:06 GMT-0400 (Eastern Daylight Time),269758.5999999996,071_y_f_d_a.png,I,m,574,9,1,1593.5,268165.0999999996,9081,VNB,A,8
9,test,3,1.0,1-Back,1.0,m,Wed May 13 2026 12:14:06 GMT-0400 (Eastern Daylight Time),271358.5,039_o_m_n_a.png,I,m,575,10,1,1594.2000000001863,269764.2999999998,9081,VNB,A,9
10,test,3,0.0,1-Back,1.0,m,Wed May 13 2026 12:14:06 GMT-0400 (Eastern Daylight Time),273725.0999999996,165_m_m_h_a.png,I,m,1334,11,1,2359.7000000001863,271365.39999999944,9081,VNB,A,10
11,test,3,0.0,1-Back,1.0,z,Wed May 13 2026 12:14:06 GMT-0400 (Eastern Daylight Time),275458.5,139_m_f_h_a.png,I,z,704,12,1,1726.7000000001863,273731.7999999998,9081,VNB,A,11
12,test,3,1.0,1-Back,1.0,m,Wed May 13 2026 12:14:06 GMT-0400 (Eastern Daylight Time),277675.2999999998,124_o_f_d_a.png,I,m,1194,13,1,2208.5,275466.7999999998,9081,VNB,A,12
13,test,3,0.0,1-Back,1.0,z,Wed May 13 2026 12:14:06 GMT-0400 (Eastern Daylight Time),279575.2999999998,165_m_m_d_a.png,I,z,874,14,1,1893.2999999998137,277682.0,9081,VNB,A,13
14,test,3,0.0,1-Back,1.0,m,Wed May 13 2026 12:14:06 GMT-0400 (Eastern Daylight Time),281442.0,109_y_m_n_a.png,I,m,846,15,1,1860.7000000001863,279581.2999999998,9081,VNB,A,14
15,test,3,1.0,1-Back,1.0,m,Wed May 13 2026 12:14:06 GMT-0400 (Eastern Daylight Time),283608.5999999996,039_o_m_h_a.png,I,m,1147,16,1,2160.9000000003725,281447.69999999925,9081,VNB,A,15
16,test,3,0.0,1-Back,1.0,m,Wed May 13 2026 12:14:06 GMT-0400 (Eastern Daylight Time),285342.0,109_y_m_d_a.png,I,m,709,17,1,1726.7000000001863,283615.2999999998,9081,VNB,A,16
17,test,3,1.0,1-Back,1.0,m,Wed May 13 2026 12:14:06 GMT-0400 (Eastern Daylight Time),286958.5999999996,071_y_f_n_a.png,I,m,591,18,1,1609.0999999996275,285349.5,9081,VNB,A,17
0,test,4,1.0,1-Back,,,Wed May 13 2026 12:14:06 GMT-0400 (Eastern Daylight Time),286958.5999999996,165_m_m_d_a.png,I,space,1598,1,1,1609.0999999996275,285349.5,9081,VNB,A,0
0,test,4,0.0,1-Back,0.0,z,Wed May 13 2026 12:14:06 GMT-0400 (Eastern Daylight Time),293158.89999999944,039_o_m_d_a.png,I,m,1566,2,1,2576.7999999998137,290582.0999999996,9081,VNB,A,1
1,test,4,0.0,1-Back,1.0,m,Wed May 13 2026 12:14:06 GMT-0400 (Eastern Daylight Time),294858.5,109_y_m_h_a.png,I,m,678,3,1,1693.2000000001863,293165.2999999998,9081,VNB,A,2
2,test,4,0.0,1-Back,1.0,m,Wed May 13 2026 12:14:06 GMT-0400 (Eastern Daylight Time),296908.5,139_m_f_n_a.png,I,m,1026,4,1,2041.5,294867.0,9081,VNB,A,3
3,test,4,1.0,1-Back,1.0,m,Wed May 13 2026 12:14:06 GMT-0400 (Eastern Daylight Time),298541.89999999944,124_o_f_h_a.png,I,m,600,5,1,1627.8999999994412,296914.0,9081,VNB,A,4
4,test,4,0.0,1-Back,1.0,m,Wed May 13 2026 12:14:06 GMT-0400 (Eastern Daylight Time),300258.2999999998,165_m_m_n_a.png,I,m,687,6,1,1711.0,298547.2999999998,9081,VNB,A,5
5,test,4,0.0,1-Back,1.0,m,Wed May 13 2026 12:14:06 GMT-0400 (Eastern Daylight Time),301908.5999999996,109_y_m_d_a.png,I,m,618,7,1,1647.2000000001863,300261.39999999944,9081,VNB,A,6
6,test,4,1.0,1-Back,1.0,z,Wed May 13 2026 12:14:06 GMT-0400 (Eastern Daylight Time),303708.69999999925,071_y_f_d_a.png,I,z,768,8,1,1794.3999999994412,301914.2999999998,9081,VNB,A,7
7,test,4,0.0,1-Back,1.0,m,Wed May 13 2026 12:14:06 GMT-0400 (Eastern Daylight Time),305375.39999999944,139_m_f_h_a.png,I,m,648,9,1,1660.2999999998137,303715.0999999996,9081,VNB,A,8
8,test,4,0.0,1-Back,1.0,z,Wed May 13 2026 12:14:06 GMT-0400 (Eastern Daylight Time),306975.0999999996,039_o_m_h_a.png,I,z,581,10,1,1595.0,305380.0999999996,9081,VNB,A,9
9,test,4,1.0,1-Back,1.0,m,Wed May 13 2026 12:14:06 GMT-0400 (Eastern Daylight Time),308942.0,124_o_f_n_a.png,I,m,934,11,1,1959.7000000001863,306982.2999999998,9081,VNB,A,10
10,test,4,0.0,1-Back,1.0,m,Wed May 13 2026 12:14:06 GMT-0400 (Eastern Daylight Time),311891.7999999998,139_m_f_d_a.png,I,m,1919,12,1,2941.600000000559,308950.19999999925,9081,VNB,A,11
11,test,4,0.0,1-Back,1.0,m,Wed May 13 2026 12:14:06 GMT-0400 (Eastern Daylight Time),313525.0999999996,071_y_f_n_a.png,I,m,609,13,1,1627.5999999996275,311897.5,9081,VNB,A,12
12,test,4,0.0,1-Back,1.0,m,Wed May 13 2026 12:14:06 GMT-0400 (Eastern Daylight Time),315225.39999999944,124_o_f_d_a.png,I,m,680,14,1,1694.2999999998137,313531.0999999996,9081,VNB,A,13
13,test,4,0.0,1-Back,1.0,m,Wed May 13 2026 12:14:06 GMT-0400 (Eastern Daylight Time),316808.5999999996,071_y_f_h_a.png,I,m,564,15,1,1576.5999999996275,315232.0,9081,VNB,A,14
14,test,4,1.0,1-Back,1.0,z,Wed May 13 2026 12:14:06 GMT-0400 (Eastern Daylight Time),318408.69999999925,165_m_m_h_a.png,I,z,580,16,1,1592.199999999255,316816.5,9081,VNB,A,15
15,test,4,0.0,1-Back,1.0,m,Wed May 13 2026 12:14:06 GMT-0400 (Eastern Daylight Time),320075.39999999944,039_o_m_n_a.png,I,m,644,17,1,1660.2999999998137,318415.0999999996,9081,VNB,A,16
16,test,4,1.0,1-Back,1.0,z,Wed May 13 2026 12:14:06 GMT-0400 (Eastern Daylight Time),322142.19999999925,109_y_m_n_a.png,I,z,1033,18,1,2060.199999999255,320082.0,9081,VNB,A,17
0,test,5,1.0,1-Back,,,Wed May 13 2026 12:14:06 GMT-0400 (Eastern Daylight Time),322142.19999999925,039_o_m_n_a.png,I,space,1494,1,1,2060.199999999255,320082.0,9081,VNB,A,0
1,test,5,1.0,1-Back,1.0,m,Wed May 13 2026 12:14:06 GMT-0400 (Eastern Daylight Time),328308.5,124_o_f_h_a.png,I,m,1617,2,1,2642.7000000001863,325665.7999999998,9081,VNB,A,1
2,test,5,0.0,1-Back,1.0,m,Wed May 13 2026 12:14:06 GMT-0400 (Eastern Daylight Time),329975.19999999925,109_y_m_d_a.png,I,m,648,3,1,1662.0999999996275,328313.0999999996,9081,VNB,A,2
3,test,5,0.0,1-Back,1.0,z,Wed May 13 2026 12:14:06 GMT-0400 (Eastern Daylight Time),331758.5999999996,039_o_m_d_a.png,I,z,757,4,1,1775.7999999998137,329982.7999999998,9081,VNB,A,3
4,test,5,0.0,1-Back,1.0,m,Wed May 13 2026 12:14:06 GMT-0400 (Eastern Daylight Time),333808.5999999996,139_m_f_h_a.png,I,m,1030,5,1,2044.0999999996275,331764.5,9081,VNB,A,4
5,test,5,0.0,1-Back,1.0,m,Wed May 13 2026 12:14:06 GMT-0400 (Eastern Daylight Time),335475.2999999998,071_y_f_n_a.png,I,m,644,6,1,1658.2000000001863,333817.0999999996,9081,VNB,A,5
6,test,5,1.0,1-Back,1.0,z,Wed May 13 2026 12:14:06 GMT-0400 (Eastern Daylight Time),337225.2999999998,124_o_f_n_a.png,I,z,729,7,1,1745.2000000001863,335480.0999999996,9081,VNB,A,6
7,test,5,0.0,1-Back,1.0,m,Wed May 13 2026 12:14:06 GMT-0400 (Eastern Daylight Time),338992.0999999996,139_m_f_d_a.png,I,m,740,8,1,1759.0,337233.0999999996,9081,VNB,A,7
8,test,5,0.0,1-Back,1.0,m,Wed May 13 2026 12:14:06 GMT-0400 (Eastern Daylight Time),340575.2999999998,109_y_m_h_a.png,I,m,557,9,1,1576.2999999998137,338999.0,9081,VNB,A,8
9,test,5,0.0,1-Back,1.0,m,Wed May 13 2026 12:14:06 GMT-0400 (Eastern Daylight Time),342275.2999999998,071_y_f_d_a.png,I,m,670,10,1,1694.0,340581.2999999998,9081,VNB,A,9
10,test,5,0.0,1-Back,1.0,m,Wed May 13 2026 12:14:06 GMT-0400 (Eastern Daylight Time),344108.5999999996,165_m_m_n_a.png,I,m,809,11,1,1825.5999999996275,342283.0,9081,VNB,A,10
11,test,5,1.0,1-Back,1.0,z,Wed May 13 2026 12:14:06 GMT-0400 (Eastern Daylight Time),346041.69999999925,139_m_f_n_a.png,I,z,911,12,1,1926.2999999998137,344115.39999999944,9081,VNB,A,11
12,test,5,0.0,1-Back,1.0,m,Wed May 13 2026 12:14:06 GMT-0400 (Eastern Daylight Time),347991.89999999944,039_o_m_h_a.png,I,m,931,13,1,1946.7000000001863,346045.19999999925,9081,VNB,A,12
13,test,5,0.0,1-Back,1.0,z,Wed May 13 2026 12:14:06 GMT-0400 (Eastern Daylight Time),349559.0,165_m_m_h_a.png,I,z,550,14,1,1559.1000000005588,347999.89999999944,9081,VNB,A,13
14,test,5,1.0,1-Back,1.0,m,Wed May 13 2026 12:14:06 GMT-0400 (Eastern Daylight Time),351525.5999999996,124_o_f_d_a.png,I,m,934,15,1,1961.7000000001863,349563.89999999944,9081,VNB,A,14
15,test,5,0.0,1-Back,1.0,m,Wed May 13 2026 12:14:06 GMT-0400 (Eastern Daylight Time),353075.19999999925,109_y_m_n_a.png,I,m,528,16,1,1542.7999999998137,351532.39999999944,9081,VNB,A,15
16,test,5,0.0,1-Back,1.0,m,Wed May 13 2026 12:14:06 GMT-0400 (Eastern Daylight Time),355042.19999999925,071_y_f_h_a.png,I,m,945,17,1,1961.0,353081.19999999925,9081,VNB,A,16
17,test,5,0.0,1-Back,1.0,m,Wed May 13 2026 12:14:06 GMT-0400 (Eastern Daylight Time),356642.0999999996,165_m_m_d_a.png,I,m,579,18,1,1593.0999999996275,355049.0,9081,VNB,A,17
0,prac,1,0.0,2-Back,,,Wed May 13 2026 12:14:06 GMT-0400 (Eastern Daylight Time),356642.0999999996,139_m_f_n_a.png,I,space,15008,1,1,1593.0999999996275,355049.0,9081,VNB,A,0
0,prac,1,0.0,2-Back,,,Wed May 13 2026 12:14:06 GMT-0400 (Eastern Daylight Time),356642.0999999996,124_o_f_h_a.png,I,space,15008,2,1,1593.0999999996275,355049.0,9081,VNB,A,0
1,prac,1,0.0,2-Back,1.0,m,Wed May 13 2026 12:14:06 GMT-0400 (Eastern Daylight Time),489792.69999999925,039_o_m_d_a.png,I,m,1656,3,1,2474.899999999441,487317.7999999998,9081,VNB,A,1
2,prac,1,1.0,2-Back,1.0,z,Wed May 13 2026 12:14:06 GMT-0400 (Eastern Daylight Time),492442.5,165_m_m_h_a.png,I,z,1823,4,1,2640.300000000745,489802.19999999925,9081,VNB,A,2
3,prac,1,0.0,2-Back,1.0,m,Wed May 13 2026 12:14:06 GMT-0400 (Eastern Daylight Time),494775.7999999998,071_y_f_n_a.png,I,m,1502,5,1,2323.5,492452.2999999998,9081,VNB,A,3
4,prac,1,1.0,2-Back,1.0,z,Wed May 13 2026 12:14:06 GMT-0400 (Eastern Daylight Time),497092.5999999996,039_o_m_h_a.png,I,z,1489,6,1,2305.0,494787.5999999996,9081,VNB,A,4
4,prac,1,1.0,2-Back,0.0,z,Wed May 13 2026 12:14:06 GMT-0400 (Eastern Daylight Time),499625.7999999998,109_y_m_n_a.png,I,m,1690,7,1,2522.7999999998137,497103.0,9081,VNB,A,5
4,prac,1,0.0,2-Back,0.0,m,Wed May 13 2026 12:14:06 GMT-0400 (Eastern Daylight Time),502459.0,139_m_f_d_a.png,I,None,2014,8,1,2824.800000000745,499634.19999999925,9081,VNB,A,6
5,prac,1,0.0,2-Back,1.0,m,Wed May 13 2026 12:14:06 GMT-0400 (Eastern Daylight Time),505009.19999999925,124_o_f_d_a.png,I,m,1682,9,1,2539.699999999255,502469.5,9081,VNB,A,7
6,prac,1,0.0,2-Back,1.0,m,Wed May 13 2026 12:14:06 GMT-0400 (Eastern Daylight Time),507459.19999999925,165_m_m_h_a.png,I,m,1667,10,1,2441.0,505018.19999999925,9081,VNB,A,8
7,prac,1,1.0,2-Back,1.0,z,Wed May 13 2026 12:14:06 GMT-0400 (Eastern Daylight Time),509442.5999999996,071_y_f_d_a.png,I,z,1151,11,1,1974.7000000001863,507467.89999999944,9081,VNB,A,9
8,prac,1,0.0,2-Back,1.0,m,Wed May 13 2026 12:14:06 GMT-0400 (Eastern Daylight Time),511426.0,039_o_m_n_a.png,I,m,1161,12,1,1973.1000000005588,509452.89999999944,9081,VNB,A,10
0,test,1,0.0,2-Back,,,Wed May 13 2026 12:14:06 GMT-0400 (Eastern Daylight Time),511426.0,109_y_m_h_a.png,I,space,37663,1,1,1973.1000000005588,509452.89999999944,9081,VNB,A,0
0,test,1,0.0,2-Back,,,Wed May 13 2026 12:14:06 GMT-0400 (Eastern Daylight Time),511426.0,124_o_f_n_a.png,I,space,37663,2,1,1973.1000000005588,509452.89999999944,9081,VNB,A,0
1,test,1,0.0,2-Back,1.0,z,Wed May 13 2026 12:14:06 GMT-0400 (Eastern Daylight Time),561809.5,039_o_m_h_a.png,I,z,1304,3,1,2326.800000000745,559482.6999999993,9081,VNB,A,1
2,test,1,0.0,2-Back,1.0,m,Wed May 13 2026 12:14:06 GMT-0400 (Eastern Daylight Time),564559.2999999998,139_m_f_d_a.png,I,m,1725,4,1,2743.7999999998137,561815.5,9081,VNB,A,2
3,test,1,1.0,2-Back,1.0,m,Wed May 13 2026 12:14:06 GMT-0400 (Eastern Daylight Time),567175.8999999994,109_y_m_n_a.png,I,m,1590,5,1,2610.0999999996275,564565.7999999998,9081,VNB,A,3
4,test,1,0.0,2-Back,1.0,z,Wed May 13 2026 12:14:06 GMT-0400 (Eastern Daylight Time),569726.0,071_y_f_d_a.png,I,z,1517,6,1,2541.7000000001863,567184.2999999998,9081,VNB,A,4
4,test,1,0.0,2-Back,0.0,m,Wed May 13 2026 12:14:06 GMT-0400 (Eastern Daylight Time),572759.1999999993,165_m_m_h_a.png,I,None,2016,7,1,3026.199999999255,569733.0,9081,VNB,A,5
5,test,1,1.0,2-Back,1.0,m,Wed May 13 2026 12:14:06 GMT-0400 (Eastern Daylight Time),575659.2999999998,071_y_f_n_a.png,I,m,1879,8,1,2894.7000000001863,572764.5999999996,9081,VNB,A,6
6,test,1,0.0,2-Back,1.0,z,Wed May 13 2026 12:14:06 GMT-0400 (Eastern Daylight Time),577742.8999999994,124_o_f_h_a.png,I,z,1066,9,1,2075.2999999998137,575667.5999999996,9081,VNB,A,7
7,test,1,0.0,2-Back,1.0,m,Wed May 13 2026 12:14:06 GMT-0400 (Eastern Daylight Time),580209.2999999998,039_o_m_d_a.png,I,m,1446,10,1,2459.5,577749.7999999998,9081,VNB,A,8
8,test,1,1.0,2-Back,1.0,m,Wed May 13 2026 12:14:06 GMT-0400 (Eastern Daylight Time),582542.5999999996,165_m_m_d_a.png,I,m,1300,11,1,2326.7000000001863,580215.8999999994,9081,VNB,A,9
9,test,1,0.0,2-Back,1.0,m,Wed May 13 2026 12:14:06 GMT-0400 (Eastern Daylight Time),585009.2999999998,139_m_f_n_a.png,I,m,1439,12,1,2460.2999999998137,582549.0,9081,VNB,A,10
10,test,1,0.0,2-Back,1.0,m,Wed May 13 2026 12:14:06 GMT-0400 (Eastern Daylight Time),587325.8999999994,071_y_f_h_a.png,I,m,1285,13,1,2309.2999999998137,585016.5999999996,9081,VNB,A,11
11,test,1,0.0,2-Back,1.0,z,Wed May 13 2026 12:14:06 GMT-0400 (Eastern Daylight Time),589325.8999999994,165_m_m_n_a.png,I,z,967,14,1,1992.2000000001863,587333.6999999993,9081,VNB,A,12
12,test,1,0.0,2-Back,1.0,m,Wed May 13 2026 12:14:06 GMT-0400 (Eastern Daylight Time),591542.5,109_y_m_d_a.png,I,m,1183,15,1,2210.2000000001863,589332.2999999998,9081,VNB,A,13
13,test,1,1.0,2-Back,1.0,m,Wed May 13 2026 12:14:06 GMT-0400 (Eastern Daylight Time),593893.8999999994,139_m_f_h_a.png,I,m,1318,16,1,2344.7999999998137,591549.0999999996,9081,VNB,A,14
13,test,1,0.0,2-Back,0.0,z,Wed May 13 2026 12:14:06 GMT-0400 (Eastern Daylight Time),595809.1999999993,124_o_f_d_a.png,I,m,888,17,1,1909.0999999996275,593900.0999999996,9081,VNB,A,15
13,test,1,0.0,2-Back,0.0,m,Wed May 13 2026 12:14:06 GMT-0400 (Eastern Daylight Time),598759.1999999993,039_o_m_n_a.png,I,z,1917,18,1,2942.5999999996275,595816.5999999996,9081,VNB,A,16
0,test,2,0.0,2-Back,,,Wed May 13 2026 12:14:06 GMT-0400 (Eastern Daylight Time),598759.1999999993,165_m_m_h_a.png,I,space,3261,1,1,2942.5999999996275,595816.5999999996,9081,VNB,A,0
0,test,2,0.0,2-Back,,,Wed May 13 2026 12:14:06 GMT-0400 (Eastern Daylight Time),598759.1999999993,071_y_f_n_a.png,I,space,3261,2,1,2942.5999999996275,595816.5999999996,9081,VNB,A,0
1,test,2,1.0,2-Back,1.0,z,Wed May 13 2026 12:14:06 GMT-0400 (Eastern Daylight Time),609642.6999999993,124_o_f_h_a.png,I,z,1471,3,1,2492.5999999996275,607150.0999999996,9081,VNB,A,1
2,test,2,0.0,2-Back,1.0,m,Wed May 13 2026 12:14:06 GMT-0400 (Eastern Daylight Time),611825.8999999994,039_o_m_d_a.png,I,m,1162,4,1,2176.0999999996275,609649.7999999998,9081,VNB,A,2
2,test,2,0.0,2-Back,0.0,m,Wed May 13 2026 12:14:06 GMT-0400 (Eastern Daylight Time),614859.5,139_m_f_d_a.png,I,None,2016,5,1,3027.100000000559,611832.3999999994,9081,VNB,A,3
3,test,2,0.0,2-Back,1.0,m,Wed May 13 2026 12:14:06 GMT-0400 (Eastern Daylight Time),617525.8999999994,109_y_m_h_a.png,I,m,1642,6,1,2660.0,614865.8999999994,9081,VNB,A,4
4,test,2,0.0,2-Back,1.0,m,Wed May 13 2026 12:14:06 GMT-0400 (Eastern Daylight Time),619909.3999999994,124_o_f_n_a.png,I,m,1352,7,1,2375.7999999998137,617533.5999999996,9081,VNB,A,5
5,test,2,1.0,2-Back,1.0,z,Wed May 13 2026 12:14:06 GMT-0400 (Eastern Daylight Time),621876.0,039_o_m_h_a.png,I,z,943,8,1,1960.0,619916.0,9081,VNB,A,6
6,test,2,0.0,2-Back,1.0,m,Wed May 13 2026 12:14:06 GMT-0400 (Eastern Daylight Time),623975.5999999996,071_y_f_d_a.png,I,m,1081,9,1,2092.5999999996275,621883.0,9081,VNB,A,7
7,test,2,0.0,2-Back,1.0,m,Wed May 13 2026 12:14:06 GMT-0400 (Eastern Daylight Time),626142.8999999994,109_y_m_d_a.png,I,m,1150,10,1,2164.2999999998137,623978.5999999996,9081,VNB,A,8
8,test,2,0.0,2-Back,1.0,m,Wed May 13 2026 12:14:06 GMT-0400 (Eastern Daylight Time),627993.1999999993,165_m_m_n_a.png,I,m,832,11,1,1844.5999999996275,626148.5999999996,9081,VNB,A,9
9,test,2,0.0,2-Back,1.0,m,Wed May 13 2026 12:14:06 GMT-0400 (Eastern Daylight Time),630476.0,139_m_f_h_a.png,I,m,1452,12,1,2474.600000000559,628001.3999999994,9081,VNB,A,10
10,test,2,1.0,2-Back,1.0,z,Wed May 13 2026 12:14:06 GMT-0400 (Eastern Daylight Time),633042.6999999993,039_o_m_n_a.png,I,z,1545,13,1,2560.399999999441,630482.2999999998,9081,VNB,A,11
10,test,2,0.0,2-Back,0.0,m,Wed May 13 2026 12:14:06 GMT-0400 (Eastern Daylight Time),636076.2999999998,124_o_f_d_a.png,I,None,2017,14,1,3027.100000000559,633049.1999999993,9081,VNB,A,12
10,test,2,0.0,2-Back,0.0,m,Wed May 13 2026 12:14:06 GMT-0400 (Eastern Daylight Time),638525.8999999994,071_y_f_h_a.png,I,z,1425,15,1,2442.2999999998137,636083.5999999996,9081,VNB,A,13
11,test,2,0.0,2-Back,1.0,z,Wed May 13 2026 12:14:06 GMT-0400 (Eastern Daylight Time),641276.0,165_m_m_d_a.png,I,z,1720,16,1,2742.4000000003725,638533.5999999996,9081,VNB,A,14
12,test,2,0.0,2-Back,1.0,m,Wed May 13 2026 12:14:06 GMT-0400 (Eastern Daylight Time),643542.7999999998,109_y_m_n_a.png,I,m,1233,17,1,2260.100000000559,641282.6999999993,9081,VNB,A,15
13,test,2,1.0,2-Back,1.0,m,Wed May 13 2026 12:14:06 GMT-0400 (Eastern Daylight Time),645709.2999999998,139_m_f_n_a.png,I,m,1134,18,1,2158.7999999998137,643550.5,9081,VNB,A,16
0,test,3,1.0,2-Back,,,Wed May 13 2026 12:14:06 GMT-0400 (Eastern Daylight Time),645709.2999999998,039_o_m_n_a.png,I,space,2095,1,1,2158.7999999998137,643550.5,9081,VNB,A,0
0,test,3,1.0,2-Back,,,Wed May 13 2026 12:14:06 GMT-0400 (Eastern Daylight Time),645709.2999999998,124_o_f_d_a.png,I,space,2095,2,1,2158.7999999998137,643550.5,9081,VNB,A,0
1,test,3,0.0,2-Back,1.0,m,Wed May 13 2026 12:14:06 GMT-0400 (Eastern Daylight Time),655242.3999999994,071_y_f_h_a.png,I,m,1361,3,1,2374.5,652867.8999999994,9081,VNB,A,1
2,test,3,0.0,2-Back,1.0,z,Wed May 13 2026 12:14:06 GMT-0400 (Eastern Daylight Time),657159.1999999993,139_m_f_d_a.png,I,z,898,4,1,1913.2999999998137,655245.8999999994,9081,VNB,A,2
3,test,3,1.0,2-Back,1.0,m,Wed May 13 2026 12:14:06 GMT-0400 (Eastern Daylight Time),659559.3999999994,109_y_m_n_a.png,I,m,1373,5,1,2394.0,657165.3999999994,9081,VNB,A,3
4,test,3,0.0,2-Back,1.0,m,Wed May 13 2026 12:14:06 GMT-0400 (Eastern Daylight Time),661842.6999999993,039_o_m_h_a.png,I,m,1254,6,1,2277.899999999441,659564.7999999998,9081,VNB,A,4
4,test,3,0.0,2-Back,0.0,z,Wed May 13 2026 12:14:06 GMT-0400 (Eastern Daylight Time),664876.2999999998,071_y_f_n_a.png,I,None,2016,7,1,3027.9000000003725,661848.3999999994,9081,VNB,A,5
5,test,3,1.0,2-Back,1.0,m,Wed May 13 2026 12:14:06 GMT-0400 (Eastern Daylight Time),667342.5999999996,165_m_m_d_a.png,I,m,1434,8,1,2458.4000000003725,664884.1999999993,9081,VNB,A,6
6,test,3,0.0,2-Back,1.0,m,Wed May 13 2026 12:14:06 GMT-0400 (Eastern Daylight Time),669409.5,109_y_m_d_a.png,I,m,1046,9,1,2060.7000000001863,667348.7999999998,9081,VNB,A,7
7,test,3,0.0,2-Back,1.0,m,Wed May 13 2026 12:14:06 GMT-0400 (Eastern Daylight Time),671292.8999999994,124_o_f_h_a.png,I,m,852,10,1,1874.7000000001863,669418.1999999993,9081,VNB,A,8
8,test,3,1.0,2-Back,1.0,m,Wed May 13 2026 12:14:06 GMT-0400 (Eastern Daylight Time),673192.6999999993,139_m_f_n_a.png,I,m,881,11,1,1893.5999999996275,671299.0999999996,9081,VNB,A,9
9,test,3,1.0,2-Back,1.0,z,Wed May 13 2026 12:14:06 GMT-0400 (Eastern Daylight Time),675776.2999999998,165_m_m_h_a.png,I,z,1557,12,1,2576.2999999998137,673200.0,9081,VNB,A,10
10,test,3,0.0,2-Back,1.0,m,Wed May 13 2026 12:14:06 GMT-0400 (Eastern Daylight Time),677925.6999999993,071_y_f_d_a.png,I,m,1117,13,1,2143.0999999996275,675782.5999999996,9081,VNB,A,11
10,test,3,0.0,2-Back,0.0,m,Wed May 13 2026 12:14:06 GMT-0400 (Eastern Daylight Time),681509.2999999998,124_o_f_n_a.png,I,None,2010,14,1,3580.600000000559,677928.6999999993,9081,VNB,A,12
10,test,3,0.0,2-Back,0.0,z,Wed May 13 2026 12:14:06 GMT-0400 (Eastern Daylight Time),684059.5999999996,039_o_m_d_a.png,I,m,1070,15,1,2087.0999999996275,681972.5,9081,VNB,A,13
11,test,3,1.0,2-Back,1.0,m,Wed May 13 2026 12:14:06 GMT-0400 (Eastern Daylight Time),686142.5,139_m_f_h_a.png,I,m,1063,16,1,2076.100000000559,684066.3999999994,9081,VNB,A,14
12,test,3,0.0,2-Back,1.0,m,Wed May 13 2026 12:14:06 GMT-0400 (Eastern Daylight Time),688959.1999999993,165_m_m_n_a.png,I,m,1798,17,1,2813.5999999996275,686145.5999999996,9081,VNB,A,15
13,test,3,0.0,2-Back,1.0,z,Wed May 13 2026 12:14:06 GMT-0400 (Eastern Daylight Time),691059.5999999996,109_y_m_h_a.png,I,z,1070,18,1,2093.7000000001863,688965.8999999994,9081,VNB,A,16
0,test,4,0.0,2-Back,,,Wed May 13 2026 12:14:06 GMT-0400 (Eastern Daylight Time),691059.5999999996,139_m_f_n_a.png,I,space,1433,1,1,2093.7000000001863,688965.8999999994,9081,VNB,A,0
0,test,4,0.0,2-Back,,,Wed May 13 2026 12:14:06 GMT-0400 (Eastern Daylight Time),691059.5999999996,039_o_m_n_a.png,I,space,1433,2,1,2093.7000000001863,688965.8999999994,9081,VNB,A,0
0,test,4,1.0,2-Back,0.0,m,Wed May 13 2026 12:14:06 GMT-0400 (Eastern Daylight Time),700259.5,109_y_m_h_a.png,I,z,1544,3,1,2556.100000000559,697703.3999999994,9081,VNB,A,1
1,test,4,1.0,2-Back,1.0,m,Wed May 13 2026 12:14:06 GMT-0400 (Eastern Daylight Time),702326.1999999993,124_o_f_d_a.png,I,m,1033,4,1,2059.899999999441,700266.2999999998,9081,VNB,A,2
1,test,4,0.0,2-Back,0.0,z,Wed May 13 2026 12:14:06 GMT-0400 (Eastern Daylight Time),704209.5,039_o_m_h_a.png,I,m,863,5,1,1874.800000000745,702334.6999999993,9081,VNB,A,3
2,test,4,0.0,2-Back,1.0,m,Wed May 13 2026 12:14:06 GMT-0400 (Eastern Daylight Time),706726.2999999998,165_m_m_n_a.png,I,m,1484,6,1,2510.5,704215.7999999998,9081,VNB,A,4
3,test,4,0.0,2-Back,1.0,m,Wed May 13 2026 12:14:06 GMT-0400 (Eastern Daylight Time),709526.3999999994,139_m_f_d_a.png,I,m,1768,7,1,2793.2000000001863,706733.1999999993,9081,VNB,A,5
3,test,4,0.0,2-Back,0.0,z,Wed May 13 2026 12:14:06 GMT-0400 (Eastern Daylight Time),711859.5999999996,071_y_f_n_a.png,I,m,1312,8,1,2326.9000000003725,709532.6999999993,9081,VNB,A,6
4,test,4,1.0,2-Back,1.0,m,Wed May 13 2026 12:14:06 GMT-0400 (Eastern Daylight Time),714076.1999999993,124_o_f_h_a.png,I,m,1194,9,1,2209.899999999441,711866.2999999998,9081,VNB,A,7
5,test,4,0.0,2-Back,1.0,m,Wed May 13 2026 12:14:06 GMT-0400 (Eastern Daylight Time),716209.5,165_m_m_h_a.png,I,m,1113,10,1,2126.300000000745,714083.1999999993,9081,VNB,A,8
6,test,4,0.0,2-Back,1.0,m,Wed May 13 2026 12:14:06 GMT-0400 (Eastern Daylight Time),718176.0,071_y_f_d_a.png,I,m,948,11,1,1960.7000000001863,716215.2999999998,9081,VNB,A,9
7,test,4,0.0,2-Back,1.0,m,Wed May 13 2026 12:14:06 GMT-0400 (Eastern Daylight Time),720326.0999999996,109_y_m_n_a.png,I,m,1126,12,1,2144.2000000001863,718181.8999999994,9081,VNB,A,10
7,test,4,0.0,2-Back,0.0,z,Wed May 13 2026 12:14:06 GMT-0400 (Eastern Daylight Time),722426.1999999993,039_o_m_d_a.png,I,m,1080,13,1,2092.899999999441,720333.2999999998,9081,VNB,A,11
8,test,4,1.0,2-Back,1.0,m,Wed May 13 2026 12:14:06 GMT-0400 (Eastern Daylight Time),724226.0999999996,139_m_f_h_a.png,I,m,772,14,1,1793.5,722432.5999999996,9081,VNB,A,12
9,test,4,1.0,2-Back,1.0,m,Wed May 13 2026 12:14:06 GMT-0400 (Eastern Daylight Time),726709.6999999993,071_y_f_h_a.png,I,m,1451,15,1,2476.699999999255,724233.0,9081,VNB,A,13
10,test,4,0.0,2-Back,1.0,m,Wed May 13 2026 12:14:06 GMT-0400 (Eastern Daylight Time),729309.6999999993,124_o_f_n_a.png,I,m,1576,16,1,2593.199999999255,726716.5,9081,VNB,A,14
11,test,4,0.0,2-Back,1.0,m,Wed May 13 2026 12:14:06 GMT-0400 (Eastern Daylight Time),731626.2999999998,109_y_m_d_a.png,I,m,1288,17,1,2309.9000000003725,729316.3999999994,9081,VNB,A,15
12,test,4,1.0,2-Back,1.0,m,Wed May 13 2026 12:14:06 GMT-0400 (Eastern Daylight Time),733776.2999999998,165_m_m_d_a.png,I,m,1123,18,1,2143.0,731633.2999999998,9081,VNB,A,16
0,test,5,1.0,2-Back,,,Wed May 13 2026 12:14:06 GMT-0400 (Eastern Daylight Time),733776.2999999998,071_y_f_d_a.png,I,space,4157,1,1,2143.0,731633.2999999998,9081,VNB,A,0
0,test,5,1.0,2-Back,,,Wed May 13 2026 12:14:06 GMT-0400 (Eastern Daylight Time),733776.2999999998,124_o_f_h_a.png,I,space,4157,2,1,2143.0,731633.2999999998,9081,VNB,A,0
0,test,5,1.0,2-Back,0.0,z,Wed May 13 2026 12:14:06 GMT-0400 (Eastern Daylight Time),746093.1999999993,039_o_m_d_a.png,I,None,2016,3,1,3025.7999999998137,743067.3999999994,9081,VNB,A,1
1,test,5,1.0,2-Back,1.0,m,Wed May 13 2026 12:14:06 GMT-0400 (Eastern Daylight Time),748209.5,139_m_f_n_a.png,I,m,1097,4,1,2109.800000000745,746099.6999999993,9081,VNB,A,2
2,test,5,0.0,2-Back,1.0,m,Wed May 13 2026 12:14:06 GMT-0400 (Eastern Daylight Time),750809.6999999993,165_m_m_h_a.png,I,m,1580,5,1,2592.399999999441,748217.2999999998,9081,VNB,A,3
3,test,5,0.0,2-Back,1.0,z,Wed May 13 2026 12:14:06 GMT-0400 (Eastern Daylight Time),753393.0,071_y_f_n_a.png,I,z,1556,6,1,2576.5,750816.5,9081,VNB,A,4
4,test,5,0.0,2-Back,1.0,m,Wed May 13 2026 12:14:06 GMT-0400 (Eastern Daylight Time),755693.0,124_o_f_d_a.png,I,m,1277,7,1,2292.0,753401.0,9081,VNB,A,5
5,test,5,0.0,2-Back,1.0,m,Wed May 13 2026 12:14:06 GMT-0400 (Eastern Daylight Time),758126.2999999998,039_o_m_h_a.png,I,m,1409,8,1,2425.600000000559,755700.6999999993,9081,VNB,A,6
5,test,5,1.0,2-Back,0.0,z,Wed May 13 2026 12:14:06 GMT-0400 (Eastern Daylight Time),760609.6999999993,139_m_f_d_a.png,I,m,1455,9,1,2477.199999999255,758132.5,9081,VNB,A,7
6,test,5,0.0,2-Back,1.0,m,Wed May 13 2026 12:14:06 GMT-0400 (Eastern Daylight Time),763559.5,109_y_m_n_a.png,I,m,1923,10,1,2943.600000000559,760615.8999999994,9081,VNB,A,8
6,test,5,0.0,2-Back,0.0,m,Wed May 13 2026 12:14:06 GMT-0400 (Eastern Daylight Time),766593.0999999996,165_m_m_n_a.png,I,None,2016,11,1,3029.0999999996275,763564.0,9081,VNB,A,9
7,test,5,0.0,2-Back,1.0,m,Wed May 13 2026 12:14:06 GMT-0400 (Eastern Daylight Time),768692.8999999994,071_y_f_h_a.png,I,m,1077,12,1,2093.2000000001863,766599.6999999993,9081,VNB,A,10
8,test,5,0.0,2-Back,1.0,m,Wed May 13 2026 12:14:06 GMT-0400 (Eastern Daylight Time),770609.7999999998,109_y_m_d_a.png,I,m,889,13,1,1909.7999999998137,768700.0,9081,VNB,A,11
9,test,5,1.0,2-Back,1.0,z,Wed May 13 2026 12:14:06 GMT-0400 (Eastern Daylight Time),772609.6999999993,139_m_f_h_a.png,I,z,980,14,1,1994.5,770615.1999999993,9081,VNB,A,12
10,test,5,0.0,2-Back,1.0,m,Wed May 13 2026 12:14:06 GMT-0400 (Eastern Daylight Time),774959.5999999996,039_o_m_n_a.png,I,m,1324,15,1,2344.0,772615.5999999996,9081,VNB,A,13
11,test,5,0.0,2-Back,1.0,m,Wed May 13 2026 12:14:06 GMT-0400 (Eastern Daylight Time),777476.3999999994,165_m_m_d_a.png,I,m,1494,16,1,2508.2999999998137,774968.0999999996,9081,VNB,A,14
11,test,5,0.0,2-Back,0.0,z,Wed May 13 2026 12:14:06 GMT-0400 (Eastern Daylight Time),780176.2999999998,124_o_f_n_a.png,I,m,1673,17,1,2692.0,777484.2999999998,9081,VNB,A,15
12,test,5,1.0,2-Back,1.0,m,Wed May 13 2026 12:14:06 GMT-0400 (Eastern Daylight Time),782126.2999999998,109_y_m_h_a.png,I,m,925,18,1,1943.6000000005588,780182.6999999993,9081,VNB,A,16
