acc_sum,block,block_c,condition,correct,correct_response,datetime,endtime,flanker,jitter,project,response,response_test_buffer_response,response_test_target_response,response_time,response_time_test_buffer_response,response_time_test_target_response,row_sel,session_number,start_end,starttime,subject_id,target,task,task_vers,time_test_buffer,time_test_buffer_response,time_test_constants,time_test_flanker,time_test_jitter,time_test_logger,time_test_target,time_test_target_response,time_test_variables,trial
0,prac,1,con,0,z,Mon Feb 23 2026 10:58:13 GMT-0600 (Central Standard Time),147800.40000000596,lime,800,I,None,,,1814,,,5,,4876.9000000059605,142923.5,7760,lime,NF,C,,,,,,,,,,1
0,prac,1,inc,0,z,Mon Feb 23 2026 10:58:13 GMT-0600 (Central Standard Time),152764.90000000596,iron,900,I,None,,,1799,,,6,,4957.4000000059605,147807.5,7760,pear,NF,C,,,,,,,,,,2
0,prac,1,con,0,m,Mon Feb 23 2026 10:58:13 GMT-0600 (Central Standard Time),157830.20000001788,silver,1000,I,None,,,1800,,,11,,5059.9000000059605,152770.30000001192,7760,silver,NF,C,,,,,,,,,,3
0,prac,1,con,0,z,Mon Feb 23 2026 10:58:13 GMT-0600 (Central Standard Time),162694.70000001788,banana,800,I,None,,,1799,,,1,,4858.300000011921,157836.40000000596,7760,banana,NF,C,,,,,,,,,,4
0,prac,1,inc,0,m,Mon Feb 23 2026 10:58:13 GMT-0600 (Central Standard Time),167860.0,plum,1100,I,None,,,1799,,,16,,5160.5,162699.5,7760,lead,NF,C,,,,,,,,,,5
1,prac,1,inc,1,m,Mon Feb 23 2026 10:58:13 GMT-0600 (Central Standard Time),171758.70000001788,raisin,1100,I,m,,,1487,,,12,,3892.5,167866.20000001788,7760,cobalt,NF,C,,,,,,,,,,6
2,prac,1,inc,1,m,Mon Feb 23 2026 10:58:13 GMT-0600 (Central Standard Time),174808.70000001788,cherry,900,I,m,,,847,,,10,,3045.300000011921,171763.40000000596,7760,copper,NF,C,,,,,,,,,,7
3,prac,1,inc,1,z,Mon Feb 23 2026 10:58:13 GMT-0600 (Central Standard Time),178075.80000001192,cobalt,1100,I,z,,,864,,,4,,3260.4000000059605,174815.40000000596,7760,raisin,NF,C,,,,,,,,,,8
4,prac,1,con,1,m,Mon Feb 23 2026 10:58:13 GMT-0600 (Central Standard Time),181088.80000001192,bronze,800,I,m,,,897,,,9,,3005.9000000059605,178082.90000000596,7760,bronze,NF,C,,,,,,,,,,9
5,prac,1,con,1,m,Mon Feb 23 2026 10:58:13 GMT-0600 (Central Standard Time),184270.90000000596,gold,800,I,m,,,1082,,,13,,3176.0,181094.90000000596,7760,gold,NF,C,,,,,,,,,,10
6,prac,1,inc,1,m,Mon Feb 23 2026 10:58:13 GMT-0600 (Central Standard Time),187320.70000001788,pear,900,I,m,,,841,,,14,,3044.5,184276.20000001788,7760,iron,NF,C,,,,,,,,,,11
7,prac,1,inc,1,z,Mon Feb 23 2026 10:58:13 GMT-0600 (Central Standard Time),190341.80000001192,copper,900,I,z,,,816,,,2,,3015.9000000059605,187325.90000000596,7760,cherry,NF,C,,,,,,,,,,12
8,prac,1,con,1,z,Mon Feb 23 2026 10:58:13 GMT-0600 (Central Standard Time),193500.5,kiwi,1000,I,z,,,852,,,7,,3155.0,190345.5,7760,kiwi,NF,C,,,,,,,,,,13
9,prac,1,con,1,m,Mon Feb 23 2026 10:58:13 GMT-0600 (Central Standard Time),196618.30000001192,zinc,1000,I,m,,,805,,,15,,3112.800000011921,193505.5,7760,zinc,NF,C,,,,,,,,,,14
10,prac,1,con,1,z,Mon Feb 23 2026 10:58:13 GMT-0600 (Central Standard Time),199717.59999999404,orange,1000,I,z,,,794,,,3,,3094.899999976158,196622.70000001788,7760,orange,NF,C,,,,,,,,,,15
11,prac,1,inc,1,z,Mon Feb 23 2026 10:58:13 GMT-0600 (Central Standard Time),202865.5,lead,1100,I,z,,,745,,,8,,3141.7999999821186,199723.70000001788,7760,plum,NF,C,,,,,,,,,,16
1,prac,2,inc,1,m,Mon Feb 23 2026 10:58:13 GMT-0600 (Central Standard Time),214648.90000000596,plum,1100,I,m,,,902,,,16,,3314.300000011921,211334.59999999404,7760,lead,NF,C,,,,,,,,,,1
2,prac,2,inc,1,z,Mon Feb 23 2026 10:58:13 GMT-0600 (Central Standard Time),217911.5,lead,1100,I,z,,,873,,,8,,3257.4000000059605,214654.09999999404,7760,plum,NF,C,,,,,,,,,,2
3,prac,2,con,1,z,Mon Feb 23 2026 10:58:13 GMT-0600 (Central Standard Time),220726.5,lime,800,I,z,,,702,,,5,,2808.9000000059605,217917.59999999404,7760,lime,NF,C,,,,,,,,,,3
4,prac,2,inc,1,z,Mon Feb 23 2026 10:58:13 GMT-0600 (Central Standard Time),223660.09999999404,iron,900,I,z,,,738,,,6,,2928.399999976158,220731.70000001788,7760,pear,NF,C,,,,,,,,,,4
5,prac,2,con,1,m,Mon Feb 23 2026 10:58:13 GMT-0600 (Central Standard Time),226707.5,silver,1000,I,m,,,759,,,11,,3043.0999999940395,223664.40000000596,7760,silver,NF,C,,,,,,,,,,5
6,prac,2,inc,1,z,Mon Feb 23 2026 10:58:13 GMT-0600 (Central Standard Time),229839.70000001788,cobalt,1100,I,z,,,731,,,4,,3128.7000000178814,226711.0,7760,raisin,NF,C,,,,,,,,,,6
7,prac,2,con,1,m,Mon Feb 23 2026 10:58:13 GMT-0600 (Central Standard Time),232806.20000001788,zinc,1000,I,m,,,661,,,15,,2959.300000011921,229846.90000000596,7760,zinc,NF,C,,,,,,,,,,7
8,prac,2,con,1,m,Mon Feb 23 2026 10:58:13 GMT-0600 (Central Standard Time),235805.09999999404,bronze,800,I,m,,,889,,,9,,2992.699999988079,232812.40000000596,7760,bronze,NF,C,,,,,,,,,,8
9,prac,2,inc,1,m,Mon Feb 23 2026 10:58:13 GMT-0600 (Central Standard Time),238988.30000001192,raisin,1100,I,m,,,778,,,12,,3177.9000000059605,235810.40000000596,7760,cobalt,NF,C,,,,,,,,,,9
10,prac,2,con,1,z,Mon Feb 23 2026 10:58:13 GMT-0600 (Central Standard Time),241920.5,kiwi,1000,I,z,,,614,,,7,,2928.5,238992.0,7760,kiwi,NF,C,,,,,,,,,,10
11,prac,2,inc,1,m,Mon Feb 23 2026 10:58:13 GMT-0600 (Central Standard Time),244835.30000001192,cherry,900,I,m,,,710,,,10,,2910.5999999940395,241924.70000001788,7760,copper,NF,C,,,,,,,,,,11
12,prac,2,con,1,z,Mon Feb 23 2026 10:58:13 GMT-0600 (Central Standard Time),247769.09999999404,orange,1000,I,z,,,619,,,3,,2927.0,244842.09999999404,7760,orange,NF,C,,,,,,,,,,12
13,prac,2,inc,1,m,Mon Feb 23 2026 10:58:13 GMT-0600 (Central Standard Time),250683.40000000596,pear,900,I,m,,,720,,,14,,2909.0999999940395,247774.30000001192,7760,iron,NF,C,,,,,,,,,,13
14,prac,2,con,1,z,Mon Feb 23 2026 10:58:13 GMT-0600 (Central Standard Time),253401.09999999404,banana,800,I,z,,,609,,,1,,2712.5999999940395,250688.5,7760,banana,NF,C,,,,,,,,,,14
15,prac,2,con,1,m,Mon Feb 23 2026 10:58:13 GMT-0600 (Central Standard Time),256048.90000000596,gold,800,I,m,,,535,,,13,,2642.0,253406.90000000596,7760,gold,NF,C,,,,,,,,,,15
16,prac,2,inc,1,z,Mon Feb 23 2026 10:58:13 GMT-0600 (Central Standard Time),258947.5,copper,900,I,z,,,700,,,2,,2894.2999999821186,256053.20000001788,7760,cherry,NF,C,,,,,,,,,,16
1,test,1,con,1,z,Mon Feb 23 2026 10:58:13 GMT-0600 (Central Standard Time),273410.2000000179,lime,900,I,z,z,None,830,615.0,215.0,34,,2260.2000000178814,271150.0,7760,lime,NF,C,266999,266999,265371,266280,265371,267631,266783,266783,267631,1
2,test,1,inc,1,z,Mon Feb 23 2026 10:58:13 GMT-0600 (Central Standard Time),275393.09999999404,bronze,800,I,z,z,None,634,434.0,200.0,21,,1978.5,273414.59999999404,7760,orange,NF,C,269164,269164,267636,268447,267636,269614,268964,268964,269614,2
3,test,1,inc,1,m,Mon Feb 23 2026 10:58:13 GMT-0600 (Central Standard Time),277774.0,plum,1100,I,m,m,None,758,544.0,214.0,120,,2376.0,275398.0,7760,zinc,NF,C,271446,271446,269619,270730,269619,271995,271231,271231,271995,3
4,test,1,inc,1,z,Mon Feb 23 2026 10:58:13 GMT-0600 (Central Standard Time),280073.90000000596,lead,1100,I,z,z,None,657,457.0,200.0,48,,2296.800000011921,277777.09999999404,7760,pear,NF,C,273830,273830,271998,273112,271998,274295,273629,273629,274295,4
5,test,1,inc,1,z,Mon Feb 23 2026 10:58:13 GMT-0600 (Central Standard Time),282156.59999999404,zinc,1000,I,z,z,None,549,349.0,200.0,39,,2078.5999999940395,280078.0,7760,lime,NF,C,276028,276028,274299,275312,274299,276378,275828,275828,276378,5
6,test,1,con,1,z,Mon Feb 23 2026 10:58:13 GMT-0600 (Central Standard Time),284772.0,pear,900,I,z,z,None,1178,978.0,200.0,42,,2612.0,282160.0,7760,pear,NF,C,278011,278011,276381,277295,276381,278993,277811,277811,278993,6
7,test,1,con,1,m,Mon Feb 23 2026 10:58:13 GMT-0600 (Central Standard Time),287104.7000000179,silver,1100,I,m,m,None,684,484.0,200.0,84,,2327.100000023842,284777.59999999404,7760,silver,NF,C,280826,280826,278999,280111,278999,281326,280626,280626,281326,7
8,test,1,inc,1,m,Mon Feb 23 2026 10:58:13 GMT-0600 (Central Standard Time),289307.59999999404,cherry,900,I,m,m,None,767,566.0,201.0,94,,2199.5,287108.09999999404,7760,cobalt,NF,C,282961,282961,281329,282244,281329,283529,282760,282760,283529,8
9,test,1,inc,1,m,Mon Feb 23 2026 10:58:13 GMT-0600 (Central Standard Time),291553.90000000596,kiwi,1000,I,m,m,None,716,515.0,201.0,111,,2242.5,289311.40000000596,7760,iron,NF,C,285259,285259,283532,284543,283533,285775,285057,285057,285775,9
10,test,1,con,1,z,Mon Feb 23 2026 10:58:13 GMT-0600 (Central Standard Time),293836.40000000596,lime,1000,I,z,z,None,764,563.0,201.0,35,,2277.800000011921,291558.59999999404,7760,lime,NF,C,287492,287492,285780,286790,285780,288057,287291,287291,288057,10
11,test,1,con,1,z,Mon Feb 23 2026 10:58:13 GMT-0600 (Central Standard Time),296053.40000000596,pear,1100,I,z,z,None,581,381.0,200.0,44,,2212.0,293841.40000000596,7760,pear,NF,C,289890,289890,288062,289174,288063,290274,289690,289690,290274,11
12,test,1,con,1,z,Mon Feb 23 2026 10:58:13 GMT-0600 (Central Standard Time),298251.90000000596,cherry,1100,I,z,z,None,554,338.0,216.0,12,,2192.5999999940395,296059.3000000119,7760,cherry,NF,C,292124,292124,290280,291390,290281,292473,291908,291908,292473,12
13,test,1,con,1,m,Mon Feb 23 2026 10:58:13 GMT-0600 (Central Standard Time),300250.90000000596,gold,800,I,m,m,None,658,458.0,200.0,97,,1991.800000011921,298259.09999999404,7760,gold,NF,C,294005,294005,292480,293290,292480,294472,293805,293805,294472,13
14,test,1,con,1,z,Mon Feb 23 2026 10:58:13 GMT-0600 (Central Standard Time),302234.09999999404,lime,800,I,z,z,None,633,418.0,215.0,33,,1977.8999999761581,300256.2000000179,7760,lime,NF,C,296022,296022,294477,295289,294478,296455,295805,295806,296455,14
15,test,1,inc,1,z,Mon Feb 23 2026 10:58:13 GMT-0600 (Central Standard Time),304450.2000000179,silver,1000,I,z,z,None,673,474.0,199.0,31,,2210.7000000178814,302239.5,7760,raisin,NF,C,298187,298188,296461,297475,296461,298671,297988,297988,298671,15
16,test,1,con,1,z,Mon Feb 23 2026 10:58:13 GMT-0600 (Central Standard Time),306282.3000000119,orange,800,I,z,z,None,498,299.0,199.0,17,,1828.0,304454.3000000119,7760,orange,NF,C,300204,300204,298675,299488,298676,300503,300004,300004,300503,16
17,test,1,con,1,m,Mon Feb 23 2026 10:58:13 GMT-0600 (Central Standard Time),308531.5,copper,1100,I,m,m,None,604,402.0,202.0,76,,2246.0,306285.5,7760,copper,NF,C,302340,302340,300507,301619,300507,302753,302138,302138,302753,17
18,test,1,inc,1,m,Mon Feb 23 2026 10:58:13 GMT-0600 (Central Standard Time),310848.8000000119,plum,1100,I,m,m,None,669,469.0,200.0,104,,2309.5999999940395,308539.2000000179,7760,gold,NF,C,304586,304586,302760,303869,302761,305070,304386,304386,305070,18
19,test,1,inc,1,m,Mon Feb 23 2026 10:58:13 GMT-0600 (Central Standard Time),312880.59999999404,cherry,900,I,m,m,None,607,393.0,214.0,78,,2023.7999999821186,310856.8000000119,7760,copper,NF,C,306702,306702,305078,305985,305078,307102,306487,306487,307102,19
20,test,1,inc,1,m,Mon Feb 23 2026 10:58:13 GMT-0600 (Central Standard Time),314980.0,pear,900,I,m,m,None,664,465.0,199.0,126,,2092.699999988079,312887.3000000119,7760,lead,NF,C,308735,308735,307108,308018,307109,309201,308534,308535,309201,20
21,test,1,con,1,z,Mon Feb 23 2026 10:58:13 GMT-0600 (Central Standard Time),317078.5,plum,900,I,z,z,None,660,461.0,199.0,58,,2092.5,314986.0,7760,plum,NF,C,310834,310834,309207,310117,309207,311300,310634,310634,311300,21
22,test,1,con,1,m,Mon Feb 23 2026 10:58:13 GMT-0600 (Central Standard Time),319344.5,zinc,1100,I,m,m,None,638,424.0,214.0,116,,2258.0999999940395,317086.40000000596,7760,zinc,NF,C,313134,313134,311307,312417,311308,313566,312919,312919,313565,22
23,test,1,inc,1,m,Mon Feb 23 2026 10:58:13 GMT-0600 (Central Standard Time),321694.8000000119,kiwi,1000,I,m,m,None,802,603.0,199.0,119,,2342.0999999940395,319352.7000000179,7760,zinc,NF,C,315299,315299,313574,314583,313574,315916,315099,315099,315916,23
24,test,1,inc,1,z,Mon Feb 23 2026 10:58:13 GMT-0600 (Central Standard Time),323927.59999999404,cobalt,1100,I,z,z,None,585,386.0,199.0,16,,2229.199999988079,321698.40000000596,7760,cherry,NF,C,317748,317748,315919,317032,315920,318149,317548,317548,318149,24
25,test,1,inc,1,m,Mon Feb 23 2026 10:58:13 GMT-0600 (Central Standard Time),326226.3000000119,plum,1100,I,m,m,None,658,459.0,199.0,112,,2291.9000000059605,323934.40000000596,7760,iron,NF,C,319980,319980,318155,319264,318156,320447,319781,319781,320447,25
26,test,1,con,1,z,Mon Feb 23 2026 10:58:13 GMT-0600 (Central Standard Time),328291.59999999404,raisin,900,I,z,z,None,628,428.0,200.0,26,,2060.899999976158,326230.7000000179,7760,raisin,NF,C,322082,322082,320452,321365,320452,322513,321881,321881,322513,26
27,test,1,con,1,m,Mon Feb 23 2026 10:58:13 GMT-0600 (Central Standard Time),330224.59999999404,bronze,900,I,m,m,None,493,292.0,201.0,66,,1928.2999999821186,328296.3000000119,7760,bronze,NF,C,324146,324146,322517,323430,322518,324446,323945,323945,324446,27
28,test,1,inc,1,m,Mon Feb 23 2026 10:58:13 GMT-0600 (Central Standard Time),332540.90000000596,kiwi,1000,I,m,m,None,772,572.0,200.0,103,,2311.800000011921,330229.09999999404,7760,gold,NF,C,326178,326178,324450,325463,324450,326762,325978,325978,326762,28
29,test,1,inc,1,z,Mon Feb 23 2026 10:58:13 GMT-0600 (Central Standard Time),334890.0,cobalt,1100,I,z,z,None,721,507.0,214.0,24,,2345.0999999940395,332544.90000000596,7760,orange,NF,C,328595,328595,326766,327878,326766,329111,328381,328381,329111,29
30,test,1,con,1,m,Mon Feb 23 2026 10:58:13 GMT-0600 (Central Standard Time),337156.09999999404,gold,1100,I,m,m,None,630,431.0,199.0,100,,2263.0,334893.09999999404,7760,gold,NF,C,330944,330944,329114,330230,329114,331377,330745,330745,331377,30
31,test,1,con,1,z,Mon Feb 23 2026 10:58:13 GMT-0600 (Central Standard Time),339288.0,kiwi,900,I,z,z,None,683,467.0,216.0,50,,2128.7999999821186,337159.2000000179,7760,kiwi,NF,C,333027,333027,331380,332294,331380,333509,332811,332811,333509,31
32,test,1,con,1,z,Mon Feb 23 2026 10:58:13 GMT-0600 (Central Standard Time),341354.5,raisin,800,I,z,z,None,746,531.0,215.0,25,,2061.2999999821186,339293.2000000179,7760,raisin,NF,C,335042,335043,333514,334326,333515,335576,334827,334827,335576,32
33,test,1,con,1,z,Mon Feb 23 2026 10:58:13 GMT-0600 (Central Standard Time),343287.09999999404,plum,800,I,z,z,None,593,393.0,200.0,57,,1930.0999999940395,341357.0,7760,plum,NF,C,337109,337109,335578,336394,335578,337508,336908,336908,337508,33
34,test,1,inc,1,z,Mon Feb 23 2026 10:58:13 GMT-0600 (Central Standard Time),345469.8000000119,cobalt,1100,I,z,z,None,537,337.0,200.0,8,,2179.5,343290.3000000119,7760,banana,NF,C,339342,339342,337511,338625,337512,339691,339142,339142,339691,34
35,test,1,inc,1,m,Mon Feb 23 2026 10:58:13 GMT-0600 (Central Standard Time),347536.40000000596,pear,900,I,m,m,None,626,426.0,200.0,102,,2063.300000011921,345473.09999999404,7760,gold,NF,C,341325,341325,339694,340608,339694,341758,341125,341125,341757,35
36,test,1,inc,1,z,Mon Feb 23 2026 10:58:13 GMT-0600 (Central Standard Time),349585.5,copper,900,I,z,z,None,600,401.0,199.0,14,,2044.7999999821186,347540.7000000179,7760,cherry,NF,C,343391,343391,341762,342674,341762,343807,343191,343191,343807,36
37,test,1,con,1,m,Mon Feb 23 2026 10:58:13 GMT-0600 (Central Standard Time),351585.2000000179,copper,800,I,m,m,None,673,459.0,214.0,73,,1995.7000000178814,349589.5,7760,copper,NF,C,345340,345340,343811,344623,343811,345806,345125,345125,345806,37
38,test,1,inc,1,m,Mon Feb 23 2026 10:58:13 GMT-0600 (Central Standard Time),353916.40000000596,raisin,1100,I,m,m,None,702,488.0,214.0,88,,2327.9000000059605,351588.5,7760,silver,NF,C,347637,347638,345810,346922,345810,348137,347423,347423,348137,38
39,test,1,con,1,m,Mon Feb 23 2026 10:58:13 GMT-0600 (Central Standard Time),356050.2000000179,zinc,1000,I,m,m,None,607,391.0,216.0,115,,2129.800000011921,353920.40000000596,7760,zinc,NF,C,349872,349872,348141,349155,348142,350271,349656,349656,350271,39
40,test,1,con,1,z,Mon Feb 23 2026 10:58:13 GMT-0600 (Central Standard Time),358181.8000000119,plum,1000,I,z,z,None,593,394.0,199.0,59,,2129.0,356052.8000000119,7760,plum,NF,C,352005,352005,350274,351287,350274,352403,351805,351805,352403,40
41,test,1,con,1,z,Mon Feb 23 2026 10:58:13 GMT-0600 (Central Standard Time),360164.8000000119,orange,900,I,z,z,None,537,337.0,200.0,18,,1978.7000000178814,358186.09999999404,7760,orange,NF,C,354037,354037,352407,353321,352407,354386,353836,353836,354386,41
42,test,1,con,1,m,Mon Feb 23 2026 10:58:13 GMT-0600 (Central Standard Time),362297.40000000596,cobalt,900,I,m,m,None,689,490.0,199.0,90,,2128.699999988079,360168.7000000179,7760,cobalt,NF,C,356019,356019,354390,355303,354390,356518,355820,355820,356518,42
43,test,1,inc,1,m,Mon Feb 23 2026 10:58:13 GMT-0600 (Central Standard Time),364265.09999999404,banana,800,I,m,m,None,626,426.0,200.0,77,,1965.199999988079,362299.90000000596,7760,copper,NF,C,358053,358053,356521,357338,356521,358486,357851,357852,358486,43
44,test,1,inc,1,z,Mon Feb 23 2026 10:58:13 GMT-0600 (Central Standard Time),366329.90000000596,iron,900,I,z,z,None,633,433.0,200.0,54,,2061.0,364268.90000000596,7760,kiwi,NF,C,360118,360118,358490,359402,358490,360551,359918,359918,360551,44
45,test,1,con,1,z,Mon Feb 23 2026 10:58:13 GMT-0600 (Central Standard Time),368546.59999999404,banana,1100,I,z,z,None,574,373.0,201.0,4,,2211.5,366335.09999999404,7760,banana,NF,C,362385,362386,360556,361669,360556,362768,362184,362184,362768,45
46,test,1,inc,1,m,Mon Feb 23 2026 10:58:13 GMT-0600 (Central Standard Time),370495.0,banana,800,I,m,m,None,608,408.0,200.0,85,,1944.2999999821186,368550.7000000179,7760,silver,NF,C,364301,364301,362772,363586,362772,364716,364100,364100,364716,46
47,test,1,inc,1,m,Mon Feb 23 2026 10:58:13 GMT-0600 (Central Standard Time),372627.7000000179,cherry,900,I,m,m,None,687,488.0,199.0,70,,2129.9000000059605,370497.8000000119,7760,bronze,NF,C,366350,366350,364719,365635,364719,366849,366150,366150,366849,47
48,test,1,con,1,m,Mon Feb 23 2026 10:58:13 GMT-0600 (Central Standard Time),374742.8000000119,cobalt,1000,I,m,m,None,569,368.0,201.0,91,,2112.2000000178814,372630.59999999404,7760,cobalt,NF,C,368582,368582,366852,367866,366852,368964,368381,368381,368964,48
49,test,1,inc,1,z,Mon Feb 23 2026 10:58:13 GMT-0600 (Central Standard Time),376759.40000000596,copper,900,I,z,z,None,577,375.0,202.0,6,,2013.5,374745.90000000596,7760,banana,NF,C,370599,370599,368967,369881,368967,370980,370397,370397,370980,49
50,test,1,con,1,z,Mon Feb 23 2026 10:58:13 GMT-0600 (Central Standard Time),378895.0,lime,1100,I,z,z,None,493,278.0,215.0,36,,2132.699999988079,376762.3000000119,7760,lime,NF,C,372832,372832,370983,372098,370983,373116,372617,372617,373116,50
51,test,1,inc,1,z,Mon Feb 23 2026 10:58:13 GMT-0600 (Central Standard Time),381058.90000000596,silver,1000,I,z,z,None,633,434.0,199.0,7,,2155.0,378903.90000000596,7760,banana,NF,C,374846,374846,373125,374130,373125,375280,374647,374647,375280,51
52,test,1,con,1,m,Mon Feb 23 2026 10:58:13 GMT-0600 (Central Standard Time),383025.0,cobalt,800,I,m,m,None,630,416.0,214.0,89,,1961.5999999940395,381063.40000000596,7760,cobalt,NF,C,376813,376814,375284,376095,375285,377246,376599,376599,377246,52
53,test,1,inc,1,z,Mon Feb 23 2026 10:58:13 GMT-0600 (Central Standard Time),385174.59999999404,gold,800,I,z,z,None,819,602.0,217.0,61,,2145.0,383029.59999999404,7760,plum,NF,C,378780,378780,377251,378062,377251,379396,378563,378563,379396,53
54,test,1,con,1,m,Mon Feb 23 2026 10:58:13 GMT-0600 (Central Standard Time),387373.2000000179,silver,1000,I,m,m,None,662,461.0,201.0,83,,2195.2000000178814,385178.0,7760,silver,NF,C,381129,381129,379399,380412,379399,381594,380928,380928,381594,54
55,test,1,inc,1,z,Mon Feb 23 2026 10:58:13 GMT-0600 (Central Standard Time),389422.90000000596,iron,900,I,z,z,None,603,402.0,201.0,46,,2045.9000000059605,387377.0,7760,pear,NF,C,383228,383228,381598,382511,381598,383644,383027,383027,383644,55
56,test,1,inc,1,z,Mon Feb 23 2026 10:58:13 GMT-0600 (Central Standard Time),391238.2000000179,gold,800,I,z,z,None,477,276.0,201.0,45,,1811.6000000238419,389426.59999999404,7760,pear,NF,C,385178,385178,383648,384460,383648,385459,384976,384976,385459,56
57,test,1,con,1,z,Mon Feb 23 2026 10:58:13 GMT-0600 (Central Standard Time),393555.5,orange,1100,I,z,z,None,682,483.0,199.0,20,,2313.2999999821186,391242.2000000179,7760,orange,NF,C,387293,387293,385463,386577,385464,387777,387093,387093,387777,57
58,test,1,con,1,z,Mon Feb 23 2026 10:58:13 GMT-0600 (Central Standard Time),395770.5,kiwi,1100,I,z,z,None,582,383.0,199.0,52,,2210.0999999940395,393560.40000000596,7760,kiwi,NF,C,389608,389608,387781,388893,387782,389992,389409,389409,389992,58
58,test,1,con,0,z,Mon Feb 23 2026 10:58:13 GMT-0600 (Central Standard Time),399102.5,kiwi,800,I,None,None,None,1799,1799.0,199.0,49,,3327.0,395775.5,7760,kiwi,NF,C,391525,391525,389997,390808,389997,393324,391325,391325,393324,59
58,test,1,con,0,z,Mon Feb 23 2026 10:58:13 GMT-0600 (Central Standard Time),402734.0,plum,1100,I,None,None,None,1815,1815.0,199.0,60,,3629.0,399105.0,7760,plum,NF,C,395140,395140,393326,394440,393326,396955,394941,394941,396955,60
58,test,1,con,0,z,Mon Feb 23 2026 10:58:13 GMT-0600 (Central Standard Time),406250.3000000119,cherry,1000,I,None,None,None,1799,1799.0,199.0,11,,3513.0,402737.3000000119,7760,cherry,NF,C,398672,398672,396958,397972,396959,400471,398473,398473,400471,61
58,test,1,con,0,m,Mon Feb 23 2026 10:58:13 GMT-0600 (Central Standard Time),409584.5,zinc,800,I,None,None,None,1801,1801.0,199.0,113,,3331.699999988079,406252.8000000119,7760,zinc,NF,C,402005,402005,400474,401288,400474,403806,401805,401805,403806,62
58,test,1,inc,0,z,Mon Feb 23 2026 10:58:13 GMT-0600 (Central Standard Time),412931.40000000596,bronze,800,I,None,None,None,1815,1815.0,200.0,29,,3343.0999999940395,409588.3000000119,7760,raisin,NF,C,405337,405337,403809,404621,403810,407152,405136,405136,407152,63
58,test,1,inc,0,z,Mon Feb 23 2026 10:58:13 GMT-0600 (Central Standard Time),416263.7000000179,bronze,800,I,None,None,None,1815,1815.0,199.0,13,,3325.300000011921,412938.40000000596,7760,cherry,NF,C,408670,408670,407159,407969,407160,410485,408470,408470,410485,64
58,test,1,inc,0,z,Mon Feb 23 2026 10:58:13 GMT-0600 (Central Standard Time),419813.8000000119,zinc,1000,I,None,None,None,1815,1815.0,202.0,55,,3543.0999999940395,416270.7000000179,7760,kiwi,NF,C,412220,412220,410492,411502,410492,414035,412017,412017,414035,65
58,test,1,inc,0,m,Mon Feb 23 2026 10:58:13 GMT-0600 (Central Standard Time),423345.09999999404,orange,1000,I,None,None,None,1799,1799.0,199.0,79,,3521.0999999940395,419824.0,7760,copper,NF,C,415767,415767,414045,415051,414045,417566,415568,415568,417566,66
58,test,1,con,0,z,Mon Feb 23 2026 10:58:13 GMT-0600 (Central Standard Time),426777.5,cherry,900,I,None,None,None,1799,1799.0,199.0,10,,3426.9000000059605,423350.59999999404,7760,cherry,NF,C,419199,419199,417572,418482,417572,420999,419000,419000,420998,67
58,test,1,inc,0,z,Mon Feb 23 2026 10:58:13 GMT-0600 (Central Standard Time),430309.5,zinc,1000,I,None,None,None,1799,1799.0,199.0,63,,3525.0,426784.5,7760,plum,NF,C,422731,422731,421006,422015,421006,424531,422531,422531,424530,68
58,test,1,inc,0,m,Mon Feb 23 2026 10:58:13 GMT-0600 (Central Standard Time),433642.59999999404,lime,800,I,None,None,None,1799,1799.0,202.0,117,,3327.199999988079,430315.40000000596,7760,zinc,NF,C,426065,426065,424536,425348,424537,427864,425863,425863,427864,69
58,test,1,con,0,z,Mon Feb 23 2026 10:58:13 GMT-0600 (Central Standard Time),436990.40000000596,banana,800,I,None,None,None,1814,1814.0,201.0,1,,3341.800000011921,433648.59999999404,7760,banana,NF,C,429397,429397,427870,428680,427870,431211,429196,429196,431211,70
58,test,1,con,0,m,Mon Feb 23 2026 10:58:13 GMT-0600 (Central Standard Time),440423.2000000179,copper,900,I,None,None,None,1815,1815.0,201.0,74,,3425.100000023842,436998.09999999404,7760,copper,NF,C,432829,432829,431219,432127,431219,434644,432628,432628,434644,71
58,test,1,con,0,z,Mon Feb 23 2026 10:58:13 GMT-0600 (Central Standard Time),443888.09999999404,banana,900,I,None,None,None,1815,1815.0,216.0,2,,3459.5,440428.59999999404,7760,banana,NF,C,436294,436294,434650,435561,434650,438109,436078,436078,438109,72
58,test,1,inc,0,z,Mon Feb 23 2026 10:58:13 GMT-0600 (Central Standard Time),447422.5,zinc,1000,I,None,None,None,1800,1800.0,200.0,47,,3530.5,443892.0,7760,pear,NF,C,439843,439843,438113,439128,438113,441644,439643,439643,441644,73
58,test,1,con,0,m,Mon Feb 23 2026 10:58:13 GMT-0600 (Central Standard Time),451070.40000000596,lead,1100,I,None,None,None,1815,1815.0,200.0,124,,3643.4000000059605,447427.0,7760,lead,NF,C,443476,443476,441648,442760,441648,445291,443275,443275,445291,74
58,test,1,inc,0,m,Mon Feb 23 2026 10:58:13 GMT-0600 (Central Standard Time),454618.7000000179,orange,1000,I,None,None,None,1815,1815.0,201.0,87,,3541.300000011921,451077.40000000596,7760,silver,NF,C,447025,447025,445298,446308,445299,448840,446824,446824,448840,75
58,test,1,con,0,z,Mon Feb 23 2026 10:58:13 GMT-0600 (Central Standard Time),458166.90000000596,raisin,1000,I,None,None,None,1799,1799.0,215.0,27,,3542.300000011921,454624.59999999404,7760,raisin,NF,C,450589,450589,448846,449857,448846,452388,450374,450374,452388,76
58,test,1,con,0,m,Mon Feb 23 2026 10:58:13 GMT-0600 (Central Standard Time),461516.5,iron,800,I,None,None,None,1814,1814.0,200.0,105,,3342.699999988079,458173.8000000119,7760,iron,NF,C,453923,453923,452395,453205,452395,455738,453722,453722,455738,77
58,test,1,inc,0,z,Mon Feb 23 2026 10:58:13 GMT-0600 (Central Standard Time),464965.90000000596,iron,900,I,None,None,None,1801,1801.0,215.0,62,,3445.699999988079,461520.2000000179,7760,plum,NF,C,457386,457386,455741,456654,455742,459187,457171,457171,459187,78
58,test,1,con,0,z,Mon Feb 23 2026 10:58:13 GMT-0600 (Central Standard Time),468298.2000000179,cherry,800,I,None,None,None,1800,1800.0,200.0,9,,3326.4000000059605,464971.8000000119,7760,cherry,NF,C,460719,460719,459193,460004,459193,462519,460519,460519,462519,79
58,test,1,inc,0,m,Mon Feb 23 2026 10:58:13 GMT-0600 (Central Standard Time),471646.59999999404,lime,800,I,None,None,None,1815,1815.0,201.0,109,,3345.0,468301.59999999404,7760,iron,NF,C,464052,464053,462523,463335,462523,465868,463851,463851,465868,80
58,test,1,inc,0,z,Mon Feb 23 2026 10:58:13 GMT-0600 (Central Standard Time),475278.3000000119,lead,1100,I,None,None,None,1799,1799.0,210.0,56,,3628.5,471649.8000000119,7760,kiwi,NF,C,467700,467700,465871,466985,465871,469499,467489,467489,469499,81
58,test,1,inc,0,m,Mon Feb 23 2026 10:58:13 GMT-0600 (Central Standard Time),478943.59999999404,raisin,1100,I,None,None,None,1815,1815.0,215.0,80,,3660.699999988079,475282.90000000596,7760,copper,NF,C,471350,471350,469504,470616,469504,473165,471134,471134,473165,82
58,test,1,con,0,z,Mon Feb 23 2026 10:58:13 GMT-0600 (Central Standard Time),482478.09999999404,orange,1000,I,None,None,None,1800,1800.0,201.0,19,,3530.0999999940395,478948.0,7760,orange,NF,C,474899,474899,473169,474181,473169,476699,474698,474698,476699,83
58,test,1,con,0,z,Mon Feb 23 2026 10:58:13 GMT-0600 (Central Standard Time),486042.59999999404,pear,1000,I,None,None,None,1815,1815.0,217.0,43,,3559.0999999940395,482483.5,7760,pear,NF,C,478449,478449,476705,477714,476705,480264,478231,478231,480264,84
58,test,1,con,0,m,Mon Feb 23 2026 10:58:13 GMT-0600 (Central Standard Time),489589.8000000119,bronze,1000,I,None,None,None,1815,1815.0,201.0,67,,3542.9000000059605,486046.90000000596,7760,bronze,NF,C,481996,481996,480268,481282,480268,483811,481795,481795,483811,85
58,test,1,inc,0,m,Mon Feb 23 2026 10:58:13 GMT-0600 (Central Standard Time),493022.40000000596,cherry,900,I,None,None,None,1800,1800.0,214.0,86,,3427.300000011921,489595.09999999404,7760,silver,NF,C,485443,485443,483816,484728,483816,487243,485229,485229,487243,86
58,test,1,con,0,m,Mon Feb 23 2026 10:58:13 GMT-0600 (Central Standard Time),496454.8000000119,silver,900,I,None,None,None,1799,1799.0,201.0,82,,3428.0,493026.8000000119,7760,silver,NF,C,488877,488877,487248,488161,487248,490676,488676,488676,490676,87
58,test,1,inc,0,m,Mon Feb 23 2026 10:58:13 GMT-0600 (Central Standard Time),499887.5,pear,900,I,None,None,None,1799,1799.0,200.0,118,,3427.7999999821186,496459.7000000179,7760,zinc,NF,C,492309,492309,490681,491592,490681,494109,492109,492109,494109,88
58,test,1,inc,0,m,Mon Feb 23 2026 10:58:13 GMT-0600 (Central Standard Time),503502.8000000119,raisin,1100,I,None,None,None,1800,1800.0,199.0,96,,3612.800000011921,499890.0,7760,cobalt,NF,C,495924,495924,494111,495224,494111,497724,495725,495725,497724,89
58,test,1,con,0,m,Mon Feb 23 2026 10:58:13 GMT-0600 (Central Standard Time),506935.0,gold,900,I,None,None,None,1799,1799.0,199.0,98,,3429.0,503506.0,7760,gold,NF,C,499357,499357,497727,498641,497727,501156,499157,499157,501156,90
58,test,1,con,0,m,Mon Feb 23 2026 10:58:13 GMT-0600 (Central Standard Time),510267.40000000596,lead,800,I,None,None,None,1799,1799.0,200.0,121,,3327.4000000059605,506940.0,7760,lead,NF,C,502689,502689,501161,501975,501161,504488,502489,502489,504488,91
58,test,1,inc,0,m,Mon Feb 23 2026 10:58:13 GMT-0600 (Central Standard Time),513600.09999999404,lime,800,I,None,None,None,1799,1799.0,201.0,101,,3327.199999988079,510272.90000000596,7760,gold,NF,C,506022,506022,504494,505305,504494,507821,505821,505821,507821,92
58,test,1,con,0,m,Mon Feb 23 2026 10:58:13 GMT-0600 (Central Standard Time),516949.3000000119,silver,800,I,None,None,None,1816,1816.0,200.0,81,,3344.0,513605.3000000119,7760,silver,NF,C,509354,509354,507826,508638,507827,511170,509154,509154,511170,93
58,test,1,inc,0,z,Mon Feb 23 2026 10:58:13 GMT-0600 (Central Standard Time),520396.8000000119,copper,900,I,None,None,None,1815,1815.0,200.0,30,,3442.9000000059605,516953.90000000596,7760,raisin,NF,C,512803,512803,511175,512087,511175,514618,512602,512602,514618,94
58,test,1,con,0,m,Mon Feb 23 2026 10:58:13 GMT-0600 (Central Standard Time),524046.09999999404,cobalt,1100,I,None,None,None,1815,1815.0,201.0,92,,3645.5999999940395,520400.5,7760,cobalt,NF,C,516452,516452,514622,515735,514622,518267,516251,516251,518267,95
58,test,1,inc,0,m,Mon Feb 23 2026 10:58:13 GMT-0600 (Central Standard Time),527678.8000000119,raisin,1100,I,None,None,None,1799,1799.0,200.0,72,,3625.9000000059605,524052.90000000596,7760,bronze,NF,C,520101,520101,518274,519384,518274,521900,519900,519900,521900,96
58,test,1,inc,0,m,Mon Feb 23 2026 10:58:13 GMT-0600 (Central Standard Time),531212.0,orange,1000,I,None,None,None,1799,1799.0,199.0,71,,3526.7999999821186,527685.2000000179,7760,bronze,NF,C,523633,523633,521906,522916,521906,525433,523433,523433,525433,97
58,test,1,inc,0,m,Mon Feb 23 2026 10:58:13 GMT-0600 (Central Standard Time),534560.599999994,banana,800,I,None,None,None,1802,1802.0,215.0,93,,3341.899999976158,531218.7000000179,7760,cobalt,NF,C,526980,526980,525440,526251,525440,528782,526765,526765,528782,98
58,test,1,con,0,m,Mon Feb 23 2026 10:58:13 GMT-0600 (Central Standard Time),538193.599999994,iron,1100,I,None,None,None,1801,1801.0,213.0,108,,3627.2999999821186,534566.3000000119,7760,iron,NF,C,530613,530613,528787,529897,528788,532415,530400,530400,532415,99
58,test,1,con,0,m,Mon Feb 23 2026 10:58:13 GMT-0600 (Central Standard Time),541523.7000000179,bronze,800,I,None,None,None,1799,1799.0,200.0,65,,3324.9000000059605,538198.8000000119,7760,bronze,NF,C,533946,533946,532420,533231,532420,535745,533746,533746,535745,100
58,test,1,inc,0,m,Mon Feb 23 2026 10:58:13 GMT-0600 (Central Standard Time),544874.0,lime,800,I,None,None,None,1816,1816.0,199.0,125,,3346.5,541527.5,7760,lead,NF,C,537279,537279,535749,536563,535749,539095,537079,537079,539095,101
58,test,1,inc,0,z,Mon Feb 23 2026 10:58:13 GMT-0600 (Central Standard Time),548426.099999994,silver,1000,I,None,None,None,1817,1817.0,203.0,15,,3546.399999976158,544879.7000000179,7760,cherry,NF,C,540830,540830,539101,540111,539101,542647,540627,540627,542647,102
58,test,1,inc,0,z,Mon Feb 23 2026 10:58:13 GMT-0600 (Central Standard Time),552054.900000006,lead,1100,I,None,None,None,1816,1816.0,200.0,64,,3622.800000011921,548432.099999994,7760,plum,NF,C,544460,544460,542653,543758,542653,546276,544259,544259,546276,103
58,test,1,inc,0,z,Mon Feb 23 2026 10:58:13 GMT-0600 (Central Standard Time),555502.900000006,iron,900,I,None,None,None,1815,1815.0,200.0,38,,3441.0,552061.900000006,7760,lime,NF,C,547909,547909,546283,547194,546283,549724,547708,547708,549724,104
58,test,1,con,0,z,Mon Feb 23 2026 10:58:13 GMT-0600 (Central Standard Time),559035.8000000119,banana,1000,I,None,None,None,1800,1800.0,213.0,3,,3528.5999999940395,555507.2000000179,7760,banana,NF,C,551456,551457,549728,550739,549729,553257,551243,551243,553257,105
58,test,1,inc,0,m,Mon Feb 23 2026 10:58:13 GMT-0600 (Central Standard Time),562383.3000000119,banana,800,I,None,None,None,1814,1814.0,199.0,69,,3341.800000011921,559041.5,7760,bronze,NF,C,554790,554790,553263,554074,553263,556604,554590,554590,556604,106
58,test,1,con,0,m,Mon Feb 23 2026 10:58:13 GMT-0600 (Central Standard Time),565933.599999994,copper,1000,I,None,None,None,1815,1815.0,200.0,75,,3545.399999976158,562388.2000000179,7760,copper,NF,C,558339,558339,556609,557622,556610,560155,558138,558138,560155,107
58,test,1,inc,0,z,Mon Feb 23 2026 10:58:13 GMT-0600 (Central Standard Time),569265.2000000179,gold,800,I,None,None,None,1800,1800.0,213.0,37,,3325.5,565939.7000000179,7760,lime,NF,C,561686,561686,560161,560971,560161,563486,561473,561473,563486,108
58,test,1,inc,0,m,Mon Feb 23 2026 10:58:13 GMT-0600 (Central Standard Time),572798.900000006,kiwi,1000,I,None,None,None,1799,1799.0,201.0,127,,3527.800000011921,569271.099999994,7760,lead,NF,C,565221,565221,563492,564503,563492,567020,565020,565020,567020,109
58,test,1,con,0,z,Mon Feb 23 2026 10:58:13 GMT-0600 (Central Standard Time),576461.900000006,raisin,1100,I,None,None,None,1815,1815.0,214.0,28,,3659.300000011921,572802.599999994,7760,raisin,NF,C,568868,568868,567024,568135,567024,570683,568653,568653,570683,110
58,test,1,inc,0,m,Mon Feb 23 2026 10:58:13 GMT-0600 (Central Standard Time),579912.099999994,pear,900,I,None,None,None,1815,1815.0,200.0,110,,3447.399999976158,576464.7000000179,7760,iron,NF,C,572318,572318,570686,571602,570686,574133,572117,572117,574133,111
58,test,1,con,0,m,Mon Feb 23 2026 10:58:13 GMT-0600 (Central Standard Time),583344.400000006,iron,900,I,None,None,None,1799,1799.0,202.0,106,,3427.4000000059605,579917.0,7760,iron,NF,C,575766,575766,574138,575050,574138,577565,575564,575564,577565,112
58,test,1,con,0,z,Mon Feb 23 2026 10:58:13 GMT-0600 (Central Standard Time),586892.400000006,kiwi,1000,I,None,None,None,1813,1813.0,201.0,51,,3543.5999999940395,583348.8000000119,7760,kiwi,NF,C,579300,579300,577570,578583,577570,581113,579098,579098,581113,113
58,test,1,inc,0,z,Mon Feb 23 2026 10:58:13 GMT-0600 (Central Standard Time),590327.2000000179,copper,900,I,None,None,None,1801,1801.0,199.0,22,,3428.800000011921,586898.400000006,7760,orange,NF,C,582747,582747,581119,582031,581120,584548,582548,582548,584548,114
58,test,1,con,0,m,Mon Feb 23 2026 10:58:13 GMT-0600 (Central Standard Time),593975.400000006,bronze,1100,I,None,None,None,1814,1814.0,203.0,68,,3643.9000000059605,590331.5,7760,bronze,NF,C,586382,586382,584553,585663,584553,588196,586179,586179,588196,115
58,test,1,con,0,m,Mon Feb 23 2026 10:58:13 GMT-0600 (Central Standard Time),597509.5,lead,1000,I,None,None,None,1801,1801.0,217.0,123,,3528.9000000059605,593980.599999994,7760,lead,NF,C,589930,589930,588202,589211,588202,591731,589712,589712,591731,116
58,test,1,inc,0,z,Mon Feb 23 2026 10:58:13 GMT-0600 (Central Standard Time),600838.3000000119,bronze,800,I,None,None,None,1799,1799.0,200.0,5,,3325.300000011921,597513.0,7760,banana,NF,C,593260,593260,591734,592545,591734,595059,593060,593060,595059,117
58,test,1,inc,0,z,Mon Feb 23 2026 10:58:13 GMT-0600 (Central Standard Time),604172.5,gold,800,I,None,None,None,1800,1800.0,200.0,53,,3329.7999999821186,600842.7000000179,7760,kiwi,NF,C,596593,596593,595064,595877,595064,598394,596393,596393,598394,118
58,test,1,inc,0,m,Mon Feb 23 2026 10:58:13 GMT-0600 (Central Standard Time),607720.0,orange,1000,I,None,None,None,1800,1800.0,215.0,95,,3544.0,604176.0,7760,cobalt,NF,C,600141,600141,598397,599411,598397,601941,599926,599926,601941,119
58,test,1,inc,0,z,Mon Feb 23 2026 10:58:13 GMT-0600 (Central Standard Time),611369.5,cobalt,1100,I,None,None,None,1802,1802.0,214.0,32,,3644.199999988079,607725.3000000119,7760,raisin,NF,C,603789,603789,601946,603057,601947,605591,603575,603575,605591,120
58,test,1,inc,0,z,Mon Feb 23 2026 10:58:13 GMT-0600 (Central Standard Time),614906.599999994,silver,1000,I,None,None,None,1806,1806.0,199.0,23,,3530.899999976158,611375.7000000179,7760,orange,NF,C,607322,607322,605597,606606,605597,609128,607123,607123,609128,121
58,test,1,con,0,m,Mon Feb 23 2026 10:58:13 GMT-0600 (Central Standard Time),618349.900000006,lead,900,I,None,None,None,1815,1815.0,202.0,122,,3440.699999988079,614909.2000000179,7760,lead,NF,C,610756,610756,609130,610038,609130,612571,610553,610553,612571,122
58,test,1,con,0,m,Mon Feb 23 2026 10:58:13 GMT-0600 (Central Standard Time),621900.0,gold,1000,I,None,None,None,1817,1817.0,214.0,99,,3546.0,618354.0,7760,gold,NF,C,614304,614304,612575,613587,612575,616121,614090,614090,616121,123
58,test,1,con,0,m,Mon Feb 23 2026 10:58:13 GMT-0600 (Central Standard Time),625331.8000000119,zinc,900,I,None,None,None,1799,1799.0,201.0,114,,3426.300000011921,621905.5,7760,zinc,NF,C,617754,617754,616127,617037,616127,619553,617553,617553,619553,124
58,test,1,con,0,m,Mon Feb 23 2026 10:58:13 GMT-0600 (Central Standard Time),628862.900000006,iron,1000,I,None,None,None,1814,1814.0,200.0,107,,3526.199999988079,625336.7000000179,7760,iron,NF,C,621270,621270,619558,620567,619558,623084,621069,621069,623084,125
58,test,1,inc,0,z,Mon Feb 23 2026 10:58:13 GMT-0600 (Central Standard Time),632512.0,lead,1100,I,None,None,None,1814,1814.0,203.0,40,,3644.0999999940395,628867.900000006,7760,lime,NF,C,624919,624919,623089,624200,623089,626733,624716,624716,626733,126
58,test,1,inc,0,m,Mon Feb 23 2026 10:58:13 GMT-0600 (Central Standard Time),636145.5,plum,1100,I,None,None,None,1800,1800.0,200.0,128,,3628.2999999821186,632517.2000000179,7760,lead,NF,C,628566,628566,626738,627849,626738,630367,628366,628366,630366,127
58,test,1,con,0,z,Mon Feb 23 2026 10:58:13 GMT-0600 (Central Standard Time),639495.2000000179,pear,800,I,None,None,None,1817,1817.0,201.0,41,,3342.300000011921,636152.900000006,7760,pear,NF,C,631899,631899,630374,631181,630374,633716,631698,631698,633716,128
