acc_sum,block,block_c,change,condition,correct,correct_response,datetime,endtime,face,project,response,response_time,row_sel,session_number,start_end,starttime,subject_id,task,task_vers,trial
0,prac,1,,1-Back,,,Fri Sep 05 2025 13:59:15 GMT-0500 (Central Daylight Time),,012_o_f_d_a.png,O,space,6371,1,1,,,7202,VNB,C,0
0,prac,1,0.0,1-Back,0,m,Fri Sep 05 2025 13:59:15 GMT-0500 (Central Daylight Time),119497.69999980927,022_y_f_n_a.png,O,z,962,2,1,1818.0,117679.69999980927,7202,VNB,C,1
1,prac,1,0.0,1-Back,1,m,Fri Sep 05 2025 13:59:15 GMT-0500 (Central Daylight Time),121631.69999980927,014_m_m_h_a.png,O,m,1263,3,1,2115.2999997138977,119516.40000009537,7202,VNB,C,2
2,prac,1,0.0,1-Back,1,m,Fri Sep 05 2025 13:59:15 GMT-0500 (Central Daylight Time),123165.90000009537,025_y_m_d_a.png,O,m,683,4,1,1524.3000001907349,121641.59999990463,7202,VNB,C,3
3,prac,1,0.0,1-Back,1,m,Fri Sep 05 2025 13:59:15 GMT-0500 (Central Daylight Time),124665.19999980927,012_o_f_n_a.png,O,m,642,5,1,1490.0,123175.19999980927,7202,VNB,C,4
4,prac,1,1.0,1-Back,1,z,Fri Sep 05 2025 13:59:15 GMT-0500 (Central Daylight Time),126216.0,025_y_m_n_a.png,O,z,694,6,1,1542.5,124673.5,7202,VNB,C,5
5,prac,1,0.0,1-Back,1,m,Fri Sep 05 2025 13:59:15 GMT-0500 (Central Daylight Time),128312.69999980927,015_o_m_h_a.png,O,m,1217,7,1,2086.0999999046326,126226.59999990463,7202,VNB,C,6
5,prac,1,0.0,1-Back,0,m,Fri Sep 05 2025 13:59:15 GMT-0500 (Central Daylight Time),129981.0,019_m_f_d_a.png,O,z,810,8,1,1662.0999999046326,128318.90000009537,7202,VNB,C,7
6,prac,1,1.0,1-Back,1,z,Fri Sep 05 2025 13:59:15 GMT-0500 (Central Daylight Time),131729.5,022_y_f_d_a.png,O,z,871,9,1,1737.3000001907349,129992.19999980927,7202,VNB,C,8
7,prac,1,0.0,1-Back,1,m,Fri Sep 05 2025 13:59:15 GMT-0500 (Central Daylight Time),133181.69999980927,014_m_m_n_a.png,O,m,615,10,1,1442.2999997138977,131739.40000009537,7202,VNB,C,9
8,prac,1,0.0,1-Back,1,m,Fri Sep 05 2025 13:59:15 GMT-0500 (Central Daylight Time),135596.40000009537,012_o_f_h_a.png,O,m,1558,11,1,2403.5,133192.90000009537,7202,VNB,C,10
9,prac,1,0.0,1-Back,1,m,Fri Sep 05 2025 13:59:15 GMT-0500 (Central Daylight Time),137162.0,025_y_m_d_a.png,O,m,709,12,1,1555.0999999046326,135606.90000009537,7202,VNB,C,11
0,test,1,0.0,1-Back,,,Fri Sep 05 2025 13:59:15 GMT-0500 (Central Daylight Time),137162.0,022_y_f_d_a.png,O,space,3899,1,1,1555.0999999046326,135606.90000009537,7202,VNB,C,0
1,test,1,0.0,1-Back,1,m,Fri Sep 05 2025 13:59:15 GMT-0500 (Central Daylight Time),150475.30000019073,019_m_f_n_a.png,O,m,572,2,1,1589.0,148886.30000019073,7202,VNB,C,1
2,test,1,0.0,1-Back,1,m,Fri Sep 05 2025 13:59:15 GMT-0500 (Central Daylight Time),152638.90000009537,015_o_m_h_a.png,O,m,1143,3,1,2154.300000190735,150484.59999990463,7202,VNB,C,2
2,test,1,1.0,1-Back,0,z,Fri Sep 05 2025 13:59:15 GMT-0500 (Central Daylight Time),154322.0,014_m_m_h_a.png,O,m,666,4,1,1680.0999999046326,152641.90000009537,7202,VNB,C,3
3,test,1,0.0,1-Back,1,m,Fri Sep 05 2025 13:59:15 GMT-0500 (Central Daylight Time),156389.90000009537,012_o_f_n_a.png,O,m,1046,5,1,2061.4000000953674,154328.5,7202,VNB,C,4
4,test,1,0.0,1-Back,1,m,Fri Sep 05 2025 13:59:15 GMT-0500 (Central Daylight Time),158254.19999980927,025_y_m_d_a.png,O,m,846,6,1,1860.7999997138977,156393.40000009537,7202,VNB,C,5
5,test,1,1.0,1-Back,1,z,Fri Sep 05 2025 13:59:15 GMT-0500 (Central Daylight Time),159885.90000009537,019_m_f_d_a.png,O,z,601,7,1,1623.7000002861023,158262.19999980927,7202,VNB,C,6
6,test,1,0.0,1-Back,1,m,Fri Sep 05 2025 13:59:15 GMT-0500 (Central Daylight Time),161553.5,022_y_f_h_a.png,O,m,635,8,1,1660.9000000953674,159892.59999990463,7202,VNB,C,7
7,test,1,0.0,1-Back,1,m,Fri Sep 05 2025 13:59:15 GMT-0500 (Central Daylight Time),164202.5,015_o_m_n_a.png,O,m,1624,9,1,2640.699999809265,161561.80000019073,7202,VNB,C,8
8,test,1,0.0,1-Back,1,m,Fri Sep 05 2025 13:59:15 GMT-0500 (Central Daylight Time),166136.90000009537,025_y_m_h_a.png,O,m,902,10,1,1925.7000002861023,164211.19999980927,7202,VNB,C,9
9,test,1,0.0,1-Back,1,m,Fri Sep 05 2025 13:59:15 GMT-0500 (Central Daylight Time),167967.90000009537,015_o_m_d_a.png,O,m,811,11,1,1822.2000002861023,166145.69999980927,7202,VNB,C,10
10,test,1,1.0,1-Back,1,z,Fri Sep 05 2025 13:59:15 GMT-0500 (Central Daylight Time),170048.90000009537,012_o_f_d_a.png,O,z,1055,12,1,2071.300000190735,167977.59999990463,7202,VNB,C,11
11,test,1,0.0,1-Back,1,m,Fri Sep 05 2025 13:59:15 GMT-0500 (Central Daylight Time),172049.90000009537,014_m_m_n_a.png,O,m,976,13,1,1993.8000001907349,170056.09999990463,7202,VNB,C,12
12,test,1,1.0,1-Back,1,z,Fri Sep 05 2025 13:59:15 GMT-0500 (Central Daylight Time),174266.30000019073,022_y_f_n_a.png,O,z,1183,14,1,2208.800000190735,172057.5,7202,VNB,C,13
13,test,1,0.0,1-Back,1,m,Fri Sep 05 2025 13:59:15 GMT-0500 (Central Daylight Time),176197.80000019073,019_m_f_h_a.png,O,m,912,15,1,1923.0,174274.80000019073,7202,VNB,C,14
14,test,1,0.0,1-Back,1,m,Fri Sep 05 2025 13:59:15 GMT-0500 (Central Daylight Time),178213.40000009537,014_m_m_d_a.png,O,m,993,16,1,2005.8000001907349,176207.59999990463,7202,VNB,C,15
15,test,1,0.0,1-Back,1,m,Fri Sep 05 2025 13:59:15 GMT-0500 (Central Daylight Time),179897.59999990463,025_y_m_n_a.png,O,m,654,17,1,1675.5999999046326,178222.0,7202,VNB,C,16
16,test,1,0.0,1-Back,1,m,Fri Sep 05 2025 13:59:15 GMT-0500 (Central Daylight Time),182116.0,012_o_f_h_a.png,O,m,1200,18,1,2210.0999999046326,179905.90000009537,7202,VNB,C,17
0,test,2,0.0,1-Back,,,Fri Sep 05 2025 13:59:15 GMT-0500 (Central Daylight Time),182116.0,025_y_m_n_a.png,O,space,1758,1,1,2210.0999999046326,179905.90000009537,7202,VNB,C,0
1,test,2,0.0,1-Back,1,m,Fri Sep 05 2025 13:59:15 GMT-0500 (Central Daylight Time),188077.80000019073,022_y_f_h_a.png,O,m,1151,2,1,2171.6000003814697,185906.19999980927,7202,VNB,C,1
2,test,2,1.0,1-Back,1,m,Fri Sep 05 2025 13:59:15 GMT-0500 (Central Daylight Time),189827.90000009537,015_o_m_n_a.png,O,m,731,3,1,1740.5,188087.40000009537,7202,VNB,C,2
3,test,2,0.0,1-Back,1,m,Fri Sep 05 2025 13:59:15 GMT-0500 (Central Daylight Time),191893.90000009537,019_m_f_d_a.png,O,m,1035,4,1,2063.300000190735,189830.59999990463,7202,VNB,C,3
4,test,2,0.0,1-Back,1,z,Fri Sep 05 2025 13:59:15 GMT-0500 (Central Daylight Time),193892.0,014_m_m_d_a.png,O,z,972,5,1,1990.6999998092651,191901.30000019073,7202,VNB,C,4
5,test,2,0.0,1-Back,1,m,Fri Sep 05 2025 13:59:15 GMT-0500 (Central Daylight Time),195575.30000019073,025_y_m_h_a.png,O,m,650,6,1,1675.7000002861023,193899.59999990463,7202,VNB,C,5
6,test,2,1.0,1-Back,1,z,Fri Sep 05 2025 13:59:15 GMT-0500 (Central Daylight Time),197724.40000009537,012_o_f_h_a.png,O,z,1126,7,1,2139.7000002861023,195584.69999980927,7202,VNB,C,6
7,test,2,0.0,1-Back,1,m,Fri Sep 05 2025 13:59:15 GMT-0500 (Central Daylight Time),199375.19999980927,019_m_f_n_a.png,O,m,620,8,1,1645.7999997138977,197729.40000009537,7202,VNB,C,7
8,test,2,0.0,1-Back,1,m,Fri Sep 05 2025 13:59:15 GMT-0500 (Central Daylight Time),201357.09999990463,022_y_f_d_a.png,O,m,954,9,1,1973.1999998092651,199383.90000009537,7202,VNB,C,8
9,test,2,0.0,1-Back,1,m,Fri Sep 05 2025 13:59:15 GMT-0500 (Central Daylight Time),203506.90000009537,014_m_m_n_a.png,O,m,1125,10,1,2142.5999999046326,201364.30000019073,7202,VNB,C,9
10,test,2,1.0,1-Back,1,m,Fri Sep 05 2025 13:59:15 GMT-0500 (Central Daylight Time),205538.30000019073,019_m_f_h_a.png,O,m,1013,11,1,2023.2000002861023,203515.09999990463,7202,VNB,C,10
11,test,2,0.0,1-Back,1,z,Fri Sep 05 2025 13:59:15 GMT-0500 (Central Daylight Time),207287.5,015_o_m_h_a.png,O,z,725,12,1,1743.6999998092651,205543.80000019073,7202,VNB,C,11
12,test,2,0.0,1-Back,1,m,Fri Sep 05 2025 13:59:15 GMT-0500 (Central Daylight Time),208904.80000019073,025_y_m_d_a.png,O,m,586,13,1,1610.9000000953674,207293.90000009537,7202,VNB,C,12
13,test,2,0.0,1-Back,1,m,Fri Sep 05 2025 13:59:15 GMT-0500 (Central Daylight Time),210737.40000009537,012_o_f_n_a.png,O,m,808,14,1,1824.5999999046326,208912.80000019073,7202,VNB,C,13
14,test,2,0.0,1-Back,1,z,Fri Sep 05 2025 13:59:15 GMT-0500 (Central Daylight Time),212835.09999990463,022_y_f_n_a.png,O,z,1068,15,1,2089.0999999046326,210746.0,7202,VNB,C,14
15,test,2,1.0,1-Back,1,m,Fri Sep 05 2025 13:59:15 GMT-0500 (Central Daylight Time),214570.19999980927,014_m_m_h_a.png,O,m,701,16,1,1732.2999997138977,212837.90000009537,7202,VNB,C,15
16,test,2,0.0,1-Back,1,m,Fri Sep 05 2025 13:59:15 GMT-0500 (Central Daylight Time),216318.5,012_o_f_d_a.png,O,m,727,17,1,1740.4000000953674,214578.09999990463,7202,VNB,C,16
17,test,2,1.0,1-Back,1,z,Fri Sep 05 2025 13:59:15 GMT-0500 (Central Daylight Time),218302.5,015_o_m_d_a.png,O,z,951,18,1,1972.5999999046326,216329.90000009537,7202,VNB,C,17
0,test,3,1.0,1-Back,,,Fri Sep 05 2025 13:59:15 GMT-0500 (Central Daylight Time),218302.5,012_o_f_h_a.png,O,space,1563,1,1,1972.5999999046326,216329.90000009537,7202,VNB,C,0
1,test,3,0.0,1-Back,1,m,Fri Sep 05 2025 13:59:15 GMT-0500 (Central Daylight Time),223750.30000019073,019_m_f_d_a.png,O,m,764,2,1,1779.7000002861023,221970.59999990463,7202,VNB,C,1
2,test,3,1.0,1-Back,1,m,Fri Sep 05 2025 13:59:15 GMT-0500 (Central Daylight Time),225399.09999990463,014_m_m_n_a.png,O,m,625,3,1,1640.9000000953674,223758.19999980927,7202,VNB,C,2
3,test,3,0.0,1-Back,1,z,Fri Sep 05 2025 13:59:15 GMT-0500 (Central Daylight Time),227148.90000009537,012_o_f_n_a.png,O,z,720,4,1,1740.5999999046326,225408.30000019073,7202,VNB,C,3
4,test,3,1.0,1-Back,1,m,Fri Sep 05 2025 13:59:15 GMT-0500 (Central Daylight Time),228763.69999980927,015_o_m_d_a.png,O,m,597,5,1,1605.8999996185303,227157.80000019073,7202,VNB,C,4
5,test,3,0.0,1-Back,1,m,Fri Sep 05 2025 13:59:15 GMT-0500 (Central Daylight Time),230547.90000009537,022_y_f_h_a.png,O,m,751,6,1,1777.2000002861023,228770.69999980927,7202,VNB,C,5
6,test,3,0.0,1-Back,1,z,Fri Sep 05 2025 13:59:15 GMT-0500 (Central Daylight Time),232163.40000009537,025_y_m_h_a.png,O,z,588,7,1,1609.0,230554.40000009537,7202,VNB,C,6
7,test,3,0.0,1-Back,1,m,Fri Sep 05 2025 13:59:15 GMT-0500 (Central Daylight Time),233764.0,019_m_f_n_a.png,O,m,569,8,1,1588.4000000953674,232175.59999990463,7202,VNB,C,7
8,test,3,0.0,1-Back,1,m,Fri Sep 05 2025 13:59:15 GMT-0500 (Central Daylight Time),235580.5,022_y_f_d_a.png,O,m,786,9,1,1808.9000000953674,233771.59999990463,7202,VNB,C,8
9,test,3,1.0,1-Back,1,m,Fri Sep 05 2025 13:59:15 GMT-0500 (Central Daylight Time),237430.30000019073,015_o_m_n_a.png,O,m,822,10,1,1841.0,235589.30000019073,7202,VNB,C,9
10,test,3,0.0,1-Back,1,m,Fri Sep 05 2025 13:59:15 GMT-0500 (Central Daylight Time),239526.80000019073,014_m_m_h_a.png,O,m,1075,11,1,2086.4000000953674,237440.40000009537,7202,VNB,C,10
11,test,3,0.0,1-Back,1,z,Fri Sep 05 2025 13:59:15 GMT-0500 (Central Daylight Time),241027.69999980927,019_m_f_h_a.png,O,z,474,12,1,1493.0999999046326,239534.59999990463,7202,VNB,C,11
12,test,3,1.0,1-Back,1,m,Fri Sep 05 2025 13:59:15 GMT-0500 (Central Daylight Time),242628.5,012_o_f_d_a.png,O,m,567,13,1,1591.0,241037.5,7202,VNB,C,12
13,test,3,0.0,1-Back,1,z,Fri Sep 05 2025 13:59:15 GMT-0500 (Central Daylight Time),244759.90000009537,014_m_m_d_a.png,O,z,1100,14,1,2121.9000000953674,242638.0,7202,VNB,C,13
14,test,3,0.0,1-Back,1,m,Fri Sep 05 2025 13:59:15 GMT-0500 (Central Daylight Time),246392.90000009537,025_y_m_n_a.png,O,m,610,15,1,1623.8000001907349,244769.09999990463,7202,VNB,C,14
15,test,3,1.0,1-Back,1,m,Fri Sep 05 2025 13:59:15 GMT-0500 (Central Daylight Time),248209.19999980927,015_o_m_h_a.png,O,m,786,16,1,1808.8999996185303,246400.30000019073,7202,VNB,C,15
16,test,3,0.0,1-Back,1,m,Fri Sep 05 2025 13:59:15 GMT-0500 (Central Daylight Time),249841.80000019073,025_y_m_d_a.png,O,m,600,17,1,1623.0,248218.80000019073,7202,VNB,C,16
17,test,3,1.0,1-Back,1,m,Fri Sep 05 2025 13:59:15 GMT-0500 (Central Daylight Time),251392.30000019073,022_y_f_n_a.png,O,m,529,18,1,1540.3000001907349,249852.0,7202,VNB,C,17
0,test,4,1.0,1-Back,,,Fri Sep 05 2025 13:59:15 GMT-0500 (Central Daylight Time),251392.30000019073,014_m_m_d_a.png,O,space,1225,1,1,1540.3000001907349,249852.0,7202,VNB,C,0
1,test,4,0.0,1-Back,1,z,Fri Sep 05 2025 13:59:15 GMT-0500 (Central Daylight Time),256789.09999990463,015_o_m_d_a.png,O,z,1129,2,1,2138.5999999046326,254650.5,7202,VNB,C,1
2,test,4,0.0,1-Back,1,m,Fri Sep 05 2025 13:59:15 GMT-0500 (Central Daylight Time),258621.09999990463,025_y_m_h_a.png,O,m,804,3,1,1823.5,256797.59999990463,7202,VNB,C,2
3,test,4,0.0,1-Back,1,m,Fri Sep 05 2025 13:59:15 GMT-0500 (Central Daylight Time),260388.40000009537,019_m_f_n_a.png,O,m,740,4,1,1763.0,258625.40000009537,7202,VNB,C,3
4,test,4,1.0,1-Back,1,m,Fri Sep 05 2025 13:59:15 GMT-0500 (Central Daylight Time),262555.69999980927,012_o_f_h_a.png,O,m,1141,5,1,2158.5,260397.19999980927,7202,VNB,C,4
5,test,4,0.0,1-Back,1,m,Fri Sep 05 2025 13:59:15 GMT-0500 (Central Daylight Time),264204.09999990463,014_m_m_n_a.png,O,m,622,6,1,1639.7999997138977,262564.30000019073,7202,VNB,C,5
6,test,4,0.0,1-Back,1,m,Fri Sep 05 2025 13:59:15 GMT-0500 (Central Daylight Time),265821.09999990463,025_y_m_d_a.png,O,m,590,7,1,1612.1999998092651,264208.90000009537,7202,VNB,C,6
7,test,4,1.0,1-Back,1,z,Fri Sep 05 2025 13:59:15 GMT-0500 (Central Daylight Time),267403.0,022_y_f_d_a.png,O,z,559,8,1,1573.3000001907349,265829.69999980927,7202,VNB,C,7
8,test,4,0.0,1-Back,1,m,Fri Sep 05 2025 13:59:15 GMT-0500 (Central Daylight Time),268936.30000019073,019_m_f_h_a.png,O,m,500,9,1,1526.4000000953674,267409.90000009537,7202,VNB,C,8
9,test,4,0.0,1-Back,1,z,Fri Sep 05 2025 13:59:15 GMT-0500 (Central Daylight Time),270721.40000009537,015_o_m_h_a.png,O,z,767,10,1,1774.5,268946.90000009537,7202,VNB,C,9
10,test,4,1.0,1-Back,1,m,Fri Sep 05 2025 13:59:15 GMT-0500 (Central Daylight Time),272269.59999990463,012_o_f_n_a.png,O,m,523,11,1,1541.2999997138977,270728.30000019073,7202,VNB,C,10
11,test,4,0.0,1-Back,1,m,Fri Sep 05 2025 13:59:15 GMT-0500 (Central Daylight Time),274419.59999990463,019_m_f_d_a.png,O,m,1135,12,1,2142.2999997138977,272277.30000019073,7202,VNB,C,11
12,test,4,0.0,1-Back,1,m,Fri Sep 05 2025 13:59:15 GMT-0500 (Central Daylight Time),276016.09999990463,022_y_f_n_a.png,O,m,566,13,1,1589.5999999046326,274426.5,7202,VNB,C,12
13,test,4,0.0,1-Back,1,m,Fri Sep 05 2025 13:59:15 GMT-0500 (Central Daylight Time),277666.30000019073,012_o_f_d_a.png,O,m,625,14,1,1642.6000003814697,276023.69999980927,7202,VNB,C,13
14,test,4,0.0,1-Back,1,m,Fri Sep 05 2025 13:59:15 GMT-0500 (Central Daylight Time),279785.0,022_y_f_h_a.png,O,m,1096,15,1,2112.0,277673.0,7202,VNB,C,14
15,test,4,1.0,1-Back,1,z,Fri Sep 05 2025 13:59:15 GMT-0500 (Central Daylight Time),281499.19999980927,014_m_m_h_a.png,O,z,686,16,1,1706.5999999046326,279792.59999990463,7202,VNB,C,15
16,test,4,0.0,1-Back,1,m,Fri Sep 05 2025 13:59:15 GMT-0500 (Central Daylight Time),283081.30000019073,015_o_m_n_a.png,O,m,558,17,1,1575.8000001907349,281505.5,7202,VNB,C,16
17,test,4,1.0,1-Back,1,z,Fri Sep 05 2025 13:59:15 GMT-0500 (Central Daylight Time),284731.5,025_y_m_n_a.png,O,z,618,18,1,1643.0,283088.5,7202,VNB,C,17
0,test,5,1.0,1-Back,,,Fri Sep 05 2025 13:59:15 GMT-0500 (Central Daylight Time),284731.5,015_o_m_n_a.png,O,space,1231,1,1,1643.0,283088.5,7202,VNB,C,0
1,test,5,1.0,1-Back,1,m,Fri Sep 05 2025 13:59:15 GMT-0500 (Central Daylight Time),290028.5,012_o_f_h_a.png,O,m,1028,2,1,2042.0,287986.5,7202,VNB,C,1
2,test,5,0.0,1-Back,1,m,Fri Sep 05 2025 13:59:15 GMT-0500 (Central Daylight Time),291612.19999980927,025_y_m_d_a.png,O,m,566,3,1,1574.8999996185303,290037.30000019073,7202,VNB,C,2
3,test,5,0.0,1-Back,1,z,Fri Sep 05 2025 13:59:15 GMT-0500 (Central Daylight Time),293195.19999980927,015_o_m_d_a.png,O,z,556,4,1,1573.7999997138977,291621.40000009537,7202,VNB,C,3
4,test,5,0.0,1-Back,1,m,Fri Sep 05 2025 13:59:15 GMT-0500 (Central Daylight Time),294811.0,019_m_f_h_a.png,O,m,591,5,1,1608.8000001907349,293202.19999980927,7202,VNB,C,4
5,test,5,0.0,1-Back,1,m,Fri Sep 05 2025 13:59:15 GMT-0500 (Central Daylight Time),296359.90000009537,022_y_f_n_a.png,O,m,525,6,1,1540.5999999046326,294819.30000019073,7202,VNB,C,5
6,test,5,1.0,1-Back,1,z,Fri Sep 05 2025 13:59:15 GMT-0500 (Central Daylight Time),298060.0,012_o_f_n_a.png,O,z,668,7,1,1691.9000000953674,296368.09999990463,7202,VNB,C,6
7,test,5,0.0,1-Back,1,m,Fri Sep 05 2025 13:59:15 GMT-0500 (Central Daylight Time),299576.59999990463,019_m_f_d_a.png,O,m,484,8,1,1510.7999997138977,298065.80000019073,7202,VNB,C,7
7,test,5,0.0,1-Back,0,m,Fri Sep 05 2025 13:59:15 GMT-0500 (Central Daylight Time),301476.30000019073,025_y_m_h_a.png,O,z,873,9,1,1891.4000000953674,299584.90000009537,7202,VNB,C,8
8,test,5,0.0,1-Back,1,m,Fri Sep 05 2025 13:59:15 GMT-0500 (Central Daylight Time),303025.40000009537,022_y_f_d_a.png,O,m,518,10,1,1541.7000002861023,301483.69999980927,7202,VNB,C,9
9,test,5,0.0,1-Back,1,m,Fri Sep 05 2025 13:59:15 GMT-0500 (Central Daylight Time),304540.59999990463,014_m_m_n_a.png,O,m,489,11,1,1505.5,303035.09999990463,7202,VNB,C,10
10,test,5,1.0,1-Back,1,z,Fri Sep 05 2025 13:59:15 GMT-0500 (Central Daylight Time),306055.59999990463,019_m_f_n_a.png,O,z,491,12,1,1505.5999999046326,304550.0,7202,VNB,C,11
11,test,5,0.0,1-Back,1,m,Fri Sep 05 2025 13:59:15 GMT-0500 (Central Daylight Time),307589.0,015_o_m_h_a.png,O,m,510,13,1,1530.0,306059.0,7202,VNB,C,12
12,test,5,0.0,1-Back,1,z,Fri Sep 05 2025 13:59:15 GMT-0500 (Central Daylight Time),309307.19999980927,014_m_m_h_a.png,O,z,693,14,1,1711.0999999046326,307596.09999990463,7202,VNB,C,13
13,test,5,1.0,1-Back,1,m,Fri Sep 05 2025 13:59:15 GMT-0500 (Central Daylight Time),310887.0,012_o_f_d_a.png,O,m,549,15,1,1571.6999998092651,309315.30000019073,7202,VNB,C,14
13,test,5,0.0,1-Back,0,m,Fri Sep 05 2025 13:59:15 GMT-0500 (Central Daylight Time),312470.90000009537,025_y_m_n_a.png,O,z,553,16,1,1580.5999999046326,310890.30000019073,7202,VNB,C,15
14,test,5,0.0,1-Back,1,m,Fri Sep 05 2025 13:59:15 GMT-0500 (Central Daylight Time),314536.5,022_y_f_h_a.png,O,m,1048,17,1,2056.300000190735,312480.19999980927,7202,VNB,C,16
15,test,5,0.0,1-Back,1,m,Fri Sep 05 2025 13:59:15 GMT-0500 (Central Daylight Time),316090.90000009537,014_m_m_d_a.png,O,m,519,18,1,1551.9000000953674,314539.0,7202,VNB,C,17
0,prac,1,0.0,2-Back,,,Fri Sep 05 2025 13:59:15 GMT-0500 (Central Daylight Time),316090.90000009537,019_m_f_n_a.png,O,space,3739,1,1,1551.9000000953674,314539.0,7202,VNB,C,0
0,prac,1,0.0,2-Back,,,Fri Sep 05 2025 13:59:15 GMT-0500 (Central Daylight Time),316090.90000009537,012_o_f_h_a.png,O,space,3739,2,1,1551.9000000953674,314539.0,7202,VNB,C,0
1,prac,1,0.0,2-Back,1,m,Fri Sep 05 2025 13:59:15 GMT-0500 (Central Daylight Time),400044.40000009537,015_o_m_d_a.png,O,m,1203,3,1,2061.9000000953674,397982.5,7202,VNB,C,1
2,prac,1,1.0,2-Back,1,z,Fri Sep 05 2025 13:59:15 GMT-0500 (Central Daylight Time),401977.19999980927,014_m_m_h_a.png,O,z,1079,4,1,1924.6999998092651,400052.5,7202,VNB,C,2
3,prac,1,0.0,2-Back,1,m,Fri Sep 05 2025 13:59:15 GMT-0500 (Central Daylight Time),403627.59999990463,022_y_f_n_a.png,O,m,787,5,1,1641.0999999046326,401986.5,7202,VNB,C,3
4,prac,1,1.0,2-Back,1,z,Fri Sep 05 2025 13:59:15 GMT-0500 (Central Daylight Time),405226.59999990463,015_o_m_h_a.png,O,z,830,6,1,1590.0,403636.59999990463,7202,VNB,C,4
5,prac,1,1.0,2-Back,1,z,Fri Sep 05 2025 13:59:15 GMT-0500 (Central Daylight Time),407341.69999980927,025_y_m_n_a.png,O,z,1251,7,1,2104.0,405237.69999980927,7202,VNB,C,5
6,prac,1,0.0,2-Back,1,m,Fri Sep 05 2025 13:59:15 GMT-0500 (Central Daylight Time),408957.59999990463,019_m_f_d_a.png,O,m,740,8,1,1608.7999997138977,407348.80000019073,7202,VNB,C,6
7,prac,1,0.0,2-Back,1,m,Fri Sep 05 2025 13:59:15 GMT-0500 (Central Daylight Time),410808.0,012_o_f_d_a.png,O,m,984,9,1,1841.3000001907349,408966.69999980927,7202,VNB,C,7
8,prac,1,0.0,2-Back,1,m,Fri Sep 05 2025 13:59:15 GMT-0500 (Central Daylight Time),412657.59999990463,014_m_m_h_a.png,O,m,1062,10,1,1839.5,410818.09999990463,7202,VNB,C,8
9,prac,1,1.0,2-Back,1,z,Fri Sep 05 2025 13:59:15 GMT-0500 (Central Daylight Time),414290.90000009537,022_y_f_d_a.png,O,z,773,11,1,1623.4000000953674,412667.5,7202,VNB,C,9
9,prac,1,0.0,2-Back,0,m,Fri Sep 05 2025 13:59:15 GMT-0500 (Central Daylight Time),416238.69999980927,015_o_m_n_a.png,O,z,1078,12,1,1937.2999997138977,414301.40000009537,7202,VNB,C,10
0,test,1,0.0,2-Back,,,Fri Sep 05 2025 13:59:15 GMT-0500 (Central Daylight Time),416238.69999980927,025_y_m_h_a.png,O,space,3982,1,1,1937.2999997138977,414301.40000009537,7202,VNB,C,0
0,test,1,0.0,2-Back,,,Fri Sep 05 2025 13:59:15 GMT-0500 (Central Daylight Time),416238.69999980927,012_o_f_n_a.png,O,space,3982,2,1,1937.2999997138977,414301.40000009537,7202,VNB,C,0
1,test,1,0.0,2-Back,1,z,Fri Sep 05 2025 13:59:15 GMT-0500 (Central Daylight Time),433099.90000009537,015_o_m_h_a.png,O,z,850,3,1,1881.0999999046326,431218.80000019073,7202,VNB,C,1
2,test,1,0.0,2-Back,1,m,Fri Sep 05 2025 13:59:15 GMT-0500 (Central Daylight Time),434784.5,019_m_f_d_a.png,O,m,661,4,1,1677.1999998092651,433107.30000019073,7202,VNB,C,2
2,test,1,1.0,2-Back,0,m,Fri Sep 05 2025 13:59:15 GMT-0500 (Central Daylight Time),437164.90000009537,025_y_m_n_a.png,O,z,1354,5,1,2371.5,434793.40000009537,7202,VNB,C,3
3,test,1,0.0,2-Back,1,z,Fri Sep 05 2025 13:59:15 GMT-0500 (Central Daylight Time),439697.19999980927,022_y_f_d_a.png,O,z,1501,6,1,2521.5,437175.69999980927,7202,VNB,C,4
4,test,1,0.0,2-Back,1,m,Fri Sep 05 2025 13:59:15 GMT-0500 (Central Daylight Time),442129.69999980927,014_m_m_h_a.png,O,m,1400,7,1,2423.2999997138977,439706.40000009537,7202,VNB,C,5
5,test,1,1.0,2-Back,1,m,Fri Sep 05 2025 13:59:15 GMT-0500 (Central Daylight Time),444563.5,022_y_f_n_a.png,O,m,1402,8,1,2426.300000190735,442137.19999980927,7202,VNB,C,6
6,test,1,0.0,2-Back,1,z,Fri Sep 05 2025 13:59:15 GMT-0500 (Central Daylight Time),446279.09999990463,012_o_f_h_a.png,O,z,696,9,1,1705.7999997138977,444573.30000019073,7202,VNB,C,7
7,test,1,0.0,2-Back,1,m,Fri Sep 05 2025 13:59:15 GMT-0500 (Central Daylight Time),448877.69999980927,015_o_m_d_a.png,O,m,1570,10,1,2587.8999996185303,446289.80000019073,7202,VNB,C,8
8,test,1,1.0,2-Back,1,m,Fri Sep 05 2025 13:59:15 GMT-0500 (Central Daylight Time),450878.5,014_m_m_d_a.png,O,m,970,11,1,1991.5999999046326,448886.90000009537,7202,VNB,C,9
9,test,1,0.0,2-Back,1,m,Fri Sep 05 2025 13:59:15 GMT-0500 (Central Daylight Time),453443.0,019_m_f_n_a.png,O,m,1548,12,1,2555.0,450888.0,7202,VNB,C,10
9,test,1,0.0,2-Back,0,m,Fri Sep 05 2025 13:59:15 GMT-0500 (Central Daylight Time),456475.40000009537,022_y_f_h_a.png,O,None,2016,13,1,3024.800000190735,453450.59999990463,7202,VNB,C,11
10,test,1,0.0,2-Back,1,z,Fri Sep 05 2025 13:59:15 GMT-0500 (Central Daylight Time),458241.19999980927,014_m_m_n_a.png,O,z,733,14,1,1757.0,456484.19999980927,7202,VNB,C,12
11,test,1,0.0,2-Back,1,m,Fri Sep 05 2025 13:59:15 GMT-0500 (Central Daylight Time),460190.69999980927,025_y_m_d_a.png,O,m,929,15,1,1940.5999999046326,458250.09999990463,7202,VNB,C,13
12,test,1,1.0,2-Back,1,m,Fri Sep 05 2025 13:59:15 GMT-0500 (Central Daylight Time),462990.0,019_m_f_h_a.png,O,m,1769,16,1,2790.800000190735,460199.19999980927,7202,VNB,C,14
13,test,1,0.0,2-Back,1,z,Fri Sep 05 2025 13:59:15 GMT-0500 (Central Daylight Time),464923.30000019073,012_o_f_d_a.png,O,z,907,17,1,1927.3000001907349,462996.0,7202,VNB,C,15
14,test,1,0.0,2-Back,1,m,Fri Sep 05 2025 13:59:15 GMT-0500 (Central Daylight Time),467488.59999990463,015_o_m_n_a.png,O,m,1544,18,1,2557.5999999046326,464931.0,7202,VNB,C,16
0,test,2,0.0,2-Back,,,Fri Sep 05 2025 13:59:15 GMT-0500 (Central Daylight Time),467488.59999990463,014_m_m_h_a.png,O,space,1513,1,1,2557.5999999046326,464931.0,7202,VNB,C,0
0,test,2,0.0,2-Back,,,Fri Sep 05 2025 13:59:15 GMT-0500 (Central Daylight Time),467488.59999990463,022_y_f_n_a.png,O,space,1513,2,1,2557.5999999046326,464931.0,7202,VNB,C,0
1,test,2,1.0,2-Back,1,z,Fri Sep 05 2025 13:59:15 GMT-0500 (Central Daylight Time),476321.19999980927,012_o_f_h_a.png,O,z,1100,3,1,2124.5999999046326,474196.59999990463,7202,VNB,C,1
2,test,2,0.0,2-Back,1,m,Fri Sep 05 2025 13:59:15 GMT-0500 (Central Daylight Time),478152.30000019073,015_o_m_d_a.png,O,m,809,4,1,1822.5,476329.80000019073,7202,VNB,C,2
3,test,2,0.0,2-Back,1,m,Fri Sep 05 2025 13:59:15 GMT-0500 (Central Daylight Time),480251.5,019_m_f_d_a.png,O,m,1073,5,1,2090.800000190735,478160.69999980927,7202,VNB,C,3
3,test,2,0.0,2-Back,0,m,Fri Sep 05 2025 13:59:15 GMT-0500 (Central Daylight Time),481984.90000009537,025_y_m_h_a.png,O,z,701,6,1,1724.9000000953674,480260.0,7202,VNB,C,4
4,test,2,0.0,2-Back,1,m,Fri Sep 05 2025 13:59:15 GMT-0500 (Central Daylight Time),484417.30000019073,012_o_f_n_a.png,O,m,1401,7,1,2425.2000002861023,481992.09999990463,7202,VNB,C,5
5,test,2,1.0,2-Back,1,z,Fri Sep 05 2025 13:59:15 GMT-0500 (Central Daylight Time),486217.90000009537,015_o_m_h_a.png,O,z,766,8,1,1791.4000000953674,484426.5,7202,VNB,C,6
6,test,2,0.0,2-Back,1,m,Fri Sep 05 2025 13:59:15 GMT-0500 (Central Daylight Time),488149.19999980927,022_y_f_d_a.png,O,m,913,9,1,1922.7999997138977,486226.40000009537,7202,VNB,C,7
7,test,2,0.0,2-Back,1,m,Fri Sep 05 2025 13:59:15 GMT-0500 (Central Daylight Time),490732.30000019073,025_y_m_d_a.png,O,m,1550,10,1,2574.7000002861023,488157.59999990463,7202,VNB,C,8
8,test,2,0.0,2-Back,1,m,Fri Sep 05 2025 13:59:15 GMT-0500 (Central Daylight Time),493082.80000019073,014_m_m_n_a.png,O,m,1336,11,1,2342.300000190735,490740.5,7202,VNB,C,9
8,test,2,0.0,2-Back,0,m,Fri Sep 05 2025 13:59:15 GMT-0500 (Central Daylight Time),496098.19999980927,019_m_f_h_a.png,O,z,2000,12,1,3004.0,493094.19999980927,7202,VNB,C,10
8,test,2,1.0,2-Back,0,z,Fri Sep 05 2025 13:59:15 GMT-0500 (Central Daylight Time),497930.69999980927,015_o_m_n_a.png,O,m,816,13,1,1818.1999998092651,496112.5,7202,VNB,C,11
9,test,2,0.0,2-Back,1,m,Fri Sep 05 2025 13:59:15 GMT-0500 (Central Daylight Time),499945.90000009537,012_o_f_d_a.png,O,m,1000,14,1,2005.5999999046326,497940.30000019073,7202,VNB,C,12
10,test,2,0.0,2-Back,1,m,Fri Sep 05 2025 13:59:15 GMT-0500 (Central Daylight Time),502478.5,022_y_f_h_a.png,O,m,1512,15,1,2525.4000000953674,499953.09999990463,7202,VNB,C,13
11,test,2,0.0,2-Back,1,z,Fri Sep 05 2025 13:59:15 GMT-0500 (Central Daylight Time),504294.19999980927,014_m_m_d_a.png,O,z,786,16,1,1804.5,502489.69999980927,7202,VNB,C,14
12,test,2,0.0,2-Back,1,m,Fri Sep 05 2025 13:59:15 GMT-0500 (Central Daylight Time),506477.80000019073,025_y_m_n_a.png,O,m,1163,17,1,2173.800000190735,504304.0,7202,VNB,C,15
13,test,2,1.0,2-Back,1,m,Fri Sep 05 2025 13:59:15 GMT-0500 (Central Daylight Time),508692.5,019_m_f_n_a.png,O,m,1195,18,1,2205.800000190735,506486.69999980927,7202,VNB,C,16
0,test,3,1.0,2-Back,,,Fri Sep 05 2025 13:59:15 GMT-0500 (Central Daylight Time),508692.5,015_o_m_n_a.png,O,space,1051,1,1,2205.800000190735,506486.69999980927,7202,VNB,C,0
0,test,3,1.0,2-Back,,,Fri Sep 05 2025 13:59:15 GMT-0500 (Central Daylight Time),508692.5,012_o_f_d_a.png,O,space,1051,2,1,2205.800000190735,506486.69999980927,7202,VNB,C,0
1,test,3,0.0,2-Back,1,m,Fri Sep 05 2025 13:59:15 GMT-0500 (Central Daylight Time),516507.40000009537,022_y_f_h_a.png,O,m,665,3,1,1691.9000000953674,514815.5,7202,VNB,C,1
2,test,3,0.0,2-Back,1,z,Fri Sep 05 2025 13:59:15 GMT-0500 (Central Daylight Time),518189.19999980927,019_m_f_d_a.png,O,z,664,4,1,1670.6999998092651,516518.5,7202,VNB,C,2
3,test,3,1.0,2-Back,1,m,Fri Sep 05 2025 13:59:15 GMT-0500 (Central Daylight Time),520121.0,025_y_m_n_a.png,O,m,898,5,1,1925.0,518196.0,7202,VNB,C,3
3,test,3,0.0,2-Back,0,m,Fri Sep 05 2025 13:59:15 GMT-0500 (Central Daylight Time),522220.19999980927,015_o_m_h_a.png,O,z,1071,6,1,2093.0,520127.19999980927,7202,VNB,C,4
4,test,3,0.0,2-Back,1,z,Fri Sep 05 2025 13:59:15 GMT-0500 (Central Daylight Time),524520.6999998093,022_y_f_n_a.png,O,z,1277,7,1,2295.0999999046326,522225.59999990463,7202,VNB,C,5
5,test,3,1.0,2-Back,1,m,Fri Sep 05 2025 13:59:15 GMT-0500 (Central Daylight Time),526519.3000001907,014_m_m_d_a.png,O,m,977,8,1,1992.4000000953674,524526.9000000954,7202,VNB,C,6
6,test,3,0.0,2-Back,1,m,Fri Sep 05 2025 13:59:15 GMT-0500 (Central Daylight Time),528703.8000001907,025_y_m_d_a.png,O,m,1158,9,1,2179.4000000953674,526524.4000000954,7202,VNB,C,7
6,test,3,0.0,2-Back,0,m,Fri Sep 05 2025 13:59:15 GMT-0500 (Central Daylight Time),530469.6999998093,012_o_f_h_a.png,O,z,734,10,1,1757.2999997138977,528712.4000000954,7202,VNB,C,8
7,test,3,1.0,2-Back,1,m,Fri Sep 05 2025 13:59:15 GMT-0500 (Central Daylight Time),532800.1999998093,019_m_f_n_a.png,O,m,1307,11,1,2323.199999809265,530477.0,7202,VNB,C,9
8,test,3,1.0,2-Back,1,z,Fri Sep 05 2025 13:59:15 GMT-0500 (Central Daylight Time),534785.3000001907,014_m_m_h_a.png,O,z,952,12,1,1982.2000002861023,532803.0999999046,7202,VNB,C,10
9,test,3,0.0,2-Back,1,m,Fri Sep 05 2025 13:59:15 GMT-0500 (Central Daylight Time),536950.4000000954,022_y_f_d_a.png,O,m,1137,13,1,2156.0999999046326,534794.3000001907,7202,VNB,C,11
10,test,3,0.0,2-Back,1,m,Fri Sep 05 2025 13:59:15 GMT-0500 (Central Daylight Time),539149.0,012_o_f_n_a.png,O,m,1179,14,1,2187.5,536961.5,7202,VNB,C,12
10,test,3,0.0,2-Back,0,z,Fri Sep 05 2025 13:59:15 GMT-0500 (Central Daylight Time),542166.8000001907,015_o_m_d_a.png,O,None,2001,15,1,3009.5,539157.3000001907,7202,VNB,C,13
11,test,3,1.0,2-Back,1,m,Fri Sep 05 2025 13:59:15 GMT-0500 (Central Daylight Time),544100.0,019_m_f_h_a.png,O,m,911,16,1,1923.6999998092651,542176.3000001907,7202,VNB,C,14
12,test,3,0.0,2-Back,1,m,Fri Sep 05 2025 13:59:15 GMT-0500 (Central Daylight Time),546831.0,014_m_m_n_a.png,O,m,1709,17,1,2724.699999809265,544106.3000001907,7202,VNB,C,15
12,test,3,0.0,2-Back,0,z,Fri Sep 05 2025 13:59:15 GMT-0500 (Central Daylight Time),549296.5999999046,025_y_m_h_a.png,O,m,1444,18,1,2461.7999997138977,546834.8000001907,7202,VNB,C,16
0,test,4,0.0,2-Back,,,Fri Sep 05 2025 13:59:15 GMT-0500 (Central Daylight Time),549296.5999999046,019_m_f_n_a.png,O,space,1090,1,1,2461.7999997138977,546834.8000001907,7202,VNB,C,0
0,test,4,0.0,2-Back,,,Fri Sep 05 2025 13:59:15 GMT-0500 (Central Daylight Time),549296.5999999046,015_o_m_n_a.png,O,space,1090,2,1,2461.7999997138977,546834.8000001907,7202,VNB,C,0
1,test,4,1.0,2-Back,1,m,Fri Sep 05 2025 13:59:15 GMT-0500 (Central Daylight Time),557478.0999999046,025_y_m_h_a.png,O,m,836,3,1,1858.5,555619.5999999046,7202,VNB,C,1
2,test,4,1.0,2-Back,1,m,Fri Sep 05 2025 13:59:15 GMT-0500 (Central Daylight Time),559776.9000000954,012_o_f_d_a.png,O,m,1274,4,1,2290.4000000953674,557486.5,7202,VNB,C,2
3,test,4,0.0,2-Back,1,z,Fri Sep 05 2025 13:59:15 GMT-0500 (Central Daylight Time),561744.8000001907,015_o_m_h_a.png,O,z,946,5,1,1960.0,559784.8000001907,7202,VNB,C,3
4,test,4,0.0,2-Back,1,m,Fri Sep 05 2025 13:59:15 GMT-0500 (Central Daylight Time),563875.0,014_m_m_n_a.png,O,m,1115,6,1,2123.300000190735,561751.6999998093,7202,VNB,C,4
4,test,4,0.0,2-Back,0,m,Fri Sep 05 2025 13:59:15 GMT-0500 (Central Daylight Time),566908.3000001907,019_m_f_d_a.png,O,None,2015,7,1,3024.5,563883.8000001907,7202,VNB,C,5
5,test,4,0.0,2-Back,1,z,Fri Sep 05 2025 13:59:15 GMT-0500 (Central Daylight Time),568822.5999999046,022_y_f_n_a.png,O,z,894,8,1,1906.0999999046326,566916.5,7202,VNB,C,6
6,test,4,1.0,2-Back,1,m,Fri Sep 05 2025 13:59:15 GMT-0500 (Central Daylight Time),570855.3000001907,012_o_f_h_a.png,O,m,1009,9,1,2022.9000000953674,568832.4000000954,7202,VNB,C,7
7,test,4,0.0,2-Back,1,m,Fri Sep 05 2025 13:59:15 GMT-0500 (Central Daylight Time),573388.3000001907,014_m_m_h_a.png,O,m,1506,10,1,2520.7000002861023,570867.5999999046,7202,VNB,C,8
8,test,4,0.0,2-Back,1,m,Fri Sep 05 2025 13:59:15 GMT-0500 (Central Daylight Time),575504.5999999046,022_y_f_d_a.png,O,m,1085,11,1,2109.7999997138977,573394.8000001907,7202,VNB,C,9
9,test,4,0.0,2-Back,1,m,Fri Sep 05 2025 13:59:15 GMT-0500 (Central Daylight Time),577787.1999998093,025_y_m_n_a.png,O,m,1266,12,1,2273.0,575514.1999998093,7202,VNB,C,10
10,test,4,0.0,2-Back,1,z,Fri Sep 05 2025 13:59:15 GMT-0500 (Central Daylight Time),579704.9000000954,015_o_m_d_a.png,O,z,893,13,1,1906.7000002861023,577798.1999998093,7202,VNB,C,11
11,test,4,1.0,2-Back,1,m,Fri Sep 05 2025 13:59:15 GMT-0500 (Central Daylight Time),581968.5999999046,019_m_f_h_a.png,O,m,1233,14,1,2257.699999809265,579710.9000000954,7202,VNB,C,12
12,test,4,1.0,2-Back,1,m,Fri Sep 05 2025 13:59:15 GMT-0500 (Central Daylight Time),584051.0,022_y_f_h_a.png,O,m,1062,15,1,2074.4000000953674,581976.5999999046,7202,VNB,C,13
13,test,4,0.0,2-Back,1,m,Fri Sep 05 2025 13:59:15 GMT-0500 (Central Daylight Time),586316.8000001907,012_o_f_n_a.png,O,m,1237,16,1,2259.4000000953674,584057.4000000954,7202,VNB,C,14
14,test,4,0.0,2-Back,1,m,Fri Sep 05 2025 13:59:15 GMT-0500 (Central Daylight Time),588366.0999999046,025_y_m_d_a.png,O,m,1026,17,1,2040.0999999046326,586326.0,7202,VNB,C,15
15,test,4,1.0,2-Back,1,m,Fri Sep 05 2025 13:59:15 GMT-0500 (Central Daylight Time),590650.0,014_m_m_d_a.png,O,m,1251,18,1,2275.5999999046326,588374.4000000954,7202,VNB,C,16
0,test,5,1.0,2-Back,,,Fri Sep 05 2025 13:59:15 GMT-0500 (Central Daylight Time),590650.0,022_y_f_d_a.png,O,space,1102,1,1,2275.5999999046326,588374.4000000954,7202,VNB,C,0
0,test,5,1.0,2-Back,,,Fri Sep 05 2025 13:59:15 GMT-0500 (Central Daylight Time),590650.0,012_o_f_h_a.png,O,space,1102,2,1,2275.5999999046326,588374.4000000954,7202,VNB,C,0
0,test,5,1.0,2-Back,0,z,Fri Sep 05 2025 13:59:15 GMT-0500 (Central Daylight Time),599148.0,015_o_m_d_a.png,O,m,1157,3,1,2174.199999809265,596973.8000001907,7202,VNB,C,1
1,test,5,1.0,2-Back,1,m,Fri Sep 05 2025 13:59:15 GMT-0500 (Central Daylight Time),601428.5999999046,019_m_f_n_a.png,O,m,1252,4,1,2271.2999997138977,599157.3000001907,7202,VNB,C,2
1,test,5,0.0,2-Back,0,m,Fri Sep 05 2025 13:59:15 GMT-0500 (Central Daylight Time),603963.9000000954,014_m_m_h_a.png,O,z,1500,5,1,2530.800000190735,601433.0999999046,7202,VNB,C,3
2,test,5,0.0,2-Back,1,z,Fri Sep 05 2025 13:59:15 GMT-0500 (Central Daylight Time),606194.9000000954,022_y_f_n_a.png,O,z,1215,6,1,2222.800000190735,603972.0999999046,7202,VNB,C,4
3,test,5,0.0,2-Back,1,m,Fri Sep 05 2025 13:59:15 GMT-0500 (Central Daylight Time),608243.1999998093,012_o_f_d_a.png,O,m,1028,7,1,2038.0999999046326,606205.0999999046,7202,VNB,C,5
3,test,5,0.0,2-Back,0,m,Fri Sep 05 2025 13:59:15 GMT-0500 (Central Daylight Time),611278.5,015_o_m_h_a.png,O,None,2017,8,1,3031.699999809265,608246.8000001907,7202,VNB,C,6
4,test,5,1.0,2-Back,1,z,Fri Sep 05 2025 13:59:15 GMT-0500 (Central Daylight Time),613041.5,019_m_f_d_a.png,O,z,732,9,1,1752.9000000953674,611288.5999999046,7202,VNB,C,7
5,test,5,0.0,2-Back,1,m,Fri Sep 05 2025 13:59:15 GMT-0500 (Central Daylight Time),615092.6999998093,025_y_m_n_a.png,O,m,1021,10,1,2046.3999996185303,613046.3000001907,7202,VNB,C,8
6,test,5,0.0,2-Back,1,m,Fri Sep 05 2025 13:59:15 GMT-0500 (Central Daylight Time),617459.0999999046,014_m_m_n_a.png,O,m,1350,11,1,2357.199999809265,615101.9000000954,7202,VNB,C,9
7,test,5,0.0,2-Back,1,m,Fri Sep 05 2025 13:59:15 GMT-0500 (Central Daylight Time),620122.5,022_y_f_h_a.png,O,m,1638,12,1,2655.5999999046326,617466.9000000954,7202,VNB,C,10
8,test,5,0.0,2-Back,1,m,Fri Sep 05 2025 13:59:15 GMT-0500 (Central Daylight Time),622122.3000001907,025_y_m_d_a.png,O,m,972,13,1,1996.1000003814697,620126.1999998093,7202,VNB,C,11
9,test,5,1.0,2-Back,1,z,Fri Sep 05 2025 13:59:15 GMT-0500 (Central Daylight Time),624189.8000001907,019_m_f_h_a.png,O,z,1038,14,1,2059.5,622130.3000001907,7202,VNB,C,12
10,test,5,0.0,2-Back,1,m,Fri Sep 05 2025 13:59:15 GMT-0500 (Central Daylight Time),626171.6999998093,015_o_m_n_a.png,O,m,954,15,1,1974.6999998092651,624197.0,7202,VNB,C,13
10,test,5,0.0,2-Back,0,m,Fri Sep 05 2025 13:59:15 GMT-0500 (Central Daylight Time),629204.3000001907,014_m_m_d_a.png,O,None,2016,16,1,3022.4000000953674,626181.9000000954,7202,VNB,C,14
10,test,5,0.0,2-Back,0,z,Fri Sep 05 2025 13:59:15 GMT-0500 (Central Daylight Time),630420.5,012_o_f_n_a.png,O,m,199,17,1,1208.4000000953674,629212.0999999046,7202,VNB,C,15
11,test,5,1.0,2-Back,1,m,Fri Sep 05 2025 13:59:15 GMT-0500 (Central Daylight Time),632306.0,025_y_m_h_a.png,O,m,868,18,1,1876.4000000953674,630429.5999999046,7202,VNB,C,16
