acc_sum,block,block_c,change,condition,correct,correct_response,datetime,endtime,face,project,response,response_time,row_sel,session_number,start_end,starttime,subject_id,task,task_vers,trial
0,prac,1,,1-Back,,,Fri Apr 10 2026 14:47:00 GMT-0500 (Central Daylight Time),,005_o_f_d_a.png,I,space,2219,1,,,,8092,VNB,B,0
1,prac,1,0.0,1-Back,1.0,m,Fri Apr 10 2026 14:47:00 GMT-0500 (Central Daylight Time),109687.70000004768,020_y_f_n_a.png,I,m,1391,2,,2236.399999976158,107451.30000007153,8092,VNB,B,1
2,prac,1,0.0,1-Back,1.0,m,Fri Apr 10 2026 14:47:00 GMT-0500 (Central Daylight Time),111704.30000007153,007_m_m_h_a.png,I,m,1161,3,,2005.7000000476837,109698.60000002384,8092,VNB,B,2
3,prac,1,0.0,1-Back,1.0,m,Fri Apr 10 2026 14:47:00 GMT-0500 (Central Daylight Time),113853.80000007153,016_y_m_d_a.png,I,m,1294,4,,2138.5,111715.30000007153,8092,VNB,B,3
4,prac,1,0.0,1-Back,1.0,m,Fri Apr 10 2026 14:47:00 GMT-0500 (Central Daylight Time),115871.20000004768,005_o_f_n_a.png,I,m,1160,5,,2012.2000000476837,113859.0,8092,VNB,B,4
4,prac,1,1.0,1-Back,0.0,z,Fri Apr 10 2026 14:47:00 GMT-0500 (Central Daylight Time),118149.90000009537,016_y_m_n_a.png,I,m,1387,6,,2266.0,115883.90000009537,8092,VNB,B,5
5,prac,1,0.0,1-Back,1.0,m,Fri Apr 10 2026 14:47:00 GMT-0500 (Central Daylight Time),120315.10000002384,004_o_m_h_a.png,I,m,1322,7,,2162.2999999523163,118152.80000007153,8092,VNB,B,6
6,prac,1,0.0,1-Back,1.0,m,Fri Apr 10 2026 14:47:00 GMT-0500 (Central Daylight Time),122418.20000004768,011_m_f_d_a.png,I,m,1247,8,,2090.7000000476837,120327.5,8092,VNB,B,7
7,prac,1,1.0,1-Back,1.0,z,Fri Apr 10 2026 14:47:00 GMT-0500 (Central Daylight Time),124434.30000007153,020_y_f_d_a.png,I,z,1162,9,,2012.7000000476837,122421.60000002384,8092,VNB,B,8
8,prac,1,0.0,1-Back,1.0,m,Fri Apr 10 2026 14:47:00 GMT-0500 (Central Daylight Time),127083.10000002384,007_m_m_n_a.png,I,m,1788,10,,2640.399999976158,124442.70000004768,8092,VNB,B,9
9,prac,1,0.0,1-Back,1.0,m,Fri Apr 10 2026 14:47:00 GMT-0500 (Central Daylight Time),128881.10000002384,005_o_f_h_a.png,I,m,935,11,,1794.1000000238419,127087.0,8092,VNB,B,10
10,prac,1,0.0,1-Back,1.0,m,Fri Apr 10 2026 14:47:00 GMT-0500 (Central Daylight Time),130881.80000007153,016_y_m_d_a.png,I,m,1141,12,,1991.6000000238419,128890.20000004768,8092,VNB,B,11
0,test,1,0.0,1-Back,,,Fri Apr 10 2026 14:47:00 GMT-0500 (Central Daylight Time),130881.80000007153,020_y_f_d_a.png,I,space,1092,1,,1991.6000000238419,128890.20000004768,8092,VNB,B,0
1,test,1,0.0,1-Back,1.0,m,Fri Apr 10 2026 14:47:00 GMT-0500 (Central Daylight Time),141444.80000007153,011_m_f_n_a.png,I,m,1055,2,,2078.399999976158,139366.40000009537,8092,VNB,B,1
2,test,1,0.0,1-Back,1.0,m,Fri Apr 10 2026 14:47:00 GMT-0500 (Central Daylight Time),143444.40000009537,004_o_m_h_a.png,I,m,974,3,,1991.2000000476837,141453.20000004768,8092,VNB,B,2
3,test,1,1.0,1-Back,1.0,z,Fri Apr 10 2026 14:47:00 GMT-0500 (Central Daylight Time),145509.0,007_m_m_h_a.png,I,z,1036,4,,2061.5999999046326,143447.40000009537,8092,VNB,B,3
4,test,1,0.0,1-Back,1.0,m,Fri Apr 10 2026 14:47:00 GMT-0500 (Central Daylight Time),147675.90000009537,005_o_f_n_a.png,I,m,1134,5,,2157.8000000715256,145518.10000002384,8092,VNB,B,4
5,test,1,0.0,1-Back,1.0,m,Fri Apr 10 2026 14:47:00 GMT-0500 (Central Daylight Time),149775.20000004768,016_y_m_d_a.png,I,m,1071,6,,2096.0,147679.20000004768,8092,VNB,B,5
6,test,1,1.0,1-Back,1.0,z,Fri Apr 10 2026 14:47:00 GMT-0500 (Central Daylight Time),152058.80000007153,011_m_f_d_a.png,I,z,1259,7,,2273.7000000476837,149785.10000002384,8092,VNB,B,6
7,test,1,0.0,1-Back,1.0,m,Fri Apr 10 2026 14:47:00 GMT-0500 (Central Daylight Time),154224.70000004768,020_y_f_h_a.png,I,m,1133,8,,2163.100000023842,152061.60000002384,8092,VNB,B,7
8,test,1,0.0,1-Back,1.0,m,Fri Apr 10 2026 14:47:00 GMT-0500 (Central Daylight Time),156222.60000002384,004_o_m_n_a.png,I,m,969,9,,1989.1000000238419,154233.5,8092,VNB,B,8
9,test,1,0.0,1-Back,1.0,m,Fri Apr 10 2026 14:47:00 GMT-0500 (Central Daylight Time),158705.30000007153,016_y_m_h_a.png,I,m,1448,10,,2480.100000023842,156225.20000004768,8092,VNB,B,9
10,test,1,0.0,1-Back,1.0,m,Fri Apr 10 2026 14:47:00 GMT-0500 (Central Daylight Time),160772.0,004_o_m_d_a.png,I,m,1037,11,,2057.5999999046326,158714.40000009537,8092,VNB,B,10
11,test,1,1.0,1-Back,1.0,z,Fri Apr 10 2026 14:47:00 GMT-0500 (Central Daylight Time),162854.20000004768,005_o_f_d_a.png,I,z,1053,12,,2078.899999976158,160775.30000007153,8092,VNB,B,11
12,test,1,0.0,1-Back,1.0,m,Fri Apr 10 2026 14:47:00 GMT-0500 (Central Daylight Time),164937.30000007153,007_m_m_n_a.png,I,m,1053,13,,2075.0,162862.30000007153,8092,VNB,B,12
13,test,1,1.0,1-Back,1.0,z,Fri Apr 10 2026 14:47:00 GMT-0500 (Central Daylight Time),167587.80000007153,020_y_f_n_a.png,I,z,1634,14,,2647.600000023842,164940.20000004768,8092,VNB,B,13
14,test,1,0.0,1-Back,1.0,m,Fri Apr 10 2026 14:47:00 GMT-0500 (Central Daylight Time),169952.20000004768,011_m_f_h_a.png,I,m,1334,15,,2358.100000023842,167594.10000002384,8092,VNB,B,14
15,test,1,0.0,1-Back,1.0,m,Fri Apr 10 2026 14:47:00 GMT-0500 (Central Daylight Time),172135.0,007_m_m_d_a.png,I,m,1159,16,,2180.0,169955.0,8092,VNB,B,15
16,test,1,0.0,1-Back,1.0,m,Fri Apr 10 2026 14:47:00 GMT-0500 (Central Daylight Time),174517.60000002384,016_y_m_n_a.png,I,m,1350,17,,2373.899999976158,172143.70000004768,8092,VNB,B,16
17,test,1,0.0,1-Back,1.0,m,Fri Apr 10 2026 14:47:00 GMT-0500 (Central Daylight Time),176317.60000002384,005_o_f_h_a.png,I,m,780,18,,1796.6000000238419,174521.0,8092,VNB,B,17
0,test,2,0.0,1-Back,,,Fri Apr 10 2026 14:47:00 GMT-0500 (Central Daylight Time),176317.60000002384,016_y_m_n_a.png,I,space,1091,1,,1796.6000000238419,174521.0,8092,VNB,B,0
1,test,2,0.0,1-Back,1.0,m,Fri Apr 10 2026 14:47:00 GMT-0500 (Central Daylight Time),181431.70000004768,020_y_f_h_a.png,I,m,967,2,,1995.2999999523163,179436.40000009537,8092,VNB,B,1
2,test,2,1.0,1-Back,1.0,m,Fri Apr 10 2026 14:47:00 GMT-0500 (Central Daylight Time),183564.10000002384,004_o_m_n_a.png,I,m,1104,3,,2122.2999999523163,181441.80000007153,8092,VNB,B,2
2,test,2,0.0,1-Back,0.0,m,Fri Apr 10 2026 14:47:00 GMT-0500 (Central Daylight Time),185931.20000004768,011_m_f_d_a.png,I,z,1333,4,,2363.899999976158,183567.30000007153,8092,VNB,B,3
3,test,2,0.0,1-Back,1.0,z,Fri Apr 10 2026 14:47:00 GMT-0500 (Central Daylight Time),187845.20000004768,007_m_m_d_a.png,I,z,893,5,,1904.7000000476837,185940.5,8092,VNB,B,4
4,test,2,0.0,1-Back,1.0,m,Fri Apr 10 2026 14:47:00 GMT-0500 (Central Daylight Time),189680.0,016_y_m_h_a.png,I,m,801,6,,1832.5999999046326,187847.40000009537,8092,VNB,B,5
4,test,2,1.0,1-Back,0.0,z,Fri Apr 10 2026 14:47:00 GMT-0500 (Central Daylight Time),191596.30000007153,005_o_f_h_a.png,I,m,902,7,,1906.8000000715256,189689.5,8092,VNB,B,6
5,test,2,0.0,1-Back,1.0,m,Fri Apr 10 2026 14:47:00 GMT-0500 (Central Daylight Time),193861.30000007153,011_m_f_n_a.png,I,m,1249,8,,2261.899999976158,191599.40000009537,8092,VNB,B,7
6,test,2,0.0,1-Back,1.0,m,Fri Apr 10 2026 14:47:00 GMT-0500 (Central Daylight Time),196043.60000002384,020_y_f_d_a.png,I,m,1164,9,,2173.2999999523163,193870.30000007153,8092,VNB,B,8
7,test,2,0.0,1-Back,1.0,m,Fri Apr 10 2026 14:47:00 GMT-0500 (Central Daylight Time),198075.60000002384,007_m_m_n_a.png,I,m,1025,10,,2029.0,196046.60000002384,8092,VNB,B,9
8,test,2,1.0,1-Back,1.0,m,Fri Apr 10 2026 14:47:00 GMT-0500 (Central Daylight Time),200125.40000009537,011_m_f_h_a.png,I,m,1020,11,,2041.9000000953674,198083.5,8092,VNB,B,10
9,test,2,0.0,1-Back,1.0,z,Fri Apr 10 2026 14:47:00 GMT-0500 (Central Daylight Time),202290.80000007153,004_o_m_h_a.png,I,z,1138,12,,2161.399999976158,200129.40000009537,8092,VNB,B,11
10,test,2,0.0,1-Back,1.0,m,Fri Apr 10 2026 14:47:00 GMT-0500 (Central Daylight Time),204308.30000007153,016_y_m_d_a.png,I,m,999,13,,2012.0,202296.30000007153,8092,VNB,B,12
11,test,2,0.0,1-Back,1.0,m,Fri Apr 10 2026 14:47:00 GMT-0500 (Central Daylight Time),206372.90000009537,005_o_f_n_a.png,I,m,1036,14,,2062.600000023842,204310.30000007153,8092,VNB,B,13
12,test,2,0.0,1-Back,1.0,z,Fri Apr 10 2026 14:47:00 GMT-0500 (Central Daylight Time),208422.10000002384,020_y_f_n_a.png,I,z,1030,15,,2039.0,206383.10000002384,8092,VNB,B,14
13,test,2,1.0,1-Back,1.0,m,Fri Apr 10 2026 14:47:00 GMT-0500 (Central Daylight Time),210221.40000009537,007_m_m_h_a.png,I,m,778,16,,1796.3000000715256,208425.10000002384,8092,VNB,B,15
14,test,2,0.0,1-Back,1.0,m,Fri Apr 10 2026 14:47:00 GMT-0500 (Central Daylight Time),212604.5,005_o_f_d_a.png,I,m,1363,17,,2379.6999999284744,210224.80000007153,8092,VNB,B,16
15,test,2,1.0,1-Back,1.0,z,Fri Apr 10 2026 14:47:00 GMT-0500 (Central Daylight Time),214504.5,004_o_m_d_a.png,I,z,873,18,,1896.1999999284744,212608.30000007153,8092,VNB,B,17
0,test,3,1.0,1-Back,,,Fri Apr 10 2026 14:47:00 GMT-0500 (Central Daylight Time),214504.5,005_o_f_h_a.png,I,space,1081,1,,1896.1999999284744,212608.30000007153,8092,VNB,B,0
1,test,3,0.0,1-Back,1.0,m,Fri Apr 10 2026 14:47:00 GMT-0500 (Central Daylight Time),219885.40000009537,011_m_f_d_a.png,I,m,1170,2,,2197.2000000476837,217688.20000004768,8092,VNB,B,1
2,test,3,1.0,1-Back,1.0,m,Fri Apr 10 2026 14:47:00 GMT-0500 (Central Daylight Time),221952.5,007_m_m_n_a.png,I,m,1035,3,,2058.5999999046326,219893.90000009537,8092,VNB,B,2
3,test,3,0.0,1-Back,1.0,z,Fri Apr 10 2026 14:47:00 GMT-0500 (Central Daylight Time),224100.90000009537,005_o_f_n_a.png,I,z,1119,4,,2144.5,221956.40000009537,8092,VNB,B,3
4,test,3,1.0,1-Back,1.0,m,Fri Apr 10 2026 14:47:00 GMT-0500 (Central Daylight Time),225850.30000007153,004_o_m_d_a.png,I,m,732,5,,1744.0,224106.30000007153,8092,VNB,B,4
5,test,3,0.0,1-Back,1.0,m,Fri Apr 10 2026 14:47:00 GMT-0500 (Central Daylight Time),227749.60000002384,020_y_f_h_a.png,I,m,871,6,,1895.1000000238419,225854.5,8092,VNB,B,5
6,test,3,0.0,1-Back,1.0,z,Fri Apr 10 2026 14:47:00 GMT-0500 (Central Daylight Time),229715.70000004768,016_y_m_h_a.png,I,z,939,7,,1954.7999999523163,227760.90000009537,8092,VNB,B,6
7,test,3,0.0,1-Back,1.0,m,Fri Apr 10 2026 14:47:00 GMT-0500 (Central Daylight Time),231799.0,011_m_f_n_a.png,I,m,1061,8,,2076.5999999046326,229722.40000009537,8092,VNB,B,7
8,test,3,0.0,1-Back,1.0,m,Fri Apr 10 2026 14:47:00 GMT-0500 (Central Daylight Time),234049.5,020_y_f_d_a.png,I,m,1219,9,,2239.0999999046326,231810.40000009537,8092,VNB,B,8
9,test,3,1.0,1-Back,1.0,m,Fri Apr 10 2026 14:47:00 GMT-0500 (Central Daylight Time),236563.40000009537,004_o_m_n_a.png,I,m,1487,10,,2508.8000000715256,234054.60000002384,8092,VNB,B,9
10,test,3,0.0,1-Back,1.0,m,Fri Apr 10 2026 14:47:00 GMT-0500 (Central Daylight Time),238462.90000009537,007_m_m_h_a.png,I,m,877,11,,1889.4000000953674,236573.5,8092,VNB,B,10
11,test,3,0.0,1-Back,1.0,z,Fri Apr 10 2026 14:47:00 GMT-0500 (Central Daylight Time),240582.20000004768,011_m_f_h_a.png,I,z,1098,12,,2112.600000023842,238469.60000002384,8092,VNB,B,11
12,test,3,1.0,1-Back,1.0,m,Fri Apr 10 2026 14:47:00 GMT-0500 (Central Daylight Time),242562.80000007153,005_o_f_d_a.png,I,m,960,13,,1971.6000000238419,240591.20000004768,8092,VNB,B,12
13,test,3,0.0,1-Back,1.0,z,Fri Apr 10 2026 14:47:00 GMT-0500 (Central Daylight Time),244511.5,007_m_m_d_a.png,I,z,916,14,,1946.5999999046326,242564.90000009537,8092,VNB,B,13
14,test,3,0.0,1-Back,1.0,m,Fri Apr 10 2026 14:47:00 GMT-0500 (Central Daylight Time),246643.80000007153,016_y_m_n_a.png,I,m,1104,15,,2122.3000000715256,244521.5,8092,VNB,B,14
15,test,3,1.0,1-Back,1.0,m,Fri Apr 10 2026 14:47:00 GMT-0500 (Central Daylight Time),248644.40000009537,004_o_m_h_a.png,I,m,980,16,,1996.5,246647.90000009537,8092,VNB,B,15
15,test,3,0.0,1-Back,0.0,m,Fri Apr 10 2026 14:47:00 GMT-0500 (Central Daylight Time),250741.80000007153,016_y_m_d_a.png,I,z,1078,17,,2089.100000023842,248652.70000004768,8092,VNB,B,16
16,test,3,1.0,1-Back,1.0,m,Fri Apr 10 2026 14:47:00 GMT-0500 (Central Daylight Time),253076.0,020_y_f_n_a.png,I,m,1305,18,,2330.7999999523163,250745.20000004768,8092,VNB,B,17
0,test,4,1.0,1-Back,,,Fri Apr 10 2026 14:47:00 GMT-0500 (Central Daylight Time),253076.0,007_m_m_d_a.png,I,space,1300,1,,2330.7999999523163,250745.20000004768,8092,VNB,B,0
1,test,4,0.0,1-Back,1.0,z,Fri Apr 10 2026 14:47:00 GMT-0500 (Central Daylight Time),258624.20000004768,004_o_m_d_a.png,I,z,1184,2,,2212.600000023842,256411.60000002384,8092,VNB,B,1
2,test,4,0.0,1-Back,1.0,m,Fri Apr 10 2026 14:47:00 GMT-0500 (Central Daylight Time),260673.70000004768,016_y_m_h_a.png,I,m,1017,3,,2041.6000000238419,258632.10000002384,8092,VNB,B,2
3,test,4,0.0,1-Back,1.0,m,Fri Apr 10 2026 14:47:00 GMT-0500 (Central Daylight Time),262822.10000002384,011_m_f_n_a.png,I,m,1129,4,,2144.7999999523163,260677.30000007153,8092,VNB,B,3
3,test,4,1.0,1-Back,0.0,m,Fri Apr 10 2026 14:47:00 GMT-0500 (Central Daylight Time),265855.2000000477,005_o_f_h_a.png,I,None,2015,5,,3022.600000023842,262832.60000002384,8092,VNB,B,4
4,test,4,0.0,1-Back,1.0,m,Fri Apr 10 2026 14:47:00 GMT-0500 (Central Daylight Time),268453.5,007_m_m_n_a.png,I,m,1578,6,,2595.399999976158,265858.10000002384,8092,VNB,B,5
5,test,4,0.0,1-Back,1.0,m,Fri Apr 10 2026 14:47:00 GMT-0500 (Central Daylight Time),270421.2000000477,016_y_m_d_a.png,I,m,948,7,,1956.2000000476837,268465.0,8092,VNB,B,6
6,test,4,1.0,1-Back,1.0,z,Fri Apr 10 2026 14:47:00 GMT-0500 (Central Daylight Time),272670.10000002384,020_y_f_d_a.png,I,z,1220,8,,2245.2999999523163,270424.8000000715,8092,VNB,B,7
7,test,4,0.0,1-Back,1.0,m,Fri Apr 10 2026 14:47:00 GMT-0500 (Central Daylight Time),274568.40000009537,011_m_f_h_a.png,I,m,869,9,,1890.3000000715256,272678.10000002384,8092,VNB,B,8
7,test,4,0.0,1-Back,0.0,z,Fri Apr 10 2026 14:47:00 GMT-0500 (Central Daylight Time),276516.60000002384,004_o_m_h_a.png,I,m,920,10,,1943.7999999523163,274572.8000000715,8092,VNB,B,9
8,test,4,1.0,1-Back,1.0,m,Fri Apr 10 2026 14:47:00 GMT-0500 (Central Daylight Time),278849.7000000477,005_o_f_n_a.png,I,m,1316,11,,2328.2000000476837,276521.5,8092,VNB,B,10
9,test,4,0.0,1-Back,1.0,m,Fri Apr 10 2026 14:47:00 GMT-0500 (Central Daylight Time),281498.5,011_m_f_d_a.png,I,m,1620,12,,2645.7999999523163,278852.7000000477,8092,VNB,B,11
10,test,4,0.0,1-Back,1.0,m,Fri Apr 10 2026 14:47:00 GMT-0500 (Central Daylight Time),283897.60000002384,020_y_f_n_a.png,I,m,1366,13,,2395.100000023842,281502.5,8092,VNB,B,12
11,test,4,0.0,1-Back,1.0,m,Fri Apr 10 2026 14:47:00 GMT-0500 (Central Daylight Time),285897.0,005_o_f_d_a.png,I,m,974,14,,1997.5999999046326,283899.40000009537,8092,VNB,B,13
12,test,4,0.0,1-Back,1.0,m,Fri Apr 10 2026 14:47:00 GMT-0500 (Central Daylight Time),287914.2000000477,020_y_f_h_a.png,I,m,1000,15,,2014.0,285900.2000000477,8092,VNB,B,14
13,test,4,1.0,1-Back,1.0,z,Fri Apr 10 2026 14:47:00 GMT-0500 (Central Daylight Time),289748.10000002384,007_m_m_h_a.png,I,z,817,16,,1830.2999999523163,287917.8000000715,8092,VNB,B,15
14,test,4,0.0,1-Back,1.0,m,Fri Apr 10 2026 14:47:00 GMT-0500 (Central Daylight Time),291930.90000009537,004_o_m_n_a.png,I,m,1166,17,,2174.8000000715256,289756.10000002384,8092,VNB,B,16
15,test,4,1.0,1-Back,1.0,z,Fri Apr 10 2026 14:47:00 GMT-0500 (Central Daylight Time),294063.90000009537,016_y_m_n_a.png,I,z,1104,18,,2129.9000000953674,291934.0,8092,VNB,B,17
0,test,5,1.0,1-Back,,,Fri Apr 10 2026 14:47:00 GMT-0500 (Central Daylight Time),294063.90000009537,004_o_m_n_a.png,I,space,1106,1,,2129.9000000953674,291934.0,8092,VNB,B,0
1,test,5,1.0,1-Back,1.0,m,Fri Apr 10 2026 14:47:00 GMT-0500 (Central Daylight Time),299144.60000002384,005_o_f_h_a.png,I,m,918,2,,1947.5,297197.10000002384,8092,VNB,B,1
2,test,5,0.0,1-Back,1.0,m,Fri Apr 10 2026 14:47:00 GMT-0500 (Central Daylight Time),301394.5,016_y_m_d_a.png,I,m,1232,3,,2240.5,299154.0,8092,VNB,B,2
3,test,5,0.0,1-Back,1.0,z,Fri Apr 10 2026 14:47:00 GMT-0500 (Central Daylight Time),303208.0,004_o_m_d_a.png,I,z,790,4,,1810.5,301397.5,8092,VNB,B,3
4,test,5,0.0,1-Back,1.0,m,Fri Apr 10 2026 14:47:00 GMT-0500 (Central Daylight Time),305041.90000009537,011_m_f_h_a.png,I,m,804,5,,1829.0,303212.90000009537,8092,VNB,B,4
4,test,5,0.0,1-Back,0.0,m,Fri Apr 10 2026 14:47:00 GMT-0500 (Central Daylight Time),307275.7000000477,020_y_f_n_a.png,I,z,1215,6,,2231.7999999523163,305043.90000009537,8092,VNB,B,5
5,test,5,1.0,1-Back,1.0,z,Fri Apr 10 2026 14:47:00 GMT-0500 (Central Daylight Time),309725.60000002384,005_o_f_n_a.png,I,z,1419,7,,2445.5,307280.10000002384,8092,VNB,B,6
6,test,5,0.0,1-Back,1.0,m,Fri Apr 10 2026 14:47:00 GMT-0500 (Central Daylight Time),312040.0,011_m_f_d_a.png,I,m,1294,8,,2311.0,309729.0,8092,VNB,B,7
7,test,5,0.0,1-Back,1.0,m,Fri Apr 10 2026 14:47:00 GMT-0500 (Central Daylight Time),314106.90000009537,016_y_m_h_a.png,I,m,1034,9,,2058.600000023842,312048.3000000715,8092,VNB,B,8
8,test,5,0.0,1-Back,1.0,m,Fri Apr 10 2026 14:47:00 GMT-0500 (Central Daylight Time),316790.2000000477,020_y_f_d_a.png,I,m,1677,10,,2680.0,314110.2000000477,8092,VNB,B,9
9,test,5,0.0,1-Back,1.0,m,Fri Apr 10 2026 14:47:00 GMT-0500 (Central Daylight Time),318804.8000000715,007_m_m_n_a.png,I,m,989,11,,2000.2000000476837,316804.60000002384,8092,VNB,B,10
10,test,5,1.0,1-Back,1.0,z,Fri Apr 10 2026 14:47:00 GMT-0500 (Central Daylight Time),320821.90000009537,011_m_f_n_a.png,I,z,987,12,,2014.1000000238419,318807.8000000715,8092,VNB,B,11
11,test,5,0.0,1-Back,1.0,m,Fri Apr 10 2026 14:47:00 GMT-0500 (Central Daylight Time),322886.60000002384,004_o_m_h_a.png,I,m,1037,13,,2055.600000023842,320831.0,8092,VNB,B,12
11,test,5,0.0,1-Back,0.0,z,Fri Apr 10 2026 14:47:00 GMT-0500 (Central Daylight Time),324736.2000000477,007_m_m_h_a.png,I,m,817,14,,1846.7000000476837,322889.5,8092,VNB,B,13
12,test,5,1.0,1-Back,1.0,m,Fri Apr 10 2026 14:47:00 GMT-0500 (Central Daylight Time),326769.7000000477,005_o_f_d_a.png,I,m,1008,15,,2023.3999999761581,324746.3000000715,8092,VNB,B,14
12,test,5,0.0,1-Back,0.0,m,Fri Apr 10 2026 14:47:00 GMT-0500 (Central Daylight Time),329799.8000000715,016_y_m_n_a.png,I,None,2014,16,,3027.399999976158,326772.40000009537,8092,VNB,B,15
13,test,5,0.0,1-Back,1.0,m,Fri Apr 10 2026 14:47:00 GMT-0500 (Central Daylight Time),331783.5,020_y_f_h_a.png,I,m,951,17,,1980.5,329803.0,8092,VNB,B,16
14,test,5,0.0,1-Back,1.0,m,Fri Apr 10 2026 14:47:00 GMT-0500 (Central Daylight Time),333766.40000009537,007_m_m_d_a.png,I,m,961,18,,1979.2000000476837,331787.2000000477,8092,VNB,B,17
0,prac,1,0.0,2-Back,,,Fri Apr 10 2026 14:47:00 GMT-0500 (Central Daylight Time),333766.40000009537,011_m_f_n_a.png,I,space,1609,1,,1979.2000000476837,331787.2000000477,8092,VNB,B,0
0,prac,1,0.0,2-Back,,,Fri Apr 10 2026 14:47:00 GMT-0500 (Central Daylight Time),333766.40000009537,005_o_f_h_a.png,I,space,1609,2,,1979.2000000476837,331787.2000000477,8092,VNB,B,0
0,prac,1,0.0,2-Back,0.0,m,Fri Apr 10 2026 14:47:00 GMT-0500 (Central Daylight Time),405360.40000009537,004_o_m_d_a.png,I,None,2011,3,,2846.3000000715256,402514.10000002384,8092,VNB,B,1
1,prac,1,1.0,2-Back,1.0,z,Fri Apr 10 2026 14:47:00 GMT-0500 (Central Daylight Time),407294.2000000477,007_m_m_h_a.png,I,z,1079,4,,1923.7999999523163,405370.40000009537,8092,VNB,B,2
2,prac,1,0.0,2-Back,1.0,m,Fri Apr 10 2026 14:47:00 GMT-0500 (Central Daylight Time),409231.60000002384,020_y_f_n_a.png,I,m,1107,5,,1932.1000000238419,407299.5,8092,VNB,B,3
3,prac,1,1.0,2-Back,1.0,z,Fri Apr 10 2026 14:47:00 GMT-0500 (Central Daylight Time),411026.10000002384,004_o_m_h_a.png,I,z,1020,6,,1787.8999999761581,409238.2000000477,8092,VNB,B,4
3,prac,1,1.0,2-Back,0.0,z,Fri Apr 10 2026 14:47:00 GMT-0500 (Central Daylight Time),412957.40000009537,016_y_m_n_a.png,I,m,1058,7,,1926.0,411031.40000009537,8092,VNB,B,5
3,prac,1,0.0,2-Back,0.0,m,Fri Apr 10 2026 14:47:00 GMT-0500 (Central Daylight Time),415174.40000009537,011_m_f_d_a.png,I,z,1350,8,,2205.0,412969.40000009537,8092,VNB,B,6
4,prac,1,0.0,2-Back,1.0,m,Fri Apr 10 2026 14:47:00 GMT-0500 (Central Daylight Time),417174.0,005_o_f_d_a.png,I,m,1131,9,,1994.2999999523163,415179.7000000477,8092,VNB,B,7
5,prac,1,0.0,2-Back,1.0,m,Fri Apr 10 2026 14:47:00 GMT-0500 (Central Daylight Time),419372.2000000477,007_m_m_h_a.png,I,m,1417,10,,2188.5,417183.7000000477,8092,VNB,B,8
6,prac,1,1.0,2-Back,1.0,z,Fri Apr 10 2026 14:47:00 GMT-0500 (Central Daylight Time),421222.7000000477,020_y_f_d_a.png,I,z,989,11,,1845.0,419377.7000000477,8092,VNB,B,9
7,prac,1,0.0,2-Back,1.0,m,Fri Apr 10 2026 14:47:00 GMT-0500 (Central Daylight Time),423870.8000000715,004_o_m_n_a.png,I,m,1791,12,,2636.0,421234.8000000715,8092,VNB,B,10
0,test,1,0.0,2-Back,,,Fri Apr 10 2026 14:47:00 GMT-0500 (Central Daylight Time),423870.8000000715,016_y_m_h_a.png,I,space,2906,1,,2636.0,421234.8000000715,8092,VNB,B,0
0,test,1,0.0,2-Back,,,Fri Apr 10 2026 14:47:00 GMT-0500 (Central Daylight Time),423870.8000000715,005_o_f_n_a.png,I,space,2906,2,,2636.0,421234.8000000715,8092,VNB,B,0
1,test,1,0.0,2-Back,1.0,z,Fri Apr 10 2026 14:47:00 GMT-0500 (Central Daylight Time),438649.40000009537,004_o_m_h_a.png,I,z,1368,3,,2397.7000000476837,436251.7000000477,8092,VNB,B,1
2,test,1,0.0,2-Back,1.0,m,Fri Apr 10 2026 14:47:00 GMT-0500 (Central Daylight Time),441383.2000000477,011_m_f_d_a.png,I,m,1704,4,,2728.7000000476837,438654.5,8092,VNB,B,2
2,test,1,1.0,2-Back,0.0,m,Fri Apr 10 2026 14:47:00 GMT-0500 (Central Daylight Time),443380.90000009537,016_y_m_n_a.png,I,z,980,5,,1995.3000000715256,441385.60000002384,8092,VNB,B,3
3,test,1,0.0,2-Back,1.0,z,Fri Apr 10 2026 14:47:00 GMT-0500 (Central Daylight Time),445596.60000002384,020_y_f_d_a.png,I,z,1195,6,,2206.1999999284744,443390.40000009537,8092,VNB,B,4
4,test,1,0.0,2-Back,1.0,m,Fri Apr 10 2026 14:47:00 GMT-0500 (Central Daylight Time),448046.0,007_m_m_h_a.png,I,m,1418,7,,2445.1999999284744,445600.8000000715,8092,VNB,B,5
5,test,1,1.0,2-Back,1.0,m,Fri Apr 10 2026 14:47:00 GMT-0500 (Central Daylight Time),450545.90000009537,020_y_f_n_a.png,I,m,1477,8,,2491.7000000476837,448054.2000000477,8092,VNB,B,6
6,test,1,0.0,2-Back,1.0,z,Fri Apr 10 2026 14:47:00 GMT-0500 (Central Daylight Time),452744.90000009537,005_o_f_h_a.png,I,z,1167,9,,2195.8000000715256,450549.10000002384,8092,VNB,B,7
7,test,1,0.0,2-Back,1.0,m,Fri Apr 10 2026 14:47:00 GMT-0500 (Central Daylight Time),454994.2000000477,004_o_m_d_a.png,I,m,1232,10,,2236.7999999523163,452757.40000009537,8092,VNB,B,8
8,test,1,1.0,2-Back,1.0,m,Fri Apr 10 2026 14:47:00 GMT-0500 (Central Daylight Time),457261.2000000477,007_m_m_d_a.png,I,m,1239,11,,2263.0,454998.2000000477,8092,VNB,B,9
8,test,1,0.0,2-Back,0.0,m,Fri Apr 10 2026 14:47:00 GMT-0500 (Central Daylight Time),459476.2000000477,011_m_f_n_a.png,I,z,1189,12,,2206.399999976158,457269.8000000715,8092,VNB,B,10
9,test,1,0.0,2-Back,1.0,m,Fri Apr 10 2026 14:47:00 GMT-0500 (Central Daylight Time),461694.3000000715,020_y_f_h_a.png,I,m,1188,13,,2213.600000023842,459480.7000000477,8092,VNB,B,11
10,test,1,0.0,2-Back,1.0,z,Fri Apr 10 2026 14:47:00 GMT-0500 (Central Daylight Time),463858.40000009537,007_m_m_n_a.png,I,z,1131,14,,2157.2000000476837,461701.2000000477,8092,VNB,B,12
10,test,1,0.0,2-Back,0.0,m,Fri Apr 10 2026 14:47:00 GMT-0500 (Central Daylight Time),466308.10000002384,016_y_m_d_a.png,I,z,1433,15,,2444.7999999523163,463863.3000000715,8092,VNB,B,13
11,test,1,1.0,2-Back,1.0,m,Fri Apr 10 2026 14:47:00 GMT-0500 (Central Daylight Time),468240.40000009537,011_m_f_h_a.png,I,m,901,16,,1924.8000000715256,466315.60000002384,8092,VNB,B,14
12,test,1,0.0,2-Back,1.0,z,Fri Apr 10 2026 14:47:00 GMT-0500 (Central Daylight Time),470788.7000000477,005_o_f_d_a.png,I,z,1518,17,,2545.0,468243.7000000477,8092,VNB,B,15
13,test,1,0.0,2-Back,1.0,m,Fri Apr 10 2026 14:47:00 GMT-0500 (Central Daylight Time),472905.2000000477,004_o_m_n_a.png,I,m,1091,18,,2105.899999976158,470799.3000000715,8092,VNB,B,16
0,test,2,0.0,2-Back,,,Fri Apr 10 2026 14:47:00 GMT-0500 (Central Daylight Time),472905.2000000477,007_m_m_h_a.png,I,space,1176,1,,2105.899999976158,470799.3000000715,8092,VNB,B,0
0,test,2,0.0,2-Back,,,Fri Apr 10 2026 14:47:00 GMT-0500 (Central Daylight Time),472905.2000000477,020_y_f_n_a.png,I,space,1176,2,,2105.899999976158,470799.3000000715,8092,VNB,B,0
1,test,2,1.0,2-Back,1.0,z,Fri Apr 10 2026 14:47:00 GMT-0500 (Central Daylight Time),481386.90000009537,005_o_f_h_a.png,I,z,1079,3,,2095.7000000476837,479291.2000000477,8092,VNB,B,1
2,test,2,0.0,2-Back,1.0,m,Fri Apr 10 2026 14:47:00 GMT-0500 (Central Daylight Time),484069.10000002384,004_o_m_d_a.png,I,m,1664,4,,2673.600000023842,481395.5,8092,VNB,B,2
2,test,2,0.0,2-Back,0.0,m,Fri Apr 10 2026 14:47:00 GMT-0500 (Central Daylight Time),486451.3000000715,011_m_f_d_a.png,I,z,1366,5,,2377.899999976158,484073.40000009537,8092,VNB,B,3
3,test,2,0.0,2-Back,1.0,m,Fri Apr 10 2026 14:47:00 GMT-0500 (Central Daylight Time),488451.2000000477,016_y_m_h_a.png,I,m,973,6,,1989.6000000238419,486461.60000002384,8092,VNB,B,4
3,test,2,0.0,2-Back,0.0,m,Fri Apr 10 2026 14:47:00 GMT-0500 (Central Daylight Time),490483.10000002384,005_o_f_n_a.png,I,z,1007,7,,2028.1999999284744,488454.90000009537,8092,VNB,B,5
4,test,2,1.0,2-Back,1.0,z,Fri Apr 10 2026 14:47:00 GMT-0500 (Central Daylight Time),492649.2000000477,004_o_m_h_a.png,I,z,1134,8,,2158.7999999523163,490490.40000009537,8092,VNB,B,6
5,test,2,0.0,2-Back,1.0,m,Fri Apr 10 2026 14:47:00 GMT-0500 (Central Daylight Time),494214.2000000477,020_y_f_d_a.png,I,m,543,9,,1561.3999999761581,492652.8000000715,8092,VNB,B,7
6,test,2,0.0,2-Back,1.0,m,Fri Apr 10 2026 14:47:00 GMT-0500 (Central Daylight Time),496314.2000000477,016_y_m_d_a.png,I,m,1074,10,,2092.600000023842,494221.60000002384,8092,VNB,B,8
7,test,2,0.0,2-Back,1.0,m,Fri Apr 10 2026 14:47:00 GMT-0500 (Central Daylight Time),498530.5,007_m_m_n_a.png,I,m,1190,11,,2213.1999999284744,496317.3000000715,8092,VNB,B,9
8,test,2,0.0,2-Back,1.0,m,Fri Apr 10 2026 14:47:00 GMT-0500 (Central Daylight Time),500331.0,011_m_f_h_a.png,I,m,784,12,,1790.5999999046326,498540.40000009537,8092,VNB,B,10
9,test,2,1.0,2-Back,1.0,z,Fri Apr 10 2026 14:47:00 GMT-0500 (Central Daylight Time),502280.10000002384,004_o_m_n_a.png,I,z,927,13,,1945.1000000238419,500335.0,8092,VNB,B,11
10,test,2,0.0,2-Back,1.0,m,Fri Apr 10 2026 14:47:00 GMT-0500 (Central Daylight Time),504444.40000009537,005_o_f_d_a.png,I,m,1137,14,,2158.100000023842,502286.3000000715,8092,VNB,B,12
10,test,2,0.0,2-Back,0.0,m,Fri Apr 10 2026 14:47:00 GMT-0500 (Central Daylight Time),506211.5,020_y_f_h_a.png,I,z,739,15,,1763.1999999284744,504448.3000000715,8092,VNB,B,13
10,test,2,0.0,2-Back,0.0,z,Fri Apr 10 2026 14:47:00 GMT-0500 (Central Daylight Time),508627.3000000715,007_m_m_d_a.png,I,m,1400,16,,2405.399999976158,506221.90000009537,8092,VNB,B,14
11,test,2,0.0,2-Back,1.0,m,Fri Apr 10 2026 14:47:00 GMT-0500 (Central Daylight Time),511043.7000000477,016_y_m_n_a.png,I,m,1391,17,,2412.7999999523163,508630.90000009537,8092,VNB,B,15
12,test,2,1.0,2-Back,1.0,m,Fri Apr 10 2026 14:47:00 GMT-0500 (Central Daylight Time),513292.8000000715,011_m_f_n_a.png,I,m,1233,18,,2237.3000000715256,511055.5,8092,VNB,B,16
0,test,3,1.0,2-Back,,,Fri Apr 10 2026 14:47:00 GMT-0500 (Central Daylight Time),513292.8000000715,004_o_m_n_a.png,I,space,1029,1,,2237.3000000715256,511055.5,8092,VNB,B,0
0,test,3,1.0,2-Back,,,Fri Apr 10 2026 14:47:00 GMT-0500 (Central Daylight Time),513292.8000000715,005_o_f_d_a.png,I,space,1029,2,,2237.3000000715256,511055.5,8092,VNB,B,0
1,test,3,0.0,2-Back,1.0,m,Fri Apr 10 2026 14:47:00 GMT-0500 (Central Daylight Time),521339.8000000715,020_y_f_h_a.png,I,m,939,3,,1962.5,519377.3000000715,8092,VNB,B,1
2,test,3,0.0,2-Back,1.0,z,Fri Apr 10 2026 14:47:00 GMT-0500 (Central Daylight Time),523422.5,011_m_f_d_a.png,I,z,1058,4,,2074.399999976158,521348.10000002384,8092,VNB,B,2
3,test,3,1.0,2-Back,1.0,m,Fri Apr 10 2026 14:47:00 GMT-0500 (Central Daylight Time),525438.7000000477,016_y_m_n_a.png,I,m,986,5,,2014.1000000238419,523424.60000002384,8092,VNB,B,3
3,test,3,0.0,2-Back,0.0,m,Fri Apr 10 2026 14:47:00 GMT-0500 (Central Daylight Time),527521.7000000477,004_o_m_h_a.png,I,z,1050,6,,2077.100000023842,525444.6000000238,8092,VNB,B,4
3,test,3,0.0,2-Back,0.0,z,Fri Apr 10 2026 14:47:00 GMT-0500 (Central Daylight Time),529686.5,020_y_f_n_a.png,I,m,1143,7,,2161.0,527525.5,8092,VNB,B,5
4,test,3,1.0,2-Back,1.0,m,Fri Apr 10 2026 14:47:00 GMT-0500 (Central Daylight Time),531604.7000000477,007_m_m_d_a.png,I,m,898,8,,1910.0,529694.7000000477,8092,VNB,B,6
4,test,3,0.0,2-Back,0.0,m,Fri Apr 10 2026 14:47:00 GMT-0500 (Central Daylight Time),533653.5,016_y_m_d_a.png,I,z,1020,9,,2046.3999999761581,531607.1000000238,8092,VNB,B,7
5,test,3,0.0,2-Back,1.0,m,Fri Apr 10 2026 14:47:00 GMT-0500 (Central Daylight Time),535752.7000000477,005_o_f_h_a.png,I,m,1068,10,,2092.100000023842,533660.6000000238,8092,VNB,B,8
5,test,3,1.0,2-Back,0.0,m,Fri Apr 10 2026 14:47:00 GMT-0500 (Central Daylight Time),537800.8000000715,011_m_f_n_a.png,I,z,1021,11,,2044.7000000476837,535756.1000000238,8092,VNB,B,9
5,test,3,1.0,2-Back,0.0,z,Fri Apr 10 2026 14:47:00 GMT-0500 (Central Daylight Time),539701.1000000238,007_m_m_h_a.png,I,m,869,12,,1891.5,537809.6000000238,8092,VNB,B,10
5,test,3,0.0,2-Back,0.0,m,Fri Apr 10 2026 14:47:00 GMT-0500 (Central Daylight Time),542033.5,020_y_f_d_a.png,I,z,1309,13,,2327.899999976158,539705.6000000238,8092,VNB,B,11
5,test,3,0.0,2-Back,0.0,m,Fri Apr 10 2026 14:47:00 GMT-0500 (Central Daylight Time),543983.2000000477,005_o_f_n_a.png,I,z,918,14,,1940.7999999523163,542042.4000000954,8092,VNB,B,12
5,test,3,0.0,2-Back,0.0,z,Fri Apr 10 2026 14:47:00 GMT-0500 (Central Daylight Time),546115.4000000954,004_o_m_d_a.png,I,m,1114,15,,2129.100000023842,543986.3000000715,8092,VNB,B,13
6,test,3,1.0,2-Back,1.0,m,Fri Apr 10 2026 14:47:00 GMT-0500 (Central Daylight Time),548248.0,011_m_f_h_a.png,I,m,1108,16,,2123.399999976158,546124.6000000238,8092,VNB,B,14
6,test,3,0.0,2-Back,0.0,m,Fri Apr 10 2026 14:47:00 GMT-0500 (Central Daylight Time),550531.1000000238,007_m_m_n_a.png,I,z,1266,17,,2280.399999976158,548250.7000000477,8092,VNB,B,15
7,test,3,0.0,2-Back,1.0,z,Fri Apr 10 2026 14:47:00 GMT-0500 (Central Daylight Time),552912.9000000954,016_y_m_h_a.png,I,z,1359,18,,2372.8000000715256,550540.1000000238,8092,VNB,B,16
0,test,4,0.0,2-Back,,,Fri Apr 10 2026 14:47:00 GMT-0500 (Central Daylight Time),552912.9000000954,011_m_f_n_a.png,I,space,1056,1,,2372.8000000715256,550540.1000000238,8092,VNB,B,0
0,test,4,0.0,2-Back,,,Fri Apr 10 2026 14:47:00 GMT-0500 (Central Daylight Time),552912.9000000954,004_o_m_n_a.png,I,space,1056,2,,2372.8000000715256,550540.1000000238,8092,VNB,B,0
1,test,4,1.0,2-Back,1.0,m,Fri Apr 10 2026 14:47:00 GMT-0500 (Central Daylight Time),561028.3000000715,016_y_m_h_a.png,I,m,824,3,,1846.2000000476837,559182.1000000238,8092,VNB,B,1
2,test,4,1.0,2-Back,1.0,m,Fri Apr 10 2026 14:47:00 GMT-0500 (Central Daylight Time),563775.7000000477,005_o_f_d_a.png,I,m,1726,4,,2736.2999999523163,561039.4000000954,8092,VNB,B,2
3,test,4,0.0,2-Back,1.0,z,Fri Apr 10 2026 14:47:00 GMT-0500 (Central Daylight Time),565760.0,004_o_m_h_a.png,I,z,961,5,,1982.0999999046326,563777.9000000954,8092,VNB,B,3
3,test,4,0.0,2-Back,0.0,m,Fri Apr 10 2026 14:47:00 GMT-0500 (Central Daylight Time),567958.8000000715,007_m_m_n_a.png,I,z,1171,6,,2192.600000023842,565766.2000000477,8092,VNB,B,4
3,test,4,0.0,2-Back,0.0,m,Fri Apr 10 2026 14:47:00 GMT-0500 (Central Daylight Time),569889.4000000954,011_m_f_d_a.png,I,z,913,7,,1928.2000000476837,567961.2000000477,8092,VNB,B,5
3,test,4,0.0,2-Back,0.0,z,Fri Apr 10 2026 14:47:00 GMT-0500 (Central Daylight Time),571756.9000000954,020_y_f_n_a.png,I,m,837,8,,1863.7000000476837,569893.2000000477,8092,VNB,B,6
4,test,4,1.0,2-Back,1.0,m,Fri Apr 10 2026 14:47:00 GMT-0500 (Central Daylight Time),573839.1000000238,005_o_f_h_a.png,I,m,1058,9,,2079.5,571759.6000000238,8092,VNB,B,7
5,test,4,0.0,2-Back,1.0,m,Fri Apr 10 2026 14:47:00 GMT-0500 (Central Daylight Time),575838.6000000238,007_m_m_h_a.png,I,m,970,10,,1995.0,573843.6000000238,8092,VNB,B,8
6,test,4,0.0,2-Back,1.0,m,Fri Apr 10 2026 14:47:00 GMT-0500 (Central Daylight Time),578155.3000000715,020_y_f_d_a.png,I,m,1291,11,,2312.7000000476837,575842.6000000238,8092,VNB,B,9
6,test,4,0.0,2-Back,0.0,m,Fri Apr 10 2026 14:47:00 GMT-0500 (Central Daylight Time),580454.3000000715,016_y_m_n_a.png,I,z,1279,12,,2288.3000000715256,578166.0,8092,VNB,B,10
6,test,4,0.0,2-Back,0.0,z,Fri Apr 10 2026 14:47:00 GMT-0500 (Central Daylight Time),582386.4000000954,004_o_m_d_a.png,I,m,905,13,,1928.1000000238419,580458.3000000715,8092,VNB,B,11
7,test,4,1.0,2-Back,1.0,m,Fri Apr 10 2026 14:47:00 GMT-0500 (Central Daylight Time),584469.3000000715,011_m_f_h_a.png,I,m,1060,14,,2073.0,582396.3000000715,8092,VNB,B,12
7,test,4,1.0,2-Back,0.0,m,Fri Apr 10 2026 14:47:00 GMT-0500 (Central Daylight Time),586552.0,020_y_f_h_a.png,I,z,1058,15,,2077.5999999046326,584474.4000000954,8092,VNB,B,13
8,test,4,0.0,2-Back,1.0,m,Fri Apr 10 2026 14:47:00 GMT-0500 (Central Daylight Time),588418.1000000238,005_o_f_n_a.png,I,m,839,16,,1857.3999999761581,586560.7000000477,8092,VNB,B,14
9,test,4,0.0,2-Back,1.0,m,Fri Apr 10 2026 14:47:00 GMT-0500 (Central Daylight Time),590500.5,016_y_m_d_a.png,I,m,1055,17,,2077.1999999284744,588423.3000000715,8092,VNB,B,15
10,test,4,1.0,2-Back,1.0,m,Fri Apr 10 2026 14:47:00 GMT-0500 (Central Daylight Time),592434.4000000954,007_m_m_d_a.png,I,m,908,18,,1926.4000000953674,590508.0,8092,VNB,B,16
0,test,5,1.0,2-Back,,,Fri Apr 10 2026 14:47:00 GMT-0500 (Central Daylight Time),592434.4000000954,020_y_f_d_a.png,I,space,1109,1,,1926.4000000953674,590508.0,8092,VNB,B,0
0,test,5,1.0,2-Back,,,Fri Apr 10 2026 14:47:00 GMT-0500 (Central Daylight Time),592434.4000000954,005_o_f_h_a.png,I,space,1109,2,,1926.4000000953674,590508.0,8092,VNB,B,0
0,test,5,1.0,2-Back,0.0,z,Fri Apr 10 2026 14:47:00 GMT-0500 (Central Daylight Time),601498.8000000715,004_o_m_d_a.png,I,m,1732,3,,2744.0,598754.8000000715,8092,VNB,B,1
0,test,5,1.0,2-Back,0.0,m,Fri Apr 10 2026 14:47:00 GMT-0500 (Central Daylight Time),603663.8000000715,011_m_f_n_a.png,I,z,1143,4,,2155.399999976158,601508.4000000954,8092,VNB,B,2
1,test,5,0.0,2-Back,1.0,m,Fri Apr 10 2026 14:47:00 GMT-0500 (Central Daylight Time),605513.6000000238,007_m_m_h_a.png,I,m,826,5,,1846.2999999523163,603667.3000000715,8092,VNB,B,3
2,test,5,0.0,2-Back,1.0,z,Fri Apr 10 2026 14:47:00 GMT-0500 (Central Daylight Time),607395.2000000477,020_y_f_n_a.png,I,z,863,6,,1873.7999999523163,605521.4000000954,8092,VNB,B,4
3,test,5,0.0,2-Back,1.0,m,Fri Apr 10 2026 14:47:00 GMT-0500 (Central Daylight Time),609394.7000000477,005_o_f_d_a.png,I,m,973,7,,1995.2999999523163,607399.4000000954,8092,VNB,B,5
4,test,5,0.0,2-Back,1.0,m,Fri Apr 10 2026 14:47:00 GMT-0500 (Central Daylight Time),611261.4000000954,004_o_m_h_a.png,I,m,845,8,,1855.4000000953674,609406.0,8092,VNB,B,6
5,test,5,1.0,2-Back,1.0,z,Fri Apr 10 2026 14:47:00 GMT-0500 (Central Daylight Time),613494.5,011_m_f_d_a.png,I,z,1211,9,,2229.899999976158,611264.6000000238,8092,VNB,B,7
6,test,5,0.0,2-Back,1.0,m,Fri Apr 10 2026 14:47:00 GMT-0500 (Central Daylight Time),615610.4000000954,016_y_m_n_a.png,I,m,1099,10,,2106.600000023842,613503.8000000715,8092,VNB,B,8
7,test,5,0.0,2-Back,1.0,m,Fri Apr 10 2026 14:47:00 GMT-0500 (Central Daylight Time),618010.3000000715,007_m_m_n_a.png,I,m,1367,11,,2395.8000000715256,615614.5,8092,VNB,B,9
8,test,5,0.0,2-Back,1.0,m,Fri Apr 10 2026 14:47:00 GMT-0500 (Central Daylight Time),620208.9000000954,020_y_f_h_a.png,I,m,1168,12,,2190.2000000476837,618018.7000000477,8092,VNB,B,10
9,test,5,0.0,2-Back,1.0,m,Fri Apr 10 2026 14:47:00 GMT-0500 (Central Daylight Time),622241.3000000715,016_y_m_d_a.png,I,m,1008,13,,2029.8999999761581,620211.4000000954,8092,VNB,B,11
10,test,5,1.0,2-Back,1.0,z,Fri Apr 10 2026 14:47:00 GMT-0500 (Central Daylight Time),624606.0,011_m_f_h_a.png,I,z,1337,14,,2353.399999976158,622252.6000000238,8092,VNB,B,12
11,test,5,0.0,2-Back,1.0,m,Fri Apr 10 2026 14:47:00 GMT-0500 (Central Daylight Time),626723.3000000715,004_o_m_n_a.png,I,m,1090,15,,2115.8000000715256,624607.5,8092,VNB,B,13
12,test,5,0.0,2-Back,1.0,m,Fri Apr 10 2026 14:47:00 GMT-0500 (Central Daylight Time),629104.9000000954,007_m_m_d_a.png,I,m,1357,16,,2370.4000000953674,626734.5,8092,VNB,B,14
13,test,5,0.0,2-Back,1.0,z,Fri Apr 10 2026 14:47:00 GMT-0500 (Central Daylight Time),631238.1000000238,005_o_f_n_a.png,I,z,1102,17,,2129.7999999523163,629108.3000000715,8092,VNB,B,15
14,test,5,1.0,2-Back,1.0,m,Fri Apr 10 2026 14:47:00 GMT-0500 (Central Daylight Time),633621.6000000238,016_y_m_h_a.png,I,m,1363,18,,2373.1999999284744,631248.4000000954,8092,VNB,B,16
