block_c,block_dur,condition,countdown,datetime,endtime,list,multichar_response,project,response,response_time,session_number,start_end,starttime,subject_id,task,task_vers,trial
,,,,Wed Jul 30 2025 14:11:47 GMT-0500 (Central Daylight Time),,,,O,space,279,1,,,7177,WL,B,
prac,,0,,Wed Jul 30 2025 14:11:47 GMT-0500 (Central Daylight Time),,NA,b,O,b,6132,1,,,7177,WL,B,1.0
prac,,0,,Wed Jul 30 2025 14:11:47 GMT-0500 (Central Daylight Time),,NA,bo,O,o,70,1,,,7177,WL,B,1.0
prac,,0,,Wed Jul 30 2025 14:11:47 GMT-0500 (Central Daylight Time),,NA,boo,O,o,88,1,,,7177,WL,B,1.0
prac,,0,,Wed Jul 30 2025 14:11:47 GMT-0500 (Central Daylight Time),,NA,boos,O,s,90,1,,,7177,WL,B,1.0
prac,,0,,Wed Jul 30 2025 14:11:47 GMT-0500 (Central Daylight Time),,NA,boost,O,t,167,1,,,7177,WL,B,1.0
prac,,0,,Wed Jul 30 2025 14:11:47 GMT-0500 (Central Daylight Time),,NA,boostenter,O,enter,988,1,,,7177,WL,B,1.0
1,0.9340000152587891,learn,59065.99998474121,Wed Jul 30 2025 14:11:47 GMT-0500 (Central Daylight Time),130164.0,A,s,O,s,895,1,932.3999999761581,129231.60000002384,7177,WL,B,1.0
1,1.1499998569488525,learn,58850.00014305115,Wed Jul 30 2025 14:11:47 GMT-0500 (Central Daylight Time),130380.0,A,st,O,t,178,1,1148.3999999761581,129231.60000002384,7177,WL,B,1.0
1,1.366999864578247,learn,58633.00013542175,Wed Jul 30 2025 14:11:47 GMT-0500 (Central Daylight Time),130597.10000002384,A,str,O,r,197,1,1365.5,129231.60000002384,7177,WL,B,1.0
1,1.5169999599456787,learn,58483.00004005432,Wed Jul 30 2025 14:11:47 GMT-0500 (Central Daylight Time),130746.70000004768,A,stre,O,e,107,1,1515.1000000238419,129231.60000002384,7177,WL,B,1.0
1,1.7170000076293945,learn,58282.999992370605,Wed Jul 30 2025 14:11:47 GMT-0500 (Central Daylight Time),130946.90000009537,A,stree,O,e,158,1,1715.3000000715256,129231.60000002384,7177,WL,B,1.0
1,2.049999952316284,learn,57950.000047683716,Wed Jul 30 2025 14:11:47 GMT-0500 (Central Daylight Time),131279.90000009537,A,street,O,t,301,1,2048.3000000715256,129231.60000002384,7177,WL,B,1.0
1,3.7149999141693115,learn,56285.00008583069,Wed Jul 30 2025 14:11:47 GMT-0500 (Central Daylight Time),132944.90000009537,A,streetenter,O,enter,1624,1,3713.3000000715256,129231.60000002384,7177,WL,B,1.0
1,4.665999889373779,learn,55334.00011062622,Wed Jul 30 2025 14:11:47 GMT-0500 (Central Daylight Time),133895.80000007153,A,g,O,g,932,1,950.5,132945.30000007153,7177,WL,B,2.0
1,4.931999921798706,learn,55068.000078201294,Wed Jul 30 2025 14:11:47 GMT-0500 (Central Daylight Time),134162.20000004768,A,gr,O,r,224,1,1216.8999999761581,132945.30000007153,7177,WL,B,2.0
1,5.115000009536743,learn,54884.99999046326,Wed Jul 30 2025 14:11:47 GMT-0500 (Central Daylight Time),134345.60000002384,A,gra,O,a,143,1,1400.2999999523163,132945.30000007153,7177,WL,B,2.0
1,5.281999826431274,learn,54718.000173568726,Wed Jul 30 2025 14:11:47 GMT-0500 (Central Daylight Time),134512.10000002384,A,gras,O,s,126,1,1566.7999999523163,132945.30000007153,7177,WL,B,2.0
1,5.648999929428101,learn,54351.0000705719,Wed Jul 30 2025 14:11:47 GMT-0500 (Central Daylight Time),134878.90000009537,A,grass,O,s,337,1,1933.6000000238419,132945.30000007153,7177,WL,B,2.0
1,7.096999883651733,learn,52903.00011634827,Wed Jul 30 2025 14:11:47 GMT-0500 (Central Daylight Time),136327.30000007153,A,grassenter,O,enter,1418,1,3382.0,132945.30000007153,7177,WL,B,2.0
1,8.180999994277954,learn,51819.000005722046,Wed Jul 30 2025 14:11:47 GMT-0500 (Central Daylight Time),137411.10000002384,A,d,O,d,1070,1,1083.5,136327.60000002384,7177,WL,B,3.0
1,8.313999891281128,learn,51686.00010871887,Wed Jul 30 2025 14:11:47 GMT-0500 (Central Daylight Time),137544.60000002384,A,do,O,o,105,1,1217.0,136327.60000002384,7177,WL,B,3.0
1,8.480999946594238,learn,51519.00005340576,Wed Jul 30 2025 14:11:47 GMT-0500 (Central Daylight Time),137711.10000002384,A,doo,O,o,128,1,1383.5,136327.60000002384,7177,WL,B,3.0
1,8.847999811172485,learn,51152.000188827515,Wed Jul 30 2025 14:11:47 GMT-0500 (Central Daylight Time),138077.80000007153,A,door,O,r,332,1,1750.2000000476837,136327.60000002384,7177,WL,B,3.0
1,10.228999853134155,learn,49771.000146865845,Wed Jul 30 2025 14:11:47 GMT-0500 (Central Daylight Time),139459.60000002384,A,doorenter,O,enter,1347,1,3132.0,136327.60000002384,7177,WL,B,3.0
1,10.980000019073486,learn,49019.999980926514,Wed Jul 30 2025 14:11:47 GMT-0500 (Central Daylight Time),140210.30000007153,A,a,O,a,738,1,750.5,139459.80000007153,7177,WL,B,4.0
1,11.19700002670288,learn,48802.99997329712,Wed Jul 30 2025 14:11:47 GMT-0500 (Central Daylight Time),140426.90000009537,A,ar,O,r,172,1,967.1000000238419,139459.80000007153,7177,WL,B,4.0
1,11.513000011444092,learn,48486.99998855591,Wed Jul 30 2025 14:11:47 GMT-0500 (Central Daylight Time),140743.40000009537,A,arm,O,m,286,1,1283.6000000238419,139459.80000007153,7177,WL,B,4.0
1,12.078999996185303,learn,47921.0000038147,Wed Jul 30 2025 14:11:47 GMT-0500 (Central Daylight Time),141308.90000009537,A,armenter,O,enter,541,1,1849.1000000238419,139459.80000007153,7177,WL,B,4.0
1,12.480000019073486,learn,47519.999980926514,Wed Jul 30 2025 14:11:47 GMT-0500 (Central Daylight Time),141709.80000007153,A,s,O,s,384,1,400.5,141309.30000007153,7177,WL,B,5.0
1,12.645999908447266,learn,47354.000091552734,Wed Jul 30 2025 14:11:47 GMT-0500 (Central Daylight Time),141876.30000007153,A,st,O,t,123,1,567.0,141309.30000007153,7177,WL,B,5.0
1,12.812999963760376,learn,47187.000036239624,Wed Jul 30 2025 14:11:47 GMT-0500 (Central Daylight Time),142042.90000009537,A,sta,O,a,126,1,733.6000000238419,141309.30000007153,7177,WL,B,5.0
1,12.980000019073486,learn,47019.999980926514,Wed Jul 30 2025 14:11:47 GMT-0500 (Central Daylight Time),142209.70000004768,A,star,O,r,127,1,900.3999999761581,141309.30000007153,7177,WL,B,5.0
1,13.444999933242798,learn,46555.0000667572,Wed Jul 30 2025 14:11:47 GMT-0500 (Central Daylight Time),142675.20000004768,A,starenter,O,enter,431,1,1365.8999999761581,141309.30000007153,7177,WL,B,5.0
1,13.728999853134155,learn,46271.000146865845,Wed Jul 30 2025 14:11:47 GMT-0500 (Central Daylight Time),142959.10000002384,A,w,O,w,275,1,283.60000002384186,142675.5,7177,WL,B,6.0
1,13.878999948501587,learn,46121.00005149841,Wed Jul 30 2025 14:11:47 GMT-0500 (Central Daylight Time),143109.5,A,wi,O,i,124,1,434.0,142675.5,7177,WL,B,6.0
1,14.078999996185303,learn,45921.0000038147,Wed Jul 30 2025 14:11:47 GMT-0500 (Central Daylight Time),143309.20000004768,A,wif,O,f,166,1,633.7000000476837,142675.5,7177,WL,B,6.0
1,14.678999900817871,learn,45321.00009918213,Wed Jul 30 2025 14:11:47 GMT-0500 (Central Daylight Time),143909.20000004768,A,wife,O,e,565,1,1233.7000000476837,142675.5,7177,WL,B,6.0
1,15.543999910354614,learn,44456.000089645386,Wed Jul 30 2025 14:11:47 GMT-0500 (Central Daylight Time),144774.5,A,wifeenter,O,enter,828,1,2099.0,142675.5,7177,WL,B,6.0
1,17.92799997329712,learn,42072.00002670288,Wed Jul 30 2025 14:11:47 GMT-0500 (Central Daylight Time),147158.10000002384,A,c,O,c,2367,1,2383.2999999523163,144774.80000007153,7177,WL,B,7.0
1,18.060999870300293,learn,41939.00012969971,Wed Jul 30 2025 14:11:47 GMT-0500 (Central Daylight Time),147291.10000002384,A,ca,O,a,92,1,2516.2999999523163,144774.80000007153,7177,WL,B,7.0
1,18.32799983024597,learn,41672.00016975403,Wed Jul 30 2025 14:11:47 GMT-0500 (Central Daylight Time),147557.90000009537,A,cab,O,b,227,1,2783.100000023842,144774.80000007153,7177,WL,B,7.0
1,18.477999925613403,learn,41522.0000743866,Wed Jul 30 2025 14:11:47 GMT-0500 (Central Daylight Time),147707.80000007153,A,cabi,O,i,112,1,2933.0,144774.80000007153,7177,WL,B,7.0
1,18.628000020980835,learn,41371.999979019165,Wed Jul 30 2025 14:11:47 GMT-0500 (Central Daylight Time),147857.80000007153,A,cabin,O,n,123,1,3083.0,144774.80000007153,7177,WL,B,7.0
1,18.960999965667725,learn,41039.000034332275,Wed Jul 30 2025 14:11:47 GMT-0500 (Central Daylight Time),148191.10000002384,A,cabinenter,O,enter,305,1,3416.2999999523163,144774.80000007153,7177,WL,B,7.0
1,19.810999870300293,learn,40189.00012969971,Wed Jul 30 2025 14:11:47 GMT-0500 (Central Daylight Time),149040.80000007153,A,l,O,l,839,1,849.3999999761581,148191.40000009537,7177,WL,B,8.0
1,19.960000038146973,learn,40039.99996185303,Wed Jul 30 2025 14:11:47 GMT-0500 (Central Daylight Time),149190.40000009537,A,lk,O,k,122,1,999.0,148191.40000009537,7177,WL,B,8.0
1,20.444000005722046,learn,39555.999994277954,Wed Jul 30 2025 14:11:47 GMT-0500 (Central Daylight Time),149673.80000007153,A,l,O,backspace,445,1,1482.3999999761581,148191.40000009537,7177,WL,B,8.0
1,21.143999814987183,learn,38856.00018501282,Wed Jul 30 2025 14:11:47 GMT-0500 (Central Daylight Time),150373.70000004768,A,la,O,a,665,1,2182.2999999523163,148191.40000009537,7177,WL,B,8.0
1,21.342999935150146,learn,38657.00006484985,Wed Jul 30 2025 14:11:47 GMT-0500 (Central Daylight Time),150573.10000002384,A,lak,O,k,177,1,2381.6999999284744,148191.40000009537,7177,WL,B,8.0
1,21.609999895095825,learn,38390.000104904175,Wed Jul 30 2025 14:11:47 GMT-0500 (Central Daylight Time),150840.20000004768,A,lake,O,e,231,1,2648.7999999523163,148191.40000009537,7177,WL,B,8.0
1,22.508999824523926,learn,37491.000175476074,Wed Jul 30 2025 14:11:47 GMT-0500 (Central Daylight Time),151738.80000007153,A,lakeenter,O,enter,866,1,3547.399999976158,148191.40000009537,7177,WL,B,8.0
1,24.04199981689453,learn,35958.00018310547,Wed Jul 30 2025 14:11:47 GMT-0500 (Central Daylight Time),153272.60000002384,A,p,O,p,1523,1,1533.5,151739.10000002384,7177,WL,B,9.0
1,24.20899987220764,learn,35791.00012779236,Wed Jul 30 2025 14:11:47 GMT-0500 (Central Daylight Time),153439.30000007153,A,pu,O,u,139,1,1700.2000000476837,151739.10000002384,7177,WL,B,9.0
1,24.70799994468689,learn,35292.00005531311,Wed Jul 30 2025 14:11:47 GMT-0500 (Central Daylight Time),153938.10000002384,A,pup,O,p,466,1,2199.0,151739.10000002384,7177,WL,B,9.0
1,24.891000032424927,learn,35108.99996757507,Wed Jul 30 2025 14:11:47 GMT-0500 (Central Daylight Time),154121.40000009537,A,pupi,O,i,163,1,2382.3000000715256,151739.10000002384,7177,WL,B,9.0
1,25.090999841690063,learn,34909.00015830994,Wed Jul 30 2025 14:11:47 GMT-0500 (Central Daylight Time),154321.40000009537,A,pupil,O,l,185,1,2582.3000000715256,151739.10000002384,7177,WL,B,9.0
1,26.04099988937378,learn,33959.00011062622,Wed Jul 30 2025 14:11:47 GMT-0500 (Central Daylight Time),155271.10000002384,A,pupilenter,O,enter,925,1,3532.0,151739.10000002384,7177,WL,B,9.0
1,26.891000032424927,learn,33108.99996757507,Wed Jul 30 2025 14:11:47 GMT-0500 (Central Daylight Time),156121.5,A,s,O,s,831,1,850.1999999284744,155271.30000007153,7177,WL,B,10.0
1,27.04099988937378,learn,32959.00011062622,Wed Jul 30 2025 14:11:47 GMT-0500 (Central Daylight Time),156271.60000002384,A,sk,O,k,114,1,1000.2999999523163,155271.30000007153,7177,WL,B,10.0
1,27.274999856948853,learn,32725.000143051147,Wed Jul 30 2025 14:11:47 GMT-0500 (Central Daylight Time),156505.0,A,ski,O,i,205,1,1233.6999999284744,155271.30000007153,7177,WL,B,10.0
1,27.44099998474121,learn,32559.00001525879,Wed Jul 30 2025 14:11:47 GMT-0500 (Central Daylight Time),156672.0,A,skin,O,n,139,1,1400.6999999284744,155271.30000007153,7177,WL,B,10.0
1,27.97499990463257,learn,32025.00009536743,Wed Jul 30 2025 14:11:47 GMT-0500 (Central Daylight Time),157204.70000004768,A,skinenter,O,enter,508,1,1933.3999999761581,155271.30000007153,7177,WL,B,10.0
1,28.507999897003174,learn,31492.000102996826,Wed Jul 30 2025 14:11:47 GMT-0500 (Central Daylight Time),157738.0,A,p,O,p,513,1,532.8999999761581,157205.10000002384,7177,WL,B,11.0
1,28.69099998474121,learn,31309.00001525879,Wed Jul 30 2025 14:11:47 GMT-0500 (Central Daylight Time),157921.30000007153,A,pi,O,i,155,1,716.2000000476837,157205.10000002384,7177,WL,B,11.0
1,28.891000032424927,learn,31108.999967575073,Wed Jul 30 2025 14:11:47 GMT-0500 (Central Daylight Time),158121.20000004768,A,pip,O,p,171,1,916.1000000238419,157205.10000002384,7177,WL,B,11.0
1,29.87399983406067,learn,30126.00016593933,Wed Jul 30 2025 14:11:47 GMT-0500 (Central Daylight Time),159104.20000004768,A,pipe,O,e,947,1,1899.1000000238419,157205.10000002384,7177,WL,B,11.0
1,31.521999835968018,learn,28478.000164031982,Wed Jul 30 2025 14:11:47 GMT-0500 (Central Daylight Time),160752.60000002384,A,pipeenter,O,enter,1618,1,3547.5,157205.10000002384,7177,WL,B,11.0
1,40.11999988555908,learn,19880.000114440918,Wed Jul 30 2025 14:11:47 GMT-0500 (Central Daylight Time),169349.70000004768,A,enter,O,enter,8580,1,8596.899999976158,160752.80000007153,7177,WL,B,12.0
1,60.014999866485596,learn,-14.999866485595703,Wed Jul 30 2025 14:11:47 GMT-0500 (Central Daylight Time),189244.30000007153,A,None,O,None,19888,1,19894.300000071526,169350.0,7177,WL,B,13.0
2,4.131999969482422,learn,55868.00003051758,Wed Jul 30 2025 14:11:47 GMT-0500 (Central Daylight Time),262070.10000002384,A,s,O,s,4107,1,4131.199999928474,257938.90000009537,7177,WL,B,1.0
2,4.298999786376953,learn,55701.00021362305,Wed Jul 30 2025 14:11:47 GMT-0500 (Central Daylight Time),262237.0,A,st,O,t,140,1,4298.099999904633,257938.90000009537,7177,WL,B,1.0
2,4.598999977111816,learn,55401.00002288818,Wed Jul 30 2025 14:11:47 GMT-0500 (Central Daylight Time),262536.90000009537,A,str,O,r,272,1,4598.0,257938.90000009537,7177,WL,B,1.0
2,4.680999994277954,learn,55319.000005722046,Wed Jul 30 2025 14:11:47 GMT-0500 (Central Daylight Time),262619.40000009537,A,stre,O,e,58,1,4680.5,257938.90000009537,7177,WL,B,1.0
2,4.947999954223633,learn,55052.00004577637,Wed Jul 30 2025 14:11:47 GMT-0500 (Central Daylight Time),262886.60000002384,A,stree,O,e,246,1,4947.699999928474,257938.90000009537,7177,WL,B,1.0
2,5.23199987411499,learn,54768.00012588501,Wed Jul 30 2025 14:11:47 GMT-0500 (Central Daylight Time),263170.0,A,street,O,t,247,1,5231.099999904633,257938.90000009537,7177,WL,B,1.0
2,6.246999979019165,learn,53753.000020980835,Wed Jul 30 2025 14:11:47 GMT-0500 (Central Daylight Time),264185.40000009537,A,streetenter,O,enter,976,1,6246.5,257938.90000009537,7177,WL,B,1.0
2,8.013999938964844,learn,51986.000061035156,Wed Jul 30 2025 14:11:47 GMT-0500 (Central Daylight Time),265952.40000009537,A,g,O,g,1757,1,1766.6000000238419,264185.8000000715,7177,WL,B,2.0
2,8.297999858856201,learn,51702.0001411438,Wed Jul 30 2025 14:11:47 GMT-0500 (Central Daylight Time),266235.8000000715,A,gr,O,r,243,1,2050.0,264185.8000000715,7177,WL,B,2.0
2,8.496999979019165,learn,51503.000020980835,Wed Jul 30 2025 14:11:47 GMT-0500 (Central Daylight Time),266435.5,A,gra,O,a,168,1,2249.6999999284744,264185.8000000715,7177,WL,B,2.0
2,8.746999979019165,learn,51253.000020980835,Wed Jul 30 2025 14:11:47 GMT-0500 (Central Daylight Time),266685.60000002384,A,gras,O,s,216,1,2499.7999999523163,264185.8000000715,7177,WL,B,2.0
2,9.080999851226807,learn,50919.00014877319,Wed Jul 30 2025 14:11:47 GMT-0500 (Central Daylight Time),267018.8000000715,A,grass,O,s,303,1,2833.0,264185.8000000715,7177,WL,B,2.0
2,10.046000003814697,learn,49953.9999961853,Wed Jul 30 2025 14:11:47 GMT-0500 (Central Daylight Time),267984.10000002384,A,grassenter,O,enter,937,1,3798.2999999523163,264185.8000000715,7177,WL,B,2.0
2,11.512999773025513,learn,48487.00022697449,Wed Jul 30 2025 14:11:47 GMT-0500 (Central Daylight Time),269451.40000009537,A,a,O,a,1454,1,1467.0,267984.40000009537,7177,WL,B,3.0
2,11.745999813079834,learn,48254.000186920166,Wed Jul 30 2025 14:11:47 GMT-0500 (Central Daylight Time),269684.60000002384,A,ar,O,r,193,1,1700.1999999284744,267984.40000009537,7177,WL,B,3.0
2,12.11299991607666,learn,47887.00008392334,Wed Jul 30 2025 14:11:47 GMT-0500 (Central Daylight Time),270051.10000002384,A,arm,O,m,336,1,2066.6999999284744,267984.40000009537,7177,WL,B,3.0
2,14.260999917984009,learn,45739.00008201599,Wed Jul 30 2025 14:11:47 GMT-0500 (Central Daylight Time),272199.40000009537,A,armenter,O,enter,2118,1,4215.0,267984.40000009537,7177,WL,B,3.0
2,16.111999988555908,learn,43888.00001144409,Wed Jul 30 2025 14:11:47 GMT-0500 (Central Daylight Time),274049.7000000477,A,d,O,d,1831,1,1850.1000000238419,272199.60000002384,7177,WL,B,4.0
2,16.294999837875366,learn,43705.000162124634,Wed Jul 30 2025 14:11:47 GMT-0500 (Central Daylight Time),274233.10000002384,A,do,O,o,147,1,2033.5,272199.60000002384,7177,WL,B,4.0
2,16.444999933242798,learn,43555.0000667572,Wed Jul 30 2025 14:11:47 GMT-0500 (Central Daylight Time),274382.7000000477,A,doo,O,o,116,1,2183.100000023842,272199.60000002384,7177,WL,B,4.0
2,16.644999980926514,learn,43355.000019073486,Wed Jul 30 2025 14:11:47 GMT-0500 (Central Daylight Time),274583.0,A,door,O,r,173,1,2383.399999976158,272199.60000002384,7177,WL,B,4.0
2,18.07699990272522,learn,41923.00009727478,Wed Jul 30 2025 14:11:47 GMT-0500 (Central Daylight Time),276014.8000000715,A,doorenter,O,enter,1396,1,3815.2000000476837,272199.60000002384,7177,WL,B,4.0
2,21.009999990463257,learn,38990.00000953674,Wed Jul 30 2025 14:11:47 GMT-0500 (Central Daylight Time),278948.0,A,s,O,s,2919,1,2933.0,276015.0,7177,WL,B,5.0
2,21.14299988746643,learn,38857.00011253357,Wed Jul 30 2025 14:11:47 GMT-0500 (Central Daylight Time),279081.5,A,st,O,t,104,1,3066.5,276015.0,7177,WL,B,5.0
2,21.39299988746643,learn,38607.00011253357,Wed Jul 30 2025 14:11:47 GMT-0500 (Central Daylight Time),279331.40000009537,A,sta,O,a,211,1,3316.4000000953674,276015.0,7177,WL,B,5.0
2,21.609999895095825,learn,38390.000104904175,Wed Jul 30 2025 14:11:47 GMT-0500 (Central Daylight Time),279548.10000002384,A,star,O,r,185,1,3533.100000023842,276015.0,7177,WL,B,5.0
2,23.174999952316284,learn,36825.000047683716,Wed Jul 30 2025 14:11:47 GMT-0500 (Central Daylight Time),281113.10000002384,A,starenter,O,enter,1526,1,5098.100000023842,276015.0,7177,WL,B,5.0
2,28.04099988937378,learn,31959.00011062622,Wed Jul 30 2025 14:11:47 GMT-0500 (Central Daylight Time),285979.3000000715,A,w,O,w,4853,1,4865.899999976158,281113.40000009537,7177,WL,B,6.0
2,28.19099998474121,learn,31809.00001525879,Wed Jul 30 2025 14:11:47 GMT-0500 (Central Daylight Time),286129.3000000715,A,wi,O,i,120,1,5015.899999976158,281113.40000009537,7177,WL,B,6.0
2,28.357999801635742,learn,31642.000198364258,Wed Jul 30 2025 14:11:47 GMT-0500 (Central Daylight Time),286295.8000000715,A,wif,O,f,137,1,5182.399999976158,281113.40000009537,7177,WL,B,6.0
2,28.740999937057495,learn,31259.000062942505,Wed Jul 30 2025 14:11:47 GMT-0500 (Central Daylight Time),286678.90000009537,A,wife,O,e,348,1,5565.5,281113.40000009537,7177,WL,B,6.0
2,29.705999851226807,learn,30294.000148773193,Wed Jul 30 2025 14:11:47 GMT-0500 (Central Daylight Time),287644.3000000715,A,wifeenter,O,enter,934,1,6530.899999976158,281113.40000009537,7177,WL,B,6.0
2,31.0239999294281,learn,28976.0000705719,Wed Jul 30 2025 14:11:47 GMT-0500 (Central Daylight Time),288962.10000002384,A,w,O,w,1298,1,1317.3999999761581,287644.7000000477,7177,WL,B,7.0
2,31.18999981880188,learn,28810.00018119812,Wed Jul 30 2025 14:11:47 GMT-0500 (Central Daylight Time),289128.2000000477,A,wi,O,i,141,1,1483.5,287644.7000000477,7177,WL,B,7.0
2,31.322999954223633,learn,28677.000045776367,Wed Jul 30 2025 14:11:47 GMT-0500 (Central Daylight Time),289261.5,A,win,O,n,101,1,1616.7999999523163,287644.7000000477,7177,WL,B,7.0
2,31.489999771118164,learn,28510.000228881836,Wed Jul 30 2025 14:11:47 GMT-0500 (Central Daylight Time),289428.2000000477,A,wind,O,d,128,1,1783.5,287644.7000000477,7177,WL,B,7.0
2,31.622999906539917,learn,28377.000093460083,Wed Jul 30 2025 14:11:47 GMT-0500 (Central Daylight Time),289560.60000002384,A,windo,O,o,104,1,1915.8999999761581,287644.7000000477,7177,WL,B,7.0
2,31.872999906539917,learn,28127.000093460083,Wed Jul 30 2025 14:11:47 GMT-0500 (Central Daylight Time),289811.3000000715,A,window,O,w,220,1,2166.600000023842,287644.7000000477,7177,WL,B,7.0
2,32.371999979019165,learn,27628.000020980835,Wed Jul 30 2025 14:11:47 GMT-0500 (Central Daylight Time),290310.2000000477,A,windowenter,O,enter,471,1,2665.5,287644.7000000477,7177,WL,B,7.0
2,33.6729998588562,learn,26327.0001411438,Wed Jul 30 2025 14:11:47 GMT-0500 (Central Daylight Time),291610.7000000477,A,c,O,c,1280,1,1300.2999999523163,290310.40000009537,7177,WL,B,8.0
2,33.805999994277954,learn,26194.000005722046,Wed Jul 30 2025 14:11:47 GMT-0500 (Central Daylight Time),291744.10000002384,A,ci,O,i,99,1,1433.6999999284744,290310.40000009537,7177,WL,B,8.0
2,34.038999795913696,learn,25961.000204086304,Wed Jul 30 2025 14:11:47 GMT-0500 (Central Daylight Time),291977.40000009537,A,cit,O,t,204,1,1667.0,290310.40000009537,7177,WL,B,8.0
2,34.22199988365173,learn,25778.000116348267,Wed Jul 30 2025 14:11:47 GMT-0500 (Central Daylight Time),292160.5,A,city,O,y,154,1,1850.0999999046326,290310.40000009537,7177,WL,B,8.0
2,34.75499987602234,learn,25245.00012397766,Wed Jul 30 2025 14:11:47 GMT-0500 (Central Daylight Time),292692.60000002384,A,cityenter,O,enter,507,1,2382.1999999284744,290310.40000009537,7177,WL,B,8.0
2,35.687999963760376,learn,24312.000036239624,Wed Jul 30 2025 14:11:47 GMT-0500 (Central Daylight Time),293626.7000000477,A,p,O,p,914,1,933.7999999523163,292692.90000009537,7177,WL,B,9.0
2,35.871999979019165,learn,24128.000020980835,Wed Jul 30 2025 14:11:47 GMT-0500 (Central Daylight Time),293810.10000002384,A,pu,O,u,151,1,1117.1999999284744,292692.90000009537,7177,WL,B,9.0
2,36.38799977302551,learn,23612.000226974487,Wed Jul 30 2025 14:11:47 GMT-0500 (Central Daylight Time),294325.8000000715,A,pup,O,p,479,1,1632.8999999761581,292692.90000009537,7177,WL,B,9.0
2,36.75499987602234,learn,23245.00012397766,Wed Jul 30 2025 14:11:47 GMT-0500 (Central Daylight Time),294692.90000009537,A,pupi,O,i,331,1,2000.0,292692.90000009537,7177,WL,B,9.0
2,36.870999813079834,learn,23129.000186920166,Wed Jul 30 2025 14:11:47 GMT-0500 (Central Daylight Time),294809.60000002384,A,pupil,O,l,91,1,2116.6999999284744,292692.90000009537,7177,WL,B,9.0
2,37.769999980926514,learn,22230.000019073486,Wed Jul 30 2025 14:11:47 GMT-0500 (Central Daylight Time),295708.3000000715,A,pupilenter,O,enter,875,1,3015.399999976158,292692.90000009537,7177,WL,B,9.0
2,39.92199993133545,learn,20078.00006866455,Wed Jul 30 2025 14:11:47 GMT-0500 (Central Daylight Time),297858.8000000715,A,c,O,c,2130,1,2150.2000000476837,295708.60000002384,7177,WL,B,10.0
2,40.037999868392944,learn,19962.000131607056,Wed Jul 30 2025 14:11:47 GMT-0500 (Central Daylight Time),297975.2000000477,A,ca,O,a,88,1,2266.600000023842,295708.60000002384,7177,WL,B,10.0
2,40.33799982070923,learn,19662.00017929077,Wed Jul 30 2025 14:11:47 GMT-0500 (Central Daylight Time),298275.10000002384,A,cab,O,b,261,1,2566.5,295708.60000002384,7177,WL,B,10.0
2,40.47099995613098,learn,19529.00004386902,Wed Jul 30 2025 14:11:47 GMT-0500 (Central Daylight Time),298408.40000009537,A,cabi,O,i,105,1,2699.8000000715256,295708.60000002384,7177,WL,B,10.0
2,40.687999963760376,learn,19312.000036239624,Wed Jul 30 2025 14:11:47 GMT-0500 (Central Daylight Time),298625.2000000477,A,cabin,O,n,181,1,2916.600000023842,295708.60000002384,7177,WL,B,10.0
2,41.20299983024597,learn,18797.00016975403,Wed Jul 30 2025 14:11:47 GMT-0500 (Central Daylight Time),299140.60000002384,A,cabinenter,O,enter,483,1,3432.0,295708.60000002384,7177,WL,B,10.0
2,43.11999988555908,learn,16880.000114440918,Wed Jul 30 2025 14:11:47 GMT-0500 (Central Daylight Time),301057.7000000477,A,l,O,l,1898,1,1916.8999999761581,299140.8000000715,7177,WL,B,11.0
2,43.269999980926514,learn,16730.000019073486,Wed Jul 30 2025 14:11:47 GMT-0500 (Central Daylight Time),301207.5,A,la,O,a,123,1,2066.6999999284744,299140.8000000715,7177,WL,B,11.0
2,43.436999797821045,learn,16563.000202178955,Wed Jul 30 2025 14:11:47 GMT-0500 (Central Daylight Time),301374.2000000477,A,lak,O,k,133,1,2233.399999976158,299140.8000000715,7177,WL,B,11.0
2,43.75399994850159,learn,16246.000051498413,Wed Jul 30 2025 14:11:47 GMT-0500 (Central Daylight Time),301690.8000000715,A,lake,O,e,279,1,2550.0,299140.8000000715,7177,WL,B,11.0
2,44.86899995803833,learn,15131.00004196167,Wed Jul 30 2025 14:11:47 GMT-0500 (Central Daylight Time),302806.0,A,lakeenter,O,enter,1089,1,3665.1999999284744,299140.8000000715,7177,WL,B,11.0
2,45.93599987030029,learn,14064.000129699707,Wed Jul 30 2025 14:11:47 GMT-0500 (Central Daylight Time),303872.90000009537,A,p,O,p,1056,1,1066.6000000238419,302806.3000000715,7177,WL,B,12.0
2,46.11899995803833,learn,13881.00004196167,Wed Jul 30 2025 14:11:47 GMT-0500 (Central Daylight Time),304055.90000009537,A,pi,O,i,155,1,1249.6000000238419,302806.3000000715,7177,WL,B,12.0
2,46.26799988746643,learn,13732.00011253357,Wed Jul 30 2025 14:11:47 GMT-0500 (Central Daylight Time),304205.40000009537,A,pip,O,p,137,1,1399.1000000238419,302806.3000000715,7177,WL,B,12.0
2,46.70199990272522,learn,13298.00009727478,Wed Jul 30 2025 14:11:47 GMT-0500 (Central Daylight Time),304638.60000002384,A,pipe,O,e,415,1,1832.2999999523163,302806.3000000715,7177,WL,B,12.0
2,47.26799988746643,learn,12732.00011253357,Wed Jul 30 2025 14:11:47 GMT-0500 (Central Daylight Time),305205.2000000477,A,pipeenter,O,enter,549,1,2398.899999976158,302806.3000000715,7177,WL,B,12.0
2,47.63599991798401,learn,12364.000082015991,Wed Jul 30 2025 14:11:47 GMT-0500 (Central Daylight Time),305572.8000000715,A,s,O,s,345,1,367.3000000715256,305205.5,7177,WL,B,13.0
2,47.78599977493286,learn,12214.000225067139,Wed Jul 30 2025 14:11:47 GMT-0500 (Central Daylight Time),305722.8000000715,A,sk,O,k,112,1,517.3000000715256,305205.5,7177,WL,B,13.0
2,48.03499984741211,learn,11965.00015258789,Wed Jul 30 2025 14:11:47 GMT-0500 (Central Daylight Time),305972.40000009537,A,ski,O,i,218,1,766.9000000953674,305205.5,7177,WL,B,13.0
2,48.26899981498718,learn,11731.000185012817,Wed Jul 30 2025 14:11:47 GMT-0500 (Central Daylight Time),306205.8000000715,A,skin,O,n,200,1,1000.3000000715256,305205.5,7177,WL,B,13.0
2,49.16799998283386,learn,10832.000017166138,Wed Jul 30 2025 14:11:47 GMT-0500 (Central Daylight Time),307104.7000000477,A,skinenter,O,enter,861,1,1899.2000000476837,305205.5,7177,WL,B,13.0
2,49.85199999809265,learn,10148.000001907349,Wed Jul 30 2025 14:11:47 GMT-0500 (Central Daylight Time),307789.10000002384,A,f,O,f,677,1,684.1999999284744,307104.90000009537,7177,WL,B,14.0
2,49.984999895095825,learn,10015.000104904175,Wed Jul 30 2025 14:11:47 GMT-0500 (Central Daylight Time),307922.2000000477,A,fi,O,i,104,1,817.2999999523163,307104.90000009537,7177,WL,B,14.0
2,50.150999784469604,learn,9849.000215530396,Wed Jul 30 2025 14:11:47 GMT-0500 (Central Daylight Time),308088.7000000477,A,fir,O,r,140,1,983.7999999523163,307104.90000009537,7177,WL,B,14.0
2,50.367999792099,learn,9632.000207901001,Wed Jul 30 2025 14:11:47 GMT-0500 (Central Daylight Time),308305.2000000477,A,fire,O,e,189,1,1200.2999999523163,307104.90000009537,7177,WL,B,14.0
2,51.550999879837036,learn,8449.000120162964,Wed Jul 30 2025 14:11:47 GMT-0500 (Central Daylight Time),309488.0,A,firec,O,c,1148,1,2383.0999999046326,307104.90000009537,7177,WL,B,14.0
2,51.68399977684021,learn,8316.00022315979,Wed Jul 30 2025 14:11:47 GMT-0500 (Central Daylight Time),309621.60000002384,A,firecl,O,l,101,1,2516.6999999284744,307104.90000009537,7177,WL,B,14.0
2,52.133999824523926,learn,7866.000175476074,Wed Jul 30 2025 14:11:47 GMT-0500 (Central Daylight Time),310071.3000000715,A,firec,O,backspace,423,1,2966.399999976158,307104.90000009537,7177,WL,B,14.0
2,52.300999879837036,learn,7699.000120162964,Wed Jul 30 2025 14:11:47 GMT-0500 (Central Daylight Time),310237.90000009537,A,fire,O,backspace,134,1,3133.0,307104.90000009537,7177,WL,B,14.0
2,53.04899978637695,learn,6951.000213623047,Wed Jul 30 2025 14:11:47 GMT-0500 (Central Daylight Time),310986.60000002384,A,fireenter,O,enter,710,1,3881.6999999284744,307104.90000009537,7177,WL,B,14.0
2,53.86699986457825,learn,6133.000135421753,Wed Jul 30 2025 14:11:47 GMT-0500 (Central Daylight Time),311804.0,A,c,O,c,795,1,817.0999999046326,310986.90000009537,7177,WL,B,15.0
2,53.966999769210815,learn,6033.000230789185,Wed Jul 30 2025 14:11:47 GMT-0500 (Central Daylight Time),311904.10000002384,A,cl,O,l,71,1,917.1999999284744,310986.90000009537,7177,WL,B,15.0
2,54.19999980926514,learn,5800.000190734863,Wed Jul 30 2025 14:11:47 GMT-0500 (Central Daylight Time),312137.0,A,clo,O,o,204,1,1150.0999999046326,310986.90000009537,7177,WL,B,15.0
2,55.382999897003174,learn,4617.000102996826,Wed Jul 30 2025 14:11:47 GMT-0500 (Central Daylight Time),313320.3000000715,A,cloc,O,c,1156,1,2333.399999976158,310986.90000009537,7177,WL,B,15.0
2,55.532999992370605,learn,4467.0000076293945,Wed Jul 30 2025 14:11:47 GMT-0500 (Central Daylight Time),313470.10000002384,A,clock,O,k,118,1,2483.1999999284744,310986.90000009537,7177,WL,B,15.0
2,56.847999811172485,learn,3152.0001888275146,Wed Jul 30 2025 14:11:47 GMT-0500 (Central Daylight Time),314785.3000000715,A,clockenter,O,enter,1287,1,3798.399999976158,310986.90000009537,7177,WL,B,15.0
3,2.065999984741211,learn,57934.00001525879,Wed Jul 30 2025 14:11:47 GMT-0500 (Central Daylight Time),386463.0,A,s,O,s,2041,1,2065.5,384397.5,7177,WL,B,1.0
3,2.2819998264312744,learn,57718.000173568726,Wed Jul 30 2025 14:11:47 GMT-0500 (Central Daylight Time),386679.60000002384,A,st,O,t,189,1,2282.100000023842,384397.5,7177,WL,B,1.0
3,2.5319998264312744,learn,57468.000173568726,Wed Jul 30 2025 14:11:47 GMT-0500 (Central Daylight Time),386929.5,A,str,O,r,220,1,2532.0,384397.5,7177,WL,B,1.0
3,2.6989998817443848,learn,57301.000118255615,Wed Jul 30 2025 14:11:47 GMT-0500 (Central Daylight Time),387095.8000000715,A,stre,O,e,141,1,2698.3000000715256,384397.5,7177,WL,B,1.0
3,2.9489998817443848,learn,57051.000118255615,Wed Jul 30 2025 14:11:47 GMT-0500 (Central Daylight Time),387345.8000000715,A,stree,O,e,212,1,2948.3000000715256,384397.5,7177,WL,B,1.0
3,3.5820000171661377,learn,56417.99998283386,Wed Jul 30 2025 14:11:47 GMT-0500 (Central Daylight Time),387979.2000000477,A,street,O,t,595,1,3581.7000000476837,384397.5,7177,WL,B,1.0
3,4.71399998664856,learn,55286.00001335144,Wed Jul 30 2025 14:11:47 GMT-0500 (Central Daylight Time),389111.0,A,streetenter,O,enter,1100,1,4713.5,384397.5,7177,WL,B,1.0
3,6.430999994277954,learn,53569.000005722046,Wed Jul 30 2025 14:11:47 GMT-0500 (Central Daylight Time),390828.2000000477,A,g,O,g,1703,1,1716.8999999761581,389111.3000000715,7177,WL,B,2.0
3,6.664000034332275,learn,53335.999965667725,Wed Jul 30 2025 14:11:47 GMT-0500 (Central Daylight Time),391061.40000009537,A,gr,O,r,202,1,1950.1000000238419,389111.3000000715,7177,WL,B,2.0
3,6.880999803543091,learn,53119.00019645691,Wed Jul 30 2025 14:11:47 GMT-0500 (Central Daylight Time),391277.90000009537,A,gra,O,a,184,1,2166.600000023842,389111.3000000715,7177,WL,B,2.0
3,7.164000034332275,learn,52835.999965667725,Wed Jul 30 2025 14:11:47 GMT-0500 (Central Daylight Time),391561.0,A,gras,O,s,255,1,2449.6999999284744,389111.3000000715,7177,WL,B,2.0
3,7.414000034332275,learn,52585.999965667725,Wed Jul 30 2025 14:11:47 GMT-0500 (Central Daylight Time),391811.10000002384,A,grass,O,s,230,1,2699.7999999523163,389111.3000000715,7177,WL,B,2.0
3,9.211999893188477,learn,50788.00010681152,Wed Jul 30 2025 14:11:47 GMT-0500 (Central Daylight Time),393609.5,A,grassenter,O,enter,1759,1,4498.199999928474,389111.3000000715,7177,WL,B,2.0
3,11.395999908447266,learn,48604.000091552734,Wed Jul 30 2025 14:11:47 GMT-0500 (Central Daylight Time),395793.0,A,d,O,d,2174,1,2183.2999999523163,393609.7000000477,7177,WL,B,3.0
3,11.662999868392944,learn,48337.000131607056,Wed Jul 30 2025 14:11:47 GMT-0500 (Central Daylight Time),396059.8000000715,A,do,O,o,227,1,2450.100000023842,393609.7000000477,7177,WL,B,3.0
3,11.878999948501587,learn,48121.00005149841,Wed Jul 30 2025 14:11:47 GMT-0500 (Central Daylight Time),396276.3000000715,A,doo,O,o,177,1,2666.600000023842,393609.7000000477,7177,WL,B,3.0
3,12.245999813079834,learn,47754.000186920166,Wed Jul 30 2025 14:11:47 GMT-0500 (Central Daylight Time),396643.10000002384,A,door,O,r,328,1,3033.399999976158,393609.7000000477,7177,WL,B,3.0
3,14.260999917984009,learn,45739.00008201599,Wed Jul 30 2025 14:11:47 GMT-0500 (Central Daylight Time),398657.90000009537,A,doorenter,O,enter,1977,1,5048.200000047684,393609.7000000477,7177,WL,B,3.0
3,16.293999910354614,learn,43706.000089645386,Wed Jul 30 2025 14:11:47 GMT-0500 (Central Daylight Time),400691.8000000715,A,a,O,a,2012,1,2033.6000000238419,398658.2000000477,7177,WL,B,4.0
3,16.49399995803833,learn,43506.00004196167,Wed Jul 30 2025 14:11:47 GMT-0500 (Central Daylight Time),400891.5,A,ar,O,r,160,1,2233.2999999523163,398658.2000000477,7177,WL,B,4.0
3,16.810999870300293,learn,43189.00012969971,Wed Jul 30 2025 14:11:47 GMT-0500 (Central Daylight Time),401208.2000000477,A,arm,O,m,281,1,2550.0,398658.2000000477,7177,WL,B,4.0
3,19.924999952316284,learn,40075.000047683716,Wed Jul 30 2025 14:11:47 GMT-0500 (Central Daylight Time),404322.60000002384,A,armenter,O,enter,3076,1,5664.399999976158,398658.2000000477,7177,WL,B,4.0
3,25.157999992370605,learn,34842.000007629395,Wed Jul 30 2025 14:11:47 GMT-0500 (Central Daylight Time),409555.10000002384,A,s,O,s,5212,1,5232.199999928474,404322.90000009537,7177,WL,B,5.0
3,25.340999841690063,learn,34659.00015830994,Wed Jul 30 2025 14:11:47 GMT-0500 (Central Daylight Time),409738.5,A,st,O,t,159,1,5415.599999904633,404322.90000009537,7177,WL,B,5.0
3,25.592000007629395,learn,34407.999992370605,Wed Jul 30 2025 14:11:47 GMT-0500 (Central Daylight Time),409989.3000000715,A,sta,O,a,226,1,5666.399999976158,404322.90000009537,7177,WL,B,5.0
3,25.807999849319458,learn,34192.00015068054,Wed Jul 30 2025 14:11:47 GMT-0500 (Central Daylight Time),410205.2000000477,A,star,O,r,176,1,5882.299999952316,404322.90000009537,7177,WL,B,5.0
3,27.889999866485596,learn,32110.000133514404,Wed Jul 30 2025 14:11:47 GMT-0500 (Central Daylight Time),412286.90000009537,A,starenter,O,enter,2047,1,7964.0,404322.90000009537,7177,WL,B,5.0
3,31.77300000190735,learn,28226.99999809265,Wed Jul 30 2025 14:11:47 GMT-0500 (Central Daylight Time),416169.8000000715,A,s,O,s,3863,1,3882.7000000476837,412287.10000002384,7177,WL,B,6.0
3,32.35599994659424,learn,27644.00005340576,Wed Jul 30 2025 14:11:47 GMT-0500 (Central Daylight Time),416753.0,A,,O,backspace,547,1,4465.899999976158,412287.10000002384,7177,WL,B,6.0
3,32.52199983596802,learn,27478.000164031982,Wed Jul 30 2025 14:11:47 GMT-0500 (Central Daylight Time),416919.60000002384,A,w,O,w,141,1,4632.5,412287.10000002384,7177,WL,B,6.0
3,33.08999991416931,learn,26910.00008583069,Wed Jul 30 2025 14:11:47 GMT-0500 (Central Daylight Time),417486.10000002384,A,wi,O,i,533,1,5199.0,412287.10000002384,7177,WL,B,6.0
3,33.27300000190735,learn,26726.99999809265,Wed Jul 30 2025 14:11:47 GMT-0500 (Central Daylight Time),417669.40000009537,A,wif,O,f,159,1,5382.300000071526,412287.10000002384,7177,WL,B,6.0
3,33.60599994659424,learn,26394.00005340576,Wed Jul 30 2025 14:11:47 GMT-0500 (Central Daylight Time),418002.5,A,wife,O,e,293,1,5715.399999976158,412287.10000002384,7177,WL,B,6.0
3,34.48799991607666,learn,25512.00008392334,Wed Jul 30 2025 14:11:47 GMT-0500 (Central Daylight Time),418884.60000002384,A,wifeenter,O,enter,857,1,6597.5,412287.10000002384,7177,WL,B,6.0
3,36.08899998664856,learn,23911.00001335144,Wed Jul 30 2025 14:11:47 GMT-0500 (Central Daylight Time),420485.40000009537,A,w,O,w,1595,1,1600.6000000238419,418884.8000000715,7177,WL,B,7.0
3,36.67199993133545,learn,23328.00006866455,Wed Jul 30 2025 14:11:47 GMT-0500 (Central Daylight Time),421068.40000009537,A,wi,O,i,544,1,2183.600000023842,418884.8000000715,7177,WL,B,7.0
3,36.855000019073486,learn,23144.999980926514,Wed Jul 30 2025 14:11:47 GMT-0500 (Central Daylight Time),421251.3000000715,A,win,O,n,148,1,2366.5,418884.8000000715,7177,WL,B,7.0
3,37.08899998664856,learn,22911.00001335144,Wed Jul 30 2025 14:11:47 GMT-0500 (Central Daylight Time),421484.8000000715,A,wind,O,d,201,1,2600.0,418884.8000000715,7177,WL,B,7.0
3,37.30499982833862,learn,22695.000171661377,Wed Jul 30 2025 14:11:47 GMT-0500 (Central Daylight Time),421701.5,A,windo,O,o,185,1,2816.6999999284744,418884.8000000715,7177,WL,B,7.0
3,38.687999963760376,learn,21312.000036239624,Wed Jul 30 2025 14:11:47 GMT-0500 (Central Daylight Time),423084.10000002384,A,window,O,w,1354,1,4199.299999952316,418884.8000000715,7177,WL,B,7.0
3,41.20299983024597,learn,18797.00016975403,Wed Jul 30 2025 14:11:47 GMT-0500 (Central Daylight Time),425599.10000002384,A,windowenter,O,enter,2487,1,6714.299999952316,418884.8000000715,7177,WL,B,7.0
3,42.0699999332428,learn,17930.000066757202,Wed Jul 30 2025 14:11:47 GMT-0500 (Central Daylight Time),426466.40000009537,A,p,O,p,847,1,867.1000000238419,425599.3000000715,7177,WL,B,8.0
3,42.269999980926514,learn,17730.000019073486,Wed Jul 30 2025 14:11:47 GMT-0500 (Central Daylight Time),426666.60000002384,A,pu,O,u,163,1,1067.2999999523163,425599.3000000715,7177,WL,B,8.0
3,42.98599982261658,learn,17014.000177383423,Wed Jul 30 2025 14:11:47 GMT-0500 (Central Daylight Time),427382.3000000715,A,pup,O,p,682,1,1783.0,425599.3000000715,7177,WL,B,8.0
3,43.38599991798401,learn,16614.00008201599,Wed Jul 30 2025 14:11:47 GMT-0500 (Central Daylight Time),427782.7000000477,A,pupi,O,i,370,1,2183.399999976158,425599.3000000715,7177,WL,B,8.0
3,43.61899995803833,learn,16381.00004196167,Wed Jul 30 2025 14:11:47 GMT-0500 (Central Daylight Time),428015.8000000715,A,pupil,O,l,198,1,2416.5,425599.3000000715,7177,WL,B,8.0
3,44.03499984741211,learn,15965.00015258789,Wed Jul 30 2025 14:11:47 GMT-0500 (Central Daylight Time),428431.60000002384,A,pupilenter,O,enter,380,1,2832.2999999523163,425599.3000000715,7177,WL,B,8.0
3,44.668999910354614,learn,15331.000089645386,Wed Jul 30 2025 14:11:47 GMT-0500 (Central Daylight Time),429065.5,A,c,O,c,623,1,633.5999999046326,428431.90000009537,7177,WL,B,9.0
3,44.8529999256134,learn,15147.000074386597,Wed Jul 30 2025 14:11:47 GMT-0500 (Central Daylight Time),429249.0,A,ci,O,i,157,1,817.0999999046326,428431.90000009537,7177,WL,B,9.0
3,45.11899995803833,learn,14881.00004196167,Wed Jul 30 2025 14:11:47 GMT-0500 (Central Daylight Time),429515.5,A,cit,O,t,228,1,1083.5999999046326,428431.90000009537,7177,WL,B,9.0
3,45.36899995803833,learn,14631.00004196167,Wed Jul 30 2025 14:11:47 GMT-0500 (Central Daylight Time),429765.5,A,city,O,y,217,1,1333.5999999046326,428431.90000009537,7177,WL,B,9.0
3,45.91799998283386,learn,14082.000017166138,Wed Jul 30 2025 14:11:47 GMT-0500 (Central Daylight Time),430314.2000000477,A,cityenter,O,enter,519,1,1882.2999999523163,428431.90000009537,7177,WL,B,9.0
3,51.26699995994568,learn,8733.000040054321,Wed Jul 30 2025 14:11:47 GMT-0500 (Central Daylight Time),435663.5,A,b,O,b,5333,1,5349.0,430314.5,7177,WL,B,10.0
3,51.98399996757507,learn,8016.000032424927,Wed Jul 30 2025 14:11:47 GMT-0500 (Central Daylight Time),436379.8000000715,A,,O,backspace,682,1,6065.300000071526,430314.5,7177,WL,B,10.0
3,52.71599984169006,learn,7284.0001583099365,Wed Jul 30 2025 14:11:47 GMT-0500 (Central Daylight Time),437112.0,A,c,O,c,697,1,6797.5,430314.5,7177,WL,B,10.0
3,52.91599988937378,learn,7084.000110626221,Wed Jul 30 2025 14:11:47 GMT-0500 (Central Daylight Time),437311.90000009537,A,ca,O,a,178,1,6997.400000095367,430314.5,7177,WL,B,10.0
3,53.181999921798706,learn,6818.000078201294,Wed Jul 30 2025 14:11:47 GMT-0500 (Central Daylight Time),437578.5,A,cab,O,b,245,1,7264.0,430314.5,7177,WL,B,10.0
3,53.41499996185303,learn,6585.000038146973,Wed Jul 30 2025 14:11:47 GMT-0500 (Central Daylight Time),437811.60000002384,A,cabi,O,i,215,1,7497.100000023842,430314.5,7177,WL,B,10.0
3,53.59999990463257,learn,6400.000095367432,Wed Jul 30 2025 14:11:47 GMT-0500 (Central Daylight Time),437996.10000002384,A,cabin,O,n,171,1,7681.600000023842,430314.5,7177,WL,B,10.0
3,54.181999921798706,learn,5818.000078201294,Wed Jul 30 2025 14:11:47 GMT-0500 (Central Daylight Time),438578.3000000715,A,cabinenter,O,enter,550,1,8263.800000071526,430314.5,7177,WL,B,10.0
3,56.99899983406067,learn,3001.000165939331,Wed Jul 30 2025 14:11:47 GMT-0500 (Central Daylight Time),441395.0,A,l,O,l,2804,1,2816.5,438578.5,7177,WL,B,11.0
3,57.6489999294281,learn,2351.0000705718994,Wed Jul 30 2025 14:11:47 GMT-0500 (Central Daylight Time),442044.8000000715,A,la,O,a,618,1,3466.3000000715256,438578.5,7177,WL,B,11.0
3,57.88199996948242,learn,2118.000030517578,Wed Jul 30 2025 14:11:47 GMT-0500 (Central Daylight Time),442278.0,A,lak,O,k,201,1,3699.5,438578.5,7177,WL,B,11.0
3,58.49799990653992,learn,1502.000093460083,Wed Jul 30 2025 14:11:47 GMT-0500 (Central Daylight Time),442894.10000002384,A,lake,O,e,592,1,4315.600000023842,438578.5,7177,WL,B,11.0
3,59.86299991607666,learn,137.00008392333984,Wed Jul 30 2025 14:11:47 GMT-0500 (Central Daylight Time),444259.60000002384,A,lakeenter,O,enter,1341,1,5681.100000023842,438578.5,7177,WL,B,11.0
3,60.013999938964844,learn,-13.99993896484375,Wed Jul 30 2025 14:11:47 GMT-0500 (Central Daylight Time),444410.5,A,None,O,None,145,1,150.69999992847443,444259.8000000715,7177,WL,B,12.0
4,1.2829999923706055,learn,58717.000007629395,Wed Jul 30 2025 14:11:47 GMT-0500 (Central Daylight Time),519719.3000000715,A,s,O,s,1251,1,1282.6000000238419,518436.7000000477,7177,WL,B,1.0
4,1.4660000801086426,learn,58533.99991989136,Wed Jul 30 2025 14:11:47 GMT-0500 (Central Daylight Time),519902.5,A,st,O,t,148,1,1465.7999999523163,518436.7000000477,7177,WL,B,1.0
4,1.7160000801086426,learn,58283.99991989136,Wed Jul 30 2025 14:11:47 GMT-0500 (Central Daylight Time),520152.5,A,str,O,r,222,1,1715.7999999523163,518436.7000000477,7177,WL,B,1.0
4,1.8659999370574951,learn,58134.000062942505,Wed Jul 30 2025 14:11:47 GMT-0500 (Central Daylight Time),520302.5,A,stre,O,e,117,1,1865.7999999523163,518436.7000000477,7177,WL,B,1.0
4,2.0980000495910645,learn,57901.999950408936,Wed Jul 30 2025 14:11:47 GMT-0500 (Central Daylight Time),520534.60000002384,A,stree,O,e,195,1,2097.899999976158,518436.7000000477,7177,WL,B,1.0
4,2.3989999294281006,learn,57601.0000705719,Wed Jul 30 2025 14:11:47 GMT-0500 (Central Daylight Time),520835.7000000477,A,street,O,t,279,1,2399.0,518436.7000000477,7177,WL,B,1.0
4,3.2309999465942383,learn,56769.00005340576,Wed Jul 30 2025 14:11:47 GMT-0500 (Central Daylight Time),521667.7000000477,A,streetenter,O,enter,801,1,3231.0,518436.7000000477,7177,WL,B,1.0
4,4.598999977111816,learn,55401.00002288818,Wed Jul 30 2025 14:11:47 GMT-0500 (Central Daylight Time),523034.90000009537,A,g,O,g,1355,1,1367.0,521667.90000009537,7177,WL,B,2.0
4,4.832000017166138,learn,55167.99998283386,Wed Jul 30 2025 14:11:47 GMT-0500 (Central Daylight Time),523268.10000002384,A,gr,O,r,202,1,1600.1999999284744,521667.90000009537,7177,WL,B,2.0
4,4.982000112533569,learn,55017.99988746643,Wed Jul 30 2025 14:11:47 GMT-0500 (Central Daylight Time),523417.90000009537,A,gra,O,a,113,1,1750.0,521667.90000009537,7177,WL,B,2.0
4,5.131999969482422,learn,54868.00003051758,Wed Jul 30 2025 14:11:47 GMT-0500 (Central Daylight Time),523568.10000002384,A,gras,O,s,123,1,1900.1999999284744,521667.90000009537,7177,WL,B,2.0
4,5.531000137329102,learn,54468.9998626709,Wed Jul 30 2025 14:11:47 GMT-0500 (Central Daylight Time),523967.7000000477,A,grass,O,s,365,1,2299.7999999523163,521667.90000009537,7177,WL,B,2.0
4,6.329999923706055,learn,53670.000076293945,Wed Jul 30 2025 14:11:47 GMT-0500 (Central Daylight Time),524766.7000000477,A,grassenter,O,enter,765,1,3098.7999999523163,521667.90000009537,7177,WL,B,2.0
4,6.914000034332275,learn,53085.999965667725,Wed Jul 30 2025 14:11:47 GMT-0500 (Central Daylight Time),525350.5,A,d,O,d,569,1,583.5999999046326,524766.9000000954,7177,WL,B,3.0
4,7.0980000495910645,learn,52901.999950408936,Wed Jul 30 2025 14:11:47 GMT-0500 (Central Daylight Time),525534.0,A,do,O,o,159,1,767.0999999046326,524766.9000000954,7177,WL,B,3.0
4,7.29800009727478,learn,52701.99990272522,Wed Jul 30 2025 14:11:47 GMT-0500 (Central Daylight Time),525733.9000000954,A,doo,O,o,171,1,967.0,524766.9000000954,7177,WL,B,3.0
4,7.898000001907349,learn,52101.99999809265,Wed Jul 30 2025 14:11:47 GMT-0500 (Central Daylight Time),526333.9000000954,A,door,O,r,566,1,1567.0,524766.9000000954,7177,WL,B,3.0
4,8.380000114440918,learn,51619.99988555908,Wed Jul 30 2025 14:11:47 GMT-0500 (Central Daylight Time),526816.0,A,doorenter,O,enter,445,1,2049.0999999046326,524766.9000000954,7177,WL,B,3.0
4,8.92900013923645,learn,51070.99986076355,Wed Jul 30 2025 14:11:47 GMT-0500 (Central Daylight Time),527365.7000000477,A,a,O,a,533,1,549.5,526816.2000000477,7177,WL,B,4.0
4,9.146000146865845,learn,50853.999853134155,Wed Jul 30 2025 14:11:47 GMT-0500 (Central Daylight Time),527582.2000000477,A,ar,O,r,199,1,766.0,526816.2000000477,7177,WL,B,4.0
4,9.496000051498413,learn,50503.99994850159,Wed Jul 30 2025 14:11:47 GMT-0500 (Central Daylight Time),527932.1000000238,A,arm,O,m,342,1,1115.8999999761581,526816.2000000477,7177,WL,B,4.0
4,9.996000051498413,learn,50003.99994850159,Wed Jul 30 2025 14:11:47 GMT-0500 (Central Daylight Time),528431.9000000954,A,armenter,O,enter,488,1,1615.7000000476837,526816.2000000477,7177,WL,B,4.0
4,10.647000074386597,learn,49352.9999256134,Wed Jul 30 2025 14:11:47 GMT-0500 (Central Daylight Time),529082.9000000954,A,s,O,s,630,1,650.6000000238419,528432.3000000715,7177,WL,B,5.0
4,10.77999997138977,learn,49220.00002861023,Wed Jul 30 2025 14:11:47 GMT-0500 (Central Daylight Time),529216.2000000477,A,st,O,t,98,1,783.8999999761581,528432.3000000715,7177,WL,B,5.0
4,10.996000051498413,learn,49003.99994850159,Wed Jul 30 2025 14:11:47 GMT-0500 (Central Daylight Time),529432.5,A,sta,O,a,189,1,1000.1999999284744,528432.3000000715,7177,WL,B,5.0
4,11.196000099182129,learn,48803.99990081787,Wed Jul 30 2025 14:11:47 GMT-0500 (Central Daylight Time),529632.1000000238,A,star,O,r,173,1,1199.7999999523163,528432.3000000715,7177,WL,B,5.0
4,11.712000131607056,learn,48287.999868392944,Wed Jul 30 2025 14:11:47 GMT-0500 (Central Daylight Time),530148.3000000715,A,starenter,O,enter,488,1,1716.0,528432.3000000715,7177,WL,B,5.0
4,12.213000059127808,learn,47786.99994087219,Wed Jul 30 2025 14:11:47 GMT-0500 (Central Daylight Time),530649.0,A,w,O,w,489,1,500.5,530148.5,7177,WL,B,6.0
4,12.328999996185303,learn,47671.0000038147,Wed Jul 30 2025 14:11:47 GMT-0500 (Central Daylight Time),530765.7000000477,A,wi,O,i,84,1,617.2000000476837,530148.5,7177,WL,B,6.0
4,12.878999948501587,learn,47121.00005149841,Wed Jul 30 2025 14:11:47 GMT-0500 (Central Daylight Time),531315.6000000238,A,wif,O,f,520,1,1167.1000000238419,530148.5,7177,WL,B,6.0
4,13.246000051498413,learn,46753.99994850159,Wed Jul 30 2025 14:11:47 GMT-0500 (Central Daylight Time),531682.0,A,wife,O,e,329,1,1533.5,530148.5,7177,WL,B,6.0
4,13.628000020980835,learn,46371.999979019165,Wed Jul 30 2025 14:11:47 GMT-0500 (Central Daylight Time),532064.1000000238,A,wifeenter,O,enter,348,1,1915.6000000238419,530148.5,7177,WL,B,6.0
4,14.161999940872192,learn,45838.00005912781,Wed Jul 30 2025 14:11:47 GMT-0500 (Central Daylight Time),532598.5,A,p,O,p,518,1,534.1999999284744,532064.3000000715,7177,WL,B,7.0
4,14.34500002861023,learn,45654.99997138977,Wed Jul 30 2025 14:11:47 GMT-0500 (Central Daylight Time),532781.6000000238,A,pu,O,u,151,1,717.2999999523163,532064.3000000715,7177,WL,B,7.0
4,14.545000076293945,learn,45454.999923706055,Wed Jul 30 2025 14:11:47 GMT-0500 (Central Daylight Time),532981.6000000238,A,pup,O,p,168,1,917.2999999523163,532064.3000000715,7177,WL,B,7.0
4,14.861999988555908,learn,45138.00001144409,Wed Jul 30 2025 14:11:47 GMT-0500 (Central Daylight Time),533298.4000000954,A,pupi,O,i,279,1,1234.1000000238419,532064.3000000715,7177,WL,B,7.0
4,15.09500002861023,learn,44904.99997138977,Wed Jul 30 2025 14:11:47 GMT-0500 (Central Daylight Time),533531.4000000954,A,pupil,O,l,197,1,1467.1000000238419,532064.3000000715,7177,WL,B,7.0
4,15.710999965667725,learn,44289.000034332275,Wed Jul 30 2025 14:11:47 GMT-0500 (Central Daylight Time),534147.0,A,pupilenter,O,enter,582,1,2082.6999999284744,532064.3000000715,7177,WL,B,7.0
4,16.210999965667725,learn,43789.000034332275,Wed Jul 30 2025 14:11:47 GMT-0500 (Central Daylight Time),534647.7000000477,A,c,O,c,482,1,500.39999997615814,534147.3000000715,7177,WL,B,8.0
4,16.361999988555908,learn,43638.00001144409,Wed Jul 30 2025 14:11:47 GMT-0500 (Central Daylight Time),534798.0,A,ci,O,i,126,1,650.6999999284744,534147.3000000715,7177,WL,B,8.0
4,16.561000108718872,learn,43438.99989128113,Wed Jul 30 2025 14:11:47 GMT-0500 (Central Daylight Time),534997.7000000477,A,cit,O,t,166,1,850.3999999761581,534147.3000000715,7177,WL,B,8.0
4,16.74399995803833,learn,43256.00004196167,Wed Jul 30 2025 14:11:47 GMT-0500 (Central Daylight Time),535180.6000000238,A,city,O,y,142,1,1033.2999999523163,534147.3000000715,7177,WL,B,8.0
4,17.627000093460083,learn,42372.99990653992,Wed Jul 30 2025 14:11:47 GMT-0500 (Central Daylight Time),536062.9000000954,A,cityenter,O,enter,848,1,1915.6000000238419,534147.3000000715,7177,WL,B,8.0
4,18.094000101089478,learn,41905.99989891052,Wed Jul 30 2025 14:11:47 GMT-0500 (Central Daylight Time),536530.5,A,w,O,w,455,1,467.2999999523163,536063.2000000477,7177,WL,B,9.0
4,18.193000078201294,learn,41806.999921798706,Wed Jul 30 2025 14:11:47 GMT-0500 (Central Daylight Time),536629.7000000477,A,wi,O,i,66,1,566.5,536063.2000000477,7177,WL,B,9.0
4,18.3270001411438,learn,41672.9998588562,Wed Jul 30 2025 14:11:47 GMT-0500 (Central Daylight Time),536763.7000000477,A,win,O,n,105,1,700.5,536063.2000000477,7177,WL,B,9.0
4,18.444000005722046,learn,41555.999994277954,Wed Jul 30 2025 14:11:47 GMT-0500 (Central Daylight Time),536880.2000000477,A,wind,O,d,82,1,817.0,536063.2000000477,7177,WL,B,9.0
4,18.59500002861023,learn,41404.99997138977,Wed Jul 30 2025 14:11:47 GMT-0500 (Central Daylight Time),537030.2000000477,A,windo,O,o,111,1,967.0,536063.2000000477,7177,WL,B,9.0
4,18.76200008392334,learn,41237.99991607666,Wed Jul 30 2025 14:11:47 GMT-0500 (Central Daylight Time),537197.0,A,window,O,w,134,1,1133.7999999523163,536063.2000000477,7177,WL,B,9.0
4,18.977999925613403,learn,41022.0000743866,Wed Jul 30 2025 14:11:47 GMT-0500 (Central Daylight Time),537413.4000000954,A,windown,O,n,192,1,1350.2000000476837,536063.2000000477,7177,WL,B,9.0
4,19.378000020980835,learn,40621.999979019165,Wed Jul 30 2025 14:11:47 GMT-0500 (Central Daylight Time),537813.6000000238,A,window,O,backspace,379,1,1750.3999999761581,536063.2000000477,7177,WL,B,9.0
4,20.243000030517578,learn,39756.99996948242,Wed Jul 30 2025 14:11:47 GMT-0500 (Central Daylight Time),538678.8000000715,A,windowenter,O,enter,830,1,2615.600000023842,536063.2000000477,7177,WL,B,9.0
4,21.311000108718872,learn,38688.99989128113,Wed Jul 30 2025 14:11:47 GMT-0500 (Central Daylight Time),539746.0,A,p,O,p,1057,1,1067.0,538679.0,7177,WL,B,10.0
4,21.544000148773193,learn,38455.99985122681,Wed Jul 30 2025 14:11:47 GMT-0500 (Central Daylight Time),539979.0,A,pi,O,i,203,1,1300.0,538679.0,7177,WL,B,10.0
4,21.710999965667725,learn,38289.000034332275,Wed Jul 30 2025 14:11:47 GMT-0500 (Central Daylight Time),540145.8000000715,A,pip,O,p,132,1,1466.8000000715256,538679.0,7177,WL,B,10.0
4,22.294000148773193,learn,37705.99985122681,Wed Jul 30 2025 14:11:47 GMT-0500 (Central Daylight Time),540729.0,A,pipe,O,e,556,1,2050.0,538679.0,7177,WL,B,10.0
4,23.30900001525879,learn,36690.99998474121,Wed Jul 30 2025 14:11:47 GMT-0500 (Central Daylight Time),541744.3000000715,A,pipeenter,O,enter,989,1,3065.3000000715256,538679.0,7177,WL,B,10.0
4,23.792999982833862,learn,36207.00001716614,Wed Jul 30 2025 14:11:47 GMT-0500 (Central Daylight Time),542228.4000000954,A,s,O,s,471,1,483.8000000715256,541744.6000000238,7177,WL,B,11.0
4,23.91000008583069,learn,36089.99991416931,Wed Jul 30 2025 14:11:47 GMT-0500 (Central Daylight Time),542345.0,A,sk,O,k,92,1,600.3999999761581,541744.6000000238,7177,WL,B,11.0
4,24.16000008583069,learn,35839.99991416931,Wed Jul 30 2025 14:11:47 GMT-0500 (Central Daylight Time),542595.0,A,ski,O,i,212,1,850.3999999761581,541744.6000000238,7177,WL,B,11.0
4,24.292999982833862,learn,35707.00001716614,Wed Jul 30 2025 14:11:47 GMT-0500 (Central Daylight Time),542728.5,A,skin,O,n,106,1,983.8999999761581,541744.6000000238,7177,WL,B,11.0
4,25.026000022888184,learn,34973.99997711182,Wed Jul 30 2025 14:11:47 GMT-0500 (Central Daylight Time),543461.6000000238,A,skinenter,O,enter,700,1,1717.0,541744.6000000238,7177,WL,B,11.0
4,25.70900011062622,learn,34290.99988937378,Wed Jul 30 2025 14:11:47 GMT-0500 (Central Daylight Time),544144.6000000238,A,c,O,c,665,1,682.7999999523163,543461.8000000715,7177,WL,B,12.0
4,25.80900001525879,learn,34190.99998474121,Wed Jul 30 2025 14:11:47 GMT-0500 (Central Daylight Time),544244.1000000238,A,ca,O,a,61,1,782.2999999523163,543461.8000000715,7177,WL,B,12.0
4,26.075999975204468,learn,33924.00002479553,Wed Jul 30 2025 14:11:47 GMT-0500 (Central Daylight Time),544511.4000000954,A,cab,O,b,233,1,1049.6000000238419,543461.8000000715,7177,WL,B,12.0
4,26.192000150680542,learn,33807.99984931946,Wed Jul 30 2025 14:11:47 GMT-0500 (Central Daylight Time),544627.3000000715,A,cabi,O,i,80,1,1165.5,543461.8000000715,7177,WL,B,12.0
4,26.30900001525879,learn,33690.99998474121,Wed Jul 30 2025 14:11:47 GMT-0500 (Central Daylight Time),544744.4000000954,A,cabin,O,n,90,1,1282.6000000238419,543461.8000000715,7177,WL,B,12.0
4,26.907999992370605,learn,33092.000007629395,Wed Jul 30 2025 14:11:47 GMT-0500 (Central Daylight Time),545343.2000000477,A,cabinenter,O,enter,572,1,1881.3999999761581,543461.8000000715,7177,WL,B,12.0
4,27.242000102996826,learn,32757.999897003174,Wed Jul 30 2025 14:11:47 GMT-0500 (Central Daylight Time),545677.5,A,l,O,l,328,1,334.0,545343.5,7177,WL,B,13.0
4,27.45799994468689,learn,32542.00005531311,Wed Jul 30 2025 14:11:47 GMT-0500 (Central Daylight Time),545893.7000000477,A,la,O,a,187,1,550.2000000476837,545343.5,7177,WL,B,13.0
4,27.608999967575073,learn,32391.000032424927,Wed Jul 30 2025 14:11:47 GMT-0500 (Central Daylight Time),546044.0,A,lak,O,k,110,1,700.5,545343.5,7177,WL,B,13.0
4,27.875,learn,32125.0,Wed Jul 30 2025 14:11:47 GMT-0500 (Central Daylight Time),546310.4000000954,A,lake,O,e,241,1,966.9000000953674,545343.5,7177,WL,B,13.0
4,28.575000047683716,learn,31424.999952316284,Wed Jul 30 2025 14:11:47 GMT-0500 (Central Daylight Time),547010.4000000954,A,lakeenter,O,enter,666,1,1666.9000000953674,545343.5,7177,WL,B,13.0
4,29.69099998474121,learn,30309.00001525879,Wed Jul 30 2025 14:11:47 GMT-0500 (Central Daylight Time),548126.5,A,f,O,f,1101,1,1115.7999999523163,547010.7000000477,7177,WL,B,14.0
4,29.825000047683716,learn,30174.999952316284,Wed Jul 30 2025 14:11:47 GMT-0500 (Central Daylight Time),548259.9000000954,A,fi,O,i,96,1,1249.2000000476837,547010.7000000477,7177,WL,B,14.0
4,29.95799994468689,learn,30042.00005531311,Wed Jul 30 2025 14:11:47 GMT-0500 (Central Daylight Time),548393.0,A,fir,O,r,110,1,1382.2999999523163,547010.7000000477,7177,WL,B,14.0
4,30.157999992370605,learn,29842.000007629395,Wed Jul 30 2025 14:11:47 GMT-0500 (Central Daylight Time),548593.1000000238,A,fire,O,e,167,1,1582.3999999761581,547010.7000000477,7177,WL,B,14.0
4,31.27300000190735,learn,28726.99999809265,Wed Jul 30 2025 14:11:47 GMT-0500 (Central Daylight Time),549708.5,A,fireenter,O,enter,1084,1,2697.7999999523163,547010.7000000477,7177,WL,B,14.0
4,31.891000032424927,learn,28108.999967575073,Wed Jul 30 2025 14:11:47 GMT-0500 (Central Daylight Time),550325.9000000954,A,c,O,c,610,1,617.2000000476837,549708.7000000477,7177,WL,B,15.0
4,31.990999937057495,learn,28009.000062942505,Wed Jul 30 2025 14:11:47 GMT-0500 (Central Daylight Time),550425.9000000954,A,cl,O,l,64,1,717.2000000476837,549708.7000000477,7177,WL,B,15.0
4,32.240999937057495,learn,27759.000062942505,Wed Jul 30 2025 14:11:47 GMT-0500 (Central Daylight Time),550675.9000000954,A,clo,O,o,211,1,967.2000000476837,549708.7000000477,7177,WL,B,15.0
4,32.50699996948242,learn,27493.000030517578,Wed Jul 30 2025 14:11:47 GMT-0500 (Central Daylight Time),550942.1000000238,A,cloc,O,c,242,1,1233.3999999761581,549708.7000000477,7177,WL,B,15.0
4,32.67400002479553,learn,27325.999975204468,Wed Jul 30 2025 14:11:47 GMT-0500 (Central Daylight Time),551108.9000000954,A,clock,O,k,127,1,1400.2000000476837,549708.7000000477,7177,WL,B,15.0
4,33.72200012207031,learn,26277.999877929688,Wed Jul 30 2025 14:11:47 GMT-0500 (Central Daylight Time),552157.6000000238,A,clockenter,O,enter,1018,1,2448.899999976158,549708.7000000477,7177,WL,B,15.0
5,1.5,learn,60000.0,Wed Jul 30 2025 14:11:47 GMT-0500 (Central Daylight Time),623752.4000000954,A,s,O,s,1467,1,1499.5,622252.9000000954,7177,WL,B,1.0
5,1.7159998416900635,learn,60000.0,Wed Jul 30 2025 14:11:47 GMT-0500 (Central Daylight Time),623968.5,A,st,O,t,181,1,1715.5999999046326,622252.9000000954,7177,WL,B,1.0
5,1.999000072479248,learn,60000.0,Wed Jul 30 2025 14:11:47 GMT-0500 (Central Daylight Time),624251.6000000238,A,str,O,r,246,1,1998.6999999284744,622252.9000000954,7177,WL,B,1.0
5,2.182999849319458,learn,60000.0,Wed Jul 30 2025 14:11:47 GMT-0500 (Central Daylight Time),624435.2000000477,A,stre,O,e,145,1,2182.2999999523163,622252.9000000954,7177,WL,B,1.0
5,2.432999849319458,learn,60000.0,Wed Jul 30 2025 14:11:47 GMT-0500 (Central Daylight Time),624685.6000000238,A,stree,O,e,228,1,2432.6999999284744,622252.9000000954,7177,WL,B,1.0
5,2.7660000324249268,learn,60000.0,Wed Jul 30 2025 14:11:47 GMT-0500 (Central Daylight Time),625018.2000000477,A,street,O,t,304,1,2765.2999999523163,622252.9000000954,7177,WL,B,1.0
5,3.365000009536743,learn,60000.0,Wed Jul 30 2025 14:11:47 GMT-0500 (Central Daylight Time),625616.9000000954,A,streetenter,O,enter,568,1,3364.0,622252.9000000954,7177,WL,B,1.0
5,4.049000024795532,learn,60000.0,Wed Jul 30 2025 14:11:47 GMT-0500 (Central Daylight Time),626301.6000000238,A,g,O,g,679,1,684.5,625617.1000000238,7177,WL,B,2.0
5,4.297999858856201,learn,60000.0,Wed Jul 30 2025 14:11:47 GMT-0500 (Central Daylight Time),626550.6000000238,A,gr,O,r,224,1,933.5,625617.1000000238,7177,WL,B,2.0
5,4.865000009536743,learn,60000.0,Wed Jul 30 2025 14:11:47 GMT-0500 (Central Daylight Time),627117.6000000238,A,gra,O,a,543,1,1500.5,625617.1000000238,7177,WL,B,2.0
5,5.381999969482422,learn,60000.0,Wed Jul 30 2025 14:11:47 GMT-0500 (Central Daylight Time),627633.9000000954,A,gras,O,s,489,1,2016.8000000715256,625617.1000000238,7177,WL,B,2.0
5,5.697999954223633,learn,60000.0,Wed Jul 30 2025 14:11:47 GMT-0500 (Central Daylight Time),627950.2000000477,A,grass,O,s,292,1,2333.100000023842,625617.1000000238,7177,WL,B,2.0
5,6.912999868392944,learn,60000.0,Wed Jul 30 2025 14:11:47 GMT-0500 (Central Daylight Time),629165.7000000477,A,grassenter,O,enter,1182,1,3548.600000023842,625617.1000000238,7177,WL,B,2.0
5,7.746999979019165,learn,60000.0,Wed Jul 30 2025 14:11:47 GMT-0500 (Central Daylight Time),629999.8000000715,A,d,O,d,826,1,833.8000000715256,629166.0,7177,WL,B,3.0
5,7.947000026702881,learn,60000.0,Wed Jul 30 2025 14:11:47 GMT-0500 (Central Daylight Time),630199.4000000954,A,do,O,o,174,1,1033.4000000953674,629166.0,7177,WL,B,3.0
5,8.230000019073486,learn,60000.0,Wed Jul 30 2025 14:11:47 GMT-0500 (Central Daylight Time),630482.9000000954,A,doo,O,o,244,1,1316.9000000953674,629166.0,7177,WL,B,3.0
5,8.746999979019165,learn,60000.0,Wed Jul 30 2025 14:11:47 GMT-0500 (Central Daylight Time),630999.3000000715,A,door,O,r,491,1,1833.3000000715256,629166.0,7177,WL,B,3.0
5,9.279000043869019,learn,60000.0,Wed Jul 30 2025 14:11:47 GMT-0500 (Central Daylight Time),631531.6000000238,A,doorenter,O,enter,502,1,2365.600000023842,629166.0,7177,WL,B,3.0
5,9.930000066757202,learn,60000.0,Wed Jul 30 2025 14:11:47 GMT-0500 (Central Daylight Time),632182.3000000715,A,a,O,a,634,1,650.3000000715256,631532.0,7177,WL,B,4.0
5,10.11299991607666,learn,60000.0,Wed Jul 30 2025 14:11:47 GMT-0500 (Central Daylight Time),632365.6000000238,A,ar,O,r,153,1,833.6000000238419,631532.0,7177,WL,B,4.0
5,10.513000011444092,learn,60000.0,Wed Jul 30 2025 14:11:47 GMT-0500 (Central Daylight Time),632765.5,A,arm,O,m,378,1,1233.5,631532.0,7177,WL,B,4.0
5,11.078999996185303,learn,60000.0,Wed Jul 30 2025 14:11:47 GMT-0500 (Central Daylight Time),633330.9000000954,A,armenter,O,enter,526,1,1798.9000000953674,631532.0,7177,WL,B,4.0
5,11.680000066757202,learn,60000.0,Wed Jul 30 2025 14:11:47 GMT-0500 (Central Daylight Time),633931.8000000715,A,s,O,s,581,1,600.6000000238419,633331.2000000477,7177,WL,B,5.0
5,11.845999956130981,learn,60000.0,Wed Jul 30 2025 14:11:47 GMT-0500 (Central Daylight Time),634098.4000000954,A,st,O,t,131,1,767.2000000476837,633331.2000000477,7177,WL,B,5.0
5,12.11299991607666,learn,60000.0,Wed Jul 30 2025 14:11:47 GMT-0500 (Central Daylight Time),634365.3000000715,A,sta,O,a,243,1,1034.1000000238419,633331.2000000477,7177,WL,B,5.0
5,12.578999996185303,learn,60000.0,Wed Jul 30 2025 14:11:47 GMT-0500 (Central Daylight Time),634831.4000000954,A,star,O,r,432,1,1500.2000000476837,633331.2000000477,7177,WL,B,5.0
5,13.310999870300293,learn,60000.0,Wed Jul 30 2025 14:11:47 GMT-0500 (Central Daylight Time),635563.6000000238,A,starenter,O,enter,701,1,2232.399999976158,633331.2000000477,7177,WL,B,5.0
5,13.711999893188477,learn,60000.0,Wed Jul 30 2025 14:11:47 GMT-0500 (Central Daylight Time),635964.6000000238,A,w,O,w,388,1,400.6999999284744,635563.9000000954,7177,WL,B,6.0
5,13.845999956130981,learn,60000.0,Wed Jul 30 2025 14:11:47 GMT-0500 (Central Daylight Time),636097.9000000954,A,wi,O,i,96,1,534.0,635563.9000000954,7177,WL,B,6.0
5,14.111999988555908,learn,60000.0,Wed Jul 30 2025 14:11:47 GMT-0500 (Central Daylight Time),636364.4000000954,A,wif,O,f,236,1,800.5,635563.9000000954,7177,WL,B,6.0
5,14.529000043869019,learn,60000.0,Wed Jul 30 2025 14:11:47 GMT-0500 (Central Daylight Time),636781.0,A,wife,O,e,386,1,1217.0999999046326,635563.9000000954,7177,WL,B,6.0
5,14.961999893188477,learn,60000.0,Wed Jul 30 2025 14:11:47 GMT-0500 (Central Daylight Time),637214.3000000715,A,wifeenter,O,enter,407,1,1650.3999999761581,635563.9000000954,7177,WL,B,6.0
5,15.394999980926514,learn,60000.0,Wed Jul 30 2025 14:11:47 GMT-0500 (Central Daylight Time),637647.0,A,w,O,w,417,1,432.39999997615814,637214.6000000238,7177,WL,B,7.0
5,15.544999837875366,learn,60000.0,Wed Jul 30 2025 14:11:47 GMT-0500 (Central Daylight Time),637797.3000000715,A,wi,O,i,113,1,582.7000000476837,637214.6000000238,7177,WL,B,7.0
5,15.661999940872192,learn,60000.0,Wed Jul 30 2025 14:11:47 GMT-0500 (Central Daylight Time),637913.8000000715,A,win,O,n,78,1,699.2000000476837,637214.6000000238,7177,WL,B,7.0
5,15.843999862670898,learn,60000.0,Wed Jul 30 2025 14:11:47 GMT-0500 (Central Daylight Time),638096.2000000477,A,wind,O,d,148,1,881.6000000238419,637214.6000000238,7177,WL,B,7.0
5,16.17799997329712,learn,60000.0,Wed Jul 30 2025 14:11:47 GMT-0500 (Central Daylight Time),638430.1000000238,A,windo,O,o,318,1,1215.5,637214.6000000238,7177,WL,B,7.0
5,16.41100001335144,learn,60000.0,Wed Jul 30 2025 14:11:47 GMT-0500 (Central Daylight Time),638663.7000000477,A,window,O,w,206,1,1449.1000000238419,637214.6000000238,7177,WL,B,7.0
5,17.792999982833862,learn,60000.0,Wed Jul 30 2025 14:11:47 GMT-0500 (Central Daylight Time),640045.3000000715,A,windowenter,O,enter,1350,1,2830.7000000476837,637214.6000000238,7177,WL,B,7.0
5,18.460999965667725,learn,60000.0,Wed Jul 30 2025 14:11:47 GMT-0500 (Central Daylight Time),640713.1000000238,A,c,O,c,650,1,667.5,640045.6000000238,7177,WL,B,8.0
5,18.5939998626709,learn,60000.0,Wed Jul 30 2025 14:11:47 GMT-0500 (Central Daylight Time),640846.2000000477,A,ci,O,i,101,1,800.6000000238419,640045.6000000238,7177,WL,B,8.0
5,18.90999984741211,learn,60000.0,Wed Jul 30 2025 14:11:47 GMT-0500 (Central Daylight Time),641162.9000000954,A,cit,O,t,286,1,1117.3000000715256,640045.6000000238,7177,WL,B,8.0
5,19.126999855041504,learn,60000.0,Wed Jul 30 2025 14:11:47 GMT-0500 (Central Daylight Time),641379.4000000954,A,city,O,y,187,1,1333.8000000715256,640045.6000000238,7177,WL,B,8.0
5,19.858999967575073,learn,60000.0,Wed Jul 30 2025 14:11:47 GMT-0500 (Central Daylight Time),642111.5,A,cityenter,O,enter,697,1,2065.899999976158,640045.6000000238,7177,WL,B,8.0
5,20.22699999809265,learn,60000.0,Wed Jul 30 2025 14:11:47 GMT-0500 (Central Daylight Time),642479.1000000238,A,p,O,p,352,1,367.2999999523163,642111.8000000715,7177,WL,B,9.0
5,20.39299988746643,learn,60000.0,Wed Jul 30 2025 14:11:47 GMT-0500 (Central Daylight Time),642645.7000000477,A,pu,O,u,139,1,533.8999999761581,642111.8000000715,7177,WL,B,9.0
5,20.692999839782715,learn,60000.0,Wed Jul 30 2025 14:11:47 GMT-0500 (Central Daylight Time),642945.6000000238,A,pup,O,p,272,1,833.7999999523163,642111.8000000715,7177,WL,B,9.0
5,20.993000030517578,learn,60000.0,Wed Jul 30 2025 14:11:47 GMT-0500 (Central Daylight Time),643245.6000000238,A,pupi,O,i,268,1,1133.7999999523163,642111.8000000715,7177,WL,B,9.0
5,21.177000045776367,learn,60000.0,Wed Jul 30 2025 14:11:47 GMT-0500 (Central Daylight Time),643428.9000000954,A,pupil,O,l,145,1,1317.1000000238419,642111.8000000715,7177,WL,B,9.0
5,21.575000047683716,learn,60000.0,Wed Jul 30 2025 14:11:47 GMT-0500 (Central Daylight Time),643827.7000000477,A,pupilenter,O,enter,374,1,1715.8999999761581,642111.8000000715,7177,WL,B,9.0
5,22.792999982833862,learn,60000.0,Wed Jul 30 2025 14:11:47 GMT-0500 (Central Daylight Time),645045.3000000715,A,c,O,c,1210,1,1217.3000000715256,643828.0,7177,WL,B,10.0
5,22.908999919891357,learn,60000.0,Wed Jul 30 2025 14:11:47 GMT-0500 (Central Daylight Time),645161.5,A,ca,O,a,87,1,1333.5,643828.0,7177,WL,B,10.0
5,23.158999919891357,learn,60000.0,Wed Jul 30 2025 14:11:47 GMT-0500 (Central Daylight Time),645411.2000000477,A,cab,O,b,212,1,1583.2000000476837,643828.0,7177,WL,B,10.0
5,23.30900001525879,learn,60000.0,Wed Jul 30 2025 14:11:47 GMT-0500 (Central Daylight Time),645561.0,A,cabi,O,i,115,1,1733.0,643828.0,7177,WL,B,10.0
5,23.4760000705719,learn,60000.0,Wed Jul 30 2025 14:11:47 GMT-0500 (Central Daylight Time),645728.0,A,cabin,O,n,130,1,1900.0,643828.0,7177,WL,B,10.0
5,23.924999952316284,learn,60000.0,Wed Jul 30 2025 14:11:47 GMT-0500 (Central Daylight Time),646176.9000000954,A,cabinenter,O,enter,412,1,2348.9000000953674,643828.0,7177,WL,B,10.0
5,24.674999952316284,learn,60000.0,Wed Jul 30 2025 14:11:47 GMT-0500 (Central Daylight Time),646927.7000000477,A,l,O,l,734,1,750.5,646177.2000000477,7177,WL,B,11.0
5,24.991999864578247,learn,60000.0,Wed Jul 30 2025 14:11:47 GMT-0500 (Central Daylight Time),647244.1000000238,A,la,O,a,276,1,1066.8999999761581,646177.2000000477,7177,WL,B,11.0
5,25.157999992370605,learn,60000.0,Wed Jul 30 2025 14:11:47 GMT-0500 (Central Daylight Time),647410.6000000238,A,lak,O,k,132,1,1233.3999999761581,646177.2000000477,7177,WL,B,11.0
5,25.47499990463257,learn,60000.0,Wed Jul 30 2025 14:11:47 GMT-0500 (Central Daylight Time),647727.4000000954,A,lake,O,e,292,1,1550.2000000476837,646177.2000000477,7177,WL,B,11.0
5,26.740000009536743,learn,60000.0,Wed Jul 30 2025 14:11:47 GMT-0500 (Central Daylight Time),648992.6000000238,A,lakeenter,O,enter,1240,1,2815.399999976158,646177.2000000477,7177,WL,B,11.0
5,28.889999866485596,learn,60000.0,Wed Jul 30 2025 14:11:47 GMT-0500 (Central Daylight Time),651142.6000000238,A,p,O,p,2143,1,2149.6999999284744,648992.9000000954,7177,WL,B,12.0
5,29.08999991416931,learn,60000.0,Wed Jul 30 2025 14:11:47 GMT-0500 (Central Daylight Time),651342.7000000477,A,pi,O,i,168,1,2349.7999999523163,648992.9000000954,7177,WL,B,12.0
5,29.256999969482422,learn,60000.0,Wed Jul 30 2025 14:11:47 GMT-0500 (Central Daylight Time),651509.5,A,pip,O,p,128,1,2516.5999999046326,648992.9000000954,7177,WL,B,12.0
5,29.957000017166138,learn,60000.0,Wed Jul 30 2025 14:11:47 GMT-0500 (Central Daylight Time),652209.2000000477,A,pipe,O,e,663,1,3216.2999999523163,648992.9000000954,7177,WL,B,12.0
5,30.638999938964844,learn,60000.0,Wed Jul 30 2025 14:11:47 GMT-0500 (Central Daylight Time),652891.2000000477,A,pipeenter,O,enter,643,1,3898.2999999523163,648992.9000000954,7177,WL,B,12.0
5,31.44000005722046,learn,60000.0,Wed Jul 30 2025 14:11:47 GMT-0500 (Central Daylight Time),653691.8000000715,A,s,O,s,788,1,800.3000000715256,652891.5,7177,WL,B,13.0
5,31.60599994659424,learn,60000.0,Wed Jul 30 2025 14:11:47 GMT-0500 (Central Daylight Time),653858.7000000477,A,sk,O,k,139,1,967.2000000476837,652891.5,7177,WL,B,13.0
5,31.83899998664856,learn,60000.0,Wed Jul 30 2025 14:11:47 GMT-0500 (Central Daylight Time),654090.9000000954,A,ski,O,i,201,1,1199.4000000953674,652891.5,7177,WL,B,13.0
5,32.039000034332275,learn,60000.0,Wed Jul 30 2025 14:11:47 GMT-0500 (Central Daylight Time),654290.8000000715,A,skin,O,n,178,1,1399.3000000715256,652891.5,7177,WL,B,13.0
5,32.787999868392944,learn,60000.0,Wed Jul 30 2025 14:11:47 GMT-0500 (Central Daylight Time),655040.7000000477,A,skinenter,O,enter,730,1,2149.2000000476837,652891.5,7177,WL,B,13.0
5,33.57299995422363,learn,60000.0,Wed Jul 30 2025 14:11:47 GMT-0500 (Central Daylight Time),655824.9000000954,A,f,O,f,767,1,784.0,655040.9000000954,7177,WL,B,14.0
5,33.67199993133545,learn,60000.0,Wed Jul 30 2025 14:11:47 GMT-0500 (Central Daylight Time),655924.0,A,fi,O,i,68,1,883.0999999046326,655040.9000000954,7177,WL,B,14.0
5,33.871999979019165,learn,60000.0,Wed Jul 30 2025 14:11:47 GMT-0500 (Central Daylight Time),656124.3000000715,A,fir,O,r,179,1,1083.3999999761581,655040.9000000954,7177,WL,B,14.0
5,34.105000019073486,learn,60000.0,Wed Jul 30 2025 14:11:47 GMT-0500 (Central Daylight Time),656357.7000000477,A,fire,O,e,204,1,1316.7999999523163,655040.9000000954,7177,WL,B,14.0
5,35.48799991607666,learn,60000.0,Wed Jul 30 2025 14:11:47 GMT-0500 (Central Daylight Time),657739.7000000477,A,fireenter,O,enter,1360,1,2698.7999999523163,655040.9000000954,7177,WL,B,14.0
5,36.18899989128113,learn,60000.0,Wed Jul 30 2025 14:11:47 GMT-0500 (Central Daylight Time),658440.5,A,c,O,c,684,1,700.5,657740.0,7177,WL,B,15.0
5,36.287999868392944,learn,60000.0,Wed Jul 30 2025 14:11:47 GMT-0500 (Central Daylight Time),658539.8000000715,A,cl,O,l,76,1,799.8000000715256,657740.0,7177,WL,B,15.0
5,36.621999979019165,learn,60000.0,Wed Jul 30 2025 14:11:47 GMT-0500 (Central Daylight Time),658873.7000000477,A,clo,O,o,312,1,1133.7000000476837,657740.0,7177,WL,B,15.0
5,36.95599985122681,learn,60000.0,Wed Jul 30 2025 14:11:47 GMT-0500 (Central Daylight Time),659207.0,A,cloc,O,c,298,1,1467.0,657740.0,7177,WL,B,15.0
5,37.138999938964844,learn,60000.0,Wed Jul 30 2025 14:11:47 GMT-0500 (Central Daylight Time),659390.2000000477,A,clock,O,k,149,1,1650.2000000476837,657740.0,7177,WL,B,15.0
5,38.32200002670288,learn,60000.0,Wed Jul 30 2025 14:11:47 GMT-0500 (Central Daylight Time),660573.1000000238,A,clockenter,O,enter,1160,1,2833.100000023842,657740.0,7177,WL,B,15.0
6,1.25,distr,58750.0,Wed Jul 30 2025 14:11:47 GMT-0500 (Central Daylight Time),739547.4000000954,B,b,O,b,1213,1,1249.4000000953674,738298.0,7177,WL,B,1.0
6,1.383000135421753,distr,58616.99986457825,Wed Jul 30 2025 14:11:47 GMT-0500 (Central Daylight Time),739680.6000000238,B,ba,O,a,105,1,1382.6000000238419,738298.0,7177,WL,B,1.0
6,1.5999999046325684,distr,58400.00009536743,Wed Jul 30 2025 14:11:47 GMT-0500 (Central Daylight Time),739897.1000000238,B,bab,O,b,182,1,1599.1000000238419,738298.0,7177,WL,B,1.0
6,1.8329999446868896,distr,58167.00005531311,Wed Jul 30 2025 14:11:47 GMT-0500 (Central Daylight Time),740130.2000000477,B,baby,O,y,198,1,1832.2000000476837,738298.0,7177,WL,B,1.0
6,2.631999969482422,distr,57368.00003051758,Wed Jul 30 2025 14:11:47 GMT-0500 (Central Daylight Time),740929.1000000238,B,babyenter,O,enter,769,1,2631.100000023842,738298.0,7177,WL,B,1.0
6,6.431999921798706,distr,53568.000078201294,Wed Jul 30 2025 14:11:47 GMT-0500 (Central Daylight Time),744729.0,B,o,O,o,3782,1,3799.5999999046326,740929.4000000954,7177,WL,B,2.0
6,6.63100004196167,distr,53368.99995803833,Wed Jul 30 2025 14:11:47 GMT-0500 (Central Daylight Time),744928.7000000477,B,oc,O,c,167,1,3999.2999999523163,740929.4000000954,7177,WL,B,2.0
6,6.79800009727478,distr,53201.99990272522,Wed Jul 30 2025 14:11:47 GMT-0500 (Central Daylight Time),745095.2000000477,B,oce,O,e,141,1,4165.799999952316,740929.4000000954,7177,WL,B,2.0
6,6.997999906539917,distr,53002.00009346008,Wed Jul 30 2025 14:11:47 GMT-0500 (Central Daylight Time),745295.2000000477,B,ocea,O,a,175,1,4365.799999952316,740929.4000000954,7177,WL,B,2.0
6,7.148000001907349,distr,52851.99999809265,Wed Jul 30 2025 14:11:47 GMT-0500 (Central Daylight Time),745445.6000000238,B,ocean,O,n,127,1,4516.199999928474,740929.4000000954,7177,WL,B,2.0
6,7.5970001220703125,distr,52402.99987792969,Wed Jul 30 2025 14:11:47 GMT-0500 (Central Daylight Time),745894.1000000238,B,oceanenter,O,enter,422,1,4964.699999928474,740929.4000000954,7177,WL,B,2.0
6,8.63100004196167,distr,51368.99995803833,Wed Jul 30 2025 14:11:47 GMT-0500 (Central Daylight Time),746928.2000000477,B,p,O,p,1025,1,1033.7000000476837,745894.5,7177,WL,B,3.0
6,8.79699993133545,distr,51203.00006866455,Wed Jul 30 2025 14:11:47 GMT-0500 (Central Daylight Time),747094.2000000477,B,pa,O,a,147,1,1199.7000000476837,745894.5,7177,WL,B,3.0
6,8.930999994277954,distr,51069.000005722046,Wed Jul 30 2025 14:11:47 GMT-0500 (Central Daylight Time),747228.1000000238,B,pal,O,l,104,1,1333.6000000238419,745894.5,7177,WL,B,3.0
6,9.04699993133545,distr,50953.00006866455,Wed Jul 30 2025 14:11:47 GMT-0500 (Central Daylight Time),747344.4000000954,B,pala,O,a,80,1,1449.9000000953674,745894.5,7177,WL,B,3.0
6,9.29699993133545,distr,50703.00006866455,Wed Jul 30 2025 14:11:47 GMT-0500 (Central Daylight Time),747594.6000000238,B,palac,O,c,222,1,1700.1000000238419,745894.5,7177,WL,B,3.0
6,9.480000019073486,distr,50519.999980926514,Wed Jul 30 2025 14:11:47 GMT-0500 (Central Daylight Time),747777.0,B,palace,O,e,155,1,1882.5,745894.5,7177,WL,B,3.0
6,11.029000043869019,distr,48970.99995613098,Wed Jul 30 2025 14:11:47 GMT-0500 (Central Daylight Time),749326.4000000954,B,palaceenter,O,enter,1531,1,3431.9000000953674,745894.5,7177,WL,B,3.0
6,11.763000011444092,distr,48236.99998855591,Wed Jul 30 2025 14:11:47 GMT-0500 (Central Daylight Time),750060.3000000715,B,l,O,l,721,1,733.7000000476837,749326.6000000238,7177,WL,B,4.0
6,11.913000106811523,distr,48086.99989318848,Wed Jul 30 2025 14:11:47 GMT-0500 (Central Daylight Time),750210.4000000954,B,li,O,i,122,1,883.8000000715256,749326.6000000238,7177,WL,B,4.0
6,12.163000106811523,distr,47836.99989318848,Wed Jul 30 2025 14:11:47 GMT-0500 (Central Daylight Time),750460.2000000477,B,lip,O,p,218,1,1133.6000000238419,749326.6000000238,7177,WL,B,4.0
6,14.361000061035156,distr,45638.999938964844,Wed Jul 30 2025 14:11:47 GMT-0500 (Central Daylight Time),752658.5,B,lipenter,O,enter,2170,1,3331.899999976158,749326.6000000238,7177,WL,B,4.0
6,15.611999988555908,distr,44388.00001144409,Wed Jul 30 2025 14:11:47 GMT-0500 (Central Daylight Time),753909.5,B,a,O,a,1245,1,1250.6999999284744,752658.8000000715,7177,WL,B,5.0
6,15.82800006866455,distr,44171.99993133545,Wed Jul 30 2025 14:11:47 GMT-0500 (Central Daylight Time),754125.8000000715,B,ar,O,r,194,1,1467.0,752658.8000000715,7177,WL,B,5.0
6,16.028000116348267,distr,43971.99988365173,Wed Jul 30 2025 14:11:47 GMT-0500 (Central Daylight Time),754325.8000000715,B,arm,O,m,169,1,1667.0,752658.8000000715,7177,WL,B,5.0
6,16.34500002861023,distr,43654.99997138977,Wed Jul 30 2025 14:11:47 GMT-0500 (Central Daylight Time),754642.3000000715,B,army,O,y,281,1,1983.5,752658.8000000715,7177,WL,B,5.0
6,21.358999967575073,distr,38641.00003242493,Wed Jul 30 2025 14:11:47 GMT-0500 (Central Daylight Time),759656.2000000477,B,armyenter,O,enter,4979,1,6997.399999976158,752658.8000000715,7177,WL,B,5.0
6,32.52300000190735,distr,27476.99999809265,Wed Jul 30 2025 14:11:47 GMT-0500 (Central Daylight Time),770820.4000000954,B,r,O,r,11151,1,11163.800000071526,759656.6000000238,7177,WL,B,6.0
6,32.723000049591064,distr,27276.999950408936,Wed Jul 30 2025 14:11:47 GMT-0500 (Central Daylight Time),771020.4000000954,B,ro,O,o,162,1,11363.800000071526,759656.6000000238,7177,WL,B,6.0
6,32.956000089645386,distr,27043.999910354614,Wed Jul 30 2025 14:11:47 GMT-0500 (Central Daylight Time),771253.7000000477,B,roc,O,c,210,1,11597.100000023842,759656.6000000238,7177,WL,B,6.0
6,33.17199993133545,distr,26828.00006866455,Wed Jul 30 2025 14:11:47 GMT-0500 (Central Daylight Time),771469.8000000715,B,rock,O,k,196,1,11813.200000047684,759656.6000000238,7177,WL,B,6.0
6,34.3050000667572,distr,25694.999933242798,Wed Jul 30 2025 14:11:47 GMT-0500 (Central Daylight Time),772602.1000000238,B,rockenter,O,enter,1095,1,12945.5,759656.6000000238,7177,WL,B,6.0
6,35.9210000038147,distr,24078.999996185303,Wed Jul 30 2025 14:11:47 GMT-0500 (Central Daylight Time),774218.1000000238,B,v,O,v,1603,1,1615.6999999284744,772602.4000000954,7177,WL,B,7.0
6,36.020999908447266,distr,23979.000091552734,Wed Jul 30 2025 14:11:47 GMT-0500 (Central Daylight Time),774318.2000000477,B,vi,O,i,82,1,1715.7999999523163,772602.4000000954,7177,WL,B,7.0
6,36.13800001144409,distr,23861.99998855591,Wed Jul 30 2025 14:11:47 GMT-0500 (Central Daylight Time),774435.6000000238,B,vil,O,l,95,1,1833.1999999284744,772602.4000000954,7177,WL,B,7.0
6,36.32100009918213,distr,23678.99990081787,Wed Jul 30 2025 14:11:47 GMT-0500 (Central Daylight Time),774618.8000000715,B,vill,O,l,149,1,2016.3999999761581,772602.4000000954,7177,WL,B,7.0
6,36.437999963760376,distr,23562.000036239624,Wed Jul 30 2025 14:11:47 GMT-0500 (Central Daylight Time),774735.8000000715,B,villa,O,a,91,1,2133.399999976158,772602.4000000954,7177,WL,B,7.0
6,36.65499997138977,distr,23345.00002861023,Wed Jul 30 2025 14:11:47 GMT-0500 (Central Daylight Time),774952.2000000477,B,villag,O,g,183,1,2349.7999999523163,772602.4000000954,7177,WL,B,7.0
6,36.92199993133545,distr,23078.00006866455,Wed Jul 30 2025 14:11:47 GMT-0500 (Central Daylight Time),775219.2000000477,B,village,O,e,230,1,2616.7999999523163,772602.4000000954,7177,WL,B,7.0
6,39.854000091552734,distr,20145.999908447266,Wed Jul 30 2025 14:11:47 GMT-0500 (Central Daylight Time),778150.2000000477,B,villageenter,O,enter,2905,1,5547.799999952316,772602.4000000954,7177,WL,B,7.0
6,40.37100005149841,distr,19628.999948501587,Wed Jul 30 2025 14:11:47 GMT-0500 (Central Daylight Time),778667.8000000715,B,d,O,d,497,1,517.3000000715256,778150.5,7177,WL,B,8.0
6,40.53800010681152,distr,19461.999893188477,Wed Jul 30 2025 14:11:47 GMT-0500 (Central Daylight Time),778834.4000000954,B,dr,O,r,131,1,683.9000000953674,778150.5,7177,WL,B,8.0
6,40.73799991607666,distr,19262.00008392334,Wed Jul 30 2025 14:11:47 GMT-0500 (Central Daylight Time),779034.2000000477,B,dre,O,e,164,1,883.7000000476837,778150.5,7177,WL,B,8.0
6,40.9210000038147,distr,19078.999996185303,Wed Jul 30 2025 14:11:47 GMT-0500 (Central Daylight Time),779217.3000000715,B,dres,O,s,156,1,1066.8000000715256,778150.5,7177,WL,B,8.0
6,41.22099995613098,distr,18779.00004386902,Wed Jul 30 2025 14:11:47 GMT-0500 (Central Daylight Time),779517.3000000715,B,dress,O,s,261,1,1366.8000000715256,778150.5,7177,WL,B,8.0
6,41.70300006866455,distr,18296.99993133545,Wed Jul 30 2025 14:11:47 GMT-0500 (Central Daylight Time),779999.7000000477,B,dressenter,O,enter,445,1,1849.2000000476837,778150.5,7177,WL,B,8.0
6,42.1710000038147,distr,17828.999996185303,Wed Jul 30 2025 14:11:47 GMT-0500 (Central Daylight Time),780467.0,B,b,O,b,448,1,467.0,780000.0,7177,WL,B,9.0
6,42.37100005149841,distr,17628.999948501587,Wed Jul 30 2025 14:11:47 GMT-0500 (Central Daylight Time),780667.2000000477,B,ba,O,a,171,1,667.2000000476837,780000.0,7177,WL,B,9.0
6,42.62000012397766,distr,17379.99987602234,Wed Jul 30 2025 14:11:47 GMT-0500 (Central Daylight Time),780916.8000000715,B,bar,O,r,212,1,916.8000000715256,780000.0,7177,WL,B,9.0
6,43.22099995613098,distr,16779.00004386902,Wed Jul 30 2025 14:11:47 GMT-0500 (Central Daylight Time),781517.0,B,barenter,O,enter,560,1,1517.0,780000.0,7177,WL,B,9.0
6,43.5699999332428,distr,16430.000066757202,Wed Jul 30 2025 14:11:47 GMT-0500 (Central Daylight Time),781866.7000000477,B,s,O,s,339,1,349.5,781517.2000000477,7177,WL,B,10.0
6,43.70300006866455,distr,16296.99993133545,Wed Jul 30 2025 14:11:47 GMT-0500 (Central Daylight Time),781999.9000000954,B,st,O,t,99,1,482.7000000476837,781517.2000000477,7177,WL,B,10.0
6,43.837000131607056,distr,16162.999868392944,Wed Jul 30 2025 14:11:47 GMT-0500 (Central Daylight Time),782133.3000000715,B,ste,O,e,102,1,616.1000000238419,781517.2000000477,7177,WL,B,10.0
6,43.95300006866455,distr,16046.99993133545,Wed Jul 30 2025 14:11:47 GMT-0500 (Central Daylight Time),782249.8000000715,B,stea,O,a,80,1,732.6000000238419,781517.2000000477,7177,WL,B,10.0
6,44.28699994087219,distr,15713.000059127808,Wed Jul 30 2025 14:11:47 GMT-0500 (Central Daylight Time),782583.3000000715,B,steam,O,m,300,1,1066.1000000238419,781517.2000000477,7177,WL,B,10.0
6,47.068000078201294,distr,12931.999921798706,Wed Jul 30 2025 14:11:47 GMT-0500 (Central Daylight Time),785364.5,B,steamenter,O,enter,2755,1,3847.2999999523163,781517.2000000477,7177,WL,B,10.0
6,60.015000104904175,distr,-15.000104904174805,Wed Jul 30 2025 14:11:47 GMT-0500 (Central Daylight Time),798311.7000000477,B,None,O,None,12941,1,12947.0,785364.7000000477,7177,WL,B,11.0
7,11.29699993133545,immed,48703.00006866455,Wed Jul 30 2025 14:11:47 GMT-0500 (Central Daylight Time),810940.4000000954,A,s,O,s,11283,1,11296.800000071526,799643.6000000238,7177,WL,B,1.0
7,11.52999997138977,immed,48470.00002861023,Wed Jul 30 2025 14:11:47 GMT-0500 (Central Daylight Time),811173.8000000715,A,st,O,t,203,1,11530.200000047684,799643.6000000238,7177,WL,B,1.0
7,11.829999923706055,immed,48170.000076293945,Wed Jul 30 2025 14:11:47 GMT-0500 (Central Daylight Time),811473.5,A,str,O,r,264,1,11829.899999976158,799643.6000000238,7177,WL,B,1.0
7,12.062999963760376,immed,47937.000036239624,Wed Jul 30 2025 14:11:47 GMT-0500 (Central Daylight Time),811706.9000000954,A,stre,O,e,205,1,12063.300000071526,799643.6000000238,7177,WL,B,1.0
7,12.29699993133545,immed,47703.00006866455,Wed Jul 30 2025 14:11:47 GMT-0500 (Central Daylight Time),811940.1000000238,A,stree,O,e,204,1,12296.5,799643.6000000238,7177,WL,B,1.0
7,12.579999923706055,immed,47420.000076293945,Wed Jul 30 2025 14:11:47 GMT-0500 (Central Daylight Time),812223.4000000954,A,street,O,t,249,1,12579.800000071526,799643.6000000238,7177,WL,B,1.0
7,13.394999980926514,immed,46605.000019073486,Wed Jul 30 2025 14:11:47 GMT-0500 (Central Daylight Time),813038.8000000715,A,streetenter,O,enter,780,1,13395.200000047684,799643.6000000238,7177,WL,B,1.0
7,14.296000003814697,immed,45703.9999961853,Wed Jul 30 2025 14:11:47 GMT-0500 (Central Daylight Time),813939.4000000954,A,g,O,g,889,1,900.3000000715256,813039.1000000238,7177,WL,B,2.0
7,14.52899980545044,immed,45471.00019454956,Wed Jul 30 2025 14:11:47 GMT-0500 (Central Daylight Time),814172.6000000238,A,gr,O,r,196,1,1133.5,813039.1000000238,7177,WL,B,2.0
7,14.711999893188477,immed,45288.00010681152,Wed Jul 30 2025 14:11:47 GMT-0500 (Central Daylight Time),814356.0,A,gra,O,a,154,1,1316.8999999761581,813039.1000000238,7177,WL,B,2.0
7,15.046000003814697,immed,44953.9999961853,Wed Jul 30 2025 14:11:47 GMT-0500 (Central Daylight Time),814689.2000000477,A,gras,O,s,299,1,1650.1000000238419,813039.1000000238,7177,WL,B,2.0
7,15.296000003814697,immed,44703.9999961853,Wed Jul 30 2025 14:11:47 GMT-0500 (Central Daylight Time),814939.3000000715,A,grass,O,s,222,1,1900.2000000476837,813039.1000000238,7177,WL,B,2.0
7,17.560999870300293,immed,42439.00012969971,Wed Jul 30 2025 14:11:47 GMT-0500 (Central Daylight Time),817203.9000000954,A,grassenter,O,enter,2242,1,4164.800000071526,813039.1000000238,7177,WL,B,2.0
7,18.3439998626709,immed,41656.0001373291,Wed Jul 30 2025 14:11:47 GMT-0500 (Central Daylight Time),817987.9000000954,A,d,O,d,764,1,783.7000000476837,817204.2000000477,7177,WL,B,3.0
7,18.610999822616577,immed,41389.00017738342,Wed Jul 30 2025 14:11:47 GMT-0500 (Central Daylight Time),818254.5,A,do,O,o,241,1,1050.2999999523163,817204.2000000477,7177,WL,B,3.0
7,18.82799983024597,immed,41172.00016975403,Wed Jul 30 2025 14:11:47 GMT-0500 (Central Daylight Time),818471.3000000715,A,doo,O,o,191,1,1267.1000000238419,817204.2000000477,7177,WL,B,3.0
7,19.76099991798401,immed,40239.00008201599,Wed Jul 30 2025 14:11:47 GMT-0500 (Central Daylight Time),819404.3000000715,A,door,O,r,903,1,2200.100000023842,817204.2000000477,7177,WL,B,3.0
7,21.442999839782715,immed,38557.000160217285,Wed Jul 30 2025 14:11:47 GMT-0500 (Central Daylight Time),821086.2000000477,A,doorenter,O,enter,1649,1,3882.0,817204.2000000477,7177,WL,B,3.0
7,22.209999799728394,immed,37790.00020027161,Wed Jul 30 2025 14:11:47 GMT-0500 (Central Daylight Time),821853.5,A,a,O,a,753,1,767.0,821086.5,7177,WL,B,4.0
7,22.40999984741211,immed,37590.00015258789,Wed Jul 30 2025 14:11:47 GMT-0500 (Central Daylight Time),822053.6000000238,A,ar,O,r,176,1,967.1000000238419,821086.5,7177,WL,B,4.0
7,22.80999994277954,immed,37190.00005722046,Wed Jul 30 2025 14:11:47 GMT-0500 (Central Daylight Time),822453.6000000238,A,arm,O,m,378,1,1367.1000000238419,821086.5,7177,WL,B,4.0
7,24.807999849319458,immed,35192.00015068054,Wed Jul 30 2025 14:11:47 GMT-0500 (Central Daylight Time),824451.7000000477,A,armenter,O,enter,1967,1,3365.2000000476837,821086.5,7177,WL,B,4.0
7,25.674999952316284,immed,34325.000047683716,Wed Jul 30 2025 14:11:47 GMT-0500 (Central Daylight Time),825318.9000000954,A,s,O,s,860,1,866.9000000953674,824452.0,7177,WL,B,5.0
7,25.842000007629395,immed,34157.999992370605,Wed Jul 30 2025 14:11:47 GMT-0500 (Central Daylight Time),825485.7000000477,A,st,O,t,136,1,1033.7000000476837,824452.0,7177,WL,B,5.0
7,26.092000007629395,immed,33907.999992370605,Wed Jul 30 2025 14:11:47 GMT-0500 (Central Daylight Time),825735.7000000477,A,sta,O,a,215,1,1283.7000000476837,824452.0,7177,WL,B,5.0
7,26.691999912261963,immed,33308.00008773804,Wed Jul 30 2025 14:11:47 GMT-0500 (Central Daylight Time),826335.3000000715,A,star,O,r,575,1,1883.3000000715256,824452.0,7177,WL,B,5.0
7,28.93999981880188,immed,31060.00018119812,Wed Jul 30 2025 14:11:47 GMT-0500 (Central Daylight Time),828583.7000000477,A,starenter,O,enter,2222,1,4131.700000047684,824452.0,7177,WL,B,5.0
7,31.83999991416931,immed,28160.00008583069,Wed Jul 30 2025 14:11:47 GMT-0500 (Central Daylight Time),831483.7000000477,A,w,O,w,2887,1,2899.7999999523163,828583.9000000954,7177,WL,B,6.0
7,31.957000017166138,immed,28042.999982833862,Wed Jul 30 2025 14:11:47 GMT-0500 (Central Daylight Time),831600.3000000715,A,wi,O,i,81,1,3016.399999976158,828583.9000000954,7177,WL,B,6.0
7,32.18999981880188,immed,27810.00018119812,Wed Jul 30 2025 14:11:47 GMT-0500 (Central Daylight Time),831833.6000000238,A,wif,O,f,198,1,3249.6999999284744,828583.9000000954,7177,WL,B,6.0
7,32.43999981880188,immed,27560.00018119812,Wed Jul 30 2025 14:11:47 GMT-0500 (Central Daylight Time),832083.3000000715,A,wife,O,e,221,1,3499.399999976158,828583.9000000954,7177,WL,B,6.0
7,33.605000019073486,immed,26394.999980926514,Wed Jul 30 2025 14:11:47 GMT-0500 (Central Daylight Time),833248.9000000954,A,wifeenter,O,enter,1138,1,4665.0,828583.9000000954,7177,WL,B,6.0
7,34.67199993133545,immed,25328.00006866455,Wed Jul 30 2025 14:11:47 GMT-0500 (Central Daylight Time),834315.2000000477,A,w,O,w,1053,1,1066.1000000238419,833249.1000000238,7177,WL,B,7.0
7,34.87299990653992,immed,25127.000093460083,Wed Jul 30 2025 14:11:47 GMT-0500 (Central Daylight Time),834516.2000000477,A,wi,O,i,187,1,1267.1000000238419,833249.1000000238,7177,WL,B,7.0
7,35.055999994277954,immed,24944.000005722046,Wed Jul 30 2025 14:11:47 GMT-0500 (Central Daylight Time),834699.5,A,win,O,n,145,1,1450.3999999761581,833249.1000000238,7177,WL,B,7.0
7,35.305999994277954,immed,24694.000005722046,Wed Jul 30 2025 14:11:47 GMT-0500 (Central Daylight Time),834949.4000000954,A,wind,O,d,211,1,1700.3000000715256,833249.1000000238,7177,WL,B,7.0
7,35.72199988365173,immed,24278.000116348267,Wed Jul 30 2025 14:11:47 GMT-0500 (Central Daylight Time),835365.8000000715,A,windo,O,o,385,1,2116.7000000476837,833249.1000000238,7177,WL,B,7.0
7,36.105000019073486,immed,23894.999980926514,Wed Jul 30 2025 14:11:47 GMT-0500 (Central Daylight Time),835749.0,A,window,O,w,343,1,2499.899999976158,833249.1000000238,7177,WL,B,7.0
7,37.2039999961853,immed,22796.000003814697,Wed Jul 30 2025 14:11:47 GMT-0500 (Central Daylight Time),836847.8000000715,A,windowenter,O,enter,1063,1,3598.7000000476837,833249.1000000238,7177,WL,B,7.0
7,37.871999979019165,immed,22128.000020980835,Wed Jul 30 2025 14:11:47 GMT-0500 (Central Daylight Time),837515.0,A,p,O,p,647,1,666.8999999761581,836848.1000000238,7177,WL,B,8.0
7,38.08899998664856,immed,21911.00001335144,Wed Jul 30 2025 14:11:47 GMT-0500 (Central Daylight Time),837731.7000000477,A,pu,O,u,186,1,883.6000000238419,836848.1000000238,7177,WL,B,8.0
7,38.52199983596802,immed,21478.000164031982,Wed Jul 30 2025 14:11:47 GMT-0500 (Central Daylight Time),838164.8000000715,A,pup,O,p,402,1,1316.7000000476837,836848.1000000238,7177,WL,B,8.0
7,38.83899998664856,immed,21161.00001335144,Wed Jul 30 2025 14:11:47 GMT-0500 (Central Daylight Time),838481.3000000715,A,pupi,O,i,283,1,1633.2000000476837,836848.1000000238,7177,WL,B,8.0
7,38.98899984359741,immed,21011.000156402588,Wed Jul 30 2025 14:11:47 GMT-0500 (Central Daylight Time),838631.1000000238,A,pupil,O,l,125,1,1783.0,836848.1000000238,7177,WL,B,8.0
7,39.32099986076355,immed,20679.00013923645,Wed Jul 30 2025 14:11:47 GMT-0500 (Central Daylight Time),838963.7000000477,A,pupilenter,O,enter,302,1,2115.600000023842,836848.1000000238,7177,WL,B,8.0
7,40.00499987602234,immed,19995.00012397766,Wed Jul 30 2025 14:11:47 GMT-0500 (Central Daylight Time),839647.9000000954,A,c,O,c,668,1,684.0,838963.9000000954,7177,WL,B,9.0
7,40.138999938964844,immed,19861.000061035156,Wed Jul 30 2025 14:11:47 GMT-0500 (Central Daylight Time),839781.1000000238,A,ci,O,i,101,1,817.1999999284744,838963.9000000954,7177,WL,B,9.0
7,40.47199988365173,immed,19528.000116348267,Wed Jul 30 2025 14:11:47 GMT-0500 (Central Daylight Time),840114.3000000715,A,cit,O,t,297,1,1150.3999999761581,838963.9000000954,7177,WL,B,9.0
7,40.621999979019165,immed,19378.000020980835,Wed Jul 30 2025 14:11:47 GMT-0500 (Central Daylight Time),840264.3000000715,A,city,O,y,116,1,1300.3999999761581,838963.9000000954,7177,WL,B,9.0
7,43.90299987792969,immed,16097.000122070312,Wed Jul 30 2025 14:11:47 GMT-0500 (Central Daylight Time),843545.5,A,cityenter,O,enter,3246,1,4581.599999904633,838963.9000000954,7177,WL,B,9.0
7,47.002999782562256,immed,12997.000217437744,Wed Jul 30 2025 14:11:47 GMT-0500 (Central Daylight Time),846645.3000000715,A,c,O,c,3085,1,3099.600000023842,843545.7000000477,7177,WL,B,10.0
7,47.21999979019165,immed,12780.00020980835,Wed Jul 30 2025 14:11:47 GMT-0500 (Central Daylight Time),846862.2000000477,A,ca,O,a,185,1,3316.5,843545.7000000477,7177,WL,B,10.0
7,47.43599987030029,immed,12564.000129699707,Wed Jul 30 2025 14:11:47 GMT-0500 (Central Daylight Time),847078.7000000477,A,cab,O,b,184,1,3533.0,843545.7000000477,7177,WL,B,10.0
7,47.585999965667725,immed,12414.000034332275,Wed Jul 30 2025 14:11:47 GMT-0500 (Central Daylight Time),847228.5,A,cabi,O,i,122,1,3682.7999999523163,843545.7000000477,7177,WL,B,10.0
7,47.78600001335144,immed,12213.99998664856,Wed Jul 30 2025 14:11:47 GMT-0500 (Central Daylight Time),847428.7000000477,A,cabin,O,n,173,1,3883.0,843545.7000000477,7177,WL,B,10.0
7,48.38499999046326,immed,11615.000009536743,Wed Jul 30 2025 14:11:47 GMT-0500 (Central Daylight Time),848027.3000000715,A,cabinenter,O,enter,560,1,4481.600000023842,843545.7000000477,7177,WL,B,10.0
7,49.819000005722046,immed,10180.999994277954,Wed Jul 30 2025 14:11:47 GMT-0500 (Central Daylight Time),849461.3000000715,A,l,O,l,1412,1,1433.7000000476837,848027.6000000238,7177,WL,B,11.0
7,50.002999782562256,immed,9997.000217437744,Wed Jul 30 2025 14:11:47 GMT-0500 (Central Daylight Time),849645.1000000238,A,la,O,a,145,1,1617.5,848027.6000000238,7177,WL,B,11.0
7,50.13499999046326,immed,9865.000009536743,Wed Jul 30 2025 14:11:47 GMT-0500 (Central Daylight Time),849778.1000000238,A,lak,O,k,105,1,1750.5,848027.6000000238,7177,WL,B,11.0
7,50.60199999809265,immed,9398.000001907349,Wed Jul 30 2025 14:11:47 GMT-0500 (Central Daylight Time),850244.2000000477,A,lake,O,e,430,1,2216.600000023842,848027.6000000238,7177,WL,B,11.0
7,54.632999897003174,immed,5367.000102996826,Wed Jul 30 2025 14:11:47 GMT-0500 (Central Daylight Time),854275.4000000954,A,lakeenter,O,enter,3994,1,6247.800000071526,848027.6000000238,7177,WL,B,11.0
7,56.382999897003174,immed,3617.000102996826,Wed Jul 30 2025 14:11:47 GMT-0500 (Central Daylight Time),856025.8000000715,A,p,O,p,1732,1,1750.3000000715256,854275.5,7177,WL,B,12.0
7,56.58299994468689,immed,3417.0000553131104,Wed Jul 30 2025 14:11:47 GMT-0500 (Central Daylight Time),856225.7000000477,A,pi,O,i,165,1,1950.2000000476837,854275.5,7177,WL,B,12.0
7,56.76599979400635,immed,3234.0002059936523,Wed Jul 30 2025 14:11:47 GMT-0500 (Central Daylight Time),856408.9000000954,A,pip,O,p,160,1,2133.4000000953674,854275.5,7177,WL,B,12.0
7,57.48299980163574,immed,2517.000198364258,Wed Jul 30 2025 14:11:47 GMT-0500 (Central Daylight Time),857125.4000000954,A,pipe,O,e,681,1,2849.9000000953674,854275.5,7177,WL,B,12.0
7,58.39800000190735,immed,1601.9999980926514,Wed Jul 30 2025 14:11:47 GMT-0500 (Central Daylight Time),858040.7000000477,A,pipeenter,O,enter,889,1,3765.2000000476837,854275.5,7177,WL,B,12.0
7,58.73199987411499,immed,1268.0001258850098,Wed Jul 30 2025 14:11:47 GMT-0500 (Central Daylight Time),858374.8000000715,A,s,O,s,326,1,333.7000000476837,858041.1000000238,7177,WL,B,13.0
7,58.83200001716614,immed,1167.9999828338623,Wed Jul 30 2025 14:11:47 GMT-0500 (Central Daylight Time),858475.0,A,sk,O,k,71,1,433.89999997615814,858041.1000000238,7177,WL,B,13.0
7,59.098999977111816,immed,901.0000228881836,Wed Jul 30 2025 14:11:47 GMT-0500 (Central Daylight Time),858741.4000000954,A,ski,O,i,237,1,700.3000000715256,858041.1000000238,7177,WL,B,13.0
7,59.264999866485596,immed,735.0001335144043,Wed Jul 30 2025 14:11:47 GMT-0500 (Central Daylight Time),858907.9000000954,A,skin,O,n,135,1,866.8000000715256,858041.1000000238,7177,WL,B,13.0
7,59.66499996185303,immed,335.00003814697266,Wed Jul 30 2025 14:11:47 GMT-0500 (Central Daylight Time),859307.0,A,skinenter,O,enter,369,1,1265.8999999761581,858041.1000000238,7177,WL,B,13.0
7,60.014999866485596,immed,-14.999866485595703,Wed Jul 30 2025 14:11:47 GMT-0500 (Central Daylight Time),859657.9000000954,A,None,O,None,345,1,350.60000002384186,859307.3000000715,7177,WL,B,14.0
