acc_sum,block,block_c,change,condition,correct,correct_response,datetime,endtime,face,project,response,response_time,row_sel,session_number,start_end,starttime,subject_id,task,task_vers,trial
0,prac,1,,1-Back,,,Wed Aug 06 2025 16:57:52 GMT-0500 (Central Daylight Time),,124_o_f_d_a.png,O,space,8620,1,1,,,7201,VNB,A,0
1,prac,1,0.0,1-Back,1,m,Wed Aug 06 2025 16:57:52 GMT-0500 (Central Daylight Time),128831.89999985695,071_y_f_n_a.png,O,m,841,2,1,1620.5,127211.39999985695,7201,VNB,A,1
2,prac,1,0.0,1-Back,1,m,Wed Aug 06 2025 16:57:52 GMT-0500 (Central Daylight Time),131296.79999995232,165_m_m_h_a.png,O,m,1656,3,1,2454.2999999523163,128842.5,7201,VNB,A,2
3,prac,1,0.0,1-Back,1,m,Wed Aug 06 2025 16:57:52 GMT-0500 (Central Daylight Time),133495.19999980927,109_y_m_d_a.png,O,m,1381,4,1,2186.899999856949,131308.29999995232,7201,VNB,A,3
4,prac,1,0.0,1-Back,1,m,Wed Aug 06 2025 16:57:52 GMT-0500 (Central Daylight Time),135994.79999995232,124_o_f_n_a.png,O,m,1676,5,1,2489.4000000953674,133505.39999985695,7201,VNB,A,4
4,prac,1,1.0,1-Back,0,z,Wed Aug 06 2025 16:57:52 GMT-0500 (Central Daylight Time),137875.5,109_y_m_n_a.png,O,m,1075,6,1,1869.6000001430511,136005.89999985695,7201,VNB,A,5
5,prac,1,0.0,1-Back,1,m,Wed Aug 06 2025 16:57:52 GMT-0500 (Central Daylight Time),140144.89999985695,039_o_m_h_a.png,O,m,1469,7,1,2263.0,137881.89999985695,7201,VNB,A,6
6,prac,1,0.0,1-Back,1,m,Wed Aug 06 2025 16:57:52 GMT-0500 (Central Daylight Time),142443.19999980927,139_m_f_d_a.png,O,m,1497,8,1,2285.7999999523163,140157.39999985695,7201,VNB,A,7
6,prac,1,1.0,1-Back,0,z,Wed Aug 06 2025 16:57:52 GMT-0500 (Central Daylight Time),144476.19999980927,071_y_f_d_a.png,O,m,1208,9,1,2020.5999999046326,142455.59999990463,7201,VNB,A,8
7,prac,1,0.0,1-Back,1,m,Wed Aug 06 2025 16:57:52 GMT-0500 (Central Daylight Time),147009.19999980927,165_m_m_n_a.png,O,m,1727,10,1,2521.0,144488.19999980927,7201,VNB,A,9
8,prac,1,0.0,1-Back,1,m,Wed Aug 06 2025 16:57:52 GMT-0500 (Central Daylight Time),149641.19999980927,124_o_f_h_a.png,O,m,1801,11,1,2620.7999999523163,147020.39999985695,7201,VNB,A,10
9,prac,1,0.0,1-Back,1,m,Wed Aug 06 2025 16:57:52 GMT-0500 (Central Daylight Time),151555.69999980927,109_y_m_d_a.png,O,m,1126,12,1,1904.0999999046326,149651.59999990463,7201,VNB,A,11
0,test,1,0.0,1-Back,,,Wed Aug 06 2025 16:57:52 GMT-0500 (Central Daylight Time),151555.69999980927,071_y_f_d_a.png,O,space,10156,1,1,1904.0999999046326,149651.59999990463,7201,VNB,A,0
1,test,1,0.0,1-Back,1,m,Wed Aug 06 2025 16:57:52 GMT-0500 (Central Daylight Time),174648.59999990463,139_m_f_n_a.png,O,m,1327,2,1,2335.7000000476837,172312.89999985695,7201,VNB,A,1
2,test,1,0.0,1-Back,1,m,Wed Aug 06 2025 16:57:52 GMT-0500 (Central Daylight Time),177082.19999980927,039_o_m_h_a.png,O,m,1400,3,1,2424.199999809265,174658.0,7201,VNB,A,2
3,test,1,1.0,1-Back,1,z,Wed Aug 06 2025 16:57:52 GMT-0500 (Central Daylight Time),179014.09999990463,165_m_m_h_a.png,O,z,905,4,1,1922.0,177092.09999990463,7201,VNB,A,3
4,test,1,0.0,1-Back,1,m,Wed Aug 06 2025 16:57:52 GMT-0500 (Central Daylight Time),181629.09999990463,124_o_f_n_a.png,O,m,1588,5,1,2603.9000000953674,179025.19999980927,7201,VNB,A,4
5,test,1,0.0,1-Back,1,m,Wed Aug 06 2025 16:57:52 GMT-0500 (Central Daylight Time),184112.19999980927,109_y_m_d_a.png,O,m,1462,6,1,2471.7999999523163,181640.39999985695,7201,VNB,A,5
6,test,1,1.0,1-Back,1,z,Wed Aug 06 2025 16:57:52 GMT-0500 (Central Daylight Time),186528.79999995232,139_m_f_d_a.png,O,z,1385,7,1,2407.0,184121.79999995232,7201,VNB,A,6
7,test,1,0.0,1-Back,1,m,Wed Aug 06 2025 16:57:52 GMT-0500 (Central Daylight Time),188594.39999985695,071_y_f_h_a.png,O,m,1042,8,1,2055.399999856949,186539.0,7201,VNB,A,7
8,test,1,0.0,1-Back,1,m,Wed Aug 06 2025 16:57:52 GMT-0500 (Central Daylight Time),190742.69999980927,039_o_m_n_a.png,O,m,1118,9,1,2137.7999999523163,188604.89999985695,7201,VNB,A,8
9,test,1,0.0,1-Back,1,m,Wed Aug 06 2025 16:57:52 GMT-0500 (Central Daylight Time),193009.79999995232,109_y_m_h_a.png,O,m,1243,10,1,2256.9000000953674,190752.89999985695,7201,VNB,A,9
10,test,1,0.0,1-Back,1,m,Wed Aug 06 2025 16:57:52 GMT-0500 (Central Daylight Time),195541.09999990463,039_o_m_d_a.png,O,m,1514,11,1,2522.0999999046326,193019.0,7201,VNB,A,10
11,test,1,1.0,1-Back,1,z,Wed Aug 06 2025 16:57:52 GMT-0500 (Central Daylight Time),197492.0,124_o_f_d_a.png,O,z,917,12,1,1942.0,195550.0,7201,VNB,A,11
11,test,1,0.0,1-Back,0,m,Wed Aug 06 2025 16:57:52 GMT-0500 (Central Daylight Time),200508.59999990463,165_m_m_n_a.png,O,None,2002,13,1,3006.2999999523163,197502.29999995232,7201,VNB,A,12
12,test,1,1.0,1-Back,1,z,Wed Aug 06 2025 16:57:52 GMT-0500 (Central Daylight Time),203006.09999990463,071_y_f_n_a.png,O,z,1482,14,1,2489.2000000476837,200516.89999985695,7201,VNB,A,13
13,test,1,0.0,1-Back,1,m,Wed Aug 06 2025 16:57:52 GMT-0500 (Central Daylight Time),204888.39999985695,139_m_f_h_a.png,O,m,860,15,1,1871.8999998569489,203016.5,7201,VNB,A,14
14,test,1,0.0,1-Back,1,m,Wed Aug 06 2025 16:57:52 GMT-0500 (Central Daylight Time),207039.0,165_m_m_d_a.png,O,m,1131,16,1,2140.4000000953674,204898.59999990463,7201,VNB,A,15
15,test,1,0.0,1-Back,1,m,Wed Aug 06 2025 16:57:52 GMT-0500 (Central Daylight Time),209156.39999985695,109_y_m_n_a.png,O,m,1101,17,1,2107.5,207048.89999985695,7201,VNB,A,16
16,test,1,0.0,1-Back,1,m,Wed Aug 06 2025 16:57:52 GMT-0500 (Central Daylight Time),211037.0,124_o_f_h_a.png,O,m,864,18,1,1870.1000001430511,209166.89999985695,7201,VNB,A,17
0,test,2,0.0,1-Back,,,Wed Aug 06 2025 16:57:52 GMT-0500 (Central Daylight Time),211037.0,109_y_m_n_a.png,O,space,2143,1,1,1870.1000001430511,209166.89999985695,7201,VNB,A,0
1,test,2,0.0,1-Back,1,m,Wed Aug 06 2025 16:57:52 GMT-0500 (Central Daylight Time),217717.29999995232,071_y_f_h_a.png,O,m,1485,2,1,2510.600000143051,215206.69999980927,7201,VNB,A,1
2,test,2,1.0,1-Back,1,m,Wed Aug 06 2025 16:57:52 GMT-0500 (Central Daylight Time),219452.0,039_o_m_n_a.png,O,m,716,3,1,1729.2000000476837,217722.79999995232,7201,VNB,A,2
2,test,2,0.0,1-Back,0,m,Wed Aug 06 2025 16:57:52 GMT-0500 (Central Daylight Time),221583.79999995232,139_m_f_d_a.png,O,z,1101,4,1,2121.7000000476837,219462.09999990463,7201,VNB,A,3
3,test,2,0.0,1-Back,1,z,Wed Aug 06 2025 16:57:52 GMT-0500 (Central Daylight Time),223850.29999995232,165_m_m_d_a.png,O,z,1244,5,1,2255.4000000953674,221594.89999985695,7201,VNB,A,4
4,test,2,0.0,1-Back,1,m,Wed Aug 06 2025 16:57:52 GMT-0500 (Central Daylight Time),225799.5,109_y_m_h_a.png,O,m,915,6,1,1939.3000001907349,223860.19999980927,7201,VNB,A,5
5,test,2,1.0,1-Back,1,z,Wed Aug 06 2025 16:57:52 GMT-0500 (Central Daylight Time),227748.59999990463,124_o_f_h_a.png,O,z,924,7,1,1939.0999999046326,225809.5,7201,VNB,A,6
6,test,2,0.0,1-Back,1,m,Wed Aug 06 2025 16:57:52 GMT-0500 (Central Daylight Time),229680.5,139_m_f_n_a.png,O,m,910,8,1,1921.9000000953674,227758.59999990463,7201,VNB,A,7
7,test,2,0.0,1-Back,1,m,Wed Aug 06 2025 16:57:52 GMT-0500 (Central Daylight Time),231764.29999995232,071_y_f_d_a.png,O,m,1057,9,1,2074.2000000476837,229690.09999990463,7201,VNB,A,8
7,test,2,0.0,1-Back,0,m,Wed Aug 06 2025 16:57:52 GMT-0500 (Central Daylight Time),234045.69999980927,165_m_m_n_a.png,O,z,1253,10,1,2271.5999999046326,231774.09999990463,7201,VNB,A,9
8,test,2,1.0,1-Back,1,m,Wed Aug 06 2025 16:57:52 GMT-0500 (Central Daylight Time),236112.79999995232,139_m_f_h_a.png,O,m,1035,11,1,2057.2000000476837,234055.59999990463,7201,VNB,A,10
9,test,2,0.0,1-Back,1,z,Wed Aug 06 2025 16:57:52 GMT-0500 (Central Daylight Time),238361.39999985695,039_o_m_h_a.png,O,z,1227,12,1,2238.0999999046326,236123.29999995232,7201,VNB,A,11
10,test,2,0.0,1-Back,1,m,Wed Aug 06 2025 16:57:52 GMT-0500 (Central Daylight Time),240343.09999990463,109_y_m_d_a.png,O,m,951,13,1,1971.7000000476837,238371.39999985695,7201,VNB,A,12
11,test,2,0.0,1-Back,1,m,Wed Aug 06 2025 16:57:52 GMT-0500 (Central Daylight Time),242309.79999995232,124_o_f_n_a.png,O,m,947,14,1,1956.1000001430511,240353.69999980927,7201,VNB,A,13
12,test,2,0.0,1-Back,1,z,Wed Aug 06 2025 16:57:52 GMT-0500 (Central Daylight Time),244793.29999995232,071_y_f_n_a.png,O,z,1459,15,1,2472.9000000953674,242320.39999985695,7201,VNB,A,14
13,test,2,1.0,1-Back,1,m,Wed Aug 06 2025 16:57:52 GMT-0500 (Central Daylight Time),246792.5,165_m_m_h_a.png,O,m,977,16,1,1990.3000001907349,244802.19999980927,7201,VNB,A,15
14,test,2,0.0,1-Back,1,m,Wed Aug 06 2025 16:57:52 GMT-0500 (Central Daylight Time),249109.69999980927,124_o_f_d_a.png,O,m,1298,17,1,2307.199999809265,246802.5,7201,VNB,A,16
14,test,2,1.0,1-Back,0,z,Wed Aug 06 2025 16:57:52 GMT-0500 (Central Daylight Time),251257.79999995232,039_o_m_d_a.png,O,m,1126,18,1,2137.2999999523163,249120.5,7201,VNB,A,17
0,test,3,1.0,1-Back,,,Wed Aug 06 2025 16:57:52 GMT-0500 (Central Daylight Time),251257.79999995232,124_o_f_h_a.png,O,space,2137,1,1,2137.2999999523163,249120.5,7201,VNB,A,0
1,test,3,0.0,1-Back,1,m,Wed Aug 06 2025 16:57:52 GMT-0500 (Central Daylight Time),257288.89999985695,139_m_f_d_a.png,O,m,802,2,1,1822.5,255466.39999985695,7201,VNB,A,1
2,test,3,1.0,1-Back,1,m,Wed Aug 06 2025 16:57:52 GMT-0500 (Central Daylight Time),259821.39999985695,165_m_m_n_a.png,O,m,1504,3,1,2522.2999999523163,257299.09999990463,7201,VNB,A,2
3,test,3,0.0,1-Back,1,z,Wed Aug 06 2025 16:57:52 GMT-0500 (Central Daylight Time),261670.5,124_o_f_n_a.png,O,z,829,4,1,1839.2000000476837,259831.29999995232,7201,VNB,A,3
4,test,3,1.0,1-Back,1,m,Wed Aug 06 2025 16:57:52 GMT-0500 (Central Daylight Time),263720.2999999523,039_o_m_d_a.png,O,m,1027,5,1,2043.4000000953674,261676.89999985695,7201,VNB,A,4
5,test,3,0.0,1-Back,1,m,Wed Aug 06 2025 16:57:52 GMT-0500 (Central Daylight Time),265970.69999980927,071_y_f_h_a.png,O,m,1226,6,1,2241.7999999523163,263728.89999985695,7201,VNB,A,5
5,test,3,0.0,1-Back,0,z,Wed Aug 06 2025 16:57:52 GMT-0500 (Central Daylight Time),268471.19999980927,109_y_m_h_a.png,O,m,1485,7,1,2488.699999809265,265982.5,7201,VNB,A,6
6,test,3,0.0,1-Back,1,m,Wed Aug 06 2025 16:57:52 GMT-0500 (Central Daylight Time),270268.19999980927,139_m_f_n_a.png,O,m,782,8,1,1787.6999998092651,268480.5,7201,VNB,A,7
7,test,3,0.0,1-Back,1,m,Wed Aug 06 2025 16:57:52 GMT-0500 (Central Daylight Time),272035.39999985695,071_y_f_d_a.png,O,m,733,9,1,1755.5,270279.89999985695,7201,VNB,A,8
8,test,3,1.0,1-Back,1,m,Wed Aug 06 2025 16:57:52 GMT-0500 (Central Daylight Time),274216.39999985695,039_o_m_n_a.png,O,m,1159,10,1,2170.2000000476837,272046.19999980927,7201,VNB,A,9
9,test,3,0.0,1-Back,1,m,Wed Aug 06 2025 16:57:52 GMT-0500 (Central Daylight Time),275949.69999980927,165_m_m_h_a.png,O,m,704,11,1,1724.3999998569489,274225.2999999523,7201,VNB,A,10
9,test,3,0.0,1-Back,0,z,Wed Aug 06 2025 16:57:52 GMT-0500 (Central Daylight Time),278382.2999999523,139_m_f_h_a.png,O,m,1403,12,1,2422.2000000476837,275960.09999990463,7201,VNB,A,11
10,test,3,1.0,1-Back,1,m,Wed Aug 06 2025 16:57:52 GMT-0500 (Central Daylight Time),280082.19999980927,124_o_f_d_a.png,O,m,677,13,1,1689.7999999523163,278392.39999985695,7201,VNB,A,12
11,test,3,0.0,1-Back,1,z,Wed Aug 06 2025 16:57:52 GMT-0500 (Central Daylight Time),282698.59999990463,165_m_m_d_a.png,O,z,1593,14,1,2606.0999999046326,280092.5,7201,VNB,A,13
12,test,3,0.0,1-Back,1,m,Wed Aug 06 2025 16:57:52 GMT-0500 (Central Daylight Time),284563.89999985695,109_y_m_n_a.png,O,m,841,15,1,1854.5999999046326,282709.2999999523,7201,VNB,A,14
13,test,3,1.0,1-Back,1,m,Wed Aug 06 2025 16:57:52 GMT-0500 (Central Daylight Time),286246.19999980927,039_o_m_h_a.png,O,m,654,16,1,1672.3999998569489,284573.7999999523,7201,VNB,A,15
14,test,3,0.0,1-Back,1,m,Wed Aug 06 2025 16:57:52 GMT-0500 (Central Daylight Time),288860.89999985695,109_y_m_d_a.png,O,m,1587,17,1,2604.2999999523163,286256.59999990463,7201,VNB,A,16
15,test,3,1.0,1-Back,1,m,Wed Aug 06 2025 16:57:52 GMT-0500 (Central Daylight Time),290613.89999985695,071_y_f_n_a.png,O,m,732,18,1,1742.2999999523163,288871.59999990463,7201,VNB,A,17
0,test,4,1.0,1-Back,,,Wed Aug 06 2025 16:57:52 GMT-0500 (Central Daylight Time),290613.89999985695,165_m_m_d_a.png,O,space,2080,1,1,1742.2999999523163,288871.59999990463,7201,VNB,A,0
1,test,4,0.0,1-Back,1,z,Wed Aug 06 2025 16:57:52 GMT-0500 (Central Daylight Time),297292.5,039_o_m_d_a.png,O,z,1532,2,1,2555.7000000476837,294736.7999999523,7201,VNB,A,1
2,test,4,0.0,1-Back,1,m,Wed Aug 06 2025 16:57:52 GMT-0500 (Central Daylight Time),299441.7999999523,109_y_m_h_a.png,O,m,1117,3,1,2138.9000000953674,297302.89999985695,7201,VNB,A,2
3,test,4,0.0,1-Back,1,m,Wed Aug 06 2025 16:57:52 GMT-0500 (Central Daylight Time),301292.39999985695,139_m_f_n_a.png,O,m,823,4,1,1841.2999999523163,299451.09999990463,7201,VNB,A,3
4,test,4,1.0,1-Back,1,m,Wed Aug 06 2025 16:57:52 GMT-0500 (Central Daylight Time),303291.69999980927,124_o_f_h_a.png,O,m,975,5,1,1990.0999999046326,301301.59999990463,7201,VNB,A,4
5,test,4,0.0,1-Back,1,m,Wed Aug 06 2025 16:57:52 GMT-0500 (Central Daylight Time),304973.69999980927,165_m_m_n_a.png,O,m,655,6,1,1671.2999999523163,303302.39999985695,7201,VNB,A,5
6,test,4,0.0,1-Back,1,m,Wed Aug 06 2025 16:57:52 GMT-0500 (Central Daylight Time),307492.39999985695,109_y_m_d_a.png,O,m,1485,7,1,2508.7000000476837,304983.69999980927,7201,VNB,A,6
7,test,4,1.0,1-Back,1,z,Wed Aug 06 2025 16:57:52 GMT-0500 (Central Daylight Time),309255.5,071_y_f_d_a.png,O,z,737,8,1,1755.7000000476837,307499.7999999523,7201,VNB,A,7
8,test,4,0.0,1-Back,1,m,Wed Aug 06 2025 16:57:52 GMT-0500 (Central Daylight Time),311337.19999980927,139_m_f_h_a.png,O,m,1058,9,1,2070.5,309266.69999980927,7201,VNB,A,8
9,test,4,0.0,1-Back,1,z,Wed Aug 06 2025 16:57:52 GMT-0500 (Central Daylight Time),313337.7999999523,039_o_m_h_a.png,O,z,968,10,1,1989.9000000953674,311347.89999985695,7201,VNB,A,9
10,test,4,1.0,1-Back,1,m,Wed Aug 06 2025 16:57:52 GMT-0500 (Central Daylight Time),315669.5,124_o_f_n_a.png,O,m,1304,11,1,2322.0,313347.5,7201,VNB,A,10
11,test,4,0.0,1-Back,1,m,Wed Aug 06 2025 16:57:52 GMT-0500 (Central Daylight Time),317820.89999985695,139_m_f_d_a.png,O,m,1133,12,1,2141.0,315679.89999985695,7201,VNB,A,11
12,test,4,0.0,1-Back,1,m,Wed Aug 06 2025 16:57:52 GMT-0500 (Central Daylight Time),319735.19999980927,071_y_f_n_a.png,O,m,896,13,1,1903.2999999523163,317831.89999985695,7201,VNB,A,12
13,test,4,0.0,1-Back,1,m,Wed Aug 06 2025 16:57:52 GMT-0500 (Central Daylight Time),321585.19999980927,124_o_f_d_a.png,O,m,826,14,1,1839.8999998569489,319745.2999999523,7201,VNB,A,13
14,test,4,0.0,1-Back,1,m,Wed Aug 06 2025 16:57:52 GMT-0500 (Central Daylight Time),323468.19999980927,071_y_f_h_a.png,O,m,856,15,1,1873.6999998092651,321594.5,7201,VNB,A,14
15,test,4,1.0,1-Back,1,z,Wed Aug 06 2025 16:57:52 GMT-0500 (Central Daylight Time),325301.2999999523,165_m_m_h_a.png,O,z,816,16,1,1822.6000001430511,323478.69999980927,7201,VNB,A,15
16,test,4,0.0,1-Back,1,m,Wed Aug 06 2025 16:57:52 GMT-0500 (Central Daylight Time),327133.7999999523,039_o_m_n_a.png,O,m,816,17,1,1823.2000000476837,325310.59999990463,7201,VNB,A,16
16,test,4,1.0,1-Back,0,z,Wed Aug 06 2025 16:57:52 GMT-0500 (Central Daylight Time),330167.0,109_y_m_n_a.png,O,None,2017,18,1,3025.800000190735,327141.19999980927,7201,VNB,A,17
0,test,5,1.0,1-Back,,,Wed Aug 06 2025 16:57:52 GMT-0500 (Central Daylight Time),330167.0,039_o_m_n_a.png,O,space,2819,1,1,3025.800000190735,327141.19999980927,7201,VNB,A,0
1,test,5,1.0,1-Back,1,m,Wed Aug 06 2025 16:57:52 GMT-0500 (Central Daylight Time),337046.69999980927,124_o_f_h_a.png,O,m,1003,2,1,2021.0,335025.69999980927,7201,VNB,A,1
2,test,5,0.0,1-Back,1,m,Wed Aug 06 2025 16:57:52 GMT-0500 (Central Daylight Time),339662.39999985695,109_y_m_d_a.png,O,m,1587,3,1,2605.7999999523163,337056.59999990463,7201,VNB,A,2
3,test,5,0.0,1-Back,1,z,Wed Aug 06 2025 16:57:52 GMT-0500 (Central Daylight Time),341495.19999980927,039_o_m_d_a.png,O,z,801,4,1,1822.5,339672.69999980927,7201,VNB,A,3
4,test,5,0.0,1-Back,1,m,Wed Aug 06 2025 16:57:52 GMT-0500 (Central Daylight Time),343678.2999999523,139_m_f_h_a.png,O,m,1156,5,1,2173.100000143051,341505.19999980927,7201,VNB,A,4
5,test,5,0.0,1-Back,1,m,Wed Aug 06 2025 16:57:52 GMT-0500 (Central Daylight Time),345444.39999985695,071_y_f_n_a.png,O,m,740,6,1,1755.3999998569489,343689.0,7201,VNB,A,5
6,test,5,1.0,1-Back,1,z,Wed Aug 06 2025 16:57:52 GMT-0500 (Central Daylight Time),347492.2999999523,124_o_f_n_a.png,O,z,1021,7,1,2038.2000000476837,345454.09999990463,7201,VNB,A,6
7,test,5,0.0,1-Back,1,m,Wed Aug 06 2025 16:57:52 GMT-0500 (Central Daylight Time),349942.19999980927,139_m_f_d_a.png,O,m,1420,8,1,2441.2999999523163,347500.89999985695,7201,VNB,A,7
8,test,5,0.0,1-Back,1,m,Wed Aug 06 2025 16:57:52 GMT-0500 (Central Daylight Time),351806.19999980927,109_y_m_h_a.png,O,m,843,9,1,1853.7999999523163,349952.39999985695,7201,VNB,A,8
9,test,5,0.0,1-Back,1,m,Wed Aug 06 2025 16:57:52 GMT-0500 (Central Daylight Time),354588.89999985695,071_y_f_d_a.png,O,m,1760,10,1,2775.0,351813.89999985695,7201,VNB,A,9
10,test,5,0.0,1-Back,1,m,Wed Aug 06 2025 16:57:52 GMT-0500 (Central Daylight Time),356524.5,165_m_m_n_a.png,O,m,916,11,1,1930.2000000476837,354594.2999999523,7201,VNB,A,10
11,test,5,1.0,1-Back,1,z,Wed Aug 06 2025 16:57:52 GMT-0500 (Central Daylight Time),358389.89999985695,139_m_f_n_a.png,O,z,836,12,1,1855.5999999046326,356534.2999999523,7201,VNB,A,11
12,test,5,0.0,1-Back,1,m,Wed Aug 06 2025 16:57:52 GMT-0500 (Central Daylight Time),360290.0,039_o_m_h_a.png,O,m,868,13,1,1889.6000001430511,358400.39999985695,7201,VNB,A,12
13,test,5,0.0,1-Back,1,z,Wed Aug 06 2025 16:57:52 GMT-0500 (Central Daylight Time),362839.0,165_m_m_h_a.png,O,z,1520,14,1,2538.4000000953674,360300.59999990463,7201,VNB,A,13
14,test,5,1.0,1-Back,1,m,Wed Aug 06 2025 16:57:52 GMT-0500 (Central Daylight Time),365405.09999990463,124_o_f_d_a.png,O,m,1536,15,1,2556.2999999523163,362848.7999999523,7201,VNB,A,14
15,test,5,0.0,1-Back,1,m,Wed Aug 06 2025 16:57:52 GMT-0500 (Central Daylight Time),367388.0,109_y_m_n_a.png,O,m,958,16,1,1976.1000001430511,365411.89999985695,7201,VNB,A,15
16,test,5,0.0,1-Back,1,m,Wed Aug 06 2025 16:57:52 GMT-0500 (Central Daylight Time),369471.0,071_y_f_h_a.png,O,m,1049,17,1,2075.800000190735,367395.19999980927,7201,VNB,A,16
17,test,5,0.0,1-Back,1,m,Wed Aug 06 2025 16:57:52 GMT-0500 (Central Daylight Time),371420.0,165_m_m_d_a.png,O,m,924,18,1,1938.9000000953674,369481.09999990463,7201,VNB,A,17
0,prac,1,0.0,2-Back,,,Wed Aug 06 2025 16:57:52 GMT-0500 (Central Daylight Time),371420.0,139_m_f_n_a.png,O,space,10963,1,1,1938.9000000953674,369481.09999990463,7201,VNB,A,0
0,prac,1,0.0,2-Back,,,Wed Aug 06 2025 16:57:52 GMT-0500 (Central Daylight Time),371420.0,124_o_f_h_a.png,O,space,10963,2,1,1938.9000000953674,369481.09999990463,7201,VNB,A,0
0,prac,1,0.0,2-Back,0,m,Wed Aug 06 2025 16:57:52 GMT-0500 (Central Daylight Time),510709.19999980927,039_o_m_d_a.png,O,None,2006,3,1,2792.0,507917.19999980927,7201,VNB,A,1
1,prac,1,1.0,2-Back,1,z,Wed Aug 06 2025 16:57:52 GMT-0500 (Central Daylight Time),513391.89999985695,165_m_m_h_a.png,O,z,1868,4,1,2670.0999999046326,510721.7999999523,7201,VNB,A,2
2,prac,1,0.0,2-Back,1,m,Wed Aug 06 2025 16:57:52 GMT-0500 (Central Daylight Time),515508.19999980927,071_y_f_n_a.png,O,m,1314,5,1,2104.5,513403.69999980927,7201,VNB,A,3
3,prac,1,1.0,2-Back,1,z,Wed Aug 06 2025 16:57:52 GMT-0500 (Central Daylight Time),517604.0,039_o_m_h_a.png,O,z,1316,6,1,2085.2000000476837,515518.7999999523,7201,VNB,A,4
3,prac,1,1.0,2-Back,0,z,Wed Aug 06 2025 16:57:52 GMT-0500 (Central Daylight Time),519822.59999990463,109_y_m_n_a.png,O,m,1404,7,1,2211.7999999523163,517610.7999999523,7201,VNB,A,5
3,prac,1,0.0,2-Back,0,m,Wed Aug 06 2025 16:57:52 GMT-0500 (Central Daylight Time),522221.7999999523,139_m_f_d_a.png,O,z,1584,8,1,2387.600000143051,519834.19999980927,7201,VNB,A,6
3,prac,1,0.0,2-Back,0,m,Wed Aug 06 2025 16:57:52 GMT-0500 (Central Daylight Time),525052.899999857,124_o_f_d_a.png,O,None,2002,9,1,2816.7999999523163,522236.09999990463,7201,VNB,A,7
4,prac,1,0.0,2-Back,1,m,Wed Aug 06 2025 16:57:52 GMT-0500 (Central Daylight Time),526970.7999999523,165_m_m_h_a.png,O,m,1148,10,1,1908.2000000476837,525062.5999999046,7201,VNB,A,8
5,prac,1,1.0,2-Back,1,z,Wed Aug 06 2025 16:57:52 GMT-0500 (Central Daylight Time),529285.399999857,071_y_f_d_a.png,O,z,1511,11,1,2302.0,526983.399999857,7201,VNB,A,9
6,prac,1,0.0,2-Back,1,m,Wed Aug 06 2025 16:57:52 GMT-0500 (Central Daylight Time),531601.7999999523,039_o_m_n_a.png,O,m,1505,12,1,2306.0,529295.7999999523,7201,VNB,A,10
0,prac,2,0.0,2-Back,,,Wed Aug 06 2025 16:57:52 GMT-0500 (Central Daylight Time),531601.7999999523,139_m_f_n_a.png,O,a,8852,1,1,2306.0,529295.7999999523,7201,VNB,A,0
0,prac,2,0.0,2-Back,,,Wed Aug 06 2025 16:57:52 GMT-0500 (Central Daylight Time),531601.7999999523,124_o_f_h_a.png,O,a,8852,2,1,2306.0,529295.7999999523,7201,VNB,A,0
1,prac,2,0.0,2-Back,1,m,Wed Aug 06 2025 16:57:52 GMT-0500 (Central Daylight Time),548097.1999998093,039_o_m_d_a.png,O,m,1734,3,1,2519.899999856949,545577.2999999523,7201,VNB,A,1
2,prac,2,1.0,2-Back,1,z,Wed Aug 06 2025 16:57:52 GMT-0500 (Central Daylight Time),550213.6999998093,165_m_m_h_a.png,O,z,1343,4,1,2105.899999856949,548107.7999999523,7201,VNB,A,2
3,prac,2,0.0,2-Back,1,m,Wed Aug 06 2025 16:57:52 GMT-0500 (Central Daylight Time),552528.7999999523,071_y_f_n_a.png,O,m,1510,5,1,2304.7000000476837,550224.0999999046,7201,VNB,A,3
4,prac,2,1.0,2-Back,1,z,Wed Aug 06 2025 16:57:52 GMT-0500 (Central Daylight Time),554795.0,039_o_m_h_a.png,O,z,1468,6,1,2254.0,552541.0,7201,VNB,A,4
4,prac,2,1.0,2-Back,0,z,Wed Aug 06 2025 16:57:52 GMT-0500 (Central Daylight Time),557028.0999999046,109_y_m_n_a.png,O,m,1444,7,1,2223.2000000476837,554804.899999857,7201,VNB,A,5
5,prac,2,0.0,2-Back,1,m,Wed Aug 06 2025 16:57:52 GMT-0500 (Central Daylight Time),559826.399999857,139_m_f_d_a.png,O,m,1994,8,1,2783.5,557042.899999857,7201,VNB,A,6
5,prac,2,0.0,2-Back,0,m,Wed Aug 06 2025 16:57:52 GMT-0500 (Central Daylight Time),562027.7999999523,124_o_f_d_a.png,O,z,1374,9,1,2189.7999999523163,559838.0,7201,VNB,A,7
5,prac,2,0.0,2-Back,0,m,Wed Aug 06 2025 16:57:52 GMT-0500 (Central Daylight Time),564824.2999999523,165_m_m_h_a.png,O,None,2018,10,1,2784.0,562040.2999999523,7201,VNB,A,8
6,prac,2,1.0,2-Back,1,z,Wed Aug 06 2025 16:57:52 GMT-0500 (Central Daylight Time),567457.5999999046,071_y_f_d_a.png,O,z,1828,11,1,2622.5,564835.0999999046,7201,VNB,A,9
7,prac,2,0.0,2-Back,1,m,Wed Aug 06 2025 16:57:52 GMT-0500 (Central Daylight Time),569540.5,039_o_m_n_a.png,O,m,1274,12,1,2072.600000143051,567467.899999857,7201,VNB,A,10
0,test,1,0.0,2-Back,,,Wed Aug 06 2025 16:57:52 GMT-0500 (Central Daylight Time),569540.5,109_y_m_h_a.png,O,space,14079,1,1,2072.600000143051,567467.899999857,7201,VNB,A,0
0,test,1,0.0,2-Back,,,Wed Aug 06 2025 16:57:52 GMT-0500 (Central Daylight Time),569540.5,124_o_f_n_a.png,O,space,14079,2,1,2072.600000143051,567467.899999857,7201,VNB,A,0
1,test,1,0.0,2-Back,1,z,Wed Aug 06 2025 16:57:52 GMT-0500 (Central Daylight Time),597880.0,039_o_m_h_a.png,O,z,819,3,1,1838.6000001430511,596041.399999857,7201,VNB,A,1
2,test,1,0.0,2-Back,1,m,Wed Aug 06 2025 16:57:52 GMT-0500 (Central Daylight Time),600829.5,139_m_f_d_a.png,O,m,1922,4,1,2939.5,597890.0,7201,VNB,A,2
3,test,1,1.0,2-Back,1,m,Wed Aug 06 2025 16:57:52 GMT-0500 (Central Daylight Time),602912.5,109_y_m_n_a.png,O,m,1061,5,1,2072.7000000476837,600839.7999999523,7201,VNB,A,3
4,test,1,0.0,2-Back,1,z,Wed Aug 06 2025 16:57:52 GMT-0500 (Central Daylight Time),605195.899999857,071_y_f_d_a.png,O,z,1266,6,1,2273.899999856949,602922.0,7201,VNB,A,4
5,test,1,0.0,2-Back,1,m,Wed Aug 06 2025 16:57:52 GMT-0500 (Central Daylight Time),607779.2999999523,165_m_m_h_a.png,O,m,1567,7,1,2574.4000000953674,605204.899999857,7201,VNB,A,5
6,test,1,1.0,2-Back,1,m,Wed Aug 06 2025 16:57:52 GMT-0500 (Central Daylight Time),610696.1999998093,071_y_f_n_a.png,O,m,1902,8,1,2908.5,607787.6999998093,7201,VNB,A,6
7,test,1,0.0,2-Back,1,z,Wed Aug 06 2025 16:57:52 GMT-0500 (Central Daylight Time),613044.5,124_o_f_h_a.png,O,z,1326,9,1,2336.800000190735,610707.6999998093,7201,VNB,A,7
8,test,1,0.0,2-Back,1,m,Wed Aug 06 2025 16:57:52 GMT-0500 (Central Daylight Time),615375.1999998093,039_o_m_d_a.png,O,m,1304,10,1,2321.199999809265,613054.0,7201,VNB,A,8
9,test,1,1.0,2-Back,1,m,Wed Aug 06 2025 16:57:52 GMT-0500 (Central Daylight Time),618125.0999999046,165_m_m_d_a.png,O,m,1724,11,1,2739.5,615385.5999999046,7201,VNB,A,9
10,test,1,0.0,2-Back,1,m,Wed Aug 06 2025 16:57:52 GMT-0500 (Central Daylight Time),620707.2999999523,139_m_f_n_a.png,O,m,1564,12,1,2571.4000000953674,618135.899999857,7201,VNB,A,10
11,test,1,0.0,2-Back,1,m,Wed Aug 06 2025 16:57:52 GMT-0500 (Central Daylight Time),623055.5,071_y_f_h_a.png,O,m,1326,13,1,2337.600000143051,620717.899999857,7201,VNB,A,11
12,test,1,0.0,2-Back,1,z,Wed Aug 06 2025 16:57:52 GMT-0500 (Central Daylight Time),625805.5,165_m_m_n_a.png,O,z,1721,14,1,2740.800000190735,623064.6999998093,7201,VNB,A,12
13,test,1,0.0,2-Back,1,m,Wed Aug 06 2025 16:57:52 GMT-0500 (Central Daylight Time),628755.0999999046,109_y_m_d_a.png,O,m,1932,15,1,2940.2000000476837,625814.899999857,7201,VNB,A,13
14,test,1,1.0,2-Back,1,m,Wed Aug 06 2025 16:57:52 GMT-0500 (Central Daylight Time),631371.5999999046,139_m_f_h_a.png,O,m,1585,16,1,2607.0999999046326,628764.5,7201,VNB,A,14
14,test,1,0.0,2-Back,0,z,Wed Aug 06 2025 16:57:52 GMT-0500 (Central Daylight Time),634236.0999999046,124_o_f_d_a.png,O,m,1835,17,1,2855.0,631381.0999999046,7201,VNB,A,15
15,test,1,0.0,2-Back,1,m,Wed Aug 06 2025 16:57:52 GMT-0500 (Central Daylight Time),637032.7999999523,039_o_m_n_a.png,O,m,1765,18,1,2784.7000000476837,634248.0999999046,7201,VNB,A,16
0,test,2,0.0,2-Back,,,Wed Aug 06 2025 16:57:52 GMT-0500 (Central Daylight Time),637032.7999999523,165_m_m_h_a.png,O,space,2810,1,1,2784.7000000476837,634248.0999999046,7201,VNB,A,0
0,test,2,0.0,2-Back,,,Wed Aug 06 2025 16:57:52 GMT-0500 (Central Daylight Time),637032.7999999523,071_y_f_n_a.png,O,space,2810,2,1,2784.7000000476837,634248.0999999046,7201,VNB,A,0
1,test,2,1.0,2-Back,1,z,Wed Aug 06 2025 16:57:52 GMT-0500 (Central Daylight Time),647298.399999857,124_o_f_h_a.png,O,z,1309,3,1,2324.0,644974.399999857,7201,VNB,A,1
2,test,2,0.0,2-Back,1,m,Wed Aug 06 2025 16:57:52 GMT-0500 (Central Daylight Time),649682.5,039_o_m_d_a.png,O,m,1351,4,1,2374.0,647308.5,7201,VNB,A,2
3,test,2,0.0,2-Back,1,m,Wed Aug 06 2025 16:57:52 GMT-0500 (Central Daylight Time),652396.0,139_m_f_d_a.png,O,m,1690,5,1,2701.600000143051,649694.399999857,7201,VNB,A,3
4,test,2,0.0,2-Back,1,m,Wed Aug 06 2025 16:57:52 GMT-0500 (Central Daylight Time),655295.1999998093,109_y_m_h_a.png,O,m,1880,6,1,2888.699999809265,652406.5,7201,VNB,A,4
5,test,2,0.0,2-Back,1,m,Wed Aug 06 2025 16:57:52 GMT-0500 (Central Daylight Time),657645.399999857,124_o_f_n_a.png,O,m,1323,7,1,2339.2999999523163,655306.0999999046,7201,VNB,A,5
6,test,2,1.0,2-Back,1,z,Wed Aug 06 2025 16:57:52 GMT-0500 (Central Daylight Time),659444.7999999523,039_o_m_h_a.png,O,z,773,8,1,1788.9000000953674,657655.899999857,7201,VNB,A,6
6,test,2,0.0,2-Back,0,m,Wed Aug 06 2025 16:57:52 GMT-0500 (Central Daylight Time),662227.899999857,071_y_f_d_a.png,O,z,1764,9,1,2772.7999999523163,659455.0999999046,7201,VNB,A,7
7,test,2,0.0,2-Back,1,m,Wed Aug 06 2025 16:57:52 GMT-0500 (Central Daylight Time),664959.0,109_y_m_d_a.png,O,m,1703,10,1,2720.4000000953674,662238.5999999046,7201,VNB,A,8
8,test,2,0.0,2-Back,1,m,Wed Aug 06 2025 16:57:52 GMT-0500 (Central Daylight Time),666941.5999999046,165_m_m_n_a.png,O,m,954,11,1,1972.7000000476837,664968.899999857,7201,VNB,A,9
8,test,2,0.0,2-Back,0,m,Wed Aug 06 2025 16:57:52 GMT-0500 (Central Daylight Time),669440.6999998093,139_m_f_h_a.png,O,z,1478,12,1,2488.2999999523163,666952.399999857,7201,VNB,A,10
9,test,2,1.0,2-Back,1,z,Wed Aug 06 2025 16:57:52 GMT-0500 (Central Daylight Time),672125.0,039_o_m_n_a.png,O,z,1667,13,1,2674.100000143051,669450.899999857,7201,VNB,A,11
10,test,2,0.0,2-Back,1,m,Wed Aug 06 2025 16:57:52 GMT-0500 (Central Daylight Time),674705.0999999046,124_o_f_d_a.png,O,m,1559,14,1,2571.5999999046326,672133.5,7201,VNB,A,12
10,test,2,0.0,2-Back,0,m,Wed Aug 06 2025 16:57:52 GMT-0500 (Central Daylight Time),677288.0999999046,071_y_f_h_a.png,O,z,1552,15,1,2573.2000000476837,674714.899999857,7201,VNB,A,13
10,test,2,0.0,2-Back,0,z,Wed Aug 06 2025 16:57:52 GMT-0500 (Central Daylight Time),679721.899999857,165_m_m_d_a.png,O,m,1403,16,1,2423.899999856949,677298.0,7201,VNB,A,14
11,test,2,0.0,2-Back,1,m,Wed Aug 06 2025 16:57:52 GMT-0500 (Central Daylight Time),682253.899999857,109_y_m_n_a.png,O,m,1505,17,1,2523.2000000476837,679730.6999998093,7201,VNB,A,15
12,test,2,1.0,2-Back,1,m,Wed Aug 06 2025 16:57:52 GMT-0500 (Central Daylight Time),684901.899999857,139_m_f_n_a.png,O,m,1621,18,1,2637.5999999046326,682264.2999999523,7201,VNB,A,16
0,test,3,1.0,2-Back,,,Wed Aug 06 2025 16:57:52 GMT-0500 (Central Daylight Time),684901.899999857,039_o_m_n_a.png,O,space,2220,1,1,2637.5999999046326,682264.2999999523,7201,VNB,A,0
0,test,3,1.0,2-Back,,,Wed Aug 06 2025 16:57:52 GMT-0500 (Central Daylight Time),684901.899999857,124_o_f_d_a.png,O,space,2220,2,1,2637.5999999046326,682264.2999999523,7201,VNB,A,0
1,test,3,0.0,2-Back,1,m,Wed Aug 06 2025 16:57:52 GMT-0500 (Central Daylight Time),694517.1999998093,071_y_f_h_a.png,O,m,1315,3,1,2322.7999999523163,692194.399999857,7201,VNB,A,1
2,test,3,0.0,2-Back,1,z,Wed Aug 06 2025 16:57:52 GMT-0500 (Central Daylight Time),696848.1999998093,139_m_f_d_a.png,O,z,1310,4,1,2320.7999999523163,694527.399999857,7201,VNB,A,2
2,test,3,1.0,2-Back,0,m,Wed Aug 06 2025 16:57:52 GMT-0500 (Central Daylight Time),699865.2999999523,109_y_m_n_a.png,O,None,2001,5,1,3006.4000000953674,696858.899999857,7201,VNB,A,3
3,test,3,0.0,2-Back,1,m,Wed Aug 06 2025 16:57:52 GMT-0500 (Central Daylight Time),701931.2999999523,039_o_m_h_a.png,O,m,1042,6,1,2055.0,699876.2999999523,7201,VNB,A,4
3,test,3,0.0,2-Back,0,z,Wed Aug 06 2025 16:57:52 GMT-0500 (Central Daylight Time),704264.0,071_y_f_n_a.png,O,m,1311,7,1,2322.100000143051,701941.899999857,7201,VNB,A,5
3,test,3,1.0,2-Back,0,m,Wed Aug 06 2025 16:57:52 GMT-0500 (Central Daylight Time),706879.399999857,165_m_m_d_a.png,O,z,1583,8,1,2604.7000000476837,704274.6999998093,7201,VNB,A,6
4,test,3,0.0,2-Back,1,m,Wed Aug 06 2025 16:57:52 GMT-0500 (Central Daylight Time),709379.7999999523,109_y_m_d_a.png,O,m,1483,9,1,2490.0,706889.7999999523,7201,VNB,A,7
5,test,3,0.0,2-Back,1,m,Wed Aug 06 2025 16:57:52 GMT-0500 (Central Daylight Time),711561.0,124_o_f_h_a.png,O,m,1162,10,1,2171.5,709389.5,7201,VNB,A,8
5,test,3,1.0,2-Back,0,m,Wed Aug 06 2025 16:57:52 GMT-0500 (Central Daylight Time),714276.1999998093,139_m_f_n_a.png,O,z,1697,11,1,2705.0,711571.1999998093,7201,VNB,A,9
6,test,3,1.0,2-Back,1,z,Wed Aug 06 2025 16:57:52 GMT-0500 (Central Daylight Time),716959.0999999046,165_m_m_h_a.png,O,z,1663,12,1,2674.7999999523163,714284.2999999523,7201,VNB,A,10
7,test,3,0.0,2-Back,1,m,Wed Aug 06 2025 16:57:52 GMT-0500 (Central Daylight Time),719591.2999999523,071_y_f_d_a.png,O,m,1611,13,1,2621.2999999523163,716970.0,7201,VNB,A,11
7,test,3,0.0,2-Back,0,m,Wed Aug 06 2025 16:57:52 GMT-0500 (Central Daylight Time),722058.1999998093,124_o_f_n_a.png,O,z,1434,14,1,2456.199999809265,719602.0,7201,VNB,A,12
7,test,3,0.0,2-Back,0,z,Wed Aug 06 2025 16:57:52 GMT-0500 (Central Daylight Time),724756.6999998093,039_o_m_d_a.png,O,m,1672,15,1,2687.5,722069.1999998093,7201,VNB,A,13
7,test,3,1.0,2-Back,0,m,Wed Aug 06 2025 16:57:52 GMT-0500 (Central Daylight Time),727788.399999857,139_m_f_h_a.png,O,None,2014,16,1,3020.5999999046326,724767.7999999523,7201,VNB,A,14
7,test,3,0.0,2-Back,0,m,Wed Aug 06 2025 16:57:52 GMT-0500 (Central Daylight Time),730622.6999998093,165_m_m_n_a.png,O,z,1804,17,1,2824.899999856949,727797.7999999523,7201,VNB,A,15
8,test,3,0.0,2-Back,1,z,Wed Aug 06 2025 16:57:52 GMT-0500 (Central Daylight Time),733220.7999999523,109_y_m_h_a.png,O,z,1582,18,1,2589.100000143051,730631.6999998093,7201,VNB,A,16
0,test,4,0.0,2-Back,,,Wed Aug 06 2025 16:57:52 GMT-0500 (Central Daylight Time),733220.7999999523,139_m_f_n_a.png,O,space,2231,1,1,2589.100000143051,730631.6999998093,7201,VNB,A,0
0,test,4,0.0,2-Back,,,Wed Aug 06 2025 16:57:52 GMT-0500 (Central Daylight Time),733220.7999999523,039_o_m_n_a.png,O,space,2231,2,1,2589.100000143051,730631.6999998093,7201,VNB,A,0
1,test,4,1.0,2-Back,1,m,Wed Aug 06 2025 16:57:52 GMT-0500 (Central Daylight Time),742684.0,109_y_m_h_a.png,O,m,1118,3,1,2138.0,740546.0,7201,VNB,A,1
2,test,4,1.0,2-Back,1,m,Wed Aug 06 2025 16:57:52 GMT-0500 (Central Daylight Time),744816.5,124_o_f_d_a.png,O,m,1110,4,1,2122.2000000476837,742694.2999999523,7201,VNB,A,2
3,test,4,0.0,2-Back,1,z,Wed Aug 06 2025 16:57:52 GMT-0500 (Central Daylight Time),746716.5999999046,039_o_m_h_a.png,O,z,882,5,1,1892.7999999523163,744823.7999999523,7201,VNB,A,3
3,test,4,0.0,2-Back,0,m,Wed Aug 06 2025 16:57:52 GMT-0500 (Central Daylight Time),749748.899999857,165_m_m_n_a.png,O,None,2014,6,1,3021.5999999046326,746727.2999999523,7201,VNB,A,4
4,test,4,0.0,2-Back,1,m,Wed Aug 06 2025 16:57:52 GMT-0500 (Central Daylight Time),752250.0,139_m_f_d_a.png,O,m,1477,7,1,2491.5,749758.5,7201,VNB,A,5
4,test,4,0.0,2-Back,0,z,Wed Aug 06 2025 16:57:52 GMT-0500 (Central Daylight Time),754647.5,071_y_f_n_a.png,O,m,1371,8,1,2386.2000000476837,752261.2999999523,7201,VNB,A,6
5,test,4,1.0,2-Back,1,m,Wed Aug 06 2025 16:57:52 GMT-0500 (Central Daylight Time),757230.399999857,124_o_f_h_a.png,O,m,1554,9,1,2574.399999856949,754656.0,7201,VNB,A,7
5,test,4,0.0,2-Back,0,m,Wed Aug 06 2025 16:57:52 GMT-0500 (Central Daylight Time),759229.6999998093,165_m_m_h_a.png,O,z,982,10,1,1988.5999999046326,757241.0999999046,7201,VNB,A,8
6,test,4,0.0,2-Back,1,m,Wed Aug 06 2025 16:57:52 GMT-0500 (Central Daylight Time),761912.0999999046,071_y_f_d_a.png,O,m,1660,11,1,2672.5,759239.5999999046,7201,VNB,A,9
7,test,4,0.0,2-Back,1,m,Wed Aug 06 2025 16:57:52 GMT-0500 (Central Daylight Time),763660.1999998093,109_y_m_n_a.png,O,m,732,12,1,1738.1999998092651,761922.0,7201,VNB,A,10
8,test,4,0.0,2-Back,1,z,Wed Aug 06 2025 16:57:52 GMT-0500 (Central Daylight Time),765262.399999857,039_o_m_d_a.png,O,z,584,13,1,1594.2000000476837,763668.1999998093,7201,VNB,A,11
9,test,4,1.0,2-Back,1,m,Wed Aug 06 2025 16:57:52 GMT-0500 (Central Daylight Time),767425.2999999523,139_m_f_h_a.png,O,m,1142,14,1,2153.7999999523163,765271.5,7201,VNB,A,12
10,test,4,1.0,2-Back,1,m,Wed Aug 06 2025 16:57:52 GMT-0500 (Central Daylight Time),769875.0999999046,071_y_f_h_a.png,O,m,1424,15,1,2440.2999999523163,767434.7999999523,7201,VNB,A,13
11,test,4,0.0,2-Back,1,m,Wed Aug 06 2025 16:57:52 GMT-0500 (Central Daylight Time),772243.399999857,124_o_f_n_a.png,O,m,1348,16,1,2359.5,769883.899999857,7201,VNB,A,14
12,test,4,0.0,2-Back,1,m,Wed Aug 06 2025 16:57:52 GMT-0500 (Central Daylight Time),774340.5,109_y_m_d_a.png,O,m,1072,17,1,2085.800000190735,772254.6999998093,7201,VNB,A,15
13,test,4,1.0,2-Back,1,m,Wed Aug 06 2025 16:57:52 GMT-0500 (Central Daylight Time),776973.0,165_m_m_d_a.png,O,m,1604,18,1,2626.800000190735,774346.1999998093,7201,VNB,A,16
0,test,5,1.0,2-Back,,,Wed Aug 06 2025 16:57:52 GMT-0500 (Central Daylight Time),776973.0,071_y_f_d_a.png,O,space,2183,1,1,2626.800000190735,774346.1999998093,7201,VNB,A,0
0,test,5,1.0,2-Back,,,Wed Aug 06 2025 16:57:52 GMT-0500 (Central Daylight Time),776973.0,124_o_f_h_a.png,O,space,2183,2,1,2626.800000190735,774346.1999998093,7201,VNB,A,0
1,test,5,1.0,2-Back,1,z,Wed Aug 06 2025 16:57:52 GMT-0500 (Central Daylight Time),786654.5999999046,039_o_m_d_a.png,O,z,1389,3,1,2407.2999999523163,784247.2999999523,7201,VNB,A,1
2,test,5,1.0,2-Back,1,m,Wed Aug 06 2025 16:57:52 GMT-0500 (Central Daylight Time),788385.0999999046,139_m_f_n_a.png,O,m,710,4,1,1720.9000000953674,786664.1999998093,7201,VNB,A,2
3,test,5,0.0,2-Back,1,m,Wed Aug 06 2025 16:57:52 GMT-0500 (Central Daylight Time),790701.2999999523,165_m_m_h_a.png,O,m,1297,5,1,2307.2999999523163,788394.0,7201,VNB,A,3
3,test,5,0.0,2-Back,0,z,Wed Aug 06 2025 16:57:52 GMT-0500 (Central Daylight Time),793051.1999998093,071_y_f_n_a.png,O,m,1316,6,1,2339.7999999523163,790711.399999857,7201,VNB,A,4
3,test,5,0.0,2-Back,0,m,Wed Aug 06 2025 16:57:52 GMT-0500 (Central Daylight Time),795452.2999999523,124_o_f_d_a.png,O,z,1382,7,1,2391.7999999523163,793060.5,7201,VNB,A,5
3,test,5,0.0,2-Back,0,m,Wed Aug 06 2025 16:57:52 GMT-0500 (Central Daylight Time),797817.1999998093,039_o_m_h_a.png,O,z,1344,8,1,2354.399999856949,795462.7999999523,7201,VNB,A,6
3,test,5,1.0,2-Back,0,z,Wed Aug 06 2025 16:57:52 GMT-0500 (Central Daylight Time),800250.0,139_m_f_d_a.png,O,m,1402,9,1,2422.7000000476837,797827.2999999523,7201,VNB,A,7
4,test,5,0.0,2-Back,1,m,Wed Aug 06 2025 16:57:52 GMT-0500 (Central Daylight Time),802349.399999857,109_y_m_n_a.png,O,m,1072,10,1,2090.5,800258.899999857,7201,VNB,A,8
5,test,5,0.0,2-Back,1,m,Wed Aug 06 2025 16:57:52 GMT-0500 (Central Daylight Time),804630.399999857,165_m_m_n_a.png,O,m,1262,11,1,2271.899999856949,802358.5,7201,VNB,A,9
5,test,5,0.0,2-Back,0,m,Wed Aug 06 2025 16:57:52 GMT-0500 (Central Daylight Time),806547.5999999046,071_y_f_h_a.png,O,z,890,12,1,1908.4000000953674,804639.1999998093,7201,VNB,A,10
6,test,5,0.0,2-Back,1,m,Wed Aug 06 2025 16:57:52 GMT-0500 (Central Daylight Time),808913.0,109_y_m_d_a.png,O,m,1345,13,1,2355.600000143051,806557.399999857,7201,VNB,A,11
7,test,5,1.0,2-Back,1,z,Wed Aug 06 2025 16:57:52 GMT-0500 (Central Daylight Time),810913.6999998093,139_m_f_h_a.png,O,z,970,14,1,1991.2999999523163,808922.399999857,7201,VNB,A,12
8,test,5,0.0,2-Back,1,m,Wed Aug 06 2025 16:57:52 GMT-0500 (Central Daylight Time),813112.2999999523,039_o_m_n_a.png,O,m,1176,15,1,2189.4000000953674,810922.899999857,7201,VNB,A,13
8,test,5,0.0,2-Back,0,m,Wed Aug 06 2025 16:57:52 GMT-0500 (Central Daylight Time),815610.5,165_m_m_d_a.png,O,z,1473,16,1,2489.2000000476837,813121.2999999523,7201,VNB,A,14
8,test,5,0.0,2-Back,0,z,Wed Aug 06 2025 16:57:52 GMT-0500 (Central Daylight Time),817559.0,124_o_f_n_a.png,O,m,917,17,1,1938.4000000953674,815620.5999999046,7201,VNB,A,15
8,test,5,1.0,2-Back,0,m,Wed Aug 06 2025 16:57:52 GMT-0500 (Central Daylight Time),819959.7999999523,109_y_m_h_a.png,O,z,1368,18,1,2395.2999999523163,817564.5,7201,VNB,A,16
