block_c,block_dur,condition,countdown,datetime,endtime,list,multichar_response,project,response,response_time,session_number,start_end,starttime,subject_id,task,task_vers,trial
,,,,Wed Mar 18 2026 14:37:37 GMT-0500 (Central Daylight Time),,,,O,space,383,1,,,7782,WL,B,
prac,,0,,Wed Mar 18 2026 14:37:37 GMT-0500 (Central Daylight Time),,NA,b,O,b,2570,1,,,7782,WL,B,1.0
prac,,0,,Wed Mar 18 2026 14:37:37 GMT-0500 (Central Daylight Time),,NA,bo,O,o,595,1,,,7782,WL,B,1.0
prac,,0,,Wed Mar 18 2026 14:37:37 GMT-0500 (Central Daylight Time),,NA,boo,O,o,92,1,,,7782,WL,B,1.0
prac,,0,,Wed Mar 18 2026 14:37:37 GMT-0500 (Central Daylight Time),,NA,boos,O,s,106,1,,,7782,WL,B,1.0
prac,,0,,Wed Mar 18 2026 14:37:37 GMT-0500 (Central Daylight Time),,NA,boost,O,t,430,1,,,7782,WL,B,1.0
prac,,0,,Wed Mar 18 2026 14:37:37 GMT-0500 (Central Daylight Time),,NA,boostenter,O,enter,4642,1,,,7782,WL,B,1.0
1,1.000999927520752,learn,58999.00007247925,Wed Mar 18 2026 14:37:37 GMT-0500 (Central Daylight Time),152343.0,A,s,O,s,983,1,1000.7999999523163,151342.20000004768,7782,WL,B,1.0
1,1.1329998970031738,learn,58867.000102996826,Wed Mar 18 2026 14:37:37 GMT-0500 (Central Daylight Time),152474.89999997616,A,st,O,t,124,1,1132.6999999284744,151342.20000004768,7782,WL,B,1.0
1,1.318000078201294,learn,58681.999921798706,Wed Mar 18 2026 14:37:37 GMT-0500 (Central Daylight Time),152660.20000004768,A,str,O,r,169,1,1318.0,151342.20000004768,7782,WL,B,1.0
1,1.6010000705718994,learn,58398.9999294281,Wed Mar 18 2026 14:37:37 GMT-0500 (Central Daylight Time),152943.0,A,stre,O,e,262,1,1600.7999999523163,151342.20000004768,7782,WL,B,1.0
1,1.749000072479248,learn,58250.99992752075,Wed Mar 18 2026 14:37:37 GMT-0500 (Central Daylight Time),153091.5,A,stree,O,e,140,1,1749.2999999523163,151342.20000004768,7782,WL,B,1.0
1,1.931999921798706,learn,58068.000078201294,Wed Mar 18 2026 14:37:37 GMT-0500 (Central Daylight Time),153274.70000004768,A,street,O,t,168,1,1932.5,151342.20000004768,7782,WL,B,1.0
1,5.332000017166138,learn,54667.99998283386,Wed Mar 18 2026 14:37:37 GMT-0500 (Central Daylight Time),156674.60000002384,A,streetenter,O,enter,3386,1,5332.399999976158,151342.20000004768,7782,WL,B,1.0
1,11.63100004196167,learn,48368.99995803833,Wed Mar 18 2026 14:37:37 GMT-0500 (Central Daylight Time),162973.20000004768,A,d,O,d,6292,1,6298.200000047684,156675.0,7782,WL,B,2.0
1,12.079999923706055,learn,47920.000076293945,Wed Mar 18 2026 14:37:37 GMT-0500 (Central Daylight Time),163422.30000007153,A,do,O,o,438,1,6747.300000071526,156675.0,7782,WL,B,2.0
1,12.230999946594238,learn,47769.00005340576,Wed Mar 18 2026 14:37:37 GMT-0500 (Central Daylight Time),163572.89999997616,A,doo,O,o,144,1,6897.899999976158,156675.0,7782,WL,B,2.0
1,12.364000082015991,learn,47635.99991798401,Wed Mar 18 2026 14:37:37 GMT-0500 (Central Daylight Time),163706.70000004768,A,door,O,r,126,1,7031.700000047684,156675.0,7782,WL,B,2.0
1,13.713000059127808,learn,46286.99994087219,Wed Mar 18 2026 14:37:37 GMT-0500 (Central Daylight Time),165054.89999997616,A,doorenter,O,enter,1329,1,8379.899999976158,156675.0,7782,WL,B,2.0
1,14.111999988555908,learn,45888.00001144409,Wed Mar 18 2026 14:37:37 GMT-0500 (Central Daylight Time),165454.70000004768,A,s,O,s,390,1,399.5,165055.20000004768,7782,WL,B,3.0
1,14.812999963760376,learn,45187.000036239624,Wed Mar 18 2026 14:37:37 GMT-0500 (Central Daylight Time),166154.80000007153,A,st,O,t,685,1,1099.6000000238419,165055.20000004768,7782,WL,B,3.0
1,15.144999980926514,learn,44855.000019073486,Wed Mar 18 2026 14:37:37 GMT-0500 (Central Daylight Time),166487.20000004768,A,sta,O,a,312,1,1432.0,165055.20000004768,7782,WL,B,3.0
1,15.477999925613403,learn,44522.0000743866,Wed Mar 18 2026 14:37:37 GMT-0500 (Central Daylight Time),166820.39999997616,A,star,O,r,325,1,1765.1999999284744,165055.20000004768,7782,WL,B,3.0
1,16.42899990081787,learn,43571.00009918213,Wed Mar 18 2026 14:37:37 GMT-0500 (Central Daylight Time),167771.39999997616,A,starenter,O,enter,941,1,2716.1999999284744,165055.20000004768,7782,WL,B,3.0
1,16.878999948501587,learn,43121.00005149841,Wed Mar 18 2026 14:37:37 GMT-0500 (Central Daylight Time),168221.5,A,w,O,w,433,1,449.6999999284744,167771.80000007153,7782,WL,B,4.0
1,17.111000061035156,learn,42888.999938964844,Wed Mar 18 2026 14:37:37 GMT-0500 (Central Daylight Time),168453.60000002384,A,wi,O,i,213,1,681.7999999523163,167771.80000007153,7782,WL,B,4.0
1,17.44600009918213,learn,42553.99990081787,Wed Mar 18 2026 14:37:37 GMT-0500 (Central Daylight Time),168788.5,A,wif,O,f,327,1,1016.6999999284744,167771.80000007153,7782,WL,B,4.0
1,17.729000091552734,learn,42270.999908447266,Wed Mar 18 2026 14:37:37 GMT-0500 (Central Daylight Time),169071.10000002384,A,wife,O,e,266,1,1299.2999999523163,167771.80000007153,7782,WL,B,4.0
1,18.027999877929688,learn,41972.00012207031,Wed Mar 18 2026 14:37:37 GMT-0500 (Central Daylight Time),169370.60000002384,A,wifeenter,O,enter,294,1,1598.7999999523163,167771.80000007153,7782,WL,B,4.0
1,18.76099991798401,learn,41239.00008201599,Wed Mar 18 2026 14:37:37 GMT-0500 (Central Daylight Time),170103.30000007153,A,s,O,s,713,1,732.4000000953674,169370.89999997616,7782,WL,B,5.0
1,19.144999980926514,learn,40855.000019073486,Wed Mar 18 2026 14:37:37 GMT-0500 (Central Daylight Time),170487.5,A,st,O,t,373,1,1116.6000000238419,169370.89999997616,7782,WL,B,5.0
1,19.34500002861023,learn,40654.99997138977,Wed Mar 18 2026 14:37:37 GMT-0500 (Central Daylight Time),170687.30000007153,A,sta,O,a,182,1,1316.4000000953674,169370.89999997616,7782,WL,B,5.0
1,19.509999990463257,learn,40490.00000953674,Wed Mar 18 2026 14:37:37 GMT-0500 (Central Daylight Time),170852.5,A,star,O,r,155,1,1481.6000000238419,169370.89999997616,7782,WL,B,5.0
1,20.47699999809265,learn,39523.00000190735,Wed Mar 18 2026 14:37:37 GMT-0500 (Central Daylight Time),171819.39999997616,A,starenter,O,enter,946,1,2448.5,169370.89999997616,7782,WL,B,5.0
1,24.89299988746643,learn,35107.00011253357,Wed Mar 18 2026 14:37:37 GMT-0500 (Central Daylight Time),176235.60000002384,A,c,O,c,4402,1,4415.799999952316,171819.80000007153,7782,WL,B,6.0
1,25.092999935150146,learn,34907.00006484985,Wed Mar 18 2026 14:37:37 GMT-0500 (Central Daylight Time),176435.20000004768,A,ci,O,i,185,1,4615.399999976158,171819.80000007153,7782,WL,B,6.0
1,25.47499990463257,learn,34525.00009536743,Wed Mar 18 2026 14:37:37 GMT-0500 (Central Daylight Time),176817.60000002384,A,cit,O,t,368,1,4997.799999952316,171819.80000007153,7782,WL,B,6.0
1,25.66000008583069,learn,34339.99991416931,Wed Mar 18 2026 14:37:37 GMT-0500 (Central Daylight Time),177002.60000002384,A,city,O,y,170,1,5182.799999952316,171819.80000007153,7782,WL,B,6.0
1,28.259000062942505,learn,31740.999937057495,Wed Mar 18 2026 14:37:37 GMT-0500 (Central Daylight Time),179601.39999997616,A,cityenter,O,enter,2578,1,7781.599999904633,171819.80000007153,7782,WL,B,6.0
1,28.691999912261963,learn,31308.000087738037,Wed Mar 18 2026 14:37:37 GMT-0500 (Central Daylight Time),180034.80000007153,A,p,O,p,427,1,433.2000000476837,179601.60000002384,7782,WL,B,7.0
1,29.006999969482422,learn,30993.000030517578,Wed Mar 18 2026 14:37:37 GMT-0500 (Central Daylight Time),180350.0,A,pu,O,u,297,1,748.3999999761581,179601.60000002384,7782,WL,B,7.0
1,29.35800004005432,learn,30641.99995994568,Wed Mar 18 2026 14:37:37 GMT-0500 (Central Daylight Time),180701.10000002384,A,pup,O,p,344,1,1099.5,179601.60000002384,7782,WL,B,7.0
1,29.691999912261963,learn,30308.000087738037,Wed Mar 18 2026 14:37:37 GMT-0500 (Central Daylight Time),181034.60000002384,A,pupi,O,i,318,1,1433.0,179601.60000002384,7782,WL,B,7.0
1,30.121999979019165,learn,29878.000020980835,Wed Mar 18 2026 14:37:37 GMT-0500 (Central Daylight Time),181464.60000002384,A,pupil,O,l,424,1,1863.0,179601.60000002384,7782,WL,B,7.0
1,30.83999991416931,learn,29160.00008583069,Wed Mar 18 2026 14:37:37 GMT-0500 (Central Daylight Time),182183.0,A,pupilenter,O,enter,709,1,2581.399999976158,179601.60000002384,7782,WL,B,7.0
1,36.555999994277954,learn,23444.000005722046,Wed Mar 18 2026 14:37:37 GMT-0500 (Central Daylight Time),187898.89999997616,A,c,O,c,5694,1,5715.699999928474,182183.20000004768,7782,WL,B,8.0
1,36.65400004386902,learn,23345.99995613098,Wed Mar 18 2026 14:37:37 GMT-0500 (Central Daylight Time),187997.20000004768,A,ca,O,a,80,1,5814.0,182183.20000004768,7782,WL,B,8.0
1,37.17199993133545,learn,22828.00006866455,Wed Mar 18 2026 14:37:37 GMT-0500 (Central Daylight Time),188515.0,A,cab,O,b,496,1,6331.799999952316,182183.20000004768,7782,WL,B,8.0
1,37.6710000038147,learn,22328.999996185303,Wed Mar 18 2026 14:37:37 GMT-0500 (Central Daylight Time),189014.20000004768,A,cabi,O,i,482,1,6831.0,182183.20000004768,7782,WL,B,8.0
1,38.03800010681152,learn,21961.999893188477,Wed Mar 18 2026 14:37:37 GMT-0500 (Central Daylight Time),189381.10000002384,A,cabin,O,n,359,1,7197.899999976158,182183.20000004768,7782,WL,B,8.0
1,39.187000036239624,learn,20812.999963760376,Wed Mar 18 2026 14:37:37 GMT-0500 (Central Daylight Time),190529.89999997616,A,cabinl,O,l,1135,1,8346.699999928474,182183.20000004768,7782,WL,B,8.0
1,39.33800005912781,learn,20661.999940872192,Wed Mar 18 2026 14:37:37 GMT-0500 (Central Daylight Time),190680.60000002384,A,cabinla,O,a,137,1,8497.399999976158,182183.20000004768,7782,WL,B,8.0
1,39.48699998855591,learn,20513.00001144409,Wed Mar 18 2026 14:37:37 GMT-0500 (Central Daylight Time),190829.70000004768,A,cabinlak,O,k,139,1,8646.5,182183.20000004768,7782,WL,B,8.0
1,39.7039999961853,learn,20296.000003814697,Wed Mar 18 2026 14:37:37 GMT-0500 (Central Daylight Time),191047.20000004768,A,cabinlake,O,e,208,1,8864.0,182183.20000004768,7782,WL,B,8.0
1,40.7720000743866,learn,19227.999925613403,Wed Mar 18 2026 14:37:37 GMT-0500 (Central Daylight Time),192114.89999997616,A,cabinlakeenter,O,enter,1063,1,9931.699999928474,182183.20000004768,7782,WL,B,8.0
1,43.83500003814697,learn,16164.999961853027,Wed Mar 18 2026 14:37:37 GMT-0500 (Central Daylight Time),195178.20000004768,A,p,O,p,3049,1,3063.0,192115.20000004768,7782,WL,B,9.0
1,44.03500008583069,learn,15964.999914169312,Wed Mar 18 2026 14:37:37 GMT-0500 (Central Daylight Time),195377.89999997616,A,pi,O,i,184,1,3262.6999999284744,192115.20000004768,7782,WL,B,9.0
1,44.20199990272522,learn,15798.00009727478,Wed Mar 18 2026 14:37:37 GMT-0500 (Central Daylight Time),195544.89999997616,A,pip,O,p,153,1,3429.6999999284744,192115.20000004768,7782,WL,B,9.0
1,44.418999910354614,learn,15581.000089645386,Wed Mar 18 2026 14:37:37 GMT-0500 (Central Daylight Time),195761.39999997616,A,pipe,O,e,202,1,3646.1999999284744,192115.20000004768,7782,WL,B,9.0
1,45.03500008583069,learn,14964.999914169312,Wed Mar 18 2026 14:37:37 GMT-0500 (Central Daylight Time),196377.80000007153,A,pipeenter,O,enter,610,1,4262.600000023842,192115.20000004768,7782,WL,B,9.0
1,45.651000022888184,learn,14348.999977111816,Wed Mar 18 2026 14:37:37 GMT-0500 (Central Daylight Time),196994.20000004768,A,f,O,f,603,1,616.1000000238419,196378.10000002384,7782,WL,B,10.0
1,45.95099997520447,learn,14049.000024795532,Wed Mar 18 2026 14:37:37 GMT-0500 (Central Daylight Time),197294.10000002384,A,fi,O,i,279,1,916.0,196378.10000002384,7782,WL,B,10.0
1,46.28699994087219,learn,13713.000059127808,Wed Mar 18 2026 14:37:37 GMT-0500 (Central Daylight Time),197629.39999997616,A,fir,O,r,327,1,1251.2999999523163,196378.10000002384,7782,WL,B,10.0
1,46.68499994277954,learn,13315.000057220459,Wed Mar 18 2026 14:37:37 GMT-0500 (Central Daylight Time),198027.89999997616,A,fire,O,e,392,1,1649.7999999523163,196378.10000002384,7782,WL,B,10.0
1,47.86800003051758,learn,12131.999969482422,Wed Mar 18 2026 14:37:37 GMT-0500 (Central Daylight Time),199210.20000004768,A,fireenter,O,enter,1165,1,2832.100000023842,196378.10000002384,7782,WL,B,10.0
1,48.43300008773804,learn,11566.999912261963,Wed Mar 18 2026 14:37:37 GMT-0500 (Central Daylight Time),199775.5,A,s,O,s,553,1,565.0,199210.5,7782,WL,B,11.0
1,48.93400001525879,learn,11065.999984741211,Wed Mar 18 2026 14:37:37 GMT-0500 (Central Daylight Time),200276.30000007153,A,sk,O,k,486,1,1065.8000000715256,199210.5,7782,WL,B,11.0
1,49.151999950408936,learn,10848.000049591064,Wed Mar 18 2026 14:37:37 GMT-0500 (Central Daylight Time),200494.30000007153,A,ski,O,i,200,1,1283.8000000715256,199210.5,7782,WL,B,11.0
1,49.46799993515015,learn,10532.000064849854,Wed Mar 18 2026 14:37:37 GMT-0500 (Central Daylight Time),200810.60000002384,A,skin,O,n,301,1,1600.1000000238419,199210.5,7782,WL,B,11.0
1,50.66700005531311,learn,9332.99994468689,Wed Mar 18 2026 14:37:37 GMT-0500 (Central Daylight Time),202009.5,A,skinenter,O,enter,1176,1,2799.0,199210.5,7782,WL,B,11.0
1,60.013999938964844,learn,-13.99993896484375,Wed Mar 18 2026 14:37:37 GMT-0500 (Central Daylight Time),211356.60000002384,A,None,O,None,9341,1,9346.799999952316,202009.80000007153,7782,WL,B,12.0
2,1.7130000591278076,learn,58286.99994087219,Wed Mar 18 2026 14:37:37 GMT-0500 (Central Daylight Time),298661.5,A,s,O,s,1693,1,1712.6999999284744,296948.8000000715,7782,WL,B,1.0
2,1.9639999866485596,learn,58036.00001335144,Wed Mar 18 2026 14:37:37 GMT-0500 (Central Daylight Time),298912.3000000715,A,st,O,t,230,1,1963.5,296948.8000000715,7782,WL,B,1.0
2,2.197999954223633,learn,57802.00004577637,Wed Mar 18 2026 14:37:37 GMT-0500 (Central Daylight Time),299146.10000002384,A,str,O,r,211,1,2197.2999999523163,296948.8000000715,7782,WL,B,1.0
2,2.5460000038146973,learn,57453.9999961853,Wed Mar 18 2026 14:37:37 GMT-0500 (Central Daylight Time),299494.60000002384,A,stre,O,e,336,1,2545.7999999523163,296948.8000000715,7782,WL,B,1.0
2,2.680000066757202,learn,57319.9999332428,Wed Mar 18 2026 14:37:37 GMT-0500 (Central Daylight Time),299628.89999997616,A,stree,O,e,118,1,2680.0999999046326,296948.8000000715,7782,WL,B,1.0
2,2.813999891281128,learn,57186.00010871887,Wed Mar 18 2026 14:37:37 GMT-0500 (Central Daylight Time),299762.60000002384,A,street,O,t,128,1,2813.7999999523163,296948.8000000715,7782,WL,B,1.0
2,3.312000036239624,learn,56687.999963760376,Wed Mar 18 2026 14:37:37 GMT-0500 (Central Daylight Time),300260.60000002384,A,streetg,O,g,478,1,3311.7999999523163,296948.8000000715,7782,WL,B,1.0
2,3.547999858856201,learn,56452.0001411438,Wed Mar 18 2026 14:37:37 GMT-0500 (Central Daylight Time),300496.89999997616,A,streetgr,O,r,224,1,3548.0999999046326,296948.8000000715,7782,WL,B,1.0
2,3.6480000019073486,learn,56351.99999809265,Wed Mar 18 2026 14:37:37 GMT-0500 (Central Daylight Time),300596.8000000715,A,streetgra,O,a,88,1,3648.0,296948.8000000715,7782,WL,B,1.0
2,3.9800000190734863,learn,56019.999980926514,Wed Mar 18 2026 14:37:37 GMT-0500 (Central Daylight Time),300928.5,A,streetgras,O,s,320,1,3979.6999999284744,296948.8000000715,7782,WL,B,1.0
2,4.129999876022339,learn,55870.00012397766,Wed Mar 18 2026 14:37:37 GMT-0500 (Central Daylight Time),301078.7000000477,A,streetgrass,O,s,132,1,4129.899999976158,296948.8000000715,7782,WL,B,1.0
2,4.614000082015991,learn,55385.99991798401,Wed Mar 18 2026 14:37:37 GMT-0500 (Central Daylight Time),301562.3000000715,A,streetgrassenter,O,enter,470,1,4613.5,296948.8000000715,7782,WL,B,1.0
2,13.010999917984009,learn,46989.00008201599,Wed Mar 18 2026 14:37:37 GMT-0500 (Central Daylight Time),309959.39999997616,A,s,O,s,8379,1,8396.899999976158,301562.5,7782,WL,B,2.0
2,13.210000038146973,learn,46789.99996185303,Wed Mar 18 2026 14:37:37 GMT-0500 (Central Daylight Time),310158.10000002384,A,st,O,t,180,1,8595.600000023842,301562.5,7782,WL,B,2.0
2,13.410000085830688,learn,46589.99991416931,Wed Mar 18 2026 14:37:37 GMT-0500 (Central Daylight Time),310359.0,A,str,O,r,183,1,8796.5,301562.5,7782,WL,B,2.0
2,13.809999942779541,learn,46190.00005722046,Wed Mar 18 2026 14:37:37 GMT-0500 (Central Daylight Time),310758.89999997616,A,stre,O,e,389,1,9196.399999976158,301562.5,7782,WL,B,2.0
2,13.960000038146973,learn,46039.99996185303,Wed Mar 18 2026 14:37:37 GMT-0500 (Central Daylight Time),310908.8000000715,A,stree,O,e,131,1,9346.300000071526,301562.5,7782,WL,B,2.0
2,14.128000020980835,learn,45871.999979019165,Wed Mar 18 2026 14:37:37 GMT-0500 (Central Daylight Time),311076.89999997616,A,street,O,t,160,1,9514.399999976158,301562.5,7782,WL,B,2.0
2,15.359999895095825,learn,44640.000104904175,Wed Mar 18 2026 14:37:37 GMT-0500 (Central Daylight Time),312308.7000000477,A,streetenter,O,enter,1214,1,10746.200000047684,301562.5,7782,WL,B,2.0
2,16.310999870300293,learn,43689.00012969971,Wed Mar 18 2026 14:37:37 GMT-0500 (Central Daylight Time),313259.2000000477,A,g,O,g,944,1,950.2000000476837,312309.0,7782,WL,B,3.0
2,16.54200005531311,learn,43457.99994468689,Wed Mar 18 2026 14:37:37 GMT-0500 (Central Daylight Time),313490.8000000715,A,gr,O,r,225,1,1181.8000000715256,312309.0,7782,WL,B,3.0
2,16.70899987220764,learn,43291.00012779236,Wed Mar 18 2026 14:37:37 GMT-0500 (Central Daylight Time),313657.5,A,gra,O,a,154,1,1348.5,312309.0,7782,WL,B,3.0
2,17.127000093460083,learn,42872.99990653992,Wed Mar 18 2026 14:37:37 GMT-0500 (Central Daylight Time),314075.8000000715,A,gras,O,s,412,1,1766.8000000715256,312309.0,7782,WL,B,3.0
2,17.257999897003174,learn,42742.000102996826,Wed Mar 18 2026 14:37:37 GMT-0500 (Central Daylight Time),314206.60000002384,A,grass,O,s,118,1,1897.6000000238419,312309.0,7782,WL,B,3.0
2,17.55900001525879,learn,42440.99998474121,Wed Mar 18 2026 14:37:37 GMT-0500 (Central Daylight Time),314507.7000000477,A,grassenter,O,enter,295,1,2198.7000000476837,312309.0,7782,WL,B,3.0
2,18.240999937057495,learn,41759.000062942505,Wed Mar 18 2026 14:37:37 GMT-0500 (Central Daylight Time),315189.60000002384,A,d,O,d,663,1,681.6000000238419,314508.0,7782,WL,B,4.0
2,18.575999975204468,learn,41424.00002479553,Wed Mar 18 2026 14:37:37 GMT-0500 (Central Daylight Time),315524.2000000477,A,do,O,o,330,1,1016.2000000476837,314508.0,7782,WL,B,4.0
2,18.72499990463257,learn,41275.00009536743,Wed Mar 18 2026 14:37:37 GMT-0500 (Central Daylight Time),315673.8000000715,A,doo,O,o,134,1,1165.8000000715256,314508.0,7782,WL,B,4.0
2,18.925999879837036,learn,41074.000120162964,Wed Mar 18 2026 14:37:37 GMT-0500 (Central Daylight Time),315874.5,A,door,O,r,187,1,1366.5,314508.0,7782,WL,B,4.0
2,20.056999921798706,learn,39943.000078201294,Wed Mar 18 2026 14:37:37 GMT-0500 (Central Daylight Time),317005.89999997616,A,doorenter,O,enter,1121,1,2497.899999976158,314508.0,7782,WL,B,4.0
2,20.657999992370605,learn,39342.000007629395,Wed Mar 18 2026 14:37:37 GMT-0500 (Central Daylight Time),317607.0,A,w,O,w,582,1,600.8999999761581,317006.10000002384,7782,WL,B,5.0
2,20.89299988746643,learn,39107.00011253357,Wed Mar 18 2026 14:37:37 GMT-0500 (Central Daylight Time),317841.8000000715,A,wi,O,i,213,1,835.7000000476837,317006.10000002384,7782,WL,B,5.0
2,21.058000087738037,learn,38941.99991226196,Wed Mar 18 2026 14:37:37 GMT-0500 (Central Daylight Time),318006.5,A,win,O,n,154,1,1000.3999999761581,317006.10000002384,7782,WL,B,5.0
2,21.55900001525879,learn,38440.99998474121,Wed Mar 18 2026 14:37:37 GMT-0500 (Central Daylight Time),318507.60000002384,A,wind,O,d,479,1,1501.5,317006.10000002384,7782,WL,B,5.0
2,22.125,learn,37875.0,Wed Mar 18 2026 14:37:37 GMT-0500 (Central Daylight Time),319073.2000000477,A,windo,O,o,552,1,2067.100000023842,317006.10000002384,7782,WL,B,5.0
2,22.608999967575073,learn,37391.00003242493,Wed Mar 18 2026 14:37:37 GMT-0500 (Central Daylight Time),319558.0,A,window,O,w,480,1,2551.899999976158,317006.10000002384,7782,WL,B,5.0
2,23.19099998474121,learn,36809.00001525879,Wed Mar 18 2026 14:37:37 GMT-0500 (Central Daylight Time),320139.7000000477,A,windowenter,O,enter,560,1,3133.600000023842,317006.10000002384,7782,WL,B,5.0
2,24.19000005722046,learn,35809.99994277954,Wed Mar 18 2026 14:37:37 GMT-0500 (Central Daylight Time),321138.3000000715,A,d,O,d,985,1,998.3000000715256,320140.0,7782,WL,B,6.0
2,24.591000080108643,learn,35408.99991989136,Wed Mar 18 2026 14:37:37 GMT-0500 (Central Daylight Time),321539.10000002384,A,do,O,o,376,1,1399.1000000238419,320140.0,7782,WL,B,6.0
2,24.723999977111816,learn,35276.00002288818,Wed Mar 18 2026 14:37:37 GMT-0500 (Central Daylight Time),321672.0,A,doo,O,o,119,1,1532.0,320140.0,7782,WL,B,6.0
2,25.00600004196167,learn,34993.99995803833,Wed Mar 18 2026 14:37:37 GMT-0500 (Central Daylight Time),321955.0,A,door,O,r,272,1,1815.0,320140.0,7782,WL,B,6.0
2,25.60599994659424,learn,34394.00005340576,Wed Mar 18 2026 14:37:37 GMT-0500 (Central Daylight Time),322554.8000000715,A,doorenter,O,enter,594,1,2414.8000000715256,320140.0,7782,WL,B,6.0
2,29.688999891281128,learn,30311.000108718872,Wed Mar 18 2026 14:37:37 GMT-0500 (Central Daylight Time),326637.2000000477,A,s,O,s,4076,1,4082.100000023842,322555.10000002384,7782,WL,B,7.0
2,29.97099995613098,learn,30029.00004386902,Wed Mar 18 2026 14:37:37 GMT-0500 (Central Daylight Time),326919.8000000715,A,st,O,t,268,1,4364.700000047684,322555.10000002384,7782,WL,B,7.0
2,30.08899998664856,learn,29911.00001335144,Wed Mar 18 2026 14:37:37 GMT-0500 (Central Daylight Time),327037.39999997616,A,sta,O,a,106,1,4482.299999952316,322555.10000002384,7782,WL,B,7.0
2,30.203999996185303,learn,29796.000003814697,Wed Mar 18 2026 14:37:37 GMT-0500 (Central Daylight Time),327152.60000002384,A,star,O,r,103,1,4597.5,322555.10000002384,7782,WL,B,7.0
2,30.888000011444092,learn,29111.99998855591,Wed Mar 18 2026 14:37:37 GMT-0500 (Central Daylight Time),327836.2000000477,A,starenter,O,enter,676,1,5281.100000023842,322555.10000002384,7782,WL,B,7.0
2,31.335999965667725,learn,28664.000034332275,Wed Mar 18 2026 14:37:37 GMT-0500 (Central Daylight Time),328284.89999997616,A,c,O,c,431,1,448.5,327836.39999997616,7782,WL,B,8.0
2,31.671000003814697,learn,28328.999996185303,Wed Mar 18 2026 14:37:37 GMT-0500 (Central Daylight Time),328619.7000000477,A,ci,O,i,322,1,783.3000000715256,327836.39999997616,7782,WL,B,8.0
2,32.07099986076355,learn,27929.00013923645,Wed Mar 18 2026 14:37:37 GMT-0500 (Central Daylight Time),329019.7000000477,A,cit,O,t,391,1,1183.3000000715256,327836.39999997616,7782,WL,B,8.0
2,32.25499987602234,learn,27745.00012397766,Wed Mar 18 2026 14:37:37 GMT-0500 (Central Daylight Time),329203.5,A,city,O,y,173,1,1367.1000000238419,327836.39999997616,7782,WL,B,8.0
2,32.920000076293945,learn,27079.999923706055,Wed Mar 18 2026 14:37:37 GMT-0500 (Central Daylight Time),329868.7000000477,A,cityenter,O,enter,648,1,2032.3000000715256,327836.39999997616,7782,WL,B,8.0
2,33.57200002670288,learn,26427.99997329712,Wed Mar 18 2026 14:37:37 GMT-0500 (Central Daylight Time),330520.5,A,p,O,p,642,1,651.5,329869.0,7782,WL,B,9.0
2,33.82200002670288,learn,26177.99997329712,Wed Mar 18 2026 14:37:37 GMT-0500 (Central Daylight Time),330770.10000002384,A,pu,O,u,228,1,901.1000000238419,329869.0,7782,WL,B,9.0
2,34.055999994277954,learn,25944.000005722046,Wed Mar 18 2026 14:37:37 GMT-0500 (Central Daylight Time),331005.10000002384,A,pup,O,p,218,1,1136.1000000238419,329869.0,7782,WL,B,9.0
2,34.454999923706055,learn,25545.000076293945,Wed Mar 18 2026 14:37:37 GMT-0500 (Central Daylight Time),331403.39999997616,A,pupi,O,i,392,1,1534.3999999761581,329869.0,7782,WL,B,9.0
2,34.9539999961853,learn,25046.000003814697,Wed Mar 18 2026 14:37:37 GMT-0500 (Central Daylight Time),331902.5,A,pupil,O,l,490,1,2033.5,329869.0,7782,WL,B,9.0
2,35.753000020980835,learn,24246.999979019165,Wed Mar 18 2026 14:37:37 GMT-0500 (Central Daylight Time),332701.3000000715,A,pupilenter,O,enter,781,1,2832.3000000715256,329869.0,7782,WL,B,9.0
2,38.00399994850159,learn,21996.000051498413,Wed Mar 18 2026 14:37:37 GMT-0500 (Central Daylight Time),334952.2000000477,A,a,O,a,2239,1,2250.7000000476837,332701.5,7782,WL,B,10.0
2,38.13700008392334,learn,21862.99991607666,Wed Mar 18 2026 14:37:37 GMT-0500 (Central Daylight Time),335085.3000000715,A,ar,O,r,110,1,2383.8000000715256,332701.5,7782,WL,B,10.0
2,38.98799991607666,learn,21012.00008392334,Wed Mar 18 2026 14:37:37 GMT-0500 (Central Daylight Time),335936.10000002384,A,arm,O,m,838,1,3234.600000023842,332701.5,7782,WL,B,10.0
2,40.43400001525879,learn,19565.99998474121,Wed Mar 18 2026 14:37:37 GMT-0500 (Central Daylight Time),337382.89999997616,A,armenter,O,enter,1427,1,4681.399999976158,332701.5,7782,WL,B,10.0
2,42.93400001525879,learn,17065.99998474121,Wed Mar 18 2026 14:37:37 GMT-0500 (Central Daylight Time),339882.60000002384,A,c,O,c,2477,1,2499.399999976158,337383.2000000477,7782,WL,B,11.0
2,43.050999879837036,learn,16949.000120162964,Wed Mar 18 2026 14:37:37 GMT-0500 (Central Daylight Time),339999.3000000715,A,ca,O,a,104,1,2616.100000023842,337383.2000000477,7782,WL,B,11.0
2,43.36699986457825,learn,16633.000135421753,Wed Mar 18 2026 14:37:37 GMT-0500 (Central Daylight Time),340315.7000000477,A,cab,O,b,309,1,2932.5,337383.2000000477,7782,WL,B,11.0
2,43.84999990463257,learn,16150.000095367432,Wed Mar 18 2026 14:37:37 GMT-0500 (Central Daylight Time),340798.60000002384,A,cabi,O,i,472,1,3415.399999976158,337383.2000000477,7782,WL,B,11.0
2,44.1029999256134,learn,15897.000074386597,Wed Mar 18 2026 14:37:37 GMT-0500 (Central Daylight Time),341051.0,A,cabin,O,n,231,1,3667.7999999523163,337383.2000000477,7782,WL,B,11.0
2,45.0,learn,15000.0,Wed Mar 18 2026 14:37:37 GMT-0500 (Central Daylight Time),341948.8000000715,A,cabinenter,O,enter,891,1,4565.600000023842,337383.2000000477,7782,WL,B,11.0
2,45.43300008773804,learn,14566.999912261963,Wed Mar 18 2026 14:37:37 GMT-0500 (Central Daylight Time),342381.8000000715,A,p,O,p,423,1,432.7000000476837,341949.10000002384,7782,WL,B,12.0
2,45.61800003051758,learn,14381.999969482422,Wed Mar 18 2026 14:37:37 GMT-0500 (Central Daylight Time),342566.10000002384,A,pi,O,i,174,1,617.0,341949.10000002384,7782,WL,B,12.0
2,45.78399991989136,learn,14216.000080108643,Wed Mar 18 2026 14:37:37 GMT-0500 (Central Daylight Time),342732.89999997616,A,pip,O,p,157,1,783.7999999523163,341949.10000002384,7782,WL,B,12.0
2,46.09999990463257,learn,13900.000095367432,Wed Mar 18 2026 14:37:37 GMT-0500 (Central Daylight Time),343048.60000002384,A,pipe,O,e,295,1,1099.5,341949.10000002384,7782,WL,B,12.0
2,46.2979998588562,learn,13702.000141143799,Wed Mar 18 2026 14:37:37 GMT-0500 (Central Daylight Time),343246.5,A,pipeenter,O,enter,188,1,1297.3999999761581,341949.10000002384,7782,WL,B,12.0
2,49.88100004196167,learn,10118.99995803833,Wed Mar 18 2026 14:37:37 GMT-0500 (Central Daylight Time),346829.60000002384,A,l,O,l,3573,1,3582.7999999523163,343246.8000000715,7782,WL,B,13.0
2,50.03200006484985,learn,9967.999935150146,Wed Mar 18 2026 14:37:37 GMT-0500 (Central Daylight Time),346980.2000000477,A,la,O,a,129,1,3733.399999976158,343246.8000000715,7782,WL,B,13.0
2,50.24900007247925,learn,9750.999927520752,Wed Mar 18 2026 14:37:37 GMT-0500 (Central Daylight Time),347197.2000000477,A,lak,O,k,193,1,3950.399999976158,343246.8000000715,7782,WL,B,13.0
2,50.4689998626709,learn,9531.000137329102,Wed Mar 18 2026 14:37:37 GMT-0500 (Central Daylight Time),347417.10000002384,A,lake,O,e,206,1,4170.299999952316,343246.8000000715,7782,WL,B,13.0
2,50.81399989128113,learn,9186.000108718872,Wed Mar 18 2026 14:37:37 GMT-0500 (Central Daylight Time),347762.60000002384,A,lakeenter,O,enter,331,1,4515.799999952316,343246.8000000715,7782,WL,B,13.0
2,54.12999987602234,learn,5870.000123977661,Wed Mar 18 2026 14:37:37 GMT-0500 (Central Daylight Time),351078.8000000715,A,s,O,s,3299,1,3316.0,347762.8000000715,7782,WL,B,14.0
2,54.664000034332275,learn,5335.999965667725,Wed Mar 18 2026 14:37:37 GMT-0500 (Central Daylight Time),351613.10000002384,A,sk,O,k,526,1,3850.2999999523163,347762.8000000715,7782,WL,B,14.0
2,54.9300000667572,learn,5069.999933242798,Wed Mar 18 2026 14:37:37 GMT-0500 (Central Daylight Time),351878.60000002384,A,ski,O,i,253,1,4115.799999952316,347762.8000000715,7782,WL,B,14.0
2,55.11400008201599,learn,4885.999917984009,Wed Mar 18 2026 14:37:37 GMT-0500 (Central Daylight Time),352062.2000000477,A,skin,O,n,173,1,4299.399999976158,347762.8000000715,7782,WL,B,14.0
2,55.979000091552734,learn,4020.9999084472656,Wed Mar 18 2026 14:37:37 GMT-0500 (Central Daylight Time),352927.89999997616,A,skinenter,O,enter,845,1,5165.099999904633,347762.8000000715,7782,WL,B,14.0
2,60.01200008392334,learn,-12.000083923339844,Wed Mar 18 2026 14:37:37 GMT-0500 (Central Daylight Time),356960.10000002384,A,None,O,None,4027,1,4031.899999976158,352928.2000000477,7782,WL,B,15.0
3,1.4500000476837158,learn,58549.999952316284,Wed Mar 18 2026 14:37:37 GMT-0500 (Central Daylight Time),435803.60000002384,A,s,O,s,1441,1,1450.1000000238419,434353.5,7782,WL,B,1.0
3,1.6669998168945312,learn,58333.00018310547,Wed Mar 18 2026 14:37:37 GMT-0500 (Central Daylight Time),436020.3000000715,A,st,O,t,204,1,1666.8000000715256,434353.5,7782,WL,B,1.0
3,1.9149999618530273,learn,58085.00003814697,Wed Mar 18 2026 14:37:37 GMT-0500 (Central Daylight Time),436268.2000000477,A,str,O,r,231,1,1914.7000000476837,434353.5,7782,WL,B,1.0
3,2.297999858856201,learn,57702.0001411438,Wed Mar 18 2026 14:37:37 GMT-0500 (Central Daylight Time),436651.39999997616,A,stre,O,e,363,1,2297.899999976158,434353.5,7782,WL,B,1.0
3,2.4489998817443848,learn,57551.000118255615,Wed Mar 18 2026 14:37:37 GMT-0500 (Central Daylight Time),436802.3000000715,A,stree,O,e,134,1,2448.8000000715256,434353.5,7782,WL,B,1.0
3,2.5989999771118164,learn,57401.00002288818,Wed Mar 18 2026 14:37:37 GMT-0500 (Central Daylight Time),436952.39999997616,A,street,O,t,138,1,2598.899999976158,434353.5,7782,WL,B,1.0
3,3.8309998512268066,learn,56169.00014877319,Wed Mar 18 2026 14:37:37 GMT-0500 (Central Daylight Time),438184.10000002384,A,streetenter,O,enter,1218,1,3830.600000023842,434353.5,7782,WL,B,1.0
3,4.365000009536743,learn,55634.99999046326,Wed Mar 18 2026 14:37:37 GMT-0500 (Central Daylight Time),438718.3000000715,A,g,O,g,517,1,533.9000000953674,438184.39999997616,7782,WL,B,2.0
3,4.613999843597412,learn,55386.00015640259,Wed Mar 18 2026 14:37:37 GMT-0500 (Central Daylight Time),438967.5,A,gr,O,r,230,1,783.1000000238419,438184.39999997616,7782,WL,B,2.0
3,4.71399998664856,learn,55286.00001335144,Wed Mar 18 2026 14:37:37 GMT-0500 (Central Daylight Time),439067.10000002384,A,gra,O,a,89,1,882.7000000476837,438184.39999997616,7782,WL,B,2.0
3,5.0980000495910645,learn,54901.999950408936,Wed Mar 18 2026 14:37:37 GMT-0500 (Central Daylight Time),439451.39999997616,A,gras,O,s,362,1,1267.0,438184.39999997616,7782,WL,B,2.0
3,5.230999946594238,learn,54769.00005340576,Wed Mar 18 2026 14:37:37 GMT-0500 (Central Daylight Time),439584.10000002384,A,grass,O,s,109,1,1399.7000000476837,438184.39999997616,7782,WL,B,2.0
3,5.447000026702881,learn,54552.99997329712,Wed Mar 18 2026 14:37:37 GMT-0500 (Central Daylight Time),439800.8000000715,A,grassenter,O,enter,201,1,1616.4000000953674,438184.39999997616,7782,WL,B,2.0
3,7.046000003814697,learn,52953.9999961853,Wed Mar 18 2026 14:37:37 GMT-0500 (Central Daylight Time),441399.10000002384,A,d,O,d,1588,1,1598.0,439801.10000002384,7782,WL,B,3.0
3,7.429999828338623,learn,52570.00017166138,Wed Mar 18 2026 14:37:37 GMT-0500 (Central Daylight Time),441783.5,A,do,O,o,368,1,1982.3999999761581,439801.10000002384,7782,WL,B,3.0
3,7.577999830245972,learn,52422.00016975403,Wed Mar 18 2026 14:37:37 GMT-0500 (Central Daylight Time),441931.60000002384,A,doo,O,o,137,1,2130.5,439801.10000002384,7782,WL,B,3.0
3,8.129999876022339,learn,51870.00012397766,Wed Mar 18 2026 14:37:37 GMT-0500 (Central Daylight Time),442483.8000000715,A,door,O,r,547,1,2682.7000000476837,439801.10000002384,7782,WL,B,3.0
3,8.91100001335144,learn,51088.99998664856,Wed Mar 18 2026 14:37:37 GMT-0500 (Central Daylight Time),443264.8000000715,A,doorenter,O,enter,758,1,3463.7000000476837,439801.10000002384,7782,WL,B,3.0
3,9.316999912261963,learn,50683.00008773804,Wed Mar 18 2026 14:37:37 GMT-0500 (Central Daylight Time),443670.2000000477,A,a,O,a,380,1,405.10000002384186,443265.10000002384,7782,WL,B,4.0
3,9.712999820709229,learn,50287.00017929077,Wed Mar 18 2026 14:37:37 GMT-0500 (Central Daylight Time),444066.2000000477,A,ar,O,r,388,1,801.1000000238419,443265.10000002384,7782,WL,B,4.0
3,10.11299991607666,learn,49887.00008392334,Wed Mar 18 2026 14:37:37 GMT-0500 (Central Daylight Time),444466.3000000715,A,arm,O,m,385,1,1201.2000000476837,443265.10000002384,7782,WL,B,4.0
3,10.779000043869019,learn,49220.99995613098,Wed Mar 18 2026 14:37:37 GMT-0500 (Central Daylight Time),445132.10000002384,A,armenter,O,enter,647,1,1867.0,443265.10000002384,7782,WL,B,4.0
3,14.260999917984009,learn,45739.00008201599,Wed Mar 18 2026 14:37:37 GMT-0500 (Central Daylight Time),448614.3000000715,A,w,O,w,3473,1,3482.0,445132.3000000715,7782,WL,B,5.0
3,14.393999814987183,learn,45606.00018501282,Wed Mar 18 2026 14:37:37 GMT-0500 (Central Daylight Time),448747.7000000477,A,wi,O,i,114,1,3615.399999976158,445132.3000000715,7782,WL,B,5.0
3,14.827999830245972,learn,45172.00016975403,Wed Mar 18 2026 14:37:37 GMT-0500 (Central Daylight Time),449181.10000002384,A,wif,O,f,415,1,4048.7999999523163,445132.3000000715,7782,WL,B,5.0
3,15.294999837875366,learn,44705.000162124634,Wed Mar 18 2026 14:37:37 GMT-0500 (Central Daylight Time),449648.39999997616,A,wife,O,e,453,1,4516.099999904633,445132.3000000715,7782,WL,B,5.0
3,15.65999984741211,learn,44340.00015258789,Wed Mar 18 2026 14:37:37 GMT-0500 (Central Daylight Time),450013.7000000477,A,wifeenter,O,enter,351,1,4881.399999976158,445132.3000000715,7782,WL,B,5.0
3,16.026999950408936,learn,43973.000049591064,Wed Mar 18 2026 14:37:37 GMT-0500 (Central Daylight Time),450380.3000000715,A,s,O,s,351,1,366.40000009536743,450013.89999997616,7782,WL,B,6.0
3,16.378000020980835,learn,43621.999979019165,Wed Mar 18 2026 14:37:37 GMT-0500 (Central Daylight Time),450731.5,A,st,O,t,336,1,717.6000000238419,450013.89999997616,7782,WL,B,6.0
3,16.592999935150146,learn,43407.00006484985,Wed Mar 18 2026 14:37:37 GMT-0500 (Central Daylight Time),450946.39999997616,A,sta,O,a,205,1,932.5,450013.89999997616,7782,WL,B,6.0
3,16.777999877929688,learn,43222.00012207031,Wed Mar 18 2026 14:37:37 GMT-0500 (Central Daylight Time),451131.60000002384,A,star,O,r,171,1,1117.7000000476837,450013.89999997616,7782,WL,B,6.0
3,17.47699999809265,learn,42523.00000190735,Wed Mar 18 2026 14:37:37 GMT-0500 (Central Daylight Time),451830.0,A,starenter,O,enter,687,1,1816.1000000238419,450013.89999997616,7782,WL,B,6.0
3,17.859999895095825,learn,42140.000104904175,Wed Mar 18 2026 14:37:37 GMT-0500 (Central Daylight Time),452213.0,A,w,O,w,375,1,382.6999999284744,451830.3000000715,7782,WL,B,7.0
3,18.126999855041504,learn,41873.000144958496,Wed Mar 18 2026 14:37:37 GMT-0500 (Central Daylight Time),452480.2000000477,A,wi,O,i,244,1,649.8999999761581,451830.3000000715,7782,WL,B,7.0
3,18.292999982833862,learn,41707.00001716614,Wed Mar 18 2026 14:37:37 GMT-0500 (Central Daylight Time),452646.0,A,win,O,n,154,1,815.6999999284744,451830.3000000715,7782,WL,B,7.0
3,18.758999824523926,learn,41241.000175476074,Wed Mar 18 2026 14:37:37 GMT-0500 (Central Daylight Time),453112.8000000715,A,wind,O,d,453,1,1282.5,451830.3000000715,7782,WL,B,7.0
3,19.092999935150146,learn,40907.00006484985,Wed Mar 18 2026 14:37:37 GMT-0500 (Central Daylight Time),453446.3000000715,A,windo,O,o,320,1,1616.0,451830.3000000715,7782,WL,B,7.0
3,19.442999839782715,learn,40557.000160217285,Wed Mar 18 2026 14:37:37 GMT-0500 (Central Daylight Time),453796.0,A,window,O,w,340,1,1965.6999999284744,451830.3000000715,7782,WL,B,7.0
3,19.82699990272522,learn,40173.00009727478,Wed Mar 18 2026 14:37:37 GMT-0500 (Central Daylight Time),454179.89999997616,A,windowenter,O,enter,366,1,2349.5999999046326,451830.3000000715,7782,WL,B,7.0
3,20.674999952316284,learn,39325.000047683716,Wed Mar 18 2026 14:37:37 GMT-0500 (Central Daylight Time),455028.7000000477,A,c,O,c,841,1,848.5,454180.2000000477,7782,WL,B,8.0
3,20.95899987220764,learn,39041.00012779236,Wed Mar 18 2026 14:37:37 GMT-0500 (Central Daylight Time),455312.60000002384,A,ci,O,i,277,1,1132.3999999761581,454180.2000000477,7782,WL,B,8.0
3,21.276000022888184,learn,38723.99997711182,Wed Mar 18 2026 14:37:37 GMT-0500 (Central Daylight Time),455629.2000000477,A,cit,O,t,301,1,1449.0,454180.2000000477,7782,WL,B,8.0
3,21.47599983215332,learn,38524.00016784668,Wed Mar 18 2026 14:37:37 GMT-0500 (Central Daylight Time),455829.10000002384,A,city,O,y,188,1,1648.8999999761581,454180.2000000477,7782,WL,B,8.0
3,22.174999952316284,learn,37825.000047683716,Wed Mar 18 2026 14:37:37 GMT-0500 (Central Daylight Time),456528.3000000715,A,cityenter,O,enter,677,1,2348.100000023842,454180.2000000477,7782,WL,B,8.0
3,23.825000047683716,learn,36174.999952316284,Wed Mar 18 2026 14:37:37 GMT-0500 (Central Daylight Time),458178.39999997616,A,p,O,p,1630,1,1649.7999999523163,456528.60000002384,7782,WL,B,9.0
3,24.340999841690063,learn,35659.00015830994,Wed Mar 18 2026 14:37:37 GMT-0500 (Central Daylight Time),458694.5,A,pu,O,u,505,1,2165.899999976158,456528.60000002384,7782,WL,B,9.0
3,24.62399983406067,learn,35376.00016593933,Wed Mar 18 2026 14:37:37 GMT-0500 (Central Daylight Time),458978.0,A,pup,O,p,269,1,2449.399999976158,456528.60000002384,7782,WL,B,9.0
3,24.924000024795532,learn,35075.99997520447,Wed Mar 18 2026 14:37:37 GMT-0500 (Central Daylight Time),459277.39999997616,A,pupi,O,i,289,1,2748.7999999523163,456528.60000002384,7782,WL,B,9.0
3,25.12399983406067,learn,34876.00016593933,Wed Mar 18 2026 14:37:37 GMT-0500 (Central Daylight Time),459477.60000002384,A,pupil,O,l,187,1,2949.0,456528.60000002384,7782,WL,B,9.0
3,26.12399983406067,learn,33876.00016593933,Wed Mar 18 2026 14:37:37 GMT-0500 (Central Daylight Time),460477.39999997616,A,pupilenter,O,enter,987,1,3948.7999999523163,456528.60000002384,7782,WL,B,9.0
3,31.177000045776367,learn,28822.999954223633,Wed Mar 18 2026 14:37:37 GMT-0500 (Central Daylight Time),465530.7000000477,A,c,O,c,5049,1,5053.0,460477.7000000477,7782,WL,B,10.0
3,31.57200002670288,learn,28427.99997329712,Wed Mar 18 2026 14:37:37 GMT-0500 (Central Daylight Time),465925.0,A,ca,O,a,388,1,5447.299999952316,460477.7000000477,7782,WL,B,10.0
3,32.121999979019165,learn,27878.000020980835,Wed Mar 18 2026 14:37:37 GMT-0500 (Central Daylight Time),466475.0,A,cab,O,b,535,1,5997.299999952316,460477.7000000477,7782,WL,B,10.0
3,32.60599994659424,learn,27394.00005340576,Wed Mar 18 2026 14:37:37 GMT-0500 (Central Daylight Time),466959.0,A,cabi,O,i,468,1,6481.299999952316,460477.7000000477,7782,WL,B,10.0
3,32.85599994659424,learn,27144.00005340576,Wed Mar 18 2026 14:37:37 GMT-0500 (Central Daylight Time),467209.10000002384,A,cabin,O,n,227,1,6731.399999976158,460477.7000000477,7782,WL,B,10.0
3,33.45599985122681,learn,26544.000148773193,Wed Mar 18 2026 14:37:37 GMT-0500 (Central Daylight Time),467809.10000002384,A,cabinenter,O,enter,579,1,7331.399999976158,460477.7000000477,7782,WL,B,10.0
3,33.83799982070923,learn,26162.00017929077,Wed Mar 18 2026 14:37:37 GMT-0500 (Central Daylight Time),468191.8000000715,A,l,O,l,371,1,382.5,467809.3000000715,7782,WL,B,11.0
3,34.78699994087219,learn,25213.000059127808,Wed Mar 18 2026 14:37:37 GMT-0500 (Central Daylight Time),469140.3000000715,A,la,O,a,937,1,1331.0,467809.3000000715,7782,WL,B,11.0
3,34.9210000038147,learn,25078.999996185303,Wed Mar 18 2026 14:37:37 GMT-0500 (Central Daylight Time),469274.10000002384,A,lak,O,k,129,1,1464.7999999523163,467809.3000000715,7782,WL,B,11.0
3,35.103999853134155,learn,24896.000146865845,Wed Mar 18 2026 14:37:37 GMT-0500 (Central Daylight Time),469457.2000000477,A,lake,O,e,179,1,1647.8999999761581,467809.3000000715,7782,WL,B,11.0
3,35.83799982070923,learn,24162.00017929077,Wed Mar 18 2026 14:37:37 GMT-0500 (Central Daylight Time),470191.3000000715,A,lakeenter,O,enter,726,1,2382.0,467809.3000000715,7782,WL,B,11.0
3,36.47099995613098,learn,23529.00004386902,Wed Mar 18 2026 14:37:37 GMT-0500 (Central Daylight Time),470824.10000002384,A,p,O,p,622,1,632.5,470191.60000002384,7782,WL,B,12.0
3,36.770999908447266,learn,23229.000091552734,Wed Mar 18 2026 14:37:37 GMT-0500 (Central Daylight Time),471124.60000002384,A,pi,O,i,285,1,933.0,470191.60000002384,7782,WL,B,12.0
3,36.98699998855591,learn,23013.00001144409,Wed Mar 18 2026 14:37:37 GMT-0500 (Central Daylight Time),471340.8000000715,A,pip,O,p,201,1,1149.2000000476837,470191.60000002384,7782,WL,B,12.0
3,37.437999963760376,learn,22562.000036239624,Wed Mar 18 2026 14:37:37 GMT-0500 (Central Daylight Time),471791.7000000477,A,pipe,O,e,433,1,1600.1000000238419,470191.60000002384,7782,WL,B,12.0
3,37.787999868392944,learn,22212.000131607056,Wed Mar 18 2026 14:37:37 GMT-0500 (Central Daylight Time),472140.89999997616,A,pipeenter,O,enter,327,1,1949.2999999523163,470191.60000002384,7782,WL,B,12.0
3,38.2039999961853,learn,21796.000003814697,Wed Mar 18 2026 14:37:37 GMT-0500 (Central Daylight Time),472556.89999997616,A,s,O,s,396,1,415.7999999523163,472141.10000002384,7782,WL,B,13.0
3,38.520999908447266,learn,21479.000091552734,Wed Mar 18 2026 14:37:37 GMT-0500 (Central Daylight Time),472874.60000002384,A,sk,O,k,314,1,733.5,472141.10000002384,7782,WL,B,13.0
3,38.75399994850159,learn,21246.000051498413,Wed Mar 18 2026 14:37:37 GMT-0500 (Central Daylight Time),473107.0,A,ski,O,i,219,1,965.8999999761581,472141.10000002384,7782,WL,B,13.0
3,39.07099986076355,learn,20929.00013923645,Wed Mar 18 2026 14:37:37 GMT-0500 (Central Daylight Time),473424.3000000715,A,skin,O,n,298,1,1283.2000000476837,472141.10000002384,7782,WL,B,13.0
3,39.73799991607666,learn,20262.00008392334,Wed Mar 18 2026 14:37:37 GMT-0500 (Central Daylight Time),474090.89999997616,A,skinenter,O,enter,653,1,1949.7999999523163,472141.10000002384,7782,WL,B,13.0
3,40.4539999961853,learn,19546.000003814697,Wed Mar 18 2026 14:37:37 GMT-0500 (Central Daylight Time),474807.0,A,f,O,f,697,1,715.7999999523163,474091.2000000477,7782,WL,B,14.0
3,40.73799991607666,learn,19262.00008392334,Wed Mar 18 2026 14:37:37 GMT-0500 (Central Daylight Time),475091.10000002384,A,fi,O,i,279,1,999.8999999761581,474091.2000000477,7782,WL,B,14.0
3,41.234999895095825,learn,18765.000104904175,Wed Mar 18 2026 14:37:37 GMT-0500 (Central Daylight Time),475588.10000002384,A,fir,O,r,488,1,1496.8999999761581,474091.2000000477,7782,WL,B,14.0
3,41.53699994087219,learn,18463.000059127808,Wed Mar 18 2026 14:37:37 GMT-0500 (Central Daylight Time),475890.5,A,fire,O,e,281,1,1799.2999999523163,474091.2000000477,7782,WL,B,14.0
3,41.80200004577637,learn,18197.999954223633,Wed Mar 18 2026 14:37:37 GMT-0500 (Central Daylight Time),476155.60000002384,A,fireenter,O,enter,259,1,2064.399999976158,474091.2000000477,7782,WL,B,14.0
3,43.48599982261658,learn,16514.000177383423,Wed Mar 18 2026 14:37:37 GMT-0500 (Central Daylight Time),477839.0,A,c,O,c,1664,1,1682.8999999761581,476156.10000002384,7782,WL,B,15.0
3,43.78499984741211,learn,16215.00015258789,Wed Mar 18 2026 14:37:37 GMT-0500 (Central Daylight Time),478138.0,A,cl,O,l,284,1,1981.8999999761581,476156.10000002384,7782,WL,B,15.0
3,43.96799993515015,learn,16032.000064849854,Wed Mar 18 2026 14:37:37 GMT-0500 (Central Daylight Time),478321.5,A,clo,O,o,169,1,2165.399999976158,476156.10000002384,7782,WL,B,15.0
3,44.23399996757507,learn,15766.000032424927,Wed Mar 18 2026 14:37:37 GMT-0500 (Central Daylight Time),478587.5,A,cloc,O,c,249,1,2431.399999976158,476156.10000002384,7782,WL,B,15.0
3,44.55200004577637,learn,15447.999954223633,Wed Mar 18 2026 14:37:37 GMT-0500 (Central Daylight Time),478905.89999997616,A,clock,O,k,299,1,2749.7999999523163,476156.10000002384,7782,WL,B,15.0
3,46.10099983215332,learn,13899.00016784668,Wed Mar 18 2026 14:37:37 GMT-0500 (Central Daylight Time),480455.0,A,clockenter,O,enter,1531,1,4298.899999976158,476156.10000002384,7782,WL,B,15.0
4,0.9040000438690186,learn,59095.99995613098,Wed Mar 18 2026 14:37:37 GMT-0500 (Central Daylight Time),559835.5,A,s,O,s,879,1,904.2999999523163,558931.2000000477,7782,WL,B,1.0
4,1.1990001201629639,learn,58800.999879837036,Wed Mar 18 2026 14:37:37 GMT-0500 (Central Daylight Time),560130.1000000238,A,st,O,t,282,1,1198.8999999761581,558931.2000000477,7782,WL,B,1.0
4,1.4470000267028809,learn,58552.99997329712,Wed Mar 18 2026 14:37:37 GMT-0500 (Central Daylight Time),560378.6000000238,A,str,O,r,229,1,1447.3999999761581,558931.2000000477,7782,WL,B,1.0
4,1.8489999771118164,learn,58151.00002288818,Wed Mar 18 2026 14:37:37 GMT-0500 (Central Daylight Time),560779.8000000715,A,stre,O,e,383,1,1848.6000000238419,558931.2000000477,7782,WL,B,1.0
4,1.9649999141693115,learn,58035.00008583069,Wed Mar 18 2026 14:37:37 GMT-0500 (Central Daylight Time),560896.3999999762,A,stree,O,e,96,1,1965.1999999284744,558931.2000000477,7782,WL,B,1.0
4,2.1649999618530273,learn,57835.00003814697,Wed Mar 18 2026 14:37:37 GMT-0500 (Central Daylight Time),561096.0,A,street,O,t,184,1,2164.7999999523163,558931.2000000477,7782,WL,B,1.0
4,2.8970000743865967,learn,57102.9999256134,Wed Mar 18 2026 14:37:37 GMT-0500 (Central Daylight Time),561828.3999999762,A,streetenter,O,enter,716,1,2897.1999999284744,558931.2000000477,7782,WL,B,1.0
4,3.9800000190734863,learn,56019.999980926514,Wed Mar 18 2026 14:37:37 GMT-0500 (Central Daylight Time),562911.2000000477,A,g,O,g,1065,1,1082.5,561828.7000000477,7782,WL,B,2.0
4,4.213000059127808,learn,55786.99994087219,Wed Mar 18 2026 14:37:37 GMT-0500 (Central Daylight Time),563144.3999999762,A,gr,O,r,211,1,1315.6999999284744,561828.7000000477,7782,WL,B,2.0
4,4.397000074386597,learn,55602.9999256134,Wed Mar 18 2026 14:37:37 GMT-0500 (Central Daylight Time),563328.1000000238,A,gra,O,a,161,1,1499.3999999761581,561828.7000000477,7782,WL,B,2.0
4,4.829999923706055,learn,55170.000076293945,Wed Mar 18 2026 14:37:37 GMT-0500 (Central Daylight Time),563761.6000000238,A,gras,O,s,418,1,1932.8999999761581,561828.7000000477,7782,WL,B,2.0
4,4.963000059127808,learn,55036.99994087219,Wed Mar 18 2026 14:37:37 GMT-0500 (Central Daylight Time),563894.0,A,grass,O,s,123,1,2065.2999999523163,561828.7000000477,7782,WL,B,2.0
4,5.13100004196167,learn,54868.99995803833,Wed Mar 18 2026 14:37:37 GMT-0500 (Central Daylight Time),564061.8000000715,A,grassenter,O,enter,155,1,2233.100000023842,561828.7000000477,7782,WL,B,2.0
4,6.5959999561309814,learn,53404.00004386902,Wed Mar 18 2026 14:37:37 GMT-0500 (Central Daylight Time),565527.6000000238,A,d,O,d,1447,1,1465.5,564062.1000000238,7782,WL,B,3.0
4,6.963000059127808,learn,53036.99994087219,Wed Mar 18 2026 14:37:37 GMT-0500 (Central Daylight Time),565893.8000000715,A,do,O,o,348,1,1831.7000000476837,564062.1000000238,7782,WL,B,3.0
4,7.078999996185303,learn,52921.0000038147,Wed Mar 18 2026 14:37:37 GMT-0500 (Central Daylight Time),566010.3000000715,A,doo,O,o,107,1,1948.2000000476837,564062.1000000238,7782,WL,B,3.0
4,7.5959999561309814,learn,52404.00004386902,Wed Mar 18 2026 14:37:37 GMT-0500 (Central Daylight Time),566526.6000000238,A,door,O,r,497,1,2464.5,564062.1000000238,7782,WL,B,3.0
4,8.26200008392334,learn,51737.99991607666,Wed Mar 18 2026 14:37:37 GMT-0500 (Central Daylight Time),567193.0,A,doorenter,O,enter,652,1,3130.899999976158,564062.1000000238,7782,WL,B,3.0
4,10.42799997329712,learn,49572.00002670288,Wed Mar 18 2026 14:37:37 GMT-0500 (Central Daylight Time),569358.8999999762,A,a,O,a,2149,1,2165.6999999284744,567193.2000000477,7782,WL,B,4.0
4,10.776999950408936,learn,49223.000049591064,Wed Mar 18 2026 14:37:37 GMT-0500 (Central Daylight Time),569708.0,A,ar,O,r,339,1,2514.7999999523163,567193.2000000477,7782,WL,B,4.0
4,11.594000101089478,learn,48405.99989891052,Wed Mar 18 2026 14:37:37 GMT-0500 (Central Daylight Time),570525.3999999762,A,arm,O,m,801,1,3332.1999999284744,567193.2000000477,7782,WL,B,4.0
4,12.144999980926514,learn,47855.000019073486,Wed Mar 18 2026 14:37:37 GMT-0500 (Central Daylight Time),571075.7000000477,A,armenter,O,enter,540,1,3882.5,567193.2000000477,7782,WL,B,4.0
4,12.57800006866455,learn,47421.99993133545,Wed Mar 18 2026 14:37:37 GMT-0500 (Central Daylight Time),571509.0,A,s,O,s,417,1,433.10000002384186,571075.8999999762,7782,WL,B,5.0
4,12.976999998092651,learn,47023.00000190735,Wed Mar 18 2026 14:37:37 GMT-0500 (Central Daylight Time),571908.3000000715,A,st,O,t,394,1,832.4000000953674,571075.8999999762,7782,WL,B,5.0
4,13.480999946594238,learn,46519.00005340576,Wed Mar 18 2026 14:37:37 GMT-0500 (Central Daylight Time),572411.7000000477,A,sta,O,a,486,1,1335.8000000715256,571075.8999999762,7782,WL,B,5.0
4,13.677000045776367,learn,46322.99995422363,Wed Mar 18 2026 14:37:37 GMT-0500 (Central Daylight Time),572608.2000000477,A,star,O,r,174,1,1532.3000000715256,571075.8999999762,7782,WL,B,5.0
4,14.327000141143799,learn,45672.9998588562,Wed Mar 18 2026 14:37:37 GMT-0500 (Central Daylight Time),573258.3000000715,A,starenter,O,enter,643,1,2182.4000000953674,571075.8999999762,7782,WL,B,5.0
4,14.778000116348267,learn,45221.99988365173,Wed Mar 18 2026 14:37:37 GMT-0500 (Central Daylight Time),573709.0,A,w,O,w,442,1,449.89999997615814,573259.1000000238,7782,WL,B,6.0
4,15.094000101089478,learn,44905.99989891052,Wed Mar 18 2026 14:37:37 GMT-0500 (Central Daylight Time),574025.3000000715,A,wi,O,i,300,1,766.2000000476837,573259.1000000238,7782,WL,B,6.0
4,15.4760000705719,learn,44523.9999294281,Wed Mar 18 2026 14:37:37 GMT-0500 (Central Daylight Time),574407.5,A,wif,O,f,359,1,1148.3999999761581,573259.1000000238,7782,WL,B,6.0
4,15.858999967575073,learn,44141.00003242493,Wed Mar 18 2026 14:37:37 GMT-0500 (Central Daylight Time),574790.6000000238,A,wife,O,e,371,1,1531.5,573259.1000000238,7782,WL,B,6.0
4,16.377000093460083,learn,43622.99990653992,Wed Mar 18 2026 14:37:37 GMT-0500 (Central Daylight Time),575308.2000000477,A,wifeenter,O,enter,499,1,2049.100000023842,573259.1000000238,7782,WL,B,6.0
4,20.27500009536743,learn,39724.99990463257,Wed Mar 18 2026 14:37:37 GMT-0500 (Central Daylight Time),579205.8000000715,A,w,O,w,3889,1,3897.4000000953674,575308.3999999762,7782,WL,B,7.0
4,20.676000118255615,learn,39323.999881744385,Wed Mar 18 2026 14:37:37 GMT-0500 (Central Daylight Time),579607.0,A,wi,O,i,390,1,4298.600000023842,575308.3999999762,7782,WL,B,7.0
4,20.858999967575073,learn,39141.00003242493,Wed Mar 18 2026 14:37:37 GMT-0500 (Central Daylight Time),579789.8000000715,A,win,O,n,163,1,4481.400000095367,575308.3999999762,7782,WL,B,7.0
4,21.141000032424927,learn,38858.99996757507,Wed Mar 18 2026 14:37:37 GMT-0500 (Central Daylight Time),580072.5,A,wind,O,d,270,1,4764.100000023842,575308.3999999762,7782,WL,B,7.0
4,21.276000022888184,learn,38723.99997711182,Wed Mar 18 2026 14:37:37 GMT-0500 (Central Daylight Time),580207.2000000477,A,windo,O,o,122,1,4898.800000071526,575308.3999999762,7782,WL,B,7.0
4,21.490999937057495,learn,38509.000062942505,Wed Mar 18 2026 14:37:37 GMT-0500 (Central Daylight Time),580422.3999999762,A,window,O,w,202,1,5114.0,575308.3999999762,7782,WL,B,7.0
4,21.975000143051147,learn,38024.99985694885,Wed Mar 18 2026 14:37:37 GMT-0500 (Central Daylight Time),580905.7000000477,A,windowenter,O,enter,469,1,5597.300000071526,575308.3999999762,7782,WL,B,7.0
4,24.424999952316284,learn,35575.000047683716,Wed Mar 18 2026 14:37:37 GMT-0500 (Central Daylight Time),583356.7000000477,A,c,O,c,2434,1,2450.8000000715256,580905.8999999762,7782,WL,B,8.0
4,24.723999977111816,learn,35276.00002288818,Wed Mar 18 2026 14:37:37 GMT-0500 (Central Daylight Time),583655.2000000477,A,ci,O,i,277,1,2749.3000000715256,580905.8999999762,7782,WL,B,8.0
4,25.074000120162964,learn,34925.999879837036,Wed Mar 18 2026 14:37:37 GMT-0500 (Central Daylight Time),584005.6000000238,A,cit,O,t,338,1,3099.7000000476837,580905.8999999762,7782,WL,B,8.0
4,25.206000089645386,learn,34793.999910354614,Wed Mar 18 2026 14:37:37 GMT-0500 (Central Daylight Time),584137.5,A,city,O,y,117,1,3231.600000023842,580905.8999999762,7782,WL,B,8.0
4,25.67300009727478,learn,34326.99990272522,Wed Mar 18 2026 14:37:37 GMT-0500 (Central Daylight Time),584604.2000000477,A,cityenter,O,enter,458,1,3698.3000000715256,580905.8999999762,7782,WL,B,8.0
4,26.056999921798706,learn,33943.000078201294,Wed Mar 18 2026 14:37:37 GMT-0500 (Central Daylight Time),584988.3999999762,A,p,O,p,377,1,383.89999997615814,584604.5,7782,WL,B,9.0
4,26.456000089645386,learn,33543.999910354614,Wed Mar 18 2026 14:37:37 GMT-0500 (Central Daylight Time),585387.0,A,pu,O,u,383,1,782.5,584604.5,7782,WL,B,9.0
4,26.706000089645386,learn,33293.999910354614,Wed Mar 18 2026 14:37:37 GMT-0500 (Central Daylight Time),585637.2000000477,A,pup,O,p,232,1,1032.7000000476837,584604.5,7782,WL,B,9.0
4,27.08999991416931,learn,32910.00008583069,Wed Mar 18 2026 14:37:37 GMT-0500 (Central Daylight Time),586021.1000000238,A,pupi,O,i,378,1,1416.6000000238419,584604.5,7782,WL,B,9.0
4,27.306999921798706,learn,32693.000078201294,Wed Mar 18 2026 14:37:37 GMT-0500 (Central Daylight Time),586238.5,A,pupil,O,l,194,1,1634.0,584604.5,7782,WL,B,9.0
4,27.788000106811523,learn,32211.999893188477,Wed Mar 18 2026 14:37:37 GMT-0500 (Central Daylight Time),586719.5,A,pupilenter,O,enter,461,1,2115.0,584604.5,7782,WL,B,9.0
4,31.805999994277954,learn,28194.000005722046,Wed Mar 18 2026 14:37:37 GMT-0500 (Central Daylight Time),590737.0,A,c,O,c,4006,1,4017.1999999284744,586719.8000000715,7782,WL,B,10.0
4,32.355000019073486,learn,27644.999980926514,Wed Mar 18 2026 14:37:37 GMT-0500 (Central Daylight Time),591286.2000000477,A,ca,O,a,533,1,4566.399999976158,586719.8000000715,7782,WL,B,10.0
4,32.82100009918213,learn,27178.99990081787,Wed Mar 18 2026 14:37:37 GMT-0500 (Central Daylight Time),591752.3999999762,A,cab,O,b,457,1,5032.599999904633,586719.8000000715,7782,WL,B,10.0
4,33.1710000038147,learn,26828.999996185303,Wed Mar 18 2026 14:37:37 GMT-0500 (Central Daylight Time),592102.3999999762,A,cabi,O,i,346,1,5382.599999904633,586719.8000000715,7782,WL,B,10.0
4,33.38700008392334,learn,26612.99991607666,Wed Mar 18 2026 14:37:37 GMT-0500 (Central Daylight Time),592317.8999999762,A,cabin,O,n,206,1,5598.099999904633,586719.8000000715,7782,WL,B,10.0
4,34.00399994850159,learn,25996.000051498413,Wed Mar 18 2026 14:37:37 GMT-0500 (Central Daylight Time),592934.8999999762,A,cabinenter,O,enter,610,1,6215.099999904633,586719.8000000715,7782,WL,B,10.0
4,34.37000012397766,learn,25629.99987602234,Wed Mar 18 2026 14:37:37 GMT-0500 (Central Daylight Time),593301.3000000715,A,l,O,l,349,1,366.10000002384186,592935.2000000477,7782,WL,B,11.0
4,34.687999963760376,learn,25312.000036239624,Wed Mar 18 2026 14:37:37 GMT-0500 (Central Daylight Time),593619.2000000477,A,la,O,a,313,1,684.0,592935.2000000477,7782,WL,B,11.0
4,34.97099995613098,learn,25029.00004386902,Wed Mar 18 2026 14:37:37 GMT-0500 (Central Daylight Time),593902.2000000477,A,lak,O,k,263,1,967.0,592935.2000000477,7782,WL,B,11.0
4,35.187999963760376,learn,24812.000036239624,Wed Mar 18 2026 14:37:37 GMT-0500 (Central Daylight Time),594119.2000000477,A,lake,O,e,207,1,1184.0,592935.2000000477,7782,WL,B,11.0
4,35.30400013923645,learn,24695.99986076355,Wed Mar 18 2026 14:37:37 GMT-0500 (Central Daylight Time),594234.7000000477,A,lakee,O,e,102,1,1299.5,592935.2000000477,7782,WL,B,11.0
4,35.687000036239624,learn,24312.999963760376,Wed Mar 18 2026 14:37:37 GMT-0500 (Central Daylight Time),594617.8999999762,A,lakeeenter,O,enter,375,1,1682.6999999284744,592935.2000000477,7782,WL,B,11.0
4,38.58500003814697,learn,21414.999961853027,Wed Mar 18 2026 14:37:37 GMT-0500 (Central Daylight Time),597516.3999999762,A,p,O,p,2890,1,2898.2999999523163,594618.1000000238,7782,WL,B,12.0
4,38.78600001335144,learn,21213.99998664856,Wed Mar 18 2026 14:37:37 GMT-0500 (Central Daylight Time),597717.0,A,pi,O,i,185,1,3098.899999976158,594618.1000000238,7782,WL,B,12.0
4,38.93600010871887,learn,21063.999891281128,Wed Mar 18 2026 14:37:37 GMT-0500 (Central Daylight Time),597866.8000000715,A,pip,O,p,136,1,3248.7000000476837,594618.1000000238,7782,WL,B,12.0
4,39.10199999809265,learn,20898.00000190735,Wed Mar 18 2026 14:37:37 GMT-0500 (Central Daylight Time),598032.8999999762,A,pipe,O,e,155,1,3414.7999999523163,594618.1000000238,7782,WL,B,12.0
4,39.401999950408936,learn,20598.000049591064,Wed Mar 18 2026 14:37:37 GMT-0500 (Central Daylight Time),598333.2000000477,A,pipeenter,O,enter,292,1,3715.100000023842,594618.1000000238,7782,WL,B,12.0
4,39.9520001411438,learn,20047.9998588562,Wed Mar 18 2026 14:37:37 GMT-0500 (Central Daylight Time),598883.6000000238,A,s,O,s,537,1,550.2000000476837,598333.3999999762,7782,WL,B,13.0
4,40.40300011634827,learn,19596.999883651733,Wed Mar 18 2026 14:37:37 GMT-0500 (Central Daylight Time),599334.2000000477,A,sk,O,k,447,1,1000.8000000715256,598333.3999999762,7782,WL,B,13.0
4,40.61800003051758,learn,19381.999969482422,Wed Mar 18 2026 14:37:37 GMT-0500 (Central Daylight Time),599549.8000000715,A,ski,O,i,206,1,1216.4000000953674,598333.3999999762,7782,WL,B,13.0
4,40.83400011062622,learn,19165.99988937378,Wed Mar 18 2026 14:37:37 GMT-0500 (Central Daylight Time),599765.8000000715,A,skin,O,n,208,1,1432.4000000953674,598333.3999999762,7782,WL,B,13.0
4,41.401000022888184,learn,18598.999977111816,Wed Mar 18 2026 14:37:37 GMT-0500 (Central Daylight Time),600332.3999999762,A,skinenter,O,enter,558,1,1999.0,598333.3999999762,7782,WL,B,13.0
4,42.235000133514404,learn,17764.999866485596,Wed Mar 18 2026 14:37:37 GMT-0500 (Central Daylight Time),601166.1000000238,A,c,O,c,818,1,833.5,600332.6000000238,7782,WL,B,14.0
4,42.35199999809265,learn,17648.00000190735,Wed Mar 18 2026 14:37:37 GMT-0500 (Central Daylight Time),601283.8999999762,A,cl,O,l,113,1,951.2999999523163,600332.6000000238,7782,WL,B,14.0
4,42.568000078201294,learn,17431.999921798706,Wed Mar 18 2026 14:37:37 GMT-0500 (Central Daylight Time),601499.1000000238,A,clo,O,o,199,1,1166.5,600332.6000000238,7782,WL,B,14.0
4,43.11899995803833,learn,16881.00004196167,Wed Mar 18 2026 14:37:37 GMT-0500 (Central Daylight Time),602050.1000000238,A,cloc,O,c,537,1,1717.5,600332.6000000238,7782,WL,B,14.0
4,43.384000062942505,learn,16615.999937057495,Wed Mar 18 2026 14:37:37 GMT-0500 (Central Daylight Time),602315.5,A,clock,O,k,244,1,1982.8999999761581,600332.6000000238,7782,WL,B,14.0
4,43.867000102996826,learn,16132.999897003174,Wed Mar 18 2026 14:37:37 GMT-0500 (Central Daylight Time),602798.3000000715,A,clockenter,O,enter,469,1,2465.7000000476837,600332.6000000238,7782,WL,B,14.0
4,55.53200006484985,learn,4467.9999351501465,Wed Mar 18 2026 14:37:37 GMT-0500 (Central Daylight Time),614463.1000000238,A,enter,O,enter,11656,1,11664.600000023842,602798.5,7782,WL,B,15.0
5,1.1329998970031738,learn,60000.0,Wed Mar 18 2026 14:37:37 GMT-0500 (Central Daylight Time),688071.2000000477,A,s,O,s,1120,1,1132.5,686938.7000000477,7782,WL,B,1.0
5,1.4660000801086426,learn,60000.0,Wed Mar 18 2026 14:37:37 GMT-0500 (Central Daylight Time),688404.2000000477,A,st,O,t,324,1,1465.5,686938.7000000477,7782,WL,B,1.0
5,1.7000000476837158,learn,60000.0,Wed Mar 18 2026 14:37:37 GMT-0500 (Central Daylight Time),688637.6000000238,A,str,O,r,214,1,1698.8999999761581,686938.7000000477,7782,WL,B,1.0
5,2.049999952316284,learn,60000.0,Wed Mar 18 2026 14:37:37 GMT-0500 (Central Daylight Time),688987.7000000477,A,stre,O,e,334,1,2049.0,686938.7000000477,7782,WL,B,1.0
5,2.184999942779541,learn,60000.0,Wed Mar 18 2026 14:37:37 GMT-0500 (Central Daylight Time),689122.3999999762,A,stree,O,e,127,1,2183.6999999284744,686938.7000000477,7782,WL,B,1.0
5,2.3499999046325684,learn,60000.0,Wed Mar 18 2026 14:37:37 GMT-0500 (Central Daylight Time),689287.5,A,street,O,t,146,1,2348.7999999523163,686938.7000000477,7782,WL,B,1.0
5,3.865999937057495,learn,60000.0,Wed Mar 18 2026 14:37:37 GMT-0500 (Central Daylight Time),690803.7000000477,A,streetenter,O,enter,1499,1,3865.0,686938.7000000477,7782,WL,B,1.0
5,5.697999954223633,learn,60000.0,Wed Mar 18 2026 14:37:37 GMT-0500 (Central Daylight Time),692636.2000000477,A,g,O,g,1817,1,1832.2000000476837,690804.0,7782,WL,B,2.0
5,5.931999921798706,learn,60000.0,Wed Mar 18 2026 14:37:37 GMT-0500 (Central Daylight Time),692869.7000000477,A,gr,O,r,215,1,2065.7000000476837,690804.0,7782,WL,B,2.0
5,6.098999977111816,learn,60000.0,Wed Mar 18 2026 14:37:37 GMT-0500 (Central Daylight Time),693037.3000000715,A,gra,O,a,157,1,2233.3000000715256,690804.0,7782,WL,B,2.0
5,6.13100004196167,learn,60000.0,Wed Mar 18 2026 14:37:37 GMT-0500 (Central Daylight Time),693068.3999999762,A,gras,O,s,14,1,2264.399999976158,690804.0,7782,WL,B,2.0
5,6.7149999141693115,learn,60000.0,Wed Mar 18 2026 14:37:37 GMT-0500 (Central Daylight Time),693652.5,A,grass,O,s,569,1,2848.5,690804.0,7782,WL,B,2.0
5,6.867000102996826,learn,60000.0,Wed Mar 18 2026 14:37:37 GMT-0500 (Central Daylight Time),693804.5,A,grasss,O,s,138,1,3000.5,690804.0,7782,WL,B,2.0
5,8.332000017166138,learn,60000.0,Wed Mar 18 2026 14:37:37 GMT-0500 (Central Daylight Time),695270.3000000715,A,grass,O,backspace,1458,1,4466.300000071526,690804.0,7782,WL,B,2.0
5,8.73199987411499,learn,60000.0,Wed Mar 18 2026 14:37:37 GMT-0500 (Central Daylight Time),695669.8999999762,A,grassenter,O,enter,391,1,4865.899999976158,690804.0,7782,WL,B,2.0
5,18.01099991798401,learn,60000.0,Wed Mar 18 2026 14:37:37 GMT-0500 (Central Daylight Time),704949.3999999762,A,d,O,d,9259,1,9279.299999952316,695670.1000000238,7782,WL,B,3.0
5,18.34500002861023,learn,60000.0,Wed Mar 18 2026 14:37:37 GMT-0500 (Central Daylight Time),705283.3000000715,A,do,O,o,325,1,9613.200000047684,695670.1000000238,7782,WL,B,3.0
5,18.494999885559082,learn,60000.0,Wed Mar 18 2026 14:37:37 GMT-0500 (Central Daylight Time),705433.0,A,doo,O,o,128,1,9762.899999976158,695670.1000000238,7782,WL,B,3.0
5,19.09500002861023,learn,60000.0,Wed Mar 18 2026 14:37:37 GMT-0500 (Central Daylight Time),706032.6000000238,A,door,O,r,584,1,10362.5,695670.1000000238,7782,WL,B,3.0
5,20.378000020980835,learn,60000.0,Wed Mar 18 2026 14:37:37 GMT-0500 (Central Daylight Time),707315.6000000238,A,doorenter,O,enter,1276,1,11645.5,695670.1000000238,7782,WL,B,3.0
5,29.492000102996826,learn,60000.0,Wed Mar 18 2026 14:37:37 GMT-0500 (Central Daylight Time),716430.1000000238,A,a,O,a,9094,1,9114.299999952316,707315.8000000715,7782,WL,B,4.0
5,29.825000047683716,learn,60000.0,Wed Mar 18 2026 14:37:37 GMT-0500 (Central Daylight Time),716763.1000000238,A,ar,O,r,327,1,9447.299999952316,707315.8000000715,7782,WL,B,4.0
5,31.256999969482422,learn,60000.0,Wed Mar 18 2026 14:37:37 GMT-0500 (Central Daylight Time),718194.7000000477,A,arm,O,m,1416,1,10878.899999976158,707315.8000000715,7782,WL,B,4.0
5,32.573999881744385,learn,60000.0,Wed Mar 18 2026 14:37:37 GMT-0500 (Central Daylight Time),719511.8999999762,A,armenter,O,enter,1305,1,12196.099999904633,707315.8000000715,7782,WL,B,4.0
5,32.94000005722046,learn,60000.0,Wed Mar 18 2026 14:37:37 GMT-0500 (Central Daylight Time),719878.1000000238,A,s,O,s,348,1,366.0,719512.1000000238,7782,WL,B,5.0
5,33.223999977111816,learn,60000.0,Wed Mar 18 2026 14:37:37 GMT-0500 (Central Daylight Time),720162.7000000477,A,st,O,t,262,1,650.6000000238419,719512.1000000238,7782,WL,B,5.0
5,33.33899998664856,learn,60000.0,Wed Mar 18 2026 14:37:37 GMT-0500 (Central Daylight Time),720277.3999999762,A,sta,O,a,96,1,765.2999999523163,719512.1000000238,7782,WL,B,5.0
5,33.45799994468689,learn,60000.0,Wed Mar 18 2026 14:37:37 GMT-0500 (Central Daylight Time),720395.8999999762,A,star,O,r,112,1,883.7999999523163,719512.1000000238,7782,WL,B,5.0
5,34.03999996185303,learn,60000.0,Wed Mar 18 2026 14:37:37 GMT-0500 (Central Daylight Time),720978.2000000477,A,starenter,O,enter,558,1,1466.1000000238419,719512.1000000238,7782,WL,B,5.0
5,34.60599994659424,learn,60000.0,Wed Mar 18 2026 14:37:37 GMT-0500 (Central Daylight Time),721544.7000000477,A,w,O,w,555,1,566.2000000476837,720978.5,7782,WL,B,6.0
5,34.823999881744385,learn,60000.0,Wed Mar 18 2026 14:37:37 GMT-0500 (Central Daylight Time),721762.6000000238,A,wi,O,i,211,1,784.1000000238419,720978.5,7782,WL,B,6.0
5,35.23900008201599,learn,60000.0,Wed Mar 18 2026 14:37:37 GMT-0500 (Central Daylight Time),722177.3000000715,A,wif,O,f,401,1,1198.8000000715256,720978.5,7782,WL,B,6.0
5,35.57299995422363,learn,60000.0,Wed Mar 18 2026 14:37:37 GMT-0500 (Central Daylight Time),722511.0,A,wife,O,e,321,1,1532.5,720978.5,7782,WL,B,6.0
5,36.020999908447266,learn,60000.0,Wed Mar 18 2026 14:37:37 GMT-0500 (Central Daylight Time),722959.3000000715,A,wifeenter,O,enter,430,1,1980.8000000715256,720978.5,7782,WL,B,6.0
5,38.07299995422363,learn,60000.0,Wed Mar 18 2026 14:37:37 GMT-0500 (Central Daylight Time),725011.2000000477,A,w,O,w,2045,1,2051.8000000715256,722959.3999999762,7782,WL,B,7.0
5,38.38800001144409,learn,60000.0,Wed Mar 18 2026 14:37:37 GMT-0500 (Central Daylight Time),725326.3999999762,A,wi,O,i,296,1,2367.0,722959.3999999762,7782,WL,B,7.0
5,38.57200002670288,learn,60000.0,Wed Mar 18 2026 14:37:37 GMT-0500 (Central Daylight Time),725510.3000000715,A,win,O,n,175,1,2550.9000000953674,722959.3999999762,7782,WL,B,7.0
5,38.90299987792969,learn,60000.0,Wed Mar 18 2026 14:37:37 GMT-0500 (Central Daylight Time),725841.5,A,wind,O,d,325,1,2882.100000023842,722959.3999999762,7782,WL,B,7.0
5,39.0220000743866,learn,60000.0,Wed Mar 18 2026 14:37:37 GMT-0500 (Central Daylight Time),725960.0,A,windo,O,o,108,1,3000.600000023842,722959.3999999762,7782,WL,B,7.0
5,39.25999999046326,learn,60000.0,Wed Mar 18 2026 14:37:37 GMT-0500 (Central Daylight Time),726198.0,A,window,O,w,235,1,3238.600000023842,722959.3999999762,7782,WL,B,7.0
5,40.43899989128113,learn,60000.0,Wed Mar 18 2026 14:37:37 GMT-0500 (Central Daylight Time),727376.8000000715,A,windowenter,O,enter,1170,1,4417.400000095367,722959.3999999762,7782,WL,B,7.0
5,42.55299997329712,learn,60000.0,Wed Mar 18 2026 14:37:37 GMT-0500 (Central Daylight Time),729491.8000000715,A,c,O,c,2108,1,2114.7000000476837,727377.1000000238,7782,WL,B,8.0
5,42.871999979019165,learn,60000.0,Wed Mar 18 2026 14:37:37 GMT-0500 (Central Daylight Time),729810.0,A,ci,O,i,295,1,2432.899999976158,727377.1000000238,7782,WL,B,8.0
5,43.187000036239624,learn,60000.0,Wed Mar 18 2026 14:37:37 GMT-0500 (Central Daylight Time),730125.0,A,cit,O,t,295,1,2747.899999976158,727377.1000000238,7782,WL,B,8.0
5,43.33800005912781,learn,60000.0,Wed Mar 18 2026 14:37:37 GMT-0500 (Central Daylight Time),730276.3000000715,A,city,O,y,143,1,2899.2000000476837,727377.1000000238,7782,WL,B,8.0
5,44.03600001335144,learn,60000.0,Wed Mar 18 2026 14:37:37 GMT-0500 (Central Daylight Time),730974.2000000477,A,cityenter,O,enter,680,1,3597.100000023842,727377.1000000238,7782,WL,B,8.0
5,44.520999908447266,learn,60000.0,Wed Mar 18 2026 14:37:37 GMT-0500 (Central Daylight Time),731458.8999999762,A,p,O,p,479,1,484.39999997615814,730974.5,7782,WL,B,9.0
5,44.819000005722046,learn,60000.0,Wed Mar 18 2026 14:37:37 GMT-0500 (Central Daylight Time),731757.8000000715,A,pu,O,u,280,1,783.3000000715256,730974.5,7782,WL,B,9.0
5,45.07100009918213,learn,60000.0,Wed Mar 18 2026 14:37:37 GMT-0500 (Central Daylight Time),732009.1000000238,A,pup,O,p,230,1,1034.6000000238419,730974.5,7782,WL,B,9.0
5,45.3199999332428,learn,60000.0,Wed Mar 18 2026 14:37:37 GMT-0500 (Central Daylight Time),732258.2000000477,A,pupi,O,i,235,1,1283.7000000476837,730974.5,7782,WL,B,9.0
5,45.503000020980835,learn,60000.0,Wed Mar 18 2026 14:37:37 GMT-0500 (Central Daylight Time),732441.1000000238,A,pupil,O,l,162,1,1466.6000000238419,730974.5,7782,WL,B,9.0
5,47.3529999256134,learn,60000.0,Wed Mar 18 2026 14:37:37 GMT-0500 (Central Daylight Time),734290.8000000715,A,pupilenter,O,enter,1843,1,3316.3000000715256,730974.5,7782,WL,B,9.0
5,52.299999952316284,learn,60000.0,Wed Mar 18 2026 14:37:37 GMT-0500 (Central Daylight Time),739237.8999999762,A,c,O,c,4938,1,4946.799999952316,734291.1000000238,7782,WL,B,10.0
5,52.984999895095825,learn,60000.0,Wed Mar 18 2026 14:37:37 GMT-0500 (Central Daylight Time),739923.7000000477,A,ca,O,a,680,1,5632.600000023842,734291.1000000238,7782,WL,B,10.0
5,53.3510000705719,learn,60000.0,Wed Mar 18 2026 14:37:37 GMT-0500 (Central Daylight Time),740289.1000000238,A,cab,O,b,343,1,5998.0,734291.1000000238,7782,WL,B,10.0
5,53.717000007629395,learn,60000.0,Wed Mar 18 2026 14:37:37 GMT-0500 (Central Daylight Time),740655.3999999762,A,cabi,O,i,346,1,6364.299999952316,734291.1000000238,7782,WL,B,10.0
5,54.03399991989136,learn,60000.0,Wed Mar 18 2026 14:37:37 GMT-0500 (Central Daylight Time),740972.1000000238,A,cabin,O,n,310,1,6681.0,734291.1000000238,7782,WL,B,10.0
5,54.617000102996826,learn,60000.0,Wed Mar 18 2026 14:37:37 GMT-0500 (Central Daylight Time),741554.8000000715,A,cabinenter,O,enter,576,1,7263.700000047684,734291.1000000238,7782,WL,B,10.0
5,55.00099992752075,learn,60000.0,Wed Mar 18 2026 14:37:37 GMT-0500 (Central Daylight Time),741939.8000000715,A,l,O,l,370,1,384.7000000476837,741555.1000000238,7782,WL,B,11.0
5,55.41499996185303,learn,60000.0,Wed Mar 18 2026 14:37:37 GMT-0500 (Central Daylight Time),742353.6000000238,A,la,O,a,401,1,798.5,741555.1000000238,7782,WL,B,11.0
5,55.78399991989136,learn,60000.0,Wed Mar 18 2026 14:37:37 GMT-0500 (Central Daylight Time),742722.8000000715,A,lak,O,k,347,1,1167.7000000476837,741555.1000000238,7782,WL,B,11.0
5,56.18400001525879,learn,60000.0,Wed Mar 18 2026 14:37:37 GMT-0500 (Central Daylight Time),743122.5,A,lake,O,e,394,1,1567.3999999761581,741555.1000000238,7782,WL,B,11.0
5,56.63199996948242,learn,60000.0,Wed Mar 18 2026 14:37:37 GMT-0500 (Central Daylight Time),743570.3999999762,A,lakeenter,O,enter,431,1,2015.2999999523163,741555.1000000238,7782,WL,B,11.0
5,57.348999977111816,learn,60000.0,Wed Mar 18 2026 14:37:37 GMT-0500 (Central Daylight Time),744287.1000000238,A,p,O,p,701,1,716.6000000238419,743570.5,7782,WL,B,12.0
5,57.581000089645386,learn,60000.0,Wed Mar 18 2026 14:37:37 GMT-0500 (Central Daylight Time),744519.5,A,pi,O,i,212,1,949.0,743570.5,7782,WL,B,12.0
5,57.74799990653992,learn,60000.0,Wed Mar 18 2026 14:37:37 GMT-0500 (Central Daylight Time),744686.3999999762,A,pip,O,p,149,1,1115.8999999761581,743570.5,7782,WL,B,12.0
5,58.181999921798706,learn,60000.0,Wed Mar 18 2026 14:37:37 GMT-0500 (Central Daylight Time),745120.3999999762,A,pipe,O,e,421,1,1549.8999999761581,743570.5,7782,WL,B,12.0
5,58.615999937057495,learn,60000.0,Wed Mar 18 2026 14:37:37 GMT-0500 (Central Daylight Time),745554.3999999762,A,pipeenter,O,enter,422,1,1983.8999999761581,743570.5,7782,WL,B,12.0
5,60.29800009727478,learn,60000.0,Wed Mar 18 2026 14:37:37 GMT-0500 (Central Daylight Time),747236.5,A,f,O,f,1677,1,1681.8999999761581,745554.6000000238,7782,WL,B,13.0
6,10.515000104904175,distr,49484.999895095825,Wed Mar 18 2026 14:37:37 GMT-0500 (Central Daylight Time),849504.3999999762,B,b,O,b,10496,1,10514.699999928474,838989.7000000477,7782,WL,B,1.0
6,10.766000032424927,distr,49233.99996757507,Wed Mar 18 2026 14:37:37 GMT-0500 (Central Daylight Time),849754.7000000477,B,ba,O,a,237,1,10765.0,838989.7000000477,7782,WL,B,1.0
6,10.914999961853027,distr,49085.00003814697,Wed Mar 18 2026 14:37:37 GMT-0500 (Central Daylight Time),849903.8999999762,B,bab,O,b,139,1,10914.199999928474,838989.7000000477,7782,WL,B,1.0
6,11.27999997138977,distr,48720.00002861023,Wed Mar 18 2026 14:37:37 GMT-0500 (Central Daylight Time),850269.3999999762,B,baby,O,y,356,1,11279.699999928474,838989.7000000477,7782,WL,B,1.0
6,11.966000080108643,distr,48033.99991989136,Wed Mar 18 2026 14:37:37 GMT-0500 (Central Daylight Time),850954.6000000238,B,babyenter,O,enter,680,1,11964.899999976158,838989.7000000477,7782,WL,B,1.0
6,12.564000129699707,distr,47435.99987030029,Wed Mar 18 2026 14:37:37 GMT-0500 (Central Daylight Time),851553.6000000238,B,o,O,o,585,1,598.7999999523163,850954.8000000715,7782,WL,B,2.0
6,13.013999938964844,distr,46986.000061035156,Wed Mar 18 2026 14:37:37 GMT-0500 (Central Daylight Time),852003.5,B,oc,O,c,438,1,1048.6999999284744,850954.8000000715,7782,WL,B,2.0
6,13.331000089645386,distr,46668.999910354614,Wed Mar 18 2026 14:37:37 GMT-0500 (Central Daylight Time),852320.5,B,oce,O,e,297,1,1365.6999999284744,850954.8000000715,7782,WL,B,2.0
6,13.430999994277954,distr,46569.000005722046,Wed Mar 18 2026 14:37:37 GMT-0500 (Central Daylight Time),852420.1000000238,B,ocea,O,a,93,1,1465.2999999523163,850954.8000000715,7782,WL,B,2.0
6,13.86299991607666,distr,46137.00008392334,Wed Mar 18 2026 14:37:37 GMT-0500 (Central Daylight Time),852852.5,B,ocean,O,n,417,1,1897.6999999284744,850954.8000000715,7782,WL,B,2.0
6,14.331000089645386,distr,45668.999910354614,Wed Mar 18 2026 14:37:37 GMT-0500 (Central Daylight Time),853320.1000000238,B,oceanenter,O,enter,446,1,2365.2999999523163,850954.8000000715,7782,WL,B,2.0
6,16.062000036239624,distr,43937.999963760376,Wed Mar 18 2026 14:37:37 GMT-0500 (Central Daylight Time),855051.6000000238,B,p,O,p,1726,1,1731.2999999523163,853320.3000000715,7782,WL,B,3.0
6,16.19700002670288,distr,43802.99997329712,Wed Mar 18 2026 14:37:37 GMT-0500 (Central Daylight Time),855185.8999999762,B,pa,O,a,116,1,1865.5999999046326,853320.3000000715,7782,WL,B,3.0
6,16.361999988555908,distr,43638.00001144409,Wed Mar 18 2026 14:37:37 GMT-0500 (Central Daylight Time),855351.3000000715,B,pal,O,l,155,1,2031.0,853320.3000000715,7782,WL,B,3.0
6,16.496999979019165,distr,43503.000020980835,Wed Mar 18 2026 14:37:37 GMT-0500 (Central Daylight Time),855486.3000000715,B,pala,O,a,122,1,2166.0,853320.3000000715,7782,WL,B,3.0
6,16.84599995613098,distr,43154.00004386902,Wed Mar 18 2026 14:37:37 GMT-0500 (Central Daylight Time),855835.3000000715,B,palac,O,c,336,1,2515.0,853320.3000000715,7782,WL,B,3.0
6,17.19600009918213,distr,42803.99990081787,Wed Mar 18 2026 14:37:37 GMT-0500 (Central Daylight Time),856185.1000000238,B,palace,O,e,330,1,2864.7999999523163,853320.3000000715,7782,WL,B,3.0
6,17.562999963760376,distr,42437.000036239624,Wed Mar 18 2026 14:37:37 GMT-0500 (Central Daylight Time),856552.1000000238,B,palaceenter,O,enter,346,1,3231.7999999523163,853320.3000000715,7782,WL,B,3.0
6,19.628000020980835,distr,40371.999979019165,Wed Mar 18 2026 14:37:37 GMT-0500 (Central Daylight Time),858617.0,B,b,O,b,2053,1,2064.6999999284744,856552.3000000715,7782,WL,B,4.0
6,19.812000036239624,distr,40187.999963760376,Wed Mar 18 2026 14:37:37 GMT-0500 (Central Daylight Time),858801.0,B,ba,O,a,162,1,2248.6999999284744,856552.3000000715,7782,WL,B,4.0
6,20.295000076293945,distr,39704.999923706055,Wed Mar 18 2026 14:37:37 GMT-0500 (Central Daylight Time),859284.0,B,bar,O,r,468,1,2731.6999999284744,856552.3000000715,7782,WL,B,4.0
6,21.342999935150146,distr,38657.00006484985,Wed Mar 18 2026 14:37:37 GMT-0500 (Central Daylight Time),860332.3000000715,B,barenter,O,enter,1040,1,3780.0,856552.3000000715,7782,WL,B,4.0
6,22.210000038146973,distr,37789.99996185303,Wed Mar 18 2026 14:37:37 GMT-0500 (Central Daylight Time),861199.0,B,l,O,l,849,1,866.6000000238419,860332.3999999762,7782,WL,B,5.0
6,22.528000116348267,distr,37471.99988365173,Wed Mar 18 2026 14:37:37 GMT-0500 (Central Daylight Time),861517.2000000477,B,li,O,i,312,1,1184.8000000715256,860332.3999999762,7782,WL,B,5.0
6,22.894999980926514,distr,37105.000019073486,Wed Mar 18 2026 14:37:37 GMT-0500 (Central Daylight Time),861883.8000000715,B,lip,O,p,361,1,1551.4000000953674,860332.3999999762,7782,WL,B,5.0
6,23.694000005722046,distr,36305.999994277954,Wed Mar 18 2026 14:37:37 GMT-0500 (Central Daylight Time),862682.7000000477,B,lipenter,O,enter,793,1,2350.3000000715256,860332.3999999762,7782,WL,B,5.0
6,24.375999927520752,distr,35624.00007247925,Wed Mar 18 2026 14:37:37 GMT-0500 (Central Daylight Time),863364.7000000477,B,d,O,d,666,1,681.6000000238419,862683.1000000238,7782,WL,B,6.0
6,24.55999994277954,distr,35440.00005722046,Wed Mar 18 2026 14:37:37 GMT-0500 (Central Daylight Time),863549.0,B,dr,O,r,168,1,865.8999999761581,862683.1000000238,7782,WL,B,6.0
6,24.710999965667725,distr,35289.000034332275,Wed Mar 18 2026 14:37:37 GMT-0500 (Central Daylight Time),863699.8000000715,B,dre,O,e,133,1,1016.7000000476837,862683.1000000238,7782,WL,B,6.0
6,25.30999994277954,distr,34690.00005722046,Wed Mar 18 2026 14:37:37 GMT-0500 (Central Daylight Time),864299.0,B,dres,O,s,586,1,1615.8999999761581,862683.1000000238,7782,WL,B,6.0
6,25.475000143051147,distr,34524.99985694885,Wed Mar 18 2026 14:37:37 GMT-0500 (Central Daylight Time),864464.5,B,dress,O,s,144,1,1781.3999999761581,862683.1000000238,7782,WL,B,6.0
6,25.742000102996826,distr,34257.999897003174,Wed Mar 18 2026 14:37:37 GMT-0500 (Central Daylight Time),864730.8000000715,B,dressenter,O,enter,252,1,2047.7000000476837,862683.1000000238,7782,WL,B,6.0
6,26.424999952316284,distr,33575.000047683716,Wed Mar 18 2026 14:37:37 GMT-0500 (Central Daylight Time),865414.3999999762,B,s,O,s,675,1,683.5,864730.8999999762,7782,WL,B,7.0
6,26.658999919891357,distr,33341.00008010864,Wed Mar 18 2026 14:37:37 GMT-0500 (Central Daylight Time),865648.5,B,st,O,t,215,1,917.6000000238419,864730.8999999762,7782,WL,B,7.0
6,26.877000093460083,distr,33122.99990653992,Wed Mar 18 2026 14:37:37 GMT-0500 (Central Daylight Time),865866.2000000477,B,ste,O,e,211,1,1135.3000000715256,864730.8999999762,7782,WL,B,7.0
6,27.05900001525879,distr,32940.99998474121,Wed Mar 18 2026 14:37:37 GMT-0500 (Central Daylight Time),866048.5,B,stea,O,a,169,1,1317.6000000238419,864730.8999999762,7782,WL,B,7.0
6,27.475000143051147,distr,32524.999856948853,Wed Mar 18 2026 14:37:37 GMT-0500 (Central Daylight Time),866464.5,B,steam,O,m,405,1,1733.6000000238419,864730.8999999762,7782,WL,B,7.0
6,28.0770001411438,distr,31922.9998588562,Wed Mar 18 2026 14:37:37 GMT-0500 (Central Daylight Time),867065.8999999762,B,steamenter,O,enter,590,1,2335.0,864730.8999999762,7782,WL,B,7.0
6,30.591000080108643,distr,29408.999919891357,Wed Mar 18 2026 14:37:37 GMT-0500 (Central Daylight Time),869579.7000000477,B,f,O,f,2508,1,2513.600000023842,867066.1000000238,7782,WL,B,8.0
6,30.742000102996826,distr,29257.999897003174,Wed Mar 18 2026 14:37:37 GMT-0500 (Central Daylight Time),869730.7000000477,B,fr,O,r,138,1,2664.600000023842,867066.1000000238,7782,WL,B,8.0
6,31.124000072479248,distr,28875.999927520752,Wed Mar 18 2026 14:37:37 GMT-0500 (Central Daylight Time),870113.5,B,fri,O,i,369,1,3047.399999976158,867066.1000000238,7782,WL,B,8.0
6,31.30900001525879,distr,28690.99998474121,Wed Mar 18 2026 14:37:37 GMT-0500 (Central Daylight Time),870298.3000000715,B,frie,O,e,179,1,3232.2000000476837,867066.1000000238,7782,WL,B,8.0
6,31.45799994468689,distr,28542.00005531311,Wed Mar 18 2026 14:37:37 GMT-0500 (Central Daylight Time),870446.8999999762,B,frien,O,n,138,1,3380.7999999523163,867066.1000000238,7782,WL,B,8.0
6,32.240999937057495,distr,27759.000062942505,Wed Mar 18 2026 14:37:37 GMT-0500 (Central Daylight Time),871229.8999999762,B,friend,O,d,773,1,4163.799999952316,867066.1000000238,7782,WL,B,8.0
6,33.10700011253357,distr,26892.99988746643,Wed Mar 18 2026 14:37:37 GMT-0500 (Central Daylight Time),872095.7000000477,B,friendenter,O,enter,853,1,5029.600000023842,867066.1000000238,7782,WL,B,8.0
6,33.79100012779236,distr,26208.99987220764,Wed Mar 18 2026 14:37:37 GMT-0500 (Central Daylight Time),872780.1000000238,B,v,O,v,680,1,684.1000000238419,872096.0,7782,WL,B,9.0
6,34.14100003242493,distr,25858.999967575073,Wed Mar 18 2026 14:37:37 GMT-0500 (Central Daylight Time),873129.8999999762,B,vi,O,i,337,1,1033.8999999761581,872096.0,7782,WL,B,9.0
6,34.42300009727478,distr,25576.99990272522,Wed Mar 18 2026 14:37:37 GMT-0500 (Central Daylight Time),873412.3999999762,B,vil,O,l,260,1,1316.3999999761581,872096.0,7782,WL,B,9.0
6,34.59100008010864,distr,25408.999919891357,Wed Mar 18 2026 14:37:37 GMT-0500 (Central Daylight Time),873580.2000000477,B,vill,O,l,155,1,1484.2000000476837,872096.0,7782,WL,B,9.0
6,34.742000102996826,distr,25257.999897003174,Wed Mar 18 2026 14:37:37 GMT-0500 (Central Daylight Time),873731.0,B,villa,O,a,138,1,1635.0,872096.0,7782,WL,B,9.0
6,34.99000000953674,distr,25009.999990463257,Wed Mar 18 2026 14:37:37 GMT-0500 (Central Daylight Time),873979.2000000477,B,villag,O,g,235,1,1883.2000000476837,872096.0,7782,WL,B,9.0
6,35.17400002479553,distr,24825.999975204468,Wed Mar 18 2026 14:37:37 GMT-0500 (Central Daylight Time),874163.5,B,village,O,e,169,1,2067.5,872096.0,7782,WL,B,9.0
6,35.67400002479553,distr,24325.999975204468,Wed Mar 18 2026 14:37:37 GMT-0500 (Central Daylight Time),874662.6000000238,B,villageenter,O,enter,489,1,2566.600000023842,872096.0,7782,WL,B,9.0
6,37.32200002670288,distr,22677.99997329712,Wed Mar 18 2026 14:37:37 GMT-0500 (Central Daylight Time),876311.5,B,c,O,c,1638,1,1648.5,874663.0,7782,WL,B,10.0
6,37.824000120162964,distr,22175.999879837036,Wed Mar 18 2026 14:37:37 GMT-0500 (Central Daylight Time),876812.8000000715,B,ce,O,e,496,1,2149.8000000715256,874663.0,7782,WL,B,10.0
6,38.23900008201599,distr,21760.99991798401,Wed Mar 18 2026 14:37:37 GMT-0500 (Central Daylight Time),877227.8000000715,B,cel,O,l,399,1,2564.8000000715256,874663.0,7782,WL,B,10.0
6,38.388999938964844,distr,21611.000061035156,Wed Mar 18 2026 14:37:37 GMT-0500 (Central Daylight Time),877378.3999999762,B,cell,O,l,139,1,2715.399999976158,874663.0,7782,WL,B,10.0
6,39.03999996185303,distr,20960.000038146973,Wed Mar 18 2026 14:37:37 GMT-0500 (Central Daylight Time),878028.8999999762,B,cellenter,O,enter,635,1,3365.899999976158,874663.0,7782,WL,B,10.0
6,39.687999963760376,distr,20312.000036239624,Wed Mar 18 2026 14:37:37 GMT-0500 (Central Daylight Time),878676.8999999762,B,a,O,a,631,1,647.7999999523163,878029.1000000238,7782,WL,B,11.0
6,40.02300000190735,distr,19976.99999809265,Wed Mar 18 2026 14:37:37 GMT-0500 (Central Daylight Time),879012.2000000477,B,ar,O,r,331,1,983.1000000238419,878029.1000000238,7782,WL,B,11.0
6,40.58899998664856,distr,19411.00001335144,Wed Mar 18 2026 14:37:37 GMT-0500 (Central Daylight Time),879578.3000000715,B,arm,O,m,552,1,1549.2000000476837,878029.1000000238,7782,WL,B,11.0
6,41.355000019073486,distr,18644.999980926514,Wed Mar 18 2026 14:37:37 GMT-0500 (Central Daylight Time),880343.8000000715,B,army,O,y,756,1,2314.7000000476837,878029.1000000238,7782,WL,B,11.0
6,42.0220000743866,distr,17977.999925613403,Wed Mar 18 2026 14:37:37 GMT-0500 (Central Daylight Time),881011.1000000238,B,armyenter,O,enter,661,1,2982.0,878029.1000000238,7782,WL,B,11.0
6,42.83899998664856,distr,17161.00001335144,Wed Mar 18 2026 14:37:37 GMT-0500 (Central Daylight Time),881828.3999999762,B,b,O,b,803,1,817.0999999046326,881011.3000000715,7782,WL,B,12.0
6,43.32100009918213,distr,16678.99990081787,Wed Mar 18 2026 14:37:37 GMT-0500 (Central Daylight Time),882310.3000000715,B,bu,O,u,465,1,1299.0,881011.3000000715,7782,WL,B,12.0
6,43.70300006866455,distr,16296.99993133545,Wed Mar 18 2026 14:37:37 GMT-0500 (Central Daylight Time),882692.2000000477,B,bui,O,i,365,1,1680.8999999761581,881011.3000000715,7782,WL,B,12.0
6,43.90300011634827,distr,16096.999883651733,Wed Mar 18 2026 14:37:37 GMT-0500 (Central Daylight Time),882892.3999999762,B,buik,O,k,179,1,1881.0999999046326,881011.3000000715,7782,WL,B,12.0
6,44.104000091552734,distr,15895.999908447266,Wed Mar 18 2026 14:37:37 GMT-0500 (Central Daylight Time),883092.8999999762,B,buikd,O,d,192,1,2081.5999999046326,881011.3000000715,7782,WL,B,12.0
6,44.30400013923645,distr,15695.99986076355,Wed Mar 18 2026 14:37:37 GMT-0500 (Central Daylight Time),883293.3000000715,B,buikdi,O,i,183,1,2282.0,881011.3000000715,7782,WL,B,12.0
6,44.48699998855591,distr,15513.000011444092,Wed Mar 18 2026 14:37:37 GMT-0500 (Central Daylight Time),883476.3999999762,B,buikdin,O,n,167,1,2465.0999999046326,881011.3000000715,7782,WL,B,12.0
6,44.65499997138977,distr,15345.00002861023,Wed Mar 18 2026 14:37:37 GMT-0500 (Central Daylight Time),883643.6000000238,B,buikding,O,g,151,1,2632.2999999523163,881011.3000000715,7782,WL,B,12.0
6,44.97099995613098,distr,15029.000043869019,Wed Mar 18 2026 14:37:37 GMT-0500 (Central Daylight Time),883959.8000000715,B,buikdingenter,O,enter,296,1,2948.5,881011.3000000715,7782,WL,B,12.0
6,53.13499999046326,distr,6865.000009536743,Wed Mar 18 2026 14:37:37 GMT-0500 (Central Daylight Time),892123.7000000477,B,c,O,c,8150,1,8163.600000023842,883960.1000000238,7782,WL,B,13.0
6,53.50200009346008,distr,6497.999906539917,Wed Mar 18 2026 14:37:37 GMT-0500 (Central Daylight Time),892490.7000000477,B,ce,O,e,353,1,8530.600000023842,883960.1000000238,7782,WL,B,13.0
6,53.901000022888184,distr,6098.999977111816,Wed Mar 18 2026 14:37:37 GMT-0500 (Central Daylight Time),892889.8999999762,B,cel,O,l,387,1,8929.799999952316,883960.1000000238,7782,WL,B,13.0
6,54.051000118255615,distr,5948.999881744385,Wed Mar 18 2026 14:37:37 GMT-0500 (Central Daylight Time),893039.6000000238,B,cell,O,l,131,1,9079.5,883960.1000000238,7782,WL,B,13.0
6,54.717000007629395,distr,5282.9999923706055,Wed Mar 18 2026 14:37:37 GMT-0500 (Central Daylight Time),893706.6000000238,B,cellenter,O,enter,659,1,9746.5,883960.1000000238,7782,WL,B,13.0
6,60.01600003242493,distr,-16.000032424926758,Wed Mar 18 2026 14:37:37 GMT-0500 (Central Daylight Time),899005.3999999762,B,None,O,None,5294,1,5298.699999928474,893706.7000000477,7782,WL,B,14.0
7,3.7850000858306885,immed,56214.99991416931,Wed Mar 18 2026 14:37:37 GMT-0500 (Central Daylight Time),914502.2000000477,A,s,O,s,3778,1,3785.100000023842,910717.1000000238,7782,WL,B,1.0
7,4.082000017166138,immed,55917.99998283386,Wed Mar 18 2026 14:37:37 GMT-0500 (Central Daylight Time),914799.8000000715,A,st,O,t,285,1,4082.7000000476837,910717.1000000238,7782,WL,B,1.0
7,4.2840001583099365,immed,55715.99984169006,Wed Mar 18 2026 14:37:37 GMT-0500 (Central Daylight Time),915001.1000000238,A,str,O,r,187,1,4284.0,910717.1000000238,7782,WL,B,1.0
7,4.648000001907349,immed,55351.99999809265,Wed Mar 18 2026 14:37:37 GMT-0500 (Central Daylight Time),915365.5,A,stre,O,e,353,1,4648.399999976158,910717.1000000238,7782,WL,B,1.0
7,4.781000137329102,immed,55218.9998626709,Wed Mar 18 2026 14:37:37 GMT-0500 (Central Daylight Time),915498.6000000238,A,stree,O,e,114,1,4781.5,910717.1000000238,7782,WL,B,1.0
7,4.934000015258789,immed,55065.99998474121,Wed Mar 18 2026 14:37:37 GMT-0500 (Central Daylight Time),915651.2000000477,A,street,O,t,150,1,4934.100000023842,910717.1000000238,7782,WL,B,1.0
7,5.465000152587891,immed,54534.99984741211,Wed Mar 18 2026 14:37:37 GMT-0500 (Central Daylight Time),916182.0,A,streetenter,O,enter,512,1,5464.899999976158,910717.1000000238,7782,WL,B,1.0
7,5.930999994277954,immed,54069.000005722046,Wed Mar 18 2026 14:37:37 GMT-0500 (Central Daylight Time),916648.6000000238,A,g,O,g,455,1,466.2999999523163,916182.3000000715,7782,WL,B,2.0
7,6.133000135421753,immed,53866.99986457825,Wed Mar 18 2026 14:37:37 GMT-0500 (Central Daylight Time),916850.6000000238,A,gr,O,r,193,1,668.2999999523163,916182.3000000715,7782,WL,B,2.0
7,6.281000137329102,immed,53718.9998626709,Wed Mar 18 2026 14:37:37 GMT-0500 (Central Daylight Time),916998.6000000238,A,gra,O,a,138,1,816.2999999523163,916182.3000000715,7782,WL,B,2.0
7,6.632000207901001,immed,53367.999792099,Wed Mar 18 2026 14:37:37 GMT-0500 (Central Daylight Time),917349.6000000238,A,gras,O,s,331,1,1167.2999999523163,916182.3000000715,7782,WL,B,2.0
7,6.764000177383423,immed,53235.99982261658,Wed Mar 18 2026 14:37:37 GMT-0500 (Central Daylight Time),917481.7000000477,A,grass,O,s,113,1,1299.3999999761581,916182.3000000715,7782,WL,B,2.0
7,6.996000051498413,immed,53003.99994850159,Wed Mar 18 2026 14:37:37 GMT-0500 (Central Daylight Time),917713.6000000238,A,grassenter,O,enter,210,1,1531.2999999523163,916182.3000000715,7782,WL,B,2.0
7,7.432000160217285,immed,52567.999839782715,Wed Mar 18 2026 14:37:37 GMT-0500 (Central Daylight Time),918149.6000000238,A,d,O,d,427,1,435.7000000476837,917713.8999999762,7782,WL,B,3.0
7,7.781000137329102,immed,52218.9998626709,Wed Mar 18 2026 14:37:37 GMT-0500 (Central Daylight Time),918498.7000000477,A,do,O,o,334,1,784.8000000715256,917713.8999999762,7782,WL,B,3.0
7,7.930000066757202,immed,52069.9999332428,Wed Mar 18 2026 14:37:37 GMT-0500 (Central Daylight Time),918647.8999999762,A,doo,O,o,127,1,934.0,917713.8999999762,7782,WL,B,3.0
7,8.598000049591064,immed,51401.999950408936,Wed Mar 18 2026 14:37:37 GMT-0500 (Central Daylight Time),919315.1000000238,A,door,O,r,658,1,1601.2000000476837,917713.8999999762,7782,WL,B,3.0
7,8.930000066757202,immed,51069.9999332428,Wed Mar 18 2026 14:37:37 GMT-0500 (Central Daylight Time),919647.6000000238,A,doorenter,O,enter,312,1,1933.7000000476837,917713.8999999762,7782,WL,B,3.0
7,9.497000217437744,immed,50502.999782562256,Wed Mar 18 2026 14:37:37 GMT-0500 (Central Daylight Time),920214.3999999762,A,s,O,s,549,1,566.3999999761581,919648.0,7782,WL,B,4.0
7,9.781000137329102,immed,50218.9998626709,Wed Mar 18 2026 14:37:37 GMT-0500 (Central Daylight Time),920498.3000000715,A,st,O,t,268,1,850.3000000715256,919648.0,7782,WL,B,4.0
7,9.914000034332275,immed,50085.999965667725,Wed Mar 18 2026 14:37:37 GMT-0500 (Central Daylight Time),920631.3000000715,A,sta,O,a,117,1,983.3000000715256,919648.0,7782,WL,B,4.0
7,10.031000137329102,immed,49968.9998626709,Wed Mar 18 2026 14:37:37 GMT-0500 (Central Daylight Time),920748.0,A,star,O,r,100,1,1100.0,919648.0,7782,WL,B,4.0
7,10.629000186920166,immed,49370.999813079834,Wed Mar 18 2026 14:37:37 GMT-0500 (Central Daylight Time),921346.8000000715,A,starenter,O,enter,594,1,1698.8000000715256,919648.0,7782,WL,B,4.0
7,11.015000104904175,immed,48984.999895095825,Wed Mar 18 2026 14:37:37 GMT-0500 (Central Daylight Time),921732.3999999762,A,a,O,a,369,1,385.1999999284744,921347.2000000477,7782,WL,B,5.0
7,11.196000099182129,immed,48803.99990081787,Wed Mar 18 2026 14:37:37 GMT-0500 (Central Daylight Time),921913.8000000715,A,ar,O,r,174,1,566.6000000238419,921347.2000000477,7782,WL,B,5.0
7,11.813000202178955,immed,48186.999797821045,Wed Mar 18 2026 14:37:37 GMT-0500 (Central Daylight Time),922530.2000000477,A,arm,O,m,602,1,1183.0,921347.2000000477,7782,WL,B,5.0
7,12.446000099182129,immed,47553.99990081787,Wed Mar 18 2026 14:37:37 GMT-0500 (Central Daylight Time),923163.2000000477,A,armenter,O,enter,626,1,1816.0,921347.2000000477,7782,WL,B,5.0
7,13.195000171661377,immed,46804.99982833862,Wed Mar 18 2026 14:37:37 GMT-0500 (Central Daylight Time),923912.8000000715,A,w,O,w,737,1,749.4000000953674,923163.3999999762,7782,WL,B,6.0
7,13.446000099182129,immed,46553.99990081787,Wed Mar 18 2026 14:37:37 GMT-0500 (Central Daylight Time),924163.2000000477,A,wi,O,i,242,1,999.8000000715256,923163.3999999762,7782,WL,B,6.0
7,13.84500002861023,immed,46154.99997138977,Wed Mar 18 2026 14:37:37 GMT-0500 (Central Daylight Time),924562.7000000477,A,wif,O,f,385,1,1399.3000000715256,923163.3999999762,7782,WL,B,6.0
7,14.16100001335144,immed,45838.99998664856,Wed Mar 18 2026 14:37:37 GMT-0500 (Central Daylight Time),924878.2000000477,A,wife,O,e,295,1,1714.8000000715256,923163.3999999762,7782,WL,B,6.0
7,14.428000211715698,immed,45571.9997882843,Wed Mar 18 2026 14:37:37 GMT-0500 (Central Daylight Time),925145.3000000715,A,wifeenter,O,enter,263,1,1981.9000000953674,923163.3999999762,7782,WL,B,6.0
7,15.211000204086304,immed,44788.999795913696,Wed Mar 18 2026 14:37:37 GMT-0500 (Central Daylight Time),925928.8999999762,A,w,O,w,773,1,783.1999999284744,925145.7000000477,7782,WL,B,7.0
7,15.395000219345093,immed,44604.99978065491,Wed Mar 18 2026 14:37:37 GMT-0500 (Central Daylight Time),926112.2000000477,A,wi,O,i,168,1,966.5,925145.7000000477,7782,WL,B,7.0
7,15.561000108718872,immed,44438.99989128113,Wed Mar 18 2026 14:37:37 GMT-0500 (Central Daylight Time),926278.8000000715,A,win,O,n,147,1,1133.1000000238419,925145.7000000477,7782,WL,B,7.0
7,15.896000146865845,immed,44103.999853134155,Wed Mar 18 2026 14:37:37 GMT-0500 (Central Daylight Time),926613.6000000238,A,wind,O,d,326,1,1467.8999999761581,925145.7000000477,7782,WL,B,7.0
7,16.01200008392334,immed,43987.99991607666,Wed Mar 18 2026 14:37:37 GMT-0500 (Central Daylight Time),926729.2000000477,A,windo,O,o,102,1,1583.5,925145.7000000477,7782,WL,B,7.0
7,16.24500012397766,immed,43754.99987602234,Wed Mar 18 2026 14:37:37 GMT-0500 (Central Daylight Time),926962.2000000477,A,window,O,w,218,1,1816.5,925145.7000000477,7782,WL,B,7.0
7,16.561000108718872,immed,43438.99989128113,Wed Mar 18 2026 14:37:37 GMT-0500 (Central Daylight Time),927278.3000000715,A,windowenter,O,enter,304,1,2132.600000023842,925145.7000000477,7782,WL,B,7.0
7,20.443000078201294,immed,39556.999921798706,Wed Mar 18 2026 14:37:37 GMT-0500 (Central Daylight Time),931160.5,A,c,O,c,3871,1,3881.899999976158,927278.6000000238,7782,WL,B,8.0
7,20.778000116348267,immed,39221.99988365173,Wed Mar 18 2026 14:37:37 GMT-0500 (Central Daylight Time),931495.3000000715,A,ca,O,a,329,1,4216.700000047684,927278.6000000238,7782,WL,B,8.0
7,20.878000020980835,immed,39121.999979019165,Wed Mar 18 2026 14:37:37 GMT-0500 (Central Daylight Time),931595.5,A,cab,O,b,76,1,4316.899999976158,927278.6000000238,7782,WL,B,8.0
7,21.243000030517578,immed,38756.99996948242,Wed Mar 18 2026 14:37:37 GMT-0500 (Central Daylight Time),931960.3000000715,A,cabi,O,i,343,1,4681.700000047684,927278.6000000238,7782,WL,B,8.0
7,21.427000045776367,immed,38572.99995422363,Wed Mar 18 2026 14:37:37 GMT-0500 (Central Daylight Time),932144.3000000715,A,cabin,O,n,164,1,4865.700000047684,927278.6000000238,7782,WL,B,8.0
7,21.91000008583069,immed,38089.99991416931,Wed Mar 18 2026 14:37:37 GMT-0500 (Central Daylight Time),932627.3000000715,A,cabinenter,O,enter,476,1,5348.700000047684,927278.6000000238,7782,WL,B,8.0
7,23.2260000705719,immed,36773.9999294281,Wed Mar 18 2026 14:37:37 GMT-0500 (Central Daylight Time),933943.0,A,l,O,l,1298,1,1315.3999999761581,932627.6000000238,7782,WL,B,9.0
7,23.326000213623047,immed,36673.99978637695,Wed Mar 18 2026 14:37:37 GMT-0500 (Central Daylight Time),934042.8999999762,A,la,O,a,85,1,1415.2999999523163,932627.6000000238,7782,WL,B,9.0
7,23.49500012397766,immed,36504.99987602234,Wed Mar 18 2026 14:37:37 GMT-0500 (Central Daylight Time),934212.5,A,lak,O,k,161,1,1584.8999999761581,932627.6000000238,7782,WL,B,9.0
7,23.692000150680542,immed,36307.99984931946,Wed Mar 18 2026 14:37:37 GMT-0500 (Central Daylight Time),934409.7000000477,A,lake,O,e,182,1,1782.1000000238419,932627.6000000238,7782,WL,B,9.0
7,24.109000205993652,immed,35890.99979400635,Wed Mar 18 2026 14:37:37 GMT-0500 (Central Daylight Time),934826.2000000477,A,lakeenter,O,enter,393,1,2198.600000023842,932627.6000000238,7782,WL,B,9.0
7,24.875,immed,35125.0,Wed Mar 18 2026 14:37:37 GMT-0500 (Central Daylight Time),935592.6000000238,A,p,O,p,747,1,766.2000000476837,934826.3999999762,7782,WL,B,10.0
7,25.04100012779236,immed,34958.99987220764,Wed Mar 18 2026 14:37:37 GMT-0500 (Central Daylight Time),935758.7000000477,A,pi,O,i,154,1,932.3000000715256,934826.3999999762,7782,WL,B,10.0
7,25.19100022315979,immed,34808.99977684021,Wed Mar 18 2026 14:37:37 GMT-0500 (Central Daylight Time),935908.8999999762,A,pip,O,p,133,1,1082.5,934826.3999999762,7782,WL,B,10.0
7,25.392000198364258,immed,34607.99980163574,Wed Mar 18 2026 14:37:37 GMT-0500 (Central Daylight Time),936109.3999999762,A,pipe,O,e,183,1,1283.0,934826.3999999762,7782,WL,B,10.0
7,25.725000143051147,immed,34274.99985694885,Wed Mar 18 2026 14:37:37 GMT-0500 (Central Daylight Time),936442.3999999762,A,pipeenter,O,enter,324,1,1616.0,934826.3999999762,7782,WL,B,10.0
7,26.092000007629395,immed,33907.999992370605,Wed Mar 18 2026 14:37:37 GMT-0500 (Central Daylight Time),936809.2000000477,A,s,O,s,345,1,366.2000000476837,936443.0,7782,WL,B,11.0
7,26.493000030517578,immed,33506.99996948242,Wed Mar 18 2026 14:37:37 GMT-0500 (Central Daylight Time),937209.8999999762,A,sk,O,k,383,1,766.8999999761581,936443.0,7782,WL,B,11.0
7,26.694000005722046,immed,33305.999994277954,Wed Mar 18 2026 14:37:37 GMT-0500 (Central Daylight Time),937411.0,A,ski,O,i,187,1,968.0,936443.0,7782,WL,B,11.0
7,26.89300012588501,immed,33106.99987411499,Wed Mar 18 2026 14:37:37 GMT-0500 (Central Daylight Time),937610.6000000238,A,skin,O,n,190,1,1167.6000000238419,936443.0,7782,WL,B,11.0
7,27.44100022315979,immed,32558.99977684021,Wed Mar 18 2026 14:37:37 GMT-0500 (Central Daylight Time),938158.3999999762,A,skinenter,O,enter,535,1,1715.3999999761581,936443.0,7782,WL,B,11.0
7,29.225000143051147,immed,30774.999856948853,Wed Mar 18 2026 14:37:37 GMT-0500 (Central Daylight Time),939942.3000000715,A,c,O,c,1765,1,1783.7000000476837,938158.6000000238,7782,WL,B,12.0
7,29.674000024795532,immed,30325.999975204468,Wed Mar 18 2026 14:37:37 GMT-0500 (Central Daylight Time),940391.8999999762,A,cl,O,l,437,1,2233.2999999523163,938158.6000000238,7782,WL,B,12.0
7,29.95800018310547,immed,30041.99981689453,Wed Mar 18 2026 14:37:37 GMT-0500 (Central Daylight Time),940675.8000000715,A,clo,O,o,263,1,2517.2000000476837,938158.6000000238,7782,WL,B,12.0
7,30.407000064849854,immed,29592.999935150146,Wed Mar 18 2026 14:37:37 GMT-0500 (Central Daylight Time),941124.2000000477,A,cloc,O,c,440,1,2965.600000023842,938158.6000000238,7782,WL,B,12.0
7,30.674000024795532,immed,29325.999975204468,Wed Mar 18 2026 14:37:37 GMT-0500 (Central Daylight Time),941391.8000000715,A,clock,O,k,257,1,3233.2000000476837,938158.6000000238,7782,WL,B,12.0
7,31.224000215530396,immed,28775.999784469604,Wed Mar 18 2026 14:37:37 GMT-0500 (Central Daylight Time),941941.3000000715,A,clockenter,O,enter,530,1,3782.7000000476837,938158.6000000238,7782,WL,B,12.0
7,31.706000089645386,immed,28293.999910354614,Wed Mar 18 2026 14:37:37 GMT-0500 (Central Daylight Time),942423.6000000238,A,f,O,f,464,1,482.10000002384186,941941.5,7782,WL,B,13.0
7,32.00600004196167,immed,27993.99995803833,Wed Mar 18 2026 14:37:37 GMT-0500 (Central Daylight Time),942723.5,A,fi,O,i,277,1,782.0,941941.5,7782,WL,B,13.0
7,32.35600018501282,immed,27643.999814987183,Wed Mar 18 2026 14:37:37 GMT-0500 (Central Daylight Time),943074.1000000238,A,fir,O,r,336,1,1132.6000000238419,941941.5,7782,WL,B,13.0
7,32.539000034332275,immed,27460.999965667725,Wed Mar 18 2026 14:37:37 GMT-0500 (Central Daylight Time),943256.3999999762,A,fire,O,e,162,1,1314.8999999761581,941941.5,7782,WL,B,13.0
7,33.22200012207031,immed,26777.999877929688,Wed Mar 18 2026 14:37:37 GMT-0500 (Central Daylight Time),943939.7000000477,A,fireenter,O,enter,678,1,1998.2000000476837,941941.5,7782,WL,B,13.0
7,37.88700008392334,immed,22112.99991607666,Wed Mar 18 2026 14:37:37 GMT-0500 (Central Daylight Time),948604.3000000715,A,s,O,s,4648,1,4664.300000071526,943940.0,7782,WL,B,14.0
7,38.055999994277954,immed,21944.000005722046,Wed Mar 18 2026 14:37:37 GMT-0500 (Central Daylight Time),948773.3999999762,A,st,O,t,146,1,4833.399999976158,943940.0,7782,WL,B,14.0
7,38.188000202178955,immed,21811.999797821045,Wed Mar 18 2026 14:37:37 GMT-0500 (Central Daylight Time),948905.8000000715,A,sta,O,a,118,1,4965.800000071526,943940.0,7782,WL,B,14.0
7,38.32100009918213,immed,21678.99990081787,Wed Mar 18 2026 14:37:37 GMT-0500 (Central Daylight Time),949039.0,A,star,O,r,112,1,5099.0,943940.0,7782,WL,B,14.0
7,38.88700008392334,immed,21112.99991607666,Wed Mar 18 2026 14:37:37 GMT-0500 (Central Daylight Time),949604.8000000715,A,starenter,O,enter,555,1,5664.800000071526,943940.0,7782,WL,B,14.0
7,53.06400012969971,immed,6935.999870300293,Wed Mar 18 2026 14:37:37 GMT-0500 (Central Daylight Time),963781.8999999762,A,p,O,p,14159,1,14176.899999976158,949605.0,7782,WL,B,15.0
7,53.33300018310547,immed,6666.999816894531,Wed Mar 18 2026 14:37:37 GMT-0500 (Central Daylight Time),964051.2000000477,A,pu,O,u,258,1,14446.200000047684,949605.0,7782,WL,B,15.0
7,53.60000014305115,immed,6399.9998569488525,Wed Mar 18 2026 14:37:37 GMT-0500 (Central Daylight Time),964317.3000000715,A,pup,O,p,249,1,14712.300000071526,949605.0,7782,WL,B,15.0
7,53.91600012779236,immed,6083.999872207642,Wed Mar 18 2026 14:37:37 GMT-0500 (Central Daylight Time),964634.1000000238,A,pupi,O,i,312,1,15029.100000023842,949605.0,7782,WL,B,15.0
7,54.132000207901,immed,5867.999792098999,Wed Mar 18 2026 14:37:37 GMT-0500 (Central Daylight Time),964850.0,A,pupil,O,l,212,1,15245.0,949605.0,7782,WL,B,15.0
7,54.78200006484985,immed,5217.9999351501465,Wed Mar 18 2026 14:37:37 GMT-0500 (Central Daylight Time),965499.7000000477,A,pupilenter,O,enter,633,1,15894.700000047684,949605.0,7782,WL,B,15.0
