acc_sum,block,block_c,change,condition,correct,correct_response,datetime,endtime,face,project,response,response_time,row_sel,session_number,start_end,starttime,subject_id,task,task_vers,trial
0,prac,1,,1-Back,,,Thu Nov 13 2025 11:55:21 GMT-0600 (Central Standard Time),,097_m_f_n_a.png,O,space,18549,1,1,,,7229,NNB,B,0
1,prac,1,0.0,1-Back,1.0,m,Thu Nov 13 2025 11:55:21 GMT-0600 (Central Standard Time),179930.89999997616,152_y_f_n_a.png,O,m,1234,2,1,2076.0,177854.89999997616,7229,NNB,B,1
2,prac,1,1.0,1-Back,1.0,z,Thu Nov 13 2025 11:55:21 GMT-0600 (Central Standard Time),181764.39999997616,152_y_f_n_a.png,O,z,1067,3,1,1828.6999999284744,179935.70000004768,7229,NNB,B,2
3,prac,1,0.0,1-Back,1.0,m,Thu Nov 13 2025 11:55:21 GMT-0600 (Central Standard Time),183630.20000004768,176_o_m_n_a.png,O,m,1017,4,1,1860.2000000476837,181770.0,7229,NNB,B,3
4,prac,1,0.0,1-Back,1.0,m,Thu Nov 13 2025 11:55:21 GMT-0600 (Central Standard Time),185596.20000004768,126_m_m_n_a.png,O,m,1133,5,1,1961.3000000715256,183634.89999997616,7229,NNB,B,4
5,prac,1,1.0,1-Back,1.0,z,Thu Nov 13 2025 11:55:21 GMT-0600 (Central Standard Time),187133.10000002384,126_m_m_n_a.png,O,z,761,6,1,1531.7000000476837,185601.39999997616,7229,NNB,B,5
6,prac,1,0.0,1-Back,1.0,m,Thu Nov 13 2025 11:55:21 GMT-0600 (Central Standard Time),188777.79999995232,086_o_f_n_a.png,O,m,786,7,1,1638.3999999761581,187139.39999997616,7229,NNB,B,6
7,prac,1,0.0,1-Back,1.0,m,Thu Nov 13 2025 11:55:21 GMT-0600 (Central Standard Time),190710.10000002384,178_m_m_n_a.png,O,m,1077,8,1,1926.2000000476837,188783.89999997616,7229,NNB,B,7
8,prac,1,0.0,1-Back,1.0,m,Thu Nov 13 2025 11:55:21 GMT-0600 (Central Standard Time),192409.5,097_m_f_n_a.png,O,m,911,9,1,1694.3999999761581,190715.10000002384,7229,NNB,B,8
9,prac,1,1.0,1-Back,1.0,z,Thu Nov 13 2025 11:55:21 GMT-0600 (Central Standard Time),193958.79999995232,097_m_f_n_a.png,O,z,763,10,1,1543.2999999523163,192415.5,7229,NNB,B,9
10,prac,1,0.0,1-Back,1.0,m,Thu Nov 13 2025 11:55:21 GMT-0600 (Central Standard Time),195508.39999997616,176_o_m_n_a.png,O,m,767,11,1,1544.3999999761581,193964.0,7229,NNB,B,10
11,prac,1,0.0,1-Back,1.0,m,Thu Nov 13 2025 11:55:21 GMT-0600 (Central Standard Time),197309.5,173_y_f_n_a.png,O,m,972,12,1,1794.1000000238419,195515.39999997616,7229,NNB,B,11
0,test,1,0.0,1-Back,,,Thu Nov 13 2025 11:55:21 GMT-0600 (Central Standard Time),197309.5,152_y_f_n_a.png,O,space,22720,1,1,1794.1000000238419,195515.39999997616,7229,NNB,B,0
1,test,1,0.0,1-Back,1.0,m,Thu Nov 13 2025 11:55:21 GMT-0600 (Central Standard Time),238860.79999995232,029_m_f_n_a.png,O,m,797,2,1,1813.2999999523163,237047.5,7229,NNB,B,1
2,test,1,0.0,1-Back,1.0,m,Thu Nov 13 2025 11:55:21 GMT-0600 (Central Standard Time),240710.60000002384,173_y_f_n_a.png,O,m,821,3,1,1847.2000000476837,238863.39999997616,7229,NNB,B,2
3,test,1,1.0,1-Back,1.0,z,Thu Nov 13 2025 11:55:21 GMT-0600 (Central Standard Time),242343.60000002384,173_y_f_n_a.png,O,z,604,4,1,1630.0,240713.60000002384,7229,NNB,B,3
4,test,1,0.0,1-Back,1.0,m,Thu Nov 13 2025 11:55:21 GMT-0600 (Central Standard Time),244126.5,029_m_f_n_a.png,O,m,763,5,1,1780.2999999523163,242346.20000004768,7229,NNB,B,4
5,test,1,0.0,1-Back,1.0,m,Thu Nov 13 2025 11:55:21 GMT-0600 (Central Standard Time),245892.0,176_o_m_n_a.png,O,m,740,6,1,1762.5,244129.5,7229,NNB,B,5
6,test,1,1.0,1-Back,1.0,z,Thu Nov 13 2025 11:55:21 GMT-0600 (Central Standard Time),247558.0,176_o_m_n_a.png,O,z,638,7,1,1663.2999999523163,245894.70000004768,7229,NNB,B,6
7,test,1,0.0,1-Back,1.0,m,Thu Nov 13 2025 11:55:21 GMT-0600 (Central Standard Time),249442.20000004768,126_m_m_n_a.png,O,m,859,8,1,1881.6000000238419,247560.60000002384,7229,NNB,B,7
8,test,1,0.0,1-Back,1.0,m,Thu Nov 13 2025 11:55:21 GMT-0600 (Central Standard Time),251208.60000002384,086_o_f_n_a.png,O,m,737,9,1,1763.6000000238419,249445.0,7229,NNB,B,8
9,test,1,0.0,1-Back,1.0,m,Thu Nov 13 2025 11:55:21 GMT-0600 (Central Standard Time),252906.60000002384,126_m_m_n_a.png,O,m,667,10,1,1695.0,251211.60000002384,7229,NNB,B,9
10,test,1,0.0,1-Back,1.0,m,Thu Nov 13 2025 11:55:21 GMT-0600 (Central Standard Time),254664.60000002384,153_y_m_n_a.png,O,m,724,11,1,1754.1000000238419,252910.5,7229,NNB,B,10
11,test,1,1.0,1-Back,1.0,z,Thu Nov 13 2025 11:55:21 GMT-0600 (Central Standard Time),256322.29999995232,153_y_m_n_a.png,O,z,635,12,1,1655.1999999284744,254667.10000002384,7229,NNB,B,11
12,test,1,0.0,1-Back,1.0,m,Thu Nov 13 2025 11:55:21 GMT-0600 (Central Standard Time),257988.10000002384,110_o_f_n_a.png,O,m,649,13,1,1660.1000000238419,256328.0,7229,NNB,B,12
13,test,1,1.0,1-Back,1.0,z,Thu Nov 13 2025 11:55:21 GMT-0600 (Central Standard Time),259587.79999995232,110_o_f_n_a.png,O,z,566,14,1,1597.0,257990.79999995232,7229,NNB,B,13
14,test,1,0.0,1-Back,1.0,m,Thu Nov 13 2025 11:55:21 GMT-0600 (Central Standard Time),261438.20000004768,013_y_m_n_a.png,O,m,829,15,1,1847.8000000715256,259590.39999997616,7229,NNB,B,14
15,test,1,0.0,1-Back,1.0,m,Thu Nov 13 2025 11:55:21 GMT-0600 (Central Standard Time),263070.89999997616,097_m_f_n_a.png,O,m,612,16,1,1628.8999999761581,261442.0,7229,NNB,B,15
16,test,1,0.0,1-Back,1.0,m,Thu Nov 13 2025 11:55:21 GMT-0600 (Central Standard Time),264719.39999997616,065_o_m_n_a.png,O,m,619,17,1,1646.0,263073.39999997616,7229,NNB,B,16
17,test,1,0.0,1-Back,1.0,m,Thu Nov 13 2025 11:55:21 GMT-0600 (Central Standard Time),266435.60000002384,097_m_f_n_a.png,O,m,691,18,1,1713.5,264722.10000002384,7229,NNB,B,17
0,test,2,0.0,1-Back,,,Thu Nov 13 2025 11:55:21 GMT-0600 (Central Standard Time),266435.60000002384,126_m_m_n_a.png,O,space,3591,1,1,1713.5,264722.10000002384,7229,NNB,B,0
1,test,2,0.0,1-Back,1.0,m,Thu Nov 13 2025 11:55:21 GMT-0600 (Central Standard Time),273917.7000000477,029_m_f_n_a.png,O,m,840,2,1,1863.0,272054.7000000477,7229,NNB,B,1
2,test,2,1.0,1-Back,1.0,z,Thu Nov 13 2025 11:55:21 GMT-0600 (Central Standard Time),275967.2000000477,029_m_f_n_a.png,O,z,1022,3,1,2046.7000000476837,273920.5,7229,NNB,B,2
3,test,2,0.0,1-Back,1.0,m,Thu Nov 13 2025 11:55:21 GMT-0600 (Central Standard Time),277632.2999999523,126_m_m_n_a.png,O,m,645,4,1,1662.6999999284744,275969.60000002384,7229,NNB,B,3
4,test,2,0.0,1-Back,1.0,m,Thu Nov 13 2025 11:55:21 GMT-0600 (Central Standard Time),279332.0,153_y_m_n_a.png,O,m,682,5,1,1696.5,277635.5,7229,NNB,B,4
5,test,2,0.0,1-Back,1.0,m,Thu Nov 13 2025 11:55:21 GMT-0600 (Central Standard Time),281098.2000000477,152_y_f_n_a.png,O,m,735,6,1,1763.6000000238419,279334.60000002384,7229,NNB,B,5
6,test,2,1.0,1-Back,1.0,z,Thu Nov 13 2025 11:55:21 GMT-0600 (Central Standard Time),282714.7999999523,152_y_f_n_a.png,O,z,586,7,1,1613.5,281101.2999999523,7229,NNB,B,6
7,test,2,0.0,1-Back,1.0,m,Thu Nov 13 2025 11:55:21 GMT-0600 (Central Standard Time),284379.5,153_y_m_n_a.png,O,m,641,8,1,1660.3999999761581,282719.10000002384,7229,NNB,B,7
8,test,2,0.0,1-Back,1.0,m,Thu Nov 13 2025 11:55:21 GMT-0600 (Central Standard Time),286130.10000002384,110_o_f_n_a.png,O,m,726,9,1,1747.5,284382.60000002384,7229,NNB,B,8
9,test,2,0.0,1-Back,1.0,m,Thu Nov 13 2025 11:55:21 GMT-0600 (Central Standard Time),287930.10000002384,178_m_m_n_a.png,O,m,768,10,1,1797.5,286132.60000002384,7229,NNB,B,9
10,test,2,1.0,1-Back,1.0,z,Thu Nov 13 2025 11:55:21 GMT-0600 (Central Standard Time),289529.60000002384,178_m_m_n_a.png,O,z,568,11,1,1596.6000000238419,287933.0,7229,NNB,B,10
11,test,2,0.0,1-Back,1.0,m,Thu Nov 13 2025 11:55:21 GMT-0600 (Central Standard Time),291428.7000000477,110_o_f_n_a.png,O,m,882,12,1,1896.3000000715256,289532.39999997616,7229,NNB,B,11
12,test,2,0.0,1-Back,1.0,m,Thu Nov 13 2025 11:55:21 GMT-0600 (Central Standard Time),293144.2999999523,086_o_f_n_a.png,O,m,694,13,1,1712.0999999046326,291432.2000000477,7229,NNB,B,12
13,test,2,0.0,1-Back,1.0,m,Thu Nov 13 2025 11:55:21 GMT-0600 (Central Standard Time),294794.2999999523,176_o_m_n_a.png,O,m,625,14,1,1646.7999999523163,293147.5,7229,NNB,B,13
14,test,2,0.0,1-Back,1.0,m,Thu Nov 13 2025 11:55:21 GMT-0600 (Central Standard Time),296393.39999997616,065_o_m_n_a.png,O,m,577,15,1,1596.0,294797.39999997616,7229,NNB,B,14
15,test,2,1.0,1-Back,1.0,z,Thu Nov 13 2025 11:55:21 GMT-0600 (Central Standard Time),297959.7000000477,065_o_m_n_a.png,O,z,537,16,1,1563.6000000238419,296396.10000002384,7229,NNB,B,15
16,test,2,0.0,1-Back,1.0,m,Thu Nov 13 2025 11:55:21 GMT-0600 (Central Standard Time),299542.2999999523,013_y_m_n_a.png,O,m,556,17,1,1579.0,297963.2999999523,7229,NNB,B,16
17,test,2,1.0,1-Back,1.0,z,Thu Nov 13 2025 11:55:21 GMT-0600 (Central Standard Time),301075.0,013_y_m_n_a.png,O,z,502,18,1,1529.7999999523163,299545.2000000477,7229,NNB,B,17
0,test,3,1.0,1-Back,,,Thu Nov 13 2025 11:55:21 GMT-0600 (Central Standard Time),301075.0,173_y_f_n_a.png,O,space,3273,1,1,1529.7999999523163,299545.2000000477,7229,NNB,B,0
1,test,3,0.0,1-Back,1.0,m,Thu Nov 13 2025 11:55:21 GMT-0600 (Central Standard Time),308339.60000002384,065_o_m_n_a.png,O,m,867,1,1,1880.5,306459.10000002384,7229,NNB,B,1
2,test,3,1.0,1-Back,1.0,z,Thu Nov 13 2025 11:55:21 GMT-0600 (Central Standard Time),310072.39999997616,065_o_m_n_a.png,O,z,704,1,1,1729.6000000238419,308342.7999999523,7229,NNB,B,2
3,test,3,0.0,1-Back,1.0,m,Thu Nov 13 2025 11:55:21 GMT-0600 (Central Standard Time),312455.60000002384,097_m_f_n_a.png,O,m,1362,1,1,2380.399999976158,310075.2000000477,7229,NNB,B,3
4,test,3,1.0,1-Back,1.0,z,Thu Nov 13 2025 11:55:21 GMT-0600 (Central Standard Time),314087.2000000477,097_m_f_n_a.png,O,z,611,1,1,1628.7000000476837,312458.5,7229,NNB,B,4
5,test,3,0.0,1-Back,1.0,m,Thu Nov 13 2025 11:55:21 GMT-0600 (Central Standard Time),315754.5,110_o_f_n_a.png,O,m,643,1,1,1663.2999999523163,314091.2000000477,7229,NNB,B,5
6,test,3,0.0,1-Back,1.0,m,Thu Nov 13 2025 11:55:21 GMT-0600 (Central Standard Time),317419.7999999523,153_y_m_n_a.png,O,m,641,1,1,1662.2999999523163,315757.5,7229,NNB,B,6
7,test,3,0.0,1-Back,1.0,m,Thu Nov 13 2025 11:55:21 GMT-0600 (Central Standard Time),319085.5,110_o_f_n_a.png,O,m,640,1,1,1662.3999999761581,317423.10000002384,7229,NNB,B,7
8,test,3,0.0,1-Back,1.0,m,Thu Nov 13 2025 11:55:21 GMT-0600 (Central Standard Time),320702.0,013_y_m_n_a.png,O,m,597,1,1,1613.7000000476837,319088.2999999523,7229,NNB,B,8
9,test,3,1.0,1-Back,1.0,z,Thu Nov 13 2025 11:55:21 GMT-0600 (Central Standard Time),322301.5,013_y_m_n_a.png,O,z,580,1,1,1596.7999999523163,320704.7000000477,7229,NNB,B,9
10,test,3,0.0,1-Back,1.0,m,Thu Nov 13 2025 11:55:21 GMT-0600 (Central Standard Time),323883.7000000477,029_m_f_n_a.png,O,m,557,1,1,1577.6000000238419,322306.10000002384,7229,NNB,B,10
11,test,3,0.0,1-Back,1.0,m,Thu Nov 13 2025 11:55:21 GMT-0600 (Central Standard Time),325450.5,152_y_f_n_a.png,O,m,542,1,1,1563.1000000238419,323887.39999997616,7229,NNB,B,11
12,test,3,1.0,1-Back,1.0,z,Thu Nov 13 2025 11:55:21 GMT-0600 (Central Standard Time),326966.5,152_y_f_n_a.png,O,z,487,1,1,1513.3999999761581,325453.10000002384,7229,NNB,B,12
13,test,3,0.0,1-Back,1.0,m,Thu Nov 13 2025 11:55:21 GMT-0600 (Central Standard Time),328582.89999997616,029_m_f_n_a.png,O,m,595,1,1,1613.3999999761581,326969.5,7229,NNB,B,13
14,test,3,0.0,1-Back,1.0,m,Thu Nov 13 2025 11:55:21 GMT-0600 (Central Standard Time),330232.39999997616,126_m_m_n_a.png,O,m,628,1,1,1646.5,328585.89999997616,7229,NNB,B,14
15,test,3,1.0,1-Back,1.0,z,Thu Nov 13 2025 11:55:21 GMT-0600 (Central Standard Time),331682.10000002384,126_m_m_n_a.png,O,z,427,1,1,1447.1000000238419,330235.0,7229,NNB,B,15
16,test,3,0.0,1-Back,1.0,m,Thu Nov 13 2025 11:55:21 GMT-0600 (Central Standard Time),333298.89999997616,086_o_f_n_a.png,O,m,593,1,1,1614.1000000238419,331684.7999999523,7229,NNB,B,16
17,test,3,1.0,1-Back,1.0,z,Thu Nov 13 2025 11:55:21 GMT-0600 (Central Standard Time),334814.2999999523,086_o_f_n_a.png,O,z,495,1,1,1512.6999999284744,333301.60000002384,7229,NNB,B,17
0,test,4,1.0,1-Back,,,Thu Nov 13 2025 11:55:21 GMT-0600 (Central Standard Time),334814.2999999523,097_m_f_n_a.png,O,space,4401,1,1,1512.6999999284744,333301.60000002384,7229,NNB,B,0
1,test,4,0.0,1-Back,1.0,m,Thu Nov 13 2025 11:55:21 GMT-0600 (Central Standard Time),343144.39999997616,065_o_m_n_a.png,O,m,807,2,1,1825.0,341319.39999997616,7229,NNB,B,1
2,test,4,0.0,1-Back,1.0,m,Thu Nov 13 2025 11:55:21 GMT-0600 (Central Standard Time),344910.60000002384,097_m_f_n_a.png,O,m,746,3,1,1763.6000000238419,343147.0,7229,NNB,B,2
3,test,4,0.0,1-Back,1.0,m,Thu Nov 13 2025 11:55:21 GMT-0600 (Central Standard Time),346627.7999999523,110_o_f_n_a.png,O,m,692,4,1,1713.1999999284744,344914.60000002384,7229,NNB,B,3
4,test,4,1.0,1-Back,1.0,z,Thu Nov 13 2025 11:55:21 GMT-0600 (Central Standard Time),348176.7999999523,110_o_f_n_a.png,O,z,519,5,1,1546.3999999761581,346630.39999997616,7229,NNB,B,4
5,test,4,0.0,1-Back,1.0,m,Thu Nov 13 2025 11:55:21 GMT-0600 (Central Standard Time),349860.10000002384,152_y_f_n_a.png,O,m,657,6,1,1680.3999999761581,348179.7000000477,7229,NNB,B,5
6,test,4,0.0,1-Back,1.0,m,Thu Nov 13 2025 11:55:21 GMT-0600 (Central Standard Time),351530.2000000477,153_y_m_n_a.png,O,m,639,7,1,1667.6000000238419,349862.60000002384,7229,NNB,B,6
7,test,4,1.0,1-Back,1.0,z,Thu Nov 13 2025 11:55:21 GMT-0600 (Central Standard Time),353091.89999997616,153_y_m_n_a.png,O,z,541,8,1,1559.1000000238419,351532.7999999523,7229,NNB,B,7
8,test,4,0.0,1-Back,1.0,m,Thu Nov 13 2025 11:55:21 GMT-0600 (Central Standard Time),354907.39999997616,152_y_f_n_a.png,O,m,791,9,1,1813.1000000238419,353094.2999999523,7229,NNB,B,8
9,test,4,0.0,1-Back,1.0,m,Thu Nov 13 2025 11:55:21 GMT-0600 (Central Standard Time),356574.7999999523,178_m_m_n_a.png,O,m,647,10,1,1665.0,354909.7999999523,7229,NNB,B,9
10,test,4,1.0,1-Back,1.0,z,Thu Nov 13 2025 11:55:21 GMT-0600 (Central Standard Time),358189.89999997616,178_m_m_n_a.png,O,z,597,11,1,1612.3999999761581,356577.5,7229,NNB,B,10
11,test,4,0.0,1-Back,1.0,m,Thu Nov 13 2025 11:55:21 GMT-0600 (Central Standard Time),359722.5,086_o_f_n_a.png,O,m,500,12,1,1530.0,358192.5,7229,NNB,B,11
12,test,4,0.0,1-Back,1.0,m,Thu Nov 13 2025 11:55:21 GMT-0600 (Central Standard Time),361388.7000000477,176_o_m_n_a.png,O,m,639,13,1,1662.3000000715256,359726.39999997616,7229,NNB,B,12
13,test,4,0.0,1-Back,1.0,m,Thu Nov 13 2025 11:55:21 GMT-0600 (Central Standard Time),362905.2000000477,086_o_f_n_a.png,O,m,494,14,1,1512.6000000238419,361392.60000002384,7229,NNB,B,13
14,test,4,0.0,1-Back,1.0,m,Thu Nov 13 2025 11:55:21 GMT-0600 (Central Standard Time),364438.0,173_y_f_n_a.png,O,m,505,15,1,1530.2999999523163,362907.7000000477,7229,NNB,B,14
15,test,4,1.0,1-Back,1.0,z,Thu Nov 13 2025 11:55:21 GMT-0600 (Central Standard Time),366055.0,173_y_f_n_a.png,O,z,597,16,1,1614.2000000476837,364440.7999999523,7229,NNB,B,15
16,test,4,0.0,1-Back,1.0,m,Thu Nov 13 2025 11:55:21 GMT-0600 (Central Standard Time),367820.2999999523,029_m_f_n_a.png,O,m,740,17,1,1762.6999999284744,366057.60000002384,7229,NNB,B,16
17,test,4,1.0,1-Back,1.0,z,Thu Nov 13 2025 11:55:21 GMT-0600 (Central Standard Time),369403.0,029_m_f_n_a.png,O,z,549,18,1,1580.1000000238419,367822.89999997616,7229,NNB,B,17
0,test,5,1.0,1-Back,,,Thu Nov 13 2025 11:55:21 GMT-0600 (Central Standard Time),369403.0,176_o_m_n_a.png,O,space,2544,1,1,1580.1000000238419,367822.89999997616,7229,NNB,B,0
1,test,5,1.0,1-Back,1.0,z,Thu Nov 13 2025 11:55:21 GMT-0600 (Central Standard Time),375701.39999997616,176_o_m_n_a.png,O,z,715,2,1,1730.6999999284744,373970.7000000477,7229,NNB,B,1
2,test,5,0.0,1-Back,1.0,m,Thu Nov 13 2025 11:55:21 GMT-0600 (Central Standard Time),377550.2000000477,152_y_f_n_a.png,O,m,820,3,1,1846.4000000953674,375703.7999999523,7229,NNB,B,2
3,test,5,0.0,1-Back,1.0,m,Thu Nov 13 2025 11:55:21 GMT-0600 (Central Standard Time),379167.2999999523,153_y_m_n_a.png,O,m,597,4,1,1614.2999999523163,377553.0,7229,NNB,B,3
4,test,5,0.0,1-Back,1.0,m,Thu Nov 13 2025 11:55:21 GMT-0600 (Central Standard Time),380749.7000000477,152_y_f_n_a.png,O,m,557,5,1,1579.2000000476837,379170.5,7229,NNB,B,4
5,test,5,0.0,1-Back,1.0,m,Thu Nov 13 2025 11:55:21 GMT-0600 (Central Standard Time),382332.89999997616,126_m_m_n_a.png,O,m,557,6,1,1580.6000000238419,380752.2999999523,7229,NNB,B,5
6,test,5,1.0,1-Back,1.0,z,Thu Nov 13 2025 11:55:21 GMT-0600 (Central Standard Time),383915.10000002384,126_m_m_n_a.png,O,z,558,7,1,1579.7000000476837,382335.39999997616,7229,NNB,B,6
7,test,5,0.0,1-Back,1.0,m,Thu Nov 13 2025 11:55:21 GMT-0600 (Central Standard Time),385464.60000002384,173_y_f_n_a.png,O,m,528,8,1,1546.8999999761581,383917.7000000477,7229,NNB,B,7
8,test,5,0.0,1-Back,1.0,m,Thu Nov 13 2025 11:55:21 GMT-0600 (Central Standard Time),387130.2999999523,013_y_m_n_a.png,O,m,634,9,1,1663.0999999046326,385467.2000000477,7229,NNB,B,8
9,test,5,0.0,1-Back,1.0,m,Thu Nov 13 2025 11:55:21 GMT-0600 (Central Standard Time),388730.60000002384,173_y_f_n_a.png,O,m,568,10,1,1597.7000000476837,387132.89999997616,7229,NNB,B,9
10,test,5,0.0,1-Back,1.0,m,Thu Nov 13 2025 11:55:21 GMT-0600 (Central Standard Time),390263.39999997616,086_o_f_n_a.png,O,m,512,11,1,1529.7999999523163,388733.60000002384,7229,NNB,B,10
11,test,5,1.0,1-Back,1.0,z,Thu Nov 13 2025 11:55:21 GMT-0600 (Central Standard Time),391779.39999997616,086_o_f_n_a.png,O,z,499,12,1,1513.6000000238419,390265.7999999523,7229,NNB,B,11
12,test,5,0.0,1-Back,1.0,m,Thu Nov 13 2025 11:55:21 GMT-0600 (Central Standard Time),393361.7000000477,065_o_m_n_a.png,O,m,548,13,1,1579.2000000476837,391782.5,7229,NNB,B,12
13,test,5,0.0,1-Back,1.0,m,Thu Nov 13 2025 11:55:21 GMT-0600 (Central Standard Time),394945.0,097_m_f_n_a.png,O,m,552,14,1,1581.0,393364.0,7229,NNB,B,13
14,test,5,1.0,1-Back,1.0,z,Thu Nov 13 2025 11:55:21 GMT-0600 (Central Standard Time),396611.89999997616,097_m_f_n_a.png,O,z,640,15,1,1664.1999999284744,394947.7000000477,7229,NNB,B,14
15,test,5,0.0,1-Back,1.0,m,Thu Nov 13 2025 11:55:21 GMT-0600 (Central Standard Time),398144.10000002384,065_o_m_n_a.png,O,m,511,16,1,1529.7000000476837,396614.39999997616,7229,NNB,B,15
16,test,5,0.0,1-Back,1.0,m,Thu Nov 13 2025 11:55:21 GMT-0600 (Central Standard Time),399660.7000000477,029_m_f_n_a.png,O,m,497,17,1,1513.9000000953674,398146.7999999523,7229,NNB,B,16
17,test,5,0.0,1-Back,1.0,m,Thu Nov 13 2025 11:55:21 GMT-0600 (Central Standard Time),401193.2000000477,178_m_m_n_a.png,O,m,502,18,1,1529.6000000238419,399663.60000002384,7229,NNB,B,17
0,prac,1,0.0,2-Back,,,Thu Nov 13 2025 11:55:21 GMT-0600 (Central Standard Time),401193.2000000477,013_y_m_n_a.png,O,space,22483,1,1,1529.6000000238419,399663.60000002384,7229,NNB,B,0
0,prac,1,0.0,2-Back,,,Thu Nov 13 2025 11:55:21 GMT-0600 (Central Standard Time),401193.2000000477,029_m_f_n_a.png,O,space,22483,2,1,1529.6000000238419,399663.60000002384,7229,NNB,B,0
0,prac,1,1.0,2-Back,0.0,m,Thu Nov 13 2025 11:55:21 GMT-0600 (Central Standard Time),580020.2000000477,065_o_m_n_a.png,O,None,2016,3,1,2857.100000023842,577163.1000000238,7229,NNB,B,1
1,prac,1,0.0,2-Back,1.0,m,Thu Nov 13 2025 11:55:21 GMT-0600 (Central Standard Time),580885.8999999762,086_o_f_n_a.png,O,m,2,4,1,861.0,580024.8999999762,7229,NNB,B,2
1,prac,1,0.0,2-Back,0.0,z,Thu Nov 13 2025 11:55:21 GMT-0600 (Central Standard Time),583351.1000000238,065_o_m_n_a.png,O,m,1688,5,1,2460.100000023842,580891.0,7229,NNB,B,3
2,prac,1,1.0,2-Back,1.0,z,Thu Nov 13 2025 11:55:21 GMT-0600 (Central Standard Time),585651.6000000238,086_o_f_n_a.png,O,z,1534,6,1,2295.0,583356.6000000238,7229,NNB,B,4
3,prac,1,0.0,2-Back,1.0,m,Thu Nov 13 2025 11:55:21 GMT-0600 (Central Standard Time),587683.2999999523,178_m_m_n_a.png,O,m,1182,7,1,2026.8999999761581,585656.3999999762,7229,NNB,B,5
4,prac,1,0.0,2-Back,1.0,m,Thu Nov 13 2025 11:55:21 GMT-0600 (Central Standard Time),589483.7000000477,176_o_m_n_a.png,O,m,944,8,1,1794.7000000476837,587689.0,7229,NNB,B,6
5,prac,1,0.0,2-Back,1.0,m,Thu Nov 13 2025 11:55:21 GMT-0600 (Central Standard Time),591215.3999999762,173_y_f_n_a.png,O,m,888,9,1,1726.6000000238419,589488.7999999523,7229,NNB,B,7
6,prac,1,1.0,2-Back,1.0,z,Thu Nov 13 2025 11:55:21 GMT-0600 (Central Standard Time),592765.7999999523,176_o_m_n_a.png,O,z,767,10,1,1545.6999999284744,591220.1000000238,7229,NNB,B,8
7,prac,1,0.0,2-Back,1.0,m,Thu Nov 13 2025 11:55:21 GMT-0600 (Central Standard Time),594398.0,152_y_f_n_a.png,O,m,782,11,1,1627.1000000238419,592770.8999999762,7229,NNB,B,9
7,prac,1,0.0,2-Back,0.0,m,Thu Nov 13 2025 11:55:21 GMT-0600 (Central Standard Time),596097.1000000238,178_m_m_n_a.png,O,z,912,12,1,1694.6000000238419,594402.5,7229,NNB,B,10
0,prac,2,0.0,2-Back,,,Thu Nov 13 2025 11:55:21 GMT-0600 (Central Standard Time),596097.1000000238,013_y_m_n_a.png,O,a,11216,1,1,1694.6000000238419,594402.5,7229,NNB,B,0
0,prac,2,0.0,2-Back,,,Thu Nov 13 2025 11:55:21 GMT-0600 (Central Standard Time),596097.1000000238,029_m_f_n_a.png,O,a,11216,2,1,1694.6000000238419,594402.5,7229,NNB,B,0
1,prac,2,1.0,2-Back,1.0,m,Thu Nov 13 2025 11:55:21 GMT-0600 (Central Standard Time),614208.0,065_o_m_n_a.png,O,m,823,3,1,1676.2999999523163,612531.7000000477,7229,NNB,B,1
2,prac,2,0.0,2-Back,1.0,m,Thu Nov 13 2025 11:55:21 GMT-0600 (Central Standard Time),615874.7000000477,086_o_f_n_a.png,O,m,798,4,1,1661.1000000238419,614213.6000000238,7229,NNB,B,2
3,prac,2,0.0,2-Back,1.0,z,Thu Nov 13 2025 11:55:21 GMT-0600 (Central Standard Time),617607.1000000238,065_o_m_n_a.png,O,z,947,5,1,1727.3000000715256,615879.7999999523,7229,NNB,B,3
4,prac,2,1.0,2-Back,1.0,z,Thu Nov 13 2025 11:55:21 GMT-0600 (Central Standard Time),619423.0,086_o_f_n_a.png,O,z,1030,6,1,1810.7000000476837,617612.2999999523,7229,NNB,B,4
4,prac,2,0.0,2-Back,0.0,m,Thu Nov 13 2025 11:55:21 GMT-0600 (Central Standard Time),621107.0,178_m_m_n_a.png,O,z,903,7,1,1679.5,619427.5,7229,NNB,B,5
5,prac,2,0.0,2-Back,1.0,m,Thu Nov 13 2025 11:55:21 GMT-0600 (Central Standard Time),622772.1000000238,176_o_m_n_a.png,O,m,810,8,1,1660.0,621112.1000000238,7229,NNB,B,6
6,prac,2,0.0,2-Back,1.0,m,Thu Nov 13 2025 11:55:21 GMT-0600 (Central Standard Time),624455.7999999523,173_y_f_n_a.png,O,m,831,9,1,1678.5,622777.2999999523,7229,NNB,B,7
7,prac,2,1.0,2-Back,1.0,z,Thu Nov 13 2025 11:55:21 GMT-0600 (Central Standard Time),625854.2999999523,176_o_m_n_a.png,O,z,622,10,1,1393.2999999523163,624461.0,7229,NNB,B,8
8,prac,2,0.0,2-Back,1.0,m,Thu Nov 13 2025 11:55:21 GMT-0600 (Central Standard Time),627553.7000000477,152_y_f_n_a.png,O,m,853,11,1,1694.9000000953674,625858.7999999523,7229,NNB,B,9
9,prac,2,0.0,2-Back,1.0,m,Thu Nov 13 2025 11:55:21 GMT-0600 (Central Standard Time),629236.7000000477,178_m_m_n_a.png,O,m,908,12,1,1678.4000000953674,627558.2999999523,7229,NNB,B,10
0,test,1,0.0,2-Back,,,Thu Nov 13 2025 11:55:21 GMT-0600 (Central Standard Time),629236.7000000477,153_y_m_n_a.png,O,space,17414,1,1,1678.4000000953674,627558.2999999523,7229,NNB,B,0
0,test,1,0.0,2-Back,,,Thu Nov 13 2025 11:55:21 GMT-0600 (Central Standard Time),629236.7000000477,153_y_m_n_a.png,O,space,17414,2,1,1678.4000000953674,627558.2999999523,7229,NNB,B,0
1,test,1,0.0,2-Back,1.0,m,Thu Nov 13 2025 11:55:21 GMT-0600 (Central Standard Time),660577.3999999762,086_o_f_n_a.png,O,m,909,3,1,1930.5,658646.8999999762,7229,NNB,B,1
2,test,1,0.0,2-Back,1.0,m,Thu Nov 13 2025 11:55:21 GMT-0600 (Central Standard Time),662410.0,126_m_m_n_a.png,O,m,808,4,1,1830.2000000476837,660579.7999999523,7229,NNB,B,2
3,test,1,1.0,2-Back,1.0,z,Thu Nov 13 2025 11:55:21 GMT-0600 (Central Standard Time),664060.1000000238,086_o_f_n_a.png,O,z,617,5,1,1647.7000000476837,662412.3999999762,7229,NNB,B,3
4,test,1,0.0,2-Back,1.0,m,Thu Nov 13 2025 11:55:21 GMT-0600 (Central Standard Time),665809.7000000477,152_y_f_n_a.png,O,m,717,6,1,1747.0,664062.7000000477,7229,NNB,B,4
5,test,1,0.0,2-Back,1.0,m,Thu Nov 13 2025 11:55:21 GMT-0600 (Central Standard Time),667657.8999999762,126_m_m_n_a.png,O,m,826,7,1,1845.6000000238419,665812.2999999523,7229,NNB,B,5
6,test,1,1.0,2-Back,1.0,z,Thu Nov 13 2025 11:55:21 GMT-0600 (Central Standard Time),669357.1000000238,152_y_f_n_a.png,O,z,671,8,1,1696.8000000715256,667660.2999999523,7229,NNB,B,6
7,test,1,0.0,2-Back,1.0,m,Thu Nov 13 2025 11:55:21 GMT-0600 (Central Standard Time),671323.2000000477,013_y_m_n_a.png,O,m,933,9,1,1963.5,669359.7000000477,7229,NNB,B,7
8,test,1,0.0,2-Back,1.0,m,Thu Nov 13 2025 11:55:21 GMT-0600 (Central Standard Time),673422.3999999762,110_o_f_n_a.png,O,m,1072,10,1,2096.600000023842,671325.7999999523,7229,NNB,B,8
9,test,1,1.0,2-Back,1.0,z,Thu Nov 13 2025 11:55:21 GMT-0600 (Central Standard Time),675138.6000000238,013_y_m_n_a.png,O,z,693,11,1,1713.7000000476837,673424.8999999762,7229,NNB,B,9
10,test,1,0.0,2-Back,1.0,m,Thu Nov 13 2025 11:55:21 GMT-0600 (Central Standard Time),676888.7000000477,029_m_f_n_a.png,O,m,729,12,1,1747.6000000238419,675141.1000000238,7229,NNB,B,10
11,test,1,0.0,2-Back,1.0,m,Thu Nov 13 2025 11:55:21 GMT-0600 (Central Standard Time),679004.2000000477,029_m_f_n_a.png,O,m,1089,13,1,2113.0,676891.2000000477,7229,NNB,B,11
12,test,1,0.0,2-Back,1.0,m,Thu Nov 13 2025 11:55:21 GMT-0600 (Central Standard Time),681186.8999999762,065_o_m_n_a.png,O,m,1152,14,1,2179.600000023842,679007.2999999523,7229,NNB,B,12
13,test,1,0.0,2-Back,1.0,m,Thu Nov 13 2025 11:55:21 GMT-0600 (Central Standard Time),683086.1000000238,110_o_f_n_a.png,O,m,878,15,1,1896.5,681189.6000000238,7229,NNB,B,13
14,test,1,1.0,2-Back,1.0,z,Thu Nov 13 2025 11:55:21 GMT-0600 (Central Standard Time),684902.1000000238,065_o_m_n_a.png,O,z,796,16,1,1813.6000000238419,683088.5,7229,NNB,B,14
15,test,1,0.0,2-Back,1.0,m,Thu Nov 13 2025 11:55:21 GMT-0600 (Central Standard Time),686701.6000000238,097_m_f_n_a.png,O,m,780,17,1,1796.8999999761581,684904.7000000477,7229,NNB,B,15
16,test,1,0.0,2-Back,1.0,m,Thu Nov 13 2025 11:55:21 GMT-0600 (Central Standard Time),688600.8999999762,178_m_m_n_a.png,O,m,868,18,1,1896.8999999761581,686704.0,7229,NNB,B,16
0,test,2,0.0,2-Back,,,Thu Nov 13 2025 11:55:21 GMT-0600 (Central Standard Time),688600.8999999762,178_m_m_n_a.png,O,space,6658,1,1,1896.8999999761581,686704.0,7229,NNB,B,0
0,test,2,0.0,2-Back,,,Thu Nov 13 2025 11:55:21 GMT-0600 (Central Standard Time),688600.8999999762,173_y_f_n_a.png,O,space,6658,2,1,1896.8999999761581,686704.0,7229,NNB,B,0
1,test,2,1.0,2-Back,1.0,z,Thu Nov 13 2025 11:55:21 GMT-0600 (Central Standard Time),702164.0,178_m_m_n_a.png,O,z,774,3,1,1796.7000000476837,700367.2999999523,7229,NNB,B,1
2,test,2,0.0,2-Back,1.0,m,Thu Nov 13 2025 11:55:21 GMT-0600 (Central Standard Time),703880.5,097_m_f_n_a.png,O,m,694,4,1,1713.2999999523163,702167.2000000477,7229,NNB,B,2
3,test,2,0.0,2-Back,1.0,m,Thu Nov 13 2025 11:55:21 GMT-0600 (Central Standard Time),705612.5,173_y_f_n_a.png,O,m,708,5,1,1729.3999999761581,703883.1000000238,7229,NNB,B,3
4,test,2,0.0,2-Back,1.0,m,Thu Nov 13 2025 11:55:21 GMT-0600 (Central Standard Time),707578.5,065_o_m_n_a.png,O,m,943,6,1,1963.6000000238419,705614.8999999762,7229,NNB,B,4
5,test,2,0.0,2-Back,1.0,m,Thu Nov 13 2025 11:55:21 GMT-0600 (Central Standard Time),709461.0,152_y_f_n_a.png,O,m,856,7,1,1880.0,707581.0,7229,NNB,B,5
6,test,2,1.0,2-Back,1.0,z,Thu Nov 13 2025 11:55:21 GMT-0600 (Central Standard Time),711260.8999999762,065_o_m_n_a.png,O,z,774,8,1,1797.6000000238419,709463.2999999523,7229,NNB,B,6
7,test,2,0.0,2-Back,1.0,m,Thu Nov 13 2025 11:55:21 GMT-0600 (Central Standard Time),713010.8999999762,013_y_m_n_a.png,O,m,726,9,1,1747.6000000238419,711263.2999999523,7229,NNB,B,7
8,test,2,0.0,2-Back,1.0,m,Thu Nov 13 2025 11:55:21 GMT-0600 (Central Standard Time),715176.2999999523,013_y_m_n_a.png,O,m,1136,10,1,2162.899999976158,713013.3999999762,7229,NNB,B,8
9,test,2,0.0,2-Back,1.0,m,Thu Nov 13 2025 11:55:21 GMT-0600 (Central Standard Time),717009.0,029_m_f_n_a.png,O,m,810,11,1,1830.2999999523163,715178.7000000477,7229,NNB,B,9
10,test,2,0.0,2-Back,1.0,m,Thu Nov 13 2025 11:55:21 GMT-0600 (Central Standard Time),718809.2999999523,173_y_f_n_a.png,O,m,776,12,1,1798.0,717011.2999999523,7229,NNB,B,10
11,test,2,1.0,2-Back,1.0,z,Thu Nov 13 2025 11:55:21 GMT-0600 (Central Standard Time),720492.1000000238,029_m_f_n_a.png,O,z,651,13,1,1680.3999999761581,718811.7000000477,7229,NNB,B,11
12,test,2,0.0,2-Back,1.0,m,Thu Nov 13 2025 11:55:21 GMT-0600 (Central Standard Time),722223.6000000238,176_o_m_n_a.png,O,m,712,14,1,1728.8000000715256,720494.7999999523,7229,NNB,B,12
13,test,2,0.0,2-Back,1.0,m,Thu Nov 13 2025 11:55:21 GMT-0600 (Central Standard Time),724123.7999999523,176_o_m_n_a.png,O,m,884,15,1,1897.3999999761581,722226.3999999762,7229,NNB,B,13
14,test,2,0.0,2-Back,1.0,m,Thu Nov 13 2025 11:55:21 GMT-0600 (Central Standard Time),725940.7000000477,110_o_f_n_a.png,O,m,800,16,1,1814.3000000715256,724126.3999999762,7229,NNB,B,14
15,test,2,0.0,2-Back,1.0,m,Thu Nov 13 2025 11:55:21 GMT-0600 (Central Standard Time),727705.2000000477,126_m_m_n_a.png,O,m,743,17,1,1762.1000000238419,725943.1000000238,7229,NNB,B,15
16,test,2,1.0,2-Back,1.0,z,Thu Nov 13 2025 11:55:21 GMT-0600 (Central Standard Time),729272.2000000477,110_o_f_n_a.png,O,z,538,18,1,1564.7000000476837,727707.5,7229,NNB,B,16
0,test,3,1.0,2-Back,,,Thu Nov 13 2025 11:55:21 GMT-0600 (Central Standard Time),729272.2000000477,153_y_m_n_a.png,O,space,4323,1,1,1564.7000000476837,727707.5,7229,NNB,B,0
0,test,3,1.0,2-Back,,,Thu Nov 13 2025 11:55:21 GMT-0600 (Central Standard Time),729272.2000000477,153_y_m_n_a.png,O,space,4323,2,1,1564.7000000476837,727707.5,7229,NNB,B,0
1,test,3,0.0,2-Back,1.0,m,Thu Nov 13 2025 11:55:21 GMT-0600 (Central Standard Time),740584.5,110_o_f_n_a.png,O,m,837,3,1,1863.2999999523163,738721.2000000477,7229,NNB,B,1
2,test,3,0.0,2-Back,1.0,m,Thu Nov 13 2025 11:55:21 GMT-0600 (Central Standard Time),742334.0,178_m_m_n_a.png,O,m,723,4,1,1747.0,740587.0,7229,NNB,B,2
3,test,3,1.0,2-Back,1.0,z,Thu Nov 13 2025 11:55:21 GMT-0600 (Central Standard Time),743967.0,110_o_f_n_a.png,O,z,612,5,1,1630.2999999523163,742336.7000000477,7229,NNB,B,3
4,test,3,0.0,2-Back,1.0,m,Thu Nov 13 2025 11:55:21 GMT-0600 (Central Standard Time),745782.7999999523,013_y_m_n_a.png,O,m,795,6,1,1813.2999999523163,743969.5,7229,NNB,B,4
5,test,3,0.0,2-Back,1.0,m,Thu Nov 13 2025 11:55:21 GMT-0600 (Central Standard Time),748398.8999999762,178_m_m_n_a.png,O,m,1597,7,1,2613.600000023842,745785.2999999523,7229,NNB,B,5
6,test,3,1.0,2-Back,1.0,z,Thu Nov 13 2025 11:55:21 GMT-0600 (Central Standard Time),750131.7000000477,013_y_m_n_a.png,O,z,717,8,1,1730.5,748401.2000000477,7229,NNB,B,6
7,test,3,0.0,2-Back,1.0,m,Thu Nov 13 2025 11:55:21 GMT-0600 (Central Standard Time),751980.7999999523,173_y_f_n_a.png,O,m,826,9,1,1846.3999999761581,750134.3999999762,7229,NNB,B,7
8,test,3,0.0,2-Back,1.0,m,Thu Nov 13 2025 11:55:21 GMT-0600 (Central Standard Time),754030.1000000238,126_m_m_n_a.png,O,m,1030,10,1,2045.5,751984.6000000238,7229,NNB,B,8
9,test,3,1.0,2-Back,1.0,z,Thu Nov 13 2025 11:55:21 GMT-0600 (Central Standard Time),755966.2000000477,173_y_f_n_a.png,O,z,908,11,1,1933.9000000953674,754032.2999999523,7229,NNB,B,9
10,test,3,1.0,2-Back,1.0,z,Thu Nov 13 2025 11:55:21 GMT-0600 (Central Standard Time),758396.1000000238,126_m_m_n_a.png,O,z,1398,12,1,2427.399999976158,755968.7000000477,7229,NNB,B,10
11,test,3,0.0,2-Back,1.0,m,Thu Nov 13 2025 11:55:21 GMT-0600 (Central Standard Time),760296.1000000238,110_o_f_n_a.png,O,m,870,13,1,1897.6000000238419,758398.5,7229,NNB,B,11
12,test,3,0.0,2-Back,1.0,m,Thu Nov 13 2025 11:55:21 GMT-0600 (Central Standard Time),762145.1000000238,097_m_f_n_a.png,O,m,827,14,1,1846.3999999761581,760298.7000000477,7229,NNB,B,12
13,test,3,0.0,2-Back,1.0,m,Thu Nov 13 2025 11:55:21 GMT-0600 (Central Standard Time),763978.5,065_o_m_n_a.png,O,m,808,15,1,1831.0,762147.5,7229,NNB,B,13
14,test,3,1.0,2-Back,1.0,z,Thu Nov 13 2025 11:55:21 GMT-0600 (Central Standard Time),765727.0,097_m_f_n_a.png,O,z,728,16,1,1745.6000000238419,763981.3999999762,7229,NNB,B,14
15,test,3,0.0,2-Back,1.0,m,Thu Nov 13 2025 11:55:21 GMT-0600 (Central Standard Time),767543.2999999523,086_o_f_n_a.png,O,m,788,17,1,1813.0,765730.2999999523,7229,NNB,B,15
16,test,3,0.0,2-Back,1.0,m,Thu Nov 13 2025 11:55:21 GMT-0600 (Central Standard Time),769626.2999999523,086_o_f_n_a.png,O,m,1058,18,1,2080.5,767545.7999999523,7229,NNB,B,16
0,test,4,0.0,2-Back,,,Thu Nov 13 2025 11:55:21 GMT-0600 (Central Standard Time),769626.2999999523,176_o_m_n_a.png,O,space,3753,1,1,2080.5,767545.7999999523,7229,NNB,B,0
0,test,4,0.0,2-Back,,,Thu Nov 13 2025 11:55:21 GMT-0600 (Central Standard Time),769626.2999999523,152_y_f_n_a.png,O,space,3753,2,1,2080.5,767545.7999999523,7229,NNB,B,0
1,test,4,1.0,2-Back,1.0,z,Thu Nov 13 2025 11:55:21 GMT-0600 (Central Standard Time),780456.7000000477,176_o_m_n_a.png,O,z,862,3,1,1880.2000000476837,778576.5,7229,NNB,B,1
2,test,4,1.0,2-Back,1.0,z,Thu Nov 13 2025 11:55:21 GMT-0600 (Central Standard Time),782238.8999999762,152_y_f_n_a.png,O,z,756,4,1,1779.6000000238419,780459.2999999523,7229,NNB,B,2
3,test,4,0.0,2-Back,1.0,m,Thu Nov 13 2025 11:55:21 GMT-0600 (Central Standard Time),783904.5,110_o_f_n_a.png,O,m,644,5,1,1663.0,782241.5,7229,NNB,B,3
4,test,4,0.0,2-Back,1.0,m,Thu Nov 13 2025 11:55:21 GMT-0600 (Central Standard Time),785987.2000000477,110_o_f_n_a.png,O,m,1051,6,1,2080.100000023842,783907.1000000238,7229,NNB,B,4
5,test,4,0.0,2-Back,1.0,m,Thu Nov 13 2025 11:55:21 GMT-0600 (Central Standard Time),787903.5,029_m_f_n_a.png,O,m,886,7,1,1913.3999999761581,785990.1000000238,7229,NNB,B,5
6,test,4,0.0,2-Back,1.0,m,Thu Nov 13 2025 11:55:21 GMT-0600 (Central Standard Time),789586.8999999762,013_y_m_n_a.png,O,m,651,8,1,1680.2999999523163,787906.6000000238,7229,NNB,B,6
7,test,4,1.0,2-Back,1.0,z,Thu Nov 13 2025 11:55:21 GMT-0600 (Central Standard Time),791369.8999999762,029_m_f_n_a.png,O,z,759,9,1,1778.5,789591.3999999762,7229,NNB,B,7
8,test,4,0.0,2-Back,1.0,m,Thu Nov 13 2025 11:55:21 GMT-0600 (Central Standard Time),793285.2000000477,126_m_m_n_a.png,O,m,889,10,1,1912.8000000715256,791372.3999999762,7229,NNB,B,8
9,test,4,0.0,2-Back,1.0,m,Thu Nov 13 2025 11:55:21 GMT-0600 (Central Standard Time),795317.5,013_y_m_n_a.png,O,m,1014,11,1,2029.6000000238419,793287.8999999762,7229,NNB,B,9
10,test,4,0.0,2-Back,1.0,m,Thu Nov 13 2025 11:55:21 GMT-0600 (Central Standard Time),797335.7000000477,086_o_f_n_a.png,O,m,988,12,1,2015.7000000476837,795320.0,7229,NNB,B,10
11,test,4,0.0,2-Back,1.0,m,Thu Nov 13 2025 11:55:21 GMT-0600 (Central Standard Time),799133.8999999762,153_y_m_n_a.png,O,m,781,13,1,1795.7999999523163,797338.1000000238,7229,NNB,B,11
12,test,4,1.0,2-Back,1.0,z,Thu Nov 13 2025 11:55:21 GMT-0600 (Central Standard Time),800782.6000000238,086_o_f_n_a.png,O,z,622,14,1,1646.2000000476837,799136.3999999762,7229,NNB,B,12
13,test,4,1.0,2-Back,1.0,z,Thu Nov 13 2025 11:55:21 GMT-0600 (Central Standard Time),803182.5,153_y_m_n_a.png,O,z,1372,15,1,2397.2999999523163,800785.2000000477,7229,NNB,B,13
14,test,4,0.0,2-Back,1.0,m,Thu Nov 13 2025 11:55:21 GMT-0600 (Central Standard Time),804981.1000000238,178_m_m_n_a.png,O,m,773,16,1,1796.3999999761581,803184.7000000477,7229,NNB,B,14
15,test,4,0.0,2-Back,1.0,m,Thu Nov 13 2025 11:55:21 GMT-0600 (Central Standard Time),806865.2000000477,097_m_f_n_a.png,O,m,861,17,1,1881.5,804983.7000000477,7229,NNB,B,15
16,test,4,1.0,2-Back,1.0,z,Thu Nov 13 2025 11:55:21 GMT-0600 (Central Standard Time),808730.2000000477,178_m_m_n_a.png,O,z,834,18,1,1862.3000000715256,806867.8999999762,7229,NNB,B,16
0,test,5,1.0,2-Back,,,Thu Nov 13 2025 11:55:21 GMT-0600 (Central Standard Time),808730.2000000477,153_y_m_n_a.png,O,space,4378,1,1,1862.3000000715256,806867.8999999762,7229,NNB,B,0
0,test,5,1.0,2-Back,,,Thu Nov 13 2025 11:55:21 GMT-0600 (Central Standard Time),808730.2000000477,097_m_f_n_a.png,O,space,4378,2,1,1862.3000000715256,806867.8999999762,7229,NNB,B,0
1,test,5,1.0,2-Back,1.0,z,Thu Nov 13 2025 11:55:21 GMT-0600 (Central Standard Time),819926.5,153_y_m_n_a.png,O,z,739,3,1,1763.0,818163.5,7229,NNB,B,1
2,test,5,1.0,2-Back,1.0,z,Thu Nov 13 2025 11:55:21 GMT-0600 (Central Standard Time),821542.1000000238,097_m_f_n_a.png,O,z,597,4,1,1613.1000000238419,819929.0,7229,NNB,B,2
3,test,5,0.0,2-Back,1.0,m,Thu Nov 13 2025 11:55:21 GMT-0600 (Central Standard Time),823325.6000000238,086_o_f_n_a.png,O,m,761,5,1,1781.1000000238419,821544.5,7229,NNB,B,3
4,test,5,0.0,2-Back,1.0,m,Thu Nov 13 2025 11:55:21 GMT-0600 (Central Standard Time),825474.2999999523,153_y_m_n_a.png,O,m,1127,6,1,2146.2999999523163,823328.0,7229,NNB,B,4
5,test,5,0.0,2-Back,1.0,m,Thu Nov 13 2025 11:55:21 GMT-0600 (Central Standard Time),827306.7999999523,173_y_f_n_a.png,O,m,808,7,1,1829.7999999523163,825477.0,7229,NNB,B,5
5,test,5,0.0,2-Back,0.0,m,Thu Nov 13 2025 11:55:21 GMT-0600 (Central Standard Time),829224.7999999523,086_o_f_n_a.png,O,z,886,8,1,1914.5999999046326,827310.2000000477,7229,NNB,B,6
6,test,5,1.0,2-Back,1.0,z,Thu Nov 13 2025 11:55:21 GMT-0600 (Central Standard Time),831339.2000000477,173_y_f_n_a.png,O,z,1085,9,1,2110.8000000715256,829228.3999999762,7229,NNB,B,7
7,test,5,0.0,2-Back,1.0,m,Thu Nov 13 2025 11:55:21 GMT-0600 (Central Standard Time),833039.0,065_o_m_n_a.png,O,m,671,10,1,1697.3999999761581,831341.6000000238,7229,NNB,B,8
8,test,5,0.0,2-Back,1.0,m,Thu Nov 13 2025 11:55:21 GMT-0600 (Central Standard Time),834921.2000000477,029_m_f_n_a.png,O,m,859,11,1,1879.0,833042.2000000477,7229,NNB,B,9
9,test,5,0.0,2-Back,1.0,m,Thu Nov 13 2025 11:55:21 GMT-0600 (Central Standard Time),836639.7000000477,126_m_m_n_a.png,O,m,698,12,1,1716.1000000238419,834923.6000000238,7229,NNB,B,10
10,test,5,0.0,2-Back,1.0,m,Thu Nov 13 2025 11:55:21 GMT-0600 (Central Standard Time),838520.1000000238,065_o_m_n_a.png,O,m,853,13,1,1877.3999999761581,836642.7000000477,7229,NNB,B,11
11,test,5,1.0,2-Back,1.0,z,Thu Nov 13 2025 11:55:21 GMT-0600 (Central Standard Time),840319.2999999523,126_m_m_n_a.png,O,z,770,14,1,1795.7999999523163,838523.5,7229,NNB,B,12
12,test,5,0.0,2-Back,1.0,m,Thu Nov 13 2025 11:55:21 GMT-0600 (Central Standard Time),842019.6000000238,152_y_f_n_a.png,O,m,683,15,1,1697.7000000476837,840321.8999999762,7229,NNB,B,13
13,test,5,0.0,2-Back,1.0,m,Thu Nov 13 2025 11:55:21 GMT-0600 (Central Standard Time),843802.7000000477,176_o_m_n_a.png,O,m,760,16,1,1780.2000000476837,842022.5,7229,NNB,B,14
14,test,5,0.0,2-Back,1.0,m,Thu Nov 13 2025 11:55:21 GMT-0600 (Central Standard Time),845552.2999999523,029_m_f_n_a.png,O,m,721,17,1,1747.0,843805.2999999523,7229,NNB,B,15
15,test,5,1.0,2-Back,1.0,z,Thu Nov 13 2025 11:55:21 GMT-0600 (Central Standard Time),847084.2999999523,176_o_m_n_a.png,O,z,505,18,1,1528.5,845555.7999999523,7229,NNB,B,16
