acc_sum,block,block_c,condition,correct,correct_response,datetime,endtime,flanker,jitter,project,response,response_test_buffer_response,response_test_target_response,response_time,response_time_test_buffer_response,response_time_test_target_response,row_sel,session_number,start_end,starttime,subject_id,target,task,task_vers,time_test_buffer,time_test_buffer_response,time_test_constants,time_test_flanker,time_test_jitter,time_test_logger,time_test_target,time_test_target_response,time_test_variables,trial
1,prac,1,con,1,m,Wed Mar 11 2026 12:47:46 GMT-0500 (Central Daylight Time),212364.09999999404,bell,1000,O,m,,,1709,,,3,1,4010.5999999940395,208353.5,7772,bell,AF,C,,,,,,,,,,1
2,prac,1,inc,1,z,Wed Mar 11 2026 12:47:46 GMT-0500 (Central Daylight Time),215430.0,film,900,O,z,,,850,,,14,1,3059.800000011921,212370.19999998808,7772,hate,AF,C,,,,,,,,,,2
3,prac,1,con,1,m,Wed Mar 11 2026 12:47:46 GMT-0500 (Central Daylight Time),218212.19999998808,jacket,800,O,m,,,669,,,5,1,2777.9000000059605,215434.29999998212,7772,jacket,AF,C,,,,,,,,,,3
4,prac,1,con,1,z,Wed Mar 11 2026 12:47:46 GMT-0500 (Central Daylight Time),221711.29999998212,love,1000,O,z,,,1190,,,11,1,3494.5,218216.79999998212,7772,love,AF,C,,,,,,,,,,4
5,prac,1,inc,1,m,Wed Mar 11 2026 12:47:46 GMT-0500 (Central Daylight Time),224910.40000000596,brutal,1100,O,m,,,792,,,8,1,3194.800000011921,221715.59999999404,7772,window,AF,C,,,,,,,,,,5
6,prac,1,con,1,m,Wed Mar 11 2026 12:47:46 GMT-0500 (Central Daylight Time),228359.40000000596,remote,1000,O,m,,,1149,,,7,1,3444.300000011921,224915.09999999404,7772,remote,AF,C,,,,,,,,,,6
7,prac,1,inc,1,m,Wed Mar 11 2026 12:47:46 GMT-0500 (Central Daylight Time),231458.40000000596,elated,900,O,m,,,894,,,6,1,3094.7000000178814,228363.69999998808,7772,napkin,AF,C,,,,,,,,,,7
8,prac,1,con,1,z,Wed Mar 11 2026 12:47:46 GMT-0500 (Central Daylight Time),234423.90000000596,elated,800,O,z,,,865,,,9,1,2961.4000000059605,231462.5,7772,elated,AF,C,,,,,,,,,,8
9,prac,1,inc,1,m,Wed Mar 11 2026 12:47:46 GMT-0500 (Central Daylight Time),237539.90000000596,hate,1100,O,m,,,703,,,4,1,3111.9000000059605,234428.0,7772,film,AF,C,,,,,,,,,,9
10,prac,1,inc,1,z,Wed Mar 11 2026 12:47:46 GMT-0500 (Central Daylight Time),241138.59999999404,rock,900,O,z,,,1394,,,10,1,3594.300000011921,237544.29999998212,7772,kind,AF,C,,,,,,,,,,10
11,prac,1,con,1,z,Wed Mar 11 2026 12:47:46 GMT-0500 (Central Daylight Time),244437.40000000596,rage,1000,O,z,,,983,,,15,1,3294.2000000178814,241143.19999998808,7772,rage,AF,C,,,,,,,,,,11
12,prac,1,inc,1,z,Wed Mar 11 2026 12:47:46 GMT-0500 (Central Daylight Time),248386.19999998808,napkin,1100,O,z,,,1545,,,12,1,3944.7999999821186,244441.40000000596,7772,friend,AF,C,,,,,,,,,,12
13,prac,1,con,1,m,Wed Mar 11 2026 12:47:46 GMT-0500 (Central Daylight Time),251469.79999998212,step,800,O,m,,,975,,,1,1,3079.0,248390.79999998212,7772,step,AF,C,,,,,,,,,,13
14,prac,1,inc,1,m,Wed Mar 11 2026 12:47:46 GMT-0500 (Central Daylight Time),254784.40000000596,kind,900,O,m,,,1122,,,2,1,3310.300000011921,251474.09999999404,7772,rock,AF,C,,,,,,,,,,14
14,prac,1,con,0,z,Wed Mar 11 2026 12:47:46 GMT-0500 (Central Daylight Time),258716.5,brutal,800,O,m,,,1819,,,13,1,3928.0,254788.5,7772,brutal,AF,C,,,,,,,,,,15
15,prac,1,inc,1,z,Wed Mar 11 2026 12:47:46 GMT-0500 (Central Daylight Time),262248.6999999881,window,1100,O,z,,,1139,,,16,1,3527.9000000059605,258720.79999998212,7772,temper,AF,C,,,,,,,,,,16
0,prac,2,inc,0,z,Wed Mar 11 2026 12:47:46 GMT-0500 (Central Daylight Time),291906.09999999404,napkin,1100,O,None,,,1799,,,12,1,5160.9000000059605,286745.1999999881,7772,friend,AF,C,,,,,,,,,,1
0,prac,2,inc,0,z,Wed Mar 11 2026 12:47:46 GMT-0500 (Central Daylight Time),296871.40000000596,rock,900,O,None,,,1799,,,10,1,4960.100000023842,291911.2999999821,7772,kind,AF,C,,,,,,,,,,2
0,prac,2,con,0,m,Wed Mar 11 2026 12:47:46 GMT-0500 (Central Daylight Time),301936.1999999881,bell,1000,O,None,,,1799,,,3,1,5060.699999988079,296875.5,7772,bell,AF,C,,,,,,,,,,3
1,prac,2,con,1,z,Wed Mar 11 2026 12:47:46 GMT-0500 (Central Daylight Time),304802.09999999404,elated,800,O,z,,,762,,,9,1,2861.5999999940395,301940.5,7772,elated,AF,C,,,,,,,,,,4
2,prac,2,inc,1,z,Wed Mar 11 2026 12:47:46 GMT-0500 (Central Daylight Time),308034.5,window,1100,O,z,,,822,,,16,1,3228.5,304806.0,7772,temper,AF,C,,,,,,,,,,5
3,prac,2,inc,1,m,Wed Mar 11 2026 12:47:46 GMT-0500 (Central Daylight Time),311033.5,elated,900,O,m,,,787,,,6,1,2995.0999999940395,308038.40000000596,7772,napkin,AF,C,,,,,,,,,,6
4,prac,2,inc,1,m,Wed Mar 11 2026 12:47:46 GMT-0500 (Central Daylight Time),314182.59999999404,brutal,1100,O,m,,,742,,,8,1,3145.0,311037.59999999404,7772,window,AF,C,,,,,,,,,,7
5,prac,2,inc,1,z,Wed Mar 11 2026 12:47:46 GMT-0500 (Central Daylight Time),317115.0,film,900,O,z,,,721,,,14,1,2928.300000011921,314186.6999999881,7772,hate,AF,C,,,,,,,,,,8
6,prac,2,con,1,m,Wed Mar 11 2026 12:47:46 GMT-0500 (Central Daylight Time),320130.5,jacket,800,O,m,,,904,,,5,1,3011.5999999940395,317118.90000000596,7772,jacket,AF,C,,,,,,,,,,9
7,prac,2,con,1,z,Wed Mar 11 2026 12:47:46 GMT-0500 (Central Daylight Time),323412.90000000596,brutal,800,O,z,,,1175,,,13,1,3278.100000023842,320134.7999999821,7772,brutal,AF,C,,,,,,,,,,10
8,prac,2,con,1,z,Wed Mar 11 2026 12:47:46 GMT-0500 (Central Daylight Time),326495.2999999821,love,1000,O,z,,,774,,,11,1,3078.2999999821186,323417.0,7772,love,AF,C,,,,,,,,,,11
9,prac,2,con,1,m,Wed Mar 11 2026 12:47:46 GMT-0500 (Central Daylight Time),330760.59999999404,remote,1000,O,m,,,1964,,,7,1,4261.4000000059605,326499.1999999881,7772,remote,AF,C,,,,,,,,,,12
10,prac,2,con,1,z,Wed Mar 11 2026 12:47:46 GMT-0500 (Central Daylight Time),333809.6999999881,rage,1000,O,z,,,745,,,15,1,3045.2999999821186,330764.40000000596,7772,rage,AF,C,,,,,,,,,,13
11,prac,2,con,1,m,Wed Mar 11 2026 12:47:46 GMT-0500 (Central Daylight Time),336675.2999999821,step,800,O,m,,,761,,,1,1,2861.399999976158,333813.90000000596,7772,step,AF,C,,,,,,,,,,14
12,prac,2,inc,1,m,Wed Mar 11 2026 12:47:46 GMT-0500 (Central Daylight Time),339790.90000000596,kind,900,O,m,,,907,,,2,1,3111.5,336679.40000000596,7772,rock,AF,C,,,,,,,,,,15
13,prac,2,inc,1,m,Wed Mar 11 2026 12:47:46 GMT-0500 (Central Daylight Time),343006.7999999821,hate,1100,O,m,,,800,,,4,1,3211.899999976158,339794.90000000596,7772,film,AF,C,,,,,,,,,,16
1,test,1,con,1,z,Wed Mar 11 2026 12:47:46 GMT-0500 (Central Daylight Time),361834.09999999404,friend,800,O,z,z,None,896,696.0,200.0,25,1,2228.9000000059605,359605.1999999881,7772,friend,AF,C,355487,355487,353956,354769,353956,356185,355286,355286,356185,1
1,test,1,con,0,z,Wed Mar 11 2026 12:47:46 GMT-0500 (Central Daylight Time),364150.1999999881,brutal,900,O,m,m,None,877,678.0,199.0,34,1,2311.7999999821186,361838.40000000596,7772,brutal,AF,C,357818,357818,356189,357102,356190,358501,357619,357619,358501,2
2,test,1,inc,1,z,Wed Mar 11 2026 12:47:46 GMT-0500 (Central Daylight Time),366366.09999999404,step,800,O,z,z,None,876,677.0,199.0,13,1,2210.9000000059605,364155.1999999881,7772,kind,AF,C,360034,360034,358506,359319,358507,360717,359835,359835,360717,3
3,test,1,con,1,m,Wed Mar 11 2026 12:47:46 GMT-0500 (Central Daylight Time),368448.90000000596,napkin,900,O,m,m,None,641,441.0,200.0,106,1,2078.300000011921,366370.59999999404,7772,napkin,AF,C,362350,362350,360722,361634,360722,362800,362150,362150,362800,4
4,test,1,con,1,m,Wed Mar 11 2026 12:47:46 GMT-0500 (Central Daylight Time),370798.0,napkin,1100,O,m,m,None,693,486.0,207.0,108,1,2345.0,368453.0,7772,napkin,AF,C,364649,364649,362804,363916,362804,365149,364442,364442,365149,5
5,test,1,inc,1,z,Wed Mar 11 2026 12:47:46 GMT-0500 (Central Daylight Time),372864.1999999881,jacket,800,O,z,z,None,733,533.0,200.0,5,1,2062.2999999821186,370801.90000000596,7772,elated,AF,C,366682,366682,365153,365966,365153,367215,366482,366482,367215,6
6,test,1,inc,1,m,Wed Mar 11 2026 12:47:46 GMT-0500 (Central Daylight Time),375113.40000000596,love,1000,O,m,m,None,707,507.0,200.0,79,1,2245.4000000059605,372868.0,7772,rock,AF,C,368948,368948,367219,368231,367219,369464,368748,368748,369464,7
7,test,1,con,1,z,Wed Mar 11 2026 12:47:46 GMT-0500 (Central Daylight Time),377445.7999999821,temper,900,O,z,z,None,886,686.0,200.0,58,1,2328.5,375117.2999999821,7772,temper,AF,C,371097,371098,369468,370381,369469,371797,370897,370897,371797,8
8,test,1,con,1,m,Wed Mar 11 2026 12:47:46 GMT-0500 (Central Daylight Time),379528.6999999881,film,800,O,m,m,None,733,533.0,200.0,89,1,2079.0999999940395,377449.59999999404,7772,film,AF,C,373330,373330,371801,372614,371801,373880,373130,373130,373880,9
9,test,1,inc,1,m,Wed Mar 11 2026 12:47:46 GMT-0500 (Central Daylight Time),381611.40000000596,rage,800,O,m,m,None,737,538.0,199.0,93,1,2078.800000011921,379532.59999999404,7772,film,AF,C,375413,375413,373884,374696,373884,375962,375213,375213,375962,10
10,test,1,inc,1,m,Wed Mar 11 2026 12:47:46 GMT-0500 (Central Daylight Time),383810.59999999404,love,1000,O,m,m,None,656,457.0,199.0,95,1,2195.300000011921,381615.2999999821,7772,film,AF,C,377695,377695,375966,376979,375967,378162,377496,377496,378162,11
11,test,1,inc,1,z,Wed Mar 11 2026 12:47:46 GMT-0500 (Central Daylight Time),385893.40000000596,rock,900,O,z,z,None,645,445.0,200.0,22,1,2078.4000000059605,383815.0,7772,love,AF,C,379795,379795,378166,379078,378166,380244,379595,379595,380244,12
12,test,1,con,1,z,Wed Mar 11 2026 12:47:46 GMT-0500 (Central Daylight Time),388025.7999999821,hate,800,O,z,z,None,797,597.0,200.0,41,1,2128.699999988079,385897.09999999404,7772,hate,AF,C,381778,381778,380248,381061,380248,382377,381578,381578,382377,13
13,test,1,con,1,z,Wed Mar 11 2026 12:47:46 GMT-0500 (Central Daylight Time),390158.59999999404,elated,1100,O,z,z,None,493,293.0,200.0,4,1,2129.199999988079,388029.40000000596,7772,elated,AF,C,384210,384210,382380,383494,382381,384510,384010,384010,384510,14
14,test,1,inc,1,z,Wed Mar 11 2026 12:47:46 GMT-0500 (Central Daylight Time),392458.09999999404,film,1100,O,z,z,None,656,457.0,199.0,16,1,2295.800000011921,390162.2999999821,7772,kind,AF,C,386343,386343,384513,385626,384514,386809,386143,386143,386809,15
15,test,1,con,1,z,Wed Mar 11 2026 12:47:46 GMT-0500 (Central Daylight Time),394740.5,rage,1100,O,z,z,None,605,405.0,200.0,52,1,2278.7000000178814,392461.7999999821,7772,rage,AF,C,388675,388675,386813,387971,386813,389092,388475,388475,389092,16
16,test,1,inc,1,z,Wed Mar 11 2026 12:47:46 GMT-0500 (Central Daylight Time),397039.59999999404,film,1100,O,z,z,None,675,476.0,199.0,56,1,2295.300000011921,394744.2999999821,7772,rage,AF,C,390908,390908,389095,390208,389096,391391,390709,390709,391391,17
17,test,1,inc,1,m,Wed Mar 11 2026 12:47:46 GMT-0500 (Central Daylight Time),399372.40000000596,friend,1100,O,m,m,None,695,496.0,199.0,128,1,2329.0,397043.40000000596,7772,window,AF,C,393224,393224,391394,392508,391395,393724,393024,393024,393723,18
18,test,1,con,1,m,Wed Mar 11 2026 12:47:46 GMT-0500 (Central Daylight Time),401788.1999999881,rock,1000,O,m,m,None,878,679.0,199.0,75,1,2411.9000000059605,399376.2999999821,7772,rock,AF,C,395457,395457,393727,394740,393728,396139,395257,395257,396139,19
19,test,1,con,1,z,Wed Mar 11 2026 12:47:46 GMT-0500 (Central Daylight Time),403904.5,kind,800,O,z,z,None,766,567.0,199.0,9,1,2112.300000011921,401792.1999999881,7772,kind,AF,C,397672,397672,396143,396956,396143,398256,397472,397473,398256,20
20,test,1,inc,1,m,Wed Mar 11 2026 12:47:46 GMT-0500 (Central Daylight Time),405970.2999999821,kind,900,O,m,m,None,624,424.0,200.0,94,1,2061.7999999821186,403908.5,7772,film,AF,C,399888,399888,398260,399172,398260,400321,399688,399688,400321,21
21,test,1,inc,1,m,Wed Mar 11 2026 12:47:46 GMT-0500 (Central Daylight Time),408136.2999999821,kind,900,O,m,m,None,715,516.0,199.0,78,1,2161.899999976158,405974.40000000596,7772,rock,AF,C,401955,401955,400325,401238,400326,402487,401754,401755,402487,22
22,test,1,con,1,m,Wed Mar 11 2026 12:47:46 GMT-0500 (Central Daylight Time),410418.90000000596,jacket,1000,O,m,m,None,739,539.0,200.0,99,1,2279.0,408139.90000000596,7772,jacket,AF,C,404220,404220,402491,403504,402491,404770,404020,404020,404770,23
23,test,1,inc,1,m,Wed Mar 11 2026 12:47:46 GMT-0500 (Central Daylight Time),412701.5,hate,1100,O,m,m,None,645,445.0,200.0,88,1,2278.800000011921,410422.6999999881,7772,bell,AF,C,406603,406603,404774,405887,404774,407053,406403,406403,407052,24
24,test,1,con,1,m,Wed Mar 11 2026 12:47:46 GMT-0500 (Central Daylight Time),414734.2999999821,rock,900,O,m,m,None,593,394.0,199.0,74,1,2028.3999999761581,412705.90000000596,7772,rock,AF,C,408686,408686,407057,407970,407057,409085,408486,408486,409085,25
25,test,1,con,1,m,Wed Mar 11 2026 12:47:46 GMT-0500 (Central Daylight Time),416767.09999999404,bell,900,O,m,m,None,584,384.0,200.0,82,1,2029.0999999940395,414738.0,7772,bell,AF,C,410719,410719,409089,410002,409089,411118,410518,410518,411118,26
26,test,1,con,1,z,Wed Mar 11 2026 12:47:46 GMT-0500 (Central Daylight Time),418582.90000000596,love,800,O,z,z,None,477,277.0,200.0,17,1,1812.0,416770.90000000596,7772,love,AF,C,412651,412651,411122,411936,411122,412934,412451,412451,412934,27
27,test,1,con,1,m,Wed Mar 11 2026 12:47:46 GMT-0500 (Central Daylight Time),420699.09999999404,bell,1100,O,m,m,None,480,280.0,200.0,84,1,2112.300000011921,418586.7999999821,7772,bell,AF,C,414767,414767,412938,414051,412938,415050,414567,414567,415050,28
28,test,1,con,1,m,Wed Mar 11 2026 12:47:46 GMT-0500 (Central Daylight Time),422898.5,rock,800,O,m,m,None,864,664.0,200.0,73,1,2195.5999999940395,420702.90000000596,7772,rock,AF,C,416583,416583,415054,415867,415054,417250,416383,416383,417250,29
29,test,1,con,1,z,Wed Mar 11 2026 12:47:46 GMT-0500 (Central Daylight Time),424814.40000000596,elated,900,O,z,z,None,476,277.0,199.0,2,1,1911.9000000059605,422902.5,7772,elated,AF,C,418883,418883,417254,418166,417254,419165,418683,418683,419165,30
30,test,1,inc,1,z,Wed Mar 11 2026 12:47:46 GMT-0500 (Central Daylight Time),427397.09999999404,remote,1000,O,z,z,None,1036,837.0,199.0,31,1,2578.800000011921,424818.2999999821,7772,friend,AF,C,420898,420898,419169,420182,419170,421748,420699,420699,421748,31
31,test,1,con,1,m,Wed Mar 11 2026 12:47:46 GMT-0500 (Central Daylight Time),429262.90000000596,step,800,O,m,m,None,518,318.0,200.0,65,1,1861.800000011921,427401.09999999404,7772,step,AF,C,423281,423281,421752,422565,421752,423614,423081,423081,423614,32
32,test,1,inc,1,m,Wed Mar 11 2026 12:47:46 GMT-0500 (Central Daylight Time),431528.7999999821,temper,1000,O,m,m,None,732,532.0,200.0,103,1,2262.0,429266.7999999821,7772,jacket,AF,C,425347,425347,423618,424630,423618,425880,425147,425147,425880,33
33,test,1,con,1,z,Wed Mar 11 2026 12:47:46 GMT-0500 (Central Daylight Time),433844.90000000596,friend,900,O,z,z,None,879,679.0,200.0,26,1,2312.4000000059605,431532.5,7772,friend,AF,C,427513,427513,425884,426797,425884,428196,427313,427313,428196,34
34,test,1,inc,1,z,Wed Mar 11 2026 12:47:46 GMT-0500 (Central Daylight Time),436077.59999999404,napkin,900,O,z,z,None,794,594.0,200.0,62,1,2229.0,433848.59999999404,7772,temper,AF,C,429829,429829,428200,429113,428200,430429,429629,429629,430429,35
35,test,1,con,1,m,Wed Mar 11 2026 12:47:46 GMT-0500 (Central Daylight Time),438510.0,remote,900,O,m,m,None,985,786.0,199.0,114,1,2428.9000000059605,436081.09999999404,7772,remote,AF,C,432062,432062,430432,431345,430432,432861,431862,431862,432861,36
36,test,1,con,1,z,Wed Mar 11 2026 12:47:46 GMT-0500 (Central Daylight Time),440825.7999999821,hate,1100,O,z,z,None,673,473.0,200.0,44,1,2311.899999976158,438513.90000000596,7772,hate,AF,C,434694,434694,432865,433978,432865,435177,434494,434494,435177,37
37,test,1,con,1,m,Wed Mar 11 2026 12:47:46 GMT-0500 (Central Daylight Time),443208.6999999881,film,1100,O,m,m,None,741,541.0,200.0,92,1,2379.0999999940395,440829.59999999404,7772,film,AF,C,437010,437011,435181,436294,435181,437560,436810,436810,437560,38
38,test,1,con,1,z,Wed Mar 11 2026 12:47:46 GMT-0500 (Central Daylight Time),445391.2999999821,brutal,1000,O,z,z,None,634,434.0,200.0,35,1,2178.5,443212.7999999821,7772,brutal,AF,C,439293,439293,437564,438578,437564,439742,439093,439093,439742,39
39,test,1,con,1,z,Wed Mar 11 2026 12:47:46 GMT-0500 (Central Daylight Time),447740.59999999404,elated,800,O,z,z,None,1011,812.0,199.0,1,1,2345.699999988079,445394.90000000596,7772,elated,AF,C,441275,441275,439746,440560,439746,442092,441076,441076,442092,40
40,test,1,inc,1,z,Wed Mar 11 2026 12:47:46 GMT-0500 (Central Daylight Time),449906.6999999881,rock,900,O,z,z,None,721,506.0,215.0,14,1,2162.2999999821186,447744.40000000596,7772,kind,AF,C,443741,443741,442095,443008,442096,444258,443526,443526,444258,41
41,test,1,inc,1,m,Wed Mar 11 2026 12:47:46 GMT-0500 (Central Daylight Time),451939.40000000596,brutal,900,O,m,m,None,587,388.0,199.0,102,1,2028.4000000059605,449911.0,7772,jacket,AF,C,445891,445891,444262,445174,444262,446290,445691,445691,446290,42
42,test,1,inc,1,m,Wed Mar 11 2026 12:47:46 GMT-0500 (Central Daylight Time),454705.0,friend,1100,O,m,m,None,1124,924.0,200.0,120,1,2761.4000000059605,451943.59999999404,7772,remote,AF,C,448124,448124,446295,447407,446295,449056,447923,447923,449056,43
43,test,1,inc,1,z,Wed Mar 11 2026 12:47:46 GMT-0500 (Central Daylight Time),456954.59999999404,napkin,900,O,z,z,None,806,606.0,200.0,38,1,2245.9000000059605,454708.6999999881,7772,brutal,AF,C,450689,450689,449060,449973,449060,451306,450489,450489,451306,44
44,test,1,inc,1,m,Wed Mar 11 2026 12:47:46 GMT-0500 (Central Daylight Time),459154.6999999881,temper,1000,O,m,m,None,665,466.0,199.0,111,1,2196.4000000059605,456958.2999999821,7772,napkin,AF,C,453038,453038,451309,452322,451310,453506,452839,452839,453506,45
45,test,1,inc,1,m,Wed Mar 11 2026 12:47:46 GMT-0500 (Central Daylight Time),461503.0,brutal,900,O,m,m,None,901,701.0,200.0,118,1,2344.300000011921,459158.6999999881,7772,remote,AF,C,455138,455138,453510,454421,453510,455854,454938,454938,455854,46
46,test,1,inc,1,z,Wed Mar 11 2026 12:47:46 GMT-0500 (Central Daylight Time),463602.5,rock,900,O,z,z,None,657,457.0,200.0,46,1,2095.300000011921,461507.1999999881,7772,hate,AF,C,457487,457487,455858,456771,455858,457954,457287,457287,457954,47
47,test,1,inc,1,z,Wed Mar 11 2026 12:47:46 GMT-0500 (Central Daylight Time),465935.0,napkin,900,O,z,z,None,884,685.0,199.0,30,1,2328.7000000178814,463606.2999999821,7772,friend,AF,C,459586,459586,457957,458870,457958,460286,459387,459387,460286,48
48,test,1,inc,1,z,Wed Mar 11 2026 12:47:46 GMT-0500 (Central Daylight Time),467984.40000000596,jacket,800,O,z,z,None,700,500.0,200.0,29,1,2045.6000000238419,465938.7999999821,7772,friend,AF,C,461819,461819,460290,461103,460290,462335,461619,461619,462335,49
49,test,1,con,1,z,Wed Mar 11 2026 12:47:46 GMT-0500 (Central Daylight Time),470183.7999999821,hate,900,O,z,z,None,758,558.0,200.0,42,1,2195.699999988079,467988.09999999404,7772,hate,AF,C,463968,463969,462339,463252,462339,464535,463768,463768,464535,50
50,test,1,inc,1,m,Wed Mar 11 2026 12:47:46 GMT-0500 (Central Daylight Time),472449.59999999404,elated,800,O,m,m,None,923,724.0,199.0,117,1,2262.0,470187.59999999404,7772,remote,AF,C,466068,466068,464539,465351,464539,466801,465868,465868,466801,51
51,test,1,con,1,m,Wed Mar 11 2026 12:47:46 GMT-0500 (Central Daylight Time),474832.2999999821,window,900,O,m,m,None,948,749.0,199.0,122,1,2378.899999976158,472453.40000000596,7772,window,AF,C,468434,468434,466804,467717,466805,469183,468234,468234,469183,52
52,test,1,inc,1,z,Wed Mar 11 2026 12:47:46 GMT-0500 (Central Daylight Time),476864.90000000596,jacket,800,O,z,z,None,683,483.0,200.0,37,1,2028.800000011921,474836.09999999404,7772,brutal,AF,C,470716,470716,469187,470000,469187,471216,470516,470516,471216,53
53,test,1,inc,1,m,Wed Mar 11 2026 12:47:46 GMT-0500 (Central Daylight Time),478947.5,brutal,900,O,m,m,None,646,446.0,200.0,110,1,2078.800000011921,476868.6999999881,7772,napkin,AF,C,472849,472849,471220,472133,471220,473299,472649,472649,473299,54
54,test,1,con,1,z,Wed Mar 11 2026 12:47:46 GMT-0500 (Central Daylight Time),481313.2999999821,brutal,800,O,z,z,None,1032,833.0,199.0,33,1,2361.899999976158,478951.40000000596,7772,brutal,AF,C,474831,474831,473302,474115,473303,475664,474632,474632,475664,55
55,test,1,inc,1,z,Wed Mar 11 2026 12:47:46 GMT-0500 (Central Daylight Time),483529.40000000596,bell,1000,O,z,z,None,674,474.0,200.0,55,1,2211.9000000059605,481317.5,7772,rage,AF,C,477398,477398,475669,476681,475669,477881,477197,477197,477880,56
56,test,1,inc,1,z,Wed Mar 11 2026 12:47:46 GMT-0500 (Central Daylight Time),485895.59999999404,window,1100,O,z,z,None,716,517.0,199.0,40,1,2361.0999999940395,483534.5,7772,brutal,AF,C,479713,479714,477886,478997,477886,480247,479514,479514,480247,57
57,test,1,con,1,m,Wed Mar 11 2026 12:47:46 GMT-0500 (Central Daylight Time),487906.6999999881,jacket,900,O,m,m,None,578,379.0,199.0,98,1,2007.0,485899.6999999881,7772,jacket,AF,C,481879,481879,480251,481163,480251,482258,481680,481680,482258,58
58,test,1,con,1,z,Wed Mar 11 2026 12:47:46 GMT-0500 (Central Daylight Time),490160.6999999881,kind,1100,O,z,z,None,607,392.0,215.0,12,1,2249.4000000059605,487911.2999999821,7772,kind,AF,C,484112,484112,482262,483379,482263,484512,483897,483897,484512,59
59,test,1,inc,1,z,Wed Mar 11 2026 12:47:46 GMT-0500 (Central Daylight Time),492176.5,jacket,800,O,z,z,None,682,482.0,200.0,61,1,2012.0999999940395,490164.40000000596,7772,temper,AF,C,486045,486045,484515,485328,484516,486528,485845,485845,486528,60
60,test,1,inc,1,m,Wed Mar 11 2026 12:47:46 GMT-0500 (Central Daylight Time),494660.09999999404,hate,1100,O,m,m,None,846,645.0,201.0,80,1,2479.9000000059605,492180.1999999881,7772,rock,AF,C,488362,488362,486531,487644,486532,489011,488161,488161,489011,61
61,test,1,inc,1,z,Wed Mar 11 2026 12:47:46 GMT-0500 (Central Daylight Time),496943.09999999404,bell,1000,O,z,z,None,737,537.0,200.0,47,1,2279.0,494664.09999999404,7772,hate,AF,C,490743,490743,489015,490027,489015,491294,490543,490543,491294,62
62,test,1,con,1,z,Wed Mar 11 2026 12:47:46 GMT-0500 (Central Daylight Time),499507.90000000596,brutal,1100,O,z,z,None,921,721.0,200.0,36,1,2560.9000000059605,496947.0,7772,brutal,AF,C,493126,493126,491298,492409,491298,493859,492926,492926,493859,63
63,test,1,inc,1,m,Wed Mar 11 2026 12:47:46 GMT-0500 (Central Daylight Time),501590.5,brutal,900,O,m,m,None,634,435.0,199.0,126,1,2079.0999999940395,499511.40000000596,7772,window,AF,C,495492,495492,493862,494775,493863,495942,495292,495292,495941,64
64,test,1,con,1,m,Wed Mar 11 2026 12:47:46 GMT-0500 (Central Daylight Time),503456.59999999404,bell,800,O,m,m,None,524,325.0,199.0,81,1,1862.5999999940395,501594.0,7772,bell,AF,C,497475,497475,495945,496758,495945,497808,497275,497275,497808,65
65,test,1,con,1,z,Wed Mar 11 2026 12:47:46 GMT-0500 (Central Daylight Time),505722.40000000596,elated,1000,O,z,z,None,731,531.0,200.0,3,1,2262.0,503460.40000000596,7772,elated,AF,C,499541,499541,497811,498824,497812,500073,499340,499340,500073,66
66,test,1,inc,1,z,Wed Mar 11 2026 12:47:46 GMT-0500 (Central Daylight Time),507888.5,remote,1000,O,z,z,None,616,416.0,200.0,7,1,2162.300000011921,505726.1999999881,7772,elated,AF,C,501807,501807,500077,501090,500078,502240,501606,501606,502239,67
67,test,1,inc,1,z,Wed Mar 11 2026 12:47:46 GMT-0500 (Central Daylight Time),510187.59999999404,window,1100,O,z,z,None,654,455.0,199.0,64,1,2295.4000000059605,507892.1999999881,7772,temper,AF,C,504072,504072,502243,503356,502244,504539,503873,503873,504539,68
68,test,1,con,1,z,Wed Mar 11 2026 12:47:46 GMT-0500 (Central Daylight Time),512237.09999999404,temper,800,O,z,z,None,710,504.0,206.0,57,1,2045.800000011921,510191.2999999821,7772,temper,AF,C,506072,506072,504542,505356,504543,506588,505866,505866,506588,69
69,test,1,con,1,m,Wed Mar 11 2026 12:47:46 GMT-0500 (Central Daylight Time),514586.40000000596,remote,1000,O,m,m,None,806,606.0,200.0,115,1,2345.300000011921,512241.09999999404,7772,remote,AF,C,508321,508321,506592,507605,506592,508937,508121,508121,508937,70
70,test,1,con,1,z,Wed Mar 11 2026 12:47:46 GMT-0500 (Central Daylight Time),517102.40000000596,temper,1100,O,z,z,None,877,678.0,199.0,60,1,2512.600000023842,514589.7999999821,7772,temper,AF,C,510770,510770,508941,510054,508941,511453,510571,510571,511453,71
71,test,1,inc,1,z,Wed Mar 11 2026 12:47:46 GMT-0500 (Central Daylight Time),519434.6999999881,remote,1000,O,z,z,None,789,590.0,199.0,39,1,2328.699999988079,517106.0,7772,brutal,AF,C,513186,513186,511457,512470,511457,513786,512987,512987,513786,72
72,test,1,con,1,m,Wed Mar 11 2026 12:47:46 GMT-0500 (Central Daylight Time),521501.2999999821,step,1000,O,m,m,None,520,320.0,200.0,67,1,2062.899999976158,519438.40000000596,7772,step,AF,C,515519,515519,513789,514802,513790,515852,515319,515319,515852,73
73,test,1,inc,1,m,Wed Mar 11 2026 12:47:46 GMT-0500 (Central Daylight Time),523566.7999999821,rage,800,O,m,m,None,727,527.0,200.0,77,1,2062.0,521504.7999999821,7772,rock,AF,C,517385,517385,515856,516669,515856,517918,517185,517185,517918,74
74,test,1,con,1,m,Wed Mar 11 2026 12:47:46 GMT-0500 (Central Daylight Time),525882.900000006,window,1000,O,m,m,None,780,580.0,200.0,123,1,2312.300000011921,523570.59999999404,7772,window,AF,C,519651,519651,517922,518935,517922,520234,519451,519451,520234,75
75,test,1,con,1,z,Wed Mar 11 2026 12:47:46 GMT-0500 (Central Daylight Time),528015.5,love,1100,O,z,z,None,493,293.0,200.0,20,1,2129.0,525886.5,7772,love,AF,C,522067,522067,520238,521350,520238,522367,521867,521867,522367,76
76,test,1,con,1,m,Wed Mar 11 2026 12:47:46 GMT-0500 (Central Daylight Time),529849.0,napkin,800,O,m,m,None,499,300.0,199.0,105,1,1829.9000000059605,528019.099999994,7772,napkin,AF,C,523900,523900,522370,523183,522370,524200,523700,523700,524200,77
77,test,1,con,1,z,Wed Mar 11 2026 12:47:46 GMT-0500 (Central Daylight Time),531781.1999999881,kind,900,O,z,z,None,495,296.0,199.0,10,1,1928.699999988079,529852.5,7772,kind,AF,C,525832,525832,524204,525116,524204,526132,525633,525633,526132,78
78,test,1,inc,1,m,Wed Mar 11 2026 12:47:46 GMT-0500 (Central Daylight Time),533746.7999999821,elated,800,O,m,m,None,631,431.0,200.0,125,1,1961.8999999761581,531784.900000006,7772,window,AF,C,527665,527665,526136,526949,526136,528098,527465,527465,528098,79
79,test,1,inc,1,m,Wed Mar 11 2026 12:47:46 GMT-0500 (Central Daylight Time),535896.400000006,kind,900,O,m,m,None,706,490.0,216.0,86,1,2145.5,533750.900000006,7772,bell,AF,C,529749,529749,528102,529015,528102,530247,529533,529533,530247,80
80,test,1,inc,1,m,Wed Mar 11 2026 12:47:46 GMT-0500 (Central Daylight Time),537912.2999999821,rage,800,O,m,m,None,665,466.0,199.0,85,1,2012.199999988079,535900.099999994,7772,bell,AF,C,531781,531781,530251,531064,530251,532263,531581,531581,532263,81
81,test,1,con,1,m,Wed Mar 11 2026 12:47:46 GMT-0500 (Central Daylight Time),540211.7999999821,jacket,1100,O,m,m,None,662,463.0,199.0,100,1,2295.699999988079,537916.099999994,7772,jacket,AF,C,534097,534097,532267,533380,532267,534563,533896,533897,534563,82
82,test,1,inc,1,z,Wed Mar 11 2026 12:47:46 GMT-0500 (Central Daylight Time),542511.0,rock,900,O,z,z,None,851,651.0,200.0,54,1,2295.4000000059605,540215.599999994,7772,rage,AF,C,536196,536196,534567,535480,534567,536862,535996,535996,536862,83
83,test,1,con,1,m,Wed Mar 11 2026 12:47:46 GMT-0500 (Central Daylight Time),544410.5,jacket,800,O,m,m,None,557,357.0,200.0,97,1,1895.7000000178814,542514.7999999821,7772,jacket,AF,C,538395,538395,536866,537679,536866,538762,538195,538195,538762,84
84,test,1,con,1,z,Wed Mar 11 2026 12:47:46 GMT-0500 (Central Daylight Time),546559.7999999821,temper,1000,O,z,z,None,608,408.0,200.0,59,1,2144.899999976158,544414.900000006,7772,temper,AF,C,540495,540495,538766,539778,538766,540911,540294,540294,540911,85
85,test,1,inc,1,z,Wed Mar 11 2026 12:47:46 GMT-0500 (Central Daylight Time),548559.1999999881,step,800,O,z,z,None,676,476.0,200.0,45,1,1995.7999999821186,546563.400000006,7772,hate,AF,C,542428,542428,540914,541727,540915,542910,542228,542228,542910,86
86,test,1,inc,1,m,Wed Mar 11 2026 12:47:46 GMT-0500 (Central Daylight Time),550675.0,kind,900,O,m,m,None,680,480.0,200.0,70,1,2112.2000000178814,548562.7999999821,7772,step,AF,C,544543,544543,542914,543827,542914,545026,544343,544343,545026,87
87,test,1,inc,1,z,Wed Mar 11 2026 12:47:46 GMT-0500 (Central Daylight Time),552808.0,step,800,O,z,z,None,784,584.0,200.0,21,1,2129.7000000178814,550678.2999999821,7772,love,AF,C,546559,546559,545029,545844,545030,547159,546359,546359,547159,88
88,test,1,con,1,m,Wed Mar 11 2026 12:47:46 GMT-0500 (Central Daylight Time),554923.599999994,remote,800,O,m,m,None,779,579.0,200.0,113,1,2112.0,552811.599999994,7772,remote,AF,C,548692,548692,547163,547976,547163,549275,548492,548492,549275,89
89,test,1,con,1,z,Wed Mar 11 2026 12:47:46 GMT-0500 (Central Daylight Time),556990.2999999821,rage,1000,O,z,z,None,527,327.0,200.0,51,1,2062.199999988079,554928.099999994,7772,rage,AF,C,551008,551008,549279,550291,549279,551341,550808,550808,551341,90
90,test,1,inc,1,z,Wed Mar 11 2026 12:47:46 GMT-0500 (Central Daylight Time),559122.1999999881,napkin,900,O,z,z,None,601,395.0,206.0,6,1,2128.0999999940395,556994.099999994,7772,elated,AF,C,553077,553077,551345,552257,551345,553473,552870,552870,553473,91
91,test,1,con,1,z,Wed Mar 11 2026 12:47:46 GMT-0500 (Central Daylight Time),561121.7999999821,rage,800,O,z,z,None,663,464.0,199.0,49,1,1995.699999988079,559126.099999994,7772,rage,AF,C,555007,555007,553477,554290,553477,555473,554807,554807,555473,92
92,test,1,inc,1,m,Wed Mar 11 2026 12:47:46 GMT-0500 (Central Daylight Time),563039.0,elated,800,O,m,m,None,570,369.0,201.0,101,1,1913.0999999940395,561125.900000006,7772,jacket,AF,C,557007,557007,555477,556290,555477,557390,556806,556806,557390,93
93,test,1,con,1,z,Wed Mar 11 2026 12:47:46 GMT-0500 (Central Daylight Time),565137.0,love,900,O,z,z,None,657,457.0,200.0,18,1,2094.0,563043.0,7772,love,AF,C,559022,559022,557394,558306,557394,559488,558822,558822,559488,94
94,test,1,inc,1,m,Wed Mar 11 2026 12:47:46 GMT-0500 (Central Daylight Time),567369.599999994,hate,1100,O,m,m,None,597,398.0,199.0,72,1,2228.5,565141.099999994,7772,step,AF,C,561321,561321,559492,560605,559492,561721,561122,561122,561721,95
95,test,1,inc,1,m,Wed Mar 11 2026 12:47:46 GMT-0500 (Central Daylight Time),569570.099999994,temper,1000,O,m,m,None,665,465.0,200.0,127,1,2197.0999999940395,567373.0,7772,window,AF,C,563454,563454,561724,562738,561724,563921,563254,563254,563921,96
96,test,1,inc,1,z,Wed Mar 11 2026 12:47:46 GMT-0500 (Central Daylight Time),571885.099999994,film,1100,O,z,z,None,679,479.0,200.0,24,1,2311.0999999940395,569574.0,7772,love,AF,C,565753,565753,563925,565037,563925,566236,565553,565553,566236,97
97,test,1,con,1,m,Wed Mar 11 2026 12:47:46 GMT-0500 (Central Daylight Time),574084.599999994,bell,1000,O,m,m,None,654,454.0,200.0,83,1,2195.9000000059605,571888.6999999881,7772,bell,AF,C,567969,567969,566240,567253,566240,568436,567769,567769,568435,98
98,test,1,con,1,z,Wed Mar 11 2026 12:47:46 GMT-0500 (Central Daylight Time),576400.400000006,rage,900,O,z,z,None,865,666.0,199.0,50,1,2312.300000011921,574088.099999994,7772,rage,AF,C,570069,570069,568439,569352,568439,570751,569869,569869,570751,99
99,test,1,inc,1,z,Wed Mar 11 2026 12:47:46 GMT-0500 (Central Daylight Time),578399.6999999881,step,800,O,z,z,None,659,460.0,199.0,53,1,1995.199999988079,576404.5,7772,rage,AF,C,572284,572284,570756,571568,570756,572751,572085,572085,572751,100
100,test,1,con,1,z,Wed Mar 11 2026 12:47:46 GMT-0500 (Central Daylight Time),580432.5,love,1000,O,z,z,None,492,292.0,200.0,19,1,2029.0999999940395,578403.400000006,7772,love,AF,C,574484,574484,572754,573768,572755,574784,574284,574284,574784,101
101,test,1,inc,1,m,Wed Mar 11 2026 12:47:46 GMT-0500 (Central Daylight Time),582548.6999999881,love,1000,O,m,m,None,570,244.0,326.0,71,1,2112.5999999940395,580436.099999994,7772,step,AF,C,576643,576643,574787,575800,574787,576900,576316,576316,576900,102
102,test,1,con,1,m,Wed Mar 11 2026 12:47:46 GMT-0500 (Central Daylight Time),584498.099999994,window,800,O,m,m,None,623,424.0,199.0,121,1,1945.800000011921,582552.2999999821,7772,window,AF,C,578416,578416,576903,577716,576904,578849,578217,578217,578849,103
103,test,1,con,1,m,Wed Mar 11 2026 12:47:46 GMT-0500 (Central Daylight Time),586747.400000006,window,1100,O,m,m,None,612,413.0,199.0,124,1,2245.7000000178814,584501.6999999881,7772,window,AF,C,580682,580682,578853,579965,578853,581098,580482,580483,581098,104
104,test,1,inc,1,m,Wed Mar 11 2026 12:47:46 GMT-0500 (Central Daylight Time),589379.6999999881,temper,1000,O,m,m,None,1096,896.0,200.0,119,1,2628.199999988079,586751.5,7772,remote,AF,C,582831,582831,581103,582115,581103,583731,582631,582631,583731,105
105,test,1,con,1,m,Wed Mar 11 2026 12:47:46 GMT-0500 (Central Daylight Time),591445.5,step,900,O,m,m,None,619,420.0,199.0,66,1,2062.300000011921,589383.1999999881,7772,step,AF,C,585363,585363,583734,584647,583734,585797,585164,585164,585797,106
106,test,1,con,1,m,Wed Mar 11 2026 12:47:46 GMT-0500 (Central Daylight Time),593611.599999994,rock,1100,O,m,m,None,528,329.0,199.0,76,1,2162.5,591449.099999994,7772,rock,AF,C,587630,587630,585800,586914,585800,587963,587430,587430,587963,107
107,test,1,inc,1,m,Wed Mar 11 2026 12:47:46 GMT-0500 (Central Daylight Time),595677.7999999821,elated,800,O,m,m,None,727,527.0,200.0,109,1,2062.5999999940395,593615.1999999881,7772,napkin,AF,C,589496,589496,587966,588779,587966,590029,589296,589296,590029,108
108,test,1,inc,1,m,Wed Mar 11 2026 12:47:46 GMT-0500 (Central Daylight Time),598010.599999994,friend,1100,O,m,m,None,706,507.0,199.0,112,1,2329.300000011921,595681.2999999821,7772,napkin,AF,C,591845,591845,590032,591145,590033,592362,591646,591646,592362,109
109,test,1,con,1,z,Wed Mar 11 2026 12:47:46 GMT-0500 (Central Daylight Time),600159.6999999881,hate,1000,O,z,z,None,600,400.0,200.0,43,1,2145.5999999940395,598014.099999994,7772,hate,AF,C,594095,594095,592365,593378,592365,594511,593894,593894,594511,110
110,test,1,con,1,z,Wed Mar 11 2026 12:47:46 GMT-0500 (Central Daylight Time),602325.6999999881,friend,1000,O,z,z,None,627,428.0,199.0,27,1,2162.4000000059605,600163.2999999821,7772,friend,AF,C,596244,596244,594514,595527,594515,596677,596044,596044,596677,111
111,test,1,con,1,z,Wed Mar 11 2026 12:47:46 GMT-0500 (Central Daylight Time),604458.2999999821,kind,1000,O,z,z,None,597,397.0,200.0,11,1,2128.899999976158,602329.400000006,7772,kind,AF,C,598411,598411,596680,597693,596681,598809,598210,598210,598809,112
112,test,1,inc,1,z,Wed Mar 11 2026 12:47:46 GMT-0500 (Central Daylight Time),606907.7999999821,window,1100,O,z,z,None,704,505.0,199.0,8,1,2444.699999988079,604463.099999994,7772,elated,AF,C,600742,600742,598814,600040,598814,601259,600543,600543,601259,113
113,test,1,inc,1,z,Wed Mar 11 2026 12:47:46 GMT-0500 (Central Daylight Time),609073.5,bell,1000,O,z,z,None,624,423.0,201.0,23,1,2162.0,606911.5,7772,love,AF,C,602993,602993,601263,602275,601263,603425,602792,602792,603425,114
114,test,1,inc,1,z,Wed Mar 11 2026 12:47:46 GMT-0500 (Central Daylight Time),611339.599999994,remote,1000,O,z,z,None,722,523.0,199.0,63,1,2262.0999999940395,609077.5,7772,temper,AF,C,605157,605157,603429,604441,603429,605691,604958,604958,605691,115
115,test,1,inc,1,z,Wed Mar 11 2026 12:47:46 GMT-0500 (Central Daylight Time),613738.599999994,window,1100,O,z,z,None,755,556.0,199.0,32,1,2395.4000000059605,611343.1999999881,7772,friend,AF,C,607524,607524,605694,606807,605694,608090,607324,607324,608090,116
116,test,1,con,1,m,Wed Mar 11 2026 12:47:46 GMT-0500 (Central Daylight Time),616104.6999999881,step,1100,O,m,m,None,716,517.0,199.0,68,1,2362.699999988079,613742.0,7772,step,AF,C,609923,609923,608093,609206,608093,610456,609723,609723,610456,117
117,test,1,inc,1,z,Wed Mar 11 2026 12:47:46 GMT-0500 (Central Daylight Time),618370.6999999881,bell,1000,O,z,z,None,722,523.0,199.0,15,1,2262.2999999821186,616108.400000006,7772,kind,AF,C,612189,612189,610459,611472,610460,612722,611989,611989,612722,118
118,test,1,inc,1,z,Wed Mar 11 2026 12:47:46 GMT-0500 (Central Daylight Time),620753.2999999821,film,1100,O,z,z,None,740,540.0,200.0,48,1,2379.0,618374.2999999821,7772,hate,AF,C,614554,614555,612725,613838,612726,615104,614354,614354,615104,119
119,test,1,con,1,m,Wed Mar 11 2026 12:47:46 GMT-0500 (Central Daylight Time),623269.099999994,napkin,1000,O,m,m,None,971,771.0,200.0,107,1,2512.0999999940395,620757.0,7772,napkin,AF,C,616837,616837,615108,616121,615108,617620,616637,616637,617620,120
120,test,1,con,1,z,Wed Mar 11 2026 12:47:46 GMT-0500 (Central Daylight Time),625801.6999999881,friend,1100,O,z,z,None,890,690.0,200.0,28,1,2528.699999988079,623273.0,7772,friend,AF,C,619453,619453,617624,618737,617624,620153,619253,619253,620153,121
121,test,1,inc,1,m,Wed Mar 11 2026 12:47:46 GMT-0500 (Central Daylight Time),628100.900000006,love,1000,O,m,m,None,753,554.0,199.0,87,1,2295.5,625805.400000006,7772,bell,AF,C,621886,621886,620156,621169,620157,622452,621686,621686,622452,122
122,test,1,inc,1,m,Wed Mar 11 2026 12:47:46 GMT-0500 (Central Daylight Time),630100.1999999881,rage,800,O,m,m,None,661,462.0,199.0,69,1,1995.5,628104.6999999881,7772,step,AF,C,623985,623985,622456,623268,622456,624451,623786,623786,624451,123
123,test,1,con,1,m,Wed Mar 11 2026 12:47:46 GMT-0500 (Central Daylight Time),632366.1999999881,remote,1100,O,m,m,None,626,411.0,215.0,116,1,2262.0999999940395,630104.099999994,7772,remote,AF,C,626301,626301,624455,625568,624455,626717,626086,626086,626717,124
124,test,1,con,1,m,Wed Mar 11 2026 12:47:46 GMT-0500 (Central Daylight Time),634598.7999999821,film,1000,O,m,m,None,686,486.0,200.0,91,1,2229.0,632369.7999999821,7772,film,AF,C,628450,628450,626721,627734,626721,628950,628250,628250,628950,125
125,test,1,con,1,m,Wed Mar 11 2026 12:47:46 GMT-0500 (Central Daylight Time),636681.400000006,film,900,O,m,m,None,648,448.0,200.0,90,1,2079.0,634602.400000006,7772,film,AF,C,630583,630583,628953,629867,628954,631033,630383,630383,631032,126
126,test,1,inc,1,m,Wed Mar 11 2026 12:47:46 GMT-0500 (Central Daylight Time),638948.900000006,friend,1100,O,m,m,None,621,422.0,199.0,104,1,2264.2000000178814,636684.6999999881,7772,jacket,AF,C,632866,632866,631036,632149,631036,633300,632666,632666,633300,127
127,test,1,inc,1,m,Wed Mar 11 2026 12:47:46 GMT-0500 (Central Daylight Time),641246.7999999821,hate,1100,O,m,m,None,658,443.0,215.0,96,1,2294.0999999940395,638952.6999999881,7772,film,AF,C,635148,635148,633304,634415,633304,635598,634933,634933,635598,128
