acc_sum,block,block_c,change,condition,correct,correct_response,datetime,endtime,face,project,response,response_time,row_sel,session_number,start_end,starttime,subject_id,task,task_vers,trial
0,prac,1,,1-Back,,,Thu Jan 22 2026 13:23:00 GMT-0600 (Central Standard Time),,093_m_f_n_a.png,O,space,7833,1,1,,,7738,NNB,C,0
0,prac,1,0.0,1-Back,0.0,m,Thu Jan 22 2026 13:23:00 GMT-0600 (Central Standard Time),161441.40000009537,098_y_f_n_a.png,O,z,948,2,1,1787.8000001907349,159653.59999990463,7738,NNB,C,1
0,prac,1,1.0,1-Back,0.0,z,Thu Jan 22 2026 13:23:00 GMT-0600 (Central Standard Time),163506.2999997139,098_y_f_n_a.png,O,m,1288,3,1,2055.0,161451.2999997139,7738,NNB,C,2
0,prac,1,0.0,1-Back,0.0,m,Thu Jan 22 2026 13:23:00 GMT-0600 (Central Standard Time),166357.5,059_o_m_n_a.png,O,None,2002,4,1,2841.5999999046326,163515.90000009537,7738,NNB,C,3
0,prac,1,0.0,1-Back,0.0,m,Thu Jan 22 2026 13:23:00 GMT-0600 (Central Standard Time),169205.69999980927,092_m_m_n_a.png,O,None,2003,5,1,2837.699999809265,166368.0,7738,NNB,C,4
0,prac,1,1.0,1-Back,0.0,z,Thu Jan 22 2026 13:23:00 GMT-0600 (Central Standard Time),171990.59999990463,092_m_m_n_a.png,O,None,2007,6,1,2775.300000190735,169215.2999997139,7738,NNB,C,5
0,prac,1,0.0,1-Back,0.0,m,Thu Jan 22 2026 13:23:00 GMT-0600 (Central Standard Time),174853.69999980927,130_o_f_n_a.png,O,None,2007,7,1,2854.9000000953674,171998.7999997139,7738,NNB,C,6
1,prac,1,0.0,1-Back,1.0,m,Thu Jan 22 2026 13:23:00 GMT-0600 (Central Standard Time),176853.69999980927,082_m_m_n_a.png,O,m,1142,8,1,1990.0999999046326,174863.59999990463,7738,NNB,C,7
2,prac,1,0.0,1-Back,1.0,m,Thu Jan 22 2026 13:23:00 GMT-0600 (Central Standard Time),178767.90000009537,093_m_f_n_a.png,O,m,1121,9,1,1902.5,176865.40000009537,7738,NNB,C,8
3,prac,1,1.0,1-Back,1.0,z,Thu Jan 22 2026 13:23:00 GMT-0600 (Central Standard Time),180417.69999980927,093_m_f_n_a.png,O,z,860,10,1,1642.0999999046326,178775.59999990463,7738,NNB,C,9
4,prac,1,0.0,1-Back,1.0,m,Thu Jan 22 2026 13:23:00 GMT-0600 (Central Standard Time),182016.90000009537,059_o_m_n_a.png,O,m,808,11,1,1590.8000001907349,180426.09999990463,7738,NNB,C,10
5,prac,1,0.0,1-Back,1.0,m,Thu Jan 22 2026 13:23:00 GMT-0600 (Central Standard Time),184068.09999990463,028_y_f_n_a.png,O,m,1203,12,1,2038.6999998092651,182029.40000009537,7738,NNB,C,11
0,test,1,0.0,1-Back,,,Thu Jan 22 2026 13:23:00 GMT-0600 (Central Standard Time),184068.09999990463,098_y_f_n_a.png,O,space,9772,1,1,2038.6999998092651,182029.40000009537,7738,NNB,C,0
0,test,1,0.0,1-Back,0.0,m,Thu Jan 22 2026 13:23:00 GMT-0600 (Central Standard Time),225952.5,006_m_f_n_a.png,O,z,1685,2,1,2703.5999999046326,223248.90000009537,7738,NNB,C,1
1,test,1,0.0,1-Back,1.0,m,Thu Jan 22 2026 13:23:00 GMT-0600 (Central Standard Time),228186.2999997139,028_y_f_n_a.png,O,m,1201,3,1,2227.2999997138977,225959.0,7738,NNB,C,2
1,test,1,1.0,1-Back,0.0,z,Thu Jan 22 2026 13:23:00 GMT-0600 (Central Standard Time),231222.09999990463,028_y_f_n_a.png,O,None,2020,4,1,3030.300000190735,228191.7999997139,7738,NNB,C,3
2,test,1,0.0,1-Back,1.0,m,Thu Jan 22 2026 13:23:00 GMT-0600 (Central Standard Time),233451.09999990463,006_m_f_n_a.png,O,m,1210,5,1,2223.9000000953674,231227.19999980927,7738,NNB,C,4
3,test,1,0.0,1-Back,1.0,m,Thu Jan 22 2026 13:23:00 GMT-0600 (Central Standard Time),235432.90000009537,059_o_m_n_a.png,O,m,960,6,1,1975.4000000953674,233457.5,7738,NNB,C,5
4,test,1,1.0,1-Back,1.0,z,Thu Jan 22 2026 13:23:00 GMT-0600 (Central Standard Time),237366.59999990463,059_o_m_n_a.png,O,z,905,7,1,1927.0999999046326,235439.5,7738,NNB,C,6
5,test,1,0.0,1-Back,1.0,m,Thu Jan 22 2026 13:23:00 GMT-0600 (Central Standard Time),239283.40000009537,092_m_m_n_a.png,O,m,892,8,1,1909.7000002861023,237373.69999980927,7738,NNB,C,7
6,test,1,0.0,1-Back,1.0,m,Thu Jan 22 2026 13:23:00 GMT-0600 (Central Standard Time),241316.59999990463,130_o_f_n_a.png,O,m,1015,9,1,2029.8000001907349,239286.7999997139,7738,NNB,C,8
7,test,1,0.0,1-Back,1.0,m,Thu Jan 22 2026 13:23:00 GMT-0600 (Central Standard Time),243348.5,092_m_m_n_a.png,O,m,1016,10,1,2024.4000000953674,241324.09999990463,7738,NNB,C,9
8,test,1,0.0,1-Back,1.0,m,Thu Jan 22 2026 13:23:00 GMT-0600 (Central Standard Time),245263.40000009537,057_y_m_n_a.png,O,m,887,11,1,1909.5,243353.90000009537,7738,NNB,C,10
9,test,1,1.0,1-Back,1.0,z,Thu Jan 22 2026 13:23:00 GMT-0600 (Central Standard Time),247096.09999990463,057_y_m_n_a.png,O,z,813,12,1,1825.6999998092651,245270.40000009537,7738,NNB,C,11
10,test,1,0.0,1-Back,1.0,m,Thu Jan 22 2026 13:23:00 GMT-0600 (Central Standard Time),249332.40000009537,030_o_f_n_a.png,O,m,1218,13,1,2231.9000000953674,247100.5,7738,NNB,C,12
11,test,1,1.0,1-Back,1.0,z,Thu Jan 22 2026 13:23:00 GMT-0600 (Central Standard Time),251095.09999990463,030_o_f_n_a.png,O,z,734,14,1,1756.5,249338.59999990463,7738,NNB,C,13
12,test,1,0.0,1-Back,1.0,m,Thu Jan 22 2026 13:23:00 GMT-0600 (Central Standard Time),252945.7999997139,031_y_m_n_a.png,O,m,817,15,1,1843.3999996185303,251102.40000009537,7738,NNB,C,14
13,test,1,0.0,1-Back,1.0,m,Thu Jan 22 2026 13:23:00 GMT-0600 (Central Standard Time),254744.5,093_m_f_n_a.png,O,m,770,16,1,1790.3000001907349,252954.19999980927,7738,NNB,C,15
14,test,1,0.0,1-Back,1.0,m,Thu Jan 22 2026 13:23:00 GMT-0600 (Central Standard Time),256477.0,146_o_m_n_a.png,O,m,707,17,1,1728.7000002861023,254748.2999997139,7738,NNB,C,16
15,test,1,0.0,1-Back,1.0,m,Thu Jan 22 2026 13:23:00 GMT-0600 (Central Standard Time),258426.69999980927,093_m_f_n_a.png,O,m,916,18,1,1946.2999997138977,256480.40000009537,7738,NNB,C,17
0,test,2,0.0,1-Back,,,Thu Jan 22 2026 13:23:00 GMT-0600 (Central Standard Time),258426.69999980927,092_m_m_n_a.png,O,space,2688,1,1,1946.2999997138977,256480.40000009537,7738,NNB,C,0
1,test,2,0.0,1-Back,1.0,m,Thu Jan 22 2026 13:23:00 GMT-0600 (Central Standard Time),264843.40000009537,006_m_f_n_a.png,O,m,678,2,1,1695.5,263147.90000009537,7738,NNB,C,1
2,test,2,1.0,1-Back,1.0,z,Thu Jan 22 2026 13:23:00 GMT-0600 (Central Standard Time),266656.90000009537,006_m_f_n_a.png,O,z,794,3,1,1806.2000002861023,264850.69999980927,7738,NNB,C,2
3,test,2,0.0,1-Back,1.0,m,Thu Jan 22 2026 13:23:00 GMT-0600 (Central Standard Time),268423.09999990463,092_m_m_n_a.png,O,m,738,4,1,1759.8000001907349,266663.2999997139,7738,NNB,C,3
4,test,2,0.0,1-Back,1.0,m,Thu Jan 22 2026 13:23:00 GMT-0600 (Central Standard Time),270189.5,057_y_m_n_a.png,O,m,740,5,1,1759.5999999046326,268429.90000009537,7738,NNB,C,4
5,test,2,0.0,1-Back,1.0,m,Thu Jan 22 2026 13:23:00 GMT-0600 (Central Standard Time),271905.59999990463,098_y_f_n_a.png,O,m,686,6,1,1711.9000000953674,270193.69999980927,7738,NNB,C,5
5,test,2,1.0,1-Back,0.0,z,Thu Jan 22 2026 13:23:00 GMT-0600 (Central Standard Time),273437.40000009537,098_y_f_n_a.png,O,m,514,7,1,1525.0,271912.40000009537,7738,NNB,C,6
6,test,2,0.0,1-Back,1.0,m,Thu Jan 22 2026 13:23:00 GMT-0600 (Central Standard Time),275321.7999997139,057_y_m_n_a.png,O,m,850,8,1,1879.0999999046326,273442.69999980927,7738,NNB,C,7
7,test,2,0.0,1-Back,1.0,m,Thu Jan 22 2026 13:23:00 GMT-0600 (Central Standard Time),277102.59999990463,030_o_f_n_a.png,O,m,761,9,1,1774.5,275328.09999990463,7738,NNB,C,8
8,test,2,0.0,1-Back,1.0,m,Thu Jan 22 2026 13:23:00 GMT-0600 (Central Standard Time),278971.2999997139,082_m_m_n_a.png,O,m,835,10,1,1861.7999997138977,277109.5,7738,NNB,C,9
8,test,2,1.0,1-Back,0.0,z,Thu Jan 22 2026 13:23:00 GMT-0600 (Central Standard Time),280918.59999990463,082_m_m_n_a.png,O,m,909,11,1,1939.9000000953674,278978.69999980927,7738,NNB,C,10
9,test,2,0.0,1-Back,1.0,m,Thu Jan 22 2026 13:23:00 GMT-0600 (Central Standard Time),282984.0,030_o_f_n_a.png,O,m,1034,12,1,2059.0999999046326,280924.90000009537,7738,NNB,C,11
10,test,2,0.0,1-Back,1.0,m,Thu Jan 22 2026 13:23:00 GMT-0600 (Central Standard Time),284767.0,130_o_f_n_a.png,O,m,763,13,1,1778.9000000953674,282988.09999990463,7738,NNB,C,12
11,test,2,0.0,1-Back,1.0,m,Thu Jan 22 2026 13:23:00 GMT-0600 (Central Standard Time),286499.40000009537,059_o_m_n_a.png,O,m,707,14,1,1724.6000003814697,284774.7999997139,7738,NNB,C,13
12,test,2,0.0,1-Back,1.0,m,Thu Jan 22 2026 13:23:00 GMT-0600 (Central Standard Time),288149.7999997139,146_o_m_n_a.png,O,m,629,15,1,1647.2999997138977,286502.5,7738,NNB,C,14
13,test,2,1.0,1-Back,1.0,z,Thu Jan 22 2026 13:23:00 GMT-0600 (Central Standard Time),289982.69999980927,146_o_m_n_a.png,O,z,804,16,1,1827.0999999046326,288155.59999990463,7738,NNB,C,15
14,test,2,0.0,1-Back,1.0,m,Thu Jan 22 2026 13:23:00 GMT-0600 (Central Standard Time),291732.59999990463,031_y_m_n_a.png,O,m,723,17,1,1740.1999998092651,289992.40000009537,7738,NNB,C,16
15,test,2,1.0,1-Back,1.0,z,Thu Jan 22 2026 13:23:00 GMT-0600 (Central Standard Time),293731.2999997139,031_y_m_n_a.png,O,z,974,18,1,1991.0,291740.2999997139,7738,NNB,C,17
0,test,3,1.0,1-Back,,,Thu Jan 22 2026 13:23:00 GMT-0600 (Central Standard Time),293731.2999997139,028_y_f_n_a.png,O,space,1550,1,1,1991.0,291740.2999997139,7738,NNB,C,0
1,test,3,0.0,1-Back,1.0,m,Thu Jan 22 2026 13:23:00 GMT-0600 (Central Standard Time),299080.0,146_o_m_n_a.png,O,m,677,1,1,1691.9000000953674,297388.09999990463,7738,NNB,C,1
2,test,3,1.0,1-Back,1.0,z,Thu Jan 22 2026 13:23:00 GMT-0600 (Central Standard Time),300912.40000009537,146_o_m_n_a.png,O,z,810,1,1,1825.4000000953674,299087.0,7738,NNB,C,2
3,test,3,0.0,1-Back,1.0,m,Thu Jan 22 2026 13:23:00 GMT-0600 (Central Standard Time),302563.09999990463,093_m_f_n_a.png,O,m,631,1,1,1644.0999999046326,300919.0,7738,NNB,C,3
4,test,3,1.0,1-Back,1.0,z,Thu Jan 22 2026 13:23:00 GMT-0600 (Central Standard Time),304361.19999980927,093_m_f_n_a.png,O,z,769,1,1,1790.0999999046326,302571.09999990463,7738,NNB,C,4
5,test,3,0.0,1-Back,1.0,m,Thu Jan 22 2026 13:23:00 GMT-0600 (Central Standard Time),306161.2999997139,030_o_f_n_a.png,O,m,769,1,1,1790.6999998092651,304370.59999990463,7738,NNB,C,5
6,test,3,0.0,1-Back,1.0,m,Thu Jan 22 2026 13:23:00 GMT-0600 (Central Standard Time),308044.2999997139,057_y_m_n_a.png,O,m,867,1,1,1876.5,306167.7999997139,7738,NNB,C,6
7,test,3,0.0,1-Back,1.0,m,Thu Jan 22 2026 13:23:00 GMT-0600 (Central Standard Time),309959.59999990463,030_o_f_n_a.png,O,m,886,1,1,1910.6999998092651,308048.90000009537,7738,NNB,C,7
8,test,3,0.0,1-Back,1.0,m,Thu Jan 22 2026 13:23:00 GMT-0600 (Central Standard Time),311875.7999997139,031_y_m_n_a.png,O,m,900,1,1,1908.7999997138977,309967.0,7738,NNB,C,8
9,test,3,1.0,1-Back,1.0,z,Thu Jan 22 2026 13:23:00 GMT-0600 (Central Standard Time),313724.7999997139,031_y_m_n_a.png,O,z,822,1,1,1842.5999999046326,311882.19999980927,7738,NNB,C,9
10,test,3,0.0,1-Back,1.0,m,Thu Jan 22 2026 13:23:00 GMT-0600 (Central Standard Time),315526.09999990463,006_m_f_n_a.png,O,m,773,1,1,1798.0999999046326,313728.0,7738,NNB,C,10
11,test,3,0.0,1-Back,1.0,m,Thu Jan 22 2026 13:23:00 GMT-0600 (Central Standard Time),317341.5,098_y_f_n_a.png,O,m,798,1,1,1806.8000001907349,315534.69999980927,7738,NNB,C,11
12,test,3,1.0,1-Back,1.0,z,Thu Jan 22 2026 13:23:00 GMT-0600 (Central Standard Time),319222.69999980927,098_y_f_n_a.png,O,z,861,1,1,1872.1999998092651,317350.5,7738,NNB,C,12
13,test,3,0.0,1-Back,1.0,m,Thu Jan 22 2026 13:23:00 GMT-0600 (Central Standard Time),320923.7999997139,006_m_f_n_a.png,O,m,683,1,1,1693.5999999046326,319230.19999980927,7738,NNB,C,13
14,test,3,0.0,1-Back,1.0,m,Thu Jan 22 2026 13:23:00 GMT-0600 (Central Standard Time),322655.7999997139,092_m_m_n_a.png,O,m,703,1,1,1726.5,320929.2999997139,7738,NNB,C,14
15,test,3,1.0,1-Back,1.0,z,Thu Jan 22 2026 13:23:00 GMT-0600 (Central Standard Time),324571.09999990463,092_m_m_n_a.png,O,z,888,1,1,1908.6999998092651,322662.40000009537,7738,NNB,C,15
16,test,3,0.0,1-Back,1.0,m,Thu Jan 22 2026 13:23:00 GMT-0600 (Central Standard Time),326503.90000009537,130_o_f_n_a.png,O,m,910,1,1,1930.0,324573.90000009537,7738,NNB,C,16
17,test,3,1.0,1-Back,1.0,z,Thu Jan 22 2026 13:23:00 GMT-0600 (Central Standard Time),328187.2999997139,130_o_f_n_a.png,O,z,650,1,1,1680.0,326507.2999997139,7738,NNB,C,17
0,test,4,1.0,1-Back,,,Thu Jan 22 2026 13:23:00 GMT-0600 (Central Standard Time),328187.2999997139,093_m_f_n_a.png,O,space,1527,1,1,1680.0,326507.2999997139,7738,NNB,C,0
1,test,4,0.0,1-Back,1.0,m,Thu Jan 22 2026 13:23:00 GMT-0600 (Central Standard Time),333469.0,146_o_m_n_a.png,O,m,639,2,1,1659.2000002861023,331809.7999997139,7738,NNB,C,1
2,test,4,0.0,1-Back,1.0,m,Thu Jan 22 2026 13:23:00 GMT-0600 (Central Standard Time),335250.59999990463,093_m_f_n_a.png,O,m,764,3,1,1777.8000001907349,333472.7999997139,7738,NNB,C,2
3,test,4,0.0,1-Back,1.0,m,Thu Jan 22 2026 13:23:00 GMT-0600 (Central Standard Time),336967.69999980927,030_o_f_n_a.png,O,m,686,4,1,1714.5,335253.19999980927,7738,NNB,C,3
4,test,4,1.0,1-Back,1.0,z,Thu Jan 22 2026 13:23:00 GMT-0600 (Central Standard Time),338685.09999990463,030_o_f_n_a.png,O,z,692,5,1,1712.0999999046326,336973.0,7738,NNB,C,4
5,test,4,0.0,1-Back,1.0,m,Thu Jan 22 2026 13:23:00 GMT-0600 (Central Standard Time),340283.5,098_y_f_n_a.png,O,m,575,6,1,1589.0,338694.5,7738,NNB,C,5
6,test,4,0.0,1-Back,1.0,m,Thu Jan 22 2026 13:23:00 GMT-0600 (Central Standard Time),341982.0,057_y_m_n_a.png,O,m,671,7,1,1693.5999999046326,340288.40000009537,7738,NNB,C,6
7,test,4,1.0,1-Back,1.0,z,Thu Jan 22 2026 13:23:00 GMT-0600 (Central Standard Time),343616.0,057_y_m_n_a.png,O,z,596,8,1,1627.0999999046326,341988.90000009537,7738,NNB,C,7
8,test,4,0.0,1-Back,1.0,m,Thu Jan 22 2026 13:23:00 GMT-0600 (Central Standard Time),345231.90000009537,098_y_f_n_a.png,O,m,586,9,1,1608.1000003814697,343623.7999997139,7738,NNB,C,8
9,test,4,0.0,1-Back,1.0,m,Thu Jan 22 2026 13:23:00 GMT-0600 (Central Standard Time),346982.2999997139,082_m_m_n_a.png,O,m,728,10,1,1743.1999998092651,345239.09999990463,7738,NNB,C,9
10,test,4,1.0,1-Back,1.0,z,Thu Jan 22 2026 13:23:00 GMT-0600 (Central Standard Time),349064.69999980927,082_m_m_n_a.png,O,z,1061,11,1,2076.5,346988.19999980927,7738,NNB,C,10
11,test,4,0.0,1-Back,1.0,m,Thu Jan 22 2026 13:23:00 GMT-0600 (Central Standard Time),350686.5,130_o_f_n_a.png,O,m,593,12,1,1614.8000001907349,349071.69999980927,7738,NNB,C,11
12,test,4,0.0,1-Back,1.0,m,Thu Jan 22 2026 13:23:00 GMT-0600 (Central Standard Time),352247.0,059_o_m_n_a.png,O,m,544,13,1,1557.5999999046326,350689.40000009537,7738,NNB,C,12
13,test,4,0.0,1-Back,1.0,m,Thu Jan 22 2026 13:23:00 GMT-0600 (Central Standard Time),354094.59999990463,130_o_f_n_a.png,O,m,820,14,1,1839.9000000953674,352254.69999980927,7738,NNB,C,13
14,test,4,0.0,1-Back,1.0,m,Thu Jan 22 2026 13:23:00 GMT-0600 (Central Standard Time),355745.5,028_y_f_n_a.png,O,m,616,15,1,1644.4000000953674,354101.09999990463,7738,NNB,C,14
15,test,4,1.0,1-Back,1.0,z,Thu Jan 22 2026 13:23:00 GMT-0600 (Central Standard Time),357477.09999990463,028_y_f_n_a.png,O,z,711,16,1,1725.5,355751.59999990463,7738,NNB,C,15
16,test,4,0.0,1-Back,1.0,m,Thu Jan 22 2026 13:23:00 GMT-0600 (Central Standard Time),359261.19999980927,006_m_f_n_a.png,O,m,767,17,1,1778.4000000953674,357482.7999997139,7738,NNB,C,16
16,test,4,1.0,1-Back,0.0,z,Thu Jan 22 2026 13:23:00 GMT-0600 (Central Standard Time),361361.19999980927,006_m_f_n_a.png,O,m,1078,18,1,2093.4000000953674,359267.7999997139,7738,NNB,C,17
0,test,5,1.0,1-Back,,,Thu Jan 22 2026 13:23:00 GMT-0600 (Central Standard Time),361361.19999980927,059_o_m_n_a.png,O,space,1401,1,1,2093.4000000953674,359267.7999997139,7738,NNB,C,0
1,test,5,1.0,1-Back,1.0,z,Thu Jan 22 2026 13:23:00 GMT-0600 (Central Standard Time),366791.59999990463,059_o_m_n_a.png,O,z,975,2,1,1991.5999999046326,364800.0,7738,NNB,C,1
2,test,5,0.0,1-Back,1.0,m,Thu Jan 22 2026 13:23:00 GMT-0600 (Central Standard Time),368491.19999980927,098_y_f_n_a.png,O,m,672,3,1,1693.2999997138977,366797.90000009537,7738,NNB,C,2
3,test,5,0.0,1-Back,1.0,m,Thu Jan 22 2026 13:23:00 GMT-0600 (Central Standard Time),370275.2999997139,057_y_m_n_a.png,O,m,758,4,1,1777.3999996185303,368497.90000009537,7738,NNB,C,3
4,test,5,0.0,1-Back,1.0,m,Thu Jan 22 2026 13:23:00 GMT-0600 (Central Standard Time),372023.5,098_y_f_n_a.png,O,m,729,5,1,1740.3000001907349,370283.19999980927,7738,NNB,C,4
5,test,5,0.0,1-Back,1.0,m,Thu Jan 22 2026 13:23:00 GMT-0600 (Central Standard Time),373723.2999997139,092_m_m_n_a.png,O,m,666,6,1,1693.0999999046326,372030.19999980927,7738,NNB,C,5
6,test,5,1.0,1-Back,1.0,z,Thu Jan 22 2026 13:23:00 GMT-0600 (Central Standard Time),375355.5,092_m_m_n_a.png,O,z,615,7,1,1626.5999999046326,373728.90000009537,7738,NNB,C,6
7,test,5,0.0,1-Back,1.0,m,Thu Jan 22 2026 13:23:00 GMT-0600 (Central Standard Time),377089.09999990463,028_y_f_n_a.png,O,m,703,8,1,1727.4000000953674,375361.69999980927,7738,NNB,C,7
8,test,5,0.0,1-Back,1.0,m,Thu Jan 22 2026 13:23:00 GMT-0600 (Central Standard Time),378921.2999997139,031_y_m_n_a.png,O,m,798,9,1,1825.1999998092651,377096.09999990463,7738,NNB,C,8
9,test,5,0.0,1-Back,1.0,m,Thu Jan 22 2026 13:23:00 GMT-0600 (Central Standard Time),380686.69999980927,028_y_f_n_a.png,O,m,735,10,1,1758.6999998092651,378928.0,7738,NNB,C,9
10,test,5,0.0,1-Back,1.0,m,Thu Jan 22 2026 13:23:00 GMT-0600 (Central Standard Time),382386.40000009537,130_o_f_n_a.png,O,m,676,11,1,1695.1000003814697,380691.2999997139,7738,NNB,C,10
11,test,5,1.0,1-Back,1.0,z,Thu Jan 22 2026 13:23:00 GMT-0600 (Central Standard Time),384137.7999997139,130_o_f_n_a.png,O,z,719,12,1,1745.0,382392.7999997139,7738,NNB,C,11
12,test,5,0.0,1-Back,1.0,m,Thu Jan 22 2026 13:23:00 GMT-0600 (Central Standard Time),385835.59999990463,146_o_m_n_a.png,O,m,683,13,1,1690.3000001907349,384145.2999997139,7738,NNB,C,12
13,test,5,0.0,1-Back,1.0,m,Thu Jan 22 2026 13:23:00 GMT-0600 (Central Standard Time),387601.69999980927,093_m_f_n_a.png,O,m,742,14,1,1760.7999997138977,385840.90000009537,7738,NNB,C,13
14,test,5,1.0,1-Back,1.0,z,Thu Jan 22 2026 13:23:00 GMT-0600 (Central Standard Time),389202.19999980927,093_m_f_n_a.png,O,z,577,15,1,1595.0,387607.19999980927,7738,NNB,C,14
15,test,5,0.0,1-Back,1.0,m,Thu Jan 22 2026 13:23:00 GMT-0600 (Central Standard Time),390785.09999990463,146_o_m_n_a.png,O,m,556,16,1,1575.5999999046326,389209.5,7738,NNB,C,15
16,test,5,0.0,1-Back,1.0,m,Thu Jan 22 2026 13:23:00 GMT-0600 (Central Standard Time),392500.19999980927,006_m_f_n_a.png,O,m,699,17,1,1709.5,390790.69999980927,7738,NNB,C,16
17,test,5,0.0,1-Back,1.0,m,Thu Jan 22 2026 13:23:00 GMT-0600 (Central Standard Time),394237.09999990463,082_m_m_n_a.png,O,m,720,18,1,1732.0,392505.09999990463,7738,NNB,C,17
0,prac,1,0.0,2-Back,,,Thu Jan 22 2026 13:23:00 GMT-0600 (Central Standard Time),394237.09999990463,031_y_m_n_a.png,O,space,7206,1,1,1732.0,392505.09999990463,7738,NNB,C,0
0,prac,1,0.0,2-Back,,,Thu Jan 22 2026 13:23:00 GMT-0600 (Central Standard Time),394237.09999990463,006_m_f_n_a.png,O,space,7206,2,1,1732.0,392505.09999990463,7738,NNB,C,0
0,prac,1,1.0,2-Back,0.0,m,Thu Jan 22 2026 13:23:00 GMT-0600 (Central Standard Time),604949.0,146_o_m_n_a.png,O,None,2014,3,1,2855.800000190735,602093.1999998093,7738,NNB,C,1
0,prac,1,0.0,2-Back,0.0,m,Thu Jan 22 2026 13:23:00 GMT-0600 (Central Standard Time),607815.1999998093,130_o_f_n_a.png,O,None,2012,4,1,2862.0,604953.1999998093,7738,NNB,C,2
0,prac,1,0.0,2-Back,0.0,z,Thu Jan 22 2026 13:23:00 GMT-0600 (Central Standard Time),610263.7999997139,146_o_m_n_a.png,O,m,1665,5,1,2438.5999999046326,607825.1999998093,7738,NNB,C,3
1,prac,1,1.0,2-Back,1.0,z,Thu Jan 22 2026 13:23:00 GMT-0600 (Central Standard Time),611830.5,130_o_f_n_a.png,O,z,790,6,1,1554.8000001907349,610275.6999998093,7738,NNB,C,4
2,prac,1,0.0,2-Back,1.0,m,Thu Jan 22 2026 13:23:00 GMT-0600 (Central Standard Time),613614.0999999046,082_m_m_n_a.png,O,m,920,7,1,1773.9000000953674,611840.1999998093,7738,NNB,C,5
3,prac,1,0.0,2-Back,1.0,m,Thu Jan 22 2026 13:23:00 GMT-0600 (Central Standard Time),615364.5,059_o_m_n_a.png,O,m,892,8,1,1742.3000001907349,613622.1999998093,7738,NNB,C,6
4,prac,1,0.0,2-Back,1.0,m,Thu Jan 22 2026 13:23:00 GMT-0600 (Central Standard Time),616965.7999997139,028_y_f_n_a.png,O,m,753,9,1,1593.0999999046326,615372.6999998093,7738,NNB,C,7
5,prac,1,1.0,2-Back,1.0,z,Thu Jan 22 2026 13:23:00 GMT-0600 (Central Standard Time),618711.0999999046,059_o_m_n_a.png,O,z,972,10,1,1736.9000000953674,616974.1999998093,7738,NNB,C,8
6,prac,1,0.0,2-Back,1.0,m,Thu Jan 22 2026 13:23:00 GMT-0600 (Central Standard Time),620329.0999999046,098_y_f_n_a.png,O,m,776,11,1,1608.5,618720.5999999046,7738,NNB,C,9
7,prac,1,0.0,2-Back,1.0,m,Thu Jan 22 2026 13:23:00 GMT-0600 (Central Standard Time),622044.2999997139,082_m_m_n_a.png,O,m,937,12,1,1706.3999996185303,620337.9000000954,7738,NNB,C,10
0,test,1,0.0,2-Back,,,Thu Jan 22 2026 13:23:00 GMT-0600 (Central Standard Time),622044.2999997139,057_y_m_n_a.png,O,space,5439,1,1,1706.3999996185303,620337.9000000954,7738,NNB,C,0
0,test,1,0.0,2-Back,,,Thu Jan 22 2026 13:23:00 GMT-0600 (Central Standard Time),622044.2999997139,057_y_m_n_a.png,O,space,5439,2,1,1706.3999996185303,620337.9000000954,7738,NNB,C,0
1,test,1,0.0,2-Back,1.0,m,Thu Jan 22 2026 13:23:00 GMT-0600 (Central Standard Time),646886.6999998093,130_o_f_n_a.png,O,m,798,3,1,1813.2999997138977,645073.4000000954,7738,NNB,C,1
2,test,1,0.0,2-Back,1.0,m,Thu Jan 22 2026 13:23:00 GMT-0600 (Central Standard Time),648869.0999999046,092_m_m_n_a.png,O,m,954,4,1,1974.1999998092651,646894.9000000954,7738,NNB,C,2
3,test,1,1.0,2-Back,1.0,z,Thu Jan 22 2026 13:23:00 GMT-0600 (Central Standard Time),650502.0999999046,130_o_f_n_a.png,O,z,606,5,1,1626.5,648875.5999999046,7738,NNB,C,3
4,test,1,0.0,2-Back,1.0,m,Thu Jan 22 2026 13:23:00 GMT-0600 (Central Standard Time),652300.5999999046,098_y_f_n_a.png,O,m,769,6,1,1791.0,650509.5999999046,7738,NNB,C,4
4,test,1,0.0,2-Back,0.0,m,Thu Jan 22 2026 13:23:00 GMT-0600 (Central Standard Time),654150.0,092_m_m_n_a.png,O,z,829,7,1,1840.5999999046326,652309.4000000954,7738,NNB,C,5
5,test,1,1.0,2-Back,1.0,z,Thu Jan 22 2026 13:23:00 GMT-0600 (Central Standard Time),656149.5,098_y_f_n_a.png,O,z,971,8,1,1992.8000001907349,654156.6999998093,7738,NNB,C,6
6,test,1,0.0,2-Back,1.0,m,Thu Jan 22 2026 13:23:00 GMT-0600 (Central Standard Time),658216.0,031_y_m_n_a.png,O,m,1041,9,1,2057.300000190735,656158.6999998093,7738,NNB,C,7
7,test,1,0.0,2-Back,1.0,m,Thu Jan 22 2026 13:23:00 GMT-0600 (Central Standard Time),660198.6999998093,030_o_f_n_a.png,O,m,963,10,1,1979.0999999046326,658219.5999999046,7738,NNB,C,8
8,test,1,1.0,2-Back,1.0,z,Thu Jan 22 2026 13:23:00 GMT-0600 (Central Standard Time),661983.7999997139,031_y_m_n_a.png,O,z,766,11,1,1777.3999996185303,660206.4000000954,7738,NNB,C,9
9,test,1,0.0,2-Back,1.0,m,Thu Jan 22 2026 13:23:00 GMT-0600 (Central Standard Time),663931.0,006_m_f_n_a.png,O,m,925,12,1,1939.8000001907349,661991.1999998093,7738,NNB,C,10
9,test,1,0.0,2-Back,0.0,m,Thu Jan 22 2026 13:23:00 GMT-0600 (Central Standard Time),666962.4000000954,006_m_f_n_a.png,O,None,2014,13,1,3022.800000190735,663939.5999999046,7738,NNB,C,11
9,test,1,0.0,2-Back,0.0,m,Thu Jan 22 2026 13:23:00 GMT-0600 (Central Standard Time),669994.2999997139,146_o_m_n_a.png,O,None,2013,14,1,3023.699999809265,666970.5999999046,7738,NNB,C,12
9,test,1,0.0,2-Back,0.0,m,Thu Jan 22 2026 13:23:00 GMT-0600 (Central Standard Time),671644.1999998093,030_o_f_n_a.png,O,z,623,15,1,1643.5,670000.6999998093,7738,NNB,C,13
10,test,1,1.0,2-Back,1.0,z,Thu Jan 22 2026 13:23:00 GMT-0600 (Central Standard Time),673609.5,146_o_m_n_a.png,O,z,940,16,1,1960.9000000953674,671648.5999999046,7738,NNB,C,14
10,test,1,0.0,2-Back,0.0,m,Thu Jan 22 2026 13:23:00 GMT-0600 (Central Standard Time),676643.4000000954,093_m_f_n_a.png,O,None,2016,17,1,3030.800000190735,673612.5999999046,7738,NNB,C,15
11,test,1,0.0,2-Back,1.0,m,Thu Jan 22 2026 13:23:00 GMT-0600 (Central Standard Time),678459.0,082_m_m_n_a.png,O,m,798,18,1,1809.8000001907349,676649.1999998093,7738,NNB,C,16
0,test,2,0.0,2-Back,,,Thu Jan 22 2026 13:23:00 GMT-0600 (Central Standard Time),678459.0,082_m_m_n_a.png,O,space,24888,1,1,1809.8000001907349,676649.1999998093,7738,NNB,C,0
0,test,2,0.0,2-Back,,,Thu Jan 22 2026 13:23:00 GMT-0600 (Central Standard Time),678459.0,028_y_f_n_a.png,O,space,24888,2,1,1809.8000001907349,676649.1999998093,7738,NNB,C,0
1,test,2,1.0,2-Back,1.0,z,Thu Jan 22 2026 13:23:00 GMT-0600 (Central Standard Time),710032.4000000954,082_m_m_n_a.png,O,z,544,3,1,1561.5,708470.9000000954,7738,NNB,C,1
2,test,2,0.0,2-Back,1.0,m,Thu Jan 22 2026 13:23:00 GMT-0600 (Central Standard Time),711681.2999997139,093_m_f_n_a.png,O,m,626,4,1,1642.5,710038.7999997139,7738,NNB,C,2
2,test,2,0.0,2-Back,0.0,m,Thu Jan 22 2026 13:23:00 GMT-0600 (Central Standard Time),713931.5999999046,028_y_f_n_a.png,O,z,1216,5,1,2245.4000000953674,711686.1999998093,7738,NNB,C,3
3,test,2,0.0,2-Back,1.0,m,Thu Jan 22 2026 13:23:00 GMT-0600 (Central Standard Time),715696.5999999046,146_o_m_n_a.png,O,m,742,6,1,1759.0,713937.5999999046,7738,NNB,C,4
4,test,2,0.0,2-Back,1.0,m,Thu Jan 22 2026 13:23:00 GMT-0600 (Central Standard Time),717532.5999999046,098_y_f_n_a.png,O,m,818,7,1,1829.0999999046326,715703.5,7738,NNB,C,5
4,test,2,1.0,2-Back,0.0,z,Thu Jan 22 2026 13:23:00 GMT-0600 (Central Standard Time),719563.4000000954,146_o_m_n_a.png,O,m,1007,8,1,2025.0,717538.4000000954,7738,NNB,C,6
5,test,2,0.0,2-Back,1.0,m,Thu Jan 22 2026 13:23:00 GMT-0600 (Central Standard Time),721444.9000000954,031_y_m_n_a.png,O,m,853,9,1,1876.4000000953674,719568.5,7738,NNB,C,7
6,test,2,0.0,2-Back,1.0,m,Thu Jan 22 2026 13:23:00 GMT-0600 (Central Standard Time),723894.4000000954,031_y_m_n_a.png,O,m,1429,10,1,2447.0,721447.4000000954,7738,NNB,C,8
7,test,2,0.0,2-Back,1.0,m,Thu Jan 22 2026 13:23:00 GMT-0600 (Central Standard Time),726527.9000000954,006_m_f_n_a.png,O,m,1610,11,1,2626.300000190735,723901.5999999046,7738,NNB,C,9
8,test,2,0.0,2-Back,1.0,m,Thu Jan 22 2026 13:23:00 GMT-0600 (Central Standard Time),728642.9000000954,028_y_f_n_a.png,O,m,1090,12,1,2108.6000003814697,726534.2999997139,7738,NNB,C,10
9,test,2,1.0,2-Back,1.0,z,Thu Jan 22 2026 13:23:00 GMT-0600 (Central Standard Time),730292.7999997139,006_m_f_n_a.png,O,z,623,13,1,1643.0,728649.7999997139,7738,NNB,C,11
10,test,2,0.0,2-Back,1.0,m,Thu Jan 22 2026 13:23:00 GMT-0600 (Central Standard Time),732175.0999999046,059_o_m_n_a.png,O,m,853,14,1,1875.5999999046326,730299.5,7738,NNB,C,12
11,test,2,0.0,2-Back,1.0,m,Thu Jan 22 2026 13:23:00 GMT-0600 (Central Standard Time),734527.5999999046,059_o_m_n_a.png,O,m,1324,15,1,2345.9000000953674,732181.6999998093,7738,NNB,C,13
12,test,2,0.0,2-Back,1.0,m,Thu Jan 22 2026 13:23:00 GMT-0600 (Central Standard Time),736441.9000000954,030_o_f_n_a.png,O,m,894,16,1,1907.0,734534.9000000954,7738,NNB,C,14
13,test,2,0.0,2-Back,1.0,m,Thu Jan 22 2026 13:23:00 GMT-0600 (Central Standard Time),739023.2999997139,092_m_m_n_a.png,O,m,1562,17,1,2574.699999809265,736448.5999999046,7738,NNB,C,15
14,test,2,1.0,2-Back,1.0,z,Thu Jan 22 2026 13:23:00 GMT-0600 (Central Standard Time),740589.4000000954,030_o_f_n_a.png,O,z,546,18,1,1563.3000001907349,739026.0999999046,7738,NNB,C,16
0,test,3,1.0,2-Back,,,Thu Jan 22 2026 13:23:00 GMT-0600 (Central Standard Time),740589.4000000954,057_y_m_n_a.png,O,space,5204,1,1,1563.3000001907349,739026.0999999046,7738,NNB,C,0
0,test,3,1.0,2-Back,,,Thu Jan 22 2026 13:23:00 GMT-0600 (Central Standard Time),740589.4000000954,057_y_m_n_a.png,O,space,5204,2,1,1563.3000001907349,739026.0999999046,7738,NNB,C,0
1,test,3,0.0,2-Back,1.0,m,Thu Jan 22 2026 13:23:00 GMT-0600 (Central Standard Time),752786.5,030_o_f_n_a.png,O,m,850,3,1,1877.4000000953674,750909.0999999046,7738,NNB,C,1
2,test,3,0.0,2-Back,1.0,m,Thu Jan 22 2026 13:23:00 GMT-0600 (Central Standard Time),754451.5999999046,082_m_m_n_a.png,O,m,642,4,1,1661.0,752790.5999999046,7738,NNB,C,2
3,test,3,1.0,2-Back,1.0,z,Thu Jan 22 2026 13:23:00 GMT-0600 (Central Standard Time),755917.9000000954,030_o_f_n_a.png,O,z,446,5,1,1461.3000001907349,754456.5999999046,7738,NNB,C,3
4,test,3,0.0,2-Back,1.0,m,Thu Jan 22 2026 13:23:00 GMT-0600 (Central Standard Time),757818.2999997139,031_y_m_n_a.png,O,m,875,6,1,1893.0999999046326,755925.1999998093,7738,NNB,C,4
4,test,3,0.0,2-Back,0.0,m,Thu Jan 22 2026 13:23:00 GMT-0600 (Central Standard Time),759918.1999998093,082_m_m_n_a.png,O,z,1065,7,1,2093.4000000953674,757824.7999997139,7738,NNB,C,5
5,test,3,1.0,2-Back,1.0,z,Thu Jan 22 2026 13:23:00 GMT-0600 (Central Standard Time),762100.0,031_y_m_n_a.png,O,z,1157,8,1,2173.800000190735,759926.1999998093,7738,NNB,C,6
6,test,3,0.0,2-Back,1.0,m,Thu Jan 22 2026 13:23:00 GMT-0600 (Central Standard Time),763799.4000000954,028_y_f_n_a.png,O,m,671,9,1,1691.4000000953674,762108.0,7738,NNB,C,7
7,test,3,0.0,2-Back,1.0,m,Thu Jan 22 2026 13:23:00 GMT-0600 (Central Standard Time),765547.2999997139,092_m_m_n_a.png,O,m,716,10,1,1740.6999998092651,763806.5999999046,7738,NNB,C,8
8,test,3,1.0,2-Back,1.0,z,Thu Jan 22 2026 13:23:00 GMT-0600 (Central Standard Time),767047.0999999046,028_y_f_n_a.png,O,z,475,11,1,1493.4000000953674,765553.6999998093,7738,NNB,C,9
9,test,3,1.0,2-Back,1.0,z,Thu Jan 22 2026 13:23:00 GMT-0600 (Central Standard Time),769198.7999997139,092_m_m_n_a.png,O,z,1134,12,1,2147.699999809265,767051.0999999046,7738,NNB,C,10
10,test,3,0.0,2-Back,1.0,m,Thu Jan 22 2026 13:23:00 GMT-0600 (Central Standard Time),771012.9000000954,030_o_f_n_a.png,O,m,800,13,1,1810.1000003814697,769202.7999997139,7738,NNB,C,11
11,test,3,0.0,2-Back,1.0,m,Thu Jan 22 2026 13:23:00 GMT-0600 (Central Standard Time),772730.0999999046,093_m_f_n_a.png,O,m,693,14,1,1708.5,771021.5999999046,7738,NNB,C,12
12,test,3,0.0,2-Back,1.0,m,Thu Jan 22 2026 13:23:00 GMT-0600 (Central Standard Time),774445.2999997139,146_o_m_n_a.png,O,m,699,15,1,1708.0999999046326,772737.1999998093,7738,NNB,C,13
12,test,3,1.0,2-Back,0.0,z,Thu Jan 22 2026 13:23:00 GMT-0600 (Central Standard Time),776247.0999999046,093_m_f_n_a.png,O,m,782,16,1,1796.8000001907349,774450.2999997139,7738,NNB,C,14
13,test,3,0.0,2-Back,1.0,m,Thu Jan 22 2026 13:23:00 GMT-0600 (Central Standard Time),777976.9000000954,130_o_f_n_a.png,O,m,709,17,1,1720.8000001907349,776256.0999999046,7738,NNB,C,15
14,test,3,0.0,2-Back,1.0,m,Thu Jan 22 2026 13:23:00 GMT-0600 (Central Standard Time),780061.0,130_o_f_n_a.png,O,m,1058,18,1,2078.2000002861023,777982.7999997139,7738,NNB,C,16
0,test,4,0.0,2-Back,,,Thu Jan 22 2026 13:23:00 GMT-0600 (Central Standard Time),780061.0,059_o_m_n_a.png,O,space,4532,1,1,2078.2000002861023,777982.7999997139,7738,NNB,C,0
0,test,4,0.0,2-Back,,,Thu Jan 22 2026 13:23:00 GMT-0600 (Central Standard Time),780061.0,098_y_f_n_a.png,O,space,4532,2,1,2078.2000002861023,777982.7999997139,7738,NNB,C,0
1,test,4,1.0,2-Back,1.0,z,Thu Jan 22 2026 13:23:00 GMT-0600 (Central Standard Time),791772.7999997139,059_o_m_n_a.png,O,z,962,3,1,1978.0,789794.7999997139,7738,NNB,C,1
2,test,4,1.0,2-Back,1.0,z,Thu Jan 22 2026 13:23:00 GMT-0600 (Central Standard Time),793622.1999998093,098_y_f_n_a.png,O,z,829,4,1,1843.5999999046326,791778.5999999046,7738,NNB,C,2
3,test,4,0.0,2-Back,1.0,m,Thu Jan 22 2026 13:23:00 GMT-0600 (Central Standard Time),795288.2999997139,030_o_f_n_a.png,O,m,634,5,1,1661.5,793626.7999997139,7738,NNB,C,3
4,test,4,0.0,2-Back,1.0,m,Thu Jan 22 2026 13:23:00 GMT-0600 (Central Standard Time),797171.7999997139,030_o_f_n_a.png,O,m,866,6,1,1874.5999999046326,795297.1999998093,7738,NNB,C,4
5,test,4,0.0,2-Back,1.0,m,Thu Jan 22 2026 13:23:00 GMT-0600 (Central Standard Time),798937.4000000954,006_m_f_n_a.png,O,m,740,7,1,1760.9000000953674,797176.5,7738,NNB,C,5
6,test,4,0.0,2-Back,1.0,m,Thu Jan 22 2026 13:23:00 GMT-0600 (Central Standard Time),800570.7999997139,031_y_m_n_a.png,O,m,608,8,1,1626.3999996185303,798944.4000000954,7738,NNB,C,6
7,test,4,1.0,2-Back,1.0,z,Thu Jan 22 2026 13:23:00 GMT-0600 (Central Standard Time),802204.4000000954,006_m_f_n_a.png,O,z,617,9,1,1627.5,800576.9000000954,7738,NNB,C,7
8,test,4,0.0,2-Back,1.0,m,Thu Jan 22 2026 13:23:00 GMT-0600 (Central Standard Time),803819.1999998093,092_m_m_n_a.png,O,m,591,10,1,1607.0,802212.1999998093,7738,NNB,C,8
9,test,4,0.0,2-Back,1.0,m,Thu Jan 22 2026 13:23:00 GMT-0600 (Central Standard Time),805468.7999997139,031_y_m_n_a.png,O,m,631,11,1,1642.1999998092651,803826.5999999046,7738,NNB,C,9
10,test,4,0.0,2-Back,1.0,m,Thu Jan 22 2026 13:23:00 GMT-0600 (Central Standard Time),807034.0,130_o_f_n_a.png,O,m,541,12,1,1561.0999999046326,805472.9000000954,7738,NNB,C,10
10,test,4,0.0,2-Back,0.0,m,Thu Jan 22 2026 13:23:00 GMT-0600 (Central Standard Time),808701.6999998093,057_y_m_n_a.png,O,z,647,13,1,1661.4000000953674,807040.2999997139,7738,NNB,C,11
11,test,4,1.0,2-Back,1.0,z,Thu Jan 22 2026 13:23:00 GMT-0600 (Central Standard Time),810600.7999997139,130_o_f_n_a.png,O,z,868,14,1,1894.5999999046326,808706.1999998093,7738,NNB,C,12
11,test,4,1.0,2-Back,0.0,z,Thu Jan 22 2026 13:23:00 GMT-0600 (Central Standard Time),812366.1999998093,057_y_m_n_a.png,O,m,737,15,1,1756.5,810609.6999998093,7738,NNB,C,13
12,test,4,0.0,2-Back,1.0,m,Thu Jan 22 2026 13:23:00 GMT-0600 (Central Standard Time),813965.7999997139,082_m_m_n_a.png,O,m,571,16,1,1590.8999996185303,812374.9000000954,7738,NNB,C,14
13,test,4,0.0,2-Back,1.0,m,Thu Jan 22 2026 13:23:00 GMT-0600 (Central Standard Time),815665.5,093_m_f_n_a.png,O,m,667,17,1,1691.0,813974.5,7738,NNB,C,15
13,test,4,1.0,2-Back,0.0,z,Thu Jan 22 2026 13:23:00 GMT-0600 (Central Standard Time),817447.2999997139,082_m_m_n_a.png,O,m,753,18,1,1774.1999998092651,815673.0999999046,7738,NNB,C,16
0,test,5,1.0,2-Back,,,Thu Jan 22 2026 13:23:00 GMT-0600 (Central Standard Time),817447.2999997139,057_y_m_n_a.png,O,space,1627,1,1,1774.1999998092651,815673.0999999046,7738,NNB,C,0
0,test,5,1.0,2-Back,,,Thu Jan 22 2026 13:23:00 GMT-0600 (Central Standard Time),817447.2999997139,093_m_f_n_a.png,O,space,1627,2,1,1774.1999998092651,815673.0999999046,7738,NNB,C,0
1,test,5,1.0,2-Back,1.0,z,Thu Jan 22 2026 13:23:00 GMT-0600 (Central Standard Time),825962.2999997139,057_y_m_n_a.png,O,z,808,3,1,1829.7999997138977,824132.5,7738,NNB,C,1
1,test,5,1.0,2-Back,0.0,z,Thu Jan 22 2026 13:23:00 GMT-0600 (Central Standard Time),828195.4000000954,093_m_f_n_a.png,O,m,1208,4,1,2228.6000003814697,825966.7999997139,7738,NNB,C,2
2,test,5,0.0,2-Back,1.0,m,Thu Jan 22 2026 13:23:00 GMT-0600 (Central Standard Time),829877.4000000954,130_o_f_n_a.png,O,m,664,5,1,1677.6000003814697,828199.7999997139,7738,NNB,C,3
3,test,5,0.0,2-Back,1.0,m,Thu Jan 22 2026 13:23:00 GMT-0600 (Central Standard Time),831760.0,057_y_m_n_a.png,O,m,851,6,1,1875.8000001907349,829884.1999998093,7738,NNB,C,4
4,test,5,0.0,2-Back,1.0,m,Thu Jan 22 2026 13:23:00 GMT-0600 (Central Standard Time),833477.0,028_y_f_n_a.png,O,m,690,7,1,1711.4000000953674,831765.5999999046,7738,NNB,C,5
5,test,5,0.0,2-Back,1.0,m,Thu Jan 22 2026 13:23:00 GMT-0600 (Central Standard Time),835444.0999999046,130_o_f_n_a.png,O,m,933,8,1,1961.5999999046326,833482.5,7738,NNB,C,6
6,test,5,1.0,2-Back,1.0,z,Thu Jan 22 2026 13:23:00 GMT-0600 (Central Standard Time),837375.2999997139,028_y_f_n_a.png,O,z,911,9,1,1925.0999999046326,835450.1999998093,7738,NNB,C,7
7,test,5,0.0,2-Back,1.0,m,Thu Jan 22 2026 13:23:00 GMT-0600 (Central Standard Time),838973.7999997139,146_o_m_n_a.png,O,m,578,10,1,1593.6999998092651,837380.0999999046,7738,NNB,C,8
8,test,5,0.0,2-Back,1.0,m,Thu Jan 22 2026 13:23:00 GMT-0600 (Central Standard Time),840589.5999999046,006_m_f_n_a.png,O,m,587,11,1,1609.3000001907349,838980.2999997139,7738,NNB,C,9
9,test,5,0.0,2-Back,1.0,m,Thu Jan 22 2026 13:23:00 GMT-0600 (Central Standard Time),842308.0,092_m_m_n_a.png,O,m,684,12,1,1712.0,840596.0,7738,NNB,C,10
9,test,5,0.0,2-Back,0.0,m,Thu Jan 22 2026 13:23:00 GMT-0600 (Central Standard Time),844022.5,146_o_m_n_a.png,O,z,685,13,1,1708.7000002861023,842313.7999997139,7738,NNB,C,11
10,test,5,1.0,2-Back,1.0,z,Thu Jan 22 2026 13:23:00 GMT-0600 (Central Standard Time),846123.7999997139,092_m_m_n_a.png,O,z,1067,14,1,2094.5999999046326,844029.1999998093,7738,NNB,C,12
11,test,5,0.0,2-Back,1.0,m,Thu Jan 22 2026 13:23:00 GMT-0600 (Central Standard Time),847821.6999998093,098_y_f_n_a.png,O,m,673,15,1,1694.0999999046326,846127.5999999046,7738,NNB,C,13
12,test,5,0.0,2-Back,1.0,m,Thu Jan 22 2026 13:23:00 GMT-0600 (Central Standard Time),849488.5999999046,059_o_m_n_a.png,O,m,635,16,1,1659.0,847829.5999999046,7738,NNB,C,14
13,test,5,0.0,2-Back,1.0,m,Thu Jan 22 2026 13:23:00 GMT-0600 (Central Standard Time),851138.1999998093,006_m_f_n_a.png,O,m,617,17,1,1645.2999997138977,849492.9000000954,7738,NNB,C,15
13,test,5,1.0,2-Back,0.0,z,Thu Jan 22 2026 13:23:00 GMT-0600 (Central Standard Time),853153.5,059_o_m_n_a.png,O,m,984,18,1,2009.5999999046326,851143.9000000954,7738,NNB,C,16
