block_c,block_dur,condition,countdown,datetime,endtime,list,multichar_response,project,response,response_time,session_number,start_end,starttime,subject_id,task,task_vers,trial
,,,,Tue Jan 13 2026 10:06:14 GMT-0600 (Central Standard Time),,,,O,space,270,1,,,7734,WL,C,
prac,,0,,Tue Jan 13 2026 10:06:14 GMT-0600 (Central Standard Time),,NA,b,O,b,4959,1,,,7734,WL,C,1.0
prac,,0,,Tue Jan 13 2026 10:06:14 GMT-0600 (Central Standard Time),,NA,bo,O,o,347,1,,,7734,WL,C,1.0
prac,,0,,Tue Jan 13 2026 10:06:14 GMT-0600 (Central Standard Time),,NA,boo,O,o,157,1,,,7734,WL,C,1.0
prac,,0,,Tue Jan 13 2026 10:06:14 GMT-0600 (Central Standard Time),,NA,boos,O,s,166,1,,,7734,WL,C,1.0
prac,,0,,Tue Jan 13 2026 10:06:14 GMT-0600 (Central Standard Time),,NA,boost,O,t,356,1,,,7734,WL,C,1.0
prac,,0,,Tue Jan 13 2026 10:06:14 GMT-0600 (Central Standard Time),,NA,boostenter,O,enter,4136,1,,,7734,WL,C,1.0
1,4.931999921798706,learn,55068.000078201294,Tue Jan 13 2026 10:06:14 GMT-0600 (Central Standard Time),193484.90000009537,A,b,O,b,4923,1,4931.5,188553.40000009537,7734,WL,C,1.0
1,5.48199987411499,learn,54518.00012588501,Tue Jan 13 2026 10:06:14 GMT-0600 (Central Standard Time),194035.20000004768,A,bo,O,o,545,1,5481.799999952316,188553.40000009537,7734,WL,C,1.0
1,5.781999826431274,learn,54218.000173568726,Tue Jan 13 2026 10:06:14 GMT-0600 (Central Standard Time),194335.59999990463,A,boy,O,y,289,1,5782.199999809265,188553.40000009537,7734,WL,C,1.0
1,8.929999828338623,learn,51070.00017166138,Tue Jan 13 2026 10:06:14 GMT-0600 (Central Standard Time),197483.59999990463,A,boyenter,O,enter,3124,1,8930.199999809265,188553.40000009537,7734,WL,C,1.0
1,11.996999979019165,learn,48003.000020980835,Tue Jan 13 2026 10:06:14 GMT-0600 (Central Standard Time),200550.0,A,w,O,w,3048,1,3066.0,197484.0,7734,WL,C,2.0
1,12.229999780654907,learn,47770.00021934509,Tue Jan 13 2026 10:06:14 GMT-0600 (Central Standard Time),200783.0,A,wh,O,h,221,1,3299.0,197484.0,7734,WL,C,2.0
1,12.396999835968018,learn,47603.00016403198,Tue Jan 13 2026 10:06:14 GMT-0600 (Central Standard Time),200949.90000009537,A,whe,O,e,159,1,3465.9000000953674,197484.0,7734,WL,C,2.0
1,12.660999774932861,learn,47339.00022506714,Tue Jan 13 2026 10:06:14 GMT-0600 (Central Standard Time),201214.79999995232,A,whet,O,t,247,1,3730.7999999523163,197484.0,7734,WL,C,2.0
1,13.143999814987183,learn,46856.00018501282,Tue Jan 13 2026 10:06:14 GMT-0600 (Central Standard Time),201697.90000009537,A,whe,O,backspace,463,1,4213.900000095367,197484.0,7734,WL,C,2.0
1,13.377999782562256,learn,46622.000217437744,Tue Jan 13 2026 10:06:14 GMT-0600 (Central Standard Time),201931.5,A,whea,O,a,220,1,4447.5,197484.0,7734,WL,C,2.0
1,13.544999837875366,learn,46455.000162124634,Tue Jan 13 2026 10:06:14 GMT-0600 (Central Standard Time),202098.0,A,wheat,O,t,160,1,4614.0,197484.0,7734,WL,C,2.0
1,13.944999933242798,learn,46055.0000667572,Tue Jan 13 2026 10:06:14 GMT-0600 (Central Standard Time),202498.59999990463,A,wheatenter,O,enter,397,1,5014.599999904633,197484.0,7734,WL,C,2.0
1,15.644999980926514,learn,44355.000019073486,Tue Jan 13 2026 10:06:14 GMT-0600 (Central Standard Time),204198.0,A,s,O,s,1685,1,1699.0999999046326,202498.90000009537,7734,WL,C,3.0
1,15.860999822616577,learn,44139.00017738342,Tue Jan 13 2026 10:06:14 GMT-0600 (Central Standard Time),204414.09999990463,A,su,O,u,209,1,1915.1999998092651,202498.90000009537,7734,WL,C,3.0
1,16.042999982833862,learn,43957.00001716614,Tue Jan 13 2026 10:06:14 GMT-0600 (Central Standard Time),204596.90000009537,A,sug,O,g,175,1,2098.0,202498.90000009537,7734,WL,C,3.0
1,16.22699999809265,learn,43773.00000190735,Tue Jan 13 2026 10:06:14 GMT-0600 (Central Standard Time),204780.40000009537,A,suga,O,a,174,1,2281.5,202498.90000009537,7734,WL,C,3.0
1,16.494999885559082,learn,43505.00011444092,Tue Jan 13 2026 10:06:14 GMT-0600 (Central Standard Time),205048.59999990463,A,sugar,O,r,258,1,2549.699999809265,202498.90000009537,7734,WL,C,3.0
1,16.727999925613403,learn,43272.0000743866,Tue Jan 13 2026 10:06:14 GMT-0600 (Central Standard Time),205281.20000004768,A,sugarenter,O,enter,221,1,2782.2999999523163,202498.90000009537,7734,WL,C,3.0
1,17.459999799728394,learn,42540.00020027161,Tue Jan 13 2026 10:06:14 GMT-0600 (Central Standard Time),206013.5,A,d,O,d,725,1,732.0999999046326,205281.40000009537,7734,WL,C,4.0
1,17.644999980926514,learn,42355.000019073486,Tue Jan 13 2026 10:06:14 GMT-0600 (Central Standard Time),206198.59999990463,A,do,O,o,177,1,917.1999998092651,205281.40000009537,7734,WL,C,4.0
1,17.812999963760376,learn,42187.000036239624,Tue Jan 13 2026 10:06:14 GMT-0600 (Central Standard Time),206366.40000009537,A,doc,O,c,151,1,1085.0,205281.40000009537,7734,WL,C,4.0
1,18.127999782562256,learn,41872.000217437744,Tue Jan 13 2026 10:06:14 GMT-0600 (Central Standard Time),206680.90000009537,A,doct,O,t,303,1,1399.5,205281.40000009537,7734,WL,C,4.0
1,18.227999925613403,learn,41772.0000743866,Tue Jan 13 2026 10:06:14 GMT-0600 (Central Standard Time),206781.0,A,docto,O,o,85,1,1499.5999999046326,205281.40000009537,7734,WL,C,4.0
1,18.377999782562256,learn,41622.000217437744,Tue Jan 13 2026 10:06:14 GMT-0600 (Central Standard Time),206930.90000009537,A,doctor,O,r,137,1,1649.5,205281.40000009537,7734,WL,C,4.0
1,18.67799997329712,learn,41322.00002670288,Tue Jan 13 2026 10:06:14 GMT-0600 (Central Standard Time),207231.20000004768,A,doctorenter,O,enter,284,1,1949.7999999523163,205281.40000009537,7734,WL,C,4.0
1,43.05299997329712,learn,16947.00002670288,Tue Jan 13 2026 10:06:14 GMT-0600 (Central Standard Time),231606.59999990463,A,enter,O,enter,24367,1,24375.099999904633,207231.5,7734,WL,C,5.0
1,46.48599982261658,learn,13514.000177383423,Tue Jan 13 2026 10:06:14 GMT-0600 (Central Standard Time),235039.79999995232,A,enter,O,enter,3424,1,3432.7999999523163,231607.0,7734,WL,C,6.0
1,47.800999879837036,learn,12199.000120162964,Tue Jan 13 2026 10:06:14 GMT-0600 (Central Standard Time),236354.40000009537,A,enter,O,enter,1293,1,1314.2000000476837,235040.20000004768,7734,WL,C,7.0
1,48.45099997520447,learn,11549.000024795532,Tue Jan 13 2026 10:06:14 GMT-0600 (Central Standard Time),237004.59999990463,A,enter,O,enter,645,1,649.8999998569489,236354.70000004768,7734,WL,C,8.0
1,48.98399996757507,learn,11016.000032424927,Tue Jan 13 2026 10:06:14 GMT-0600 (Central Standard Time),237537.5,A,enter,O,enter,520,1,532.5999999046326,237004.90000009537,7734,WL,C,9.0
1,49.466999769210815,learn,10533.000230789185,Tue Jan 13 2026 10:06:14 GMT-0600 (Central Standard Time),238021.0,A,enter,O,enter,480,1,483.2000000476837,237537.79999995232,7734,WL,C,10.0
1,50.08299994468689,learn,9917.00005531311,Tue Jan 13 2026 10:06:14 GMT-0600 (Central Standard Time),238636.40000009537,A,enter,O,enter,601,1,615.0,238021.40000009537,7734,WL,C,11.0
1,50.58299994468689,learn,9417.00005531311,Tue Jan 13 2026 10:06:14 GMT-0600 (Central Standard Time),239136.29999995232,A,enter,O,enter,489,1,499.7000000476837,238636.59999990463,7734,WL,C,12.0
1,51.084999799728394,learn,8915.000200271606,Tue Jan 13 2026 10:06:14 GMT-0600 (Central Standard Time),239638.70000004768,A,enter,O,enter,480,1,502.10000014305115,239136.59999990463,7734,WL,C,13.0
1,51.58399987220764,learn,8416.000127792358,Tue Jan 13 2026 10:06:14 GMT-0600 (Central Standard Time),240137.5,A,enter,O,enter,478,1,498.40000009536743,239639.09999990463,7734,WL,C,14.0
1,52.08299994468689,learn,7917.00005531311,Tue Jan 13 2026 10:06:14 GMT-0600 (Central Standard Time),240636.79999995232,A,enter,O,enter,485,1,499.09999990463257,240137.70000004768,7734,WL,C,15.0
2,1.816999912261963,learn,58183.00008773804,Tue Jan 13 2026 10:06:14 GMT-0600 (Central Standard Time),316595.59999990463,A,b,O,b,1810,1,1816.3999998569489,314779.2000000477,7734,WL,C,1.0
2,2.003000020980835,learn,57996.999979019165,Tue Jan 13 2026 10:06:14 GMT-0600 (Central Standard Time),316781.7000000477,A,bo,O,o,164,1,2002.5,314779.2000000477,7734,WL,C,1.0
2,2.299999952316284,learn,57700.000047683716,Tue Jan 13 2026 10:06:14 GMT-0600 (Central Standard Time),317079.09999990463,A,boy,O,y,287,1,2299.899999856949,314779.2000000477,7734,WL,C,1.0
2,2.700000047683716,learn,57299.999952316284,Tue Jan 13 2026 10:06:14 GMT-0600 (Central Standard Time),317478.90000009537,A,boyenter,O,enter,383,1,2699.7000000476837,314779.2000000477,7734,WL,C,1.0
2,3.4700000286102295,learn,56529.99997138977,Tue Jan 13 2026 10:06:14 GMT-0600 (Central Standard Time),318248.7999999523,A,d,O,d,763,1,769.5999999046326,317479.2000000477,7734,WL,C,2.0
2,3.634000062942505,learn,56365.999937057495,Tue Jan 13 2026 10:06:14 GMT-0600 (Central Standard Time),318412.2999999523,A,do,O,o,159,1,933.0999999046326,317479.2000000477,7734,WL,C,2.0
2,3.7679998874664307,learn,56232.00011253357,Tue Jan 13 2026 10:06:14 GMT-0600 (Central Standard Time),318546.59999990463,A,doc,O,c,120,1,1067.3999998569489,317479.2000000477,7734,WL,C,2.0
2,4.098999977111816,learn,55901.00002288818,Tue Jan 13 2026 10:06:14 GMT-0600 (Central Standard Time),318878.09999990463,A,doct,O,t,315,1,1398.8999998569489,317479.2000000477,7734,WL,C,2.0
2,4.2149999141693115,learn,55785.00008583069,Tue Jan 13 2026 10:06:14 GMT-0600 (Central Standard Time),318993.7000000477,A,docto,O,o,101,1,1514.5,317479.2000000477,7734,WL,C,2.0
2,4.365000009536743,learn,55634.99999046326,Tue Jan 13 2026 10:06:14 GMT-0600 (Central Standard Time),319144.0,A,doctor,O,r,133,1,1664.7999999523163,317479.2000000477,7734,WL,C,2.0
2,4.66700005531311,learn,55332.99994468689,Tue Jan 13 2026 10:06:14 GMT-0600 (Central Standard Time),319445.2999999523,A,doctorenter,O,enter,296,1,1966.0999999046326,317479.2000000477,7734,WL,C,2.0
2,5.180999994277954,learn,54819.000005722046,Tue Jan 13 2026 10:06:14 GMT-0600 (Central Standard Time),319960.2999999523,A,w,O,w,496,1,514.7000000476837,319445.59999990463,7734,WL,C,3.0
2,5.398999929428101,learn,54601.0000705719,Tue Jan 13 2026 10:06:14 GMT-0600 (Central Standard Time),320177.7999999523,A,wh,O,h,205,1,732.2000000476837,319445.59999990463,7734,WL,C,3.0
2,5.632999897003174,learn,54367.000102996826,Tue Jan 13 2026 10:06:14 GMT-0600 (Central Standard Time),320411.7999999523,A,whe,O,e,219,1,966.2000000476837,319445.59999990463,7734,WL,C,3.0
2,5.898999929428101,learn,54101.0000705719,Tue Jan 13 2026 10:06:14 GMT-0600 (Central Standard Time),320677.5,A,whea,O,a,249,1,1231.9000000953674,319445.59999990463,7734,WL,C,3.0
2,6.148000001907349,learn,53851.99999809265,Tue Jan 13 2026 10:06:14 GMT-0600 (Central Standard Time),320926.90000009537,A,wheat,O,t,233,1,1481.3000001907349,319445.59999990463,7734,WL,C,3.0
2,6.483999967575073,learn,53516.00003242493,Tue Jan 13 2026 10:06:14 GMT-0600 (Central Standard Time),321262.40000009537,A,wheatenter,O,enter,320,1,1816.8000001907349,319445.59999990463,7734,WL,C,3.0
2,7.2170000076293945,learn,52782.999992370605,Tue Jan 13 2026 10:06:14 GMT-0600 (Central Standard Time),321995.59999990463,A,c,O,c,713,1,733.0,321262.59999990463,7734,WL,C,4.0
2,7.38100004196167,learn,52618.99995803833,Tue Jan 13 2026 10:06:14 GMT-0600 (Central Standard Time),322160.0,A,co,O,o,154,1,897.4000000953674,321262.59999990463,7734,WL,C,4.0
2,7.5309998989105225,learn,52469.00010108948,Tue Jan 13 2026 10:06:14 GMT-0600 (Central Standard Time),322310.2999999523,A,cor,O,r,142,1,1047.7000000476837,321262.59999990463,7734,WL,C,4.0
2,7.7820000648498535,learn,52217.99993515015,Tue Jan 13 2026 10:06:14 GMT-0600 (Central Standard Time),322560.59999990463,A,corn,O,n,231,1,1298.0,321262.59999990463,7734,WL,C,4.0
2,8.098000049591064,learn,51901.999950408936,Tue Jan 13 2026 10:06:14 GMT-0600 (Central Standard Time),322877.2000000477,A,cornenter,O,enter,309,1,1614.6000001430511,321262.59999990463,7734,WL,C,4.0
2,8.930999994277954,learn,51069.000005722046,Tue Jan 13 2026 10:06:14 GMT-0600 (Central Standard Time),323709.90000009537,A,q,O,q,816,1,832.5,322877.40000009537,7734,WL,C,5.0
2,9.29800009727478,learn,50701.99990272522,Tue Jan 13 2026 10:06:14 GMT-0600 (Central Standard Time),324076.7999999523,A,qu,O,u,353,1,1199.3999998569489,322877.40000009537,7734,WL,C,5.0
2,9.648000001907349,learn,50351.99999809265,Tue Jan 13 2026 10:06:14 GMT-0600 (Central Standard Time),324427.2999999523,A,que,O,e,339,1,1549.8999998569489,322877.40000009537,7734,WL,C,5.0
2,9.997999906539917,learn,50002.00009346008,Tue Jan 13 2026 10:06:14 GMT-0600 (Central Standard Time),324776.40000009537,A,ques,O,s,331,1,1899.0,322877.40000009537,7734,WL,C,5.0
2,10.831000089645386,learn,49168.999910354614,Tue Jan 13 2026 10:06:14 GMT-0600 (Central Standard Time),325609.90000009537,A,que,O,backspace,822,1,2732.5,322877.40000009537,7734,WL,C,5.0
2,11.164000034332275,learn,48835.999965667725,Tue Jan 13 2026 10:06:14 GMT-0600 (Central Standard Time),325943.0,A,quee,O,e,324,1,3065.5999999046326,322877.40000009537,7734,WL,C,5.0
2,11.464999914169312,learn,48535.00008583069,Tue Jan 13 2026 10:06:14 GMT-0600 (Central Standard Time),326244.09999990463,A,quees,O,s,294,1,3366.699999809265,322877.40000009537,7734,WL,C,5.0
2,11.713000059127808,learn,48286.99994087219,Tue Jan 13 2026 10:06:14 GMT-0600 (Central Standard Time),326491.7999999523,A,queesn,O,n,235,1,3614.399999856949,322877.40000009537,7734,WL,C,5.0
2,12.065000057220459,learn,47934.99994277954,Tue Jan 13 2026 10:06:14 GMT-0600 (Central Standard Time),326843.40000009537,A,quees,O,backspace,330,1,3966.0,322877.40000009537,7734,WL,C,5.0
2,12.19599986076355,learn,47804.00013923645,Tue Jan 13 2026 10:06:14 GMT-0600 (Central Standard Time),326975.2000000477,A,quee,O,backspace,122,1,4097.799999952316,322877.40000009537,7734,WL,C,5.0
2,12.52999997138977,learn,47470.00002861023,Tue Jan 13 2026 10:06:14 GMT-0600 (Central Standard Time),327308.5,A,queem,O,m,318,1,4431.099999904633,322877.40000009537,7734,WL,C,5.0
2,13.546000003814697,learn,46453.9999961853,Tue Jan 13 2026 10:06:14 GMT-0600 (Central Standard Time),328324.90000009537,A,quee,O,backspace,1009,1,5447.5,322877.40000009537,7734,WL,C,5.0
2,14.412999868392944,learn,45587.000131607056,Tue Jan 13 2026 10:06:14 GMT-0600 (Central Standard Time),329191.59999990463,A,queen,O,n,848,1,6314.199999809265,322877.40000009537,7734,WL,C,5.0
2,14.713000059127808,learn,45286.99994087219,Tue Jan 13 2026 10:06:14 GMT-0600 (Central Standard Time),329491.7999999523,A,queenenter,O,enter,288,1,6614.399999856949,322877.40000009537,7734,WL,C,5.0
2,17.013000011444092,learn,42986.99998855591,Tue Jan 13 2026 10:06:14 GMT-0600 (Central Standard Time),331792.0,A,f,O,f,2290,1,2299.9000000953674,329492.09999990463,7734,WL,C,6.0
2,17.164000034332275,learn,42835.999965667725,Tue Jan 13 2026 10:06:14 GMT-0600 (Central Standard Time),331942.7000000477,A,fl,O,l,144,1,2450.600000143051,329492.09999990463,7734,WL,C,6.0
2,17.34599995613098,learn,42654.00004386902,Tue Jan 13 2026 10:06:14 GMT-0600 (Central Standard Time),332125.2999999523,A,fla,O,a,177,1,2633.2000000476837,329492.09999990463,7734,WL,C,6.0
2,17.62999987602234,learn,42370.00012397766,Tue Jan 13 2026 10:06:14 GMT-0600 (Central Standard Time),332408.7999999523,A,flag,O,g,263,1,2916.7000000476837,329492.09999990463,7734,WL,C,6.0
2,17.94599986076355,learn,42054.00013923645,Tue Jan 13 2026 10:06:14 GMT-0600 (Central Standard Time),332725.0,A,flagenter,O,enter,312,1,3232.9000000953674,329492.09999990463,7734,WL,C,6.0
2,19.92799997329712,learn,40072.00002670288,Tue Jan 13 2026 10:06:14 GMT-0600 (Central Standard Time),334706.90000009537,A,s,O,s,1977,1,1981.7000000476837,332725.2000000477,7734,WL,C,7.0
2,20.128000020980835,learn,39871.999979019165,Tue Jan 13 2026 10:06:14 GMT-0600 (Central Standard Time),334906.2999999523,A,sh,O,h,187,1,2181.0999999046326,332725.2000000477,7734,WL,C,7.0
2,20.295000076293945,learn,39704.999923706055,Tue Jan 13 2026 10:06:14 GMT-0600 (Central Standard Time),335074.2999999523,A,sho,O,o,150,1,2349.0999999046326,332725.2000000477,7734,WL,C,7.0
2,20.39400005340576,learn,39605.99994659424,Tue Jan 13 2026 10:06:14 GMT-0600 (Central Standard Time),335172.7000000477,A,shor,O,r,91,1,2447.5,332725.2000000477,7734,WL,C,7.0
2,20.66000008583069,learn,39339.99991416931,Tue Jan 13 2026 10:06:14 GMT-0600 (Central Standard Time),335438.7999999523,A,shore,O,e,255,1,2713.5999999046326,332725.2000000477,7734,WL,C,7.0
2,20.961999893188477,learn,39038.00010681152,Tue Jan 13 2026 10:06:14 GMT-0600 (Central Standard Time),335740.90000009537,A,shoreenter,O,enter,287,1,3015.7000000476837,332725.2000000477,7734,WL,C,7.0
2,31.94099998474121,learn,28059.00001525879,Tue Jan 13 2026 10:06:14 GMT-0600 (Central Standard Time),346719.7000000477,A,s,O,s,10954,1,10978.400000095367,335741.2999999523,7734,WL,C,8.0
2,32.17400002479553,learn,27825.999975204468,Tue Jan 13 2026 10:06:14 GMT-0600 (Central Standard Time),346953.2999999523,A,sh,O,h,214,1,11212.0,335741.2999999523,7734,WL,C,8.0
2,32.35699987411499,learn,27643.00012588501,Tue Jan 13 2026 10:06:14 GMT-0600 (Central Standard Time),347136.2000000477,A,sho,O,o,165,1,11394.900000095367,335741.2999999523,7734,WL,C,8.0
2,32.52500009536743,learn,27474.99990463257,Tue Jan 13 2026 10:06:14 GMT-0600 (Central Standard Time),347303.7000000477,A,shor,O,r,156,1,11562.400000095367,335741.2999999523,7734,WL,C,8.0
2,32.7739999294281,learn,27226.0000705719,Tue Jan 13 2026 10:06:14 GMT-0600 (Central Standard Time),347553.2000000477,A,shore,O,e,239,1,11811.900000095367,335741.2999999523,7734,WL,C,8.0
2,33.009000062942505,learn,26990.999937057495,Tue Jan 13 2026 10:06:14 GMT-0600 (Central Standard Time),347788.09999990463,A,shoreenter,O,enter,230,1,12046.799999952316,335741.2999999523,7734,WL,C,8.0
2,47.234999895095825,learn,12765.000104904175,Tue Jan 13 2026 10:06:14 GMT-0600 (Central Standard Time),362013.90000009537,A,s,O,s,14210,1,14225.600000143051,347788.2999999523,7734,WL,C,9.0
2,47.53699994087219,learn,12463.000059127808,Tue Jan 13 2026 10:06:14 GMT-0600 (Central Standard Time),362315.40000009537,A,su,O,u,297,1,14527.100000143051,347788.2999999523,7734,WL,C,9.0
2,47.835999965667725,learn,12164.000034332275,Tue Jan 13 2026 10:06:14 GMT-0600 (Central Standard Time),362614.7999999523,A,sug,O,g,291,1,14826.5,347788.2999999523,7734,WL,C,9.0
2,48.085999965667725,learn,11914.000034332275,Tue Jan 13 2026 10:06:14 GMT-0600 (Central Standard Time),362864.59999990463,A,suga,O,a,229,1,15076.299999952316,347788.2999999523,7734,WL,C,9.0
2,48.30299997329712,learn,11697.00002670288,Tue Jan 13 2026 10:06:14 GMT-0600 (Central Standard Time),363081.5,A,sugar,O,r,192,1,15293.200000047684,347788.2999999523,7734,WL,C,9.0
2,48.46799993515015,learn,11532.000064849854,Tue Jan 13 2026 10:06:14 GMT-0600 (Central Standard Time),363247.2999999523,A,sugarenter,O,enter,154,1,15459.0,347788.2999999523,7734,WL,C,9.0
2,58.41599988937378,learn,1584.0001106262207,Tue Jan 13 2026 10:06:14 GMT-0600 (Central Standard Time),373194.90000009537,A,n,O,n,9935,1,9947.300000190735,363247.59999990463,7734,WL,C,10.0
2,58.59999990463257,learn,1400.0000953674316,Tue Jan 13 2026 10:06:14 GMT-0600 (Central Standard Time),373379.0,A,na,O,a,163,1,10131.400000095367,363247.59999990463,7734,WL,C,10.0
2,58.764999866485596,learn,1235.0001335144043,Tue Jan 13 2026 10:06:14 GMT-0600 (Central Standard Time),373544.5,A,nai,O,i,145,1,10296.900000095367,363247.59999990463,7734,WL,C,10.0
2,59.0,learn,1000.0,Tue Jan 13 2026 10:06:14 GMT-0600 (Central Standard Time),373779.2999999523,A,nail,O,l,219,1,10531.700000047684,363247.59999990463,7734,WL,C,10.0
2,59.348000049591064,learn,651.9999504089355,Tue Jan 13 2026 10:06:14 GMT-0600 (Central Standard Time),374127.2999999523,A,nailenter,O,enter,337,1,10879.700000047684,363247.59999990463,7734,WL,C,10.0
2,60.014999866485596,learn,-14.999866485595703,Tue Jan 13 2026 10:06:14 GMT-0600 (Central Standard Time),374794.2999999523,A,None,O,None,661,1,666.7000000476837,374127.59999990463,7734,WL,C,11.0
3,1.2829999923706055,learn,58717.000007629395,Tue Jan 13 2026 10:06:14 GMT-0600 (Central Standard Time),449170.59999990463,A,b,O,b,1272,1,1282.6999998092651,447887.90000009537,7734,WL,C,1.0
3,1.5160000324249268,learn,58483.99996757507,Tue Jan 13 2026 10:06:14 GMT-0600 (Central Standard Time),449403.5,A,bo,O,o,227,1,1515.5999999046326,447887.90000009537,7734,WL,C,1.0
3,1.683000087738037,learn,58316.99991226196,Tue Jan 13 2026 10:06:14 GMT-0600 (Central Standard Time),449571.5,A,bod,O,d,145,1,1683.5999999046326,447887.90000009537,7734,WL,C,1.0
3,1.9830000400543213,learn,58016.99995994568,Tue Jan 13 2026 10:06:14 GMT-0600 (Central Standard Time),449870.90000009537,A,body,O,y,289,1,1983.0,447887.90000009537,7734,WL,C,1.0
3,2.3980000019073486,learn,57601.99999809265,Tue Jan 13 2026 10:06:14 GMT-0600 (Central Standard Time),450286.09999990463,A,bodyenter,O,enter,406,1,2398.199999809265,447887.90000009537,7734,WL,C,1.0
3,2.8980000019073486,learn,57101.99999809265,Tue Jan 13 2026 10:06:14 GMT-0600 (Central Standard Time),450786.2000000477,A,s,O,s,489,1,499.90000009536743,450286.2999999523,7734,WL,C,2.0
3,3.0820000171661377,learn,56917.99998283386,Tue Jan 13 2026 10:06:14 GMT-0600 (Central Standard Time),450969.59999990463,A,sh,O,h,164,1,683.2999999523163,450286.2999999523,7734,WL,C,2.0
3,3.247999906539917,learn,56752.00009346008,Tue Jan 13 2026 10:06:14 GMT-0600 (Central Standard Time),451135.59999990463,A,sho,O,o,146,1,849.2999999523163,450286.2999999523,7734,WL,C,2.0
3,3.3310000896453857,learn,56668.999910354614,Tue Jan 13 2026 10:06:14 GMT-0600 (Central Standard Time),451219.40000009537,A,shor,O,r,71,1,933.1000001430511,450286.2999999523,7734,WL,C,2.0
3,3.564000129699707,learn,56435.99987030029,Tue Jan 13 2026 10:06:14 GMT-0600 (Central Standard Time),451452.2999999523,A,shore,O,e,217,1,1166.0,450286.2999999523,7734,WL,C,2.0
3,3.881999969482422,learn,56118.00003051758,Tue Jan 13 2026 10:06:14 GMT-0600 (Central Standard Time),451770.0,A,shoreenter,O,enter,314,1,1483.7000000476837,450286.2999999523,7734,WL,C,2.0
3,5.263999938964844,learn,54736.000061035156,Tue Jan 13 2026 10:06:14 GMT-0600 (Central Standard Time),453151.7000000477,A,w,O,w,1365,1,1381.5,451770.2000000477,7734,WL,C,3.0
3,5.5309998989105225,learn,54469.00010108948,Tue Jan 13 2026 10:06:14 GMT-0600 (Central Standard Time),453419.2999999523,A,wh,O,h,260,1,1649.0999999046326,451770.2000000477,7734,WL,C,3.0
3,5.716000080108643,learn,54283.99991989136,Tue Jan 13 2026 10:06:14 GMT-0600 (Central Standard Time),453604.0,A,whe,O,e,175,1,1833.7999999523163,451770.2000000477,7734,WL,C,3.0
3,5.963000059127808,learn,54036.99994087219,Tue Jan 13 2026 10:06:14 GMT-0600 (Central Standard Time),453851.09999990463,A,whea,O,a,241,1,2080.899999856949,451770.2000000477,7734,WL,C,3.0
3,6.164000034332275,learn,53835.999965667725,Tue Jan 13 2026 10:06:14 GMT-0600 (Central Standard Time),454052.5,A,wheat,O,t,196,1,2282.2999999523163,451770.2000000477,7734,WL,C,3.0
3,6.315000057220459,learn,53684.99994277954,Tue Jan 13 2026 10:06:14 GMT-0600 (Central Standard Time),454203.2999999523,A,wheatenter,O,enter,142,1,2433.0999999046326,451770.2000000477,7734,WL,C,3.0
3,6.898000001907349,learn,53101.99999809265,Tue Jan 13 2026 10:06:14 GMT-0600 (Central Standard Time),454785.90000009537,A,c,O,c,571,1,582.4000000953674,454203.5,7734,WL,C,4.0
3,7.046000003814697,learn,52953.9999961853,Tue Jan 13 2026 10:06:14 GMT-0600 (Central Standard Time),454933.7999999523,A,co,O,o,131,1,730.2999999523163,454203.5,7734,WL,C,4.0
3,7.2149999141693115,learn,52785.00008583069,Tue Jan 13 2026 10:06:14 GMT-0600 (Central Standard Time),455102.7000000477,A,cor,O,r,152,1,899.2000000476837,454203.5,7734,WL,C,4.0
3,7.447000026702881,learn,52552.99997329712,Tue Jan 13 2026 10:06:14 GMT-0600 (Central Standard Time),455334.7000000477,A,corn,O,n,214,1,1131.2000000476837,454203.5,7734,WL,C,4.0
3,7.746000051498413,learn,52253.99994850159,Tue Jan 13 2026 10:06:14 GMT-0600 (Central Standard Time),455634.0,A,cornenter,O,enter,285,1,1430.5,454203.5,7734,WL,C,4.0
3,10.430999994277954,learn,49569.000005722046,Tue Jan 13 2026 10:06:14 GMT-0600 (Central Standard Time),458318.7000000477,A,t,O,t,2668,1,2684.4000000953674,455634.2999999523,7734,WL,C,5.0
3,10.628999948501587,learn,49371.00005149841,Tue Jan 13 2026 10:06:14 GMT-0600 (Central Standard Time),458517.5,A,to,O,o,189,1,2883.2000000476837,455634.2999999523,7734,WL,C,5.0
3,10.779000043869019,learn,49220.99995613098,Tue Jan 13 2026 10:06:14 GMT-0600 (Central Standard Time),458667.2999999523,A,tow,O,w,145,1,3033.0,455634.2999999523,7734,WL,C,5.0
3,11.095999956130981,learn,48904.00004386902,Tue Jan 13 2026 10:06:14 GMT-0600 (Central Standard Time),458983.7000000477,A,towe,O,e,297,1,3349.4000000953674,455634.2999999523,7734,WL,C,5.0
3,11.312000036239624,learn,48687.999963760376,Tue Jan 13 2026 10:06:14 GMT-0600 (Central Standard Time),459200.2999999523,A,tower,O,r,204,1,3566.0,455634.2999999523,7734,WL,C,5.0
3,11.562000036239624,learn,48437.999963760376,Tue Jan 13 2026 10:06:14 GMT-0600 (Central Standard Time),459450.2000000477,A,towerenter,O,enter,244,1,3815.9000000953674,455634.2999999523,7734,WL,C,5.0
3,11.928999900817871,learn,48071.00009918213,Tue Jan 13 2026 10:06:14 GMT-0600 (Central Standard Time),459816.59999990463,A,b,O,b,355,1,366.09999990463257,459450.5,7734,WL,C,6.0
3,12.062000036239624,learn,47937.999963760376,Tue Jan 13 2026 10:06:14 GMT-0600 (Central Standard Time),459950.2999999523,A,bo,O,o,127,1,499.7999999523163,459450.5,7734,WL,C,6.0
3,12.696000099182129,learn,47303.99990081787,Tue Jan 13 2026 10:06:14 GMT-0600 (Central Standard Time),460583.7000000477,A,boy,O,y,621,1,1133.2000000476837,459450.5,7734,WL,C,6.0
3,13.061000108718872,learn,46938.99989128113,Tue Jan 13 2026 10:06:14 GMT-0600 (Central Standard Time),460949.2000000477,A,boyenter,O,enter,357,1,1498.7000000476837,459450.5,7734,WL,C,6.0
3,16.043999910354614,learn,43956.000089645386,Tue Jan 13 2026 10:06:14 GMT-0600 (Central Standard Time),463932.2000000477,A,s,O,s,2979,1,2982.7999999523163,460949.40000009537,7734,WL,C,7.0
3,16.26200008392334,learn,43737.99991607666,Tue Jan 13 2026 10:06:14 GMT-0600 (Central Standard Time),464149.7000000477,A,su,O,u,202,1,3200.2999999523163,460949.40000009537,7734,WL,C,7.0
3,16.545000076293945,learn,43454.999923706055,Tue Jan 13 2026 10:06:14 GMT-0600 (Central Standard Time),464432.7000000477,A,sug,O,g,264,1,3483.2999999523163,460949.40000009537,7734,WL,C,7.0
3,16.676000118255615,learn,43323.999881744385,Tue Jan 13 2026 10:06:14 GMT-0600 (Central Standard Time),464564.2999999523,A,suga,O,a,125,1,3614.899999856949,460949.40000009537,7734,WL,C,7.0
3,16.944999933242798,learn,43055.0000667572,Tue Jan 13 2026 10:06:14 GMT-0600 (Central Standard Time),464833.09999990463,A,sugar,O,r,249,1,3883.699999809265,460949.40000009537,7734,WL,C,7.0
3,17.210000038146973,learn,42789.99996185303,Tue Jan 13 2026 10:06:14 GMT-0600 (Central Standard Time),465098.40000009537,A,sugarenter,O,enter,252,1,4149.0,460949.40000009537,7734,WL,C,7.0
3,18.66000008583069,learn,41339.99991416931,Tue Jan 13 2026 10:06:14 GMT-0600 (Central Standard Time),466548.2000000477,A,c,O,c,1445,1,1449.6000001430511,465098.59999990463,7734,WL,C,8.0
3,18.877000093460083,learn,41122.99990653992,Tue Jan 13 2026 10:06:14 GMT-0600 (Central Standard Time),466764.90000009537,A,co,O,o,202,1,1666.3000001907349,465098.59999990463,7734,WL,C,8.0
3,19.026000022888184,learn,40973.99997711182,Tue Jan 13 2026 10:06:14 GMT-0600 (Central Standard Time),466913.5,A,cor,O,r,137,1,1814.9000000953674,465098.59999990463,7734,WL,C,8.0
3,19.24399995803833,learn,40756.00004196167,Tue Jan 13 2026 10:06:14 GMT-0600 (Central Standard Time),467131.59999990463,A,corn,O,n,213,1,2033.0,465098.59999990463,7734,WL,C,8.0
3,19.509999990463257,learn,40490.00000953674,Tue Jan 13 2026 10:06:14 GMT-0600 (Central Standard Time),467397.90000009537,A,cornenter,O,enter,259,1,2299.300000190735,465098.59999990463,7734,WL,C,8.0
3,22.542999982833862,learn,37457.00001716614,Tue Jan 13 2026 10:06:14 GMT-0600 (Central Standard Time),470430.7000000477,A,t,O,t,3015,1,3032.600000143051,467398.09999990463,7734,WL,C,9.0
3,22.80900001525879,learn,37190.99998474121,Tue Jan 13 2026 10:06:14 GMT-0600 (Central Standard Time),470697.2000000477,A,to,O,o,255,1,3299.100000143051,467398.09999990463,7734,WL,C,9.0
3,22.990999937057495,learn,37009.000062942505,Tue Jan 13 2026 10:06:14 GMT-0600 (Central Standard Time),470879.2000000477,A,tow,O,w,164,1,3481.100000143051,467398.09999990463,7734,WL,C,9.0
3,23.308000087738037,learn,36691.99991226196,Tue Jan 13 2026 10:06:14 GMT-0600 (Central Standard Time),471196.2999999523,A,towe,O,e,310,1,3798.2000000476837,467398.09999990463,7734,WL,C,9.0
3,23.54100012779236,learn,36458.99987220764,Tue Jan 13 2026 10:06:14 GMT-0600 (Central Standard Time),471429.40000009537,A,tower,O,r,218,1,4031.300000190735,467398.09999990463,7734,WL,C,9.0
3,23.70900011062622,learn,36290.99988937378,Tue Jan 13 2026 10:06:14 GMT-0600 (Central Standard Time),471596.7999999523,A,towerenter,O,enter,160,1,4198.700000047684,467398.09999990463,7734,WL,C,9.0
3,29.689000129699707,learn,30310.999870300293,Tue Jan 13 2026 10:06:14 GMT-0600 (Central Standard Time),477577.7000000477,A,n,O,n,5970,1,5980.799999952316,471596.90000009537,7734,WL,C,10.0
3,29.888000011444092,learn,30111.99998855591,Tue Jan 13 2026 10:06:14 GMT-0600 (Central Standard Time),477777.2000000477,A,na,O,a,188,1,6180.299999952316,471596.90000009537,7734,WL,C,10.0
3,30.058000087738037,learn,29941.999912261963,Tue Jan 13 2026 10:06:14 GMT-0600 (Central Standard Time),477947.2000000477,A,nai,O,i,156,1,6350.299999952316,471596.90000009537,7734,WL,C,10.0
3,30.272000074386597,learn,29727.999925613403,Tue Jan 13 2026 10:06:14 GMT-0600 (Central Standard Time),478161.2999999523,A,nail,O,l,194,1,6564.399999856949,471596.90000009537,7734,WL,C,10.0
3,30.539000034332275,learn,29460.999965667725,Tue Jan 13 2026 10:06:14 GMT-0600 (Central Standard Time),478427.7000000477,A,nailenter,O,enter,262,1,6830.799999952316,471596.90000009537,7734,WL,C,10.0
3,45.26800012588501,learn,14731.99987411499,Tue Jan 13 2026 10:06:14 GMT-0600 (Central Standard Time),493157.2000000477,A,d,O,d,14714,1,14729.200000047684,478428.0,7734,WL,C,11.0
3,45.43300008773804,learn,14566.999912261963,Tue Jan 13 2026 10:06:14 GMT-0600 (Central Standard Time),493322.0,A,do,O,o,148,1,14894.0,478428.0,7734,WL,C,11.0
3,45.6010000705719,learn,14398.9999294281,Tue Jan 13 2026 10:06:14 GMT-0600 (Central Standard Time),493489.7999999523,A,doc,O,c,148,1,15061.799999952316,478428.0,7734,WL,C,11.0
3,45.93300008773804,learn,14066.999912261963,Tue Jan 13 2026 10:06:14 GMT-0600 (Central Standard Time),493821.7999999523,A,doct,O,t,326,1,15393.799999952316,478428.0,7734,WL,C,11.0
3,46.35199999809265,learn,13648.000001907349,Tue Jan 13 2026 10:06:14 GMT-0600 (Central Standard Time),494240.59999990463,A,docto,O,o,407,1,15812.599999904633,478428.0,7734,WL,C,11.0
3,46.66700005531311,learn,13332.99994468689,Tue Jan 13 2026 10:06:14 GMT-0600 (Central Standard Time),494556.2000000477,A,doctor,O,r,299,1,16128.200000047684,478428.0,7734,WL,C,11.0
3,46.93400001525879,learn,13065.999984741211,Tue Jan 13 2026 10:06:14 GMT-0600 (Central Standard Time),494822.7000000477,A,doctorenter,O,enter,247,1,16394.700000047684,478428.0,7734,WL,C,11.0
3,57.5789999961853,learn,2421.0000038146973,Tue Jan 13 2026 10:06:14 GMT-0600 (Central Standard Time),505467.59999990463,A,t,O,t,10632,1,10644.799999952316,494822.7999999523,7734,WL,C,12.0
3,57.74799990653992,learn,2252.000093460083,Tue Jan 13 2026 10:06:14 GMT-0600 (Central Standard Time),505636.7999999523,A,to,O,o,155,1,10814.0,494822.7999999523,7734,WL,C,12.0
3,57.94799995422363,learn,2052.000045776367,Tue Jan 13 2026 10:06:14 GMT-0600 (Central Standard Time),505836.7000000477,A,tow,O,w,193,1,11013.900000095367,494822.7999999523,7734,WL,C,12.0
3,58.1800000667572,learn,1819.9999332427979,Tue Jan 13 2026 10:06:14 GMT-0600 (Central Standard Time),506069.5,A,towe,O,e,223,1,11246.700000047684,494822.7999999523,7734,WL,C,12.0
3,58.36299991607666,learn,1637.0000839233398,Tue Jan 13 2026 10:06:14 GMT-0600 (Central Standard Time),506251.90000009537,A,tower,O,r,165,1,11429.100000143051,494822.7999999523,7734,WL,C,12.0
3,58.51200008392334,learn,1487.9999160766602,Tue Jan 13 2026 10:06:14 GMT-0600 (Central Standard Time),506401.2000000477,A,towerenter,O,enter,129,1,11578.400000095367,494822.7999999523,7734,WL,C,12.0
3,58.84700012207031,learn,1152.9998779296875,Tue Jan 13 2026 10:06:14 GMT-0600 (Central Standard Time),506735.5,A,s,O,s,324,1,334.0,506401.5,7734,WL,C,13.0
3,59.02900004386902,learn,970.9999561309814,Tue Jan 13 2026 10:06:14 GMT-0600 (Central Standard Time),506917.7999999523,A,sh,O,h,165,1,516.2999999523163,506401.5,7734,WL,C,13.0
3,59.16300010681152,learn,836.9998931884766,Tue Jan 13 2026 10:06:14 GMT-0600 (Central Standard Time),507051.90000009537,A,sho,O,o,127,1,650.4000000953674,506401.5,7734,WL,C,13.0
3,59.42899990081787,learn,571.0000991821289,Tue Jan 13 2026 10:06:14 GMT-0600 (Central Standard Time),507318.0,A,shor,O,r,256,1,916.5,506401.5,7734,WL,C,13.0
3,59.69600009918213,learn,303.9999008178711,Tue Jan 13 2026 10:06:14 GMT-0600 (Central Standard Time),507585.2999999523,A,shore,O,e,256,1,1183.7999999523163,506401.5,7734,WL,C,13.0
3,60.01300001144409,learn,-13.000011444091797,Tue Jan 13 2026 10:06:14 GMT-0600 (Central Standard Time),507901.59999990463,A,shoreNone,O,None,313,1,1500.0999999046326,506401.5,7734,WL,C,13.0
4,1.5529999732971191,learn,58447.00002670288,Tue Jan 13 2026 10:06:14 GMT-0600 (Central Standard Time),578732.0999999046,A,t,O,t,1550,1,1553.1999998092651,577178.9000000954,7734,WL,C,1.0
4,1.7660000324249268,learn,58233.99996757507,Tue Jan 13 2026 10:06:14 GMT-0600 (Central Standard Time),578945.0,A,to,O,o,200,1,1766.0999999046326,577178.9000000954,7734,WL,C,1.0
4,1.933000087738037,learn,58066.99991226196,Tue Jan 13 2026 10:06:14 GMT-0600 (Central Standard Time),579112.0999999046,A,tow,O,w,157,1,1933.1999998092651,577178.9000000954,7734,WL,C,1.0
4,2.1500000953674316,learn,57849.99990463257,Tue Jan 13 2026 10:06:14 GMT-0600 (Central Standard Time),579329.0999999046,A,towe,O,e,206,1,2150.199999809265,577178.9000000954,7734,WL,C,1.0
4,2.382999897003174,learn,57617.000102996826,Tue Jan 13 2026 10:06:14 GMT-0600 (Central Standard Time),579561.7000000477,A,tower,O,r,221,1,2382.7999999523163,577178.9000000954,7734,WL,C,1.0
4,2.5829999446868896,learn,57417.00005531311,Tue Jan 13 2026 10:06:14 GMT-0600 (Central Standard Time),579761.7000000477,A,towerenter,O,enter,179,1,2582.7999999523163,577178.9000000954,7734,WL,C,1.0
4,2.9019999504089355,learn,57098.000049591064,Tue Jan 13 2026 10:06:14 GMT-0600 (Central Standard Time),580081.4000000954,A,q,O,q,310,1,319.40000009536743,579762.0,7734,WL,C,2.0
4,3.132999897003174,learn,56867.000102996826,Tue Jan 13 2026 10:06:14 GMT-0600 (Central Standard Time),580311.7000000477,A,qu,O,u,220,1,549.7000000476837,579762.0,7734,WL,C,2.0
4,3.4159998893737793,learn,56584.00011062622,Tue Jan 13 2026 10:06:14 GMT-0600 (Central Standard Time),580595.0999999046,A,que,O,e,271,1,833.0999999046326,579762.0,7734,WL,C,2.0
4,3.568000078201294,learn,56431.999921798706,Tue Jan 13 2026 10:06:14 GMT-0600 (Central Standard Time),580747.4000000954,A,quee,O,e,131,1,985.4000000953674,579762.0,7734,WL,C,2.0
4,3.7850000858306885,learn,56214.99991416931,Tue Jan 13 2026 10:06:14 GMT-0600 (Central Standard Time),580963.5,A,queen,O,n,209,1,1201.5,579762.0,7734,WL,C,2.0
4,4.132999897003174,learn,55867.000102996826,Tue Jan 13 2026 10:06:14 GMT-0600 (Central Standard Time),581311.7000000477,A,queenenter,O,enter,339,1,1549.7000000476837,579762.0,7734,WL,C,2.0
4,4.450000047683716,learn,55549.999952316284,Tue Jan 13 2026 10:06:14 GMT-0600 (Central Standard Time),581628.5,A,b,O,b,311,1,316.59999990463257,581311.9000000954,7734,WL,C,3.0
4,4.598999977111816,learn,55401.00002288818,Tue Jan 13 2026 10:06:14 GMT-0600 (Central Standard Time),581778.4000000954,A,bo,O,o,144,1,466.5,581311.9000000954,7734,WL,C,3.0
4,4.948999881744385,learn,55051.000118255615,Tue Jan 13 2026 10:06:14 GMT-0600 (Central Standard Time),582127.7999999523,A,boy,O,y,335,1,815.8999998569489,581311.9000000954,7734,WL,C,3.0
4,5.4649999141693115,learn,54535.00008583069,Tue Jan 13 2026 10:06:14 GMT-0600 (Central Standard Time),582644.0,A,boyenter,O,enter,501,1,1332.0999999046326,581311.9000000954,7734,WL,C,3.0
4,6.132999897003174,learn,53867.000102996826,Tue Jan 13 2026 10:06:14 GMT-0600 (Central Standard Time),583312.0999999046,A,w,O,w,649,1,667.7999999523163,582644.2999999523,7734,WL,C,4.0
4,6.315000057220459,learn,53684.99994277954,Tue Jan 13 2026 10:06:14 GMT-0600 (Central Standard Time),583493.9000000954,A,wh,O,h,174,1,849.6000001430511,582644.2999999523,7734,WL,C,4.0
4,6.480999946594238,learn,53519.00005340576,Tue Jan 13 2026 10:06:14 GMT-0600 (Central Standard Time),583659.9000000954,A,whe,O,e,152,1,1015.6000001430511,582644.2999999523,7734,WL,C,4.0
4,6.71399998664856,learn,53286.00001335144,Tue Jan 13 2026 10:06:14 GMT-0600 (Central Standard Time),583893.2999999523,A,whea,O,a,227,1,1249.0,582644.2999999523,7734,WL,C,4.0
4,6.947999954223633,learn,53052.00004577637,Tue Jan 13 2026 10:06:14 GMT-0600 (Central Standard Time),584126.5,A,wheat,O,t,216,1,1482.2000000476837,582644.2999999523,7734,WL,C,4.0
4,7.23199987411499,learn,52768.00012588501,Tue Jan 13 2026 10:06:14 GMT-0600 (Central Standard Time),584410.7000000477,A,wheatenter,O,enter,265,1,1766.4000000953674,582644.2999999523,7734,WL,C,4.0
4,7.4649999141693115,learn,52535.00008583069,Tue Jan 13 2026 10:06:14 GMT-0600 (Central Standard Time),584644.4000000954,A,c,O,c,228,1,233.40000009536743,584411.0,7734,WL,C,5.0
4,7.598999977111816,learn,52401.00002288818,Tue Jan 13 2026 10:06:14 GMT-0600 (Central Standard Time),584778.0,A,co,O,o,128,1,367.0,584411.0,7734,WL,C,5.0
4,7.799999952316284,learn,52200.000047683716,Tue Jan 13 2026 10:06:14 GMT-0600 (Central Standard Time),584979.2999999523,A,cor,O,r,188,1,568.2999999523163,584411.0,7734,WL,C,5.0
4,8.02999997138977,learn,51970.00002861023,Tue Jan 13 2026 10:06:14 GMT-0600 (Central Standard Time),585209.2000000477,A,corn,O,n,218,1,798.2000000476837,584411.0,7734,WL,C,5.0
4,8.447999954223633,learn,51552.00004577637,Tue Jan 13 2026 10:06:14 GMT-0600 (Central Standard Time),585626.5,A,cornenter,O,enter,412,1,1215.5,584411.0,7734,WL,C,5.0
4,8.813999891281128,learn,51186.00010871887,Tue Jan 13 2026 10:06:14 GMT-0600 (Central Standard Time),585993.0999999046,A,s,O,s,356,1,366.39999985694885,585626.7000000477,7734,WL,C,6.0
4,8.964999914169312,learn,51035.00008583069,Tue Jan 13 2026 10:06:14 GMT-0600 (Central Standard Time),586143.5999999046,A,su,O,u,133,1,516.8999998569489,585626.7000000477,7734,WL,C,6.0
4,9.197999954223633,learn,50802.00004577637,Tue Jan 13 2026 10:06:14 GMT-0600 (Central Standard Time),586377.0,A,sug,O,g,216,1,750.2999999523163,585626.7000000477,7734,WL,C,6.0
4,9.414000034332275,learn,50585.999965667725,Tue Jan 13 2026 10:06:14 GMT-0600 (Central Standard Time),586593.5,A,suga,O,a,205,1,966.7999999523163,585626.7000000477,7734,WL,C,6.0
4,9.63100004196167,learn,50368.99995803833,Tue Jan 13 2026 10:06:14 GMT-0600 (Central Standard Time),586810.4000000954,A,sugar,O,r,211,1,1183.7000000476837,585626.7000000477,7734,WL,C,6.0
4,9.930999994277954,learn,50069.000005722046,Tue Jan 13 2026 10:06:14 GMT-0600 (Central Standard Time),587109.5,A,sugarenter,O,enter,286,1,1482.7999999523163,585626.7000000477,7734,WL,C,6.0
4,10.683000087738037,learn,49316.99991226196,Tue Jan 13 2026 10:06:14 GMT-0600 (Central Standard Time),587861.5,A,c,O,c,738,1,751.7999999523163,587109.7000000477,7734,WL,C,7.0
4,10.879999876022339,learn,49120.00012397766,Tue Jan 13 2026 10:06:14 GMT-0600 (Central Standard Time),588059.2999999523,A,ca,O,a,184,1,949.5999999046326,587109.7000000477,7734,WL,C,7.0
4,11.079999923706055,learn,48920.000076293945,Tue Jan 13 2026 10:06:14 GMT-0600 (Central Standard Time),588258.7999999523,A,cam,O,m,185,1,1149.0999999046326,587109.7000000477,7734,WL,C,7.0
4,11.348000049591064,learn,48651.999950408936,Tue Jan 13 2026 10:06:14 GMT-0600 (Central Standard Time),588526.5,A,camp,O,p,263,1,1416.7999999523163,587109.7000000477,7734,WL,C,7.0
4,11.746000051498413,learn,48253.99994850159,Tue Jan 13 2026 10:06:14 GMT-0600 (Central Standard Time),588925.0,A,campenter,O,enter,382,1,1815.2999999523163,587109.7000000477,7734,WL,C,7.0
4,12.132999897003174,learn,47867.000102996826,Tue Jan 13 2026 10:06:14 GMT-0600 (Central Standard Time),589311.5999999046,A,f,O,f,370,1,386.5,588925.0999999046,7734,WL,C,8.0
4,12.27999997138977,learn,47720.00002861023,Tue Jan 13 2026 10:06:14 GMT-0600 (Central Standard Time),589458.7999999523,A,fl,O,l,125,1,533.7000000476837,588925.0999999046,7734,WL,C,8.0
4,12.431999921798706,learn,47568.000078201294,Tue Jan 13 2026 10:06:14 GMT-0600 (Central Standard Time),589610.7999999523,A,fla,O,a,129,1,685.7000000476837,588925.0999999046,7734,WL,C,8.0
4,12.698999881744385,learn,47301.000118255615,Tue Jan 13 2026 10:06:14 GMT-0600 (Central Standard Time),589878.0,A,flag,O,g,249,1,952.9000000953674,588925.0999999046,7734,WL,C,8.0
4,13.013999938964844,learn,46986.000061035156,Tue Jan 13 2026 10:06:14 GMT-0600 (Central Standard Time),590192.5,A,flagenter,O,enter,295,1,1267.4000000953674,588925.0999999046,7734,WL,C,8.0
4,21.625,learn,38375.0,Tue Jan 13 2026 10:06:14 GMT-0600 (Central Standard Time),598804.7999999523,A,n,O,n,8598,1,8612.0,590192.7999999523,7734,WL,C,9.0
4,21.776000022888184,learn,38223.99997711182,Tue Jan 13 2026 10:06:14 GMT-0600 (Central Standard Time),598955.9000000954,A,na,O,a,147,1,8763.100000143051,590192.7999999523,7734,WL,C,9.0
4,21.925999879837036,learn,38074.000120162964,Tue Jan 13 2026 10:06:14 GMT-0600 (Central Standard Time),599106.2000000477,A,nai,O,i,141,1,8913.400000095367,590192.7999999523,7734,WL,C,9.0
4,22.16000008583069,learn,37839.99991416931,Tue Jan 13 2026 10:06:14 GMT-0600 (Central Standard Time),599340.2000000477,A,nail,O,l,217,1,9147.400000095367,590192.7999999523,7734,WL,C,9.0
4,22.424999952316284,learn,37575.000047683716,Tue Jan 13 2026 10:06:14 GMT-0600 (Central Standard Time),599605.5,A,nailenter,O,enter,258,1,9412.700000047684,590192.7999999523,7734,WL,C,9.0
4,24.191999912261963,learn,35808.00008773804,Tue Jan 13 2026 10:06:14 GMT-0600 (Central Standard Time),601372.2000000477,A,l,O,l,1751,1,1766.4000000953674,599605.7999999523,7734,WL,C,10.0
4,24.407999992370605,learn,35592.000007629395,Tue Jan 13 2026 10:06:14 GMT-0600 (Central Standard Time),601588.0999999046,A,le,O,e,204,1,1982.2999999523163,599605.7999999523,7734,WL,C,10.0
4,24.675999879837036,learn,35324.000120162964,Tue Jan 13 2026 10:06:14 GMT-0600 (Central Standard Time),601855.7000000477,A,let,O,t,253,1,2249.9000000953674,599605.7999999523,7734,WL,C,10.0
4,24.825000047683716,learn,35174.999952316284,Tue Jan 13 2026 10:06:14 GMT-0600 (Central Standard Time),602005.2000000477,A,lett,O,t,134,1,2399.4000000953674,599605.7999999523,7734,WL,C,10.0
4,25.092000007629395,learn,34907.999992370605,Tue Jan 13 2026 10:06:14 GMT-0600 (Central Standard Time),602272.5999999046,A,lette,O,e,247,1,2666.7999999523163,599605.7999999523,7734,WL,C,10.0
4,25.292999982833862,learn,34707.00001716614,Tue Jan 13 2026 10:06:14 GMT-0600 (Central Standard Time),602473.2000000477,A,letter,O,r,191,1,2867.4000000953674,599605.7999999523,7734,WL,C,10.0
4,25.54099988937378,learn,34459.00011062622,Tue Jan 13 2026 10:06:14 GMT-0600 (Central Standard Time),602721.2999999523,A,letterenter,O,enter,237,1,3115.5,599605.7999999523,7734,WL,C,10.0
4,31.16100001335144,learn,28838.99998664856,Tue Jan 13 2026 10:06:14 GMT-0600 (Central Standard Time),608341.2999999523,A,f,O,f,5615,1,5619.700000047684,602721.5999999046,7734,WL,C,11.0
4,31.32200002670288,learn,28677.99997329712,Tue Jan 13 2026 10:06:14 GMT-0600 (Central Standard Time),608502.0999999046,A,fl,O,l,141,1,5780.5,602721.5999999046,7734,WL,C,11.0
4,31.471999883651733,learn,28528.000116348267,Tue Jan 13 2026 10:06:14 GMT-0600 (Central Standard Time),608652.4000000954,A,fla,O,a,134,1,5930.800000190735,602721.5999999046,7734,WL,C,11.0
4,31.67199993133545,learn,28328.00006866455,Tue Jan 13 2026 10:06:14 GMT-0600 (Central Standard Time),608852.4000000954,A,flag,O,g,194,1,6130.800000190735,602721.5999999046,7734,WL,C,11.0
4,31.905999898910522,learn,28094.000101089478,Tue Jan 13 2026 10:06:14 GMT-0600 (Central Standard Time),609086.0999999046,A,flagenter,O,enter,221,1,6364.5,602721.5999999046,7734,WL,C,11.0
4,40.05299997329712,learn,19947.00002670288,Tue Jan 13 2026 10:06:14 GMT-0600 (Central Standard Time),617233.0,A,d,O,d,8136,1,8146.700000047684,609086.2999999523,7734,WL,C,12.0
4,40.236000061035156,learn,19763.999938964844,Tue Jan 13 2026 10:06:14 GMT-0600 (Central Standard Time),617416.0999999046,A,do,O,o,163,1,8329.799999952316,609086.2999999523,7734,WL,C,12.0
4,40.38700008392334,learn,19612.99991607666,Tue Jan 13 2026 10:06:14 GMT-0600 (Central Standard Time),617567.2000000477,A,doc,O,c,132,1,8480.900000095367,609086.2999999523,7734,WL,C,12.0
4,40.670000076293945,learn,19329.999923706055,Tue Jan 13 2026 10:06:14 GMT-0600 (Central Standard Time),617850.0,A,doct,O,t,268,1,8763.700000047684,609086.2999999523,7734,WL,C,12.0
4,40.819000005722046,learn,19180.999994277954,Tue Jan 13 2026 10:06:14 GMT-0600 (Central Standard Time),617999.2999999523,A,docto,O,o,131,1,8913.0,609086.2999999523,7734,WL,C,12.0
4,40.93599987030029,learn,19064.000129699707,Tue Jan 13 2026 10:06:14 GMT-0600 (Central Standard Time),618116.0,A,doctor,O,r,108,1,9029.700000047684,609086.2999999523,7734,WL,C,12.0
4,41.168999910354614,learn,18831.000089645386,Tue Jan 13 2026 10:06:14 GMT-0600 (Central Standard Time),618349.4000000954,A,doctorenter,O,enter,213,1,9263.100000143051,609086.2999999523,7734,WL,C,12.0
4,49.97000002861023,learn,10029.99997138977,Tue Jan 13 2026 10:06:14 GMT-0600 (Central Standard Time),627150.0,A,f,O,f,8786,1,8800.299999952316,618349.7000000477,7734,WL,C,13.0
4,50.21600008010864,learn,9783.999919891357,Tue Jan 13 2026 10:06:14 GMT-0600 (Central Standard Time),627396.5,A,fl,O,l,230,1,9046.799999952316,618349.7000000477,7734,WL,C,13.0
4,50.382999897003174,learn,9617.000102996826,Tue Jan 13 2026 10:06:14 GMT-0600 (Central Standard Time),627562.9000000954,A,fla,O,a,148,1,9213.200000047684,618349.7000000477,7734,WL,C,13.0
4,50.61699986457825,learn,9383.000135421753,Tue Jan 13 2026 10:06:14 GMT-0600 (Central Standard Time),627797.2000000477,A,flag,O,g,225,1,9447.5,618349.7000000477,7734,WL,C,13.0
4,50.8510000705719,learn,9148.9999294281,Tue Jan 13 2026 10:06:14 GMT-0600 (Central Standard Time),628030.5999999046,A,flagenter,O,enter,215,1,9680.899999856949,618349.7000000477,7734,WL,C,13.0
4,51.18599987030029,learn,8814.000129699707,Tue Jan 13 2026 10:06:14 GMT-0600 (Central Standard Time),628365.9000000954,A,c,O,c,329,1,334.90000009536743,628031.0,7734,WL,C,14.0
4,51.365999937057495,learn,8634.000062942505,Tue Jan 13 2026 10:06:14 GMT-0600 (Central Standard Time),628545.9000000954,A,ca,O,a,162,1,514.9000000953674,628031.0,7734,WL,C,14.0
4,51.53399991989136,learn,8466.000080108643,Tue Jan 13 2026 10:06:14 GMT-0600 (Central Standard Time),628714.7000000477,A,cam,O,m,154,1,683.7000000476837,628031.0,7734,WL,C,14.0
4,51.81599998474121,learn,8184.000015258789,Tue Jan 13 2026 10:06:14 GMT-0600 (Central Standard Time),628995.7000000477,A,camp,O,p,265,1,964.7000000476837,628031.0,7734,WL,C,14.0
4,52.16599988937378,learn,7834.000110626221,Tue Jan 13 2026 10:06:14 GMT-0600 (Central Standard Time),629346.0,A,campenter,O,enter,336,1,1315.0,628031.0,7734,WL,C,14.0
4,54.71499991416931,learn,5285.0000858306885,Tue Jan 13 2026 10:06:14 GMT-0600 (Central Standard Time),631895.2000000477,A,b,O,b,2532,1,2549.0,629346.2000000477,7734,WL,C,15.0
4,54.914000034332275,learn,5085.999965667725,Tue Jan 13 2026 10:06:14 GMT-0600 (Central Standard Time),632094.5999999046,A,bo,O,o,179,1,2748.399999856949,629346.2000000477,7734,WL,C,15.0
4,55.23300004005432,learn,4766.999959945679,Tue Jan 13 2026 10:06:14 GMT-0600 (Central Standard Time),632412.7000000477,A,boy,O,y,302,1,3066.5,629346.2000000477,7734,WL,C,15.0
4,55.598999977111816,learn,4401.000022888184,Tue Jan 13 2026 10:06:14 GMT-0600 (Central Standard Time),632778.7999999523,A,boyenter,O,enter,357,1,3432.5999999046326,629346.2000000477,7734,WL,C,15.0
5,1.3819999694824219,learn,60000.0,Tue Jan 13 2026 10:06:14 GMT-0600 (Central Standard Time),709620.0,A,c,O,c,1367,1,1381.5,708238.5,7734,WL,C,1.0
5,1.6490001678466797,learn,60000.0,Tue Jan 13 2026 10:06:14 GMT-0600 (Central Standard Time),709887.5,A,ca,O,a,251,1,1649.0,708238.5,7734,WL,C,1.0
5,1.933000087738037,learn,60000.0,Tue Jan 13 2026 10:06:14 GMT-0600 (Central Standard Time),710171.2000000477,A,cat,O,t,277,1,1932.7000000476837,708238.5,7734,WL,C,1.0
5,2.117000102996826,learn,60000.0,Tue Jan 13 2026 10:06:14 GMT-0600 (Central Standard Time),710354.7999999523,A,catt,O,t,179,1,2116.2999999523163,708238.5,7734,WL,C,1.0
5,2.3320000171661377,learn,60000.0,Tue Jan 13 2026 10:06:14 GMT-0600 (Central Standard Time),710570.5999999046,A,cattl,O,l,196,1,2332.0999999046326,708238.5,7734,WL,C,1.0
5,2.499000072479248,learn,60000.0,Tue Jan 13 2026 10:06:14 GMT-0600 (Central Standard Time),710737.7000000477,A,cattle,O,e,153,1,2499.2000000476837,708238.5,7734,WL,C,1.0
5,2.748000144958496,learn,60000.0,Tue Jan 13 2026 10:06:14 GMT-0600 (Central Standard Time),710986.2999999523,A,cattleenter,O,enter,228,1,2747.7999999523163,708238.5,7734,WL,C,1.0
5,3.0,learn,60000.0,Tue Jan 13 2026 10:06:14 GMT-0600 (Central Standard Time),711238.2999999523,A,s,O,s,246,1,251.70000004768372,710986.5999999046,7734,WL,C,2.0
5,3.199000120162964,learn,60000.0,Tue Jan 13 2026 10:06:14 GMT-0600 (Central Standard Time),711436.7999999523,A,sh,O,h,189,1,450.2000000476837,710986.5999999046,7734,WL,C,2.0
5,3.3329999446868896,learn,60000.0,Tue Jan 13 2026 10:06:14 GMT-0600 (Central Standard Time),711571.2999999523,A,sho,O,o,131,1,584.7000000476837,710986.5999999046,7734,WL,C,2.0
5,3.5310001373291016,learn,60000.0,Tue Jan 13 2026 10:06:14 GMT-0600 (Central Standard Time),711769.0999999046,A,shor,O,r,184,1,782.5,710986.5999999046,7734,WL,C,2.0
5,3.7990000247955322,learn,60000.0,Tue Jan 13 2026 10:06:14 GMT-0600 (Central Standard Time),712037.2999999523,A,shore,O,e,259,1,1050.7000000476837,710986.5999999046,7734,WL,C,2.0
5,4.016000032424927,learn,60000.0,Tue Jan 13 2026 10:06:14 GMT-0600 (Central Standard Time),712254.2000000477,A,shoreenter,O,enter,202,1,1267.6000001430511,710986.5999999046,7734,WL,C,2.0
5,5.331000089645386,learn,60000.0,Tue Jan 13 2026 10:06:14 GMT-0600 (Central Standard Time),713569.0999999046,A,b,O,b,1295,1,1314.5,712254.5999999046,7734,WL,C,3.0
5,5.515000104904175,learn,60000.0,Tue Jan 13 2026 10:06:14 GMT-0600 (Central Standard Time),713753.0999999046,A,bo,O,o,165,1,1498.5,712254.5999999046,7734,WL,C,3.0
5,5.797000169754028,learn,60000.0,Tue Jan 13 2026 10:06:14 GMT-0600 (Central Standard Time),714035.2999999523,A,boy,O,y,276,1,1780.7000000476837,712254.5999999046,7734,WL,C,3.0
5,6.814000129699707,learn,60000.0,Tue Jan 13 2026 10:06:14 GMT-0600 (Central Standard Time),715052.2000000477,A,boyenter,O,enter,1004,1,2797.600000143051,712254.5999999046,7734,WL,C,3.0
5,7.531000137329102,learn,60000.0,Tue Jan 13 2026 10:06:14 GMT-0600 (Central Standard Time),715768.9000000954,A,h,O,h,698,1,716.5,715052.4000000954,7734,WL,C,4.0
5,7.79800009727478,learn,60000.0,Tue Jan 13 2026 10:06:14 GMT-0600 (Central Standard Time),716036.5,A,ho,O,o,255,1,984.0999999046326,715052.4000000954,7734,WL,C,4.0
5,7.996999979019165,learn,60000.0,Tue Jan 13 2026 10:06:14 GMT-0600 (Central Standard Time),716235.2999999523,A,hom,O,m,176,1,1182.8999998569489,715052.4000000954,7734,WL,C,4.0
5,8.182000160217285,learn,60000.0,Tue Jan 13 2026 10:06:14 GMT-0600 (Central Standard Time),716420.5999999046,A,home,O,e,170,1,1368.1999998092651,715052.4000000954,7734,WL,C,4.0
5,8.397000074386597,learn,60000.0,Tue Jan 13 2026 10:06:14 GMT-0600 (Central Standard Time),716634.9000000954,A,homeenter,O,enter,206,1,1582.5,715052.4000000954,7734,WL,C,4.0
5,8.695000171661377,learn,60000.0,Tue Jan 13 2026 10:06:14 GMT-0600 (Central Standard Time),716934.7000000477,A,c,O,c,282,1,299.5,716635.2000000477,7734,WL,C,5.0
5,8.88100004196167,learn,60000.0,Tue Jan 13 2026 10:06:14 GMT-0600 (Central Standard Time),717119.9000000954,A,ca,O,a,168,1,484.7000000476837,716635.2000000477,7734,WL,C,5.0
5,9.046000003814697,learn,60000.0,Tue Jan 13 2026 10:06:14 GMT-0600 (Central Standard Time),717285.0999999046,A,cam,O,m,150,1,649.8999998569489,716635.2000000477,7734,WL,C,5.0
5,9.278000116348267,learn,60000.0,Tue Jan 13 2026 10:06:14 GMT-0600 (Central Standard Time),717517.2000000477,A,camp,O,p,216,1,882.0,716635.2000000477,7734,WL,C,5.0
5,9.781000137329102,learn,60000.0,Tue Jan 13 2026 10:06:14 GMT-0600 (Central Standard Time),718020.0,A,campenter,O,enter,498,1,1384.7999999523163,716635.2000000477,7734,WL,C,5.0
5,10.511000156402588,learn,60000.0,Tue Jan 13 2026 10:06:14 GMT-0600 (Central Standard Time),718750.2999999523,A,l,O,l,713,1,730.0,718020.2999999523,7734,WL,C,6.0
5,10.611999988555908,learn,60000.0,Tue Jan 13 2026 10:06:14 GMT-0600 (Central Standard Time),718851.7000000477,A,le,O,e,97,1,831.4000000953674,718020.2999999523,7734,WL,C,6.0
5,10.945000171661377,learn,60000.0,Tue Jan 13 2026 10:06:14 GMT-0600 (Central Standard Time),719184.5999999046,A,let,O,t,322,1,1164.2999999523163,718020.2999999523,7734,WL,C,6.0
5,11.110000133514404,learn,60000.0,Tue Jan 13 2026 10:06:14 GMT-0600 (Central Standard Time),719349.2999999523,A,lett,O,t,155,1,1329.0,718020.2999999523,7734,WL,C,6.0
5,11.294000148773193,learn,60000.0,Tue Jan 13 2026 10:06:14 GMT-0600 (Central Standard Time),719533.5,A,lette,O,e,169,1,1513.2000000476837,718020.2999999523,7734,WL,C,6.0
5,11.511000156402588,learn,60000.0,Tue Jan 13 2026 10:06:14 GMT-0600 (Central Standard Time),719750.5,A,letter,O,r,209,1,1730.2000000476837,718020.2999999523,7734,WL,C,6.0
5,11.795000076293945,learn,60000.0,Tue Jan 13 2026 10:06:14 GMT-0600 (Central Standard Time),720034.4000000954,A,letterenter,O,enter,272,1,2014.1000001430511,718020.2999999523,7734,WL,C,6.0
5,15.460000038146973,learn,60000.0,Tue Jan 13 2026 10:06:14 GMT-0600 (Central Standard Time),723699.5999999046,A,t,O,t,3645,1,3665.0999999046326,720034.5,7734,WL,C,7.0
5,15.627000093460083,learn,60000.0,Tue Jan 13 2026 10:06:14 GMT-0600 (Central Standard Time),723866.5,A,to,O,o,163,1,3832.0,720034.5,7734,WL,C,7.0
5,15.761000156402588,learn,60000.0,Tue Jan 13 2026 10:06:14 GMT-0600 (Central Standard Time),724000.2000000477,A,tow,O,w,115,1,3965.7000000476837,720034.5,7734,WL,C,7.0
5,15.993000030517578,learn,60000.0,Tue Jan 13 2026 10:06:14 GMT-0600 (Central Standard Time),724232.4000000954,A,towe,O,e,220,1,4197.900000095367,720034.5,7734,WL,C,7.0
5,16.16000008583069,learn,60000.0,Tue Jan 13 2026 10:06:14 GMT-0600 (Central Standard Time),724399.2999999523,A,tower,O,r,154,1,4364.799999952316,720034.5,7734,WL,C,7.0
5,16.41000008583069,learn,60000.0,Tue Jan 13 2026 10:06:14 GMT-0600 (Central Standard Time),724649.2000000477,A,towerenter,O,enter,231,1,4614.700000047684,720034.5,7734,WL,C,7.0
5,16.608999967575073,learn,60000.0,Tue Jan 13 2026 10:06:14 GMT-0600 (Central Standard Time),724848.7999999523,A,q,O,q,189,1,199.39999985694885,724649.4000000954,7734,WL,C,8.0
5,16.795000076293945,learn,60000.0,Tue Jan 13 2026 10:06:14 GMT-0600 (Central Standard Time),725034.4000000954,A,qu,O,u,171,1,385.0,724649.4000000954,7734,WL,C,8.0
5,17.026000022888184,learn,60000.0,Tue Jan 13 2026 10:06:14 GMT-0600 (Central Standard Time),725265.0999999046,A,que,O,e,208,1,615.6999998092651,724649.4000000954,7734,WL,C,8.0
5,17.177000045776367,learn,60000.0,Tue Jan 13 2026 10:06:14 GMT-0600 (Central Standard Time),725415.9000000954,A,quee,O,e,132,1,766.5,724649.4000000954,7734,WL,C,8.0
5,17.37600016593933,learn,60000.0,Tue Jan 13 2026 10:06:14 GMT-0600 (Central Standard Time),725615.7999999523,A,queen,O,n,190,1,966.3999998569489,724649.4000000954,7734,WL,C,8.0
5,17.676000118255615,learn,60000.0,Tue Jan 13 2026 10:06:14 GMT-0600 (Central Standard Time),725915.2999999523,A,queenenter,O,enter,293,1,1265.8999998569489,724649.4000000954,7734,WL,C,8.0
5,19.22699999809265,learn,60000.0,Tue Jan 13 2026 10:06:14 GMT-0600 (Central Standard Time),727466.5999999046,A,n,O,n,1533,1,1551.1999998092651,725915.4000000954,7734,WL,C,9.0
5,19.375,learn,60000.0,Tue Jan 13 2026 10:06:14 GMT-0600 (Central Standard Time),727614.7000000477,A,na,O,a,135,1,1699.2999999523163,725915.4000000954,7734,WL,C,9.0
5,19.54100012779236,learn,60000.0,Tue Jan 13 2026 10:06:14 GMT-0600 (Central Standard Time),727780.7999999523,A,nai,O,i,142,1,1865.3999998569489,725915.4000000954,7734,WL,C,9.0
5,19.723999977111816,learn,60000.0,Tue Jan 13 2026 10:06:14 GMT-0600 (Central Standard Time),727963.5999999046,A,nail,O,l,166,1,2048.199999809265,725915.4000000954,7734,WL,C,9.0
5,20.074000120162964,learn,60000.0,Tue Jan 13 2026 10:06:14 GMT-0600 (Central Standard Time),728313.7000000477,A,nailenter,O,enter,339,1,2398.2999999523163,725915.4000000954,7734,WL,C,9.0
5,39.36899995803833,learn,60000.0,Tue Jan 13 2026 10:06:14 GMT-0600 (Central Standard Time),747608.9000000954,A,enter,O,enter,19276,1,19294.900000095367,728314.0,7734,WL,C,10.0
5,40.085999965667725,learn,60000.0,Tue Jan 13 2026 10:06:14 GMT-0600 (Central Standard Time),748325.0,A,enter,O,enter,700,1,715.7999999523163,747609.2000000477,7734,WL,C,11.0
5,40.569000005722046,learn,60000.0,Tue Jan 13 2026 10:06:14 GMT-0600 (Central Standard Time),748808.4000000954,A,enter,O,enter,464,1,483.0,748325.4000000954,7734,WL,C,12.0
5,40.96900010108948,learn,60000.0,Tue Jan 13 2026 10:06:14 GMT-0600 (Central Standard Time),749208.2000000477,A,enter,O,enter,389,1,399.5,748808.7000000477,7734,WL,C,13.0
5,41.36899995803833,learn,60000.0,Tue Jan 13 2026 10:06:14 GMT-0600 (Central Standard Time),749608.0,A,enter,O,enter,389,1,399.59999990463257,749208.4000000954,7734,WL,C,14.0
5,41.901999950408936,learn,60000.0,Tue Jan 13 2026 10:06:14 GMT-0600 (Central Standard Time),750141.2999999523,A,enter,O,enter,518,1,533.0,749608.2999999523,7734,WL,C,15.0
6,0.9360001087188721,distr,59063.99989128113,Tue Jan 13 2026 10:06:14 GMT-0600 (Central Standard Time),838015.2000000477,B,m,O,m,915,1,935.1000001430511,837080.0999999046,7734,WL,C,1.0
6,1.1490001678466797,distr,58850.99983215332,Tue Jan 13 2026 10:06:14 GMT-0600 (Central Standard Time),838229.0,B,mo,O,o,206,1,1148.9000000953674,837080.0999999046,7734,WL,C,1.0
6,1.2829999923706055,distr,58717.000007629395,Tue Jan 13 2026 10:06:14 GMT-0600 (Central Standard Time),838362.7999999523,B,mon,O,n,120,1,1282.7000000476837,837080.0999999046,7734,WL,C,1.0
6,1.5160000324249268,distr,58483.99996757507,Tue Jan 13 2026 10:06:14 GMT-0600 (Central Standard Time),838595.2000000477,B,mone,O,e,217,1,1515.1000001430511,837080.0999999046,7734,WL,C,1.0
6,1.749000072479248,distr,58250.99992752075,Tue Jan 13 2026 10:06:14 GMT-0600 (Central Standard Time),838828.5,B,money,O,y,227,1,1748.4000000953674,837080.0999999046,7734,WL,C,1.0
6,2.2170000076293945,distr,57782.999992370605,Tue Jan 13 2026 10:06:14 GMT-0600 (Central Standard Time),839296.2000000477,B,moneyenter,O,enter,450,1,2216.100000143051,837080.0999999046,7734,WL,C,1.0
6,2.9160001277923584,distr,57083.99987220764,Tue Jan 13 2026 10:06:14 GMT-0600 (Central Standard Time),839995.7999999523,B,h,O,h,687,1,699.2999999523163,839296.5,7734,WL,C,2.0
6,3.116000175476074,distr,56883.999824523926,Tue Jan 13 2026 10:06:14 GMT-0600 (Central Standard Time),840196.0,B,ho,O,o,192,1,899.5,839296.5,7734,WL,C,2.0
6,3.432000160217285,distr,56567.999839782715,Tue Jan 13 2026 10:06:14 GMT-0600 (Central Standard Time),840511.5,B,hot,O,t,295,1,1215.0,839296.5,7734,WL,C,2.0
6,3.6649999618530273,distr,56335.00003814697,Tue Jan 13 2026 10:06:14 GMT-0600 (Central Standard Time),840744.5,B,hote,O,e,220,1,1448.0,839296.5,7734,WL,C,2.0
6,3.883000135421753,distr,56116.99986457825,Tue Jan 13 2026 10:06:14 GMT-0600 (Central Standard Time),840962.4000000954,B,hoteenter,O,enter,193,1,1665.9000000953674,839296.5,7734,WL,C,2.0
6,5.315999984741211,distr,54684.00001525879,Tue Jan 13 2026 10:06:14 GMT-0600 (Central Standard Time),842395.7000000477,B,h,O,h,1421,1,1433.1000001430511,840962.5999999046,7734,WL,C,3.0
6,5.582000017166138,distr,54417.99998283386,Tue Jan 13 2026 10:06:14 GMT-0600 (Central Standard Time),842661.7000000477,B,ho,O,o,260,1,1699.1000001430511,840962.5999999046,7734,WL,C,3.0
6,5.799000024795532,distr,54200.99997520447,Tue Jan 13 2026 10:06:14 GMT-0600 (Central Standard Time),842878.4000000954,B,hot,O,t,198,1,1915.8000001907349,840962.5999999046,7734,WL,C,3.0
6,5.981000185012817,distr,54018.99981498718,Tue Jan 13 2026 10:06:14 GMT-0600 (Central Standard Time),843061.0,B,hote,O,e,161,1,2098.4000000953674,840962.5999999046,7734,WL,C,3.0
6,6.13100004196167,distr,53868.99995803833,Tue Jan 13 2026 10:06:14 GMT-0600 (Central Standard Time),843211.0,B,hotel,O,l,135,1,2248.4000000953674,840962.5999999046,7734,WL,C,3.0
6,6.465000152587891,distr,53534.99984741211,Tue Jan 13 2026 10:06:14 GMT-0600 (Central Standard Time),843544.7999999523,B,hotelenter,O,enter,322,1,2582.2000000476837,840962.5999999046,7734,WL,C,3.0
6,8.131999969482422,distr,51868.00003051758,Tue Jan 13 2026 10:06:14 GMT-0600 (Central Standard Time),845211.2999999523,B,d,O,d,1662,1,1666.0999999046326,843545.2000000477,7734,WL,C,4.0
6,8.348999977111816,distr,51651.00002288818,Tue Jan 13 2026 10:06:14 GMT-0600 (Central Standard Time),845429.0,B,do,O,o,209,1,1883.7999999523163,843545.2000000477,7734,WL,C,4.0
6,8.63100004196167,distr,51368.99995803833,Tue Jan 13 2026 10:06:14 GMT-0600 (Central Standard Time),845710.5999999046,B,dol,O,l,264,1,2165.399999856949,843545.2000000477,7734,WL,C,4.0
6,8.782999992370605,distr,51217.000007629395,Tue Jan 13 2026 10:06:14 GMT-0600 (Central Standard Time),845862.2000000477,B,doll,O,l,131,1,2317.0,843545.2000000477,7734,WL,C,4.0
6,8.930999994277954,distr,51069.000005722046,Tue Jan 13 2026 10:06:14 GMT-0600 (Central Standard Time),846010.7000000477,B,dolla,O,a,136,1,2465.5,843545.2000000477,7734,WL,C,4.0
6,9.148000001907349,distr,50851.99999809265,Tue Jan 13 2026 10:06:14 GMT-0600 (Central Standard Time),846227.5,B,dollar,O,r,203,1,2682.2999999523163,843545.2000000477,7734,WL,C,4.0
6,9.331000089645386,distr,50668.999910354614,Tue Jan 13 2026 10:06:14 GMT-0600 (Central Standard Time),846410.5999999046,B,dollarenter,O,enter,176,1,2865.399999856949,843545.2000000477,7734,WL,C,4.0
6,9.647000074386597,distr,50352.9999256134,Tue Jan 13 2026 10:06:14 GMT-0600 (Central Standard Time),846727.0,B,m,O,m,307,1,316.09999990463257,846410.9000000954,7734,WL,C,5.0
6,9.79800009727478,distr,50201.99990272522,Tue Jan 13 2026 10:06:14 GMT-0600 (Central Standard Time),846877.4000000954,B,me,O,e,142,1,466.5,846410.9000000954,7734,WL,C,5.0
6,9.996999979019165,distr,50003.000020980835,Tue Jan 13 2026 10:06:14 GMT-0600 (Central Standard Time),847076.5999999046,B,mea,O,a,184,1,665.6999998092651,846410.9000000954,7734,WL,C,5.0
6,10.213000059127808,distr,49786.99994087219,Tue Jan 13 2026 10:06:14 GMT-0600 (Central Standard Time),847292.7999999523,B,meat,O,t,202,1,881.8999998569489,846410.9000000954,7734,WL,C,5.0
6,10.598000049591064,distr,49401.999950408936,Tue Jan 13 2026 10:06:14 GMT-0600 (Central Standard Time),847677.9000000954,B,meatenter,O,enter,375,1,1267.0,846410.9000000954,7734,WL,C,5.0
6,15.17900013923645,distr,44820.99986076355,Tue Jan 13 2026 10:06:14 GMT-0600 (Central Standard Time),852258.7000000477,B,s,O,s,4568,1,4580.5,847678.2000000477,7734,WL,C,6.0
6,15.414999961853027,distr,44585.00003814697,Tue Jan 13 2026 10:06:14 GMT-0600 (Central Standard Time),852494.4000000954,B,sk,O,k,229,1,4816.200000047684,847678.2000000477,7734,WL,C,6.0
6,15.812000036239624,distr,44187.999963760376,Tue Jan 13 2026 10:06:14 GMT-0600 (Central Standard Time),852891.5,B,sky,O,y,384,1,5213.299999952316,847678.2000000477,7734,WL,C,6.0
6,16.19600009918213,distr,43803.99990081787,Tue Jan 13 2026 10:06:14 GMT-0600 (Central Standard Time),853275.2000000477,B,skyenter,O,enter,369,1,5597.0,847678.2000000477,7734,WL,C,6.0
6,32.44000005722046,distr,27559.99994277954,Tue Jan 13 2026 10:06:14 GMT-0600 (Central Standard Time),869519.7000000477,B,enter,O,enter,16234,1,16244.200000047684,853275.5,7734,WL,C,7.0
6,32.97200012207031,distr,27027.999877929688,Tue Jan 13 2026 10:06:14 GMT-0600 (Central Standard Time),870051.9000000954,B,enter,O,enter,528,1,532.0,869519.9000000954,7734,WL,C,8.0
6,33.40700006484985,distr,26592.999935150146,Tue Jan 13 2026 10:06:14 GMT-0600 (Central Standard Time),870486.2999999523,B,enter,O,enter,425,1,434.0,870052.2999999523,7734,WL,C,9.0
6,33.75800013542175,distr,26241.999864578247,Tue Jan 13 2026 10:06:14 GMT-0600 (Central Standard Time),870837.7000000477,B,enter,O,enter,337,1,351.0,870486.7000000477,7734,WL,C,10.0
6,34.105000019073486,distr,25894.999980926514,Tue Jan 13 2026 10:06:14 GMT-0600 (Central Standard Time),871184.7000000477,B,enter,O,enter,335,1,346.7000000476837,870838.0,7734,WL,C,11.0
6,34.47200012207031,distr,25527.999877929688,Tue Jan 13 2026 10:06:14 GMT-0600 (Central Standard Time),871551.2999999523,B,enter,O,enter,357,1,366.2999999523163,871185.0,7734,WL,C,12.0
6,34.83800005912781,distr,25161.999940872192,Tue Jan 13 2026 10:06:14 GMT-0600 (Central Standard Time),871918.0,B,enter,O,enter,350,1,366.40000009536743,871551.5999999046,7734,WL,C,13.0
6,35.223999977111816,distr,24776.000022888184,Tue Jan 13 2026 10:06:14 GMT-0600 (Central Standard Time),872303.2999999523,B,enter,O,enter,368,1,385.0,871918.2999999523,7734,WL,C,14.0
6,35.705000162124634,distr,24294.999837875366,Tue Jan 13 2026 10:06:14 GMT-0600 (Central Standard Time),872784.2999999523,B,enter,O,enter,469,1,480.7999999523163,872303.5,7734,WL,C,15.0
7,1.4829998016357422,immed,58517.00019836426,Tue Jan 13 2026 10:06:14 GMT-0600 (Central Standard Time),888313.5,A,w,O,w,1470,1,1482.2999999523163,886831.2000000477,7734,WL,C,1.0
7,1.7649998664855957,immed,58235.000133514404,Tue Jan 13 2026 10:06:14 GMT-0600 (Central Standard Time),888596.0999999046,A,wh,O,h,275,1,1764.8999998569489,886831.2000000477,7734,WL,C,1.0
7,1.9159998893737793,immed,58084.00011062622,Tue Jan 13 2026 10:06:14 GMT-0600 (Central Standard Time),888746.7000000477,A,whe,O,e,137,1,1915.5,886831.2000000477,7734,WL,C,1.0
7,2.135999917984009,immed,57864.00008201599,Tue Jan 13 2026 10:06:14 GMT-0600 (Central Standard Time),888966.2000000477,A,whea,O,a,212,1,2135.0,886831.2000000477,7734,WL,C,1.0
7,2.3999998569488525,immed,57600.00014305115,Tue Jan 13 2026 10:06:14 GMT-0600 (Central Standard Time),889230.0999999046,A,wheat,O,t,258,1,2398.899999856949,886831.2000000477,7734,WL,C,1.0
7,2.6659998893737793,immed,57334.00011062622,Tue Jan 13 2026 10:06:14 GMT-0600 (Central Standard Time),889496.2000000477,A,wheatenter,O,enter,254,1,2665.0,886831.2000000477,7734,WL,C,1.0
7,3.181999921798706,immed,56818.000078201294,Tue Jan 13 2026 10:06:14 GMT-0600 (Central Standard Time),890012.5999999046,A,c,O,c,510,1,515.7999999523163,889496.7999999523,7734,WL,C,2.0
7,3.315999984741211,immed,56684.00001525879,Tue Jan 13 2026 10:06:14 GMT-0600 (Central Standard Time),890146.5999999046,A,co,O,o,122,1,649.7999999523163,889496.7999999523,7734,WL,C,2.0
7,3.5319998264312744,immed,56468.000173568726,Tue Jan 13 2026 10:06:14 GMT-0600 (Central Standard Time),890362.5,A,cor,O,r,194,1,865.7000000476837,889496.7999999523,7734,WL,C,2.0
7,3.6989998817443848,immed,56301.000118255615,Tue Jan 13 2026 10:06:14 GMT-0600 (Central Standard Time),890529.5999999046,A,corn,O,n,153,1,1032.7999999523163,889496.7999999523,7734,WL,C,2.0
7,4.031999826431274,immed,55968.000173568726,Tue Jan 13 2026 10:06:14 GMT-0600 (Central Standard Time),890862.2999999523,A,cornenter,O,enter,315,1,1365.5,889496.7999999523,7734,WL,C,2.0
7,4.514999866485596,immed,55485.000133514404,Tue Jan 13 2026 10:06:14 GMT-0600 (Central Standard Time),891345.7999999523,A,s,O,s,464,1,483.2000000476837,890862.5999999046,7734,WL,C,3.0
7,4.681999921798706,immed,55318.000078201294,Tue Jan 13 2026 10:06:14 GMT-0600 (Central Standard Time),891512.2999999523,A,su,O,u,157,1,649.7000000476837,890862.5999999046,7734,WL,C,3.0
7,4.98199987411499,immed,55018.00012588501,Tue Jan 13 2026 10:06:14 GMT-0600 (Central Standard Time),891812.7000000477,A,sug,O,g,285,1,950.1000001430511,890862.5999999046,7734,WL,C,3.0
7,5.165999889373779,immed,54834.00011062622,Tue Jan 13 2026 10:06:14 GMT-0600 (Central Standard Time),891996.7000000477,A,suga,O,a,174,1,1134.1000001430511,890862.5999999046,7734,WL,C,3.0
7,5.398999929428101,immed,54601.0000705719,Tue Jan 13 2026 10:06:14 GMT-0600 (Central Standard Time),892229.5,A,sugar,O,r,211,1,1366.9000000953674,890862.5999999046,7734,WL,C,3.0
7,5.664999961853027,immed,54335.00003814697,Tue Jan 13 2026 10:06:14 GMT-0600 (Central Standard Time),892495.9000000954,A,sugarenter,O,enter,249,1,1633.3000001907349,890862.5999999046,7734,WL,C,3.0
7,6.983999967575073,immed,53016.00003242493,Tue Jan 13 2026 10:06:14 GMT-0600 (Central Standard Time),893814.4000000954,A,t,O,t,1313,1,1318.3000001907349,892496.0999999046,7734,WL,C,4.0
7,7.148999929428101,immed,52851.0000705719,Tue Jan 13 2026 10:06:14 GMT-0600 (Central Standard Time),893979.5999999046,A,to,O,o,150,1,1483.5,892496.0999999046,7734,WL,C,4.0
7,7.2809998989105225,immed,52719.00010108948,Tue Jan 13 2026 10:06:14 GMT-0600 (Central Standard Time),894111.5,A,tow,O,w,122,1,1615.4000000953674,892496.0999999046,7734,WL,C,4.0
7,7.513999938964844,immed,52486.000061035156,Tue Jan 13 2026 10:06:14 GMT-0600 (Central Standard Time),894344.5,A,towe,O,e,221,1,1848.4000000953674,892496.0999999046,7734,WL,C,4.0
7,7.664999961853027,immed,52335.00003814697,Tue Jan 13 2026 10:06:14 GMT-0600 (Central Standard Time),894495.5999999046,A,tower,O,r,133,1,1999.5,892496.0999999046,7734,WL,C,4.0
7,7.914999961853027,immed,52085.00003814697,Tue Jan 13 2026 10:06:14 GMT-0600 (Central Standard Time),894745.7000000477,A,towerenter,O,enter,229,1,2249.600000143051,892496.0999999046,7734,WL,C,4.0
7,8.115000009536743,immed,51884.99999046326,Tue Jan 13 2026 10:06:14 GMT-0600 (Central Standard Time),894945.2999999523,A,q,O,q,188,1,199.29999995231628,894746.0,7734,WL,C,5.0
7,8.313999891281128,immed,51686.00010871887,Tue Jan 13 2026 10:06:14 GMT-0600 (Central Standard Time),895145.0,A,qu,O,u,179,1,399.0,894746.0,7734,WL,C,5.0
7,8.547999858856201,immed,51452.0001411438,Tue Jan 13 2026 10:06:14 GMT-0600 (Central Standard Time),895378.4000000954,A,que,O,e,220,1,632.4000000953674,894746.0,7734,WL,C,5.0
7,8.697999954223633,immed,51302.00004577637,Tue Jan 13 2026 10:06:14 GMT-0600 (Central Standard Time),895528.2999999523,A,quee,O,e,140,1,782.2999999523163,894746.0,7734,WL,C,5.0
7,9.047999858856201,immed,50952.0001411438,Tue Jan 13 2026 10:06:14 GMT-0600 (Central Standard Time),895879.0,A,queen,O,n,340,1,1133.0,894746.0,7734,WL,C,5.0
7,9.429999828338623,immed,50570.00017166138,Tue Jan 13 2026 10:06:14 GMT-0600 (Central Standard Time),896260.0,A,queenenter,O,enter,367,1,1514.0,894746.0,7734,WL,C,5.0
7,9.679999828338623,immed,50320.00017166138,Tue Jan 13 2026 10:06:14 GMT-0600 (Central Standard Time),896511.0,A,b,O,b,233,1,250.70000004768372,896260.2999999523,7734,WL,C,6.0
7,9.813999891281128,immed,50186.00010871887,Tue Jan 13 2026 10:06:14 GMT-0600 (Central Standard Time),896644.2999999523,A,bo,O,o,128,1,384.0,896260.2999999523,7734,WL,C,6.0
7,10.461999893188477,immed,49538.00010681152,Tue Jan 13 2026 10:06:14 GMT-0600 (Central Standard Time),897293.5,A,boy,O,y,628,1,1033.2000000476837,896260.2999999523,7734,WL,C,6.0
7,10.813999891281128,immed,49186.00010871887,Tue Jan 13 2026 10:06:14 GMT-0600 (Central Standard Time),897644.7000000477,A,boyenter,O,enter,330,1,1384.4000000953674,896260.2999999523,7734,WL,C,6.0
7,15.878999948501587,immed,44121.00005149841,Tue Jan 13 2026 10:06:14 GMT-0600 (Central Standard Time),902710.0999999046,A,d,O,d,5062,1,5065.199999809265,897644.9000000954,7734,WL,C,7.0
7,16.143999814987183,immed,43856.00018501282,Tue Jan 13 2026 10:06:14 GMT-0600 (Central Standard Time),902975.5,A,do,O,o,247,1,5330.599999904633,897644.9000000954,7734,WL,C,7.0
7,16.276999950408936,immed,43723.000049591064,Tue Jan 13 2026 10:06:14 GMT-0600 (Central Standard Time),903107.7000000477,A,doc,O,c,126,1,5462.799999952316,897644.9000000954,7734,WL,C,7.0
7,16.561999797821045,immed,43438.000202178955,Tue Jan 13 2026 10:06:14 GMT-0600 (Central Standard Time),903393.0999999046,A,doct,O,t,267,1,5748.199999809265,897644.9000000954,7734,WL,C,7.0
7,16.727999925613403,immed,43272.0000743866,Tue Jan 13 2026 10:06:14 GMT-0600 (Central Standard Time),903558.7000000477,A,docto,O,o,156,1,5913.799999952316,897644.9000000954,7734,WL,C,7.0
7,16.8439998626709,immed,43156.0001373291,Tue Jan 13 2026 10:06:14 GMT-0600 (Central Standard Time),903674.5999999046,A,doctor,O,r,103,1,6029.699999809265,897644.9000000954,7734,WL,C,7.0
7,17.15999984741211,immed,42840.00015258789,Tue Jan 13 2026 10:06:14 GMT-0600 (Central Standard Time),903991.0999999046,A,doctorenter,O,enter,299,1,6346.199999809265,897644.9000000954,7734,WL,C,7.0
7,32.875,immed,27125.0,Tue Jan 13 2026 10:06:14 GMT-0600 (Central Standard Time),919705.7000000477,A,c,O,c,15704,1,15714.400000095367,903991.2999999523,7734,WL,C,8.0
7,33.103999853134155,immed,26896.000146865845,Tue Jan 13 2026 10:06:14 GMT-0600 (Central Standard Time),919935.5,A,ca,O,a,220,1,15944.200000047684,903991.2999999523,7734,WL,C,8.0
7,33.288999795913696,immed,26711.000204086304,Tue Jan 13 2026 10:06:14 GMT-0600 (Central Standard Time),920120.2000000477,A,cam,O,m,174,1,16128.900000095367,903991.2999999523,7734,WL,C,8.0
7,33.5719997882843,immed,26428.0002117157,Tue Jan 13 2026 10:06:14 GMT-0600 (Central Standard Time),920403.4000000954,A,camp,O,p,268,1,16412.10000014305,903991.2999999523,7734,WL,C,8.0
7,34.07299995422363,immed,25927.000045776367,Tue Jan 13 2026 10:06:14 GMT-0600 (Central Standard Time),920904.0999999046,A,campenter,O,enter,481,1,16912.799999952316,903991.2999999523,7734,WL,C,8.0
7,34.58899998664856,immed,25411.00001335144,Tue Jan 13 2026 10:06:14 GMT-0600 (Central Standard Time),921419.7999999523,A,l,O,l,503,1,515.5,920904.2999999523,7734,WL,C,9.0
7,34.82299995422363,immed,25177.000045776367,Tue Jan 13 2026 10:06:14 GMT-0600 (Central Standard Time),921654.2000000477,A,le,O,e,226,1,749.9000000953674,920904.2999999523,7734,WL,C,9.0
7,35.05499982833862,immed,24945.000171661377,Tue Jan 13 2026 10:06:14 GMT-0600 (Central Standard Time),921885.9000000954,A,let,O,t,224,1,981.6000001430511,920904.2999999523,7734,WL,C,9.0
7,35.22099995613098,immed,24779.00004386902,Tue Jan 13 2026 10:06:14 GMT-0600 (Central Standard Time),922052.0,A,lett,O,t,159,1,1147.7000000476837,920904.2999999523,7734,WL,C,9.0
7,35.355000019073486,immed,24644.999980926514,Tue Jan 13 2026 10:06:14 GMT-0600 (Central Standard Time),922186.0,A,lette,O,e,121,1,1281.7000000476837,920904.2999999523,7734,WL,C,9.0
7,35.5719997882843,immed,24428.0002117157,Tue Jan 13 2026 10:06:14 GMT-0600 (Central Standard Time),922402.7000000477,A,letter,O,r,194,1,1498.4000000953674,920904.2999999523,7734,WL,C,9.0
7,35.63699984550476,immed,24363.00015449524,Tue Jan 13 2026 10:06:14 GMT-0600 (Central Standard Time),922468.2000000477,A,letterenter,O,enter,52,1,1563.9000000953674,920904.2999999523,7734,WL,C,9.0
7,45.30399990081787,immed,14696.000099182129,Tue Jan 13 2026 10:06:14 GMT-0600 (Central Standard Time),932134.7999999523,A,enter,O,enter,9650,1,9666.299999952316,922468.5,7734,WL,C,10.0
7,45.78699994087219,immed,14213.000059127808,Tue Jan 13 2026 10:06:14 GMT-0600 (Central Standard Time),932618.0,A,enter,O,enter,464,1,482.90000009536743,932135.0999999046,7734,WL,C,11.0
7,46.2189998626709,immed,13781.000137329102,Tue Jan 13 2026 10:06:14 GMT-0600 (Central Standard Time),933050.2000000477,A,enter,O,enter,414,1,432.0,932618.2000000477,7734,WL,C,12.0
7,46.584999799728394,immed,13415.000200271606,Tue Jan 13 2026 10:06:14 GMT-0600 (Central Standard Time),933416.4000000954,A,enter,O,enter,349,1,366.0,933050.4000000954,7734,WL,C,13.0
7,46.967000007629395,immed,13032.999992370605,Tue Jan 13 2026 10:06:14 GMT-0600 (Central Standard Time),933798.0999999046,A,enter,O,enter,374,1,381.39999985694885,933416.7000000477,7734,WL,C,14.0
7,47.4689998626709,immed,12531.000137329102,Tue Jan 13 2026 10:06:14 GMT-0600 (Central Standard Time),934300.2000000477,A,enter,O,enter,497,1,501.7999999523163,933798.4000000954,7734,WL,C,15.0
