acc_sum,block,block_c,block_cond,con_img,correct,correct_response,datetime,endtime,face,jitter,line,project,response,response_time,row_sel,session_number,start_end,starttime,subject_id,task,task_vers,trial
0,prac,1,A,haborder.png,0,z,Mon May 04 2026 13:40:09 GMT-0500 (Central Daylight Time),54229.300000071526,CFD-BM-005-010-A.jpg,1600,solid,O,None,1516,2,1,3898.7000000476837,50330.60000002384,7754,ATS,A,1
0,prac,1,A,haborder.png,0,m,Mon May 04 2026 13:40:09 GMT-0500 (Central Daylight Time),58230.700000047684,CFD-WM-006-013-HC.jpg,1700,solid,O,None,1514,9,1,7900.100000023842,50330.60000002384,7754,ATS,A,2
1,prac,1,A,haborder.png,1,m,Mon May 04 2026 13:40:09 GMT-0500 (Central Daylight Time),61895.200000047684,CFD-BF-028-020-HC.jpg,2000,solid,O,m,877,5,1,11564.600000023842,50330.60000002384,7754,ATS,A,3
2,prac,1,A,haborder.png,1,m,Mon May 04 2026 13:40:09 GMT-0500 (Central Daylight Time),65443.200000047684,CFD-BM-017-052-HC.jpg,1700,solid,O,m,1058,1,1,15112.600000023842,50330.60000002384,7754,ATS,A,4
3,prac,1,A,haborder.png,1,z,Mon May 04 2026 13:40:09 GMT-0500 (Central Daylight Time),68140.5,CFD-BF-039-039-A.jpg,1200,solid,O,z,711,6,1,17809.899999976158,50330.60000002384,7754,ATS,A,5
4,prac,1,A,haborder.png,1,z,Mon May 04 2026 13:40:09 GMT-0500 (Central Daylight Time),70824.40000009537,CFD-BF-023-013-A.jpg,1000,solid,O,z,882,4,1,20493.800000071526,50330.60000002384,7754,ATS,A,6
5,prac,1,A,haborder.png,1,z,Mon May 04 2026 13:40:09 GMT-0500 (Central Daylight Time),74358.0,CFD-WM-013-015-A.jpg,1900,solid,O,z,852,8,1,24027.399999976158,50330.60000002384,7754,ATS,A,7
6,prac,1,A,haborder.png,1,z,Mon May 04 2026 13:40:09 GMT-0500 (Central Daylight Time),76790.60000002384,CFD-WF-019-015-A.jpg,1000,solid,O,z,653,12,1,26460.0,50330.60000002384,7754,ATS,A,8
7,prac,1,A,haborder.png,1,m,Mon May 04 2026 13:40:09 GMT-0500 (Central Daylight Time),79871.5,CFD-WF-017-016-HC.jpg,1500,solid,O,m,792,11,1,29540.899999976158,50330.60000002384,7754,ATS,A,9
8,prac,1,A,haborder.png,1,z,Mon May 04 2026 13:40:09 GMT-0500 (Central Daylight Time),82986.10000002384,CFD-WF-003-014-A.jpg,1600,solid,O,z,724,10,1,32655.5,50330.60000002384,7754,ATS,A,10
9,prac,1,A,haborder.png,1,m,Mon May 04 2026 13:40:09 GMT-0500 (Central Daylight Time),86171.30000007153,CFD-BM-029-026-HC.jpg,1500,solid,O,m,892,3,1,35840.700000047684,50330.60000002384,7754,ATS,A,11
10,prac,1,A,haborder.png,1,m,Mon May 04 2026 13:40:09 GMT-0500 (Central Daylight Time),88969.60000002384,CFD-WM-004-005-HC.jpg,1400,solid,O,m,600,7,1,38639.0,50330.60000002384,7754,ATS,A,12
0,prac,1,B,mfborder.png,0,z,Mon May 04 2026 13:40:09 GMT-0500 (Central Daylight Time),122957.10000002384,CFD-BF-023-013-A.jpg,1000,dash,O,None,1501,4,1,3283.6999999284744,119673.40000009537,7754,ATS,A,1
1,prac,1,B,mfborder.png,1,m,Mon May 04 2026 13:40:09 GMT-0500 (Central Daylight Time),125723.10000002384,CFD-WM-019-013-A.jpg,1200,dash,O,m,772,6,1,6049.699999928474,119673.40000009537,7754,ATS,A,2
2,prac,1,B,mfborder.png,1,m,Mon May 04 2026 13:40:09 GMT-0500 (Central Daylight Time),128972.70000004768,CFD-WM-013-015-A.jpg,1700,dash,O,m,755,9,1,9299.299999952316,119673.40000009537,7754,ATS,A,3
3,prac,1,B,mfborder.png,1,z,Mon May 04 2026 13:40:09 GMT-0500 (Central Daylight Time),131404.60000002384,CFD-WF-017-016-HC.jpg,1000,dash,O,z,638,12,1,11731.199999928474,119673.40000009537,7754,ATS,A,4
4,prac,1,B,mfborder.png,1,z,Mon May 04 2026 13:40:09 GMT-0500 (Central Daylight Time),134253.80000007153,CFD-BF-010-005-HC.jpg,1500,dash,O,z,561,3,1,14580.399999976158,119673.40000009537,7754,ATS,A,5
5,prac,1,B,mfborder.png,1,m,Mon May 04 2026 13:40:09 GMT-0500 (Central Daylight Time),137586.40000009537,CFD-BM-005-010-A.jpg,2000,dash,O,m,546,5,1,17913.0,119673.40000009537,7754,ATS,A,6
6,prac,1,B,mfborder.png,1,m,Mon May 04 2026 13:40:09 GMT-0500 (Central Daylight Time),140652.30000007153,CFD-BM-010-019-A.jpg,1600,dash,O,m,681,2,1,20978.899999976158,119673.40000009537,7754,ATS,A,7
7,prac,1,B,mfborder.png,1,z,Mon May 04 2026 13:40:09 GMT-0500 (Central Daylight Time),144235.20000004768,CFD-BF-028-020-HC.jpg,1400,dash,O,z,1398,7,1,24561.799999952316,119673.40000009537,7754,ATS,A,8
8,prac,1,B,mfborder.png,1,z,Mon May 04 2026 13:40:09 GMT-0500 (Central Daylight Time),147418.20000004768,CFD-WF-002-008-HC.jpg,1900,dash,O,z,516,8,1,27744.799999952316,119673.40000009537,7754,ATS,A,9
9,prac,1,B,mfborder.png,1,m,Mon May 04 2026 13:40:09 GMT-0500 (Central Daylight Time),150731.90000009537,CFD-BM-029-026-HC.jpg,1700,dash,O,m,823,1,1,31058.5,119673.40000009537,7754,ATS,A,10
10,prac,1,B,mfborder.png,1,z,Mon May 04 2026 13:40:09 GMT-0500 (Central Daylight Time),153714.80000007153,CFD-WF-003-014-A.jpg,1500,dash,O,z,697,11,1,34041.39999997616,119673.40000009537,7754,ATS,A,11
11,prac,1,B,mfborder.png,1,m,Mon May 04 2026 13:40:09 GMT-0500 (Central Daylight Time),156764.80000007153,CFD-WM-006-013-HC.jpg,1600,dash,O,m,679,10,1,37091.39999997616,119673.40000009537,7754,ATS,A,12
1,test,1,A,haborder.png,1,z,Mon May 04 2026 13:40:09 GMT-0500 (Central Daylight Time),174125.0,CFD-WF-019-015-A.jpg,1000,solid,O,z,672,12,1,1700.1999999284744,172424.80000007153,7754,ATS,A,1
2,test,1,A,haborder.png,1,m,Mon May 04 2026 13:40:09 GMT-0500 (Central Daylight Time),176374.30000007153,CFD-BM-017-052-HC.jpg,1700,solid,O,m,532,1,1,3949.5,172424.80000007153,7754,ATS,A,2
3,test,1,A,haborder.png,1,z,Mon May 04 2026 13:40:09 GMT-0500 (Central Daylight Time),178940.40000009537,CFD-BM-005-010-A.jpg,1600,solid,O,z,939,2,1,6515.600000023842,172424.80000007153,7754,ATS,A,3
4,test,1,A,haborder.png,1,z,Mon May 04 2026 13:40:09 GMT-0500 (Central Daylight Time),180757.60000002384,CFD-BF-039-039-A.jpg,1200,solid,O,z,588,6,1,8332.799999952316,172424.80000007153,7754,ATS,A,4
5,test,1,A,haborder.png,1,z,Mon May 04 2026 13:40:09 GMT-0500 (Central Daylight Time),182506.30000007153,CFD-WF-019-015-A.jpg,1000,solid,O,z,717,12,1,10081.5,172424.80000007153,7754,ATS,A,5
6,test,1,A,haborder.png,1,m,Mon May 04 2026 13:40:09 GMT-0500 (Central Daylight Time),184520.60000002384,CFD-WM-004-005-HC.jpg,1400,solid,O,m,592,7,1,12095.799999952316,172424.80000007153,7754,ATS,A,6
7,test,1,A,haborder.png,1,m,Mon May 04 2026 13:40:09 GMT-0500 (Central Daylight Time),186605.0,CFD-WM-004-005-HC.jpg,1400,solid,O,m,657,7,1,14180.199999928474,172424.80000007153,7754,ATS,A,7
8,test,1,A,haborder.png,1,m,Mon May 04 2026 13:40:09 GMT-0500 (Central Daylight Time),189435.5,CFD-BF-028-020-HC.jpg,2000,solid,O,m,813,5,1,17010.699999928474,172424.80000007153,7754,ATS,A,8
9,test,1,A,haborder.png,1,m,Mon May 04 2026 13:40:09 GMT-0500 (Central Daylight Time),192136.10000002384,CFD-BF-028-020-HC.jpg,2000,solid,O,m,671,5,1,19711.299999952316,172424.80000007153,7754,ATS,A,9
10,test,1,A,haborder.png,1,z,Mon May 04 2026 13:40:09 GMT-0500 (Central Daylight Time),194069.10000002384,CFD-BF-039-039-A.jpg,1200,solid,O,z,705,6,1,21644.299999952316,172424.80000007153,7754,ATS,A,10
11,test,1,A,haborder.png,1,m,Mon May 04 2026 13:40:09 GMT-0500 (Central Daylight Time),196484.90000009537,CFD-WM-006-013-HC.jpg,1700,solid,O,m,691,9,1,24060.100000023842,172424.80000007153,7754,ATS,A,11
12,test,1,A,haborder.png,1,m,Mon May 04 2026 13:40:09 GMT-0500 (Central Daylight Time),198934.40000009537,CFD-WF-017-016-HC.jpg,1500,solid,O,m,929,11,1,26509.600000023842,172424.80000007153,7754,ATS,A,12
13,test,1,A,haborder.png,1,m,Mon May 04 2026 13:40:09 GMT-0500 (Central Daylight Time),201568.10000002384,CFD-BM-017-052-HC.jpg,1700,solid,O,m,900,1,1,29143.299999952316,172424.80000007153,7754,ATS,A,13
14,test,1,A,haborder.png,1,m,Mon May 04 2026 13:40:09 GMT-0500 (Central Daylight Time),203948.0,CFD-WF-017-016-HC.jpg,1500,solid,O,m,856,11,1,31523.199999928474,172424.80000007153,7754,ATS,A,14
15,test,1,A,haborder.png,1,m,Mon May 04 2026 13:40:09 GMT-0500 (Central Daylight Time),206180.70000004768,CFD-BM-029-026-HC.jpg,1500,solid,O,m,703,3,1,33755.89999997616,172424.80000007153,7754,ATS,A,15
15,test,1,A,haborder.png,0,z,Mon May 04 2026 13:40:09 GMT-0500 (Central Daylight Time),207898.30000007153,CFD-BF-023-013-A.jpg,1000,solid,O,m,683,4,1,35473.5,172424.80000007153,7754,ATS,A,16
16,test,1,A,haborder.png,1,z,Mon May 04 2026 13:40:09 GMT-0500 (Central Daylight Time),209662.0,CFD-BF-023-013-A.jpg,1000,solid,O,z,745,4,1,37237.199999928474,172424.80000007153,7754,ATS,A,17
17,test,1,A,haborder.png,1,z,Mon May 04 2026 13:40:09 GMT-0500 (Central Daylight Time),212796.90000009537,CFD-WM-013-015-A.jpg,1900,solid,O,z,1208,8,1,40372.10000002384,172424.80000007153,7754,ATS,A,18
18,test,1,A,haborder.png,1,m,Mon May 04 2026 13:40:09 GMT-0500 (Central Daylight Time),215278.30000007153,CFD-BM-029-026-HC.jpg,1500,solid,O,m,964,3,1,42853.5,172424.80000007153,7754,ATS,A,19
19,test,1,A,haborder.png,1,z,Mon May 04 2026 13:40:09 GMT-0500 (Central Daylight Time),218178.20000004768,CFD-WM-013-015-A.jpg,1900,solid,O,z,966,8,1,45753.39999997616,172424.80000007153,7754,ATS,A,20
20,test,1,A,haborder.png,1,z,Mon May 04 2026 13:40:09 GMT-0500 (Central Daylight Time),220577.30000007153,CFD-BM-005-010-A.jpg,1600,solid,O,z,767,2,1,48152.5,172424.80000007153,7754,ATS,A,21
21,test,1,A,haborder.png,1,m,Mon May 04 2026 13:40:09 GMT-0500 (Central Daylight Time),223043.10000002384,CFD-WM-006-013-HC.jpg,1700,solid,O,m,733,9,1,50618.299999952316,172424.80000007153,7754,ATS,A,22
22,test,1,A,haborder.png,1,z,Mon May 04 2026 13:40:09 GMT-0500 (Central Daylight Time),225627.30000007153,CFD-WF-003-014-A.jpg,1600,solid,O,z,968,10,1,53202.5,172424.80000007153,7754,ATS,A,23
23,test,1,A,haborder.png,1,z,Mon May 04 2026 13:40:09 GMT-0500 (Central Daylight Time),228225.10000002384,CFD-WF-003-014-A.jpg,1600,solid,O,z,970,10,1,55800.299999952316,172424.80000007153,7754,ATS,A,24
1,test,1,B,mfborder.png,1,m,Mon May 04 2026 13:40:09 GMT-0500 (Central Daylight Time),241436.0,CFD-WM-019-013-A.jpg,1200,dash,O,m,604,6,1,1831.6999999284744,239604.30000007153,7754,ATS,A,1
2,test,1,B,mfborder.png,1,m,Mon May 04 2026 13:40:09 GMT-0500 (Central Daylight Time),243719.80000007153,CFD-WM-006-013-HC.jpg,1600,dash,O,m,662,10,1,4115.5,239604.30000007153,7754,ATS,A,2
3,test,1,B,mfborder.png,1,z,Mon May 04 2026 13:40:09 GMT-0500 (Central Daylight Time),246167.60000002384,CFD-WF-002-008-HC.jpg,1900,dash,O,z,526,8,1,6563.299999952316,239604.30000007153,7754,ATS,A,3
4,test,1,B,mfborder.png,1,m,Mon May 04 2026 13:40:09 GMT-0500 (Central Daylight Time),248434.0,CFD-BM-029-026-HC.jpg,1700,dash,O,m,543,1,1,8829.699999928474,239604.30000007153,7754,ATS,A,4
5,test,1,B,mfborder.png,1,m,Mon May 04 2026 13:40:09 GMT-0500 (Central Daylight Time),250984.10000002384,CFD-BM-005-010-A.jpg,2000,dash,O,m,519,5,1,11379.799999952316,239604.30000007153,7754,ATS,A,5
6,test,1,B,mfborder.png,1,m,Mon May 04 2026 13:40:09 GMT-0500 (Central Daylight Time),253316.90000009537,CFD-WM-013-015-A.jpg,1700,dash,O,m,607,9,1,13712.600000023842,239604.30000007153,7754,ATS,A,6
7,test,1,B,mfborder.png,1,z,Mon May 04 2026 13:40:09 GMT-0500 (Central Daylight Time),255715.10000002384,CFD-WF-002-008-HC.jpg,1900,dash,O,z,482,8,1,16110.799999952316,239604.30000007153,7754,ATS,A,7
8,test,1,B,mfborder.png,1,z,Mon May 04 2026 13:40:09 GMT-0500 (Central Daylight Time),257298.70000004768,CFD-BF-023-013-A.jpg,1000,dash,O,z,558,4,1,17694.399999976158,239604.30000007153,7754,ATS,A,8
9,test,1,B,mfborder.png,1,z,Mon May 04 2026 13:40:09 GMT-0500 (Central Daylight Time),258780.80000007153,CFD-BF-023-013-A.jpg,1000,dash,O,z,464,4,1,19176.5,239604.30000007153,7754,ATS,A,9
10,test,1,B,mfborder.png,1,z,Mon May 04 2026 13:40:09 GMT-0500 (Central Daylight Time),260862.90000009537,CFD-BF-028-020-HC.jpg,1400,dash,O,z,652,7,1,21258.600000023842,239604.30000007153,7754,ATS,A,10
11,test,1,B,mfborder.png,1,z,Mon May 04 2026 13:40:09 GMT-0500 (Central Daylight Time),262895.5,CFD-BF-010-005-HC.jpg,1500,dash,O,z,501,3,1,23291.199999928474,239604.30000007153,7754,ATS,A,11
12,test,1,B,mfborder.png,1,m,Mon May 04 2026 13:40:09 GMT-0500 (Central Daylight Time),265211.8000000715,CFD-BM-010-019-A.jpg,1600,dash,O,m,689,2,1,25607.5,239604.30000007153,7754,ATS,A,12
13,test,1,B,mfborder.png,1,z,Mon May 04 2026 13:40:09 GMT-0500 (Central Daylight Time),266794.40000009537,CFD-WF-017-016-HC.jpg,1000,dash,O,z,558,12,1,27190.100000023842,239604.30000007153,7754,ATS,A,13
14,test,1,B,mfborder.png,1,m,Mon May 04 2026 13:40:09 GMT-0500 (Central Daylight Time),268544.60000002384,CFD-WM-019-013-A.jpg,1200,dash,O,m,527,6,1,28940.299999952316,239604.30000007153,7754,ATS,A,14
15,test,1,B,mfborder.png,1,z,Mon May 04 2026 13:40:09 GMT-0500 (Central Daylight Time),270143.60000002384,CFD-WF-017-016-HC.jpg,1000,dash,O,z,570,12,1,30539.299999952316,239604.30000007153,7754,ATS,A,15
16,test,1,B,mfborder.png,1,z,Mon May 04 2026 13:40:09 GMT-0500 (Central Daylight Time),272343.10000002384,CFD-WF-003-014-A.jpg,1500,dash,O,z,679,11,1,32738.799999952316,239604.30000007153,7754,ATS,A,16
17,test,1,B,mfborder.png,1,z,Mon May 04 2026 13:40:09 GMT-0500 (Central Daylight Time),274427.3000000715,CFD-BF-010-005-HC.jpg,1500,dash,O,z,566,3,1,34823.0,239604.30000007153,7754,ATS,A,17
18,test,1,B,mfborder.png,1,m,Mon May 04 2026 13:40:09 GMT-0500 (Central Daylight Time),276758.7000000477,CFD-WM-006-013-HC.jpg,1600,dash,O,m,703,10,1,37154.39999997616,239604.30000007153,7754,ATS,A,18
19,test,1,B,mfborder.png,1,m,Mon May 04 2026 13:40:09 GMT-0500 (Central Daylight Time),279374.0,CFD-BM-005-010-A.jpg,2000,dash,O,m,586,5,1,39769.699999928474,239604.30000007153,7754,ATS,A,19
20,test,1,B,mfborder.png,1,z,Mon May 04 2026 13:40:09 GMT-0500 (Central Daylight Time),281473.2000000477,CFD-BF-028-020-HC.jpg,1400,dash,O,z,676,7,1,41868.89999997616,239604.30000007153,7754,ATS,A,20
21,test,1,B,mfborder.png,1,z,Mon May 04 2026 13:40:09 GMT-0500 (Central Daylight Time),283506.90000009537,CFD-WF-003-014-A.jpg,1500,dash,O,z,500,11,1,43902.60000002384,239604.30000007153,7754,ATS,A,21
22,test,1,B,mfborder.png,1,m,Mon May 04 2026 13:40:09 GMT-0500 (Central Daylight Time),285957.8000000715,CFD-WM-013-015-A.jpg,1700,dash,O,m,734,9,1,46353.5,239604.30000007153,7754,ATS,A,22
23,test,1,B,mfborder.png,1,m,Mon May 04 2026 13:40:09 GMT-0500 (Central Daylight Time),288454.90000009537,CFD-BM-029-026-HC.jpg,1700,dash,O,m,768,1,1,48850.60000002384,239604.30000007153,7754,ATS,A,23
24,test,1,B,mfborder.png,1,m,Mon May 04 2026 13:40:09 GMT-0500 (Central Daylight Time),290637.7000000477,CFD-BM-010-019-A.jpg,1600,dash,O,m,557,2,1,51033.39999997616,239604.30000007153,7754,ATS,A,24
0,prac,1,C,mfborder.png,0,z,Mon May 04 2026 13:40:09 GMT-0500 (Central Daylight Time),331357.3000000715,CFD-BF-028-020-HC.jpg,1000,dash,O,None,1516,3,1,3297.7000000476837,328059.60000002384,7754,ATS,A,1
0,prac,1,C,haborder.png,0,z,Mon May 04 2026 13:40:09 GMT-0500 (Central Daylight Time),335357.0,CFD-BF-039-039-A.jpg,1700,solid,O,None,1517,8,1,7297.399999976158,328059.60000002384,7754,ATS,A,2
1,prac,1,C,haborder.png,1,m,Mon May 04 2026 13:40:09 GMT-0500 (Central Daylight Time),338356.8000000715,CFD-BM-029-026-HC.jpg,1500,solid,O,m,703,10,1,10297.200000047684,328059.60000002384,7754,ATS,A,3
2,prac,1,C,haborder.png,1,m,Mon May 04 2026 13:40:09 GMT-0500 (Central Daylight Time),340954.7000000477,CFD-WM-004-005-HC.jpg,1000,dash,O,m,807,11,1,12895.100000023842,328059.60000002384,7754,ATS,A,4
2,prac,1,C,mfborder.png,0,m,Mon May 04 2026 13:40:09 GMT-0500 (Central Daylight Time),344954.7000000477,CFD-WM-013-015-A.jpg,1700,solid,O,None,1515,6,1,16895.100000023842,328059.60000002384,7754,ATS,A,5
3,prac,1,C,mfborder.png,1,z,Mon May 04 2026 13:40:09 GMT-0500 (Central Daylight Time),348404.10000002384,CFD-WF-017-016-HC.jpg,1600,dash,O,z,1065,1,1,20344.5,328059.60000002384,7754,ATS,A,6
4,prac,1,C,haborder.png,1,m,Mon May 04 2026 13:40:09 GMT-0500 (Central Daylight Time),352002.3000000715,CFD-WM-004-005-HC.jpg,1400,solid,O,m,1416,12,1,23942.700000047684,328059.60000002384,7754,ATS,A,7
4,prac,1,C,mfborder.png,0,z,Mon May 04 2026 13:40:09 GMT-0500 (Central Daylight Time),355801.0,CFD-WF-019-015-A.jpg,1500,solid,O,None,1519,2,1,27741.399999976158,328059.60000002384,7754,ATS,A,8
4,prac,1,C,mfborder.png,0,m,Mon May 04 2026 13:40:09 GMT-0500 (Central Daylight Time),359983.3000000715,CFD-BM-017-052-HC.jpg,2000,solid,O,z,1406,4,1,31923.700000047684,328059.60000002384,7754,ATS,A,9
4,prac,1,C,haborder.png,0,z,Mon May 04 2026 13:40:09 GMT-0500 (Central Daylight Time),364166.5,CFD-BF-023-013-A.jpg,1900,dash,O,None,1517,7,1,36106.89999997616,328059.60000002384,7754,ATS,A,10
4,prac,1,C,mfborder.png,0,m,Mon May 04 2026 13:40:09 GMT-0500 (Central Daylight Time),367662.90000009537,CFD-BM-005-010-A.jpg,1200,dash,O,None,1512,5,1,39603.300000071526,328059.60000002384,7754,ATS,A,11
4,prac,1,C,haborder.png,0,z,Mon May 04 2026 13:40:09 GMT-0500 (Central Daylight Time),371546.8000000715,CFD-WF-003-014-A.jpg,1600,dash,O,None,1514,9,1,43487.200000047684,328059.60000002384,7754,ATS,A,12
0,test,1,C,mfborder.png,0,m,Mon May 04 2026 13:40:09 GMT-0500 (Central Daylight Time),412734.40000009537,CFD-WM-019-013-A.jpg,2000,dash,O,None,1518,5,1,3533.9000000953674,409200.5,7754,ATS,A,1
1,test,1,C,mfborder.png,1,z,Mon May 04 2026 13:40:09 GMT-0500 (Central Daylight Time),415831.2000000477,CFD-BF-010-005-HC.jpg,1700,dash,O,z,1380,1,1,6630.700000047684,409200.5,7754,ATS,A,2
2,test,1,C,haborder.png,1,z,Mon May 04 2026 13:40:09 GMT-0500 (Central Daylight Time),419113.8000000715,CFD-BM-005-010-A.jpg,1900,solid,O,z,1349,8,1,9913.300000071526,409200.5,7754,ATS,A,3
3,test,1,C,haborder.png,1,z,Mon May 04 2026 13:40:09 GMT-0500 (Central Daylight Time),421961.60000002384,CFD-BM-010-019-A.jpg,1700,solid,O,z,1123,9,1,12761.100000023842,409200.5,7754,ATS,A,4
4,test,1,C,mfborder.png,1,z,Mon May 04 2026 13:40:09 GMT-0500 (Central Daylight Time),424628.5,CFD-BF-023-013-A.jpg,1600,dash,O,z,1038,2,1,15428.0,409200.5,7754,ATS,A,5
5,test,1,C,haborder.png,1,z,Mon May 04 2026 13:40:09 GMT-0500 (Central Daylight Time),427327.0,CFD-WM-013-015-A.jpg,1400,solid,O,z,1278,7,1,18126.5,409200.5,7754,ATS,A,6
5,test,1,C,haborder.png,0,m,Mon May 04 2026 13:40:09 GMT-0500 (Central Daylight Time),430359.7000000477,CFD-WF-002-008-HC.jpg,1500,solid,O,None,1514,11,1,21159.200000047684,409200.5,7754,ATS,A,7
6,test,1,C,haborder.png,1,z,Mon May 04 2026 13:40:09 GMT-0500 (Central Daylight Time),433309.7000000477,CFD-BM-010-019-A.jpg,1700,solid,O,z,1222,9,1,24109.200000047684,409200.5,7754,ATS,A,8
7,test,1,C,haborder.png,1,z,Mon May 04 2026 13:40:09 GMT-0500 (Central Daylight Time),436190.8000000715,CFD-BM-005-010-A.jpg,1900,solid,O,z,962,8,1,26990.300000071526,409200.5,7754,ATS,A,9
7,test,1,C,mfborder.png,0,z,Mon May 04 2026 13:40:09 GMT-0500 (Central Daylight Time),439007.0,CFD-WF-003-014-A.jpg,1500,dash,O,m,1295,3,1,29806.5,409200.5,7754,ATS,A,10
7,test,1,C,mfborder.png,0,m,Mon May 04 2026 13:40:09 GMT-0500 (Central Daylight Time),442539.3000000715,CFD-WM-019-013-A.jpg,2000,dash,O,None,1516,5,1,33338.800000071526,409200.5,7754,ATS,A,11
7,test,1,C,haborder.png,0,m,Mon May 04 2026 13:40:09 GMT-0500 (Central Daylight Time),444606.0,CFD-WF-017-016-HC.jpg,1000,solid,O,z,1049,12,1,35405.5,409200.5,7754,ATS,A,12
7,test,1,C,mfborder.png,0,m,Mon May 04 2026 13:40:09 GMT-0500 (Central Daylight Time),447104.90000009537,CFD-WM-006-013-HC.jpg,1000,dash,O,z,1468,4,1,37904.40000009537,409200.5,7754,ATS,A,13
7,test,1,C,haborder.png,0,m,Mon May 04 2026 13:40:09 GMT-0500 (Central Daylight Time),450222.2000000477,CFD-BF-028-020-HC.jpg,1600,solid,O,None,1501,10,1,41021.700000047684,409200.5,7754,ATS,A,14
7,test,1,C,mfborder.png,0,z,Mon May 04 2026 13:40:09 GMT-0500 (Central Daylight Time),453352.3000000715,CFD-BF-023-013-A.jpg,1600,dash,O,None,1514,2,1,44151.800000071526,409200.5,7754,ATS,A,15
7,test,1,C,haborder.png,0,m,Mon May 04 2026 13:40:09 GMT-0500 (Central Daylight Time),455535.7000000477,CFD-WF-017-016-HC.jpg,1000,solid,O,z,1162,12,1,46335.200000047684,409200.5,7754,ATS,A,16
8,test,1,C,mfborder.png,1,m,Mon May 04 2026 13:40:09 GMT-0500 (Central Daylight Time),457633.0,CFD-BM-029-026-HC.jpg,1200,dash,O,m,865,6,1,48432.5,409200.5,7754,ATS,A,17
8,test,1,C,mfborder.png,0,z,Mon May 04 2026 13:40:09 GMT-0500 (Central Daylight Time),460667.5,CFD-WF-003-014-A.jpg,1500,dash,O,None,1515,3,1,51467.0,409200.5,7754,ATS,A,18
9,test,1,C,mfborder.png,1,z,Mon May 04 2026 13:40:09 GMT-0500 (Central Daylight Time),463067.5,CFD-BF-010-005-HC.jpg,1700,dash,O,z,683,1,1,53867.0,409200.5,7754,ATS,A,19
9,test,1,C,mfborder.png,0,m,Mon May 04 2026 13:40:09 GMT-0500 (Central Daylight Time),464798.3000000715,CFD-WM-006-013-HC.jpg,1000,dash,O,z,712,4,1,55597.800000071526,409200.5,7754,ATS,A,20
9,test,1,C,mfborder.png,0,m,Mon May 04 2026 13:40:09 GMT-0500 (Central Daylight Time),467531.40000009537,CFD-BM-029-026-HC.jpg,1200,dash,O,None,1515,6,1,58330.90000009537,409200.5,7754,ATS,A,21
10,test,1,C,haborder.png,1,z,Mon May 04 2026 13:40:09 GMT-0500 (Central Daylight Time),470246.5,CFD-WM-013-015-A.jpg,1400,solid,O,z,1286,7,1,61046.0,409200.5,7754,ATS,A,22
10,test,1,C,haborder.png,0,m,Mon May 04 2026 13:40:09 GMT-0500 (Central Daylight Time),473379.0,CFD-BF-028-020-HC.jpg,1600,solid,O,None,1516,10,1,64178.5,409200.5,7754,ATS,A,23
11,test,1,C,haborder.png,1,m,Mon May 04 2026 13:40:09 GMT-0500 (Central Daylight Time),476061.60000002384,CFD-WF-002-008-HC.jpg,1500,solid,O,m,1155,11,1,66861.10000002384,409200.5,7754,ATS,A,24
0,test,2,C,mfborder.png,0,z,Mon May 04 2026 13:40:09 GMT-0500 (Central Daylight Time),485457.3000000715,CFD-WF-019-015-A.jpg,1600,dash,O,m,1091,2,1,2714.0,482743.3000000715,7754,ATS,A,1
0,test,2,C,mfborder.png,0,m,Mon May 04 2026 13:40:09 GMT-0500 (Central Daylight Time),488190.90000009537,CFD-WM-013-015-A.jpg,1200,dash,O,None,1516,6,1,5447.600000023842,482743.3000000715,7754,ATS,A,2
0,test,2,C,mfborder.png,0,m,Mon May 04 2026 13:40:09 GMT-0500 (Central Daylight Time),490722.5,CFD-BM-017-052-HC.jpg,1000,dash,O,None,1515,4,1,7979.199999928474,482743.3000000715,7754,ATS,A,3
1,test,2,C,mfborder.png,1,m,Mon May 04 2026 13:40:09 GMT-0500 (Central Daylight Time),492557.5,CFD-BM-017-052-HC.jpg,1000,dash,O,m,816,4,1,9814.199999928474,482743.3000000715,7754,ATS,A,4
2,test,2,C,mfborder.png,1,z,Mon May 04 2026 13:40:09 GMT-0500 (Central Daylight Time),495105.5,CFD-WF-017-016-HC.jpg,1700,dash,O,z,825,1,1,12362.199999928474,482743.3000000715,7754,ATS,A,5
3,test,2,C,haborder.png,1,m,Mon May 04 2026 13:40:09 GMT-0500 (Central Daylight Time),497737.7000000477,CFD-BM-029-026-HC.jpg,1600,solid,O,m,1000,10,1,14994.399999976158,482743.3000000715,7754,ATS,A,6
4,test,2,C,mfborder.png,1,z,Mon May 04 2026 13:40:09 GMT-0500 (Central Daylight Time),500354.3000000715,CFD-BF-028-020-HC.jpg,1500,dash,O,z,1084,3,1,17611.0,482743.3000000715,7754,ATS,A,7
4,test,2,C,mfborder.png,0,m,Mon May 04 2026 13:40:09 GMT-0500 (Central Daylight Time),502787.8000000715,CFD-WM-013-015-A.jpg,1200,dash,O,z,1217,6,1,20044.5,482743.3000000715,7754,ATS,A,8
5,test,2,C,mfborder.png,1,z,Mon May 04 2026 13:40:09 GMT-0500 (Central Daylight Time),505519.3000000715,CFD-WF-019-015-A.jpg,1600,dash,O,z,1103,2,1,22776.0,482743.3000000715,7754,ATS,A,9
5,test,2,C,haborder.png,0,z,Mon May 04 2026 13:40:09 GMT-0500 (Central Daylight Time),508401.0,CFD-WF-003-014-A.jpg,1700,solid,O,m,1151,9,1,25657.699999928474,482743.3000000715,7754,ATS,A,10
5,test,2,C,haborder.png,0,z,Mon May 04 2026 13:40:09 GMT-0500 (Central Daylight Time),511317.90000009537,CFD-BF-023-013-A.jpg,1400,solid,O,m,1499,7,1,28574.600000023842,482743.3000000715,7754,ATS,A,11
5,test,2,C,haborder.png,0,m,Mon May 04 2026 13:40:09 GMT-0500 (Central Daylight Time),513849.7000000477,CFD-WM-004-005-HC.jpg,1000,solid,O,None,1517,12,1,31106.399999976158,482743.3000000715,7754,ATS,A,12
6,test,2,C,haborder.png,1,z,Mon May 04 2026 13:40:09 GMT-0500 (Central Daylight Time),516866.10000002384,CFD-WF-003-014-A.jpg,1700,solid,O,z,1300,9,1,34122.799999952316,482743.3000000715,7754,ATS,A,13
7,test,2,C,haborder.png,1,m,Mon May 04 2026 13:40:09 GMT-0500 (Central Daylight Time),519115.3000000715,CFD-WM-004-005-HC.jpg,1500,solid,O,m,717,11,1,36372.0,482743.3000000715,7754,ATS,A,14
8,test,2,C,haborder.png,1,m,Mon May 04 2026 13:40:09 GMT-0500 (Central Daylight Time),520946.8000000715,CFD-WM-004-005-HC.jpg,1000,solid,O,m,814,12,1,38203.5,482743.3000000715,7754,ATS,A,15
9,test,2,C,haborder.png,1,z,Mon May 04 2026 13:40:09 GMT-0500 (Central Daylight Time),523847.0,CFD-BF-039-039-A.jpg,1900,solid,O,z,972,8,1,41103.699999928474,482743.3000000715,7754,ATS,A,16
10,test,2,C,mfborder.png,1,z,Mon May 04 2026 13:40:09 GMT-0500 (Central Daylight Time),526563.1000000238,CFD-WF-017-016-HC.jpg,1700,dash,O,z,982,1,1,43819.799999952316,482743.3000000715,7754,ATS,A,17
11,test,2,C,mfborder.png,1,z,Mon May 04 2026 13:40:09 GMT-0500 (Central Daylight Time),529161.8000000715,CFD-BF-028-020-HC.jpg,1500,dash,O,z,1075,3,1,46418.5,482743.3000000715,7754,ATS,A,18
11,test,2,C,haborder.png,0,z,Mon May 04 2026 13:40:09 GMT-0500 (Central Daylight Time),531744.5,CFD-BF-023-013-A.jpg,1400,solid,O,m,1160,7,1,49001.199999928474,482743.3000000715,7754,ATS,A,19
12,test,2,C,haborder.png,1,z,Mon May 04 2026 13:40:09 GMT-0500 (Central Daylight Time),534459.7000000477,CFD-BF-039-039-A.jpg,1900,solid,O,z,798,8,1,51716.39999997616,482743.3000000715,7754,ATS,A,20
13,test,2,C,haborder.png,1,m,Mon May 04 2026 13:40:09 GMT-0500 (Central Daylight Time),537043.3000000715,CFD-BM-029-026-HC.jpg,1600,solid,O,m,965,10,1,54300.0,482743.3000000715,7754,ATS,A,21
13,test,2,C,mfborder.png,0,m,Mon May 04 2026 13:40:09 GMT-0500 (Central Daylight Time),540192.2000000477,CFD-BM-005-010-A.jpg,2000,dash,O,z,1129,5,1,57448.89999997616,482743.3000000715,7754,ATS,A,22
14,test,2,C,haborder.png,1,m,Mon May 04 2026 13:40:09 GMT-0500 (Central Daylight Time),542640.4000000954,CFD-WM-004-005-HC.jpg,1500,solid,O,m,926,11,1,59897.10000002384,482743.3000000715,7754,ATS,A,23
15,test,2,C,mfborder.png,1,m,Mon May 04 2026 13:40:09 GMT-0500 (Central Daylight Time),545924.1000000238,CFD-BM-005-010-A.jpg,2000,dash,O,m,1249,5,1,63180.799999952316,482743.3000000715,7754,ATS,A,24
0,test,3,C,mfborder.png,0,m,Mon May 04 2026 13:40:09 GMT-0500 (Central Daylight Time),552771.2000000477,CFD-WM-006-013-HC.jpg,1000,dash,O,None,1516,4,1,2532.7999999523163,550238.4000000954,7754,ATS,A,1
0,test,3,C,haborder.png,0,z,Mon May 04 2026 13:40:09 GMT-0500 (Central Daylight Time),556003.7000000477,CFD-BM-010-019-A.jpg,1700,solid,O,None,1516,9,1,5765.299999952316,550238.4000000954,7754,ATS,A,2
1,test,3,C,haborder.png,1,z,Mon May 04 2026 13:40:09 GMT-0500 (Central Daylight Time),559118.7000000477,CFD-BM-005-010-A.jpg,1900,solid,O,z,1188,8,1,8880.299999952316,550238.4000000954,7754,ATS,A,3
2,test,3,C,mfborder.png,1,m,Mon May 04 2026 13:40:09 GMT-0500 (Central Daylight Time),561319.0,CFD-BM-029-026-HC.jpg,1200,dash,O,m,983,6,1,11080.599999904633,550238.4000000954,7754,ATS,A,4
3,test,3,C,mfborder.png,1,z,Mon May 04 2026 13:40:09 GMT-0500 (Central Daylight Time),563868.6000000238,CFD-BF-023-013-A.jpg,1600,dash,O,z,933,2,1,13630.199999928474,550238.4000000954,7754,ATS,A,5
4,test,3,C,haborder.png,1,z,Mon May 04 2026 13:40:09 GMT-0500 (Central Daylight Time),566699.8000000715,CFD-BM-010-019-A.jpg,1700,solid,O,z,1107,9,1,16461.399999976158,550238.4000000954,7754,ATS,A,6
5,test,3,C,mfborder.png,1,z,Mon May 04 2026 13:40:09 GMT-0500 (Central Daylight Time),569333.3000000715,CFD-BF-010-005-HC.jpg,1700,dash,O,z,907,1,1,19094.899999976158,550238.4000000954,7754,ATS,A,7
5,test,3,C,haborder.png,0,m,Mon May 04 2026 13:40:09 GMT-0500 (Central Daylight Time),572299.4000000954,CFD-BF-028-020-HC.jpg,1600,solid,O,z,1350,10,1,22061.0,550238.4000000954,7754,ATS,A,8
5,test,3,C,mfborder.png,0,z,Mon May 04 2026 13:40:09 GMT-0500 (Central Daylight Time),575330.8000000715,CFD-WF-003-014-A.jpg,1500,dash,O,None,1516,3,1,25092.399999976158,550238.4000000954,7754,ATS,A,9
6,test,3,C,mfborder.png,1,z,Mon May 04 2026 13:40:09 GMT-0500 (Central Daylight Time),578096.6000000238,CFD-BF-023-013-A.jpg,1600,dash,O,z,1134,2,1,27858.199999928474,550238.4000000954,7754,ATS,A,10
7,test,3,C,haborder.png,1,m,Mon May 04 2026 13:40:09 GMT-0500 (Central Daylight Time),580945.3000000715,CFD-WF-002-008-HC.jpg,1500,solid,O,m,1318,11,1,30706.899999976158,550238.4000000954,7754,ATS,A,11
8,test,3,C,mfborder.png,1,z,Mon May 04 2026 13:40:09 GMT-0500 (Central Daylight Time),583927.1000000238,CFD-WF-003-014-A.jpg,1500,dash,O,z,1461,3,1,33688.699999928474,550238.4000000954,7754,ATS,A,12
9,test,3,C,mfborder.png,1,z,Mon May 04 2026 13:40:09 GMT-0500 (Central Daylight Time),586409.8000000715,CFD-BF-010-005-HC.jpg,1700,dash,O,z,758,1,1,36171.39999997616,550238.4000000954,7754,ATS,A,13
10,test,3,C,mfborder.png,1,m,Mon May 04 2026 13:40:09 GMT-0500 (Central Daylight Time),588475.6000000238,CFD-BM-029-026-HC.jpg,1200,dash,O,m,839,6,1,38237.199999928474,550238.4000000954,7754,ATS,A,14
10,test,3,C,haborder.png,0,m,Mon May 04 2026 13:40:09 GMT-0500 (Central Daylight Time),590275.8000000715,CFD-WF-017-016-HC.jpg,1000,solid,O,z,768,12,1,40037.39999997616,550238.4000000954,7754,ATS,A,15
11,test,3,C,haborder.png,1,m,Mon May 04 2026 13:40:09 GMT-0500 (Central Daylight Time),592791.7000000477,CFD-WF-002-008-HC.jpg,1500,solid,O,m,995,11,1,42553.299999952316,550238.4000000954,7754,ATS,A,16
11,test,3,C,mfborder.png,0,m,Mon May 04 2026 13:40:09 GMT-0500 (Central Daylight Time),595324.6000000238,CFD-WM-006-013-HC.jpg,1000,dash,O,None,1516,4,1,45086.199999928474,550238.4000000954,7754,ATS,A,17
11,test,3,C,haborder.png,0,m,Mon May 04 2026 13:40:09 GMT-0500 (Central Daylight Time),597857.9000000954,CFD-WF-017-016-HC.jpg,1000,solid,O,None,1518,12,1,47619.5,550238.4000000954,7754,ATS,A,18
11,test,3,C,haborder.png,0,z,Mon May 04 2026 13:40:09 GMT-0500 (Central Daylight Time),600755.5,CFD-BM-005-010-A.jpg,1900,solid,O,m,976,8,1,50517.09999990463,550238.4000000954,7754,ATS,A,19
11,test,3,C,mfborder.png,0,m,Mon May 04 2026 13:40:09 GMT-0500 (Central Daylight Time),604287.7000000477,CFD-WM-019-013-A.jpg,2000,dash,O,None,1515,5,1,54049.299999952316,550238.4000000954,7754,ATS,A,20
12,test,3,C,haborder.png,1,z,Mon May 04 2026 13:40:09 GMT-0500 (Central Daylight Time),606936.4000000954,CFD-WM-013-015-A.jpg,1400,solid,O,z,1227,7,1,56698.0,550238.4000000954,7754,ATS,A,21
13,test,3,C,haborder.png,1,m,Mon May 04 2026 13:40:09 GMT-0500 (Central Daylight Time),609586.2000000477,CFD-BF-028-020-HC.jpg,1600,solid,O,m,1026,10,1,59347.799999952316,550238.4000000954,7754,ATS,A,22
13,test,3,C,mfborder.png,0,m,Mon May 04 2026 13:40:09 GMT-0500 (Central Daylight Time),613118.4000000954,CFD-WM-019-013-A.jpg,2000,dash,O,None,1514,5,1,62880.0,550238.4000000954,7754,ATS,A,23
14,test,3,C,haborder.png,1,z,Mon May 04 2026 13:40:09 GMT-0500 (Central Daylight Time),615967.6000000238,CFD-WM-013-015-A.jpg,1400,solid,O,z,1419,7,1,65729.19999992847,550238.4000000954,7754,ATS,A,24
0,test,4,C,haborder.png,0,z,Mon May 04 2026 13:40:09 GMT-0500 (Central Daylight Time),628180.2000000477,CFD-WF-003-014-A.jpg,1700,solid,O,None,1517,9,1,3232.399999976158,624947.8000000715,7754,ATS,A,1
1,test,4,C,mfborder.png,1,m,Mon May 04 2026 13:40:09 GMT-0500 (Central Daylight Time),630778.8000000715,CFD-WM-013-015-A.jpg,1200,dash,O,m,1365,6,1,5831.0,624947.8000000715,7754,ATS,A,2
2,test,4,C,haborder.png,1,z,Mon May 04 2026 13:40:09 GMT-0500 (Central Daylight Time),633262.0,CFD-BF-023-013-A.jpg,1400,solid,O,z,1064,7,1,8314.199999928474,624947.8000000715,7754,ATS,A,3
3,test,4,C,mfborder.png,1,z,Mon May 04 2026 13:40:09 GMT-0500 (Central Daylight Time),635877.6000000238,CFD-WF-019-015-A.jpg,1600,dash,O,z,995,2,1,10929.799999952316,624947.8000000715,7754,ATS,A,4
4,test,4,C,mfborder.png,1,z,Mon May 04 2026 13:40:09 GMT-0500 (Central Daylight Time),638477.9000000954,CFD-WF-017-016-HC.jpg,1700,dash,O,z,874,1,1,13530.100000023842,624947.8000000715,7754,ATS,A,5
5,test,4,C,mfborder.png,1,m,Mon May 04 2026 13:40:09 GMT-0500 (Central Daylight Time),640593.1000000238,CFD-BM-017-052-HC.jpg,1000,dash,O,m,1093,4,1,15645.299999952316,624947.8000000715,7754,ATS,A,6
6,test,4,C,haborder.png,1,m,Mon May 04 2026 13:40:09 GMT-0500 (Central Daylight Time),642609.5,CFD-WM-004-005-HC.jpg,1000,solid,O,m,984,12,1,17661.699999928474,624947.8000000715,7754,ATS,A,7
7,test,4,C,haborder.png,1,m,Mon May 04 2026 13:40:09 GMT-0500 (Central Daylight Time),644876.7000000477,CFD-WM-004-005-HC.jpg,1500,solid,O,m,742,11,1,19928.899999976158,624947.8000000715,7754,ATS,A,8
7,test,4,C,mfborder.png,0,m,Mon May 04 2026 13:40:09 GMT-0500 (Central Daylight Time),648407.3000000715,CFD-BM-005-010-A.jpg,2000,dash,O,None,1516,5,1,23459.5,624947.8000000715,7754,ATS,A,9
8,test,4,C,mfborder.png,1,m,Mon May 04 2026 13:40:09 GMT-0500 (Central Daylight Time),650288.8000000715,CFD-BM-017-052-HC.jpg,1000,dash,O,m,850,4,1,25341.0,624947.8000000715,7754,ATS,A,10
9,test,4,C,haborder.png,1,z,Mon May 04 2026 13:40:09 GMT-0500 (Central Daylight Time),653189.4000000954,CFD-BF-023-013-A.jpg,1400,solid,O,z,1468,7,1,28241.600000023842,624947.8000000715,7754,ATS,A,11
9,test,4,C,mfborder.png,0,z,Mon May 04 2026 13:40:09 GMT-0500 (Central Daylight Time),656305.7000000477,CFD-WF-019-015-A.jpg,1600,dash,O,None,1501,2,1,31357.899999976158,624947.8000000715,7754,ATS,A,12
10,test,4,C,mfborder.png,1,m,Mon May 04 2026 13:40:09 GMT-0500 (Central Daylight Time),659254.7000000477,CFD-BM-005-010-A.jpg,2000,dash,O,m,932,5,1,34306.89999997616,624947.8000000715,7754,ATS,A,13
11,test,4,C,haborder.png,1,m,Mon May 04 2026 13:40:09 GMT-0500 (Central Daylight Time),661120.7000000477,CFD-WM-004-005-HC.jpg,1000,solid,O,m,844,12,1,36172.89999997616,624947.8000000715,7754,ATS,A,14
12,test,4,C,mfborder.png,1,z,Mon May 04 2026 13:40:09 GMT-0500 (Central Daylight Time),663918.8000000715,CFD-BF-028-020-HC.jpg,1500,dash,O,z,1270,3,1,38971.0,624947.8000000715,7754,ATS,A,15
13,test,4,C,mfborder.png,1,z,Mon May 04 2026 13:40:09 GMT-0500 (Central Daylight Time),666234.7000000477,CFD-BF-028-020-HC.jpg,1500,dash,O,z,792,3,1,41286.89999997616,624947.8000000715,7754,ATS,A,16
13,test,4,C,haborder.png,0,z,Mon May 04 2026 13:40:09 GMT-0500 (Central Daylight Time),669468.1000000238,CFD-BF-039-039-A.jpg,1900,solid,O,m,1316,8,1,44520.299999952316,624947.8000000715,7754,ATS,A,17
14,test,4,C,haborder.png,1,z,Mon May 04 2026 13:40:09 GMT-0500 (Central Daylight Time),672133.9000000954,CFD-BF-039-039-A.jpg,1900,solid,O,z,739,8,1,47186.10000002384,624947.8000000715,7754,ATS,A,18
15,test,4,C,haborder.png,1,z,Mon May 04 2026 13:40:09 GMT-0500 (Central Daylight Time),674948.3000000715,CFD-WF-003-014-A.jpg,1700,solid,O,z,1098,9,1,50000.5,624947.8000000715,7754,ATS,A,19
16,test,4,C,haborder.png,1,m,Mon May 04 2026 13:40:09 GMT-0500 (Central Daylight Time),677897.7000000477,CFD-BM-029-026-HC.jpg,1600,solid,O,m,1317,10,1,52949.89999997616,624947.8000000715,7754,ATS,A,20
17,test,4,C,haborder.png,1,m,Mon May 04 2026 13:40:09 GMT-0500 (Central Daylight Time),680515.2000000477,CFD-BM-029-026-HC.jpg,1600,solid,O,m,1000,10,1,55567.39999997616,624947.8000000715,7754,ATS,A,21
18,test,4,C,mfborder.png,1,z,Mon May 04 2026 13:40:09 GMT-0500 (Central Daylight Time),683013.5,CFD-WF-017-016-HC.jpg,1700,dash,O,z,775,1,1,58065.699999928474,624947.8000000715,7754,ATS,A,22
19,test,4,C,haborder.png,1,m,Mon May 04 2026 13:40:09 GMT-0500 (Central Daylight Time),685462.5,CFD-WM-004-005-HC.jpg,1500,solid,O,m,922,11,1,60514.699999928474,624947.8000000715,7754,ATS,A,23
19,test,4,C,mfborder.png,0,m,Mon May 04 2026 13:40:09 GMT-0500 (Central Daylight Time),688194.1000000238,CFD-WM-013-015-A.jpg,1200,dash,O,None,1514,6,1,63246.299999952316,624947.8000000715,7754,ATS,A,24
