acc_sum,block,block_c,condition,correct,correct_response,datetime,endtime,flanker,jitter,project,response,response_test_buffer_response,response_test_target_response,response_time,response_time_test_buffer_response,response_time_test_target_response,row_sel,session_number,start_end,starttime,subject_id,target,task,task_vers,time_test_buffer,time_test_buffer_response,time_test_constants,time_test_flanker,time_test_jitter,time_test_logger,time_test_target,time_test_target_response,time_test_variables,trial
1,prac,1,inc,1,m,Tue Dec 09 2025 15:33:09 GMT-0600 (Central Standard Time),151637.0,plum,1100,I,m,,,1209,,,16,,3594.5,148042.5,7723,lead,NF,C,,,,,,,,,,1
2,prac,1,con,1,z,Tue Dec 09 2025 15:33:09 GMT-0600 (Central Standard Time),154652.80000007153,kiwi,1000,I,z,,,701,,,7,,3010.7000000476837,151642.10000002384,7723,kiwi,NF,C,,,,,,,,,,2
3,prac,1,inc,1,z,Tue Dec 09 2025 15:33:09 GMT-0600 (Central Standard Time),157518.39999997616,iron,900,I,z,,,655,,,6,,2861.2999999523163,154657.10000002384,7723,pear,NF,C,,,,,,,,,,3
4,prac,1,con,1,z,Tue Dec 09 2025 15:33:09 GMT-0600 (Central Standard Time),160317.60000002384,lime,800,I,z,,,697,,,5,,2795.100000023842,157522.5,7723,lime,NF,C,,,,,,,,,,4
5,prac,1,con,1,z,Tue Dec 09 2025 15:33:09 GMT-0600 (Central Standard Time),163050.0,banana,800,I,z,,,625,,,1,,2727.1999999284744,160322.80000007153,7723,banana,NF,C,,,,,,,,,,5
6,prac,1,con,1,m,Tue Dec 09 2025 15:33:09 GMT-0600 (Central Standard Time),165799.10000002384,bronze,800,I,m,,,647,,,9,,2744.2000000476837,163054.89999997616,7723,bronze,NF,C,,,,,,,,,,6
7,prac,1,inc,1,z,Tue Dec 09 2025 15:33:09 GMT-0600 (Central Standard Time),169048.10000002384,lead,1100,I,z,,,846,,,8,,3244.600000023842,165803.5,7723,plum,NF,C,,,,,,,,,,7
8,prac,1,con,1,m,Tue Dec 09 2025 15:33:09 GMT-0600 (Central Standard Time),171880.39999997616,zinc,1000,I,m,,,528,,,15,,2827.899999976158,169052.5,7723,zinc,NF,C,,,,,,,,,,8
9,prac,1,inc,1,z,Tue Dec 09 2025 15:33:09 GMT-0600 (Central Standard Time),174779.70000004768,copper,900,I,z,,,683,,,2,,2895.3000000715256,171884.39999997616,7723,cherry,NF,C,,,,,,,,,,9
10,prac,1,inc,1,m,Tue Dec 09 2025 15:33:09 GMT-0600 (Central Standard Time),177628.89999997616,cherry,900,I,m,,,647,,,10,,2844.399999976158,174784.5,7723,copper,NF,C,,,,,,,,,,10
11,prac,1,inc,1,m,Tue Dec 09 2025 15:33:09 GMT-0600 (Central Standard Time),180511.20000004768,pear,900,I,m,,,671,,,14,,2877.2000000476837,177634.0,7723,iron,NF,C,,,,,,,,,,11
12,prac,1,inc,1,z,Tue Dec 09 2025 15:33:09 GMT-0600 (Central Standard Time),183527.0,cobalt,1100,I,z,,,614,,,4,,3010.7999999523163,180516.20000004768,7723,raisin,NF,C,,,,,,,,,,12
13,prac,1,con,1,z,Tue Dec 09 2025 15:33:09 GMT-0600 (Central Standard Time),186425.80000007153,orange,1000,I,z,,,592,,,3,,2893.7000000476837,183532.10000002384,7723,orange,NF,C,,,,,,,,,,13
14,prac,1,con,1,m,Tue Dec 09 2025 15:33:09 GMT-0600 (Central Standard Time),189325.0,gold,800,I,m,,,791,,,13,,2895.1999999284744,186429.80000007153,7723,gold,NF,C,,,,,,,,,,14
15,prac,1,con,1,m,Tue Dec 09 2025 15:33:09 GMT-0600 (Central Standard Time),192340.89999997616,silver,1000,I,m,,,715,,,11,,3011.399999976158,189329.5,7723,silver,NF,C,,,,,,,,,,15
16,prac,1,inc,1,m,Tue Dec 09 2025 15:33:09 GMT-0600 (Central Standard Time),195389.80000007153,raisin,1100,I,m,,,639,,,12,,3044.7000000476837,192345.10000002384,7723,cobalt,NF,C,,,,,,,,,,16
1,test,1,inc,1,z,Tue Dec 09 2025 15:33:09 GMT-0600 (Central Standard Time),215050.39999997616,zinc,1000,I,z,z,None,703,503.0,200.0,55,,2245.7999999523163,212804.60000002384,7723,kiwi,NF,C,209807,209807,208078,209091,208078,210323,209607,209607,210323,1
2,test,1,con,1,z,Tue Dec 09 2025 15:33:09 GMT-0600 (Central Standard Time),217016.10000002384,pear,800,I,z,z,None,622,422.0,200.0,41,,1960.5,215055.60000002384,7723,pear,NF,C,211856,211856,210329,211140,210329,212289,211656,211656,212289,2
3,test,1,inc,1,z,Tue Dec 09 2025 15:33:09 GMT-0600 (Central Standard Time),219015.60000002384,gold,800,I,z,z,None,663,463.0,200.0,61,,1995.3999999761581,217020.20000004768,7723,plum,NF,C,213822,213823,212293,213106,212294,214289,213622,213622,214289,3
4,test,1,con,1,z,Tue Dec 09 2025 15:33:09 GMT-0600 (Central Standard Time),221331.70000004768,cherry,1100,I,z,z,None,678,478.0,200.0,12,,2312.100000023842,219019.60000002384,7723,cherry,NF,C,216121,216121,214293,215405,214293,216605,215921,215921,216605,4
5,test,1,inc,1,z,Tue Dec 09 2025 15:33:09 GMT-0600 (Central Standard Time),223630.80000007153,cobalt,1100,I,z,z,None,656,457.0,199.0,24,,2295.3000000715256,221335.5,7723,orange,NF,C,218438,218438,216609,217721,216609,218904,218238,218238,218904,5
6,test,1,con,1,z,Tue Dec 09 2025 15:33:09 GMT-0600 (Central Standard Time),225863.60000002384,orange,1100,I,z,z,None,589,389.0,200.0,20,,2228.899999976158,223634.70000004768,7723,orange,NF,C,220737,220737,218908,220020,218908,221137,220537,220537,221137,6
7,test,1,con,1,z,Tue Dec 09 2025 15:33:09 GMT-0600 (Central Standard Time),227846.0,kiwi,900,I,z,z,None,548,349.0,199.0,50,,1978.2999999523163,225867.70000004768,7723,kiwi,NF,C,222770,222770,221141,222053,221141,223119,222570,222570,223119,7
8,test,1,con,1,m,Tue Dec 09 2025 15:33:09 GMT-0600 (Central Standard Time),229695.5,iron,800,I,m,m,None,514,315.0,199.0,105,,1845.6999999284744,227849.80000007153,7723,iron,NF,C,224652,224652,223123,223936,223123,224969,224453,224453,224969,8
9,test,1,inc,1,m,Tue Dec 09 2025 15:33:09 GMT-0600 (Central Standard Time),231845.10000002384,kiwi,1000,I,m,m,None,608,409.0,199.0,111,,2145.7000000476837,229699.39999997616,7723,iron,NF,C,226702,226702,224972,225985,224973,227118,226502,226502,227118,9
10,test,1,con,1,m,Tue Dec 09 2025 15:33:09 GMT-0600 (Central Standard Time),234027.60000002384,zinc,1000,I,m,m,None,644,444.0,200.0,115,,2178.600000023842,231849.0,7723,zinc,NF,C,228851,228851,227122,228134,227122,229301,228651,228651,229301,10
11,test,1,inc,1,m,Tue Dec 09 2025 15:33:09 GMT-0600 (Central Standard Time),236294.10000002384,cherry,900,I,m,m,None,823,624.0,199.0,78,,2261.899999976158,234032.20000004768,7723,copper,NF,C,230934,230934,229305,230217,229306,231567,230734,230734,231567,11
12,test,1,con,1,z,Tue Dec 09 2025 15:33:09 GMT-0600 (Central Standard Time),238492.89999997616,pear,1100,I,z,z,None,549,350.0,199.0,44,,2194.5999999046326,236298.30000007153,7723,pear,NF,C,233399,233400,231571,232683,231572,233766,233200,233200,233766,12
13,test,1,inc,1,z,Tue Dec 09 2025 15:33:09 GMT-0600 (Central Standard Time),240808.80000007153,lead,1100,I,z,z,None,672,472.0,200.0,48,,2311.8000000715256,238497.0,7723,pear,NF,C,235599,235599,233770,234883,233770,236082,235399,235399,236082,13
14,test,1,inc,1,z,Tue Dec 09 2025 15:33:09 GMT-0600 (Central Standard Time),243091.39999997616,cobalt,1100,I,z,z,None,636,436.0,200.0,8,,2278.0999999046326,240813.30000007153,7723,banana,NF,C,237915,237915,236086,237198,236087,238364,237715,237715,238364,14
15,test,1,con,1,z,Tue Dec 09 2025 15:33:09 GMT-0600 (Central Standard Time),245037.89999997616,lime,800,I,z,z,None,613,414.0,199.0,33,,1942.6999999284744,243095.20000004768,7723,lime,NF,C,239897,239897,238368,239181,238369,240311,239698,239698,240311,15
16,test,1,inc,1,m,Tue Dec 09 2025 15:33:09 GMT-0600 (Central Standard Time),247006.60000002384,lime,800,I,m,m,None,632,432.0,200.0,109,,1964.0,245042.60000002384,7723,iron,NF,C,241847,241847,240316,241130,240316,242280,241647,241647,242280,16
17,test,1,inc,1,z,Tue Dec 09 2025 15:33:09 GMT-0600 (Central Standard Time),249372.80000007153,lead,1100,I,z,z,None,717,517.0,200.0,40,,2361.8000000715256,247011.0,7723,lime,NF,C,244113,244113,242284,243396,242284,244646,243913,243913,244646,17
18,test,1,con,1,z,Tue Dec 09 2025 15:33:09 GMT-0600 (Central Standard Time),251488.80000007153,kiwi,800,I,z,z,None,772,572.0,200.0,49,,2111.9000000953674,249376.89999997616,7723,kiwi,NF,C,246179,246179,244650,245462,244650,246762,245979,245979,246762,18
19,test,1,inc,1,z,Tue Dec 09 2025 15:33:09 GMT-0600 (Central Standard Time),253638.10000002384,silver,1000,I,z,z,None,600,400.0,200.0,15,,2145.399999976158,251492.70000004768,7723,cherry,NF,C,248495,248495,246766,247779,246766,248911,248295,248295,248911,19
20,test,1,inc,1,m,Tue Dec 09 2025 15:33:09 GMT-0600 (Central Standard Time),255870.5,kiwi,1000,I,m,m,None,699,499.0,200.0,127,,2228.5,253642.0,7723,lead,NF,C,250644,250644,248915,249928,248915,251144,250444,250444,251143,20
21,test,1,inc,1,z,Tue Dec 09 2025 15:33:09 GMT-0600 (Central Standard Time),258036.5,iron,900,I,z,z,None,725,525.0,200.0,38,,2162.1999999284744,255874.30000007153,7723,lime,NF,C,252777,252777,251147,252060,251148,253310,252577,252577,253310,21
22,test,1,inc,1,m,Tue Dec 09 2025 15:33:09 GMT-0600 (Central Standard Time),260019.5,lime,800,I,m,m,None,635,435.0,200.0,101,,1977.7999999523163,258041.70000004768,7723,gold,NF,C,254843,254843,253315,254127,253315,255293,254643,254643,255292,22
23,test,1,inc,1,m,Tue Dec 09 2025 15:33:09 GMT-0600 (Central Standard Time),262268.7000000477,kiwi,1000,I,m,m,None,700,500.0,200.0,119,,2244.5,260024.20000004768,7723,zinc,NF,C,257026,257026,255297,256310,255298,257542,256825,256825,257542,23
24,test,1,con,1,z,Tue Dec 09 2025 15:33:09 GMT-0600 (Central Standard Time),264268.2000000477,cherry,900,I,z,z,None,552,352.0,200.0,10,,1995.3999999761581,262272.8000000715,7723,cherry,NF,C,259175,259175,257546,258459,257546,259541,258975,258975,259541,24
25,test,1,inc,1,m,Tue Dec 09 2025 15:33:09 GMT-0600 (Central Standard Time),266350.8000000715,pear,900,I,m,m,None,641,441.0,200.0,126,,2078.4000000953674,264272.39999997616,7723,lead,NF,C,261174,261174,259545,260458,259546,261624,260974,260974,261624,25
26,test,1,inc,1,m,Tue Dec 09 2025 15:33:09 GMT-0600 (Central Standard Time),268350.10000002384,lime,800,I,m,m,None,658,458.0,200.0,125,,1994.8999999761581,266355.2000000477,7723,lead,NF,C,263157,263157,261628,262440,261628,263623,262957,262957,263623,26
27,test,1,con,1,z,Tue Dec 09 2025 15:33:09 GMT-0600 (Central Standard Time),270683.10000002384,kiwi,1000,I,z,z,None,785,586.0,199.0,51,,2328.899999976158,268354.2000000477,7723,kiwi,NF,C,265356,265356,263627,264640,263627,265956,265157,265157,265956,27
28,test,1,inc,1,z,Tue Dec 09 2025 15:33:09 GMT-0600 (Central Standard Time),272965.5,silver,1000,I,z,z,None,749,549.0,200.0,31,,2278.600000023842,270686.89999997616,7723,raisin,NF,C,267689,267689,265960,266972,265960,268239,267489,267489,268239,28
29,test,1,con,1,m,Tue Dec 09 2025 15:33:09 GMT-0600 (Central Standard Time),275064.5,zinc,900,I,m,m,None,670,455.0,215.0,114,,2094.899999976158,272969.60000002384,7723,zinc,NF,C,269871,269871,268243,269155,268243,270338,269656,269656,270338,29
30,test,1,inc,1,z,Tue Dec 09 2025 15:33:09 GMT-0600 (Central Standard Time),277147.5,copper,900,I,z,z,None,644,444.0,200.0,30,,2078.7999999523163,275068.7000000477,7723,raisin,NF,C,271971,271971,270342,271254,270342,272421,271771,271771,272421,30
31,test,1,con,1,m,Tue Dec 09 2025 15:33:09 GMT-0600 (Central Standard Time),279180.10000002384,bronze,800,I,m,m,None,692,493.0,199.0,65,,2028.8999999761581,277151.2000000477,7723,bronze,NF,C,273953,273954,272424,273237,272424,274453,273754,273754,274453,31
32,test,1,inc,1,m,Tue Dec 09 2025 15:33:09 GMT-0600 (Central Standard Time),281312.7000000477,pear,900,I,m,m,None,688,488.0,200.0,110,,2128.600000023842,279184.10000002384,7723,iron,NF,C,276086,276086,274457,275370,274457,276586,275886,275886,276586,32
33,test,1,con,1,z,Tue Dec 09 2025 15:33:09 GMT-0600 (Central Standard Time),283228.89999997616,plum,800,I,z,z,None,576,376.0,200.0,57,,1912.2999999523163,281316.60000002384,7723,plum,NF,C,278119,278119,276590,277402,276590,278502,277919,277919,278502,33
34,test,1,inc,1,m,Tue Dec 09 2025 15:33:09 GMT-0600 (Central Standard Time),285495.10000002384,plum,1100,I,m,m,None,623,423.0,200.0,104,,2262.600000023842,283232.5,7723,gold,NF,C,280335,280335,278506,279619,278506,280768,280135,280135,280768,34
35,test,1,inc,1,m,Tue Dec 09 2025 15:33:09 GMT-0600 (Central Standard Time),287810.7000000477,raisin,1100,I,m,m,None,678,478.0,200.0,88,,2311.899999976158,285498.8000000715,7723,silver,NF,C,282601,282601,280772,281886,280772,283084,282401,282401,283084,35
36,test,1,inc,1,m,Tue Dec 09 2025 15:33:09 GMT-0600 (Central Standard Time),290076.5,plum,1100,I,m,m,None,624,425.0,199.0,112,,2261.899999976158,287814.60000002384,7723,iron,NF,C,284917,284917,283088,284201,283088,285350,284717,284717,285350,36
37,test,1,inc,1,z,Tue Dec 09 2025 15:33:09 GMT-0600 (Central Standard Time),292372.60000002384,zinc,1000,I,z,z,None,761,562.0,199.0,63,,2291.899999976158,290080.7000000477,7723,plum,NF,C,287083,287083,285354,286366,285354,287646,286883,286883,287646,37
38,test,1,con,1,m,Tue Dec 09 2025 15:33:09 GMT-0600 (Central Standard Time),294592.2000000477,copper,1100,I,m,m,None,573,373.0,200.0,76,,2214.899999976158,292377.3000000715,7723,copper,NF,C,289482,289482,287650,288766,287651,289865,289282,289282,289865,38
39,test,1,inc,1,m,Tue Dec 09 2025 15:33:09 GMT-0600 (Central Standard Time),296591.3000000715,banana,800,I,m,m,None,656,456.0,200.0,85,,1995.4000000953674,294595.89999997616,7723,silver,NF,C,291398,291398,289869,290681,289869,291864,291198,291198,291864,39
40,test,1,con,1,z,Tue Dec 09 2025 15:33:09 GMT-0600 (Central Standard Time),298690.60000002384,orange,900,I,z,z,None,653,453.0,200.0,18,,2095.0,296595.60000002384,7723,orange,NF,C,293498,293498,291869,292781,291869,293964,293297,293297,293964,40
41,test,1,inc,1,m,Tue Dec 09 2025 15:33:09 GMT-0600 (Central Standard Time),300906.5,raisin,1100,I,m,m,None,569,370.0,199.0,96,,2212.100000023842,298694.39999997616,7723,cobalt,NF,C,295797,295797,293967,295080,293968,296180,295597,295597,296180,41
42,test,1,inc,1,m,Tue Dec 09 2025 15:33:09 GMT-0600 (Central Standard Time),302855.8000000715,banana,800,I,m,m,None,605,406.0,199.0,69,,1945.4000000953674,300910.39999997616,7723,bronze,NF,C,297713,297713,296183,296996,296184,298129,297513,297513,298129,42
43,test,1,con,1,m,Tue Dec 09 2025 15:33:09 GMT-0600 (Central Standard Time),304905.39999997616,copper,800,I,m,m,None,705,505.0,200.0,73,,2045.5999999046326,302859.8000000715,7723,copper,NF,C,299662,299662,298133,298946,298133,300179,299462,299462,300178,43
44,test,1,inc,1,m,Tue Dec 09 2025 15:33:09 GMT-0600 (Central Standard Time),307021.39999997616,orange,1000,I,m,m,None,566,367.0,199.0,79,,2112.399999976158,304909.0,7723,copper,NF,C,301912,301912,300182,301195,300182,302294,301712,301712,302294,44
45,test,1,inc,1,z,Tue Dec 09 2025 15:33:09 GMT-0600 (Central Standard Time),309237.39999997616,silver,1000,I,z,z,None,676,476.0,200.0,23,,2211.0,307026.39999997616,7723,orange,NF,C,304027,304027,302299,303311,302300,304510,303827,303827,304510,45
46,test,1,con,1,m,Tue Dec 09 2025 15:33:09 GMT-0600 (Central Standard Time),311353.39999997616,bronze,1000,I,m,m,None,579,380.0,199.0,67,,2112.2999999523163,309241.10000002384,7723,bronze,NF,C,306243,306243,304514,305527,304514,306626,306044,306044,306626,46
47,test,1,inc,1,z,Tue Dec 09 2025 15:33:09 GMT-0600 (Central Standard Time),313436.10000002384,gold,800,I,z,z,None,742,543.0,199.0,45,,2078.399999976158,311357.7000000477,7723,pear,NF,C,308160,308160,306631,307443,306631,308709,307960,307960,308709,47
47,test,1,inc,0,z,Tue Dec 09 2025 15:33:09 GMT-0600 (Central Standard Time),315652.0,lead,1100,I,m,m,None,569,369.0,200.0,64,,2212.100000023842,313439.89999997616,7723,plum,NF,C,310542,310542,308713,309826,308713,310925,310342,310342,310925,48
48,test,1,con,1,z,Tue Dec 09 2025 15:33:09 GMT-0600 (Central Standard Time),317634.89999997616,raisin,800,I,z,z,None,645,445.0,200.0,25,,1978.5999999046326,315656.3000000715,7723,raisin,NF,C,312458,312458,310929,311742,310929,312908,312258,312258,312908,49
49,test,1,con,1,m,Tue Dec 09 2025 15:33:09 GMT-0600 (Central Standard Time),319817.5,cobalt,1100,I,m,m,None,538,338.0,200.0,92,,2178.899999976158,317638.60000002384,7723,cobalt,NF,C,314741,314741,312912,314024,312912,315091,314541,314541,315090,50
50,test,1,inc,1,m,Tue Dec 09 2025 15:33:09 GMT-0600 (Central Standard Time),322133.10000002384,cherry,900,I,m,m,None,875,676.0,199.0,94,,2311.7999999523163,319821.3000000715,7723,cobalt,NF,C,316723,316723,315094,316007,315095,317406,316524,316524,317406,51
51,test,1,inc,1,m,Tue Dec 09 2025 15:33:09 GMT-0600 (Central Standard Time),324166.10000002384,lime,800,I,m,m,None,691,492.0,199.0,117,,2029.2000000476837,322136.89999997616,7723,zinc,NF,C,318939,318939,317410,318223,317410,319439,318740,318740,319439,52
52,test,1,inc,1,z,Tue Dec 09 2025 15:33:09 GMT-0600 (Central Standard Time),326365.3000000715,silver,1000,I,z,z,None,650,450.0,200.0,7,,2195.5,324169.8000000715,7723,banana,NF,C,321172,321172,319443,320456,319443,321638,320972,320972,321638,53
53,test,1,con,1,z,Tue Dec 09 2025 15:33:09 GMT-0600 (Central Standard Time),328898.0,kiwi,1100,I,z,z,None,895,696.0,199.0,52,,2528.899999976158,326369.10000002384,7723,kiwi,NF,C,323471,323471,321642,322755,321642,324171,323272,323272,324171,54
54,test,1,inc,1,m,Tue Dec 09 2025 15:33:09 GMT-0600 (Central Standard Time),331613.89999997616,plum,1100,I,m,m,None,1067,867.0,200.0,128,,2712.399999976158,328901.5,7723,lead,NF,C,326004,326004,324175,325287,324175,326887,325804,325804,326887,55
55,test,1,inc,1,z,Tue Dec 09 2025 15:33:09 GMT-0600 (Central Standard Time),334280.39999997616,copper,900,I,z,z,None,1229,1030.0,199.0,14,,2662.5999999046326,331617.8000000715,7723,cherry,NF,C,328520,328520,326891,327803,326891,329554,328320,328320,329553,56
56,test,1,inc,1,z,Tue Dec 09 2025 15:33:09 GMT-0600 (Central Standard Time),336978.8000000715,iron,900,I,z,z,None,1252,1053.0,199.0,62,,2694.2000000476837,334284.60000002384,7723,plum,NF,C,331186,331186,329558,330469,329558,332252,330986,330986,332252,57
57,test,1,con,1,m,Tue Dec 09 2025 15:33:09 GMT-0600 (Central Standard Time),339727.8000000715,zinc,1100,I,m,m,None,1106,906.0,200.0,116,,2745.100000023842,336982.7000000477,7723,zinc,NF,C,334085,334085,332256,333368,332256,335001,333884,333884,335001,58
58,test,1,inc,1,z,Tue Dec 09 2025 15:33:09 GMT-0600 (Central Standard Time),342077.3000000715,zinc,1000,I,z,z,None,800,600.0,200.0,47,,2345.9000000953674,339731.39999997616,7723,pear,NF,C,336734,336734,335004,336017,335005,337350,336534,336534,337350,59
59,test,1,con,1,z,Tue Dec 09 2025 15:33:09 GMT-0600 (Central Standard Time),344276.2000000477,raisin,1100,I,z,z,None,567,352.0,215.0,28,,2195.100000023842,342081.10000002384,7723,raisin,NF,C,339183,339183,337354,338467,337354,339549,338968,338968,339549,60
60,test,1,inc,1,m,Tue Dec 09 2025 15:33:09 GMT-0600 (Central Standard Time),346758.8000000715,orange,1000,I,m,m,None,939,740.0,199.0,95,,2478.8000000715256,344280.0,7723,cobalt,NF,C,341282,341282,339553,340566,339553,342032,341083,341083,342032,61
61,test,1,con,1,z,Tue Dec 09 2025 15:33:09 GMT-0600 (Central Standard Time),349691.10000002384,raisin,1000,I,z,z,None,1394,1194.0,200.0,27,,2928.2000000476837,346762.89999997616,7723,raisin,NF,C,343765,343765,342036,343049,342036,344964,343565,343565,344964,62
62,test,1,con,1,m,Tue Dec 09 2025 15:33:09 GMT-0600 (Central Standard Time),351807.39999997616,lead,800,I,m,m,None,773,574.0,199.0,121,,2112.899999976158,349694.5,7723,lead,NF,C,346497,346497,344968,345781,344968,347080,346298,346298,347080,63
63,test,1,inc,1,z,Tue Dec 09 2025 15:33:09 GMT-0600 (Central Standard Time),354073.7000000477,bronze,800,I,z,z,None,922,722.0,200.0,29,,2262.0,351811.7000000477,7723,raisin,NF,C,348613,348613,347085,347897,347085,349347,348413,348413,349347,64
64,test,1,con,1,m,Tue Dec 09 2025 15:33:09 GMT-0600 (Central Standard Time),356239.2000000477,cobalt,800,I,m,m,None,822,623.0,199.0,89,,2162.0,354077.2000000477,7723,cobalt,NF,C,350880,350880,349350,350163,349350,351512,350680,350680,351512,65
65,test,1,inc,1,z,Tue Dec 09 2025 15:33:09 GMT-0600 (Central Standard Time),358188.5,bronze,800,I,z,z,None,609,409.0,200.0,5,,1945.6999999284744,356242.8000000715,7723,banana,NF,C,353045,353045,351516,352329,351516,353462,352845,352845,353462,66
66,test,1,con,1,m,Tue Dec 09 2025 15:33:09 GMT-0600 (Central Standard Time),360321.39999997616,copper,1000,I,m,m,None,595,395.0,200.0,75,,2129.0999999046326,358192.3000000715,7723,copper,NF,C,355195,355195,353465,354478,353466,355595,354995,354995,355594,67
67,test,1,con,1,m,Tue Dec 09 2025 15:33:09 GMT-0600 (Central Standard Time),362553.8000000715,bronze,900,I,m,m,None,794,595.0,199.0,66,,2228.8000000715256,360325.0,7723,bronze,NF,C,357227,357227,355598,356511,355598,357827,357028,357028,357827,68
68,test,1,inc,1,z,Tue Dec 09 2025 15:33:09 GMT-0600 (Central Standard Time),364953.10000002384,lead,1100,I,z,z,None,754,554.0,200.0,56,,2395.5,362557.60000002384,7723,kiwi,NF,C,359660,359660,357831,358943,357831,360226,359460,359460,360226,69
69,test,1,con,1,m,Tue Dec 09 2025 15:33:09 GMT-0600 (Central Standard Time),367385.7000000477,lead,1100,I,m,m,None,787,587.0,200.0,124,,2428.8000000715256,364956.89999997616,7723,lead,NF,C,362059,362059,360230,361343,360230,362659,361859,361859,362659,70
70,test,1,con,1,m,Tue Dec 09 2025 15:33:09 GMT-0600 (Central Standard Time),369635.39999997616,lead,1000,I,m,m,None,711,511.0,200.0,123,,2245.5999999046326,367389.8000000715,7723,lead,NF,C,364392,364392,362663,363675,362663,364908,364192,364192,364908,71
71,test,1,con,1,z,Tue Dec 09 2025 15:33:09 GMT-0600 (Central Standard Time),372067.7000000477,plum,1100,I,z,z,None,794,594.0,200.0,60,,2428.7000000476837,369639.0,7723,plum,NF,C,366741,366741,364912,366025,364912,367341,366541,366541,367341,72
72,test,1,con,1,m,Tue Dec 09 2025 15:33:09 GMT-0600 (Central Standard Time),374317.0,iron,1000,I,m,m,None,716,517.0,199.0,107,,2245.600000023842,372071.39999997616,7723,iron,NF,C,369057,369057,367344,368357,367345,369590,368858,368858,369590,73
73,test,1,con,1,z,Tue Dec 09 2025 15:33:09 GMT-0600 (Central Standard Time),376549.39999997616,pear,1000,I,z,z,None,692,492.0,200.0,43,,2228.399999976158,374321.0,7723,pear,NF,C,371323,371323,369594,370607,369594,371823,371123,371123,371822,74
74,test,1,inc,1,m,Tue Dec 09 2025 15:33:09 GMT-0600 (Central Standard Time),378532.2000000477,banana,800,I,m,m,None,642,443.0,199.0,93,,1978.6000000238419,376553.60000002384,7723,cobalt,NF,C,373356,373356,371827,372639,371827,373805,373156,373156,373805,75
75,test,1,inc,1,z,Tue Dec 09 2025 15:33:09 GMT-0600 (Central Standard Time),380798.2000000477,copper,900,I,z,z,None,824,625.0,199.0,22,,2261.899999976158,378536.3000000715,7723,orange,NF,C,375438,375438,373809,374722,373810,376071,375239,375239,376071,76
76,test,1,inc,1,m,Tue Dec 09 2025 15:33:09 GMT-0600 (Central Standard Time),382764.3000000715,banana,800,I,m,m,None,618,418.0,200.0,77,,1962.4000000953674,380801.89999997616,7723,copper,NF,C,377604,377604,376075,376888,376075,378037,377404,377404,378037,77
77,test,1,inc,1,m,Tue Dec 09 2025 15:33:09 GMT-0600 (Central Standard Time),384997.10000002384,cherry,900,I,m,m,None,792,592.0,200.0,86,,2228.899999976158,382768.2000000477,7723,silver,NF,C,379671,379671,378041,378954,378042,380270,379470,379470,380270,78
78,test,1,con,1,m,Tue Dec 09 2025 15:33:09 GMT-0600 (Central Standard Time),387146.2000000477,silver,800,I,m,m,None,811,484.0,327.0,81,,2145.399999976158,385000.8000000715,7723,silver,NF,C,381930,381930,380274,381086,380274,382419,381603,381603,382419,79
79,test,1,inc,1,m,Tue Dec 09 2025 15:33:09 GMT-0600 (Central Standard Time),389328.7000000477,kiwi,1000,I,m,m,None,647,447.0,200.0,103,,2178.899999976158,387149.8000000715,7723,gold,NF,C,384152,384152,382423,383436,382423,384602,383952,383952,384602,80
80,test,1,inc,1,z,Tue Dec 09 2025 15:33:09 GMT-0600 (Central Standard Time),391594.8000000715,iron,900,I,z,z,None,819,619.0,200.0,46,,2262.100000023842,389332.7000000477,7723,pear,NF,C,386235,386235,384606,385519,384606,386868,386035,386035,386868,81
81,test,1,con,1,z,Tue Dec 09 2025 15:33:09 GMT-0600 (Central Standard Time),393777.60000002384,banana,1000,I,z,z,None,638,438.0,200.0,3,,2178.7999999523163,391598.8000000715,7723,banana,NF,C,388601,388601,386872,387884,386872,389051,388401,388401,389051,82
82,test,1,con,1,z,Tue Dec 09 2025 15:33:09 GMT-0600 (Central Standard Time),396026.89999997616,plum,1000,I,z,z,None,709,510.0,199.0,59,,2245.5999999046326,393781.3000000715,7723,plum,NF,C,390784,390784,389054,390067,389055,391300,390584,390584,391300,83
83,test,1,con,1,m,Tue Dec 09 2025 15:33:09 GMT-0600 (Central Standard Time),398192.7000000477,cobalt,1000,I,m,m,None,629,430.0,199.0,91,,2162.0,396030.7000000477,7723,cobalt,NF,C,393033,393033,391304,392316,391304,393466,392833,392833,393466,84
84,test,1,con,1,m,Tue Dec 09 2025 15:33:09 GMT-0600 (Central Standard Time),400225.60000002384,zinc,800,I,m,m,None,688,488.0,200.0,113,,2028.8999999761581,398196.7000000477,7723,zinc,NF,C,394999,394999,393470,394283,393470,395499,394799,394799,395499,85
85,test,1,con,1,m,Tue Dec 09 2025 15:33:09 GMT-0600 (Central Standard Time),402441.5,copper,900,I,m,m,None,771,572.0,199.0,74,,2211.899999976158,400229.60000002384,7723,copper,NF,C,397131,397131,395503,396415,395503,397715,396932,396932,397715,86
86,test,1,con,1,m,Tue Dec 09 2025 15:33:09 GMT-0600 (Central Standard Time),404607.60000002384,cobalt,900,I,m,m,None,722,523.0,199.0,90,,2162.0,402445.60000002384,7723,cobalt,NF,C,399347,399347,397719,398631,397719,399881,399148,399148,399881,87
87,test,1,inc,1,m,Tue Dec 09 2025 15:33:09 GMT-0600 (Central Standard Time),406789.89999997616,pear,900,I,m,m,None,741,542.0,199.0,102,,2178.2999999523163,404611.60000002384,7723,gold,NF,C,401513,401513,399885,400797,399885,402063,401314,401314,402063,88
88,test,1,con,1,z,Tue Dec 09 2025 15:33:09 GMT-0600 (Central Standard Time),408772.8000000715,cherry,800,I,z,z,None,643,443.0,200.0,9,,1979.6000000238419,406793.2000000477,7723,cherry,NF,C,403596,403596,402066,402879,402066,404046,403396,403396,404046,89
89,test,1,con,1,z,Tue Dec 09 2025 15:33:09 GMT-0600 (Central Standard Time),411172.0,lime,1100,I,z,z,None,750,551.0,199.0,36,,2395.6999999284744,408776.3000000715,7723,lime,NF,C,405879,405879,404049,405162,404050,406445,405679,405679,406445,90
90,test,1,inc,1,m,Tue Dec 09 2025 15:33:09 GMT-0600 (Central Standard Time),413354.7000000477,orange,1000,I,m,m,None,637,437.0,200.0,71,,2178.899999976158,411175.8000000715,7723,bronze,NF,C,408178,408178,406449,407462,406449,408628,407978,407978,408628,91
91,test,1,inc,1,z,Tue Dec 09 2025 15:33:09 GMT-0600 (Central Standard Time),415554.2000000477,gold,800,I,z,z,None,854,654.0,200.0,53,,2195.600000023842,413358.60000002384,7723,kiwi,NF,C,410161,410161,408632,409444,408632,410827,409961,409961,410827,92
92,test,1,con,1,z,Tue Dec 09 2025 15:33:09 GMT-0600 (Central Standard Time),417586.60000002384,pear,900,I,z,z,None,587,387.0,200.0,42,,2028.7000000476837,415557.89999997616,7723,pear,NF,C,412460,412460,410831,411744,410831,412860,412260,412260,412860,93
93,test,1,inc,1,m,Tue Dec 09 2025 15:33:09 GMT-0600 (Central Standard Time),419852.7000000477,plum,1100,I,m,m,None,616,417.0,199.0,120,,2262.399999976158,417590.3000000715,7723,zinc,NF,C,414693,414693,412863,413976,412864,415126,414493,414493,415126,94
94,test,1,con,1,z,Tue Dec 09 2025 15:33:09 GMT-0600 (Central Standard Time),422251.89999997616,lime,1000,I,z,z,None,860,660.0,200.0,35,,2395.5999999046326,419856.3000000715,7723,lime,NF,C,416859,416859,415129,416142,415130,417525,416659,416659,417525,95
95,test,1,con,1,z,Tue Dec 09 2025 15:33:09 GMT-0600 (Central Standard Time),424284.5,plum,900,I,z,z,None,591,392.0,199.0,58,,2028.7999999523163,422255.7000000477,7723,plum,NF,C,419158,419158,417529,418441,417529,419558,418958,418958,419557,96
96,test,1,con,1,m,Tue Dec 09 2025 15:33:09 GMT-0600 (Central Standard Time),426267.2000000477,silver,900,I,m,m,None,535,336.0,199.0,82,,1978.8000000715256,424288.39999997616,7723,silver,NF,C,421191,421191,419561,420474,419562,421540,420991,420991,421540,97
97,test,1,con,1,m,Tue Dec 09 2025 15:33:09 GMT-0600 (Central Standard Time),428483.3000000715,silver,1100,I,m,m,None,569,370.0,199.0,84,,2212.4000000953674,426270.89999997616,7723,silver,NF,C,423373,423373,421544,422657,421544,423756,423173,423174,423756,98
98,test,1,con,1,m,Tue Dec 09 2025 15:33:09 GMT-0600 (Central Standard Time),430666.0,lead,900,I,m,m,None,738,538.0,200.0,122,,2178.600000023842,428487.39999997616,7723,lead,NF,C,425389,425389,423760,424673,423761,425939,425189,425189,425939,99
98,test,1,con,0,z,Tue Dec 09 2025 15:33:09 GMT-0600 (Central Standard Time),432582.10000002384,orange,800,I,m,m,None,583,383.0,200.0,17,,1912.5,430669.60000002384,7723,orange,NF,C,427472,427472,425943,426756,425943,427855,427272,427272,427855,100
99,test,1,inc,1,z,Tue Dec 09 2025 15:33:09 GMT-0600 (Central Standard Time),434731.3000000715,iron,900,I,z,z,None,711,511.0,200.0,54,,2145.7000000476837,432585.60000002384,7723,kiwi,NF,C,429488,429488,427859,428772,427859,430004,429288,429288,430004,101
100,test,1,con,1,m,Tue Dec 09 2025 15:33:09 GMT-0600 (Central Standard Time),437080.5,gold,1000,I,m,m,None,812,613.0,199.0,99,,2345.399999976158,434735.10000002384,7723,gold,NF,C,431737,431737,430008,431021,430008,432354,431537,431538,432354,102
101,test,1,inc,1,m,Tue Dec 09 2025 15:33:09 GMT-0600 (Central Standard Time),439413.2000000477,orange,1000,I,m,m,None,782,567.0,215.0,87,,2328.899999976158,437084.3000000715,7723,silver,NF,C,434103,434103,432357,433370,432358,434686,433888,433888,434686,103
102,test,1,con,1,m,Tue Dec 09 2025 15:33:09 GMT-0600 (Central Standard Time),441695.8000000715,silver,1000,I,m,m,None,739,540.0,199.0,83,,2278.5,439417.3000000715,7723,silver,NF,C,436419,436419,434690,435703,434690,436969,436220,436220,436969,104
103,test,1,con,1,z,Tue Dec 09 2025 15:33:09 GMT-0600 (Central Standard Time),443895.10000002384,raisin,900,I,z,z,None,757,557.0,200.0,26,,2195.7000000476837,441699.39999997616,7723,raisin,NF,C,438602,438602,436972,437885,436973,439168,438402,438402,439168,105
104,test,1,inc,1,m,Tue Dec 09 2025 15:33:09 GMT-0600 (Central Standard Time),446211.10000002384,raisin,1100,I,m,m,None,669,469.0,200.0,80,,2312.5,443898.60000002384,7723,copper,NF,C,441001,441001,439172,440285,439172,441484,440801,440801,441484,106
105,test,1,con,1,z,Tue Dec 09 2025 15:33:09 GMT-0600 (Central Standard Time),448493.7000000477,banana,800,I,z,z,None,934,734.0,200.0,1,,2278.5,446215.2000000477,7723,banana,NF,C,443017,443017,441488,442301,441489,443767,442817,442817,443767,107
106,test,1,con,1,m,Tue Dec 09 2025 15:33:09 GMT-0600 (Central Standard Time),450692.89999997616,gold,900,I,m,m,None,750,551.0,199.0,98,,2195.5,448497.39999997616,7723,gold,NF,C,445400,445400,443770,444683,443771,445966,445200,445200,445966,108
107,test,1,con,1,m,Tue Dec 09 2025 15:33:09 GMT-0600 (Central Standard Time),453175.60000002384,iron,1100,I,m,m,None,847,647.0,200.0,108,,2478.7000000476837,450696.89999997616,7723,iron,NF,C,447799,447799,445970,447083,445970,448449,447599,447599,448449,109
108,test,1,con,1,m,Tue Dec 09 2025 15:33:09 GMT-0600 (Central Standard Time),455491.5,gold,1100,I,m,m,None,675,476.0,199.0,100,,2311.7999999523163,453179.7000000477,7723,gold,NF,C,450282,450282,448453,449565,448453,450765,450082,450082,450765,110
109,test,1,inc,1,m,Tue Dec 09 2025 15:33:09 GMT-0600 (Central Standard Time),458057.10000002384,raisin,1100,I,m,m,None,794,585.0,209.0,72,,2561.2000000476837,455495.89999997616,7723,bronze,NF,C,452734,452734,450769,451881,450769,453330,452525,452525,453330,111
110,test,1,con,1,m,Tue Dec 09 2025 15:33:09 GMT-0600 (Central Standard Time),460523.3000000715,bronze,1100,I,m,m,None,820,620.0,200.0,68,,2462.5,458060.8000000715,7723,bronze,NF,C,455163,455163,453334,454447,453334,455796,454963,454963,455796,112
111,test,1,inc,1,m,Tue Dec 09 2025 15:33:09 GMT-0600 (Central Standard Time),462839.2000000477,cherry,900,I,m,m,None,880,681.0,199.0,70,,2312.2000000476837,460527.0,7723,bronze,NF,C,457429,457429,455800,456713,455800,458112,457230,457230,458112,113
112,test,1,inc,1,z,Tue Dec 09 2025 15:33:09 GMT-0600 (Central Standard Time),465221.8000000715,gold,800,I,z,z,None,1034,834.0,200.0,37,,2378.9000000953674,462842.89999997616,7723,lime,NF,C,459645,459645,458116,458929,458116,460495,459445,459445,460495,114
113,test,1,con,1,z,Tue Dec 09 2025 15:33:09 GMT-0600 (Central Standard Time),467504.39999997616,cherry,1000,I,z,z,None,745,546.0,199.0,11,,2279.0,465225.39999997616,7723,cherry,NF,C,462227,462228,460498,461511,460499,462778,462028,462028,462777,115
114,test,1,inc,1,z,Tue Dec 09 2025 15:33:09 GMT-0600 (Central Standard Time),469803.89999997616,cobalt,1100,I,z,z,None,661,461.0,200.0,32,,2295.899999976158,467508.0,7723,raisin,NF,C,464610,464610,462781,463894,462781,465077,464410,464410,465077,116
115,test,1,con,1,z,Tue Dec 09 2025 15:33:09 GMT-0600 (Central Standard Time),471753.10000002384,banana,900,I,z,z,None,504,305.0,199.0,2,,1945.5,469807.60000002384,7723,banana,NF,C,466710,466710,465081,465993,465081,467026,466510,466510,467026,117
116,test,1,inc,1,z,Tue Dec 09 2025 15:33:09 GMT-0600 (Central Standard Time),473869.10000002384,copper,900,I,z,z,None,667,467.0,200.0,6,,2111.899999976158,471757.2000000477,7723,banana,NF,C,468659,468659,467030,467943,467030,469142,468459,468459,469142,118
117,test,1,inc,1,z,Tue Dec 09 2025 15:33:09 GMT-0600 (Central Standard Time),475918.60000002384,bronze,800,I,z,z,None,708,508.0,200.0,13,,2046.0,473872.60000002384,7723,cherry,NF,C,470675,470675,469146,469959,469146,471192,470475,470475,471192,119
118,test,1,con,1,z,Tue Dec 09 2025 15:33:09 GMT-0600 (Central Standard Time),478151.10000002384,lime,900,I,z,z,None,790,590.0,200.0,34,,2228.5,475922.60000002384,7723,lime,NF,C,472825,472825,471196,472108,471196,473424,472624,472624,473424,120
119,test,1,con,1,z,Tue Dec 09 2025 15:33:09 GMT-0600 (Central Standard Time),480383.7000000477,banana,1100,I,z,z,None,590,390.0,200.0,4,,2228.7000000476837,478155.0,7723,banana,NF,C,475257,475257,473428,474541,473428,475657,475057,475057,475657,121
120,test,1,con,1,z,Tue Dec 09 2025 15:33:09 GMT-0600 (Central Standard Time),482866.2000000477,orange,1000,I,z,z,None,937,737.0,200.0,19,,2478.899999976158,480387.3000000715,7723,orange,NF,C,477390,477390,475660,476673,475661,478139,477190,477190,478139,122
121,test,1,con,1,m,Tue Dec 09 2025 15:33:09 GMT-0600 (Central Standard Time),484898.89999997616,iron,900,I,m,m,None,594,394.0,200.0,106,,2029.1999999284744,482869.7000000477,7723,iron,NF,C,479772,479772,478143,479056,478143,480172,479572,479572,480172,123
122,test,1,con,1,m,Tue Dec 09 2025 15:33:09 GMT-0600 (Central Standard Time),486798.0,gold,800,I,m,m,None,565,364.0,201.0,97,,1895.5,484902.5,7723,gold,NF,C,481706,481706,480176,480988,480176,482071,481505,481505,482071,124
123,test,1,inc,1,z,Tue Dec 09 2025 15:33:09 GMT-0600 (Central Standard Time),489297.39999997616,cobalt,1100,I,z,z,None,854,654.0,200.0,16,,2496.0,486801.39999997616,7723,cherry,NF,C,483904,483904,482074,483188,482075,484571,483704,483704,484570,125
124,test,1,inc,1,z,Tue Dec 09 2025 15:33:09 GMT-0600 (Central Standard Time),491363.39999997616,bronze,800,I,z,z,None,718,518.0,200.0,21,,2061.6999999284744,489301.7000000477,7723,orange,NF,C,486104,486104,484575,485388,484575,486637,485904,485904,486636,126
125,test,1,inc,1,m,Tue Dec 09 2025 15:33:09 GMT-0600 (Central Standard Time),493529.60000002384,pear,900,I,m,m,None,728,529.0,199.0,118,,2162.2999999523163,491367.3000000715,7723,zinc,NF,C,488270,488270,486640,487553,486641,488803,488070,488070,488803,127
126,test,1,inc,1,z,Tue Dec 09 2025 15:33:09 GMT-0600 (Central Standard Time),495661.8000000715,zinc,1000,I,z,z,None,597,398.0,199.0,39,,2128.600000023842,493533.2000000477,7723,lime,NF,C,490536,490536,488806,489819,488806,490935,490336,490336,490935,128
