acc_sum,block,block_c,block_cond,con_img,correct,correct_response,datetime,endtime,face,jitter,line,project,response,response_time,row_sel,session_number,start_end,starttime,subject_id,task,task_vers,trial
1,prac,1,A,haborder.png,1,m,Tue Apr 21 2026 17:32:31 GMT-0500 (Central Daylight Time),68024.69999998808,CFD-BF-028-020-HC.jpg,2000,solid,I,m,1257,5,3,4032.2999999821186,63992.40000000596,8076,ATS,A,1
2,prac,1,A,haborder.png,1,z,Tue Apr 21 2026 17:32:31 GMT-0500 (Central Daylight Time),71056.90000000596,CFD-BM-005-010-A.jpg,1600,solid,I,z,648,2,3,7064.5,63992.40000000596,8076,ATS,A,2
3,prac,1,A,haborder.png,1,m,Tue Apr 21 2026 17:32:31 GMT-0500 (Central Daylight Time),74222.40000000596,CFD-WM-006-013-HC.jpg,1700,solid,I,m,676,9,3,10230.0,63992.40000000596,8076,ATS,A,3
4,prac,1,A,haborder.png,1,m,Tue Apr 21 2026 17:32:31 GMT-0500 (Central Daylight Time),77621.69999998808,CFD-BM-029-026-HC.jpg,1500,solid,I,m,1102,3,3,13629.299999982119,63992.40000000596,8076,ATS,A,4
5,prac,1,A,haborder.png,1,m,Tue Apr 21 2026 17:32:31 GMT-0500 (Central Daylight Time),80587.19999998808,CFD-WF-017-016-HC.jpg,1500,solid,I,m,679,11,3,16594.79999998212,63992.40000000596,8076,ATS,A,5
6,prac,1,A,haborder.png,1,m,Tue Apr 21 2026 17:32:31 GMT-0500 (Central Daylight Time),83786.5,CFD-BM-017-052-HC.jpg,1700,solid,I,m,705,1,3,19794.09999999404,63992.40000000596,8076,ATS,A,6
7,prac,1,A,haborder.png,1,z,Tue Apr 21 2026 17:32:31 GMT-0500 (Central Daylight Time),86552.09999999404,CFD-BF-039-039-A.jpg,1200,solid,I,z,775,6,3,22559.69999998808,63992.40000000596,8076,ATS,A,7
8,prac,1,A,haborder.png,1,z,Tue Apr 21 2026 17:32:31 GMT-0500 (Central Daylight Time),89168.0,CFD-WF-019-015-A.jpg,1000,solid,I,z,817,12,3,25175.59999999404,63992.40000000596,8076,ATS,A,8
9,prac,1,A,haborder.png,1,m,Tue Apr 21 2026 17:32:31 GMT-0500 (Central Daylight Time),92116.79999998212,CFD-WM-004-005-HC.jpg,1400,solid,I,m,655,7,3,28124.399999976158,63992.40000000596,8076,ATS,A,9
10,prac,1,A,haborder.png,1,z,Tue Apr 21 2026 17:32:31 GMT-0500 (Central Daylight Time),95016.0,CFD-BF-023-013-A.jpg,1000,solid,I,z,1099,4,3,31023.59999999404,63992.40000000596,8076,ATS,A,10
11,prac,1,A,haborder.png,1,z,Tue Apr 21 2026 17:32:31 GMT-0500 (Central Daylight Time),98631.69999998808,CFD-WM-013-015-A.jpg,1900,solid,I,z,925,8,3,34639.29999998212,63992.40000000596,8076,ATS,A,11
12,prac,1,A,haborder.png,1,z,Tue Apr 21 2026 17:32:31 GMT-0500 (Central Daylight Time),101647.29999998212,CFD-WF-003-014-A.jpg,1600,solid,I,z,617,10,3,37654.89999997616,63992.40000000596,8076,ATS,A,12
1,prac,1,B,mfborder.png,1,z,Tue Apr 21 2026 17:32:31 GMT-0500 (Central Daylight Time),130806.0,CFD-BF-028-020-HC.jpg,1400,dash,I,z,894,7,3,3083.7000000178814,127722.29999998212,8076,ATS,A,1
2,prac,1,B,mfborder.png,1,m,Tue Apr 21 2026 17:32:31 GMT-0500 (Central Daylight Time),133855.0,CFD-BM-029-026-HC.jpg,1700,dash,I,m,552,1,3,6132.700000017881,127722.29999998212,8076,ATS,A,2
3,prac,1,B,mfborder.png,1,m,Tue Apr 21 2026 17:32:31 GMT-0500 (Central Daylight Time),137944.40000000596,CFD-BM-005-010-A.jpg,2000,dash,I,m,1179,5,3,10222.100000023842,127722.29999998212,8076,ATS,A,3
4,prac,1,B,mfborder.png,1,z,Tue Apr 21 2026 17:32:31 GMT-0500 (Central Daylight Time),140768.40000000596,CFD-WF-017-016-HC.jpg,1000,dash,I,z,1041,12,3,13046.100000023842,127722.29999998212,8076,ATS,A,4
5,prac,1,B,mfborder.png,1,m,Tue Apr 21 2026 17:32:31 GMT-0500 (Central Daylight Time),143685.09999999404,CFD-BM-010-019-A.jpg,1600,dash,I,m,537,2,3,15962.800000011921,127722.29999998212,8076,ATS,A,5
6,prac,1,B,mfborder.png,1,z,Tue Apr 21 2026 17:32:31 GMT-0500 (Central Daylight Time),146400.0,CFD-BF-023-013-A.jpg,1000,dash,I,z,932,4,3,18677.70000001788,127722.29999998212,8076,ATS,A,6
7,prac,1,B,mfborder.png,1,z,Tue Apr 21 2026 17:32:31 GMT-0500 (Central Daylight Time),150148.79999998212,CFD-WF-002-008-HC.jpg,1900,dash,I,z,1053,8,3,22426.5,127722.29999998212,8076,ATS,A,7
8,prac,1,B,mfborder.png,1,m,Tue Apr 21 2026 17:32:31 GMT-0500 (Central Daylight Time),152999.09999999404,CFD-WM-019-013-A.jpg,1200,dash,I,m,877,6,3,25276.80000001192,127722.29999998212,8076,ATS,A,8
9,prac,1,B,mfborder.png,1,z,Tue Apr 21 2026 17:32:31 GMT-0500 (Central Daylight Time),155980.0,CFD-BF-010-005-HC.jpg,1500,dash,I,z,687,3,3,28257.70000001788,127722.29999998212,8076,ATS,A,9
10,prac,1,B,mfborder.png,1,z,Tue Apr 21 2026 17:32:31 GMT-0500 (Central Daylight Time),159012.59999999404,CFD-WF-003-014-A.jpg,1500,dash,I,z,743,11,3,31290.30000001192,127722.29999998212,8076,ATS,A,10
11,prac,1,B,mfborder.png,1,m,Tue Apr 21 2026 17:32:31 GMT-0500 (Central Daylight Time),162278.59999999404,CFD-WM-013-015-A.jpg,1700,dash,I,m,793,9,3,34556.30000001192,127722.29999998212,8076,ATS,A,11
12,prac,1,B,mfborder.png,1,m,Tue Apr 21 2026 17:32:31 GMT-0500 (Central Daylight Time),165510.79999998212,CFD-WM-006-013-HC.jpg,1600,dash,I,m,834,10,3,37788.5,127722.29999998212,8076,ATS,A,12
1,test,1,A,haborder.png,1,m,Tue Apr 21 2026 17:32:31 GMT-0500 (Central Daylight Time),190902.59999999404,CFD-BF-028-020-HC.jpg,2000,solid,I,m,878,5,3,2899.0,188003.59999999404,8076,ATS,A,1
2,test,1,A,haborder.png,1,m,Tue Apr 21 2026 17:32:31 GMT-0500 (Central Daylight Time),193601.69999998808,CFD-BF-028-020-HC.jpg,2000,solid,I,m,675,5,3,5598.0999999940395,188003.59999999404,8076,ATS,A,2
3,test,1,A,haborder.png,1,z,Tue Apr 21 2026 17:32:31 GMT-0500 (Central Daylight Time),196067.69999998808,CFD-WF-003-014-A.jpg,1600,solid,I,z,847,10,3,8064.0999999940395,188003.59999999404,8076,ATS,A,3
4,test,1,A,haborder.png,1,z,Tue Apr 21 2026 17:32:31 GMT-0500 (Central Daylight Time),198800.19999998808,CFD-WM-013-015-A.jpg,1900,solid,I,z,809,8,3,10796.59999999404,188003.59999999404,8076,ATS,A,4
5,test,1,A,haborder.png,1,m,Tue Apr 21 2026 17:32:31 GMT-0500 (Central Daylight Time),200915.90000000596,CFD-WM-004-005-HC.jpg,1400,solid,I,m,688,7,3,12912.300000011921,188003.59999999404,8076,ATS,A,5
6,test,1,A,haborder.png,1,z,Tue Apr 21 2026 17:32:31 GMT-0500 (Central Daylight Time),203615.09999999404,CFD-WM-013-015-A.jpg,1900,solid,I,z,768,8,3,15611.5,188003.59999999404,8076,ATS,A,6
7,test,1,A,haborder.png,1,m,Tue Apr 21 2026 17:32:31 GMT-0500 (Central Daylight Time),205714.29999998212,CFD-WF-017-016-HC.jpg,1500,solid,I,m,581,11,3,17710.69999998808,188003.59999999404,8076,ATS,A,7
8,test,1,A,haborder.png,1,z,Tue Apr 21 2026 17:32:31 GMT-0500 (Central Daylight Time),207880.79999998212,CFD-WF-003-014-A.jpg,1600,solid,I,z,534,10,3,19877.19999998808,188003.59999999404,8076,ATS,A,8
9,test,1,A,haborder.png,1,m,Tue Apr 21 2026 17:32:31 GMT-0500 (Central Daylight Time),210279.90000000596,CFD-WM-006-013-HC.jpg,1700,solid,I,m,668,9,3,22276.30000001192,188003.59999999404,8076,ATS,A,9
10,test,1,A,haborder.png,1,m,Tue Apr 21 2026 17:32:31 GMT-0500 (Central Daylight Time),212795.69999998808,CFD-BM-017-052-HC.jpg,1700,solid,I,m,797,1,3,24792.09999999404,188003.59999999404,8076,ATS,A,10
11,test,1,A,haborder.png,1,z,Tue Apr 21 2026 17:32:31 GMT-0500 (Central Daylight Time),214662.0,CFD-BF-039-039-A.jpg,1200,solid,I,z,638,6,3,26658.40000000596,188003.59999999404,8076,ATS,A,11
12,test,1,A,haborder.png,1,m,Tue Apr 21 2026 17:32:31 GMT-0500 (Central Daylight Time),217027.59999999404,CFD-WM-006-013-HC.jpg,1700,solid,I,m,647,9,3,29024.0,188003.59999999404,8076,ATS,A,12
13,test,1,A,haborder.png,1,z,Tue Apr 21 2026 17:32:31 GMT-0500 (Central Daylight Time),219327.19999998808,CFD-BM-005-010-A.jpg,1600,solid,I,z,669,2,3,31323.59999999404,188003.59999999404,8076,ATS,A,13
14,test,1,A,haborder.png,1,z,Tue Apr 21 2026 17:32:31 GMT-0500 (Central Daylight Time),220926.5,CFD-BF-023-013-A.jpg,1000,solid,I,z,577,4,3,32922.90000000596,188003.59999999404,8076,ATS,A,14
15,test,1,A,haborder.png,1,m,Tue Apr 21 2026 17:32:31 GMT-0500 (Central Daylight Time),223142.40000000596,CFD-BM-029-026-HC.jpg,1500,solid,I,m,694,3,3,35138.80000001192,188003.59999999404,8076,ATS,A,15
16,test,1,A,haborder.png,1,z,Tue Apr 21 2026 17:32:31 GMT-0500 (Central Daylight Time),225375.19999998808,CFD-BM-005-010-A.jpg,1600,solid,I,z,603,2,3,37371.59999999404,188003.59999999404,8076,ATS,A,16
17,test,1,A,haborder.png,1,z,Tue Apr 21 2026 17:32:31 GMT-0500 (Central Daylight Time),227441.40000000596,CFD-BF-039-039-A.jpg,1200,solid,I,z,833,6,3,39437.80000001192,188003.59999999404,8076,ATS,A,17
18,test,1,A,haborder.png,1,z,Tue Apr 21 2026 17:32:31 GMT-0500 (Central Daylight Time),229040.90000000596,CFD-BF-023-013-A.jpg,1000,solid,I,z,575,4,3,41037.30000001192,188003.59999999404,8076,ATS,A,18
19,test,1,A,haborder.png,1,z,Tue Apr 21 2026 17:32:31 GMT-0500 (Central Daylight Time),230557.09999999404,CFD-WF-019-015-A.jpg,1000,solid,I,z,487,12,3,42553.5,188003.59999999404,8076,ATS,A,19
20,test,1,A,haborder.png,1,m,Tue Apr 21 2026 17:32:31 GMT-0500 (Central Daylight Time),232806.29999998212,CFD-BM-017-052-HC.jpg,1700,solid,I,m,526,1,3,44802.69999998808,188003.59999999404,8076,ATS,A,20
21,test,1,A,haborder.png,1,m,Tue Apr 21 2026 17:32:31 GMT-0500 (Central Daylight Time),234922.19999998808,CFD-WM-004-005-HC.jpg,1400,solid,I,m,690,7,3,46918.59999999404,188003.59999999404,8076,ATS,A,21
22,test,1,A,haborder.png,1,m,Tue Apr 21 2026 17:32:31 GMT-0500 (Central Daylight Time),237039.29999998212,CFD-BM-029-026-HC.jpg,1500,solid,I,m,586,3,3,49035.69999998808,188003.59999999404,8076,ATS,A,22
23,test,1,A,haborder.png,1,z,Tue Apr 21 2026 17:32:31 GMT-0500 (Central Daylight Time),238688.69999998808,CFD-WF-019-015-A.jpg,1000,solid,I,z,626,12,3,50685.09999999404,188003.59999999404,8076,ATS,A,23
24,test,1,A,haborder.png,1,m,Tue Apr 21 2026 17:32:31 GMT-0500 (Central Daylight Time),240853.69999998808,CFD-WF-017-016-HC.jpg,1500,solid,I,m,646,11,3,52850.09999999404,188003.59999999404,8076,ATS,A,24
1,test,1,B,mfborder.png,1,z,Tue Apr 21 2026 17:32:31 GMT-0500 (Central Daylight Time),259664.29999998212,CFD-BF-028-020-HC.jpg,1400,dash,I,z,577,7,3,1999.199999988079,257665.09999999404,8076,ATS,A,1
2,test,1,B,mfborder.png,1,z,Tue Apr 21 2026 17:32:31 GMT-0500 (Central Daylight Time),261197.29999998212,CFD-WF-017-016-HC.jpg,1000,dash,I,z,503,12,3,3532.199999988079,257665.09999999404,8076,ATS,A,2
3,test,1,B,mfborder.png,1,m,Tue Apr 21 2026 17:32:31 GMT-0500 (Central Daylight Time),263263.40000000596,CFD-WM-006-013-HC.jpg,1600,dash,I,m,443,10,3,5598.300000011921,257665.09999999404,8076,ATS,A,3
4,test,1,B,mfborder.png,1,m,Tue Apr 21 2026 17:32:31 GMT-0500 (Central Daylight Time),265629.1999999881,CFD-WM-013-015-A.jpg,1700,dash,I,m,637,9,3,7964.0999999940395,257665.09999999404,8076,ATS,A,4
5,test,1,B,mfborder.png,1,z,Tue Apr 21 2026 17:32:31 GMT-0500 (Central Daylight Time),267612.0,CFD-WF-003-014-A.jpg,1500,dash,I,z,463,11,3,9946.90000000596,257665.09999999404,8076,ATS,A,5
6,test,1,B,mfborder.png,1,m,Tue Apr 21 2026 17:32:31 GMT-0500 (Central Daylight Time),270144.5,CFD-BM-010-019-A.jpg,1600,dash,I,m,908,2,3,12479.40000000596,257665.09999999404,8076,ATS,A,6
7,test,1,B,mfborder.png,1,m,Tue Apr 21 2026 17:32:31 GMT-0500 (Central Daylight Time),272360.40000000596,CFD-WM-006-013-HC.jpg,1600,dash,I,m,592,10,3,14695.300000011921,257665.09999999404,8076,ATS,A,7
8,test,1,B,mfborder.png,1,m,Tue Apr 21 2026 17:32:31 GMT-0500 (Central Daylight Time),275009.6999999881,CFD-BM-005-010-A.jpg,2000,dash,I,m,616,5,3,17344.59999999404,257665.09999999404,8076,ATS,A,8
9,test,1,B,mfborder.png,1,m,Tue Apr 21 2026 17:32:31 GMT-0500 (Central Daylight Time),277275.59999999404,CFD-BM-029-026-HC.jpg,1700,dash,I,m,539,1,3,19610.5,257665.09999999404,8076,ATS,A,9
10,test,1,B,mfborder.png,1,m,Tue Apr 21 2026 17:32:31 GMT-0500 (Central Daylight Time),279352.5,CFD-WM-019-013-A.jpg,1200,dash,I,m,860,6,3,21687.40000000596,257665.09999999404,8076,ATS,A,10
11,test,1,B,mfborder.png,1,m,Tue Apr 21 2026 17:32:31 GMT-0500 (Central Daylight Time),281057.40000000596,CFD-WM-019-013-A.jpg,1200,dash,I,m,498,6,3,23392.30000001192,257665.09999999404,8076,ATS,A,11
12,test,1,B,mfborder.png,1,z,Tue Apr 21 2026 17:32:31 GMT-0500 (Central Daylight Time),283040.40000000596,CFD-BF-010-005-HC.jpg,1500,dash,I,z,459,3,3,25375.30000001192,257665.09999999404,8076,ATS,A,12
13,test,1,B,mfborder.png,1,m,Tue Apr 21 2026 17:32:31 GMT-0500 (Central Daylight Time),285390.6999999881,CFD-WM-013-015-A.jpg,1700,dash,I,m,620,9,3,27725.59999999404,257665.09999999404,8076,ATS,A,13
14,test,1,B,mfborder.png,1,z,Tue Apr 21 2026 17:32:31 GMT-0500 (Central Daylight Time),286989.09999999404,CFD-BF-023-013-A.jpg,1000,dash,I,z,579,4,3,29324.0,257665.09999999404,8076,ATS,A,14
15,test,1,B,mfborder.png,1,m,Tue Apr 21 2026 17:32:31 GMT-0500 (Central Daylight Time),289455.09999999404,CFD-BM-029-026-HC.jpg,1700,dash,I,m,744,1,3,31790.0,257665.09999999404,8076,ATS,A,15
16,test,1,B,mfborder.png,1,z,Tue Apr 21 2026 17:32:31 GMT-0500 (Central Daylight Time),291904.40000000596,CFD-WF-003-014-A.jpg,1500,dash,I,z,917,11,3,34239.30000001192,257665.09999999404,8076,ATS,A,16
17,test,1,B,mfborder.png,1,m,Tue Apr 21 2026 17:32:31 GMT-0500 (Central Daylight Time),294453.5,CFD-BM-005-010-A.jpg,2000,dash,I,m,521,5,3,36788.40000000596,257665.09999999404,8076,ATS,A,17
18,test,1,B,mfborder.png,1,z,Tue Apr 21 2026 17:32:31 GMT-0500 (Central Daylight Time),297085.90000000596,CFD-WF-002-008-HC.jpg,1900,dash,I,z,704,8,3,39420.80000001192,257665.09999999404,8076,ATS,A,18
19,test,1,B,mfborder.png,1,m,Tue Apr 21 2026 17:32:31 GMT-0500 (Central Daylight Time),299285.09999999404,CFD-BM-010-019-A.jpg,1600,dash,I,m,578,2,3,41620.0,257665.09999999404,8076,ATS,A,19
20,test,1,B,mfborder.png,1,z,Tue Apr 21 2026 17:32:31 GMT-0500 (Central Daylight Time),301017.6999999881,CFD-BF-023-013-A.jpg,1000,dash,I,z,715,4,3,43352.59999999404,257665.09999999404,8076,ATS,A,20
21,test,1,B,mfborder.png,1,z,Tue Apr 21 2026 17:32:31 GMT-0500 (Central Daylight Time),302601.0,CFD-WF-017-016-HC.jpg,1000,dash,I,z,550,12,3,44935.90000000596,257665.09999999404,8076,ATS,A,21
22,test,1,B,mfborder.png,1,z,Tue Apr 21 2026 17:32:31 GMT-0500 (Central Daylight Time),304733.5,CFD-BF-010-005-HC.jpg,1500,dash,I,z,602,3,3,47068.40000000596,257665.09999999404,8076,ATS,A,22
23,test,1,B,mfborder.png,1,z,Tue Apr 21 2026 17:32:31 GMT-0500 (Central Daylight Time),307132.90000000596,CFD-WF-002-008-HC.jpg,1900,dash,I,z,479,8,3,49467.80000001192,257665.09999999404,8076,ATS,A,23
24,test,1,B,mfborder.png,1,z,Tue Apr 21 2026 17:32:31 GMT-0500 (Central Daylight Time),309065.7999999821,CFD-BF-028-020-HC.jpg,1400,dash,I,z,508,7,3,51400.69999998808,257665.09999999404,8076,ATS,A,24
0,prac,1,C,mfborder.png,0,m,Tue Apr 21 2026 17:32:31 GMT-0500 (Central Daylight Time),365481.2999999821,CFD-BM-005-010-A.jpg,1200,dash,I,None,1515,5,3,3499.0,361982.2999999821,8076,ATS,A,1
1,prac,1,C,haborder.png,1,m,Tue Apr 21 2026 17:32:31 GMT-0500 (Central Daylight Time),368413.7999999821,CFD-WM-004-005-HC.jpg,1000,dash,I,m,1136,11,3,6431.5,361982.2999999821,8076,ATS,A,2
2,prac,1,C,mfborder.png,1,z,Tue Apr 21 2026 17:32:31 GMT-0500 (Central Daylight Time),372145.90000000596,CFD-WF-017-016-HC.jpg,1600,dash,I,z,1340,1,3,10163.600000023842,361982.2999999821,8076,ATS,A,3
3,prac,1,C,haborder.png,1,z,Tue Apr 21 2026 17:32:31 GMT-0500 (Central Daylight Time),375344.6999999881,CFD-WF-003-014-A.jpg,1600,dash,I,z,811,9,3,13362.40000000596,361982.2999999821,8076,ATS,A,4
4,prac,1,C,haborder.png,1,z,Tue Apr 21 2026 17:32:31 GMT-0500 (Central Daylight Time),378677.09999999404,CFD-BF-039-039-A.jpg,1700,solid,I,z,845,8,3,16694.80000001192,361982.2999999821,8076,ATS,A,5
5,prac,1,C,haborder.png,1,m,Tue Apr 21 2026 17:32:31 GMT-0500 (Central Daylight Time),381942.7999999821,CFD-BM-029-026-HC.jpg,1500,solid,I,m,967,10,3,19960.5,361982.2999999821,8076,ATS,A,6
6,prac,1,C,mfborder.png,1,m,Tue Apr 21 2026 17:32:31 GMT-0500 (Central Daylight Time),385458.59999999404,CFD-BM-017-052-HC.jpg,2000,solid,I,m,730,4,3,23476.30000001192,361982.2999999821,8076,ATS,A,7
7,prac,1,C,mfborder.png,1,m,Tue Apr 21 2026 17:32:31 GMT-0500 (Central Daylight Time),388807.40000000596,CFD-WM-013-015-A.jpg,1700,solid,I,m,859,6,3,26825.100000023842,361982.2999999821,8076,ATS,A,8
7,prac,1,C,haborder.png,0,z,Tue Apr 21 2026 17:32:31 GMT-0500 (Central Daylight Time),392356.09999999404,CFD-BF-023-013-A.jpg,1900,dash,I,m,862,7,3,30373.80000001192,361982.2999999821,8076,ATS,A,9
8,prac,1,C,mfborder.png,1,z,Tue Apr 21 2026 17:32:31 GMT-0500 (Central Daylight Time),395155.5,CFD-BF-028-020-HC.jpg,1000,dash,I,z,1004,3,3,33173.20000001788,361982.2999999821,8076,ATS,A,10
9,prac,1,C,mfborder.png,1,z,Tue Apr 21 2026 17:32:31 GMT-0500 (Central Daylight Time),398587.5,CFD-WF-019-015-A.jpg,1500,solid,I,z,1146,2,3,36605.20000001788,361982.2999999821,8076,ATS,A,11
10,prac,1,C,haborder.png,1,m,Tue Apr 21 2026 17:32:31 GMT-0500 (Central Daylight Time),402019.90000000596,CFD-WM-004-005-HC.jpg,1400,solid,I,m,1238,12,3,40037.60000002384,361982.2999999821,8076,ATS,A,12
1,test,1,C,mfborder.png,1,m,Tue Apr 21 2026 17:32:31 GMT-0500 (Central Daylight Time),420798.1999999881,CFD-BM-029-026-HC.jpg,1200,dash,I,m,1154,6,3,2383.7999999821186,418414.40000000596,8076,ATS,A,1
2,test,1,C,mfborder.png,1,z,Tue Apr 21 2026 17:32:31 GMT-0500 (Central Daylight Time),423179.6999999881,CFD-WF-003-014-A.jpg,1500,dash,I,z,856,3,3,4765.299999982119,418414.40000000596,8076,ATS,A,2
3,test,1,C,mfborder.png,1,z,Tue Apr 21 2026 17:32:31 GMT-0500 (Central Daylight Time),425429.0,CFD-WF-003-014-A.jpg,1500,dash,I,z,730,3,3,7014.5999999940395,418414.40000000596,8076,ATS,A,3
3,test,1,C,haborder.png,0,z,Tue Apr 21 2026 17:32:31 GMT-0500 (Central Daylight Time),428178.09999999404,CFD-BM-005-010-A.jpg,1900,solid,I,m,823,8,3,9763.699999988079,418414.40000000596,8076,ATS,A,4
3,test,1,C,haborder.png,0,z,Tue Apr 21 2026 17:32:31 GMT-0500 (Central Daylight Time),430993.6999999881,CFD-BM-005-010-A.jpg,1900,solid,I,m,891,8,3,12579.299999982119,418414.40000000596,8076,ATS,A,5
3,test,1,C,haborder.png,0,m,Tue Apr 21 2026 17:32:31 GMT-0500 (Central Daylight Time),434127.1999999881,CFD-BF-028-020-HC.jpg,1600,solid,I,None,1517,10,3,15712.799999982119,418414.40000000596,8076,ATS,A,6
3,test,1,C,haborder.png,0,m,Tue Apr 21 2026 17:32:31 GMT-0500 (Central Daylight Time),436608.6999999881,CFD-BF-028-020-HC.jpg,1600,solid,I,z,858,10,3,18194.29999998212,418414.40000000596,8076,ATS,A,7
4,test,1,C,mfborder.png,1,m,Tue Apr 21 2026 17:32:31 GMT-0500 (Central Daylight Time),438958.1999999881,CFD-BM-029-026-HC.jpg,1200,dash,I,m,1120,6,3,20543.79999998212,418414.40000000596,8076,ATS,A,8
5,test,1,C,haborder.png,1,z,Tue Apr 21 2026 17:32:31 GMT-0500 (Central Daylight Time),441990.6999999881,CFD-BM-010-019-A.jpg,1700,solid,I,z,1312,9,3,23576.29999998212,418414.40000000596,8076,ATS,A,9
5,test,1,C,haborder.png,0,m,Tue Apr 21 2026 17:32:31 GMT-0500 (Central Daylight Time),444523.09999999404,CFD-WF-017-016-HC.jpg,1000,solid,I,None,1515,12,3,26108.69999998808,418414.40000000596,8076,ATS,A,10
6,test,1,C,haborder.png,1,z,Tue Apr 21 2026 17:32:31 GMT-0500 (Central Daylight Time),447139.0,CFD-WM-013-015-A.jpg,1400,solid,I,z,1189,7,3,28724.59999999404,418414.40000000596,8076,ATS,A,11
7,test,1,C,mfborder.png,1,z,Tue Apr 21 2026 17:32:31 GMT-0500 (Central Daylight Time),450071.5,CFD-BF-023-013-A.jpg,1600,dash,I,z,1308,2,3,31657.09999999404,418414.40000000596,8076,ATS,A,12
8,test,1,C,mfborder.png,1,z,Tue Apr 21 2026 17:32:31 GMT-0500 (Central Daylight Time),452887.09999999404,CFD-BF-010-005-HC.jpg,1700,dash,I,z,1093,1,3,34472.69999998808,418414.40000000596,8076,ATS,A,13
9,test,1,C,mfborder.png,1,m,Tue Apr 21 2026 17:32:31 GMT-0500 (Central Daylight Time),456369.5,CFD-WM-019-013-A.jpg,2000,dash,I,m,1459,5,3,37955.09999999404,418414.40000000596,8076,ATS,A,14
10,test,1,C,haborder.png,1,m,Tue Apr 21 2026 17:32:31 GMT-0500 (Central Daylight Time),458985.2999999821,CFD-WF-002-008-HC.jpg,1500,solid,I,m,1099,11,3,40570.89999997616,418414.40000000596,8076,ATS,A,15
11,test,1,C,mfborder.png,1,z,Tue Apr 21 2026 17:32:31 GMT-0500 (Central Daylight Time),461634.2999999821,CFD-BF-023-013-A.jpg,1600,dash,I,z,1031,2,3,43219.89999997616,418414.40000000596,8076,ATS,A,16
12,test,1,C,haborder.png,1,m,Tue Apr 21 2026 17:32:31 GMT-0500 (Central Daylight Time),463500.5,CFD-WF-017-016-HC.jpg,1000,solid,I,m,847,12,3,45086.09999999404,418414.40000000596,8076,ATS,A,17
13,test,1,C,mfborder.png,1,m,Tue Apr 21 2026 17:32:31 GMT-0500 (Central Daylight Time),465849.6999999881,CFD-WM-006-013-HC.jpg,1000,dash,I,m,1325,4,3,47435.29999998212,418414.40000000596,8076,ATS,A,18
14,test,1,C,mfborder.png,1,m,Tue Apr 21 2026 17:32:31 GMT-0500 (Central Daylight Time),468799.0,CFD-WM-019-013-A.jpg,2000,dash,I,m,851,5,3,50384.59999999404,418414.40000000596,8076,ATS,A,19
15,test,1,C,mfborder.png,1,z,Tue Apr 21 2026 17:32:31 GMT-0500 (Central Daylight Time),471381.5,CFD-BF-010-005-HC.jpg,1700,dash,I,z,862,1,3,52967.09999999404,418414.40000000596,8076,ATS,A,20
16,test,1,C,haborder.png,1,z,Tue Apr 21 2026 17:32:31 GMT-0500 (Central Daylight Time),473947.09999999404,CFD-WM-013-015-A.jpg,1400,solid,I,z,1139,7,3,55532.69999998808,418414.40000000596,8076,ATS,A,21
17,test,1,C,mfborder.png,1,m,Tue Apr 21 2026 17:32:31 GMT-0500 (Central Daylight Time),475880.09999999404,CFD-WM-006-013-HC.jpg,1000,dash,I,m,901,4,3,57465.69999998808,418414.40000000596,8076,ATS,A,22
18,test,1,C,haborder.png,1,z,Tue Apr 21 2026 17:32:31 GMT-0500 (Central Daylight Time),478912.0,CFD-BM-010-019-A.jpg,1700,solid,I,z,1301,9,3,60497.59999999404,418414.40000000596,8076,ATS,A,23
19,test,1,C,haborder.png,1,m,Tue Apr 21 2026 17:32:31 GMT-0500 (Central Daylight Time),481761.59999999404,CFD-WF-002-008-HC.jpg,1500,solid,I,m,1324,11,3,63347.19999998808,418414.40000000596,8076,ATS,A,24
1,test,2,C,mfborder.png,1,m,Tue Apr 21 2026 17:32:31 GMT-0500 (Central Daylight Time),493974.2999999821,CFD-BM-017-052-HC.jpg,1000,dash,I,m,1203,4,3,2232.699999988079,491741.59999999404,8076,ATS,A,1
2,test,2,C,mfborder.png,1,m,Tue Apr 21 2026 17:32:31 GMT-0500 (Central Daylight Time),495623.6999999881,CFD-BM-017-052-HC.jpg,1000,dash,I,m,627,4,3,3882.0999999940395,491741.59999999404,8076,ATS,A,2
3,test,2,C,haborder.png,1,z,Tue Apr 21 2026 17:32:31 GMT-0500 (Central Daylight Time),498406.2999999821,CFD-BF-023-013-A.jpg,1400,solid,I,z,1361,7,3,6664.699999988079,491741.59999999404,8076,ATS,A,3
4,test,2,C,haborder.png,1,z,Tue Apr 21 2026 17:32:31 GMT-0500 (Central Daylight Time),501289.09999999404,CFD-BF-039-039-A.jpg,1900,solid,I,z,951,8,3,9547.5,491741.59999999404,8076,ATS,A,4
5,test,2,C,haborder.png,1,m,Tue Apr 21 2026 17:32:31 GMT-0500 (Central Daylight Time),503838.1999999881,CFD-BM-029-026-HC.jpg,1600,solid,I,m,929,10,3,12096.59999999404,491741.59999999404,8076,ATS,A,5
6,test,2,C,mfborder.png,1,m,Tue Apr 21 2026 17:32:31 GMT-0500 (Central Daylight Time),506053.7999999821,CFD-WM-013-015-A.jpg,1200,dash,I,m,995,6,3,14312.199999988079,491741.59999999404,8076,ATS,A,6
7,test,2,C,mfborder.png,1,z,Tue Apr 21 2026 17:32:31 GMT-0500 (Central Daylight Time),508702.90000000596,CFD-WF-017-016-HC.jpg,1700,dash,I,z,919,1,3,16961.30000001192,491741.59999999404,8076,ATS,A,7
8,test,2,C,mfborder.png,1,m,Tue Apr 21 2026 17:32:31 GMT-0500 (Central Daylight Time),511568.90000000596,CFD-BM-005-010-A.jpg,2000,dash,I,m,842,5,3,19827.30000001192,491741.59999999404,8076,ATS,A,8
9,test,2,C,mfborder.png,1,z,Tue Apr 21 2026 17:32:31 GMT-0500 (Central Daylight Time),513818.0,CFD-BF-028-020-HC.jpg,1500,dash,I,z,724,3,3,22076.40000000596,491741.59999999404,8076,ATS,A,9
10,test,2,C,mfborder.png,1,z,Tue Apr 21 2026 17:32:31 GMT-0500 (Central Daylight Time),516250.2999999821,CFD-WF-017-016-HC.jpg,1700,dash,I,z,715,1,3,24508.69999998808,491741.59999999404,8076,ATS,A,10
11,test,2,C,mfborder.png,1,z,Tue Apr 21 2026 17:32:31 GMT-0500 (Central Daylight Time),518899.7999999821,CFD-WF-019-015-A.jpg,1600,dash,I,z,1030,2,3,27158.19999998808,491741.59999999404,8076,ATS,A,11
12,test,2,C,haborder.png,1,z,Tue Apr 21 2026 17:32:31 GMT-0500 (Central Daylight Time),521432.6999999881,CFD-WF-003-014-A.jpg,1700,solid,I,z,801,9,3,29691.09999999404,491741.59999999404,8076,ATS,A,12
12,test,2,C,mfborder.png,0,z,Tue Apr 21 2026 17:32:31 GMT-0500 (Central Daylight Time),524231.40000000596,CFD-BF-028-020-HC.jpg,1500,dash,I,m,1277,3,3,32489.80000001192,491741.59999999404,8076,ATS,A,13
13,test,2,C,haborder.png,1,z,Tue Apr 21 2026 17:32:31 GMT-0500 (Central Daylight Time),526797.2999999821,CFD-BF-023-013-A.jpg,1400,solid,I,z,1145,7,3,35055.69999998808,491741.59999999404,8076,ATS,A,14
13,test,2,C,haborder.png,0,m,Tue Apr 21 2026 17:32:31 GMT-0500 (Central Daylight Time),529329.6999999881,CFD-WM-004-005-HC.jpg,1000,solid,I,None,1516,12,3,37588.09999999404,491741.59999999404,8076,ATS,A,15
14,test,2,C,haborder.png,1,z,Tue Apr 21 2026 17:32:31 GMT-0500 (Central Daylight Time),531895.6999999881,CFD-WF-003-014-A.jpg,1700,solid,I,z,842,9,3,40154.09999999404,491741.59999999404,8076,ATS,A,16
15,test,2,C,haborder.png,1,m,Tue Apr 21 2026 17:32:31 GMT-0500 (Central Daylight Time),533861.7999999821,CFD-WM-004-005-HC.jpg,1000,solid,I,m,945,12,3,42120.19999998808,491741.59999999404,8076,ATS,A,17
16,test,2,C,mfborder.png,1,z,Tue Apr 21 2026 17:32:31 GMT-0500 (Central Daylight Time),536777.599999994,CFD-WF-019-015-A.jpg,1600,dash,I,z,1290,2,3,45036.0,491741.59999999404,8076,ATS,A,18
17,test,2,C,haborder.png,1,m,Tue Apr 21 2026 17:32:31 GMT-0500 (Central Daylight Time),539159.900000006,CFD-WM-004-005-HC.jpg,1500,solid,I,m,851,11,3,47418.30000001192,491741.59999999404,8076,ATS,A,19
17,test,2,C,haborder.png,0,z,Tue Apr 21 2026 17:32:31 GMT-0500 (Central Daylight Time),542592.599999994,CFD-BF-039-039-A.jpg,1900,solid,I,None,1517,8,3,50851.0,491741.59999999404,8076,ATS,A,20
18,test,2,C,haborder.png,1,m,Tue Apr 21 2026 17:32:31 GMT-0500 (Central Daylight Time),545224.6999999881,CFD-WM-004-005-HC.jpg,1500,solid,I,m,1100,11,3,53483.09999999404,491741.59999999404,8076,ATS,A,21
19,test,2,C,mfborder.png,1,m,Tue Apr 21 2026 17:32:31 GMT-0500 (Central Daylight Time),547441.2999999821,CFD-WM-013-015-A.jpg,1200,dash,I,m,992,6,3,55699.69999998808,491741.59999999404,8076,ATS,A,22
19,test,2,C,mfborder.png,0,m,Tue Apr 21 2026 17:32:31 GMT-0500 (Central Daylight Time),550973.0,CFD-BM-005-010-A.jpg,2000,dash,I,None,1516,5,3,59231.40000000596,491741.59999999404,8076,ATS,A,23
20,test,2,C,haborder.png,1,m,Tue Apr 21 2026 17:32:31 GMT-0500 (Central Daylight Time),553705.2999999821,CFD-BM-029-026-HC.jpg,1600,solid,I,m,1115,10,3,61963.69999998808,491741.59999999404,8076,ATS,A,24
1,test,3,C,haborder.png,1,z,Tue Apr 21 2026 17:32:31 GMT-0500 (Central Daylight Time),561019.900000006,CFD-WM-013-015-A.jpg,1400,solid,I,z,1213,7,3,2632.4000000059605,558387.5,8076,ATS,A,1
2,test,3,C,mfborder.png,1,z,Tue Apr 21 2026 17:32:31 GMT-0500 (Central Daylight Time),563502.400000006,CFD-BF-010-005-HC.jpg,1700,dash,I,z,762,1,3,5114.9000000059605,558387.5,8076,ATS,A,2
3,test,3,C,mfborder.png,1,m,Tue Apr 21 2026 17:32:31 GMT-0500 (Central Daylight Time),565751.900000006,CFD-WM-006-013-HC.jpg,1000,dash,I,m,1218,4,3,7364.4000000059605,558387.5,8076,ATS,A,3
4,test,3,C,haborder.png,1,m,Tue Apr 21 2026 17:32:31 GMT-0500 (Central Daylight Time),567884.599999994,CFD-WF-017-016-HC.jpg,1000,solid,I,m,1114,12,3,9497.09999999404,558387.5,8076,ATS,A,4
5,test,3,C,mfborder.png,1,z,Tue Apr 21 2026 17:32:31 GMT-0500 (Central Daylight Time),570133.7999999821,CFD-WF-003-014-A.jpg,1500,dash,I,z,720,3,3,11746.299999982119,558387.5,8076,ATS,A,5
6,test,3,C,haborder.png,1,m,Tue Apr 21 2026 17:32:31 GMT-0500 (Central Daylight Time),572816.099999994,CFD-BF-028-020-HC.jpg,1600,solid,I,m,1059,10,3,14428.59999999404,558387.5,8076,ATS,A,6
7,test,3,C,mfborder.png,1,m,Tue Apr 21 2026 17:32:31 GMT-0500 (Central Daylight Time),575065.5,CFD-BM-029-026-HC.jpg,1200,dash,I,m,1025,6,3,16678.0,558387.5,8076,ATS,A,7
8,test,3,C,mfborder.png,1,z,Tue Apr 21 2026 17:32:31 GMT-0500 (Central Daylight Time),578198.0,CFD-BF-010-005-HC.jpg,1700,dash,I,z,1411,1,3,19810.5,558387.5,8076,ATS,A,8
8,test,3,C,haborder.png,0,z,Tue Apr 21 2026 17:32:31 GMT-0500 (Central Daylight Time),580364.099999994,CFD-WM-013-015-A.jpg,1400,solid,I,m,737,7,3,21976.59999999404,558387.5,8076,ATS,A,9
9,test,3,C,haborder.png,1,z,Tue Apr 21 2026 17:32:31 GMT-0500 (Central Daylight Time),583113.0,CFD-BM-010-019-A.jpg,1700,solid,I,z,1033,9,3,24725.5,558387.5,8076,ATS,A,10
10,test,3,C,haborder.png,1,z,Tue Apr 21 2026 17:32:31 GMT-0500 (Central Daylight Time),585962.099999994,CFD-BM-005-010-A.jpg,1900,solid,I,z,925,8,3,27574.59999999404,558387.5,8076,ATS,A,11
11,test,3,C,mfborder.png,1,m,Tue Apr 21 2026 17:32:31 GMT-0500 (Central Daylight Time),588794.400000006,CFD-WM-019-013-A.jpg,2000,dash,I,m,806,5,3,30406.90000000596,558387.5,8076,ATS,A,12
12,test,3,C,haborder.png,1,z,Tue Apr 21 2026 17:32:31 GMT-0500 (Central Daylight Time),591393.599999994,CFD-BM-010-019-A.jpg,1700,solid,I,z,875,9,3,33006.09999999404,558387.5,8076,ATS,A,13
13,test,3,C,mfborder.png,1,m,Tue Apr 21 2026 17:32:31 GMT-0500 (Central Daylight Time),594542.7999999821,CFD-WM-019-013-A.jpg,2000,dash,I,m,1128,5,3,36155.29999998212,558387.5,8076,ATS,A,14
14,test,3,C,mfborder.png,1,z,Tue Apr 21 2026 17:32:31 GMT-0500 (Central Daylight Time),597275.5,CFD-BF-023-013-A.jpg,1600,dash,I,z,1105,2,3,38888.0,558387.5,8076,ATS,A,15
14,test,3,C,haborder.png,0,z,Tue Apr 21 2026 17:32:31 GMT-0500 (Central Daylight Time),600407.400000006,CFD-BM-005-010-A.jpg,1900,solid,I,m,1202,8,3,42019.90000000596,558387.5,8076,ATS,A,16
14,test,3,C,haborder.png,0,m,Tue Apr 21 2026 17:32:31 GMT-0500 (Central Daylight Time),603440.0,CFD-WF-002-008-HC.jpg,1500,solid,I,None,1516,11,3,45052.5,558387.5,8076,ATS,A,17
15,test,3,C,haborder.png,1,m,Tue Apr 21 2026 17:32:31 GMT-0500 (Central Daylight Time),606022.400000006,CFD-BF-028-020-HC.jpg,1600,solid,I,m,952,10,3,47634.90000000596,558387.5,8076,ATS,A,18
16,test,3,C,mfborder.png,1,z,Tue Apr 21 2026 17:32:31 GMT-0500 (Central Daylight Time),608205.400000006,CFD-WF-003-014-A.jpg,1500,dash,I,z,663,3,3,49817.90000000596,558387.5,8076,ATS,A,19
17,test,3,C,haborder.png,1,m,Tue Apr 21 2026 17:32:31 GMT-0500 (Central Daylight Time),610271.2999999821,CFD-WF-017-016-HC.jpg,1000,solid,I,m,919,12,3,51883.79999998212,558387.5,8076,ATS,A,20
18,test,3,C,mfborder.png,1,z,Tue Apr 21 2026 17:32:31 GMT-0500 (Central Daylight Time),612787.0,CFD-BF-023-013-A.jpg,1600,dash,I,z,898,2,3,54399.5,558387.5,8076,ATS,A,21
19,test,3,C,mfborder.png,1,m,Tue Apr 21 2026 17:32:31 GMT-0500 (Central Daylight Time),614869.7999999821,CFD-BM-029-026-HC.jpg,1200,dash,I,m,853,6,3,56482.29999998212,558387.5,8076,ATS,A,22
20,test,3,C,mfborder.png,1,m,Tue Apr 21 2026 17:32:31 GMT-0500 (Central Daylight Time),616636.1999999881,CFD-WM-006-013-HC.jpg,1000,dash,I,m,740,4,3,58248.69999998808,558387.5,8076,ATS,A,23
21,test,3,C,haborder.png,1,m,Tue Apr 21 2026 17:32:31 GMT-0500 (Central Daylight Time),619401.7999999821,CFD-WF-002-008-HC.jpg,1500,solid,I,m,1250,11,3,61014.29999998212,558387.5,8076,ATS,A,24
1,test,4,C,haborder.png,1,z,Tue Apr 21 2026 17:32:31 GMT-0500 (Central Daylight Time),624133.6999999881,CFD-BF-039-039-A.jpg,1900,solid,I,z,1153,8,3,3082.699999988079,621051.0,8076,ATS,A,1
2,test,4,C,mfborder.png,1,z,Tue Apr 21 2026 17:32:31 GMT-0500 (Central Daylight Time),626649.6999999881,CFD-BF-028-020-HC.jpg,1500,dash,I,z,992,3,3,5598.699999988079,621051.0,8076,ATS,A,2
3,test,4,C,mfborder.png,1,m,Tue Apr 21 2026 17:32:31 GMT-0500 (Central Daylight Time),628599.0,CFD-BM-017-052-HC.jpg,1000,dash,I,m,920,4,3,7548.0,621051.0,8076,ATS,A,3
4,test,4,C,mfborder.png,1,z,Tue Apr 21 2026 17:32:31 GMT-0500 (Central Daylight Time),631515.7999999821,CFD-WF-017-016-HC.jpg,1700,dash,I,z,1190,1,3,10464.799999982119,621051.0,8076,ATS,A,4
5,test,4,C,haborder.png,1,z,Tue Apr 21 2026 17:32:31 GMT-0500 (Central Daylight Time),634063.6999999881,CFD-WF-003-014-A.jpg,1700,solid,I,z,826,9,3,13012.699999988079,621051.0,8076,ATS,A,5
6,test,4,C,mfborder.png,1,m,Tue Apr 21 2026 17:32:31 GMT-0500 (Central Daylight Time),636063.099999994,CFD-WM-013-015-A.jpg,1200,dash,I,m,776,6,3,15012.09999999404,621051.0,8076,ATS,A,6
7,test,4,C,mfborder.png,1,z,Tue Apr 21 2026 17:32:31 GMT-0500 (Central Daylight Time),638679.0,CFD-BF-028-020-HC.jpg,1500,dash,I,z,1085,3,3,17628.0,621051.0,8076,ATS,A,7
8,test,4,C,mfborder.png,1,m,Tue Apr 21 2026 17:32:31 GMT-0500 (Central Daylight Time),640828.1999999881,CFD-BM-017-052-HC.jpg,1000,dash,I,m,1129,4,3,19777.19999998808,621051.0,8076,ATS,A,8
9,test,4,C,haborder.png,1,z,Tue Apr 21 2026 17:32:31 GMT-0500 (Central Daylight Time),643210.900000006,CFD-WF-003-014-A.jpg,1700,solid,I,z,663,9,3,22159.90000000596,621051.0,8076,ATS,A,9
10,test,4,C,mfborder.png,1,z,Tue Apr 21 2026 17:32:31 GMT-0500 (Central Daylight Time),646009.900000006,CFD-WF-017-016-HC.jpg,1700,dash,I,z,1075,1,3,24958.90000000596,621051.0,8076,ATS,A,10
10,test,4,C,haborder.png,0,z,Tue Apr 21 2026 17:32:31 GMT-0500 (Central Daylight Time),648425.900000006,CFD-BF-023-013-A.jpg,1400,solid,I,m,983,7,3,27374.90000000596,621051.0,8076,ATS,A,11
11,test,4,C,mfborder.png,1,m,Tue Apr 21 2026 17:32:31 GMT-0500 (Central Daylight Time),651475.099999994,CFD-BM-005-010-A.jpg,2000,dash,I,m,1031,5,3,30424.09999999404,621051.0,8076,ATS,A,12
11,test,4,C,haborder.png,0,m,Tue Apr 21 2026 17:32:31 GMT-0500 (Central Daylight Time),654007.6999999881,CFD-WM-004-005-HC.jpg,1000,solid,I,None,1516,12,3,32956.69999998808,621051.0,8076,ATS,A,13
12,test,4,C,mfborder.png,1,m,Tue Apr 21 2026 17:32:31 GMT-0500 (Central Daylight Time),657139.7999999821,CFD-BM-005-010-A.jpg,2000,dash,I,m,1105,5,3,36088.79999998212,621051.0,8076,ATS,A,14
13,test,4,C,mfborder.png,1,m,Tue Apr 21 2026 17:32:31 GMT-0500 (Central Daylight Time),659139.1999999881,CFD-WM-013-015-A.jpg,1200,dash,I,m,781,6,3,38088.19999998808,621051.0,8076,ATS,A,15
13,test,4,C,haborder.png,0,m,Tue Apr 21 2026 17:32:31 GMT-0500 (Central Daylight Time),661938.400000006,CFD-BM-029-026-HC.jpg,1600,solid,I,z,1173,10,3,40887.40000000596,621051.0,8076,ATS,A,16
14,test,4,C,mfborder.png,1,z,Tue Apr 21 2026 17:32:31 GMT-0500 (Central Daylight Time),664537.5,CFD-WF-019-015-A.jpg,1600,dash,I,z,974,2,3,43486.5,621051.0,8076,ATS,A,17
15,test,4,C,haborder.png,1,z,Tue Apr 21 2026 17:32:31 GMT-0500 (Central Daylight Time),667403.0,CFD-BF-023-013-A.jpg,1400,solid,I,z,1448,7,3,46352.0,621051.0,8076,ATS,A,18
16,test,4,C,mfborder.png,1,z,Tue Apr 21 2026 17:32:31 GMT-0500 (Central Daylight Time),669852.599999994,CFD-WF-019-015-A.jpg,1600,dash,I,z,829,2,3,48801.59999999404,621051.0,8076,ATS,A,19
17,test,4,C,haborder.png,1,m,Tue Apr 21 2026 17:32:31 GMT-0500 (Central Daylight Time),672235.0,CFD-WM-004-005-HC.jpg,1500,solid,I,m,864,11,3,51184.0,621051.0,8076,ATS,A,20
18,test,4,C,haborder.png,1,m,Tue Apr 21 2026 17:32:31 GMT-0500 (Central Daylight Time),675001.099999994,CFD-BM-029-026-HC.jpg,1600,solid,I,m,1133,10,3,53950.09999999404,621051.0,8076,ATS,A,21
19,test,4,C,haborder.png,1,m,Tue Apr 21 2026 17:32:31 GMT-0500 (Central Daylight Time),677133.7999999821,CFD-WM-004-005-HC.jpg,1500,solid,I,m,612,11,3,56082.79999998212,621051.0,8076,ATS,A,22
20,test,4,C,haborder.png,1,m,Tue Apr 21 2026 17:32:31 GMT-0500 (Central Daylight Time),678716.5,CFD-WM-004-005-HC.jpg,1000,solid,I,m,564,12,3,57665.5,621051.0,8076,ATS,A,23
20,test,4,C,haborder.png,0,z,Tue Apr 21 2026 17:32:31 GMT-0500 (Central Daylight Time),682148.7999999821,CFD-BF-039-039-A.jpg,1900,solid,I,None,1516,8,3,61097.79999998212,621051.0,8076,ATS,A,24
