acc_sum,block,block_c,condition,correct,correct_response,datetime,endtime,flanker,jitter,project,response,response_test_buffer_response,response_test_target_response,response_time,response_time_test_buffer_response,response_time_test_target_response,row_sel,session_number,start_end,starttime,subject_id,target,task,task_vers,time_test_buffer,time_test_buffer_response,time_test_constants,time_test_flanker,time_test_jitter,time_test_logger,time_test_target,time_test_target_response,time_test_variables,trial
0,prac,1,inc,0,m,Wed Sep 24 2025 13:52:40 GMT-0500 (Central Daylight Time),112832.10000000894,elated,900,I,z,,,867,,,6,2,3079.0,109753.10000000894,8056,napkin,AF,C,,,,,,,,,,1
0,prac,1,inc,0,z,Wed Sep 24 2025 13:52:40 GMT-0500 (Central Daylight Time),115829.60000000894,film,900,I,m,,,785,,,14,2,2990.7000000029802,112838.90000000596,8056,hate,AF,C,,,,,,,,,,2
1,prac,1,con,1,z,Wed Sep 24 2025 13:52:40 GMT-0500 (Central Daylight Time),118828.90000000596,love,1000,I,z,,,686,,,11,2,2994.7000000029802,115834.20000000298,8056,love,AF,C,,,,,,,,,,3
1,prac,1,con,0,z,Wed Sep 24 2025 13:52:40 GMT-0500 (Central Daylight Time),121494.5,elated,800,I,m,,,552,,,9,2,2661.3999999910593,118833.10000000894,8056,elated,AF,C,,,,,,,,,,4
2,prac,1,inc,1,z,Wed Sep 24 2025 13:52:40 GMT-0500 (Central Daylight Time),124327.10000000894,rock,900,I,z,,,625,,,10,2,2828.0,121499.10000000894,8056,kind,AF,C,,,,,,,,,,5
3,prac,1,con,1,z,Wed Sep 24 2025 13:52:40 GMT-0500 (Central Daylight Time),127309.60000000894,rage,1000,I,z,,,678,,,15,2,2977.4000000059605,124332.20000000298,8056,rage,AF,C,,,,,,,,,,6
4,prac,1,inc,1,m,Wed Sep 24 2025 13:52:40 GMT-0500 (Central Daylight Time),130042.10000000894,kind,900,I,m,,,530,,,2,2,2728.0,127314.10000000894,8056,rock,AF,C,,,,,,,,,,7
5,prac,1,con,1,m,Wed Sep 24 2025 13:52:40 GMT-0500 (Central Daylight Time),132961.60000000894,jacket,800,I,m,,,827,,,5,2,2915.0,130046.60000000894,8056,jacket,AF,C,,,,,,,,,,8
6,prac,1,inc,1,z,Wed Sep 24 2025 13:52:40 GMT-0500 (Central Daylight Time),135957.79999999702,napkin,1100,I,z,,,585,,,12,2,2991.5,132966.29999999702,8056,friend,AF,C,,,,,,,,,,9
7,prac,1,inc,1,m,Wed Sep 24 2025 13:52:40 GMT-0500 (Central Daylight Time),138989.10000000894,hate,1100,I,m,,,618,,,4,2,3026.5,135962.60000000894,8056,film,AF,C,,,,,,,,,,10
8,prac,1,con,1,m,Wed Sep 24 2025 13:52:40 GMT-0500 (Central Daylight Time),142038.29999999702,remote,1000,I,m,,,736,,,7,2,3044.0999999940395,138994.20000000298,8056,remote,AF,C,,,,,,,,,,11
9,prac,1,con,1,m,Wed Sep 24 2025 13:52:40 GMT-0500 (Central Daylight Time),145037.40000000596,bell,1000,I,m,,,695,,,3,2,2994.6000000089407,142042.79999999702,8056,bell,AF,C,,,,,,,,,,12
10,prac,1,inc,1,m,Wed Sep 24 2025 13:52:40 GMT-0500 (Central Daylight Time),148069.60000000894,brutal,1100,I,m,,,627,,,8,2,3028.2000000029802,145041.40000000596,8056,window,AF,C,,,,,,,,,,13
11,prac,1,inc,1,z,Wed Sep 24 2025 13:52:40 GMT-0500 (Central Daylight Time),151185.40000000596,window,1100,I,z,,,706,,,16,2,3111.6000000089407,148073.79999999702,8056,temper,AF,C,,,,,,,,,,14
12,prac,1,con,1,m,Wed Sep 24 2025 13:52:40 GMT-0500 (Central Daylight Time),153801.40000000596,step,800,I,m,,,506,,,1,2,2611.6000000089407,151189.79999999702,8056,step,AF,C,,,,,,,,,,15
13,prac,1,con,1,z,Wed Sep 24 2025 13:52:40 GMT-0500 (Central Daylight Time),156600.10000000894,brutal,800,I,z,,,684,,,13,2,2794.7000000029802,153805.40000000596,8056,brutal,AF,C,,,,,,,,,,16
1,test,1,con,1,m,Wed Sep 24 2025 13:52:40 GMT-0500 (Central Daylight Time),171512.29999999702,remote,1000,I,m,m,None,727,527.0,200.0,115,2,2262.5,169249.79999999702,8056,remote,AF,C,163472,163472,161743,162756,161743,164005,163272,163272,164005,1
2,test,1,inc,1,m,Wed Sep 24 2025 13:52:40 GMT-0500 (Central Daylight Time),173794.79999999702,hate,1100,I,m,m,None,640,440.0,200.0,80,2,2278.199999988079,171516.60000000894,8056,rock,AF,C,165838,165838,164010,165122,164010,166288,165638,165638,166288,2
3,test,1,con,1,m,Wed Sep 24 2025 13:52:40 GMT-0500 (Central Daylight Time),176010.60000000894,bell,900,I,m,m,None,781,581.0,200.0,82,2,2211.2000000029802,173799.40000000596,8056,bell,AF,C,167921,167921,166292,167205,166293,168504,167721,167721,168504,3
4,test,1,inc,1,m,Wed Sep 24 2025 13:52:40 GMT-0500 (Central Daylight Time),177976.70000000298,elated,800,I,m,m,None,625,425.0,200.0,117,2,1961.0,176015.70000000298,8056,remote,AF,C,170037,170037,168509,169321,168509,170470,169837,169837,170470,4
5,test,1,inc,1,m,Wed Sep 24 2025 13:52:40 GMT-0500 (Central Daylight Time),180159.20000000298,friend,1100,I,m,m,None,542,283.0,259.0,104,2,2177.7999999970198,177981.40000000596,8056,jacket,AF,C,172363,172363,170474,171587,170475,172652,172103,172103,172652,5
6,test,1,inc,1,z,Wed Sep 24 2025 13:52:40 GMT-0500 (Central Daylight Time),181992.5,step,800,I,z,z,None,483,284.0,199.0,21,2,1829.5,180163.0,8056,love,AF,C,174186,174186,172656,173469,172656,174486,173986,173986,174486,6
6,test,1,con,0,z,Wed Sep 24 2025 13:52:40 GMT-0500 (Central Daylight Time),184008.20000000298,rage,900,I,m,m,None,576,377.0,199.0,50,2,2011.7000000029802,181996.5,8056,rage,AF,C,176118,176118,174490,175403,174490,176501,175919,175919,176501,7
7,test,1,con,1,m,Wed Sep 24 2025 13:52:40 GMT-0500 (Central Daylight Time),185874.0,jacket,800,I,m,m,None,547,332.0,215.0,97,2,1861.7000000029802,184012.29999999702,8056,jacket,AF,C,178034,178034,176505,177318,176506,178367,177819,177819,178367,8
8,test,1,con,1,m,Wed Sep 24 2025 13:52:40 GMT-0500 (Central Daylight Time),188056.79999999702,window,1100,I,m,m,None,540,325.0,215.0,124,2,2178.7999999970198,185878.0,8056,window,AF,C,180217,180217,178371,179484,178371,180550,180002,180002,180550,9
9,test,1,con,1,m,Wed Sep 24 2025 13:52:40 GMT-0500 (Central Daylight Time),190089.90000000596,jacket,900,I,m,m,None,584,384.0,200.0,98,2,2028.6000000089407,188061.29999999702,8056,jacket,AF,C,182183,182183,180554,181466,180555,182583,181983,181983,182583,10
10,test,1,inc,1,m,Wed Sep 24 2025 13:52:40 GMT-0500 (Central Daylight Time),192239.10000000894,love,1000,I,m,m,None,602,403.0,199.0,79,2,2145.0,190094.10000000894,8056,rock,AF,C,184316,184316,182587,183599,182587,184732,184117,184117,184732,11
11,test,1,inc,1,m,Wed Sep 24 2025 13:52:40 GMT-0500 (Central Daylight Time),194238.60000000894,brutal,900,I,m,m,None,561,362.0,199.0,126,2,1995.0,192243.60000000894,8056,window,AF,C,186365,186365,184737,185649,184737,186732,186166,186166,186732,12
12,test,1,con,1,m,Wed Sep 24 2025 13:52:40 GMT-0500 (Central Daylight Time),196321.10000000894,rock,900,I,m,m,None,642,442.0,200.0,74,2,2078.7000000029802,194242.40000000596,8056,rock,AF,C,188364,188364,186735,187648,186736,188814,188164,188164,188814,13
13,test,1,inc,1,m,Wed Sep 24 2025 13:52:40 GMT-0500 (Central Daylight Time),198453.79999999702,temper,1000,I,m,m,None,595,395.0,200.0,127,2,2128.699999988079,196325.10000000894,8056,window,AF,C,190547,190547,188818,189831,188819,190947,190347,190347,190947,14
14,test,1,inc,1,z,Wed Sep 24 2025 13:52:40 GMT-0500 (Central Daylight Time),200753.60000000894,window,1100,I,z,z,None,665,466.0,199.0,8,2,2295.7000000029802,198457.90000000596,8056,elated,AF,C,192780,192780,190951,192064,190951,193247,192580,192580,193247,15
15,test,1,inc,1,m,Wed Sep 24 2025 13:52:40 GMT-0500 (Central Daylight Time),203018.90000000596,hate,1100,I,m,m,None,624,424.0,200.0,88,2,2261.4000000059605,200757.5,8056,bell,AF,C,195079,195079,193251,194363,193251,195512,194879,194879,195512,16
16,test,1,inc,1,z,Wed Sep 24 2025 13:52:40 GMT-0500 (Central Daylight Time),205152.0,napkin,900,I,z,z,None,686,486.0,200.0,62,2,2128.7999999970198,203023.20000000298,8056,temper,AF,C,197145,197145,195516,196429,195516,197645,196945,196945,197645,17
17,test,1,con,1,m,Wed Sep 24 2025 13:52:40 GMT-0500 (Central Daylight Time),207434.0,step,1100,I,m,m,None,648,447.0,201.0,68,2,2278.0999999940395,205155.90000000596,8056,step,AF,C,199479,199479,197649,198761,197649,199927,199278,199278,199927,18
18,test,1,con,1,z,Wed Sep 24 2025 13:52:40 GMT-0500 (Central Daylight Time),209317.10000000894,brutal,900,I,z,z,None,439,239.0,200.0,34,2,1879.4000000059605,207437.70000000298,8056,brutal,AF,C,201560,201560,199931,200844,199931,201810,201360,201360,201810,19
19,test,1,inc,1,m,Wed Sep 24 2025 13:52:40 GMT-0500 (Central Daylight Time),211266.40000000596,kind,900,I,m,m,None,508,307.0,201.0,86,2,1945.5,209320.90000000596,8056,bell,AF,C,203444,203444,201814,202726,201814,203759,203243,203243,203759,20
20,test,1,con,1,z,Wed Sep 24 2025 13:52:40 GMT-0500 (Central Daylight Time),213449.0,hate,1000,I,z,z,None,640,441.0,199.0,43,2,2178.5999999940395,211270.40000000596,8056,hate,AF,C,205492,205493,203763,204776,203764,205942,205293,205293,205942,21
21,test,1,con,1,m,Wed Sep 24 2025 13:52:40 GMT-0500 (Central Daylight Time),215381.90000000596,remote,900,I,m,m,None,487,287.0,200.0,114,2,1926.9000000059605,213455.0,8056,remote,AF,C,207575,207575,205948,206859,205948,207875,207375,207375,207875,22
22,test,1,con,1,z,Wed Sep 24 2025 13:52:40 GMT-0500 (Central Daylight Time),217631.5,brutal,1000,I,z,z,None,702,503.0,199.0,35,2,2245.5,215386.0,8056,brutal,AF,C,209608,209608,207879,208891,207879,210125,209408,209408,210124,23
23,test,1,inc,1,m,Wed Sep 24 2025 13:52:40 GMT-0500 (Central Daylight Time),219813.70000000298,friend,1100,I,m,m,None,538,338.0,200.0,128,2,2178.5,217635.20000000298,8056,window,AF,C,211957,211957,210128,211241,210129,212307,211757,211757,212307,24
24,test,1,con,1,m,Wed Sep 24 2025 13:52:40 GMT-0500 (Central Daylight Time),222013.20000000298,jacket,1000,I,m,m,None,663,463.0,200.0,99,2,2195.7000000029802,219817.5,8056,jacket,AF,C,214040,214040,212311,213323,212311,214506,213840,213840,214506,25
25,test,1,inc,1,z,Wed Sep 24 2025 13:52:40 GMT-0500 (Central Daylight Time),224312.29999999702,film,1100,I,z,z,None,660,460.0,200.0,56,2,2295.0999999940395,222017.20000000298,8056,rage,AF,C,216339,216339,214510,215623,214511,216805,216139,216139,216805,26
26,test,1,inc,1,m,Wed Sep 24 2025 13:52:40 GMT-0500 (Central Daylight Time),226328.29999999702,kind,900,I,m,m,None,576,377.0,199.0,94,2,2011.7999999970198,224316.5,8056,film,AF,C,218438,218438,216810,217722,216810,218821,218239,218239,218821,27
26,test,1,inc,0,z,Wed Sep 24 2025 13:52:40 GMT-0500 (Central Daylight Time),228427.79999999702,remote,1000,I,m,m,None,557,356.0,201.0,39,2,2095.5,226332.29999999702,8056,brutal,AF,C,220555,220555,218825,219838,218826,220921,220354,220354,220921,28
27,test,1,inc,1,z,Wed Sep 24 2025 13:52:40 GMT-0500 (Central Daylight Time),230593.60000000894,film,1100,I,z,z,None,531,332.0,199.0,48,2,2162.2000000029802,228431.40000000596,8056,hate,AF,C,222754,222754,220924,222037,220925,223087,222554,222554,223087,29
28,test,1,inc,1,m,Wed Sep 24 2025 13:52:40 GMT-0500 (Central Daylight Time),232959.40000000596,hate,1100,I,m,m,None,717,518.0,199.0,96,2,2362.0,230597.40000000596,8056,film,AF,C,224920,224920,223090,224203,223091,225452,224720,224720,225452,30
29,test,1,inc,1,z,Wed Sep 24 2025 13:52:40 GMT-0500 (Central Daylight Time),235292.29999999702,remote,1000,I,z,z,None,787,588.0,199.0,63,2,2329.0999999940395,232963.20000000298,8056,temper,AF,C,227186,227186,225456,226469,225456,227785,226986,226986,227785,31
30,test,1,inc,1,z,Wed Sep 24 2025 13:52:40 GMT-0500 (Central Daylight Time),237291.5,step,800,I,z,z,None,657,457.0,200.0,53,2,1995.0999999940395,235296.40000000596,8056,rage,AF,C,229318,229318,227789,228602,227790,229785,229118,229118,229785,32
30,test,1,inc,0,z,Wed Sep 24 2025 13:52:40 GMT-0500 (Central Daylight Time),239590.60000000894,film,1100,I,m,m,None,660,460.0,200.0,16,2,2294.4000000059605,237296.20000000298,8056,kind,AF,C,231618,231618,229789,230901,229789,232084,231417,231417,232084,33
31,test,1,inc,1,m,Wed Sep 24 2025 13:52:40 GMT-0500 (Central Daylight Time),241606.70000000298,brutal,900,I,m,m,None,578,378.0,200.0,118,2,2012.0,239594.70000000298,8056,remote,AF,C,233717,233717,232088,233000,232088,234100,233517,233517,234100,34
32,test,1,inc,1,z,Wed Sep 24 2025 13:52:40 GMT-0500 (Central Daylight Time),243806.20000000298,film,1100,I,z,z,None,562,362.0,200.0,24,2,2195.9000000059605,241610.29999999702,8056,love,AF,C,235933,235933,234103,235218,234104,236299,235733,235733,236299,35
33,test,1,con,1,z,Wed Sep 24 2025 13:52:40 GMT-0500 (Central Daylight Time),246088.90000000596,brutal,1100,I,z,z,None,642,442.0,200.0,36,2,2278.9000000059605,243810.0,8056,brutal,AF,C,238132,238132,236303,237416,236303,238582,237932,237932,238582,36
34,test,1,inc,1,m,Wed Sep 24 2025 13:52:40 GMT-0500 (Central Daylight Time),248055.20000000298,elated,800,I,m,m,None,626,427.0,199.0,101,2,1962.4000000059605,246092.79999999702,8056,jacket,AF,C,240115,240115,238586,239398,238586,240548,239915,239915,240548,37
35,test,1,inc,1,z,Wed Sep 24 2025 13:52:40 GMT-0500 (Central Daylight Time),250765.40000000596,bell,1000,I,z,z,None,1176,977.0,199.0,15,2,2706.5,248058.90000000596,8056,kind,AF,C,242281,242281,240552,241565,240552,243258,242081,242081,243258,38
35,test,1,inc,0,m,Wed Sep 24 2025 13:52:40 GMT-0500 (Central Daylight Time),252820.0,kind,900,I,z,z,None,614,414.0,200.0,78,2,2050.2000000029802,250769.79999999702,8056,rock,AF,C,244897,244897,243263,244180,243263,245313,244697,244697,245313,39
36,test,1,con,1,z,Wed Sep 24 2025 13:52:40 GMT-0500 (Central Daylight Time),254936.0,elated,800,I,z,z,None,777,577.0,200.0,1,2,2112.0999999940395,252823.90000000596,8056,elated,AF,C,246846,246846,245317,246130,245317,247429,246646,246646,247429,40
37,test,1,con,1,m,Wed Sep 24 2025 13:52:40 GMT-0500 (Central Daylight Time),257035.40000000596,napkin,1000,I,m,m,None,556,356.0,200.0,107,2,2095.7000000029802,254939.70000000298,8056,napkin,AF,C,249162,249162,247433,248445,247433,249528,248962,248962,249528,41
38,test,1,con,1,m,Wed Sep 24 2025 13:52:40 GMT-0500 (Central Daylight Time),259118.10000000894,step,800,I,m,m,None,744,545.0,199.0,65,2,2078.800000011921,257039.29999999702,8056,step,AF,C,251062,251062,249532,250345,249533,251611,250862,250862,251611,42
39,test,1,con,1,z,Wed Sep 24 2025 13:52:40 GMT-0500 (Central Daylight Time),261251.70000000298,hate,900,I,z,z,None,698,498.0,200.0,42,2,2129.7000000029802,259122.0,8056,hate,AF,C,253244,253245,251615,252528,251615,253745,253044,253044,253745,43
40,test,1,con,1,z,Wed Sep 24 2025 13:52:40 GMT-0500 (Central Daylight Time),263100.5,temper,800,I,z,z,None,506,305.0,201.0,57,2,1844.7000000029802,261255.79999999702,8056,temper,AF,C,255278,255278,253749,254560,253749,255594,255077,255077,255594,44
41,test,1,inc,1,z,Wed Sep 24 2025 13:52:40 GMT-0500 (Central Daylight Time),265299.40000000596,remote,1000,I,z,z,None,666,466.0,200.0,31,2,2195.2000000029802,263104.200000003,8056,friend,AF,C,257326,257326,255597,256610,255597,257792,257126,257126,257792,45
42,test,1,inc,1,m,Wed Sep 24 2025 13:52:40 GMT-0500 (Central Daylight Time),267265.40000000596,elated,800,I,m,m,None,617,417.0,200.0,109,2,1961.4000000059605,265304.0,8056,napkin,AF,C,259326,259326,257797,258609,257797,259758,259125,259125,259758,46
43,test,1,con,1,z,Wed Sep 24 2025 13:52:40 GMT-0500 (Central Daylight Time),269981.200000003,elated,1100,I,z,z,None,1079,879.0,200.0,4,2,2710.2999999970198,267270.90000000596,8056,elated,AF,C,261592,261592,259764,260875,259764,262474,261391,261391,262474,47
44,test,1,con,1,z,Wed Sep 24 2025 13:52:40 GMT-0500 (Central Daylight Time),271780.700000003,love,900,I,z,z,None,364,164.0,200.0,18,2,1796.0,269984.700000003,8056,love,AF,C,264107,264107,262478,263391,262478,264274,263907,263907,264274,48
45,test,1,inc,1,z,Wed Sep 24 2025 13:52:40 GMT-0500 (Central Daylight Time),274063.10000000894,window,1100,I,z,z,None,637,437.0,200.0,32,2,2278.6000000089407,271784.5,8056,friend,AF,C,266107,266107,264278,265390,264278,266556,265907,265907,266556,49
46,test,1,con,1,m,Wed Sep 24 2025 13:52:40 GMT-0500 (Central Daylight Time),276380.40000000596,window,1000,I,m,m,None,782,582.0,200.0,123,2,2313.2000000029802,274067.200000003,8056,window,AF,C,268289,268289,266560,267573,266560,268873,268089,268089,268873,50
47,test,1,con,1,m,Wed Sep 24 2025 13:52:40 GMT-0500 (Central Daylight Time),278495.10000000894,bell,800,I,m,m,None,777,577.0,200.0,81,2,2110.7000000029802,276384.40000000596,8056,bell,AF,C,270405,270405,268877,269689,268878,270988,270205,270205,270988,51
47,test,1,inc,0,m,Wed Sep 24 2025 13:52:40 GMT-0500 (Central Daylight Time),280477.90000000596,temper,1000,I,z,z,None,445,245.0,200.0,119,2,1978.6000000089407,278499.299999997,8056,remote,AF,C,272721,272721,270992,272005,270993,272971,272521,272521,272971,52
48,test,1,con,1,m,Wed Sep 24 2025 13:52:40 GMT-0500 (Central Daylight Time),282627.299999997,rock,1000,I,m,m,None,607,407.0,200.0,75,2,2145.699999988079,280481.60000000894,8056,rock,AF,C,274704,274704,272975,273988,272975,275120,274504,274504,275120,53
48,test,1,inc,0,m,Wed Sep 24 2025 13:52:40 GMT-0500 (Central Daylight Time),285043.40000000596,friend,1100,I,z,z,None,773,573.0,200.0,120,2,2411.7999999970198,282631.60000000894,8056,remote,AF,C,276954,276954,275125,276237,275125,277536,276753,276753,277536,54
49,test,1,con,1,m,Wed Sep 24 2025 13:52:40 GMT-0500 (Central Daylight Time),287092.60000000894,film,800,I,m,m,None,713,513.0,200.0,89,2,2045.2000000029802,285047.40000000596,8056,film,AF,C,279069,279069,277540,278353,277541,279586,278869,278869,279586,55
50,test,1,inc,1,m,Wed Sep 24 2025 13:52:40 GMT-0500 (Central Daylight Time),289358.700000003,brutal,900,I,m,m,None,827,628.0,199.0,110,2,2261.9000000059605,287096.799999997,8056,napkin,AF,C,281219,281219,279590,280502,279590,281852,281019,281019,281852,56
51,test,1,inc,1,z,Wed Sep 24 2025 13:52:40 GMT-0500 (Central Daylight Time),291591.299999997,bell,1000,I,z,z,None,693,494.0,199.0,23,2,2228.8999999910593,289362.40000000596,8056,love,AF,C,283585,283585,281855,282868,281856,284084,283385,283385,284084,57
52,test,1,inc,1,m,Wed Sep 24 2025 13:52:40 GMT-0500 (Central Daylight Time),293857.10000000894,love,1000,I,m,m,None,717,517.0,200.0,87,2,2262.2000000029802,291594.90000000596,8056,bell,AF,C,285817,285817,284088,285102,284088,286350,285617,285617,286350,58
53,test,1,con,1,z,Wed Sep 24 2025 13:52:40 GMT-0500 (Central Daylight Time),296356.200000003,temper,1100,I,z,z,None,855,655.0,200.0,60,2,2495.0999999940395,293861.10000000894,8056,temper,AF,C,288183,288183,286354,287467,286354,288849,287983,287983,288849,59
54,test,1,con,1,z,Wed Sep 24 2025 13:52:40 GMT-0500 (Central Daylight Time),298289.40000000596,love,800,I,z,z,None,538,331.0,207.0,17,2,1929.0,296360.40000000596,8056,love,AF,C,290435,290435,288853,289666,288854,290782,290228,290228,290782,60
55,test,1,con,1,m,Wed Sep 24 2025 13:52:40 GMT-0500 (Central Daylight Time),300122.10000000894,rock,800,I,m,m,None,482,283.0,199.0,73,2,1828.300000011921,298293.799999997,8056,rock,AF,C,292315,292315,290787,291599,290787,292615,292115,292116,292615,61
56,test,1,con,1,z,Wed Sep 24 2025 13:52:40 GMT-0500 (Central Daylight Time),302254.5,hate,800,I,z,z,None,794,594.0,200.0,41,2,2128.0999999940395,300126.40000000596,8056,hate,AF,C,294148,294148,292619,293432,292620,294748,293948,293948,294748,62
57,test,1,inc,1,z,Wed Sep 24 2025 13:52:40 GMT-0500 (Central Daylight Time),304504.0,step,800,I,z,z,None,910,711.0,199.0,45,2,2245.7000000029802,302258.299999997,8056,hate,AF,C,296280,296280,294751,295564,294752,296997,296080,296081,296997,63
58,test,1,con,1,z,Wed Sep 24 2025 13:52:40 GMT-0500 (Central Daylight Time),307236.200000003,elated,1000,I,z,z,None,1196,996.0,200.0,3,2,2728.5,304507.700000003,8056,elated,AF,C,298730,298730,297001,298013,297001,299729,298530,298530,299729,64
59,test,1,inc,1,m,Wed Sep 24 2025 13:52:40 GMT-0500 (Central Daylight Time),309235.60000000894,temper,1000,I,m,m,None,465,265.0,200.0,103,2,1995.800000011921,307239.799999997,8056,jacket,AF,C,301462,301462,299733,300746,299733,301729,301262,301262,301729,65
60,test,1,inc,1,m,Wed Sep 24 2025 13:52:40 GMT-0500 (Central Daylight Time),311234.700000003,brutal,900,I,m,m,None,581,382.0,199.0,102,2,1995.2999999970198,309239.40000000596,8056,jacket,AF,C,303345,303345,301732,302645,301733,303728,303146,303146,303728,66
61,test,1,inc,1,z,Wed Sep 24 2025 13:52:40 GMT-0500 (Central Daylight Time),313517.60000000894,window,1100,I,z,z,None,637,437.0,200.0,64,2,2279.1000000089407,311238.5,8056,temper,AF,C,305561,305561,303732,304845,303732,306011,305361,305361,306011,67
62,test,1,con,1,m,Wed Sep 24 2025 13:52:40 GMT-0500 (Central Daylight Time),315583.700000003,window,800,I,m,m,None,717,518.0,199.0,121,2,2062.0999999940395,313521.60000000894,8056,window,AF,C,307544,307544,306015,306827,306015,308077,307344,307344,308077,68
63,test,1,con,1,z,Wed Sep 24 2025 13:52:40 GMT-0500 (Central Daylight Time),317766.200000003,friend,900,I,z,z,None,735,536.0,199.0,26,2,2178.7999999970198,315587.40000000596,8056,friend,AF,C,309710,309710,308080,308993,308081,310259,309510,309510,310259,69
64,test,1,inc,1,z,Wed Sep 24 2025 13:52:40 GMT-0500 (Central Daylight Time),319982.200000003,napkin,900,I,z,z,None,778,579.0,199.0,38,2,2211.7999999970198,317770.40000000596,8056,brutal,AF,C,311892,311892,310263,311176,310264,312475,311693,311693,312475,70
65,test,1,con,1,z,Wed Sep 24 2025 13:52:40 GMT-0500 (Central Daylight Time),322031.40000000596,temper,1000,I,z,z,None,524,310.0,214.0,59,2,2045.4000000059605,319986.0,8056,temper,AF,C,314208,314208,312479,313492,312479,314524,313994,313994,314524,71
66,test,1,con,1,z,Wed Sep 24 2025 13:52:40 GMT-0500 (Central Daylight Time),324047.60000000894,elated,900,I,z,z,None,567,368.0,199.0,2,2,2012.300000011921,322035.299999997,8056,elated,AF,C,316158,316158,314528,315441,314529,316541,315958,315958,316541,72
67,test,1,con,1,z,Wed Sep 24 2025 13:52:40 GMT-0500 (Central Daylight Time),326213.60000000894,rage,800,I,z,z,None,828,629.0,199.0,49,2,2162.300000011921,324051.299999997,8056,rage,AF,C,318074,318074,316544,317357,316545,318707,317874,317874,318707,73
68,test,1,con,1,z,Wed Sep 24 2025 13:52:40 GMT-0500 (Central Daylight Time),328279.60000000894,rage,1100,I,z,z,None,417,218.0,199.0,52,2,2061.9000000059605,326217.700000003,8056,rage,AF,C,320540,320540,318711,319823,318711,320773,320340,320340,320773,74
69,test,1,inc,1,m,Wed Sep 24 2025 13:52:40 GMT-0500 (Central Daylight Time),330195.799999997,rage,800,I,m,m,None,581,381.0,200.0,93,2,1912.699999988079,328283.10000000894,8056,film,AF,C,322306,322306,320776,321589,320776,322689,322106,322106,322689,75
70,test,1,inc,1,m,Wed Sep 24 2025 13:52:40 GMT-0500 (Central Daylight Time),332228.200000003,rage,800,I,m,m,None,695,496.0,199.0,85,2,2028.7000000029802,330199.5,8056,bell,AF,C,324222,324222,322693,323507,322693,324721,324022,324022,324721,76
71,test,1,inc,1,z,Wed Sep 24 2025 13:52:40 GMT-0500 (Central Daylight Time),334360.90000000596,bell,1000,I,z,z,None,582,383.0,199.0,55,2,2128.7000000029802,332232.200000003,8056,rage,AF,C,326455,326455,324725,325738,324725,326854,326255,326255,326854,77
72,test,1,con,1,m,Wed Sep 24 2025 13:52:40 GMT-0500 (Central Daylight Time),336443.700000003,film,900,I,m,m,None,647,447.0,200.0,90,2,2079.0999999940395,334364.60000000894,8056,film,AF,C,328487,328487,326858,327771,326858,328937,328287,328287,328937,78
73,test,1,con,1,z,Wed Sep 24 2025 13:52:40 GMT-0500 (Central Daylight Time),338526.5,love,1100,I,z,z,None,445,245.0,200.0,20,2,2079.2000000029802,336447.299999997,8056,love,AF,C,330770,330770,328940,330053,328941,331020,330570,330570,331020,79
74,test,1,inc,1,z,Wed Sep 24 2025 13:52:40 GMT-0500 (Central Daylight Time),340592.40000000596,jacket,800,I,z,z,None,717,516.0,201.0,5,2,2062.0,338530.40000000596,8056,elated,AF,C,332554,332554,331023,331836,331024,333086,332353,332353,333085,80
75,test,1,inc,1,m,Wed Sep 24 2025 13:52:40 GMT-0500 (Central Daylight Time),342808.299999997,kind,900,I,m,m,None,774,559.0,215.0,70,2,2212.0,340596.299999997,8056,step,AF,C,334735,334735,333089,334002,333090,335301,334520,334520,335301,81
76,test,1,inc,1,m,Wed Sep 24 2025 13:52:40 GMT-0500 (Central Daylight Time),345069.0,temper,1000,I,m,m,None,727,528.0,199.0,111,2,2256.8999999910593,342812.10000000894,8056,napkin,AF,C,337034,337034,335305,336318,335305,337562,336835,336835,337562,82
77,test,1,inc,1,z,Wed Sep 24 2025 13:52:40 GMT-0500 (Central Daylight Time),347140.60000000894,rock,900,I,z,z,None,646,446.0,200.0,54,2,2067.800000011921,345072.799999997,8056,rage,AF,C,339184,339184,337566,338467,337566,339634,338984,338984,339634,83
78,test,1,con,1,m,Wed Sep 24 2025 13:52:40 GMT-0500 (Central Daylight Time),349506.200000003,film,1100,I,m,m,None,723,524.0,199.0,92,2,2362.0,347144.200000003,8056,film,AF,C,341466,341467,339637,340750,339638,341999,341267,341267,341999,84
78,test,1,con,0,m,Wed Sep 24 2025 13:52:40 GMT-0500 (Central Daylight Time),351772.299999997,remote,1100,I,z,z,None,623,423.0,200.0,116,2,2262.2999999970198,349510.0,8056,remote,AF,C,343832,343832,342003,343116,342003,344265,343632,343632,344265,85
79,test,1,con,1,m,Wed Sep 24 2025 13:52:40 GMT-0500 (Central Daylight Time),353921.60000000894,film,1000,I,m,m,None,615,415.0,200.0,91,2,2145.5,351776.10000000894,8056,film,AF,C,345998,345999,344269,345282,344269,346415,345798,345798,346415,86
80,test,1,inc,1,z,Wed Sep 24 2025 13:52:40 GMT-0500 (Central Daylight Time),356270.90000000596,remote,1000,I,z,z,None,802,603.0,199.0,7,2,2345.5,353925.40000000596,8056,elated,AF,C,348148,348148,346418,347431,346419,348764,347948,347948,348764,87
81,test,1,inc,1,z,Wed Sep 24 2025 13:52:40 GMT-0500 (Central Daylight Time),358370.10000000894,rock,900,I,z,z,None,665,466.0,199.0,46,2,2095.6000000089407,356274.5,8056,hate,AF,C,350397,350397,348768,349680,348768,350863,350197,350197,350863,88
82,test,1,inc,1,m,Wed Sep 24 2025 13:52:40 GMT-0500 (Central Daylight Time),360785.90000000596,hate,1100,I,m,m,None,781,582.0,199.0,72,2,2410.7000000029802,358375.200000003,8056,step,AF,C,352696,352696,350868,351980,350868,353279,352496,352497,353279,89
83,test,1,con,1,m,Wed Sep 24 2025 13:52:40 GMT-0500 (Central Daylight Time),362885.10000000894,bell,1100,I,m,m,None,462,262.0,200.0,84,2,2095.300000011921,360789.799999997,8056,bell,AF,C,355112,355112,353283,354396,353283,355378,354912,354912,355378,90
83,test,1,con,0,z,Wed Sep 24 2025 13:52:40 GMT-0500 (Central Daylight Time),364984.700000003,friend,1100,I,m,m,None,450,250.0,200.0,28,2,2096.0,362888.700000003,8056,friend,AF,C,357212,357212,355382,356495,355382,357478,357011,357011,357478,91
84,test,1,con,1,m,Wed Sep 24 2025 13:52:40 GMT-0500 (Central Daylight Time),366985.700000003,napkin,900,I,m,m,None,551,351.0,200.0,106,2,1997.2000000029802,364988.5,8056,napkin,AF,C,359111,359111,357482,358394,357482,359479,358911,358911,359479,92
85,test,1,con,1,z,Wed Sep 24 2025 13:52:40 GMT-0500 (Central Daylight Time),369317.0,rage,1000,I,z,z,None,712,505.0,207.0,51,2,2327.5999999940395,366989.40000000596,8056,rage,AF,C,361293,361293,359482,360494,359483,361810,361086,361086,361810,93
86,test,1,inc,1,z,Wed Sep 24 2025 13:52:40 GMT-0500 (Central Daylight Time),371349.5,jacket,800,I,z,z,None,687,487.0,200.0,29,2,2028.8999999910593,369320.60000000894,8056,friend,AF,C,363343,363343,361814,362626,361814,363843,363143,363143,363843,94
87,test,1,con,1,m,Wed Sep 24 2025 13:52:40 GMT-0500 (Central Daylight Time),373515.5,bell,1000,I,m,m,None,629,430.0,199.0,83,2,2162.0999999940395,371353.40000000596,8056,bell,AF,C,365575,365576,363846,364859,363847,366009,365376,365376,366009,95
88,test,1,inc,1,z,Wed Sep 24 2025 13:52:40 GMT-0500 (Central Daylight Time),375681.200000003,rock,900,I,z,z,None,731,532.0,199.0,14,2,2162.0,373519.200000003,8056,kind,AF,C,367642,367642,366012,366925,366012,368174,367442,367442,368174,96
89,test,1,con,1,m,Wed Sep 24 2025 13:52:40 GMT-0500 (Central Daylight Time),377931.0,window,900,I,m,m,None,807,608.0,199.0,122,2,2245.7000000029802,375685.299999997,8056,window,AF,C,369807,369807,368178,369091,368179,370424,369608,369608,370424,97
90,test,1,con,1,m,Wed Sep 24 2025 13:52:40 GMT-0500 (Central Daylight Time),380396.700000003,remote,800,I,m,m,None,1122,922.0,200.0,113,2,2462.0999999940395,377934.60000000894,8056,remote,AF,C,371957,371957,370428,371240,370428,372890,371757,371757,372890,98
91,test,1,con,1,z,Wed Sep 24 2025 13:52:40 GMT-0500 (Central Daylight Time),382362.90000000596,love,1000,I,z,z,None,422,223.0,199.0,19,2,1962.5,380400.40000000596,8056,love,AF,C,374623,374623,372893,373906,372894,374856,374423,374423,374856,99
91,test,1,con,0,z,Wed Sep 24 2025 13:52:40 GMT-0500 (Central Daylight Time),384945.200000003,kind,1000,I,m,m,None,1041,842.0,199.0,11,2,2578.7000000029802,382366.5,8056,kind,AF,C,376589,376589,374860,375873,374860,377438,376389,376389,377438,100
92,test,1,inc,1,m,Wed Sep 24 2025 13:52:40 GMT-0500 (Central Daylight Time),387061.10000000894,love,1000,I,m,m,None,580,380.0,200.0,95,2,2112.4000000059605,384948.700000003,8056,film,AF,C,379171,379171,377442,378455,377442,379554,378971,378971,379554,101
93,test,1,con,1,m,Wed Sep 24 2025 13:52:40 GMT-0500 (Central Daylight Time),389077.5,napkin,800,I,m,m,None,680,480.0,200.0,105,2,2012.5,387065.0,8056,napkin,AF,C,381087,381087,379558,380371,379558,381571,380887,380887,381571,102
94,test,1,con,1,m,Wed Sep 24 2025 13:52:40 GMT-0500 (Central Daylight Time),391176.799999997,step,1000,I,m,m,None,550,351.0,199.0,67,2,2095.5999999940395,389081.200000003,8056,step,AF,C,383303,383303,381574,382587,381574,383670,383104,383104,383670,103
95,test,1,inc,1,z,Wed Sep 24 2025 13:52:40 GMT-0500 (Central Daylight Time),393642.60000000894,napkin,900,I,z,z,None,933,733.0,200.0,6,2,2461.9000000059605,391180.700000003,8056,elated,AF,C,385386,385386,383674,384683,383674,386136,385186,385186,386136,104
96,test,1,inc,1,m,Wed Sep 24 2025 13:52:40 GMT-0500 (Central Daylight Time),395525.299999997,elated,800,I,m,m,None,545,346.0,199.0,125,2,1879.199999988079,393646.10000000894,8056,window,AF,C,387668,387668,386139,386952,386139,388018,387469,387469,388018,105
96,test,1,con,0,z,Wed Sep 24 2025 13:52:40 GMT-0500 (Central Daylight Time),397724.700000003,kind,1100,I,m,m,None,556,356.0,200.0,12,2,2195.7000000029802,395529.0,8056,kind,AF,C,389851,389851,388022,389135,388022,390218,389651,389651,390218,106
97,test,1,inc,1,m,Wed Sep 24 2025 13:52:40 GMT-0500 (Central Daylight Time),400007.40000000596,friend,1100,I,m,m,None,635,436.0,199.0,112,2,2279.1000000089407,397728.299999997,8056,napkin,AF,C,392051,392051,390221,391334,390222,392501,391851,391851,392500,107
98,test,1,con,1,m,Wed Sep 24 2025 13:52:40 GMT-0500 (Central Daylight Time),402323.0,step,900,I,m,m,None,873,673.0,200.0,66,2,2311.8999999910593,400011.10000000894,8056,step,AF,C,394133,394133,392504,393417,392504,394816,393933,393933,394816,108
99,test,1,inc,1,m,Wed Sep 24 2025 13:52:40 GMT-0500 (Central Daylight Time),404455.799999997,love,1000,I,m,m,None,594,394.0,200.0,71,2,2128.3999999910593,402327.40000000596,8056,step,AF,C,396549,396549,394820,395832,394821,396949,396349,396349,396949,109
100,test,1,inc,1,z,Wed Sep 24 2025 13:52:40 GMT-0500 (Central Daylight Time),406721.60000000894,step,800,I,z,z,None,932,732.0,200.0,13,2,2261.9000000059605,404459.700000003,8056,kind,AF,C,398482,398482,396953,397766,396953,399215,398282,398282,399215,110
101,test,1,inc,1,m,Wed Sep 24 2025 13:52:40 GMT-0500 (Central Daylight Time),408937.60000000894,rage,800,I,m,m,None,882,683.0,199.0,69,2,2212.2000000029802,406725.40000000596,8056,step,AF,C,400748,400748,399218,400032,399219,401431,400548,400548,401431,111
102,test,1,con,1,z,Wed Sep 24 2025 13:52:40 GMT-0500 (Central Daylight Time),411053.799999997,friend,1000,I,z,z,None,577,378.0,199.0,27,2,2112.5,408941.299999997,8056,friend,AF,C,403164,403164,401434,402447,401435,403547,402964,402964,403547,112
103,test,1,con,1,m,Wed Sep 24 2025 13:52:40 GMT-0500 (Central Daylight Time),413336.40000000596,jacket,1100,I,m,m,None,643,444.0,199.0,100,2,2278.9000000059605,411057.5,8056,jacket,AF,C,405379,405379,403551,404663,403551,405830,405180,405180,405829,113
104,test,1,inc,1,z,Wed Sep 24 2025 13:52:40 GMT-0500 (Central Daylight Time),415185.700000003,jacket,800,I,z,z,None,499,299.0,200.0,37,2,1845.5999999940395,413340.10000000894,8056,brutal,AF,C,407363,407363,405833,406646,405833,407679,407162,407162,407679,114
105,test,1,con,1,m,Wed Sep 24 2025 13:52:40 GMT-0500 (Central Daylight Time),417236.200000003,rock,1100,I,m,m,None,414,215.0,199.0,76,2,2046.9000000059605,415189.299999997,8056,rock,AF,C,409512,409512,407682,408795,407683,409729,409312,409312,409729,115
106,test,1,inc,1,m,Wed Sep 24 2025 13:52:40 GMT-0500 (Central Daylight Time),419250.700000003,rage,800,I,m,m,None,673,473.0,200.0,77,2,2010.5999999940395,417240.10000000894,8056,rock,AF,C,411261,411261,409733,410545,409733,411744,411061,411061,411744,116
107,test,1,inc,1,z,Wed Sep 24 2025 13:52:40 GMT-0500 (Central Daylight Time),421234.0,bell,1000,I,z,z,None,442,242.0,200.0,47,2,1978.8999999910593,419255.10000000894,8056,hate,AF,C,413477,413477,411748,412761,411748,413727,413277,413277,413727,117
108,test,1,inc,1,z,Wed Sep 24 2025 13:52:40 GMT-0500 (Central Daylight Time),423449.700000003,jacket,800,I,z,z,None,874,674.0,200.0,61,2,2212.0,421237.700000003,8056,temper,AF,C,415260,415260,413731,414543,413731,415943,415060,415060,415943,118
109,test,1,inc,1,z,Wed Sep 24 2025 13:52:40 GMT-0500 (Central Daylight Time),425565.90000000596,rock,900,I,z,z,None,671,471.0,200.0,22,2,2112.6000000089407,423453.299999997,8056,love,AF,C,417576,417576,415946,416859,415946,418059,417376,417376,418059,119
110,test,1,con,1,z,Wed Sep 24 2025 13:52:40 GMT-0500 (Central Daylight Time),427865.0,kind,900,I,z,z,None,866,667.0,199.0,10,2,2295.0999999940395,425569.90000000596,8056,kind,AF,C,419675,419675,418063,418975,418063,420358,419476,419476,420358,120
111,test,1,con,1,z,Wed Sep 24 2025 13:52:40 GMT-0500 (Central Daylight Time),430164.10000000894,hate,1100,I,z,z,None,656,456.0,200.0,44,2,2295.5,427868.60000000894,8056,hate,AF,C,422191,422191,420362,421474,420362,422657,421991,421991,422657,121
112,test,1,con,1,z,Wed Sep 24 2025 13:52:40 GMT-0500 (Central Daylight Time),432047.200000003,kind,800,I,z,z,None,544,345.0,199.0,9,2,1879.2000000029802,430168.0,8056,kind,AF,C,424190,424190,422661,423474,422661,424540,423991,423991,424540,122
113,test,1,con,1,z,Wed Sep 24 2025 13:52:40 GMT-0500 (Central Daylight Time),434046.299999997,friend,800,I,z,z,None,662,462.0,200.0,25,2,1995.2999999970198,432051.0,8056,friend,AF,C,426073,426073,424544,425357,424544,426539,425873,425873,426539,123
114,test,1,inc,1,z,Wed Sep 24 2025 13:52:40 GMT-0500 (Central Daylight Time),436229.200000003,window,1100,I,z,z,None,546,347.0,199.0,40,2,2179.2000000029802,434050.0,8056,brutal,AF,C,428372,428372,426543,427656,426543,428722,428173,428173,428722,124
115,test,1,con,1,z,Wed Sep 24 2025 13:52:40 GMT-0500 (Central Daylight Time),438511.700000003,temper,900,I,z,z,None,844,644.0,200.0,58,2,2278.5999999940395,436233.10000000894,8056,temper,AF,C,430355,430355,428726,429639,428726,431005,430155,430155,431005,125
116,test,1,con,1,z,Wed Sep 24 2025 13:52:40 GMT-0500 (Central Daylight Time),440361.40000000596,brutal,800,I,z,z,None,467,267.0,200.0,33,2,1846.0,438515.40000000596,8056,brutal,AF,C,432571,432571,431008,431865,431009,432854,432371,432371,432854,126
117,test,1,con,1,m,Wed Sep 24 2025 13:52:40 GMT-0500 (Central Daylight Time),442443.799999997,napkin,1100,I,m,m,None,448,248.0,200.0,108,2,2078.5,440365.299999997,8056,napkin,AF,C,434687,434687,432858,433971,432859,434937,434487,434487,434937,127
118,test,1,inc,1,z,Wed Sep 24 2025 13:52:40 GMT-0500 (Central Daylight Time),444393.200000003,napkin,900,I,z,z,None,500,300.0,200.0,30,2,1945.7000000029802,442447.5,8056,friend,AF,C,436570,436570,434941,435853,434941,436886,436370,436370,436886,128
