acc_sum,block,block_c,change,condition,correct,correct_response,datetime,endtime,face,project,response,response_time,row_sel,session_number,start_end,starttime,subject_id,task,task_vers,trial
0,prac,1,,1-Back,,,Mon Jul 14 2025 13:48:21 GMT-0500 (Central Daylight Time),,124_o_f_d_a.png,I,space,5938,1,2,,,8039,VNB,A,0
1,prac,1,0.0,1-Back,1,m,Mon Jul 14 2025 13:48:21 GMT-0500 (Central Daylight Time),104925.80000001192,071_y_f_n_a.png,I,m,1032,2,2,1840.0999999940395,103085.70000001788,8039,VNB,A,1
2,prac,1,0.0,1-Back,1,m,Mon Jul 14 2025 13:48:21 GMT-0500 (Central Daylight Time),106725.40000000596,165_m_m_h_a.png,I,m,985,3,2,1791.800000011921,104933.59999999404,8039,VNB,A,2
3,prac,1,0.0,1-Back,1,m,Mon Jul 14 2025 13:48:21 GMT-0500 (Central Daylight Time),108058.30000001192,109_y_m_d_a.png,I,m,527,4,2,1325.300000011921,106733.0,8039,VNB,A,3
4,prac,1,0.0,1-Back,1,m,Mon Jul 14 2025 13:48:21 GMT-0500 (Central Daylight Time),109574.5,124_o_f_n_a.png,I,m,669,5,2,1508.2999999821186,108066.20000001788,8039,VNB,A,4
5,prac,1,1.0,1-Back,1,z,Mon Jul 14 2025 13:48:21 GMT-0500 (Central Daylight Time),110874.30000001192,109_y_m_n_a.png,I,z,493,6,2,1292.7000000178814,109581.59999999404,8039,VNB,A,5
6,prac,1,0.0,1-Back,1,m,Mon Jul 14 2025 13:48:21 GMT-0500 (Central Daylight Time),112106.90000000596,039_o_m_h_a.png,I,m,432,7,2,1224.5,110882.40000000596,8039,VNB,A,6
7,prac,1,0.0,1-Back,1,m,Mon Jul 14 2025 13:48:21 GMT-0500 (Central Daylight Time),113456.80000001192,139_m_f_d_a.png,I,m,542,8,2,1342.5,112114.30000001192,8039,VNB,A,7
8,prac,1,1.0,1-Back,1,z,Mon Jul 14 2025 13:48:21 GMT-0500 (Central Daylight Time),114739.5,071_y_f_d_a.png,I,z,467,9,2,1272.7999999821186,113466.70000001788,8039,VNB,A,8
9,prac,1,0.0,1-Back,1,m,Mon Jul 14 2025 13:48:21 GMT-0500 (Central Daylight Time),115889.30000001192,165_m_m_n_a.png,I,m,332,10,2,1141.5999999940395,114747.70000001788,8039,VNB,A,9
10,prac,1,0.0,1-Back,1,m,Mon Jul 14 2025 13:48:21 GMT-0500 (Central Daylight Time),117205.5,124_o_f_h_a.png,I,m,485,11,2,1308.4000000059605,115897.09999999404,8039,VNB,A,10
11,prac,1,0.0,1-Back,1,m,Mon Jul 14 2025 13:48:21 GMT-0500 (Central Daylight Time),118488.30000001192,109_y_m_d_a.png,I,m,501,12,2,1274.9000000059605,117213.40000000596,8039,VNB,A,11
0,test,1,0.0,1-Back,,,Mon Jul 14 2025 13:48:21 GMT-0500 (Central Daylight Time),118488.30000001192,071_y_f_d_a.png,I,space,11658,1,2,1274.9000000059605,117213.40000000596,8039,VNB,A,0
1,test,1,0.0,1-Back,1,m,Mon Jul 14 2025 13:48:21 GMT-0500 (Central Daylight Time),141497.70000001788,139_m_f_n_a.png,I,m,635,2,2,1659.300000011921,139838.40000000596,8039,VNB,A,1
2,test,1,0.0,1-Back,1,m,Mon Jul 14 2025 13:48:21 GMT-0500 (Central Daylight Time),142963.80000001192,039_o_m_h_a.png,I,m,441,3,2,1459.300000011921,141504.5,8039,VNB,A,2
3,test,1,1.0,1-Back,1,z,Mon Jul 14 2025 13:48:21 GMT-0500 (Central Daylight Time),144480.0,165_m_m_h_a.png,I,z,494,4,2,1509.0999999940395,142970.90000000596,8039,VNB,A,3
4,test,1,0.0,1-Back,1,m,Mon Jul 14 2025 13:48:21 GMT-0500 (Central Daylight Time),145846.30000001192,124_o_f_n_a.png,I,m,346,5,2,1359.2000000178814,144487.09999999404,8039,VNB,A,4
5,test,1,0.0,1-Back,1,m,Mon Jul 14 2025 13:48:21 GMT-0500 (Central Daylight Time),147362.70000001788,109_y_m_d_a.png,I,m,492,6,2,1510.2000000178814,145852.5,8039,VNB,A,5
6,test,1,1.0,1-Back,1,z,Mon Jul 14 2025 13:48:21 GMT-0500 (Central Daylight Time),148779.09999999404,139_m_f_d_a.png,I,z,398,7,2,1409.8999999761581,147369.20000001788,8039,VNB,A,6
7,test,1,0.0,1-Back,1,m,Mon Jul 14 2025 13:48:21 GMT-0500 (Central Daylight Time),150161.59999999404,071_y_f_h_a.png,I,m,359,8,2,1376.199999988079,148785.40000000596,8039,VNB,A,7
8,test,1,0.0,1-Back,1,m,Mon Jul 14 2025 13:48:21 GMT-0500 (Central Daylight Time),151627.80000001192,039_o_m_n_a.png,I,m,441,9,2,1459.4000000059605,150168.40000000596,8039,VNB,A,8
9,test,1,0.0,1-Back,1,m,Mon Jul 14 2025 13:48:21 GMT-0500 (Central Daylight Time),153210.80000001192,109_y_m_h_a.png,I,m,550,10,2,1576.7000000178814,151634.09999999404,8039,VNB,A,9
10,test,1,0.0,1-Back,1,m,Mon Jul 14 2025 13:48:21 GMT-0500 (Central Daylight Time),154727.0,039_o_m_d_a.png,I,m,488,11,2,1509.0999999940395,153217.90000000596,8039,VNB,A,10
11,test,1,1.0,1-Back,1,z,Mon Jul 14 2025 13:48:21 GMT-0500 (Central Daylight Time),156393.20000001788,124_o_f_d_a.png,I,z,635,12,2,1659.300000011921,154733.90000000596,8039,VNB,A,11
12,test,1,0.0,1-Back,1,m,Mon Jul 14 2025 13:48:21 GMT-0500 (Central Daylight Time),157875.70000001788,165_m_m_n_a.png,I,m,457,13,2,1475.800000011921,156399.90000000596,8039,VNB,A,12
13,test,1,1.0,1-Back,1,z,Mon Jul 14 2025 13:48:21 GMT-0500 (Central Daylight Time),159309.0,071_y_f_n_a.png,I,z,414,14,2,1426.5999999940395,157882.40000000596,8039,VNB,A,13
14,test,1,0.0,1-Back,1,m,Mon Jul 14 2025 13:48:21 GMT-0500 (Central Daylight Time),160625.09999999404,139_m_f_h_a.png,I,m,285,15,2,1309.3999999761581,159315.70000001788,8039,VNB,A,14
15,test,1,0.0,1-Back,1,m,Mon Jul 14 2025 13:48:21 GMT-0500 (Central Daylight Time),162157.80000001192,165_m_m_d_a.png,I,m,513,16,2,1526.0,160631.80000001192,8039,VNB,A,15
16,test,1,0.0,1-Back,1,m,Mon Jul 14 2025 13:48:21 GMT-0500 (Central Daylight Time),163624.0,109_y_m_n_a.png,I,m,444,17,2,1459.0999999940395,162164.90000000596,8039,VNB,A,16
17,test,1,0.0,1-Back,1,m,Mon Jul 14 2025 13:48:21 GMT-0500 (Central Daylight Time),165273.5,124_o_f_h_a.png,I,m,626,18,2,1642.2999999821186,163631.20000001788,8039,VNB,A,17
0,test,2,0.0,1-Back,,,Mon Jul 14 2025 13:48:21 GMT-0500 (Central Daylight Time),165273.5,109_y_m_n_a.png,I,space,2009,1,2,1642.2999999821186,163631.20000001788,8039,VNB,A,0
1,test,2,0.0,1-Back,1,m,Mon Jul 14 2025 13:48:21 GMT-0500 (Central Daylight Time),170872.0,071_y_f_h_a.png,I,m,536,2,2,1559.7999999821186,169312.20000001788,8039,VNB,A,1
2,test,2,1.0,1-Back,1,m,Mon Jul 14 2025 13:48:21 GMT-0500 (Central Daylight Time),172338.0,039_o_m_n_a.png,I,m,434,3,2,1459.0999999940395,170878.90000000596,8039,VNB,A,2
3,test,2,0.0,1-Back,1,m,Mon Jul 14 2025 13:48:21 GMT-0500 (Central Daylight Time),173870.80000001192,139_m_f_d_a.png,I,m,504,4,2,1526.7000000178814,172344.09999999404,8039,VNB,A,3
4,test,2,0.0,1-Back,1,z,Mon Jul 14 2025 13:48:21 GMT-0500 (Central Daylight Time),175270.5,165_m_m_d_a.png,I,z,379,5,2,1392.699999988079,173877.80000001192,8039,VNB,A,4
5,test,2,0.0,1-Back,1,m,Mon Jul 14 2025 13:48:21 GMT-0500 (Central Daylight Time),176670.0,109_y_m_h_a.png,I,m,372,6,2,1393.0,175277.0,8039,VNB,A,5
6,test,2,1.0,1-Back,1,z,Mon Jul 14 2025 13:48:21 GMT-0500 (Central Daylight Time),178053.0,124_o_f_h_a.png,I,z,364,7,2,1376.699999988079,176676.30000001192,8039,VNB,A,6
7,test,2,0.0,1-Back,1,m,Mon Jul 14 2025 13:48:21 GMT-0500 (Central Daylight Time),179419.09999999404,139_m_f_n_a.png,I,m,341,8,2,1359.199999988079,178059.90000000596,8039,VNB,A,7
8,test,2,0.0,1-Back,1,m,Mon Jul 14 2025 13:48:21 GMT-0500 (Central Daylight Time),180902.0,071_y_f_d_a.png,I,m,463,9,2,1475.199999988079,179426.80000001192,8039,VNB,A,8
9,test,2,0.0,1-Back,1,m,Mon Jul 14 2025 13:48:21 GMT-0500 (Central Daylight Time),182668.20000001788,165_m_m_n_a.png,I,m,740,10,2,1759.2000000178814,180909.0,8039,VNB,A,9
10,test,2,1.0,1-Back,1,m,Mon Jul 14 2025 13:48:21 GMT-0500 (Central Daylight Time),184217.5,139_m_f_h_a.png,I,m,526,11,2,1542.2999999821186,182675.20000001788,8039,VNB,A,10
11,test,2,0.0,1-Back,1,z,Mon Jul 14 2025 13:48:21 GMT-0500 (Central Daylight Time),185683.80000001192,039_o_m_h_a.png,I,z,448,12,2,1459.7000000178814,184224.09999999404,8039,VNB,A,11
12,test,2,0.0,1-Back,1,m,Mon Jul 14 2025 13:48:21 GMT-0500 (Central Daylight Time),187083.5,109_y_m_d_a.png,I,m,374,13,2,1392.9000000059605,185690.59999999404,8039,VNB,A,12
13,test,2,0.0,1-Back,1,m,Mon Jul 14 2025 13:48:21 GMT-0500 (Central Daylight Time),188916.09999999404,124_o_f_n_a.png,I,m,807,14,2,1826.0999999940395,187090.0,8039,VNB,A,13
14,test,2,0.0,1-Back,1,z,Mon Jul 14 2025 13:48:21 GMT-0500 (Central Daylight Time),190615.5,071_y_f_n_a.png,I,z,670,15,2,1693.0,188922.5,8039,VNB,A,14
15,test,2,1.0,1-Back,1,m,Mon Jul 14 2025 13:48:21 GMT-0500 (Central Daylight Time),192031.70000001788,165_m_m_h_a.png,I,m,395,16,2,1409.4000000059605,190622.30000001192,8039,VNB,A,15
16,test,2,0.0,1-Back,1,m,Mon Jul 14 2025 13:48:21 GMT-0500 (Central Daylight Time),193531.30000001192,124_o_f_d_a.png,I,m,482,17,2,1492.9000000059605,192038.40000000596,8039,VNB,A,16
17,test,2,1.0,1-Back,1,z,Mon Jul 14 2025 13:48:21 GMT-0500 (Central Daylight Time),195097.5,039_o_m_d_a.png,I,z,535,18,2,1560.199999988079,193537.30000001192,8039,VNB,A,17
0,test,3,1.0,1-Back,,,Mon Jul 14 2025 13:48:21 GMT-0500 (Central Daylight Time),195097.5,124_o_f_h_a.png,I,space,1793,1,2,1560.199999988079,193537.30000001192,8039,VNB,A,0
1,test,3,0.0,1-Back,1,m,Mon Jul 14 2025 13:48:21 GMT-0500 (Central Daylight Time),200612.59999999404,139_m_f_d_a.png,I,m,623,2,2,1642.699999988079,198969.90000000596,8039,VNB,A,1
2,test,3,1.0,1-Back,1,m,Mon Jul 14 2025 13:48:21 GMT-0500 (Central Daylight Time),202195.40000000596,165_m_m_n_a.png,I,m,549,3,2,1576.300000011921,200619.09999999404,8039,VNB,A,2
3,test,3,0.0,1-Back,1,z,Mon Jul 14 2025 13:48:21 GMT-0500 (Central Daylight Time),203761.40000000596,124_o_f_n_a.png,I,z,543,4,2,1559.199999988079,202202.20000001788,8039,VNB,A,3
4,test,3,1.0,1-Back,1,m,Mon Jul 14 2025 13:48:21 GMT-0500 (Central Daylight Time),205127.70000001788,039_o_m_d_a.png,I,m,316,5,2,1359.6000000238419,203768.09999999404,8039,VNB,A,4
5,test,3,0.0,1-Back,1,m,Mon Jul 14 2025 13:48:21 GMT-0500 (Central Daylight Time),206627.20000001788,071_y_f_h_a.png,I,m,475,6,2,1493.0,205134.20000001788,8039,VNB,A,5
6,test,3,0.0,1-Back,1,z,Mon Jul 14 2025 13:48:21 GMT-0500 (Central Daylight Time),208060.09999999404,109_y_m_h_a.png,I,z,407,7,2,1426.199999988079,206633.90000000596,8039,VNB,A,6
7,test,3,0.0,1-Back,1,m,Mon Jul 14 2025 13:48:21 GMT-0500 (Central Daylight Time),209326.40000000596,139_m_f_n_a.png,I,m,238,8,2,1259.800000011921,208066.59999999404,8039,VNB,A,7
8,test,3,0.0,1-Back,1,m,Mon Jul 14 2025 13:48:21 GMT-0500 (Central Daylight Time),210892.80000001192,071_y_f_d_a.png,I,m,540,9,2,1560.0999999940395,209332.70000001788,8039,VNB,A,8
9,test,3,1.0,1-Back,1,m,Mon Jul 14 2025 13:48:21 GMT-0500 (Central Daylight Time),212458.90000000596,039_o_m_n_a.png,I,m,534,10,2,1558.199999988079,210900.70000001788,8039,VNB,A,9
10,test,3,0.0,1-Back,1,m,Mon Jul 14 2025 13:48:21 GMT-0500 (Central Daylight Time),214191.40000000596,165_m_m_h_a.png,I,m,711,11,2,1724.9000000059605,212466.5,8039,VNB,A,10
11,test,3,0.0,1-Back,1,z,Mon Jul 14 2025 13:48:21 GMT-0500 (Central Daylight Time),215607.80000001192,139_m_f_h_a.png,I,z,386,12,2,1409.7000000178814,214198.09999999404,8039,VNB,A,11
12,test,3,1.0,1-Back,1,m,Mon Jul 14 2025 13:48:21 GMT-0500 (Central Daylight Time),217057.30000001192,124_o_f_d_a.png,I,m,418,13,2,1443.0999999940395,215614.20000001788,8039,VNB,A,12
13,test,3,0.0,1-Back,1,z,Mon Jul 14 2025 13:48:21 GMT-0500 (Central Daylight Time),218740.0,165_m_m_d_a.png,I,z,665,14,2,1676.199999988079,217063.80000001192,8039,VNB,A,13
14,test,3,0.0,1-Back,1,m,Mon Jul 14 2025 13:48:21 GMT-0500 (Central Daylight Time),220039.59999999404,109_y_m_n_a.png,I,m,270,15,2,1293.2999999821186,218746.30000001192,8039,VNB,A,14
15,test,3,1.0,1-Back,1,m,Mon Jul 14 2025 13:48:21 GMT-0500 (Central Daylight Time),221539.30000001192,039_o_m_h_a.png,I,m,466,16,2,1493.7000000178814,220045.59999999404,8039,VNB,A,15
16,test,3,0.0,1-Back,1,m,Mon Jul 14 2025 13:48:21 GMT-0500 (Central Daylight Time),223005.40000000596,109_y_m_d_a.png,I,m,447,17,2,1459.5,221545.90000000596,8039,VNB,A,16
17,test,3,1.0,1-Back,1,m,Mon Jul 14 2025 13:48:21 GMT-0500 (Central Daylight Time),224521.70000001788,071_y_f_n_a.png,I,m,485,18,2,1509.6000000238419,223012.09999999404,8039,VNB,A,17
0,test,4,1.0,1-Back,,,Mon Jul 14 2025 13:48:21 GMT-0500 (Central Daylight Time),224521.70000001788,165_m_m_d_a.png,I,space,3863,1,2,1509.6000000238419,223012.09999999404,8039,VNB,A,0
1,test,4,0.0,1-Back,1,z,Mon Jul 14 2025 13:48:21 GMT-0500 (Central Daylight Time),232036.20000001788,039_o_m_d_a.png,I,z,590,2,2,1609.7000000178814,230426.5,8039,VNB,A,1
2,test,4,0.0,1-Back,1,m,Mon Jul 14 2025 13:48:21 GMT-0500 (Central Daylight Time),233535.70000001788,109_y_m_h_a.png,I,m,470,3,2,1492.7000000178814,232043.0,8039,VNB,A,2
3,test,4,0.0,1-Back,1,m,Mon Jul 14 2025 13:48:21 GMT-0500 (Central Daylight Time),235019.59999999404,139_m_f_n_a.png,I,m,467,4,2,1476.0999999940395,233543.5,8039,VNB,A,3
4,test,4,1.0,1-Back,1,m,Mon Jul 14 2025 13:48:21 GMT-0500 (Central Daylight Time),236551.40000000596,124_o_f_h_a.png,I,m,512,5,2,1525.0999999940395,235026.30000001192,8039,VNB,A,4
5,test,4,0.0,1-Back,1,m,Mon Jul 14 2025 13:48:21 GMT-0500 (Central Daylight Time),238000.59999999404,165_m_m_n_a.png,I,m,426,6,2,1442.7999999821186,236557.80000001192,8039,VNB,A,5
6,test,4,0.0,1-Back,1,m,Mon Jul 14 2025 13:48:21 GMT-0500 (Central Daylight Time),239550.30000001192,109_y_m_d_a.png,I,m,529,7,2,1542.7000000178814,238007.59999999404,8039,VNB,A,6
7,test,4,1.0,1-Back,1,z,Mon Jul 14 2025 13:48:21 GMT-0500 (Central Daylight Time),241016.30000001192,071_y_f_d_a.png,I,z,436,8,2,1458.7000000178814,239557.59999999404,8039,VNB,A,7
8,test,4,0.0,1-Back,1,m,Mon Jul 14 2025 13:48:21 GMT-0500 (Central Daylight Time),242432.80000001192,139_m_f_h_a.png,I,m,386,9,2,1409.300000011921,241023.5,8039,VNB,A,8
9,test,4,0.0,1-Back,1,z,Mon Jul 14 2025 13:48:21 GMT-0500 (Central Daylight Time),243865.70000001788,039_o_m_h_a.png,I,z,410,10,2,1426.6000000238419,242439.09999999404,8039,VNB,A,9
10,test,4,1.0,1-Back,1,m,Mon Jul 14 2025 13:48:21 GMT-0500 (Central Daylight Time),245248.5,124_o_f_n_a.png,I,m,360,11,2,1374.5999999940395,243873.90000000596,8039,VNB,A,10
11,test,4,0.0,1-Back,1,m,Mon Jul 14 2025 13:48:21 GMT-0500 (Central Daylight Time),246748.0,139_m_f_d_a.png,I,m,474,12,2,1492.4000000059605,245255.59999999404,8039,VNB,A,11
12,test,4,0.0,1-Back,1,m,Mon Jul 14 2025 13:48:21 GMT-0500 (Central Daylight Time),248197.70000001788,071_y_f_n_a.png,I,m,422,13,2,1442.6000000238419,246755.09999999404,8039,VNB,A,12
13,test,4,0.0,1-Back,1,m,Mon Jul 14 2025 13:48:21 GMT-0500 (Central Daylight Time),249913.80000001192,124_o_f_d_a.png,I,m,685,14,2,1709.5999999940395,248204.20000001788,8039,VNB,A,13
14,test,4,0.0,1-Back,1,m,Mon Jul 14 2025 13:48:21 GMT-0500 (Central Daylight Time),251496.59999999404,071_y_f_h_a.png,I,m,553,15,2,1575.5,249921.09999999404,8039,VNB,A,14
15,test,4,1.0,1-Back,1,z,Mon Jul 14 2025 13:48:21 GMT-0500 (Central Daylight Time),252945.90000000596,165_m_m_h_a.png,I,z,418,16,2,1442.5,251503.40000000596,8039,VNB,A,15
16,test,4,0.0,1-Back,1,m,Mon Jul 14 2025 13:48:21 GMT-0500 (Central Daylight Time),254329.0,039_o_m_n_a.png,I,m,360,17,2,1376.699999988079,252952.30000001192,8039,VNB,A,16
17,test,4,1.0,1-Back,1,z,Mon Jul 14 2025 13:48:21 GMT-0500 (Central Daylight Time),255812.0,109_y_m_n_a.png,I,z,457,18,2,1476.5,254335.5,8039,VNB,A,17
0,test,5,1.0,1-Back,,,Mon Jul 14 2025 13:48:21 GMT-0500 (Central Daylight Time),255812.0,039_o_m_n_a.png,I,space,5214,1,2,1476.5,254335.5,8039,VNB,A,0
1,test,5,1.0,1-Back,1,m,Mon Jul 14 2025 13:48:21 GMT-0500 (Central Daylight Time),264592.59999999404,124_o_f_h_a.png,I,m,520,2,2,1542.8999999761581,263049.7000000179,8039,VNB,A,1
2,test,5,0.0,1-Back,1,m,Mon Jul 14 2025 13:48:21 GMT-0500 (Central Daylight Time),266041.8000000119,109_y_m_d_a.png,I,m,418,3,2,1442.300000011921,264599.5,8039,VNB,A,2
3,test,5,0.0,1-Back,1,z,Mon Jul 14 2025 13:48:21 GMT-0500 (Central Daylight Time),267774.59999999404,039_o_m_d_a.png,I,z,703,4,2,1726.0999999940395,266048.5,8039,VNB,A,3
4,test,5,0.0,1-Back,1,m,Mon Jul 14 2025 13:48:21 GMT-0500 (Central Daylight Time),269124.40000000596,139_m_f_h_a.png,I,m,324,5,2,1342.9000000059605,267781.5,8039,VNB,A,4
5,test,5,0.0,1-Back,1,m,Mon Jul 14 2025 13:48:21 GMT-0500 (Central Daylight Time),270557.2000000179,071_y_f_n_a.png,I,m,406,6,2,1425.6000000238419,269131.59999999404,8039,VNB,A,5
6,test,5,1.0,1-Back,1,z,Mon Jul 14 2025 13:48:21 GMT-0500 (Central Daylight Time),271973.40000000596,124_o_f_n_a.png,I,z,397,7,2,1410.0999999940395,270563.3000000119,8039,VNB,A,6
7,test,5,0.0,1-Back,1,m,Mon Jul 14 2025 13:48:21 GMT-0500 (Central Daylight Time),273456.2000000179,139_m_f_d_a.png,I,m,461,8,2,1476.300000011921,271979.90000000596,8039,VNB,A,7
8,test,5,0.0,1-Back,1,m,Mon Jul 14 2025 13:48:21 GMT-0500 (Central Daylight Time),274989.09999999404,109_y_m_h_a.png,I,m,506,9,2,1526.199999988079,273462.90000000596,8039,VNB,A,8
9,test,5,0.0,1-Back,1,m,Mon Jul 14 2025 13:48:21 GMT-0500 (Central Daylight Time),276471.90000000596,071_y_f_d_a.png,I,m,461,10,2,1476.199999988079,274995.7000000179,8039,VNB,A,9
10,test,5,0.0,1-Back,1,m,Mon Jul 14 2025 13:48:21 GMT-0500 (Central Daylight Time),278021.7000000179,165_m_m_n_a.png,I,m,522,11,2,1542.6000000238419,276479.09999999404,8039,VNB,A,10
11,test,5,1.0,1-Back,1,z,Mon Jul 14 2025 13:48:21 GMT-0500 (Central Daylight Time),279471.3000000119,139_m_f_n_a.png,I,z,421,12,2,1442.800000011921,278028.5,8039,VNB,A,11
12,test,5,0.0,1-Back,1,m,Mon Jul 14 2025 13:48:21 GMT-0500 (Central Daylight Time),280954.0,039_o_m_h_a.png,I,m,459,13,2,1476.199999988079,279477.8000000119,8039,VNB,A,12
13,test,5,0.0,1-Back,1,z,Mon Jul 14 2025 13:48:21 GMT-0500 (Central Daylight Time),282570.09999999404,165_m_m_h_a.png,I,z,592,14,2,1609.5999999940395,280960.5,8039,VNB,A,13
14,test,5,1.0,1-Back,1,m,Mon Jul 14 2025 13:48:21 GMT-0500 (Central Daylight Time),284086.2000000179,124_o_f_d_a.png,I,m,487,15,2,1509.2000000178814,282577.0,8039,VNB,A,14
15,test,5,0.0,1-Back,1,m,Mon Jul 14 2025 13:48:21 GMT-0500 (Central Daylight Time),285985.5,109_y_m_n_a.png,I,m,868,16,2,1892.199999988079,284093.3000000119,8039,VNB,A,15
16,test,5,0.0,1-Back,1,m,Mon Jul 14 2025 13:48:21 GMT-0500 (Central Daylight Time),287518.5,071_y_f_h_a.png,I,m,513,17,2,1525.4000000059605,285993.09999999404,8039,VNB,A,16
17,test,5,0.0,1-Back,1,m,Mon Jul 14 2025 13:48:21 GMT-0500 (Central Daylight Time),289101.5,165_m_m_d_a.png,I,m,564,18,2,1576.199999988079,287525.3000000119,8039,VNB,A,17
0,prac,1,0.0,2-Back,,,Mon Jul 14 2025 13:48:21 GMT-0500 (Central Daylight Time),289101.5,139_m_f_n_a.png,I,space,14471,1,2,1576.199999988079,287525.3000000119,8039,VNB,A,0
0,prac,1,0.0,2-Back,,,Mon Jul 14 2025 13:48:21 GMT-0500 (Central Daylight Time),289101.5,124_o_f_h_a.png,I,space,14471,2,2,1576.199999988079,287525.3000000119,8039,VNB,A,0
1,prac,1,0.0,2-Back,1,m,Mon Jul 14 2025 13:48:21 GMT-0500 (Central Daylight Time),402049.2000000179,039_o_m_d_a.png,I,m,1125,3,2,1924.800000011921,400124.40000000596,8039,VNB,A,1
2,prac,1,1.0,2-Back,1,z,Mon Jul 14 2025 13:48:21 GMT-0500 (Central Daylight Time),403582.2000000179,165_m_m_h_a.png,I,z,727,4,2,1525.0,402057.2000000179,8039,VNB,A,2
3,prac,1,0.0,2-Back,1,m,Mon Jul 14 2025 13:48:21 GMT-0500 (Central Daylight Time),404964.90000000596,071_y_f_n_a.png,I,m,569,5,2,1374.5999999940395,403590.3000000119,8039,VNB,A,3
4,prac,1,1.0,2-Back,1,z,Mon Jul 14 2025 13:48:21 GMT-0500 (Central Daylight Time),406331.2000000179,039_o_m_h_a.png,I,z,565,6,2,1358.2000000178814,404973.0,8039,VNB,A,4
5,prac,1,1.0,2-Back,1,z,Mon Jul 14 2025 13:48:21 GMT-0500 (Central Daylight Time),407630.8000000119,109_y_m_n_a.png,I,z,478,7,2,1291.5,406339.3000000119,8039,VNB,A,5
6,prac,1,0.0,2-Back,1,m,Mon Jul 14 2025 13:48:21 GMT-0500 (Central Daylight Time),409063.5,139_m_f_d_a.png,I,m,626,8,2,1424.9000000059605,407638.59999999404,8039,VNB,A,6
7,prac,1,0.0,2-Back,1,m,Mon Jul 14 2025 13:48:21 GMT-0500 (Central Daylight Time),410496.5,124_o_f_d_a.png,I,m,593,9,2,1425.0,409071.5,8039,VNB,A,7
8,prac,1,0.0,2-Back,1,m,Mon Jul 14 2025 13:48:21 GMT-0500 (Central Daylight Time),412229.40000000596,165_m_m_h_a.png,I,m,946,10,2,1725.0,410504.40000000596,8039,VNB,A,8
9,prac,1,1.0,2-Back,1,z,Mon Jul 14 2025 13:48:21 GMT-0500 (Central Daylight Time),413795.7000000179,071_y_f_d_a.png,I,z,764,11,2,1558.6000000238419,412237.09999999404,8039,VNB,A,9
10,prac,1,0.0,2-Back,1,m,Mon Jul 14 2025 13:48:21 GMT-0500 (Central Daylight Time),415161.8000000119,039_o_m_n_a.png,I,m,555,12,2,1356.0,413805.8000000119,8039,VNB,A,10
0,test,1,0.0,2-Back,,,Mon Jul 14 2025 13:48:21 GMT-0500 (Central Daylight Time),415161.8000000119,109_y_m_h_a.png,I,space,8631,1,2,1356.0,413805.8000000119,8039,VNB,A,0
0,test,1,0.0,2-Back,,,Mon Jul 14 2025 13:48:21 GMT-0500 (Central Daylight Time),415161.8000000119,124_o_f_n_a.png,I,space,8631,2,2,1356.0,413805.8000000119,8039,VNB,A,0
1,test,1,0.0,2-Back,1,z,Mon Jul 14 2025 13:48:21 GMT-0500 (Central Daylight Time),441486.8000000119,039_o_m_h_a.png,I,z,754,3,2,1775.5999999940395,439711.2000000179,8039,VNB,A,1
2,test,1,0.0,2-Back,1,m,Mon Jul 14 2025 13:48:21 GMT-0500 (Central Daylight Time),443136.5,139_m_f_d_a.png,I,m,619,4,2,1643.0999999940395,441493.40000000596,8039,VNB,A,2
3,test,1,1.0,2-Back,1,m,Mon Jul 14 2025 13:48:21 GMT-0500 (Central Daylight Time),444885.8000000119,109_y_m_n_a.png,I,m,730,5,2,1742.5,443143.3000000119,8039,VNB,A,3
4,test,1,0.0,2-Back,1,z,Mon Jul 14 2025 13:48:21 GMT-0500 (Central Daylight Time),446602.0,071_y_f_d_a.png,I,z,685,6,2,1709.199999988079,444892.8000000119,8039,VNB,A,4
5,test,1,0.0,2-Back,1,m,Mon Jul 14 2025 13:48:21 GMT-0500 (Central Daylight Time),448134.7000000179,165_m_m_h_a.png,I,m,512,7,2,1525.5,446609.2000000179,8039,VNB,A,5
5,test,1,1.0,2-Back,0,m,Mon Jul 14 2025 13:48:21 GMT-0500 (Central Daylight Time),449900.90000000596,071_y_f_n_a.png,I,z,740,8,2,1758.9000000059605,448142.0,8039,VNB,A,6
6,test,1,0.0,2-Back,1,z,Mon Jul 14 2025 13:48:21 GMT-0500 (Central Daylight Time),451417.0,124_o_f_h_a.png,I,z,485,9,2,1509.4000000059605,449907.59999999404,8039,VNB,A,7
7,test,1,0.0,2-Back,1,m,Mon Jul 14 2025 13:48:21 GMT-0500 (Central Daylight Time),453133.09999999404,039_o_m_d_a.png,I,m,697,10,2,1709.2999999821186,451423.8000000119,8039,VNB,A,8
8,test,1,1.0,2-Back,1,m,Mon Jul 14 2025 13:48:21 GMT-0500 (Central Daylight Time),454883.0,165_m_m_d_a.png,I,m,733,11,2,1742.0999999940395,453140.90000000596,8039,VNB,A,9
9,test,1,0.0,2-Back,1,m,Mon Jul 14 2025 13:48:21 GMT-0500 (Central Daylight Time),456765.3000000119,139_m_f_n_a.png,I,m,855,12,2,1873.9000000059605,454891.40000000596,8039,VNB,A,10
10,test,1,0.0,2-Back,1,m,Mon Jul 14 2025 13:48:21 GMT-0500 (Central Daylight Time),458964.59999999404,071_y_f_h_a.png,I,m,1181,13,2,2192.399999976158,456772.2000000179,8039,VNB,A,11
11,test,1,0.0,2-Back,1,z,Mon Jul 14 2025 13:48:21 GMT-0500 (Central Daylight Time),460547.59999999404,165_m_m_n_a.png,I,z,566,14,2,1575.0,458972.59999999404,8039,VNB,A,12
12,test,1,0.0,2-Back,1,m,Mon Jul 14 2025 13:48:21 GMT-0500 (Central Daylight Time),462130.40000000596,109_y_m_d_a.png,I,m,558,15,2,1576.0,460554.40000000596,8039,VNB,A,13
13,test,1,1.0,2-Back,1,m,Mon Jul 14 2025 13:48:21 GMT-0500 (Central Daylight Time),463825.0,139_m_f_h_a.png,I,m,678,16,2,1687.2999999821186,462137.7000000179,8039,VNB,A,14
14,test,1,0.0,2-Back,1,z,Mon Jul 14 2025 13:48:21 GMT-0500 (Central Daylight Time),465379.40000000596,124_o_f_d_a.png,I,z,533,17,2,1546.699999988079,463832.7000000179,8039,VNB,A,15
15,test,1,0.0,2-Back,1,m,Mon Jul 14 2025 13:48:21 GMT-0500 (Central Daylight Time),466928.8000000119,039_o_m_n_a.png,I,m,527,18,2,1542.2000000178814,465386.59999999404,8039,VNB,A,16
0,test,2,0.0,2-Back,,,Mon Jul 14 2025 13:48:21 GMT-0500 (Central Daylight Time),466928.8000000119,165_m_m_h_a.png,I,space,5586,1,2,1542.2000000178814,465386.59999999404,8039,VNB,A,0
0,test,2,0.0,2-Back,,,Mon Jul 14 2025 13:48:21 GMT-0500 (Central Daylight Time),466928.8000000119,071_y_f_n_a.png,I,space,5586,2,2,1542.2000000178814,465386.59999999404,8039,VNB,A,0
1,test,2,1.0,2-Back,1,z,Mon Jul 14 2025 13:48:21 GMT-0500 (Central Daylight Time),479191.8000000119,124_o_f_h_a.png,I,z,537,3,2,1559.0,477632.8000000119,8039,VNB,A,1
2,test,2,0.0,2-Back,1,m,Mon Jul 14 2025 13:48:21 GMT-0500 (Central Daylight Time),480924.3000000119,039_o_m_d_a.png,I,m,715,4,2,1725.5,479198.8000000119,8039,VNB,A,2
3,test,2,0.0,2-Back,1,m,Mon Jul 14 2025 13:48:21 GMT-0500 (Central Daylight Time),482657.2000000179,139_m_f_d_a.png,I,m,710,5,2,1726.2000000178814,480931.0,8039,VNB,A,3
4,test,2,0.0,2-Back,1,m,Mon Jul 14 2025 13:48:21 GMT-0500 (Central Daylight Time),484389.8000000119,109_y_m_h_a.png,I,m,713,6,2,1725.9000000059605,482663.90000000596,8039,VNB,A,4
5,test,2,0.0,2-Back,1,m,Mon Jul 14 2025 13:48:21 GMT-0500 (Central Daylight Time),486156.2000000179,124_o_f_n_a.png,I,m,740,7,2,1759.0,484397.2000000179,8039,VNB,A,5
6,test,2,1.0,2-Back,1,z,Mon Jul 14 2025 13:48:21 GMT-0500 (Central Daylight Time),487872.2000000179,039_o_m_h_a.png,I,z,622,8,2,1709.1000000238419,486163.09999999404,8039,VNB,A,6
7,test,2,0.0,2-Back,1,m,Mon Jul 14 2025 13:48:21 GMT-0500 (Central Daylight Time),489638.3000000119,071_y_f_d_a.png,I,m,746,9,2,1759.0,487879.3000000119,8039,VNB,A,7
8,test,2,0.0,2-Back,1,m,Mon Jul 14 2025 13:48:21 GMT-0500 (Central Daylight Time),491521.0,109_y_m_d_a.png,I,m,860,10,2,1875.7999999821186,489645.2000000179,8039,VNB,A,8
9,test,2,0.0,2-Back,1,m,Mon Jul 14 2025 13:48:21 GMT-0500 (Central Daylight Time),493120.5,165_m_m_n_a.png,I,m,577,11,2,1592.4000000059605,491528.09999999404,8039,VNB,A,9
10,test,2,0.0,2-Back,1,m,Mon Jul 14 2025 13:48:21 GMT-0500 (Central Daylight Time),494770.09999999404,139_m_f_h_a.png,I,m,618,12,2,1642.0999999940395,493128.0,8039,VNB,A,10
11,test,2,1.0,2-Back,1,z,Mon Jul 14 2025 13:48:21 GMT-0500 (Central Daylight Time),496636.3000000119,039_o_m_n_a.png,I,z,840,13,2,1859.5,494776.8000000119,8039,VNB,A,11
12,test,2,0.0,2-Back,1,m,Mon Jul 14 2025 13:48:21 GMT-0500 (Central Daylight Time),498218.8000000119,124_o_f_d_a.png,I,m,558,14,2,1575.4000000059605,496643.40000000596,8039,VNB,A,12
12,test,2,0.0,2-Back,0,m,Mon Jul 14 2025 13:48:21 GMT-0500 (Central Daylight Time),500518.2000000179,071_y_f_h_a.png,I,z,1279,15,2,2292.300000011921,498225.90000000596,8039,VNB,A,13
12,test,2,0.0,2-Back,0,z,Mon Jul 14 2025 13:48:21 GMT-0500 (Central Daylight Time),502134.40000000596,165_m_m_d_a.png,I,m,596,16,2,1609.0,500525.40000000596,8039,VNB,A,14
13,test,2,0.0,2-Back,1,m,Mon Jul 14 2025 13:48:21 GMT-0500 (Central Daylight Time),504383.59999999404,109_y_m_n_a.png,I,m,1228,17,2,2242.5,502141.09999999404,8039,VNB,A,15
14,test,2,1.0,2-Back,1,m,Mon Jul 14 2025 13:48:21 GMT-0500 (Central Daylight Time),506083.09999999404,139_m_f_n_a.png,I,m,675,18,2,1692.5999999940395,504390.5,8039,VNB,A,16
0,test,3,1.0,2-Back,,,Mon Jul 14 2025 13:48:21 GMT-0500 (Central Daylight Time),506083.09999999404,039_o_m_n_a.png,I,space,3175,1,2,1692.5999999940395,504390.5,8039,VNB,A,0
0,test,3,1.0,2-Back,,,Mon Jul 14 2025 13:48:21 GMT-0500 (Central Daylight Time),506083.09999999404,124_o_f_d_a.png,I,space,3175,2,2,1692.5999999940395,504390.5,8039,VNB,A,0
1,test,3,0.0,2-Back,1,m,Mon Jul 14 2025 13:48:21 GMT-0500 (Central Daylight Time),515930.09999999404,071_y_f_h_a.png,I,m,584,3,2,1609.0,514321.09999999404,8039,VNB,A,1
2,test,3,0.0,2-Back,1,z,Mon Jul 14 2025 13:48:21 GMT-0500 (Central Daylight Time),517846.2000000179,139_m_f_d_a.png,I,z,896,4,2,1909.2000000178814,515937.0,8039,VNB,A,2
3,test,3,1.0,2-Back,1,m,Mon Jul 14 2025 13:48:21 GMT-0500 (Central Daylight Time),519295.8000000119,109_y_m_n_a.png,I,m,420,5,2,1442.5999999940395,517853.2000000179,8039,VNB,A,3
4,test,3,0.0,2-Back,1,m,Mon Jul 14 2025 13:48:21 GMT-0500 (Central Daylight Time),520861.90000000596,039_o_m_h_a.png,I,m,547,6,2,1559.199999988079,519302.7000000179,8039,VNB,A,4
5,test,3,0.0,2-Back,1,z,Mon Jul 14 2025 13:48:21 GMT-0500 (Central Daylight Time),522328.0,071_y_f_n_a.png,I,z,444,7,2,1458.699999988079,520869.3000000119,8039,VNB,A,5
6,test,3,1.0,2-Back,1,m,Mon Jul 14 2025 13:48:21 GMT-0500 (Central Daylight Time),523910.90000000596,165_m_m_d_a.png,I,m,553,8,2,1575.699999988079,522335.2000000179,8039,VNB,A,6
7,test,3,0.0,2-Back,1,m,Mon Jul 14 2025 13:48:21 GMT-0500 (Central Daylight Time),526077.0,109_y_m_d_a.png,I,m,1139,9,2,2159.2999999821186,523917.7000000179,8039,VNB,A,7
8,test,3,0.0,2-Back,1,m,Mon Jul 14 2025 13:48:21 GMT-0500 (Central Daylight Time),527993.0,124_o_f_h_a.png,I,m,885,10,2,1909.199999988079,526083.8000000119,8039,VNB,A,8
9,test,3,1.0,2-Back,1,m,Mon Jul 14 2025 13:48:21 GMT-0500 (Central Daylight Time),529859.0,139_m_f_n_a.png,I,m,841,11,2,1858.7999999821186,528000.2000000179,8039,VNB,A,9
10,test,3,1.0,2-Back,1,z,Mon Jul 14 2025 13:48:21 GMT-0500 (Central Daylight Time),531275.2000000179,165_m_m_h_a.png,I,z,399,12,2,1409.1000000238419,529866.099999994,8039,VNB,A,10
11,test,3,0.0,2-Back,1,m,Mon Jul 14 2025 13:48:21 GMT-0500 (Central Daylight Time),532808.099999994,071_y_f_d_a.png,I,m,503,13,2,1526.0999999940395,531282.0,8039,VNB,A,11
11,test,3,0.0,2-Back,0,m,Mon Jul 14 2025 13:48:21 GMT-0500 (Central Daylight Time),535074.2000000179,124_o_f_n_a.png,I,z,1242,14,2,2259.0,532815.2000000179,8039,VNB,A,12
12,test,3,0.0,2-Back,1,z,Mon Jul 14 2025 13:48:21 GMT-0500 (Central Daylight Time),537006.7000000179,039_o_m_d_a.png,I,z,904,15,2,1925.1000000238419,535081.599999994,8039,VNB,A,13
13,test,3,1.0,2-Back,1,m,Mon Jul 14 2025 13:48:21 GMT-0500 (Central Daylight Time),538539.5,139_m_f_h_a.png,I,m,515,16,2,1525.5,537014.0,8039,VNB,A,14
14,test,3,0.0,2-Back,1,m,Mon Jul 14 2025 13:48:21 GMT-0500 (Central Daylight Time),540339.0,165_m_m_n_a.png,I,m,774,17,2,1792.5999999940395,538546.400000006,8039,VNB,A,15
15,test,3,0.0,2-Back,1,z,Mon Jul 14 2025 13:48:21 GMT-0500 (Central Daylight Time),541855.2000000179,109_y_m_h_a.png,I,z,495,18,2,1508.800000011921,540346.400000006,8039,VNB,A,16
0,test,4,0.0,2-Back,,,Mon Jul 14 2025 13:48:21 GMT-0500 (Central Daylight Time),541855.2000000179,139_m_f_n_a.png,I,space,3811,1,2,1508.800000011921,540346.400000006,8039,VNB,A,0
0,test,4,0.0,2-Back,,,Mon Jul 14 2025 13:48:21 GMT-0500 (Central Daylight Time),541855.2000000179,039_o_m_n_a.png,I,space,3811,2,2,1508.800000011921,540346.400000006,8039,VNB,A,0
1,test,4,1.0,2-Back,1,m,Mon Jul 14 2025 13:48:21 GMT-0500 (Central Daylight Time),552351.900000006,109_y_m_h_a.png,I,m,586,3,2,1608.0,550743.900000006,8039,VNB,A,1
2,test,4,1.0,2-Back,1,m,Mon Jul 14 2025 13:48:21 GMT-0500 (Central Daylight Time),553968.099999994,124_o_f_d_a.png,I,m,586,4,2,1609.0999999940395,552359.0,8039,VNB,A,2
3,test,4,0.0,2-Back,1,z,Mon Jul 14 2025 13:48:21 GMT-0500 (Central Daylight Time),555634.2000000179,039_o_m_h_a.png,I,z,634,5,2,1659.0,553975.2000000179,8039,VNB,A,3
4,test,4,0.0,2-Back,1,m,Mon Jul 14 2025 13:48:21 GMT-0500 (Central Daylight Time),557400.3000000119,165_m_m_n_a.png,I,m,744,6,2,1759.0,555641.3000000119,8039,VNB,A,4
5,test,4,0.0,2-Back,1,m,Mon Jul 14 2025 13:48:21 GMT-0500 (Central Daylight Time),559233.0,139_m_f_d_a.png,I,m,802,7,2,1826.0999999940395,557406.900000006,8039,VNB,A,5
6,test,4,0.0,2-Back,1,z,Mon Jul 14 2025 13:48:21 GMT-0500 (Central Daylight Time),560699.3000000119,071_y_f_n_a.png,I,z,441,8,2,1458.4000000059605,559240.900000006,8039,VNB,A,6
7,test,4,1.0,2-Back,1,m,Mon Jul 14 2025 13:48:21 GMT-0500 (Central Daylight Time),562365.5,124_o_f_h_a.png,I,m,647,9,2,1659.2999999821186,560706.2000000179,8039,VNB,A,7
8,test,4,0.0,2-Back,1,m,Mon Jul 14 2025 13:48:21 GMT-0500 (Central Daylight Time),564214.7000000179,165_m_m_h_a.png,I,m,829,10,2,1842.1000000238419,562372.599999994,8039,VNB,A,8
9,test,4,0.0,2-Back,1,m,Mon Jul 14 2025 13:48:21 GMT-0500 (Central Daylight Time),565731.0,071_y_f_d_a.png,I,m,483,11,2,1509.5999999940395,564221.400000006,8039,VNB,A,9
10,test,4,0.0,2-Back,1,m,Mon Jul 14 2025 13:48:21 GMT-0500 (Central Daylight Time),567480.400000006,109_y_m_n_a.png,I,m,719,12,2,1742.9000000059605,565737.5,8039,VNB,A,10
11,test,4,0.0,2-Back,1,z,Mon Jul 14 2025 13:48:21 GMT-0500 (Central Daylight Time),568929.900000006,039_o_m_d_a.png,I,z,426,13,2,1442.4000000059605,567487.5,8039,VNB,A,11
12,test,4,1.0,2-Back,1,m,Mon Jul 14 2025 13:48:21 GMT-0500 (Central Daylight Time),570679.5,139_m_f_h_a.png,I,m,728,14,2,1742.7999999821186,568936.7000000179,8039,VNB,A,12
12,test,4,1.0,2-Back,0,m,Mon Jul 14 2025 13:48:21 GMT-0500 (Central Daylight Time),572828.900000006,071_y_f_h_a.png,I,z,1131,15,2,2142.699999988079,570686.2000000179,8039,VNB,A,13
13,test,4,0.0,2-Back,1,m,Mon Jul 14 2025 13:48:21 GMT-0500 (Central Daylight Time),574611.7000000179,124_o_f_n_a.png,I,m,757,16,2,1775.9000000059605,572835.8000000119,8039,VNB,A,14
14,test,4,0.0,2-Back,1,m,Mon Jul 14 2025 13:48:21 GMT-0500 (Central Daylight Time),576294.400000006,109_y_m_d_a.png,I,m,654,17,2,1675.699999988079,574618.7000000179,8039,VNB,A,15
15,test,4,1.0,2-Back,1,m,Mon Jul 14 2025 13:48:21 GMT-0500 (Central Daylight Time),577910.5,165_m_m_d_a.png,I,m,588,18,2,1609.5,576301.0,8039,VNB,A,16
0,test,5,1.0,2-Back,,,Mon Jul 14 2025 13:48:21 GMT-0500 (Central Daylight Time),577910.5,071_y_f_d_a.png,I,space,2988,1,2,1609.5,576301.0,8039,VNB,A,0
0,test,5,1.0,2-Back,,,Mon Jul 14 2025 13:48:21 GMT-0500 (Central Daylight Time),577910.5,124_o_f_h_a.png,I,space,2988,2,2,1609.5,576301.0,8039,VNB,A,0
1,test,5,1.0,2-Back,1,z,Mon Jul 14 2025 13:48:21 GMT-0500 (Central Daylight Time),587774.0,039_o_m_d_a.png,I,z,738,3,2,1759.199999988079,586014.8000000119,8039,VNB,A,1
2,test,5,1.0,2-Back,1,m,Mon Jul 14 2025 13:48:21 GMT-0500 (Central Daylight Time),589240.400000006,139_m_f_n_a.png,I,m,436,4,2,1459.0999999940395,587781.3000000119,8039,VNB,A,2
3,test,5,0.0,2-Back,1,m,Mon Jul 14 2025 13:48:21 GMT-0500 (Central Daylight Time),591139.8000000119,165_m_m_h_a.png,I,m,874,5,2,1892.2000000178814,589247.599999994,8039,VNB,A,3
4,test,5,0.0,2-Back,1,z,Mon Jul 14 2025 13:48:21 GMT-0500 (Central Daylight Time),592639.400000006,071_y_f_n_a.png,I,z,478,6,2,1492.0999999940395,591147.3000000119,8039,VNB,A,4
5,test,5,0.0,2-Back,1,m,Mon Jul 14 2025 13:48:21 GMT-0500 (Central Daylight Time),594205.599999994,124_o_f_d_a.png,I,m,539,7,2,1559.2999999821186,592646.3000000119,8039,VNB,A,5
6,test,5,0.0,2-Back,1,m,Mon Jul 14 2025 13:48:21 GMT-0500 (Central Daylight Time),595971.5,039_o_m_h_a.png,I,m,741,8,2,1758.4000000059605,594213.099999994,8039,VNB,A,6
7,test,5,1.0,2-Back,1,z,Mon Jul 14 2025 13:48:21 GMT-0500 (Central Daylight Time),597421.0,139_m_f_d_a.png,I,z,422,9,2,1442.0999999940395,595978.900000006,8039,VNB,A,7
8,test,5,0.0,2-Back,1,m,Mon Jul 14 2025 13:48:21 GMT-0500 (Central Daylight Time),598937.400000006,109_y_m_n_a.png,I,m,485,10,2,1509.5999999940395,597427.8000000119,8039,VNB,A,8
9,test,5,0.0,2-Back,1,m,Mon Jul 14 2025 13:48:21 GMT-0500 (Central Daylight Time),600886.7000000179,165_m_m_n_a.png,I,m,929,11,2,1942.2000000178814,598944.5,8039,VNB,A,9
10,test,5,0.0,2-Back,1,m,Mon Jul 14 2025 13:48:21 GMT-0500 (Central Daylight Time),602652.7000000179,071_y_f_h_a.png,I,m,747,12,2,1758.2000000178814,600894.5,8039,VNB,A,10
11,test,5,0.0,2-Back,1,m,Mon Jul 14 2025 13:48:21 GMT-0500 (Central Daylight Time),604685.400000006,109_y_m_d_a.png,I,m,1014,13,2,2025.4000000059605,602660.0,8039,VNB,A,11
12,test,5,1.0,2-Back,1,z,Mon Jul 14 2025 13:48:21 GMT-0500 (Central Daylight Time),606135.099999994,139_m_f_h_a.png,I,z,421,14,2,1442.7999999821186,604692.3000000119,8039,VNB,A,12
13,test,5,0.0,2-Back,1,m,Mon Jul 14 2025 13:48:21 GMT-0500 (Central Daylight Time),607651.3000000119,039_o_m_n_a.png,I,m,491,15,2,1509.2000000178814,606142.099999994,8039,VNB,A,13
14,test,5,0.0,2-Back,1,m,Mon Jul 14 2025 13:48:21 GMT-0500 (Central Daylight Time),609750.5,165_m_m_d_a.png,I,m,1079,16,2,2091.7999999821186,607658.7000000179,8039,VNB,A,14
15,test,5,0.0,2-Back,1,z,Mon Jul 14 2025 13:48:21 GMT-0500 (Central Daylight Time),611283.400000006,124_o_f_n_a.png,I,z,516,17,2,1524.5,609758.900000006,8039,VNB,A,15
16,test,5,1.0,2-Back,1,m,Mon Jul 14 2025 13:48:21 GMT-0500 (Central Daylight Time),612833.0,109_y_m_h_a.png,I,m,527,18,2,1542.0999999940395,611290.900000006,8039,VNB,A,16
