acc_sum,block,block_c,block_cond,con_img,correct,correct_response,datetime,endtime,face,jitter,line,project,response,response_time,row_sel,session_number,start_end,starttime,subject_id,task,task_vers,trial
1,prac,1,A,haborder.png,1,z,Wed Oct 22 2025 16:23:21 GMT-0400 (Eastern Daylight Time),72483.89999997616,CFD-WF-023-013-A.jpg,1000,solid,I,z,1284,12,1,3100.5999999046326,69383.30000007153,9034,ATS,C,1
2,prac,1,A,haborder.png,1,z,Wed Oct 22 2025 16:23:21 GMT-0400 (Eastern Daylight Time),76350.39999997616,CFD-WM-036-018-A.jpg,1900,solid,I,z,1139,8,1,6967.099999904633,69383.30000007153,9034,ATS,C,2
3,prac,1,A,haborder.png,1,m,Wed Oct 22 2025 16:23:21 GMT-0400 (Eastern Daylight Time),79433.39999997616,CFD-BM-034-035-HC.jpg,1700,solid,I,m,577,1,1,10050.099999904633,69383.30000007153,9034,ATS,C,3
4,prac,1,A,haborder.png,1,z,Wed Oct 22 2025 16:23:21 GMT-0400 (Eastern Daylight Time),81950.39999997616,CFD-BF-031-020-A.jpg,1000,solid,I,z,705,4,1,12567.099999904633,69383.30000007153,9034,ATS,C,4
5,prac,1,A,haborder.png,1,m,Wed Oct 22 2025 16:23:21 GMT-0400 (Eastern Daylight Time),84900.39999997616,CFD-BM-022-004-HC.jpg,1500,solid,I,m,634,3,1,15517.099999904633,69383.30000007153,9034,ATS,C,5
5,prac,1,A,haborder.png,0,m,Wed Oct 22 2025 16:23:21 GMT-0400 (Eastern Daylight Time),87900.10000002384,CFD-WF-013-009-HC.jpg,1500,solid,I,z,691,11,1,18516.799999952316,69383.30000007153,9034,ATS,C,6
6,prac,1,A,haborder.png,1,m,Wed Oct 22 2025 16:23:21 GMT-0400 (Eastern Daylight Time),91516.80000007153,CFD-BF-019-004-HC.jpg,2000,solid,I,m,807,5,1,22133.5,69383.30000007153,9034,ATS,C,7
7,prac,1,A,haborder.png,1,m,Wed Oct 22 2025 16:23:21 GMT-0400 (Eastern Daylight Time),94733.70000004768,CFD-WM-035-036-HC.jpg,1700,solid,I,m,706,9,1,25350.399999976158,69383.30000007153,9034,ATS,C,8
8,prac,1,A,haborder.png,1,z,Wed Oct 22 2025 16:23:21 GMT-0400 (Eastern Daylight Time),97949.80000007153,CFD-BM-043-014-A.jpg,1600,solid,I,z,806,2,1,28566.5,69383.30000007153,9034,ATS,C,9
9,prac,1,A,haborder.png,1,z,Wed Oct 22 2025 16:23:21 GMT-0400 (Eastern Daylight Time),100733.0,CFD-BF-002-018-A.jpg,1200,solid,I,z,773,6,1,31349.699999928474,69383.30000007153,9034,ATS,C,10
10,prac,1,A,haborder.png,1,z,Wed Oct 22 2025 16:23:21 GMT-0400 (Eastern Daylight Time),104033.10000002384,CFD-WF-037-016-A.jpg,1600,solid,I,z,885,10,1,34649.799999952316,69383.30000007153,9034,ATS,C,11
11,prac,1,A,haborder.png,1,m,Wed Oct 22 2025 16:23:21 GMT-0400 (Eastern Daylight Time),106783.5,CFD-WM-028-005-HC.jpg,1400,solid,I,m,554,7,1,37400.199999928474,69383.30000007153,9034,ATS,C,12
1,prac,1,B,mfborder.png,1,z,Wed Oct 22 2025 16:23:21 GMT-0400 (Eastern Daylight Time),140749.80000007153,CFD-WF-013-009-HC.jpg,1000,12,I,z,755,dash,1,2549.9000000953674,138199.89999997616,9034,ATS,C,1
2,prac,1,B,mfborder.png,1,z,Wed Oct 22 2025 16:23:21 GMT-0400 (Eastern Daylight Time),143650.0,CFD-BF-019-004-HC.jpg,1400,7,I,z,685,dash,1,5450.100000023842,138199.89999997616,9034,ATS,C,2
2,prac,1,B,mfborder.png,0,z,Wed Oct 22 2025 16:23:21 GMT-0400 (Eastern Daylight Time),146733.5,CFD-WF-037-016-A.jpg,1500,11,I,m,773,dash,1,8533.600000023842,138199.89999997616,9034,ATS,C,3
3,prac,1,B,mfborder.png,1,m,Wed Oct 22 2025 16:23:21 GMT-0400 (Eastern Daylight Time),149983.30000007153,CFD-BM-022-004-HC.jpg,1700,1,I,m,737,dash,1,11783.400000095367,138199.89999997616,9034,ATS,C,4
4,prac,1,B,mfborder.png,1,m,Wed Oct 22 2025 16:23:21 GMT-0400 (Eastern Daylight Time),152983.60000002384,CFD-BM-021-026-A.jpg,1600,2,I,m,595,dash,1,14783.700000047684,138199.89999997616,9034,ATS,C,5
5,prac,1,B,mfborder.png,1,m,Wed Oct 22 2025 16:23:21 GMT-0400 (Eastern Daylight Time),156066.89999997616,CFD-WM-035-036-HC.jpg,1600,10,I,m,682,dash,1,17867.0,138199.89999997616,9034,ATS,C,6
6,prac,1,B,mfborder.png,1,z,Wed Oct 22 2025 16:23:21 GMT-0400 (Eastern Daylight Time),159416.89999997616,CFD-WF-001-010-HC.jpg,1900,8,I,z,644,dash,1,21217.0,138199.89999997616,9034,ATS,C,7
7,prac,1,B,mfborder.png,1,z,Wed Oct 22 2025 16:23:21 GMT-0400 (Eastern Daylight Time),162533.60000002384,CFD-BF-031-020-A.jpg,1000,4,I,z,1315,dash,1,24333.700000047684,138199.89999997616,9034,ATS,C,8
8,prac,1,B,mfborder.png,1,m,Wed Oct 22 2025 16:23:21 GMT-0400 (Eastern Daylight Time),165700.20000004768,CFD-WM-036-018-A.jpg,1700,9,I,m,649,dash,1,27500.300000071526,138199.89999997616,9034,ATS,C,9
9,prac,1,B,mfborder.png,1,m,Wed Oct 22 2025 16:23:21 GMT-0400 (Eastern Daylight Time),168633.39999997616,CFD-WM-034-040-A.jpg,1200,6,I,m,943,dash,1,30433.5,138199.89999997616,9034,ATS,C,10
10,prac,1,B,mfborder.png,1,z,Wed Oct 22 2025 16:23:21 GMT-0400 (Eastern Daylight Time),171949.89999997616,CFD-BF-042-031-HC.jpg,1500,3,I,z,1005,dash,1,33750.0,138199.89999997616,9034,ATS,C,11
11,prac,1,B,mfborder.png,1,m,Wed Oct 22 2025 16:23:21 GMT-0400 (Eastern Daylight Time),175567.0,CFD-BM-043-014-A.jpg,2000,5,I,m,822,dash,1,37367.10000002384,138199.89999997616,9034,ATS,C,12
1,test,1,A,haborder.png,1,m,Wed Oct 22 2025 16:23:21 GMT-0400 (Eastern Daylight Time),201283.39999997616,CFD-BM-022-004-HC.jpg,1500,solid,I,m,1486,3,1,3033.0,198250.39999997616,9034,ATS,C,1
2,test,1,A,haborder.png,1,m,Wed Oct 22 2025 16:23:21 GMT-0400 (Eastern Daylight Time),204116.80000007153,CFD-BF-019-004-HC.jpg,2000,solid,I,m,800,5,1,5866.400000095367,198250.39999997616,9034,ATS,C,2
3,test,1,A,haborder.png,1,m,Wed Oct 22 2025 16:23:21 GMT-0400 (Eastern Daylight Time),206449.70000004768,CFD-BM-034-035-HC.jpg,1700,solid,I,m,586,1,1,8199.300000071526,198250.39999997616,9034,ATS,C,3
4,test,1,A,haborder.png,1,z,Wed Oct 22 2025 16:23:21 GMT-0400 (Eastern Daylight Time),208132.89999997616,CFD-WF-023-013-A.jpg,1000,solid,I,z,649,12,1,9882.5,198250.39999997616,9034,ATS,C,4
5,test,1,A,haborder.png,1,m,Wed Oct 22 2025 16:23:21 GMT-0400 (Eastern Daylight Time),210349.89999997616,CFD-BM-022-004-HC.jpg,1500,solid,I,m,691,3,1,12099.5,198250.39999997616,9034,ATS,C,5
6,test,1,A,haborder.png,1,m,Wed Oct 22 2025 16:23:21 GMT-0400 (Eastern Daylight Time),212799.89999997616,CFD-WM-035-036-HC.jpg,1700,solid,I,m,722,9,1,14549.5,198250.39999997616,9034,ATS,C,6
7,test,1,A,haborder.png,1,z,Wed Oct 22 2025 16:23:21 GMT-0400 (Eastern Daylight Time),215000.0,CFD-BM-043-014-A.jpg,1600,solid,I,z,579,2,1,16749.600000023842,198250.39999997616,9034,ATS,C,7
8,test,1,A,haborder.png,1,z,Wed Oct 22 2025 16:23:21 GMT-0400 (Eastern Daylight Time),217317.39999997616,CFD-WF-037-016-A.jpg,1600,solid,I,z,683,10,1,19067.0,198250.39999997616,9034,ATS,C,8
9,test,1,A,haborder.png,1,m,Wed Oct 22 2025 16:23:21 GMT-0400 (Eastern Daylight Time),219916.39999997616,CFD-WF-013-009-HC.jpg,1500,solid,I,m,1075,11,1,21666.0,198250.39999997616,9034,ATS,C,9
10,test,1,A,haborder.png,1,m,Wed Oct 22 2025 16:23:21 GMT-0400 (Eastern Daylight Time),222699.80000007153,CFD-BF-019-004-HC.jpg,2000,solid,I,m,759,5,1,24449.400000095367,198250.39999997616,9034,ATS,C,10
11,test,1,A,haborder.png,1,m,Wed Oct 22 2025 16:23:21 GMT-0400 (Eastern Daylight Time),225116.80000007153,CFD-BM-034-035-HC.jpg,1700,solid,I,m,692,1,1,26866.400000095367,198250.39999997616,9034,ATS,C,11
12,test,1,A,haborder.png,1,z,Wed Oct 22 2025 16:23:21 GMT-0400 (Eastern Daylight Time),226899.80000007153,CFD-BF-031-020-A.jpg,1000,solid,I,z,750,4,1,28649.400000095367,198250.39999997616,9034,ATS,C,12
13,test,1,A,haborder.png,1,z,Wed Oct 22 2025 16:23:21 GMT-0400 (Eastern Daylight Time),228800.0,CFD-BF-002-018-A.jpg,1200,solid,I,z,671,6,1,30549.600000023842,198250.39999997616,9034,ATS,C,13
14,test,1,A,haborder.png,1,m,Wed Oct 22 2025 16:23:21 GMT-0400 (Eastern Daylight Time),231299.80000007153,CFD-WM-035-036-HC.jpg,1700,solid,I,m,768,9,1,33049.40000009537,198250.39999997616,9034,ATS,C,14
15,test,1,A,haborder.png,1,m,Wed Oct 22 2025 16:23:21 GMT-0400 (Eastern Daylight Time),233600.0,CFD-WF-013-009-HC.jpg,1500,solid,I,m,772,11,1,35349.60000002384,198250.39999997616,9034,ATS,C,15
16,test,1,A,haborder.png,1,z,Wed Oct 22 2025 16:23:21 GMT-0400 (Eastern Daylight Time),235883.39999997616,CFD-WF-037-016-A.jpg,1600,solid,I,z,659,10,1,37633.0,198250.39999997616,9034,ATS,C,16
17,test,1,A,haborder.png,1,z,Wed Oct 22 2025 16:23:21 GMT-0400 (Eastern Daylight Time),237899.89999997616,CFD-BF-002-018-A.jpg,1200,solid,I,z,775,6,1,39649.5,198250.39999997616,9034,ATS,C,17
17,test,1,A,haborder.png,0,z,Wed Oct 22 2025 16:23:21 GMT-0400 (Eastern Daylight Time),240532.89999997616,CFD-WM-036-018-A.jpg,1900,solid,I,m,699,8,1,42282.5,198250.39999997616,9034,ATS,C,18
18,test,1,A,haborder.png,1,z,Wed Oct 22 2025 16:23:21 GMT-0400 (Eastern Daylight Time),242333.30000007153,CFD-BF-031-020-A.jpg,1000,solid,I,z,774,4,1,44082.90000009537,198250.39999997616,9034,ATS,C,19
19,test,1,A,haborder.png,1,z,Wed Oct 22 2025 16:23:21 GMT-0400 (Eastern Daylight Time),244166.60000002384,CFD-WF-023-013-A.jpg,1000,solid,I,z,814,12,1,45916.200000047684,198250.39999997616,9034,ATS,C,20
20,test,1,A,haborder.png,1,m,Wed Oct 22 2025 16:23:21 GMT-0400 (Eastern Daylight Time),246266.70000004768,CFD-WM-028-005-HC.jpg,1400,solid,I,m,677,7,1,48016.300000071526,198250.39999997616,9034,ATS,C,21
21,test,1,A,haborder.png,1,z,Wed Oct 22 2025 16:23:21 GMT-0400 (Eastern Daylight Time),248966.5,CFD-WM-036-018-A.jpg,1900,solid,I,z,764,8,1,50716.10000002384,198250.39999997616,9034,ATS,C,22
22,test,1,A,haborder.png,1,m,Wed Oct 22 2025 16:23:21 GMT-0400 (Eastern Daylight Time),251133.39999997616,CFD-WM-028-005-HC.jpg,1400,solid,I,m,741,7,1,52883.0,198250.39999997616,9034,ATS,C,23
23,test,1,A,haborder.png,1,z,Wed Oct 22 2025 16:23:21 GMT-0400 (Eastern Daylight Time),253450.0,CFD-BM-043-014-A.jpg,1600,solid,I,z,694,2,1,55199.60000002384,198250.39999997616,9034,ATS,C,24
1,test,1,B,mfborder.png,1,m,Wed Oct 22 2025 16:23:21 GMT-0400 (Eastern Daylight Time),274250.0,CFD-BM-043-014-A.jpg,2000,dash,I,m,1128,5,1,3149.6999999284744,271100.3000000715,9034,ATS,C,1
2,test,1,B,mfborder.png,1,z,Wed Oct 22 2025 16:23:21 GMT-0400 (Eastern Daylight Time),276583.2000000477,CFD-BF-031-020-A.jpg,1000,dash,I,z,1296,4,1,5482.899999976158,271100.3000000715,9034,ATS,C,2
3,test,1,B,mfborder.png,1,z,Wed Oct 22 2025 16:23:21 GMT-0400 (Eastern Daylight Time),278716.7000000477,CFD-WF-013-009-HC.jpg,1000,dash,I,z,1109,12,1,7616.399999976158,271100.3000000715,9034,ATS,C,3
4,test,1,B,mfborder.png,1,z,Wed Oct 22 2025 16:23:21 GMT-0400 (Eastern Daylight Time),281016.60000002384,CFD-BF-019-004-HC.jpg,1400,dash,I,z,863,7,1,9916.299999952316,271100.3000000715,9034,ATS,C,4
5,test,1,B,mfborder.png,1,m,Wed Oct 22 2025 16:23:21 GMT-0400 (Eastern Daylight Time),283350.3000000715,CFD-BM-021-026-A.jpg,1600,dash,I,m,700,2,1,12250.0,271100.3000000715,9034,ATS,C,5
6,test,1,B,mfborder.png,1,m,Wed Oct 22 2025 16:23:21 GMT-0400 (Eastern Daylight Time),285666.3000000715,CFD-WM-035-036-HC.jpg,1600,dash,I,m,685,10,1,14566.0,271100.3000000715,9034,ATS,C,6
7,test,1,B,mfborder.png,1,m,Wed Oct 22 2025 16:23:21 GMT-0400 (Eastern Daylight Time),287999.89999997616,CFD-WM-036-018-A.jpg,1700,dash,I,m,605,9,1,16899.599999904633,271100.3000000715,9034,ATS,C,7
8,test,1,B,mfborder.png,1,z,Wed Oct 22 2025 16:23:21 GMT-0400 (Eastern Daylight Time),290616.5,CFD-WF-001-010-HC.jpg,1900,dash,I,z,662,8,1,19516.199999928474,271100.3000000715,9034,ATS,C,8
9,test,1,B,mfborder.png,1,z,Wed Oct 22 2025 16:23:21 GMT-0400 (Eastern Daylight Time),292350.0,CFD-WF-013-009-HC.jpg,1000,dash,I,z,706,12,1,21249.699999928474,271100.3000000715,9034,ATS,C,9
10,test,1,B,mfborder.png,1,m,Wed Oct 22 2025 16:23:21 GMT-0400 (Eastern Daylight Time),295116.5,CFD-BM-022-004-HC.jpg,1700,dash,I,m,1041,1,1,24016.199999928474,271100.3000000715,9034,ATS,C,10
11,test,1,B,mfborder.png,1,m,Wed Oct 22 2025 16:23:21 GMT-0400 (Eastern Daylight Time),297216.7000000477,CFD-WM-034-040-A.jpg,1200,dash,I,m,871,6,1,26116.399999976158,271100.3000000715,9034,ATS,C,11
12,test,1,B,mfborder.png,1,m,Wed Oct 22 2025 16:23:21 GMT-0400 (Eastern Daylight Time),299200.0,CFD-WM-034-040-A.jpg,1200,dash,I,m,738,6,1,28099.699999928474,271100.3000000715,9034,ATS,C,12
13,test,1,B,mfborder.png,1,m,Wed Oct 22 2025 16:23:21 GMT-0400 (Eastern Daylight Time),301883.5,CFD-BM-043-014-A.jpg,2000,dash,I,m,659,5,1,30783.199999928474,271100.3000000715,9034,ATS,C,13
14,test,1,B,mfborder.png,1,z,Wed Oct 22 2025 16:23:21 GMT-0400 (Eastern Daylight Time),304111.7000000477,CFD-WF-037-016-A.jpg,1500,dash,I,z,684,11,1,33011.39999997616,271100.3000000715,9034,ATS,C,14
15,test,1,B,mfborder.png,1,z,Wed Oct 22 2025 16:23:21 GMT-0400 (Eastern Daylight Time),306733.39999997616,CFD-BF-019-004-HC.jpg,1400,dash,I,z,1191,7,1,35633.09999990463,271100.3000000715,9034,ATS,C,15
16,test,1,B,mfborder.png,1,z,Wed Oct 22 2025 16:23:21 GMT-0400 (Eastern Daylight Time),309016.60000002384,CFD-BF-042-031-HC.jpg,1500,dash,I,z,762,3,1,37916.299999952316,271100.3000000715,9034,ATS,C,16
17,test,1,B,mfborder.png,1,m,Wed Oct 22 2025 16:23:21 GMT-0400 (Eastern Daylight Time),311483.3000000715,CFD-BM-022-004-HC.jpg,1700,dash,I,m,726,1,1,40383.0,271100.3000000715,9034,ATS,C,17
18,test,1,B,mfborder.png,1,m,Wed Oct 22 2025 16:23:21 GMT-0400 (Eastern Daylight Time),313716.60000002384,CFD-WM-035-036-HC.jpg,1600,dash,I,m,583,10,1,42616.299999952316,271100.3000000715,9034,ATS,C,18
19,test,1,B,mfborder.png,1,m,Wed Oct 22 2025 16:23:21 GMT-0400 (Eastern Daylight Time),315983.3000000715,CFD-BM-021-026-A.jpg,1600,dash,I,m,638,2,1,44883.0,271100.3000000715,9034,ATS,C,19
20,test,1,B,mfborder.png,1,z,Wed Oct 22 2025 16:23:21 GMT-0400 (Eastern Daylight Time),317783.2000000477,CFD-BF-031-020-A.jpg,1000,dash,I,z,782,4,1,46682.89999997616,271100.3000000715,9034,ATS,C,20
21,test,1,B,mfborder.png,1,z,Wed Oct 22 2025 16:23:21 GMT-0400 (Eastern Daylight Time),320016.39999997616,CFD-WF-037-016-A.jpg,1500,dash,I,z,687,11,1,48916.09999990463,271100.3000000715,9034,ATS,C,21
22,test,1,B,mfborder.png,1,m,Wed Oct 22 2025 16:23:21 GMT-0400 (Eastern Daylight Time),322533.89999997616,CFD-WM-036-018-A.jpg,1700,dash,I,m,799,9,1,51433.59999990463,271100.3000000715,9034,ATS,C,22
23,test,1,B,mfborder.png,1,z,Wed Oct 22 2025 16:23:21 GMT-0400 (Eastern Daylight Time),325166.8000000715,CFD-WF-001-010-HC.jpg,1900,dash,I,z,689,8,1,54066.5,271100.3000000715,9034,ATS,C,23
24,test,1,B,mfborder.png,1,z,Wed Oct 22 2025 16:23:21 GMT-0400 (Eastern Daylight Time),327350.10000002384,CFD-BF-042-031-HC.jpg,1500,dash,I,z,665,3,1,56249.799999952316,271100.3000000715,9034,ATS,C,24
1,prac,1,C,haborder.png,1,z,Wed Oct 22 2025 16:23:21 GMT-0400 (Eastern Daylight Time),375133.7000000477,CFD-WF-037-016-A.jpg,1600,dash,I,z,1356,3,1,3750.7000000476837,371383.0,9034,ATS,C,1
1,prac,1,C,haborder.png,0,m,Wed Oct 22 2025 16:23:21 GMT-0400 (Eastern Daylight Time),378233.3000000715,CFD-WM-028-005-HC.jpg,1000,dash,I,z,1294,3,1,6850.300000071526,371383.0,9034,ATS,C,2
1,prac,1,C,haborder.png,0,m,Wed Oct 22 2025 16:23:21 GMT-0400 (Eastern Daylight Time),381949.89999997616,CFD-WM-028-005-HC.jpg,1400,solid,I,None,1516,3,1,10566.899999976158,371383.0,9034,ATS,C,3
1,prac,1,C,mfborder.png,0,m,Wed Oct 22 2025 16:23:21 GMT-0400 (Eastern Daylight Time),385350.0,CFD-BM-043-014-A.jpg,1200,dash,I,z,1397,3,1,13967.0,371383.0,9034,ATS,C,4
2,prac,1,C,mfborder.png,1,z,Wed Oct 22 2025 16:23:21 GMT-0400 (Eastern Daylight Time),389000.10000002384,CFD-WF-023-013-A.jpg,1500,solid,I,z,1345,3,1,17617.100000023842,371383.0,9034,ATS,C,5
2,prac,1,C,haborder.png,0,z,Wed Oct 22 2025 16:23:21 GMT-0400 (Eastern Daylight Time),393016.5,CFD-BF-002-018-A.jpg,1700,solid,I,None,1516,3,1,21633.5,371383.0,9034,ATS,C,6
3,prac,1,C,mfborder.png,1,m,Wed Oct 22 2025 16:23:21 GMT-0400 (Eastern Daylight Time),397200.2000000477,CFD-BM-034-035-HC.jpg,2000,solid,I,m,1371,3,1,25817.200000047684,371383.0,9034,ATS,C,7
4,prac,1,C,haborder.png,1,z,Wed Oct 22 2025 16:23:21 GMT-0400 (Eastern Daylight Time),400833.10000002384,CFD-BF-031-020-A.jpg,1900,dash,I,z,919,3,1,29450.100000023842,371383.0,9034,ATS,C,8
4,prac,1,C,mfborder.png,0,z,Wed Oct 22 2025 16:23:21 GMT-0400 (Eastern Daylight Time),404000.10000002384,CFD-WF-013-009-HC.jpg,1600,dash,I,m,754,3,1,32617.100000023842,371383.0,9034,ATS,C,9
4,prac,1,C,mfborder.png,0,m,Wed Oct 22 2025 16:23:21 GMT-0400 (Eastern Daylight Time),408016.60000002384,CFD-WM-036-018-A.jpg,1700,solid,I,None,1516,3,1,36633.60000002384,371383.0,9034,ATS,C,10
5,prac,1,C,haborder.png,1,m,Wed Oct 22 2025 16:23:21 GMT-0400 (Eastern Daylight Time),411583.39999997616,CFD-BM-022-004-HC.jpg,1500,solid,I,m,1254,3,1,40200.39999997616,371383.0,9034,ATS,C,11
6,prac,1,C,mfborder.png,1,z,Wed Oct 22 2025 16:23:21 GMT-0400 (Eastern Daylight Time),414599.8000000715,CFD-BF-019-004-HC.jpg,1000,dash,I,z,1212,3,1,43216.800000071526,371383.0,9034,ATS,C,12
0,prac,2,C,haborder.png,0,m,Wed Oct 22 2025 16:23:21 GMT-0400 (Eastern Daylight Time),427316.60000002384,CFD-WM-028-005-HC.jpg,1400,solid,I,None,1516,3,1,55933.60000002384,371383.0,9034,ATS,C,1
1,prac,2,C,haborder.png,1,z,Wed Oct 22 2025 16:23:21 GMT-0400 (Eastern Daylight Time),430833.3000000715,CFD-BF-031-020-A.jpg,1900,dash,I,z,803,3,1,59450.300000071526,371383.0,9034,ATS,C,2
2,prac,2,C,mfborder.png,1,m,Wed Oct 22 2025 16:23:21 GMT-0400 (Eastern Daylight Time),434583.3000000715,CFD-WM-036-018-A.jpg,1700,solid,I,m,1247,3,1,63200.300000071526,371383.0,9034,ATS,C,3
2,prac,2,C,haborder.png,0,m,Wed Oct 22 2025 16:23:21 GMT-0400 (Eastern Daylight Time),437899.5,CFD-WM-028-005-HC.jpg,1000,dash,I,None,1516,3,1,66516.5,371383.0,9034,ATS,C,4
3,prac,2,C,haborder.png,1,z,Wed Oct 22 2025 16:23:21 GMT-0400 (Eastern Daylight Time),441299.5,CFD-BF-002-018-A.jpg,1700,solid,I,z,916,3,1,69916.5,371383.0,9034,ATS,C,5
4,prac,2,C,mfborder.png,1,z,Wed Oct 22 2025 16:23:21 GMT-0400 (Eastern Daylight Time),444833.60000002384,CFD-WF-023-013-A.jpg,1500,solid,I,z,1219,3,1,73450.60000002384,371383.0,9034,ATS,C,6
5,prac,2,C,mfborder.png,1,z,Wed Oct 22 2025 16:23:21 GMT-0400 (Eastern Daylight Time),447766.60000002384,CFD-BF-019-004-HC.jpg,1000,dash,I,z,1130,3,1,76383.60000002384,371383.0,9034,ATS,C,7
6,prac,2,C,mfborder.png,1,z,Wed Oct 22 2025 16:23:21 GMT-0400 (Eastern Daylight Time),450916.8000000715,CFD-WF-013-009-HC.jpg,1600,dash,I,z,749,3,1,79533.80000007153,371383.0,9034,ATS,C,8
7,prac,2,C,mfborder.png,1,m,Wed Oct 22 2025 16:23:21 GMT-0400 (Eastern Daylight Time),454833.3000000715,CFD-BM-034-035-HC.jpg,2000,solid,I,m,1104,3,1,83450.30000007153,371383.0,9034,ATS,C,9
8,prac,2,C,mfborder.png,1,m,Wed Oct 22 2025 16:23:21 GMT-0400 (Eastern Daylight Time),457516.60000002384,CFD-BM-043-014-A.jpg,1200,dash,I,m,674,3,1,86133.60000002384,371383.0,9034,ATS,C,10
9,prac,2,C,haborder.png,1,z,Wed Oct 22 2025 16:23:21 GMT-0400 (Eastern Daylight Time),460866.7000000477,CFD-WF-037-016-A.jpg,1600,dash,I,z,935,3,1,89483.70000004768,371383.0,9034,ATS,C,11
10,prac,2,C,haborder.png,1,m,Wed Oct 22 2025 16:23:21 GMT-0400 (Eastern Daylight Time),464251.3000000715,CFD-BM-022-004-HC.jpg,1500,solid,I,m,1093,3,1,92868.30000007153,371383.0,9034,ATS,C,12
1,test,1,C,mfborder.png,1,m,Wed Oct 22 2025 16:23:21 GMT-0400 (Eastern Daylight Time),486616.8000000715,CFD-WM-035-036-HC.jpg,1000,dash,I,m,1013,4,1,2034.0,484582.8000000715,9034,ATS,C,1
1,test,1,C,haborder.png,0,z,Wed Oct 22 2025 16:23:21 GMT-0400 (Eastern Daylight Time),489834.7000000477,CFD-BM-021-026-A.jpg,1700,solid,I,None,1502,9,1,5251.899999976158,484582.8000000715,9034,ATS,C,2
2,test,1,C,mfborder.png,1,z,Wed Oct 22 2025 16:23:21 GMT-0400 (Eastern Daylight Time),492916.60000002384,CFD-BF-031-020-A.jpg,1600,dash,I,z,1433,2,1,8333.799999952316,484582.8000000715,9034,ATS,C,3
3,test,1,C,mfborder.png,1,m,Wed Oct 22 2025 16:23:21 GMT-0400 (Eastern Daylight Time),495482.8000000715,CFD-BM-022-004-HC.jpg,1200,dash,I,m,1343,6,1,10900.0,484582.8000000715,9034,ATS,C,4
3,test,1,C,haborder.png,0,z,Wed Oct 22 2025 16:23:21 GMT-0400 (Eastern Daylight Time),498416.7000000477,CFD-WM-036-018-A.jpg,1400,solid,I,None,1517,7,1,13833.899999976158,484582.8000000715,9034,ATS,C,5
4,test,1,C,mfborder.png,1,m,Wed Oct 22 2025 16:23:21 GMT-0400 (Eastern Daylight Time),500216.2000000477,CFD-WM-035-036-HC.jpg,1000,dash,I,m,778,4,1,15633.399999976158,484582.8000000715,9034,ATS,C,6
5,test,1,C,haborder.png,1,m,Wed Oct 22 2025 16:23:21 GMT-0400 (Eastern Daylight Time),502732.8000000715,CFD-WF-013-009-HC.jpg,1000,solid,I,m,1491,12,1,18150.0,484582.8000000715,9034,ATS,C,7
5,test,1,C,haborder.png,0,z,Wed Oct 22 2025 16:23:21 GMT-0400 (Eastern Daylight Time),506166.60000002384,CFD-BM-043-014-A.jpg,1900,solid,I,None,1516,8,1,21583.799999952316,484582.8000000715,9034,ATS,C,8
6,test,1,C,mfborder.png,1,m,Wed Oct 22 2025 16:23:21 GMT-0400 (Eastern Daylight Time),508966.3000000715,CFD-WM-034-040-A.jpg,2000,dash,I,m,764,5,1,24383.5,484582.8000000715,9034,ATS,C,9
7,test,1,C,haborder.png,1,z,Wed Oct 22 2025 16:23:21 GMT-0400 (Eastern Daylight Time),511733.89999997616,CFD-BM-043-014-A.jpg,1900,solid,I,z,849,8,1,27151.099999904633,484582.8000000715,9034,ATS,C,10
8,test,1,C,haborder.png,1,z,Wed Oct 22 2025 16:23:21 GMT-0400 (Eastern Daylight Time),514083.10000002384,CFD-WM-036-018-A.jpg,1400,solid,I,z,918,7,1,29500.299999952316,484582.8000000715,9034,ATS,C,11
9,test,1,C,haborder.png,1,m,Wed Oct 22 2025 16:23:21 GMT-0400 (Eastern Daylight Time),516849.7000000477,CFD-WF-001-010-HC.jpg,1500,solid,I,m,1220,11,1,32266.899999976158,484582.8000000715,9034,ATS,C,12
10,test,1,C,haborder.png,1,m,Wed Oct 22 2025 16:23:21 GMT-0400 (Eastern Daylight Time),519216.60000002384,CFD-BF-019-004-HC.jpg,1600,solid,I,m,738,10,1,34633.799999952316,484582.8000000715,9034,ATS,C,13
11,test,1,C,haborder.png,1,m,Wed Oct 22 2025 16:23:21 GMT-0400 (Eastern Daylight Time),521516.60000002384,CFD-BF-019-004-HC.jpg,1600,solid,I,m,675,10,1,36933.799999952316,484582.8000000715,9034,ATS,C,14
11,test,1,C,mfborder.png,0,z,Wed Oct 22 2025 16:23:21 GMT-0400 (Eastern Daylight Time),524766.3000000715,CFD-BF-042-031-HC.jpg,1700,dash,I,None,1515,1,1,40183.5,484582.8000000715,9034,ATS,C,15
12,test,1,C,mfborder.png,1,m,Wed Oct 22 2025 16:23:21 GMT-0400 (Eastern Daylight Time),526916.6000000238,CFD-BM-022-004-HC.jpg,1200,dash,I,m,901,6,1,42333.799999952316,484582.8000000715,9034,ATS,C,16
13,test,1,C,mfborder.png,1,z,Wed Oct 22 2025 16:23:21 GMT-0400 (Eastern Daylight Time),529316.6000000238,CFD-BF-042-031-HC.jpg,1700,dash,I,z,651,1,1,44733.799999952316,484582.8000000715,9034,ATS,C,17
14,test,1,C,mfborder.png,1,m,Wed Oct 22 2025 16:23:21 GMT-0400 (Eastern Daylight Time),531999.8999999762,CFD-WM-034-040-A.jpg,2000,dash,I,m,657,5,1,47417.09999990463,484582.8000000715,9034,ATS,C,18
14,test,1,C,mfborder.png,0,z,Wed Oct 22 2025 16:23:21 GMT-0400 (Eastern Daylight Time),535049.6000000238,CFD-WF-037-016-A.jpg,1500,dash,I,None,1516,3,1,50466.799999952316,484582.8000000715,9034,ATS,C,19
14,test,1,C,haborder.png,0,m,Wed Oct 22 2025 16:23:21 GMT-0400 (Eastern Daylight Time),538083.1000000238,CFD-WF-001-010-HC.jpg,1500,solid,I,None,1516,11,1,53500.299999952316,484582.8000000715,9034,ATS,C,20
15,test,1,C,haborder.png,1,m,Wed Oct 22 2025 16:23:21 GMT-0400 (Eastern Daylight Time),539949.8999999762,CFD-WF-013-009-HC.jpg,1000,solid,I,m,824,12,1,55367.09999990463,484582.8000000715,9034,ATS,C,21
16,test,1,C,mfborder.png,1,z,Wed Oct 22 2025 16:23:21 GMT-0400 (Eastern Daylight Time),542749.6000000238,CFD-BF-031-020-A.jpg,1600,dash,I,z,1174,2,1,58166.799999952316,484582.8000000715,9034,ATS,C,22
17,test,1,C,mfborder.png,1,z,Wed Oct 22 2025 16:23:21 GMT-0400 (Eastern Daylight Time),545166.6000000238,CFD-WF-037-016-A.jpg,1500,dash,I,z,890,3,1,60583.799999952316,484582.8000000715,9034,ATS,C,23
17,test,1,C,haborder.png,0,z,Wed Oct 22 2025 16:23:21 GMT-0400 (Eastern Daylight Time),547999.7000000477,CFD-BM-021-026-A.jpg,1700,solid,I,m,1106,9,1,63416.89999997616,484582.8000000715,9034,ATS,C,24
0,test,2,C,haborder.png,0,z,Wed Oct 22 2025 16:23:21 GMT-0400 (Eastern Daylight Time),553833.3000000715,CFD-BF-002-018-A.jpg,1900,solid,I,None,1516,8,1,3433.4000000953674,550399.8999999762,9034,ATS,C,1
1,test,2,C,haborder.png,1,m,Wed Oct 22 2025 16:23:21 GMT-0400 (Eastern Daylight Time),556399.8000000715,CFD-BM-022-004-HC.jpg,1600,solid,I,m,923,10,1,5999.900000095367,550399.8999999762,9034,ATS,C,2
2,test,2,C,mfborder.png,1,m,Wed Oct 22 2025 16:23:21 GMT-0400 (Eastern Daylight Time),558766.6000000238,CFD-WM-036-018-A.jpg,1200,dash,I,m,1140,6,1,8366.700000047684,550399.8999999762,9034,ATS,C,3
2,test,2,C,haborder.png,0,z,Wed Oct 22 2025 16:23:21 GMT-0400 (Eastern Daylight Time),561999.8999999762,CFD-WF-037-016-A.jpg,1700,solid,I,None,1516,9,1,11600.0,550399.8999999762,9034,ATS,C,4
2,test,2,C,mfborder.png,0,z,Wed Oct 22 2025 16:23:21 GMT-0400 (Eastern Daylight Time),564583.0,CFD-WF-023-013-A.jpg,1600,dash,I,m,947,2,1,14183.100000023842,550399.8999999762,9034,ATS,C,5
3,test,2,C,haborder.png,1,m,Wed Oct 22 2025 16:23:21 GMT-0400 (Eastern Daylight Time),567183.3000000715,CFD-WM-028-005-HC.jpg,1500,solid,I,m,1058,11,1,16783.400000095367,550399.8999999762,9034,ATS,C,6
4,test,2,C,haborder.png,1,m,Wed Oct 22 2025 16:23:21 GMT-0400 (Eastern Daylight Time),570112.2000000477,CFD-BM-022-004-HC.jpg,1600,solid,I,m,1285,10,1,19712.300000071526,550399.8999999762,9034,ATS,C,7
5,test,2,C,haborder.png,1,z,Wed Oct 22 2025 16:23:21 GMT-0400 (Eastern Daylight Time),572833.2000000477,CFD-BF-002-018-A.jpg,1900,solid,I,z,788,8,1,22433.300000071526,550399.8999999762,9034,ATS,C,8
6,test,2,C,mfborder.png,1,m,Wed Oct 22 2025 16:23:21 GMT-0400 (Eastern Daylight Time),574683.1000000238,CFD-BM-034-035-HC.jpg,1000,dash,I,m,827,4,1,24283.200000047684,550399.8999999762,9034,ATS,C,9
7,test,2,C,haborder.png,1,m,Wed Oct 22 2025 16:23:21 GMT-0400 (Eastern Daylight Time),576799.7000000477,CFD-WM-028-005-HC.jpg,1000,solid,I,m,1072,12,1,26399.800000071526,550399.8999999762,9034,ATS,C,10
8,test,2,C,mfborder.png,1,m,Wed Oct 22 2025 16:23:21 GMT-0400 (Eastern Daylight Time),578616.5,CFD-BM-034-035-HC.jpg,1000,dash,I,m,796,4,1,28216.600000023842,550399.8999999762,9034,ATS,C,11
9,test,2,C,haborder.png,1,m,Wed Oct 22 2025 16:23:21 GMT-0400 (Eastern Daylight Time),580533.8000000715,CFD-WM-028-005-HC.jpg,1000,solid,I,m,899,12,1,30133.900000095367,550399.8999999762,9034,ATS,C,12
10,test,2,C,haborder.png,1,z,Wed Oct 22 2025 16:23:21 GMT-0400 (Eastern Daylight Time),582749.6000000238,CFD-BF-031-020-A.jpg,1400,solid,I,z,774,7,1,32349.700000047684,550399.8999999762,9034,ATS,C,13
10,test,2,C,mfborder.png,0,z,Wed Oct 22 2025 16:23:21 GMT-0400 (Eastern Daylight Time),585232.8999999762,CFD-BF-019-004-HC.jpg,1500,dash,I,m,954,3,1,34833.0,550399.8999999762,9034,ATS,C,14
10,test,2,C,mfborder.png,0,m,Wed Oct 22 2025 16:23:21 GMT-0400 (Eastern Daylight Time),588766.8000000715,CFD-BM-043-014-A.jpg,2000,dash,I,None,1516,5,1,38366.90000009537,550399.8999999762,9034,ATS,C,15
11,test,2,C,mfborder.png,1,z,Wed Oct 22 2025 16:23:21 GMT-0400 (Eastern Daylight Time),591633.2000000477,CFD-WF-023-013-A.jpg,1600,dash,I,z,1238,2,1,41233.300000071526,550399.8999999762,9034,ATS,C,16
12,test,2,C,mfborder.png,1,z,Wed Oct 22 2025 16:23:21 GMT-0400 (Eastern Daylight Time),593866.3000000715,CFD-BF-019-004-HC.jpg,1500,dash,I,z,710,3,1,43466.40000009537,550399.8999999762,9034,ATS,C,17
13,test,2,C,mfborder.png,1,z,Wed Oct 22 2025 16:23:21 GMT-0400 (Eastern Daylight Time),596382.8999999762,CFD-WF-013-009-HC.jpg,1700,dash,I,z,789,1,1,45983.0,550399.8999999762,9034,ATS,C,18
14,test,2,C,mfborder.png,1,z,Wed Oct 22 2025 16:23:21 GMT-0400 (Eastern Daylight Time),598999.7000000477,CFD-WF-013-009-HC.jpg,1700,dash,I,z,880,1,1,48599.800000071526,550399.8999999762,9034,ATS,C,19
15,test,2,C,haborder.png,1,m,Wed Oct 22 2025 16:23:21 GMT-0400 (Eastern Daylight Time),601382.8999999762,CFD-WM-028-005-HC.jpg,1500,solid,I,m,864,11,1,50983.0,550399.8999999762,9034,ATS,C,20
15,test,2,C,mfborder.png,0,m,Wed Oct 22 2025 16:23:21 GMT-0400 (Eastern Daylight Time),604499.8000000715,CFD-BM-043-014-A.jpg,2000,dash,I,z,1085,5,1,54099.90000009537,550399.8999999762,9034,ATS,C,21
16,test,2,C,haborder.png,1,z,Wed Oct 22 2025 16:23:21 GMT-0400 (Eastern Daylight Time),607333.3000000715,CFD-WF-037-016-A.jpg,1700,solid,I,z,1116,9,1,56933.40000009537,550399.8999999762,9034,ATS,C,22
17,test,2,C,mfborder.png,1,m,Wed Oct 22 2025 16:23:21 GMT-0400 (Eastern Daylight Time),609416.3999999762,CFD-WM-036-018-A.jpg,1200,dash,I,m,863,6,1,59016.5,550399.8999999762,9034,ATS,C,23
18,test,2,C,haborder.png,1,z,Wed Oct 22 2025 16:23:21 GMT-0400 (Eastern Daylight Time),611599.7000000477,CFD-BF-031-020-A.jpg,1400,solid,I,z,739,7,1,61199.800000071526,550399.8999999762,9034,ATS,C,24
1,test,3,C,mfborder.png,1,m,Wed Oct 22 2025 16:23:21 GMT-0400 (Eastern Daylight Time),617999.8999999762,CFD-WM-034-040-A.jpg,2000,dash,I,m,705,5,1,2733.1999999284744,615266.7000000477,9034,ATS,C,1
2,test,3,C,haborder.png,1,z,Wed Oct 22 2025 16:23:21 GMT-0400 (Eastern Daylight Time),620866.3000000715,CFD-BM-043-014-A.jpg,1900,solid,I,z,919,8,1,5599.600000023842,615266.7000000477,9034,ATS,C,2
3,test,3,C,haborder.png,1,z,Wed Oct 22 2025 16:23:21 GMT-0400 (Eastern Daylight Time),623049.7000000477,CFD-WM-036-018-A.jpg,1400,solid,I,z,761,7,1,7783.0,615266.7000000477,9034,ATS,C,3
4,test,3,C,haborder.png,1,z,Wed Oct 22 2025 16:23:21 GMT-0400 (Eastern Daylight Time),626283.0,CFD-BM-043-014-A.jpg,1900,solid,I,z,1293,8,1,11016.299999952316,615266.7000000477,9034,ATS,C,4
5,test,3,C,mfborder.png,1,m,Wed Oct 22 2025 16:23:21 GMT-0400 (Eastern Daylight Time),628166.2000000477,CFD-WM-035-036-HC.jpg,1000,dash,I,m,865,4,1,12899.5,615266.7000000477,9034,ATS,C,5
6,test,3,C,mfborder.png,1,m,Wed Oct 22 2025 16:23:21 GMT-0400 (Eastern Daylight Time),630316.5,CFD-BM-022-004-HC.jpg,1200,dash,I,m,908,6,1,15049.799999952316,615266.7000000477,9034,ATS,C,6
6,test,3,C,mfborder.png,0,z,Wed Oct 22 2025 16:23:21 GMT-0400 (Eastern Daylight Time),632599.6000000238,CFD-WF-037-016-A.jpg,1500,dash,I,m,763,3,1,17332.899999976158,615266.7000000477,9034,ATS,C,7
7,test,3,C,haborder.png,1,z,Wed Oct 22 2025 16:23:21 GMT-0400 (Eastern Daylight Time),635516.3999999762,CFD-BM-021-026-A.jpg,1700,solid,I,z,1175,9,1,20249.699999928474,615266.7000000477,9034,ATS,C,8
8,test,3,C,haborder.png,1,z,Wed Oct 22 2025 16:23:21 GMT-0400 (Eastern Daylight Time),638133.6000000238,CFD-BM-021-026-A.jpg,1700,solid,I,z,899,9,1,22866.899999976158,615266.7000000477,9034,ATS,C,9
8,test,3,C,mfborder.png,0,z,Wed Oct 22 2025 16:23:21 GMT-0400 (Eastern Daylight Time),640999.3000000715,CFD-BF-031-020-A.jpg,1600,dash,I,m,1229,2,1,25732.600000023842,615266.7000000477,9034,ATS,C,10
9,test,3,C,mfborder.png,1,z,Wed Oct 22 2025 16:23:21 GMT-0400 (Eastern Daylight Time),643416.2000000477,CFD-BF-031-020-A.jpg,1600,dash,I,z,797,2,1,28149.5,615266.7000000477,9034,ATS,C,11
10,test,3,C,mfborder.png,1,z,Wed Oct 22 2025 16:23:21 GMT-0400 (Eastern Daylight Time),645733.6000000238,CFD-WF-037-016-A.jpg,1500,dash,I,z,783,3,1,30466.899999976158,615266.7000000477,9034,ATS,C,12
11,test,3,C,mfborder.png,1,m,Wed Oct 22 2025 16:23:21 GMT-0400 (Eastern Daylight Time),649216.3000000715,CFD-WM-034-040-A.jpg,2000,dash,I,m,1455,5,1,33949.60000002384,615266.7000000477,9034,ATS,C,13
12,test,3,C,haborder.png,1,m,Wed Oct 22 2025 16:23:21 GMT-0400 (Eastern Daylight Time),652116.3999999762,CFD-BF-019-004-HC.jpg,1600,solid,I,m,1251,10,1,36849.699999928474,615266.7000000477,9034,ATS,C,14
13,test,3,C,haborder.png,1,m,Wed Oct 22 2025 16:23:21 GMT-0400 (Eastern Daylight Time),654416.3000000715,CFD-WF-001-010-HC.jpg,1500,solid,I,m,771,11,1,39149.60000002384,615266.7000000477,9034,ATS,C,15
13,test,3,C,haborder.png,0,z,Wed Oct 22 2025 16:23:21 GMT-0400 (Eastern Daylight Time),656883.1000000238,CFD-WM-036-018-A.jpg,1400,solid,I,m,1018,7,1,41616.39999997616,615266.7000000477,9034,ATS,C,16
14,test,3,C,haborder.png,1,m,Wed Oct 22 2025 16:23:21 GMT-0400 (Eastern Daylight Time),659983.1000000238,CFD-BF-019-004-HC.jpg,1600,solid,I,m,1456,10,1,44716.39999997616,615266.7000000477,9034,ATS,C,17
15,test,3,C,haborder.png,1,m,Wed Oct 22 2025 16:23:21 GMT-0400 (Eastern Daylight Time),662349.3999999762,CFD-WF-001-010-HC.jpg,1500,solid,I,m,840,11,1,47082.699999928474,615266.7000000477,9034,ATS,C,18
16,test,3,C,haborder.png,1,m,Wed Oct 22 2025 16:23:21 GMT-0400 (Eastern Daylight Time),664433.2000000477,CFD-WF-013-009-HC.jpg,1000,solid,I,m,1055,12,1,49166.5,615266.7000000477,9034,ATS,C,19
17,test,3,C,haborder.png,1,m,Wed Oct 22 2025 16:23:21 GMT-0400 (Eastern Daylight Time),666316.3000000715,CFD-WF-013-009-HC.jpg,1000,solid,I,m,859,12,1,51049.60000002384,615266.7000000477,9034,ATS,C,20
18,test,3,C,mfborder.png,1,m,Wed Oct 22 2025 16:23:21 GMT-0400 (Eastern Daylight Time),668433.1000000238,CFD-WM-035-036-HC.jpg,1000,dash,I,m,1071,4,1,53166.39999997616,615266.7000000477,9034,ATS,C,21
19,test,3,C,mfborder.png,1,m,Wed Oct 22 2025 16:23:21 GMT-0400 (Eastern Daylight Time),670582.8000000715,CFD-BM-022-004-HC.jpg,1200,dash,I,m,931,6,1,55316.10000002384,615266.7000000477,9034,ATS,C,22
20,test,3,C,mfborder.png,1,z,Wed Oct 22 2025 16:23:21 GMT-0400 (Eastern Daylight Time),673099.5,CFD-BF-042-031-HC.jpg,1700,dash,I,z,776,1,1,57832.799999952316,615266.7000000477,9034,ATS,C,23
21,test,3,C,mfborder.png,1,z,Wed Oct 22 2025 16:23:21 GMT-0400 (Eastern Daylight Time),675499.3999999762,CFD-BF-042-031-HC.jpg,1700,dash,I,z,675,1,1,60232.699999928474,615266.7000000477,9034,ATS,C,24
1,test,4,C,haborder.png,1,z,Wed Oct 22 2025 16:23:21 GMT-0400 (Eastern Daylight Time),680245.3000000715,CFD-BF-002-018-A.jpg,1900,solid,I,z,1412,8,1,3345.5,676899.8000000715,9034,ATS,C,1
2,test,4,C,haborder.png,1,m,Wed Oct 22 2025 16:23:21 GMT-0400 (Eastern Daylight Time),682466.5,CFD-WM-028-005-HC.jpg,1000,solid,I,m,1187,12,1,5566.699999928474,676899.8000000715,9034,ATS,C,2
3,test,4,C,mfborder.png,1,z,Wed Oct 22 2025 16:23:21 GMT-0400 (Eastern Daylight Time),685216.5,CFD-BF-019-004-HC.jpg,1500,dash,I,z,1222,3,1,8316.699999928474,676899.8000000715,9034,ATS,C,3
4,test,4,C,mfborder.png,1,z,Wed Oct 22 2025 16:23:21 GMT-0400 (Eastern Daylight Time),687499.7000000477,CFD-BF-019-004-HC.jpg,1500,dash,I,z,743,3,1,10599.899999976158,676899.8000000715,9034,ATS,C,4
4,test,4,C,haborder.png,0,z,Wed Oct 22 2025 16:23:21 GMT-0400 (Eastern Daylight Time),690744.8999999762,CFD-WF-037-016-A.jpg,1700,solid,I,None,1517,9,1,13845.099999904633,676899.8000000715,9034,ATS,C,5
5,test,4,C,haborder.png,1,m,Wed Oct 22 2025 16:23:21 GMT-0400 (Eastern Daylight Time),693183.0,CFD-BM-022-004-HC.jpg,1600,solid,I,m,806,10,1,16283.199999928474,676899.8000000715,9034,ATS,C,6
6,test,4,C,mfborder.png,1,z,Wed Oct 22 2025 16:23:21 GMT-0400 (Eastern Daylight Time),695699.8000000715,CFD-WF-023-013-A.jpg,1600,dash,I,z,885,2,1,18800.0,676899.8000000715,9034,ATS,C,7
7,test,4,C,mfborder.png,1,m,Wed Oct 22 2025 16:23:21 GMT-0400 (Eastern Daylight Time),698866.2000000477,CFD-BM-043-014-A.jpg,2000,dash,I,m,1135,5,1,21966.399999976158,676899.8000000715,9034,ATS,C,8
8,test,4,C,haborder.png,1,m,Wed Oct 22 2025 16:23:21 GMT-0400 (Eastern Daylight Time),701449.6000000238,CFD-BM-022-004-HC.jpg,1600,solid,I,m,945,10,1,24549.799999952316,676899.8000000715,9034,ATS,C,9
9,test,4,C,mfborder.png,1,m,Wed Oct 22 2025 16:23:21 GMT-0400 (Eastern Daylight Time),703516.5,CFD-WM-036-018-A.jpg,1200,dash,I,m,825,6,1,26616.699999928474,676899.8000000715,9034,ATS,C,10
10,test,4,C,haborder.png,1,m,Wed Oct 22 2025 16:23:21 GMT-0400 (Eastern Daylight Time),705749.2000000477,CFD-WM-028-005-HC.jpg,1500,solid,I,m,715,11,1,28849.399999976158,676899.8000000715,9034,ATS,C,11
11,test,4,C,mfborder.png,1,z,Wed Oct 22 2025 16:23:21 GMT-0400 (Eastern Daylight Time),708249.2000000477,CFD-WF-013-009-HC.jpg,1700,dash,I,z,761,1,1,31349.399999976158,676899.8000000715,9034,ATS,C,12
12,test,4,C,haborder.png,1,m,Wed Oct 22 2025 16:23:21 GMT-0400 (Eastern Daylight Time),710565.8999999762,CFD-WM-028-005-HC.jpg,1500,solid,I,m,798,11,1,33666.09999990463,676899.8000000715,9034,ATS,C,13
13,test,4,C,mfborder.png,1,z,Wed Oct 22 2025 16:23:21 GMT-0400 (Eastern Daylight Time),713316.3999999762,CFD-WF-013-009-HC.jpg,1700,dash,I,z,1017,1,1,36416.59999990463,676899.8000000715,9034,ATS,C,14
14,test,4,C,mfborder.png,1,m,Wed Oct 22 2025 16:23:21 GMT-0400 (Eastern Daylight Time),716399.7000000477,CFD-BM-043-014-A.jpg,2000,dash,I,m,1056,5,1,39499.89999997616,676899.8000000715,9034,ATS,C,15
15,test,4,C,haborder.png,1,z,Wed Oct 22 2025 16:23:21 GMT-0400 (Eastern Daylight Time),719183.1000000238,CFD-WF-037-016-A.jpg,1700,solid,I,z,1039,9,1,42283.299999952316,676899.8000000715,9034,ATS,C,16
16,test,4,C,mfborder.png,1,m,Wed Oct 22 2025 16:23:21 GMT-0400 (Eastern Daylight Time),721166.3000000715,CFD-WM-036-018-A.jpg,1200,dash,I,m,757,6,1,44266.5,676899.8000000715,9034,ATS,C,17
17,test,4,C,haborder.png,1,z,Wed Oct 22 2025 16:23:21 GMT-0400 (Eastern Daylight Time),723366.3999999762,CFD-BF-031-020-A.jpg,1400,solid,I,z,750,7,1,46466.59999990463,676899.8000000715,9034,ATS,C,18
18,test,4,C,mfborder.png,1,m,Wed Oct 22 2025 16:23:21 GMT-0400 (Eastern Daylight Time),725216.2000000477,CFD-BM-034-035-HC.jpg,1000,dash,I,m,821,4,1,48316.39999997616,676899.8000000715,9034,ATS,C,19
19,test,4,C,haborder.png,1,m,Wed Oct 22 2025 16:23:21 GMT-0400 (Eastern Daylight Time),727099.5,CFD-WM-028-005-HC.jpg,1000,solid,I,m,842,12,1,50199.699999928474,676899.8000000715,9034,ATS,C,20
20,test,4,C,mfborder.png,1,z,Wed Oct 22 2025 16:23:21 GMT-0400 (Eastern Daylight Time),729483.0,CFD-WF-023-013-A.jpg,1600,dash,I,z,760,2,1,52583.199999928474,676899.8000000715,9034,ATS,C,21
21,test,4,C,haborder.png,1,z,Wed Oct 22 2025 16:23:21 GMT-0400 (Eastern Daylight Time),731899.7000000477,CFD-BF-031-020-A.jpg,1400,solid,I,z,977,7,1,54999.89999997616,676899.8000000715,9034,ATS,C,22
22,test,4,C,haborder.png,1,z,Wed Oct 22 2025 16:23:21 GMT-0400 (Eastern Daylight Time),734699.3999999762,CFD-BF-002-018-A.jpg,1900,solid,I,z,876,8,1,57799.59999990463,676899.8000000715,9034,ATS,C,23
23,test,4,C,mfborder.png,1,m,Wed Oct 22 2025 16:23:21 GMT-0400 (Eastern Daylight Time),736466.1000000238,CFD-BM-034-035-HC.jpg,1000,dash,I,m,719,4,1,59566.299999952316,676899.8000000715,9034,ATS,C,24
