Number,acc_sum,block,block_c,block_cond,con_img,correct,correct_response,datetime,endtime,jitter,project,response,response_time,row_sel,session_number,start_end,starttime,subject_id,task,task_vers,trial
8,1,prac,1,A,circle.png,1,m,Mon Nov 03 2025 13:49:11 GMT-0600 (Central Standard Time),62477.60000000009,1600,I,m,644,7,3,3024.7000000001863,59452.89999999991,8023,NTS,C,1
3,2,prac,1,A,circle.png,1,z,Mon Nov 03 2025 13:49:11 GMT-0600 (Central Standard Time),65059.60000000009,1200,I,z,588,3,3,2574.0,62485.60000000009,8023,NTS,C,2
9,3,prac,1,A,circle.png,1,m,Mon Nov 03 2025 13:49:11 GMT-0600 (Central Standard Time),67892.0,1500,I,m,546,8,3,2827.3000000002794,65064.69999999972,8023,NTS,C,3
7,4,prac,1,A,circle.png,1,m,Mon Nov 03 2025 13:49:11 GMT-0600 (Central Standard Time),71241.1000000001,1700,I,m,865,6,3,3343.3000000002794,67897.79999999981,8023,NTS,C,4
6,5,prac,1,A,circle.png,1,m,Mon Nov 03 2025 13:49:11 GMT-0600 (Central Standard Time),74773.19999999972,1900,I,m,836,5,3,3526.399999999907,71246.79999999981,8023,NTS,C,5
1,6,prac,1,A,circle.png,1,z,Mon Nov 03 2025 13:49:11 GMT-0600 (Central Standard Time),77172.3999999999,1000,I,z,604,1,3,2393.0,74779.3999999999,8023,NTS,C,6
7,7,prac,1,A,circle.png,1,m,Mon Nov 03 2025 13:49:11 GMT-0600 (Central Standard Time),80354.8999999999,1700,I,m,689,6,3,3176.5,77178.3999999999,8023,NTS,C,7
2,8,prac,1,A,circle.png,1,z,Mon Nov 03 2025 13:49:11 GMT-0600 (Central Standard Time),83720.3999999999,2000,I,z,575,2,3,3360.100000000093,80360.29999999981,8023,NTS,C,8
4,9,prac,1,A,circle.png,1,z,Mon Nov 03 2025 13:49:11 GMT-0600 (Central Standard Time),86486.1000000001,1400,I,z,577,4,3,2760.600000000093,83725.5,8023,NTS,C,9
4,10,prac,1,A,circle.png,1,z,Mon Nov 03 2025 13:49:11 GMT-0600 (Central Standard Time),89201.8999999999,1400,I,z,523,4,3,2710.600000000093,86491.29999999981,8023,NTS,C,10
8,11,prac,1,A,circle.png,1,m,Mon Nov 03 2025 13:49:11 GMT-0600 (Central Standard Time),92084.3999999999,1600,I,m,487,7,3,2877.100000000093,89207.29999999981,8023,NTS,C,11
3,12,prac,1,A,circle.png,1,z,Mon Nov 03 2025 13:49:11 GMT-0600 (Central Standard Time),94633.69999999972,1200,I,z,565,3,3,2544.2999999998137,92089.3999999999,8023,NTS,C,12
4,1,prac,1,B,triangle.png,1,m,Mon Nov 03 2025 13:49:11 GMT-0600 (Central Standard Time),119659.19999999972,1500,I,m,730,4,3,3011.1999999997206,116648.0,8023,NTS,C,1
3,2,prac,1,B,triangle.png,1,z,Mon Nov 03 2025 13:49:11 GMT-0600 (Central Standard Time),122641.8999999999,1600,I,z,598,3,3,2976.100000000093,119665.79999999981,8023,NTS,C,2
6,3,prac,1,B,triangle.png,1,m,Mon Nov 03 2025 13:49:11 GMT-0600 (Central Standard Time),125240.6000000001,1000,I,m,816,5,3,2592.100000000093,122648.5,8023,NTS,C,3
3,4,prac,1,B,triangle.png,1,z,Mon Nov 03 2025 13:49:11 GMT-0600 (Central Standard Time),128139.79999999981,1600,I,z,513,3,3,2893.6999999997206,125246.1000000001,8023,NTS,C,4
4,5,prac,1,B,triangle.png,1,m,Mon Nov 03 2025 13:49:11 GMT-0600 (Central Standard Time),131072.19999999972,1500,I,m,642,4,3,2926.7999999998137,128145.3999999999,8023,NTS,C,5
9,6,prac,1,B,triangle.png,1,z,Mon Nov 03 2025 13:49:11 GMT-0600 (Central Standard Time),134021.19999999972,1400,I,z,761,8,3,2943.7999999998137,131077.3999999999,8023,NTS,C,6
1,7,prac,1,B,triangle.png,1,z,Mon Nov 03 2025 13:49:11 GMT-0600 (Central Standard Time),137203.5,1900,I,z,496,1,3,3177.2000000001863,134026.2999999998,8023,NTS,C,7
9,8,prac,1,B,triangle.png,1,z,Mon Nov 03 2025 13:49:11 GMT-0600 (Central Standard Time),140252.69999999972,1400,I,z,853,8,3,3044.0,137208.69999999972,8023,NTS,C,8
8,9,prac,1,B,triangle.png,1,m,Mon Nov 03 2025 13:49:11 GMT-0600 (Central Standard Time),142935.19999999972,1200,I,m,685,7,3,2677.6999999997206,140257.5,8023,NTS,C,9
7,10,prac,1,B,triangle.png,1,z,Mon Nov 03 2025 13:49:11 GMT-0600 (Central Standard Time),146384.0,2000,I,z,658,6,3,3443.7000000001863,142940.2999999998,8023,NTS,C,10
1,11,prac,1,B,triangle.png,1,z,Mon Nov 03 2025 13:49:11 GMT-0600 (Central Standard Time),149583.19999999972,1900,I,z,510,1,3,3194.1999999997206,146389.0,8023,NTS,C,11
2,12,prac,1,B,triangle.png,1,m,Mon Nov 03 2025 13:49:11 GMT-0600 (Central Standard Time),152782.1000000001,1700,I,m,702,2,3,3194.100000000093,149588.0,8023,NTS,C,12
3,1,test,1,A,circle.png,1,z,Mon Nov 03 2025 13:49:11 GMT-0600 (Central Standard Time),171426.19999999972,1200,I,z,783,3,3,2011.5999999996275,169414.6000000001,8023,NTS,C,1
7,2,test,1,A,circle.png,1,m,Mon Nov 03 2025 13:49:11 GMT-0600 (Central Standard Time),174458.6000000001,1700,I,m,1307,6,3,3028.0,171430.6000000001,8023,NTS,C,2
3,3,test,1,A,circle.png,1,z,Mon Nov 03 2025 13:49:11 GMT-0600 (Central Standard Time),176441.2999999998,1200,I,z,759,3,3,1979.0,174462.2999999998,8023,NTS,C,3
6,4,test,1,A,circle.png,1,m,Mon Nov 03 2025 13:49:11 GMT-0600 (Central Standard Time),178990.3999999999,1900,I,m,620,5,3,2545.7000000001863,176444.69999999972,8023,NTS,C,4
2,5,test,1,A,circle.png,1,z,Mon Nov 03 2025 13:49:11 GMT-0600 (Central Standard Time),181523.0,2000,I,z,507,2,3,2529.100000000093,178993.8999999999,8023,NTS,C,5
3,6,test,1,A,circle.png,1,z,Mon Nov 03 2025 13:49:11 GMT-0600 (Central Standard Time),183322.3999999999,1200,I,z,574,3,3,1795.2999999998137,181527.1000000001,8023,NTS,C,6
1,7,test,1,A,circle.png,1,z,Mon Nov 03 2025 13:49:11 GMT-0600 (Central Standard Time),184905.2999999998,1000,I,z,557,1,3,1578.1999999997206,183327.1000000001,8023,NTS,C,7
6,8,test,1,A,circle.png,1,m,Mon Nov 03 2025 13:49:11 GMT-0600 (Central Standard Time),187404.3999999999,1900,I,m,580,5,3,2495.399999999907,184909.0,8023,NTS,C,8
4,9,test,1,A,circle.png,1,z,Mon Nov 03 2025 13:49:11 GMT-0600 (Central Standard Time),190187.0,1400,I,z,1357,4,3,2779.0,187408.0,8023,NTS,C,9
9,10,test,1,A,circle.png,1,m,Mon Nov 03 2025 13:49:11 GMT-0600 (Central Standard Time),192836.1000000001,1500,I,m,1122,8,3,2645.5,190190.6000000001,8023,NTS,C,10
9,11,test,1,A,circle.png,1,m,Mon Nov 03 2025 13:49:11 GMT-0600 (Central Standard Time),195068.69999999972,1500,I,m,713,8,3,2228.7999999998137,192839.8999999999,8023,NTS,C,11
3,12,test,1,A,circle.png,1,z,Mon Nov 03 2025 13:49:11 GMT-0600 (Central Standard Time),197001.6000000001,1200,I,z,700,3,3,1929.1000000000931,195072.5,8023,NTS,C,12
9,13,test,1,A,circle.png,1,m,Mon Nov 03 2025 13:49:11 GMT-0600 (Central Standard Time),199100.7999999998,1500,I,m,580,8,3,2095.2999999998137,197005.5,8023,NTS,C,13
2,14,test,1,A,circle.png,1,z,Mon Nov 03 2025 13:49:11 GMT-0600 (Central Standard Time),201783.2999999998,2000,I,z,661,2,3,2678.6999999997206,199104.6000000001,8023,NTS,C,14
7,15,test,1,A,circle.png,1,m,Mon Nov 03 2025 13:49:11 GMT-0600 (Central Standard Time),204282.6000000001,1700,I,m,782,6,3,2495.5,201787.1000000001,8023,NTS,C,15
4,16,test,1,A,circle.png,1,z,Mon Nov 03 2025 13:49:11 GMT-0600 (Central Standard Time),206831.7999999998,1400,I,z,1119,4,3,2545.5,204286.2999999998,8023,NTS,C,16
7,17,test,1,A,circle.png,1,m,Mon Nov 03 2025 13:49:11 GMT-0600 (Central Standard Time),209347.69999999972,1700,I,m,797,6,3,2512.5,206835.19999999972,8023,NTS,C,17
1,18,test,1,A,circle.png,1,z,Mon Nov 03 2025 13:49:11 GMT-0600 (Central Standard Time),211130.5,1000,I,z,766,1,3,1779.3000000002794,209351.19999999972,8023,NTS,C,18
2,19,test,1,A,circle.png,1,z,Mon Nov 03 2025 13:49:11 GMT-0600 (Central Standard Time),213746.1000000001,2000,I,z,591,2,3,2612.100000000093,211134.0,8023,NTS,C,19
8,20,test,1,A,circle.png,1,m,Mon Nov 03 2025 13:49:11 GMT-0600 (Central Standard Time),216162.2999999998,1600,I,m,783,7,3,2412.5,213749.7999999998,8023,NTS,C,20
8,21,test,1,A,circle.png,1,m,Mon Nov 03 2025 13:49:11 GMT-0600 (Central Standard Time),218228.1000000001,1600,I,m,439,7,3,2061.7000000001863,216166.3999999999,8023,NTS,C,21
1,22,test,1,A,circle.png,1,z,Mon Nov 03 2025 13:49:11 GMT-0600 (Central Standard Time),219910.8999999999,1000,I,z,661,1,3,1679.2000000001863,218231.69999999972,8023,NTS,C,22
9,23,test,1,A,circle.png,1,m,Mon Nov 03 2025 13:49:11 GMT-0600 (Central Standard Time),222010.3999999999,1500,I,m,574,8,3,2095.899999999907,219914.5,8023,NTS,C,23
8,24,test,1,A,circle.png,1,m,Mon Nov 03 2025 13:49:11 GMT-0600 (Central Standard Time),224289.5,1600,I,m,662,7,3,2275.100000000093,222014.3999999999,8023,NTS,C,24
4,1,test,1,B,triangle.png,1,m,Mon Nov 03 2025 13:49:11 GMT-0600 (Central Standard Time),236589.19999999972,1000,I,m,830,12,3,1846.3999999999069,234742.7999999998,8023,NTS,C,1
9,2,test,1,B,triangle.png,1,z,Mon Nov 03 2025 13:49:11 GMT-0600 (Central Standard Time),239421.5,1400,I,z,1412,8,3,2828.0,236593.5,8023,NTS,C,2
2,3,test,1,B,triangle.png,1,m,Mon Nov 03 2025 13:49:11 GMT-0600 (Central Standard Time),241520.8999999999,1200,I,m,868,10,3,2095.7000000001863,239425.19999999972,8023,NTS,C,3
7,4,test,1,B,triangle.png,1,z,Mon Nov 03 2025 13:49:11 GMT-0600 (Central Standard Time),244320.1000000001,2000,I,z,769,6,3,2795.4000000003725,241524.69999999972,8023,NTS,C,4
4,5,test,1,B,triangle.png,1,m,Mon Nov 03 2025 13:49:11 GMT-0600 (Central Standard Time),246635.8999999999,1500,I,m,797,4,3,2311.2000000001863,244324.69999999972,8023,NTS,C,5
8,6,test,1,B,triangle.png,1,m,Mon Nov 03 2025 13:49:11 GMT-0600 (Central Standard Time),248885.19999999972,1200,I,m,1008,7,3,2245.5999999996275,246639.6000000001,8023,NTS,C,6
8,7,test,1,B,triangle.png,1,m,Mon Nov 03 2025 13:49:11 GMT-0600 (Central Standard Time),251284.3999999999,1700,I,m,680,15,3,2395.600000000093,248888.7999999998,8023,NTS,C,7
9,8,test,1,B,triangle.png,1,z,Mon Nov 03 2025 13:49:11 GMT-0600 (Central Standard Time),254016.8999999999,1900,I,z,801,16,3,2728.5,251288.3999999999,8023,NTS,C,8
1,9,test,1,B,triangle.png,1,z,Mon Nov 03 2025 13:49:11 GMT-0600 (Central Standard Time),256083.0,1400,I,z,649,9,3,2062.2000000001863,254020.7999999998,8023,NTS,C,9
2,10,test,1,B,triangle.png,1,m,Mon Nov 03 2025 13:49:11 GMT-0600 (Central Standard Time),258432.19999999972,1200,I,m,1118,10,3,2345.5,256086.69999999972,8023,NTS,C,10
6,11,test,1,B,triangle.png,1,m,Mon Nov 03 2025 13:49:11 GMT-0600 (Central Standard Time),260615.0,1500,I,m,661,13,3,2178.899999999907,258436.1000000001,8023,NTS,C,11
1,12,test,1,B,triangle.png,1,z,Mon Nov 03 2025 13:49:11 GMT-0600 (Central Standard Time),263180.6999999997,1900,I,z,639,1,3,2561.5,260619.19999999972,8023,NTS,C,12
1,13,test,1,B,triangle.png,1,z,Mon Nov 03 2025 13:49:11 GMT-0600 (Central Standard Time),265729.8999999999,1900,I,z,625,1,3,2545.600000000093,263184.2999999998,8023,NTS,C,13
2,14,test,1,B,triangle.png,1,m,Mon Nov 03 2025 13:49:11 GMT-0600 (Central Standard Time),268162.5,1700,I,m,716,2,3,2429.0,265733.5,8023,NTS,C,14
3,15,test,1,B,triangle.png,1,z,Mon Nov 03 2025 13:49:11 GMT-0600 (Central Standard Time),270795.0,2000,I,z,608,11,3,2628.0,268167.0,8023,NTS,C,15
4,16,test,1,B,triangle.png,1,m,Mon Nov 03 2025 13:49:11 GMT-0600 (Central Standard Time),273061.0,1500,I,m,747,4,3,2261.899999999907,270799.1000000001,8023,NTS,C,16
7,17,test,1,B,triangle.png,1,z,Mon Nov 03 2025 13:49:11 GMT-0600 (Central Standard Time),275576.7999999998,1600,I,z,892,14,3,2512.2999999998137,273064.5,8023,NTS,C,17
9,18,test,1,B,triangle.png,1,z,Mon Nov 03 2025 13:49:11 GMT-0600 (Central Standard Time),278725.8999999999,1900,I,z,1229,16,3,3145.5,275580.3999999999,8023,NTS,C,18
8,19,test,1,B,triangle.png,1,m,Mon Nov 03 2025 13:49:11 GMT-0600 (Central Standard Time),280758.6000000001,1200,I,m,811,7,3,2029.1000000000931,278729.5,8023,NTS,C,19
7,20,test,1,B,triangle.png,1,z,Mon Nov 03 2025 13:49:11 GMT-0600 (Central Standard Time),283041.2999999998,1600,I,z,651,14,3,2278.7999999998137,280762.5,8023,NTS,C,20
6,21,test,1,B,triangle.png,1,m,Mon Nov 03 2025 13:49:11 GMT-0600 (Central Standard Time),284940.6000000001,1000,I,m,872,5,3,1895.2000000001863,283045.3999999999,8023,NTS,C,21
6,22,test,1,B,triangle.png,1,m,Mon Nov 03 2025 13:49:11 GMT-0600 (Central Standard Time),286756.7999999998,1000,I,m,789,5,3,1812.6999999997206,284944.1000000001,8023,NTS,C,22
3,23,test,1,B,triangle.png,1,z,Mon Nov 03 2025 13:49:11 GMT-0600 (Central Standard Time),289106.1000000001,1600,I,z,725,3,3,2345.600000000093,286760.5,8023,NTS,C,23
8,24,test,1,B,triangle.png,1,m,Mon Nov 03 2025 13:49:11 GMT-0600 (Central Standard Time),291471.8999999999,1700,I,m,636,15,3,2361.899999999907,289110.0,8023,NTS,C,24
1,1,prac,1,C,circle.png,1,z,Mon Nov 03 2025 13:49:11 GMT-0600 (Central Standard Time),345221.6999999997,1700,I,z,977,1,3,3460.2999999998137,341761.3999999999,8023,NTS,C,1
2,2,prac,1,C,triangle.png,1,m,Mon Nov 03 2025 13:49:11 GMT-0600 (Central Standard Time),349104.1000000001,1600,I,m,1492,2,3,3876.3000000002794,345227.7999999998,8023,NTS,C,2
4,3,prac,1,C,circle.png,1,z,Mon Nov 03 2025 13:49:11 GMT-0600 (Central Standard Time),352003.0,1000,I,z,1114,4,3,2894.0,349109.0,8023,NTS,C,3
8,4,prac,1,C,triangle.png,1,m,Mon Nov 03 2025 13:49:11 GMT-0600 (Central Standard Time),355185.1999999997,1400,I,m,983,7,3,3176.0999999996275,352009.1000000001,8023,NTS,C,4
1,5,prac,1,C,circle.png,1,z,Mon Nov 03 2025 13:49:11 GMT-0600 (Central Standard Time),358867.5,1700,I,z,1189,1,3,3676.899999999907,355190.6000000001,8023,NTS,C,5
9,6,prac,1,C,circle.png,1,m,Mon Nov 03 2025 13:49:11 GMT-0600 (Central Standard Time),362633.0,1900,I,m,1082,8,3,3760.3000000002794,358872.6999999997,8023,NTS,C,6
7,6,prac,1,C,triangle.png,0,z,Mon Nov 03 2025 13:49:11 GMT-0600 (Central Standard Time),366131.7999999998,1200,I,None,1516,6,3,3493.6999999997206,362638.1000000001,8023,NTS,C,7
6,6,prac,1,C,circle.png,0,m,Mon Nov 03 2025 13:49:11 GMT-0600 (Central Standard Time),369980.7999999998,2000,I,z,1054,5,3,3844.1999999997206,366136.6000000001,8023,NTS,C,8
3,7,prac,1,C,triangle.png,1,z,Mon Nov 03 2025 13:49:11 GMT-0600 (Central Standard Time),373279.7999999998,1500,I,z,1001,3,3,3293.600000000093,369986.1999999997,8023,NTS,C,9
4,8,prac,1,C,circle.png,1,z,Mon Nov 03 2025 13:49:11 GMT-0600 (Central Standard Time),376128.8999999999,1000,I,z,1066,4,3,2844.0,373284.8999999999,8023,NTS,C,10
8,9,prac,1,C,triangle.png,1,m,Mon Nov 03 2025 13:49:11 GMT-0600 (Central Standard Time),379694.1999999997,1400,I,m,1377,7,3,3560.1999999997206,376134.0,8023,NTS,C,11
3,10,prac,1,C,triangle.png,1,z,Mon Nov 03 2025 13:49:11 GMT-0600 (Central Standard Time),382876.6000000001,1500,I,z,895,3,3,3177.5,379699.1000000001,8023,NTS,C,12
1,1,test,1,C,triangle.png,1,z,Mon Nov 03 2025 13:49:11 GMT-0600 (Central Standard Time),401737.3999999999,1900,I,z,1234,17,3,3162.600000000093,398574.7999999998,8023,NTS,C,1
8,2,test,1,C,triangle.png,1,m,Mon Nov 03 2025 13:49:11 GMT-0600 (Central Standard Time),404836.5,1600,I,m,1472,23,3,3094.3000000002794,401742.1999999997,8023,NTS,C,2
9,3,test,1,C,triangle.png,1,z,Mon Nov 03 2025 13:49:11 GMT-0600 (Central Standard Time),407635.6000000001,1400,I,z,1381,16,3,2795.3000000002794,404840.2999999998,8023,NTS,C,3
4,4,test,1,C,triangle.png,1,m,Mon Nov 03 2025 13:49:11 GMT-0600 (Central Standard Time),410251.2999999998,1500,I,m,1090,12,3,2610.5,407640.7999999998,8023,NTS,C,4
4,5,test,1,C,triangle.png,1,m,Mon Nov 03 2025 13:49:11 GMT-0600 (Central Standard Time),412864.5,1500,I,m,1096,20,3,2609.3000000002794,410255.1999999997,8023,NTS,C,5
6,6,test,1,C,circle.png,1,m,Mon Nov 03 2025 13:49:11 GMT-0600 (Central Standard Time),415816.3999999999,1900,I,m,1018,5,3,2947.100000000093,412869.2999999998,8023,NTS,C,6
8,7,test,1,C,triangle.png,1,m,Mon Nov 03 2025 13:49:11 GMT-0600 (Central Standard Time),418665.5,1600,I,m,1225,7,3,2845.3000000002794,415820.1999999997,8023,NTS,C,7
7,8,test,1,C,triangle.png,1,z,Mon Nov 03 2025 13:49:11 GMT-0600 (Central Standard Time),421347.8999999999,1700,I,z,956,6,3,2678.2999999998137,418669.6000000001,8023,NTS,C,8
3,9,test,1,C,triangle.png,1,z,Mon Nov 03 2025 13:49:11 GMT-0600 (Central Standard Time),423464.0,1200,I,z,886,3,3,2111.8000000002794,421352.1999999997,8023,NTS,C,9
6,10,test,1,C,circle.png,1,m,Mon Nov 03 2025 13:49:11 GMT-0600 (Central Standard Time),426346.3999999999,1900,I,m,966,21,3,2878.2000000001863,423468.1999999997,8023,NTS,C,10
7,11,test,1,C,circle.png,1,m,Mon Nov 03 2025 13:49:11 GMT-0600 (Central Standard Time),429412.1000000001,2000,I,m,1048,14,3,3062.0,426350.1000000001,8023,NTS,C,11
8,12,test,1,C,circle.png,1,m,Mon Nov 03 2025 13:49:11 GMT-0600 (Central Standard Time),431428.1000000001,1200,I,m,790,15,3,2012.3000000002794,429415.7999999998,8023,NTS,C,12
4,13,test,1,C,circle.png,1,z,Mon Nov 03 2025 13:49:11 GMT-0600 (Central Standard Time),434027.2999999998,1400,I,z,1181,4,3,2595.6999999997206,431431.6000000001,8023,NTS,C,13
2,14,test,1,C,circle.png,1,z,Mon Nov 03 2025 13:49:11 GMT-0600 (Central Standard Time),436604.6999999997,1700,I,z,860,18,3,2573.6999999997206,434031.0,8023,NTS,C,14
9,15,test,1,C,circle.png,1,m,Mon Nov 03 2025 13:49:11 GMT-0600 (Central Standard Time),439025.6999999997,1500,I,m,884,24,3,2416.5999999996275,436609.1000000001,8023,NTS,C,15
7,16,test,1,C,triangle.png,1,z,Mon Nov 03 2025 13:49:11 GMT-0600 (Central Standard Time),441641.5,1700,I,z,892,22,3,2611.899999999907,439029.6000000001,8023,NTS,C,16
1,17,test,1,C,triangle.png,1,z,Mon Nov 03 2025 13:49:11 GMT-0600 (Central Standard Time),444240.6999999997,1900,I,z,676,9,3,2595.2999999998137,441645.3999999999,8023,NTS,C,17
3,17,test,1,C,circle.png,0,z,Mon Nov 03 2025 13:49:11 GMT-0600 (Central Standard Time),447373.2999999998,1600,I,None,1516,19,3,3128.2999999998137,444245.0,8023,NTS,C,18
6,18,test,1,C,triangle.png,1,m,Mon Nov 03 2025 13:49:11 GMT-0600 (Central Standard Time),449789.0,1000,I,m,1388,13,3,2411.7000000001863,447377.2999999998,8023,NTS,C,19
2,18,test,1,C,triangle.png,0,m,Mon Nov 03 2025 13:49:11 GMT-0600 (Central Standard Time),452938.1000000001,2000,I,z,1117,2,3,3145.4000000003725,449792.6999999997,8023,NTS,C,20
9,19,test,1,C,circle.png,1,m,Mon Nov 03 2025 13:49:11 GMT-0600 (Central Standard Time),455553.8999999999,1500,I,m,1084,8,3,2611.600000000093,452942.2999999998,8023,NTS,C,21
3,20,test,1,C,circle.png,1,z,Mon Nov 03 2025 13:49:11 GMT-0600 (Central Standard Time),457786.6000000001,1600,I,z,608,11,3,2228.5,455558.1000000001,8023,NTS,C,22
1,21,test,1,C,circle.png,1,z,Mon Nov 03 2025 13:49:11 GMT-0600 (Central Standard Time),459719.2999999998,1000,I,z,903,1,3,1929.1000000000931,457790.1999999997,8023,NTS,C,23
2,22,test,1,C,circle.png,1,z,Mon Nov 03 2025 13:49:11 GMT-0600 (Central Standard Time),462635.1000000001,1700,I,z,1190,10,3,2911.9000000003725,459723.1999999997,8023,NTS,C,24
9,1,test,2,C,triangle.png,1,z,Mon Nov 03 2025 13:49:11 GMT-0600 (Central Standard Time),468466.6999999997,1400,I,z,1151,16,3,2579.6999999997206,465887.0,8023,NTS,C,1
8,2,test,2,C,triangle.png,1,m,Mon Nov 03 2025 13:49:11 GMT-0600 (Central Standard Time),471148.8999999999,1600,I,m,1063,7,3,2677.399999999907,468471.5,8023,NTS,C,2
6,3,test,2,C,circle.png,1,m,Mon Nov 03 2025 13:49:11 GMT-0600 (Central Standard Time),474264.6999999997,1900,I,m,1193,5,3,3112.2999999998137,471152.3999999999,8023,NTS,C,3
9,4,test,2,C,triangle.png,1,z,Mon Nov 03 2025 13:49:11 GMT-0600 (Central Standard Time),476713.7999999998,1400,I,z,1025,24,3,2445.399999999907,474268.3999999999,8023,NTS,C,4
6,4,test,2,C,triangle.png,0,m,Mon Nov 03 2025 13:49:11 GMT-0600 (Central Standard Time),479246.3999999999,1000,I,None,1515,21,3,2528.7999999998137,476717.6000000001,8023,NTS,C,5
1,5,test,2,C,triangle.png,1,z,Mon Nov 03 2025 13:49:11 GMT-0600 (Central Standard Time),481928.8999999999,1900,I,z,751,17,3,2678.7999999998137,479250.1000000001,8023,NTS,C,6
7,6,test,2,C,triangle.png,1,z,Mon Nov 03 2025 13:49:11 GMT-0600 (Central Standard Time),484711.5,1700,I,z,925,6,3,2779.100000000093,481932.3999999999,8023,NTS,C,7
3,7,test,2,C,circle.png,1,z,Mon Nov 03 2025 13:49:11 GMT-0600 (Central Standard Time),487260.5,1600,I,z,922,11,3,2545.0,484715.5,8023,NTS,C,8
2,7,test,2,C,triangle.png,0,m,Mon Nov 03 2025 13:49:11 GMT-0600 (Central Standard Time),490792.8999999999,2000,I,None,1516,2,3,3528.5,487264.3999999999,8023,NTS,C,9
8,8,test,2,C,circle.png,1,m,Mon Nov 03 2025 13:49:11 GMT-0600 (Central Standard Time),493192.0,1200,I,m,1177,23,3,2394.7000000001863,490797.2999999998,8023,NTS,C,10
1,9,test,2,C,circle.png,1,z,Mon Nov 03 2025 13:49:11 GMT-0600 (Central Standard Time),494891.6999999997,1000,I,z,673,1,3,1696.0999999996275,493195.6000000001,8023,NTS,C,11
2,10,test,2,C,circle.png,1,z,Mon Nov 03 2025 13:49:11 GMT-0600 (Central Standard Time),497257.5,1700,I,z,634,10,3,2361.600000000093,494895.8999999999,8023,NTS,C,12
7,11,test,2,C,circle.png,1,m,Mon Nov 03 2025 13:49:11 GMT-0600 (Central Standard Time),500206.5,2000,I,m,928,14,3,2945.100000000093,497261.3999999999,8023,NTS,C,13
8,12,test,2,C,circle.png,1,m,Mon Nov 03 2025 13:49:11 GMT-0600 (Central Standard Time),502222.5,1200,I,m,787,15,3,2012.1000000000931,500210.3999999999,8023,NTS,C,14
3,13,test,2,C,triangle.png,1,z,Mon Nov 03 2025 13:49:11 GMT-0600 (Central Standard Time),504072.0,1200,I,z,619,3,3,1845.8000000002794,502226.1999999997,8023,NTS,C,15
6,14,test,2,C,triangle.png,1,m,Mon Nov 03 2025 13:49:11 GMT-0600 (Central Standard Time),505771.3999999999,1000,I,m,681,13,3,1695.7999999998137,504075.6000000001,8023,NTS,C,16
2,15,test,2,C,circle.png,1,z,Mon Nov 03 2025 13:49:11 GMT-0600 (Central Standard Time),508153.8999999999,1700,I,z,650,18,3,2378.7999999998137,505775.1000000001,8023,NTS,C,17
9,16,test,2,C,circle.png,1,m,Mon Nov 03 2025 13:49:11 GMT-0600 (Central Standard Time),510420.0,1500,I,m,741,8,3,2262.2000000001863,508157.7999999998,8023,NTS,C,18
4,17,test,2,C,triangle.png,1,m,Mon Nov 03 2025 13:49:11 GMT-0600 (Central Standard Time),512802.6000000001,1500,I,m,850,12,3,2378.9000000003725,510423.6999999997,8023,NTS,C,19
7,18,test,2,C,circle.png,1,m,Mon Nov 03 2025 13:49:11 GMT-0600 (Central Standard Time),515935.0,2000,I,m,1104,22,3,3128.399999999907,512806.6000000001,8023,NTS,C,20
3,19,test,2,C,circle.png,1,z,Mon Nov 03 2025 13:49:11 GMT-0600 (Central Standard Time),518217.6000000001,1600,I,z,659,19,3,2278.4000000003725,515939.1999999997,8023,NTS,C,21
4,20,test,2,C,triangle.png,1,m,Mon Nov 03 2025 13:49:11 GMT-0600 (Central Standard Time),520466.7999999998,1500,I,m,732,20,3,2245.399999999907,518221.3999999999,8023,NTS,C,22
4,21,test,2,C,circle.png,1,z,Mon Nov 03 2025 13:49:11 GMT-0600 (Central Standard Time),522732.7999999998,1400,I,z,845,4,3,2262.100000000093,520470.6999999997,8023,NTS,C,23
1,22,test,2,C,triangle.png,1,z,Mon Nov 03 2025 13:49:11 GMT-0600 (Central Standard Time),525465.6000000001,1900,I,z,801,9,3,2728.9000000003725,522736.6999999997,8023,NTS,C,24
7,1,test,3,C,triangle.png,1,z,Mon Nov 03 2025 13:49:11 GMT-0600 (Central Standard Time),530797.1000000001,1700,I,z,762,22,3,2479.5,528317.6000000001,8023,NTS,C,1
2,2,test,3,C,triangle.png,1,m,Mon Nov 03 2025 13:49:11 GMT-0600 (Central Standard Time),534179.1999999997,2000,I,m,1365,2,3,3377.899999999907,530801.2999999998,8023,NTS,C,2
1,3,test,3,C,circle.png,1,z,Mon Nov 03 2025 13:49:11 GMT-0600 (Central Standard Time),536078.6000000001,1000,I,z,878,1,3,1895.4000000003725,534183.1999999997,8023,NTS,C,3
1,4,test,3,C,circle.png,1,z,Mon Nov 03 2025 13:49:11 GMT-0600 (Central Standard Time),537694.7999999998,1000,I,z,595,17,3,1611.7999999998137,536083.0,8023,NTS,C,4
9,5,test,3,C,circle.png,1,m,Mon Nov 03 2025 13:49:11 GMT-0600 (Central Standard Time),540010.7999999998,1500,I,m,791,24,3,2312.5,537698.2999999998,8023,NTS,C,5
3,6,test,3,C,triangle.png,1,z,Mon Nov 03 2025 13:49:11 GMT-0600 (Central Standard Time),541893.3999999999,1200,I,z,655,19,3,1879.1000000000931,540014.2999999998,8023,NTS,C,6
4,7,test,3,C,circle.png,1,z,Mon Nov 03 2025 13:49:11 GMT-0600 (Central Standard Time),544109.5,1400,I,z,788,4,3,2212.2000000001863,541897.2999999998,8023,NTS,C,7
3,8,test,3,C,triangle.png,1,z,Mon Nov 03 2025 13:49:11 GMT-0600 (Central Standard Time),546092.1000000001,1200,I,z,764,3,3,1978.6000000000931,544113.5,8023,NTS,C,8
8,9,test,3,C,circle.png,1,m,Mon Nov 03 2025 13:49:11 GMT-0600 (Central Standard Time),548174.7999999998,1200,I,m,853,15,3,2078.899999999907,546095.8999999999,8023,NTS,C,9
6,10,test,3,C,triangle.png,1,m,Mon Nov 03 2025 13:49:11 GMT-0600 (Central Standard Time),550290.7999999998,1000,I,m,1090,13,3,2111.899999999907,548178.8999999999,8023,NTS,C,10
7,11,test,3,C,triangle.png,1,z,Mon Nov 03 2025 13:49:11 GMT-0600 (Central Standard Time),552890.0,1700,I,z,876,6,3,2595.2000000001863,550294.7999999998,8023,NTS,C,11
3,12,test,3,C,circle.png,1,z,Mon Nov 03 2025 13:49:11 GMT-0600 (Central Standard Time),555539.1999999997,1600,I,z,1014,11,3,2644.399999999907,552894.7999999998,8023,NTS,C,12
7,13,test,3,C,circle.png,1,m,Mon Nov 03 2025 13:49:11 GMT-0600 (Central Standard Time),558422.0,2000,I,m,855,14,3,2878.600000000093,555543.3999999999,8023,NTS,C,13
8,14,test,3,C,triangle.png,1,m,Mon Nov 03 2025 13:49:11 GMT-0600 (Central Standard Time),561237.6999999997,1600,I,m,1188,23,3,2811.899999999907,558425.7999999998,8023,NTS,C,14
6,15,test,3,C,circle.png,1,m,Mon Nov 03 2025 13:49:11 GMT-0600 (Central Standard Time),564170.1999999997,1900,I,m,1001,21,3,2929.0,561241.1999999997,8023,NTS,C,15
1,16,test,3,C,triangle.png,1,z,Mon Nov 03 2025 13:49:11 GMT-0600 (Central Standard Time),566735.8999999999,1900,I,z,644,9,3,2561.7000000001863,564174.1999999997,8023,NTS,C,16
6,17,test,3,C,circle.png,1,m,Mon Nov 03 2025 13:49:11 GMT-0600 (Central Standard Time),569501.6000000001,1900,I,m,847,5,3,2762.0,566739.6000000001,8023,NTS,C,17
2,18,test,3,C,triangle.png,1,m,Mon Nov 03 2025 13:49:11 GMT-0600 (Central Standard Time),572567.6000000001,2000,I,m,1037,18,3,3062.2000000001863,569505.3999999999,8023,NTS,C,18
8,19,test,3,C,triangle.png,1,m,Mon Nov 03 2025 13:49:11 GMT-0600 (Central Standard Time),575000.1000000001,1600,I,m,803,7,3,2428.9000000003725,572571.1999999997,8023,NTS,C,19
4,20,test,3,C,triangle.png,1,m,Mon Nov 03 2025 13:49:11 GMT-0600 (Central Standard Time),577382.6999999997,1500,I,m,862,12,3,2378.5999999996275,575004.1000000001,8023,NTS,C,20
9,21,test,3,C,triangle.png,1,z,Mon Nov 03 2025 13:49:11 GMT-0600 (Central Standard Time),579648.6999999997,1400,I,z,836,16,3,2262.2999999998137,577386.3999999999,8023,NTS,C,21
4,22,test,3,C,circle.png,1,z,Mon Nov 03 2025 13:49:11 GMT-0600 (Central Standard Time),582031.1999999997,1400,I,z,962,20,3,2378.7999999998137,579652.3999999999,8023,NTS,C,22
9,22,test,3,C,circle.png,0,m,Mon Nov 03 2025 13:49:11 GMT-0600 (Central Standard Time),584713.6000000001,1500,I,z,1151,8,3,2678.600000000093,582035.0,8023,NTS,C,23
2,23,test,3,C,circle.png,1,z,Mon Nov 03 2025 13:49:11 GMT-0600 (Central Standard Time),587379.7999999998,1700,I,z,941,10,3,2662.2999999998137,584717.5,8023,NTS,C,24
6,1,test,4,C,circle.png,1,m,Mon Nov 03 2025 13:49:11 GMT-0600 (Central Standard Time),591428.2999999998,1900,I,m,640,5,3,2562.399999999907,588865.8999999999,8023,NTS,C,1
9,2,test,4,C,triangle.png,1,z,Mon Nov 03 2025 13:49:11 GMT-0600 (Central Standard Time),593644.1000000001,1400,I,z,798,16,3,2211.7000000001863,591432.3999999999,8023,NTS,C,2
1,3,test,4,C,circle.png,1,z,Mon Nov 03 2025 13:49:11 GMT-0600 (Central Standard Time),595377.2999999998,1000,I,z,709,17,3,1729.3999999999069,593647.8999999999,8023,NTS,C,3
8,4,test,4,C,triangle.png,1,m,Mon Nov 03 2025 13:49:11 GMT-0600 (Central Standard Time),597709.6000000001,1600,I,m,713,7,3,2325.600000000093,595384.0,8023,NTS,C,4
4,5,test,4,C,triangle.png,1,m,Mon Nov 03 2025 13:49:11 GMT-0600 (Central Standard Time),600258.6999999997,1500,I,m,1017,12,3,2545.0999999996275,597713.6000000001,8023,NTS,C,5
2,6,test,4,C,triangle.png,1,m,Mon Nov 03 2025 13:49:11 GMT-0600 (Central Standard Time),603124.5,2000,I,m,840,2,3,2862.3000000002794,600262.1999999997,8023,NTS,C,6
6,7,test,4,C,triangle.png,1,m,Mon Nov 03 2025 13:49:11 GMT-0600 (Central Standard Time),605074.0,1000,I,m,918,13,3,1945.3999999999069,603128.6000000001,8023,NTS,C,7
7,8,test,4,C,triangle.png,1,z,Mon Nov 03 2025 13:49:11 GMT-0600 (Central Standard Time),607789.6999999997,1700,I,z,996,6,3,2711.899999999907,605077.7999999998,8023,NTS,C,8
6,9,test,4,C,circle.png,1,m,Mon Nov 03 2025 13:49:11 GMT-0600 (Central Standard Time),610589.1000000001,1900,I,m,873,21,3,2795.600000000093,607793.5,8023,NTS,C,9
9,10,test,4,C,circle.png,1,m,Mon Nov 03 2025 13:49:11 GMT-0600 (Central Standard Time),613088.1000000001,1500,I,m,977,8,3,2495.100000000093,610593.0,8023,NTS,C,10
1,11,test,4,C,circle.png,1,z,Mon Nov 03 2025 13:49:11 GMT-0600 (Central Standard Time),614754.1999999997,1000,I,z,634,1,3,1662.2999999998137,613091.8999999999,8023,NTS,C,11
4,12,test,4,C,circle.png,1,z,Mon Nov 03 2025 13:49:11 GMT-0600 (Central Standard Time),617003.6999999997,1400,I,z,824,4,3,2245.5999999996275,614758.1000000001,8023,NTS,C,12
8,13,test,4,C,triangle.png,1,m,Mon Nov 03 2025 13:49:11 GMT-0600 (Central Standard Time),619352.6999999997,1600,I,m,719,23,3,2345.0999999996275,617007.6000000001,8023,NTS,C,13
1,14,test,4,C,triangle.png,1,z,Mon Nov 03 2025 13:49:11 GMT-0600 (Central Standard Time),621935.3999999999,1900,I,z,654,9,3,2578.7999999998137,619356.6000000001,8023,NTS,C,14
9,15,test,4,C,circle.png,1,m,Mon Nov 03 2025 13:49:11 GMT-0600 (Central Standard Time),624051.2999999998,1500,I,m,583,24,3,2112.100000000093,621939.1999999997,8023,NTS,C,15
4,16,test,4,C,circle.png,1,z,Mon Nov 03 2025 13:49:11 GMT-0600 (Central Standard Time),626600.6000000001,1400,I,z,1119,20,3,2545.0,624055.6000000001,8023,NTS,C,16
2,16,test,4,C,triangle.png,0,m,Mon Nov 03 2025 13:49:11 GMT-0600 (Central Standard Time),629549.6999999997,2000,I,z,930,18,3,2945.0,626604.6999999997,8023,NTS,C,17
2,16,test,4,C,circle.png,0,z,Mon Nov 03 2025 13:49:11 GMT-0600 (Central Standard Time),632698.7999999998,1700,I,m,1417,10,3,3145.1999999997206,629553.6000000001,8023,NTS,C,18
3,16,test,4,C,triangle.png,0,z,Mon Nov 03 2025 13:49:11 GMT-0600 (Central Standard Time),635431.3999999999,1200,I,None,1516,3,3,2728.899999999907,632702.5,8023,NTS,C,19
3,17,test,4,C,circle.png,1,z,Mon Nov 03 2025 13:49:11 GMT-0600 (Central Standard Time),637847.1000000001,1600,I,z,795,11,3,2412.100000000093,635435.0,8023,NTS,C,20
8,18,test,4,C,circle.png,1,m,Mon Nov 03 2025 13:49:11 GMT-0600 (Central Standard Time),640129.8999999999,1200,I,m,1059,15,3,2278.7000000001863,637851.1999999997,8023,NTS,C,21
7,19,test,4,C,triangle.png,1,z,Mon Nov 03 2025 13:49:11 GMT-0600 (Central Standard Time),642529.0,1700,I,z,669,22,3,2395.3000000002794,640133.6999999997,8023,NTS,C,22
7,20,test,4,C,circle.png,1,m,Mon Nov 03 2025 13:49:11 GMT-0600 (Central Standard Time),645461.2999999998,2000,I,m,914,14,3,2928.0,642533.2999999998,8023,NTS,C,23
3,21,test,4,C,triangle.png,1,z,Mon Nov 03 2025 13:49:11 GMT-0600 (Central Standard Time),647460.6999999997,1200,I,z,774,19,3,1995.7999999998137,645464.8999999999,8023,NTS,C,24
