acc_sum,block,block_c,change,condition,correct,correct_response,datetime,endtime,face,project,response,response_time,row_sel,session_number,start_end,starttime,subject_id,task,task_vers,trial
0,prac,1,,1-Back,,,Tue Feb 24 2026 11:02:16 GMT-0600 (Central Standard Time),,005_o_f_d_a.png,O,space,5108,1,1,,,7759,VNB,B,0
1,prac,1,0.0,1-Back,1.0,m,Tue Feb 24 2026 11:02:16 GMT-0600 (Central Standard Time),152635.5,020_y_f_n_a.png,O,m,1015,2,1,1870.0,150765.5,7759,VNB,B,1
2,prac,1,0.0,1-Back,1.0,m,Tue Feb 24 2026 11:02:16 GMT-0600 (Central Standard Time),155434.20000000298,007_m_m_h_a.png,O,m,1941,3,1,2792.300000011921,152641.89999999106,7759,VNB,B,2
3,prac,1,0.0,1-Back,1.0,m,Tue Feb 24 2026 11:02:16 GMT-0600 (Central Standard Time),157515.89999999106,016_y_m_d_a.png,O,m,1206,4,1,2070.0,155445.89999999106,7759,VNB,B,3
4,prac,1,0.0,1-Back,1.0,m,Tue Feb 24 2026 11:02:16 GMT-0600 (Central Standard Time),159698.20000000298,005_o_f_n_a.png,O,m,1333,5,1,2178.0,157520.20000000298,7759,VNB,B,4
4,prac,1,1.0,1-Back,0.0,z,Tue Feb 24 2026 11:02:16 GMT-0600 (Central Standard Time),162431.79999999702,016_y_m_n_a.png,O,m,1858,6,1,2724.0,159707.79999999702,7759,VNB,B,5
4,prac,1,0.0,1-Back,0.0,m,Tue Feb 24 2026 11:02:16 GMT-0600 (Central Standard Time),165280.29999999702,004_o_m_h_a.png,O,None,2015,7,1,2843.0,162437.29999999702,7759,VNB,B,6
5,prac,1,0.0,1-Back,1.0,m,Tue Feb 24 2026 11:02:16 GMT-0600 (Central Standard Time),167646.39999999106,011_m_f_d_a.png,O,m,1510,8,1,2356.3999999910593,165290.0,7759,VNB,B,7
5,prac,1,1.0,1-Back,0.0,z,Tue Feb 24 2026 11:02:16 GMT-0600 (Central Standard Time),169595.89999999106,020_y_f_d_a.png,O,m,1122,9,1,1943.699999988079,167652.20000000298,7759,VNB,B,8
6,prac,1,0.0,1-Back,1.0,m,Tue Feb 24 2026 11:02:16 GMT-0600 (Central Standard Time),171827.5,007_m_m_n_a.png,O,m,1356,10,1,2220.0,169607.5,7759,VNB,B,9
7,prac,1,0.0,1-Back,1.0,m,Tue Feb 24 2026 11:02:16 GMT-0600 (Central Standard Time),173962.5,005_o_f_h_a.png,O,m,1275,11,1,2132.1000000089407,171830.39999999106,7759,VNB,B,10
8,prac,1,0.0,1-Back,1.0,m,Tue Feb 24 2026 11:02:16 GMT-0600 (Central Standard Time),175678.39999999106,016_y_m_d_a.png,O,m,855,12,1,1707.2999999970198,173971.09999999404,7759,VNB,B,11
0,test,1,0.0,1-Back,,,Tue Feb 24 2026 11:02:16 GMT-0600 (Central Standard Time),175678.39999999106,020_y_f_d_a.png,O,space,7725,1,1,1707.2999999970198,173971.09999999404,7759,VNB,B,0
1,test,1,0.0,1-Back,1.0,m,Tue Feb 24 2026 11:02:16 GMT-0600 (Central Standard Time),196654.0,011_m_f_n_a.png,O,m,979,2,1,1993.2000000029802,194660.79999999702,7759,VNB,B,1
2,test,1,0.0,1-Back,1.0,m,Tue Feb 24 2026 11:02:16 GMT-0600 (Central Standard Time),198752.39999999106,004_o_m_h_a.png,O,m,1066,3,1,2096.2999999970198,196656.09999999404,7759,VNB,B,2
2,test,1,1.0,1-Back,0.0,z,Tue Feb 24 2026 11:02:16 GMT-0600 (Central Standard Time),200803.29999999702,007_m_m_h_a.png,O,m,1034,4,1,2045.4000000059605,198757.89999999106,7759,VNB,B,3
3,test,1,0.0,1-Back,1.0,m,Tue Feb 24 2026 11:02:16 GMT-0600 (Central Standard Time),202885.0,005_o_f_n_a.png,O,m,1053,5,1,2079.2999999970198,200805.70000000298,7759,VNB,B,4
4,test,1,0.0,1-Back,1.0,m,Tue Feb 24 2026 11:02:16 GMT-0600 (Central Standard Time),204950.79999999702,016_y_m_d_a.png,O,m,1037,6,1,2059.5999999940395,202891.20000000298,7759,VNB,B,5
5,test,1,1.0,1-Back,1.0,z,Tue Feb 24 2026 11:02:16 GMT-0600 (Central Standard Time),207333.59999999404,011_m_f_d_a.png,O,z,1355,7,1,2380.0,204953.59999999404,7759,VNB,B,6
6,test,1,0.0,1-Back,1.0,m,Tue Feb 24 2026 11:02:16 GMT-0600 (Central Standard Time),209398.79999999702,020_y_f_h_a.png,O,m,1033,8,1,2059.5999999940395,207339.20000000298,7759,VNB,B,7
6,test,1,0.0,1-Back,0.0,m,Tue Feb 24 2026 11:02:16 GMT-0600 (Central Standard Time),211351.20000000298,004_o_m_n_a.png,O,z,928,9,1,1949.800000011921,209401.39999999106,7759,VNB,B,8
6,test,1,0.0,1-Back,0.0,m,Tue Feb 24 2026 11:02:16 GMT-0600 (Central Standard Time),214381.20000000298,016_y_m_h_a.png,O,None,2016,10,1,3023.4000000059605,211357.79999999702,7759,VNB,B,9
7,test,1,0.0,1-Back,1.0,m,Tue Feb 24 2026 11:02:16 GMT-0600 (Central Standard Time),216532.20000000298,004_o_m_d_a.png,O,m,1132,11,1,2148.0,214384.20000000298,7759,VNB,B,10
8,test,1,1.0,1-Back,1.0,z,Tue Feb 24 2026 11:02:16 GMT-0600 (Central Standard Time),218413.29999999702,005_o_f_d_a.png,O,z,863,12,1,1875.5,216537.79999999702,7759,VNB,B,11
9,test,1,0.0,1-Back,1.0,m,Tue Feb 24 2026 11:02:16 GMT-0600 (Central Standard Time),220312.79999999702,007_m_m_n_a.png,O,m,876,13,1,1895.9000000059605,218416.89999999106,7759,VNB,B,12
9,test,1,1.0,1-Back,0.0,z,Tue Feb 24 2026 11:02:16 GMT-0600 (Central Standard Time),222662.59999999404,020_y_f_n_a.png,O,m,1327,14,1,2343.0999999940395,220319.5,7759,VNB,B,13
10,test,1,0.0,1-Back,1.0,m,Tue Feb 24 2026 11:02:16 GMT-0600 (Central Standard Time),224678.29999999702,011_m_f_h_a.png,O,m,995,15,1,2012.5999999940395,222665.70000000298,7759,VNB,B,14
11,test,1,0.0,1-Back,1.0,m,Tue Feb 24 2026 11:02:16 GMT-0600 (Central Standard Time),226860.79999999702,007_m_m_d_a.png,O,m,1155,16,1,2176.9000000059605,224683.89999999106,7759,VNB,B,15
12,test,1,0.0,1-Back,1.0,m,Tue Feb 24 2026 11:02:16 GMT-0600 (Central Standard Time),229209.39999999106,016_y_m_n_a.png,O,m,1331,17,1,2346.0999999940395,226863.29999999702,7759,VNB,B,16
12,test,1,0.0,1-Back,0.0,m,Tue Feb 24 2026 11:02:16 GMT-0600 (Central Standard Time),231308.59999999404,005_o_f_h_a.png,O,z,1079,18,1,2094.0,229214.59999999404,7759,VNB,B,17
0,test,2,0.0,1-Back,,,Tue Feb 24 2026 11:02:16 GMT-0600 (Central Standard Time),231308.59999999404,016_y_m_n_a.png,O,space,3301,1,1,2094.0,229214.59999999404,7759,VNB,B,0
1,test,2,0.0,1-Back,1.0,m,Tue Feb 24 2026 11:02:16 GMT-0600 (Central Standard Time),238590.59999999404,020_y_f_h_a.png,O,m,937,2,1,1955.8999999910593,236634.70000000298,7759,VNB,B,1
2,test,2,1.0,1-Back,1.0,m,Tue Feb 24 2026 11:02:16 GMT-0600 (Central Standard Time),240556.59999999404,004_o_m_n_a.png,O,m,939,3,1,1959.3999999910593,238597.20000000298,7759,VNB,B,2
2,test,2,0.0,1-Back,0.0,m,Tue Feb 24 2026 11:02:16 GMT-0600 (Central Standard Time),242987.79999999702,011_m_f_d_a.png,O,z,1412,4,1,2420.5,240567.29999999702,7759,VNB,B,3
2,test,2,0.0,1-Back,0.0,z,Tue Feb 24 2026 11:02:16 GMT-0600 (Central Standard Time),245187.79999999702,007_m_m_d_a.png,O,m,1180,5,1,2196.5999999940395,242991.20000000298,7759,VNB,B,4
3,test,2,0.0,1-Back,1.0,m,Tue Feb 24 2026 11:02:16 GMT-0600 (Central Standard Time),247238.20000000298,016_y_m_h_a.png,O,m,1028,6,1,2041.800000011921,245196.39999999106,7759,VNB,B,5
4,test,2,1.0,1-Back,1.0,z,Tue Feb 24 2026 11:02:16 GMT-0600 (Central Standard Time),249103.29999999702,005_o_f_h_a.png,O,z,834,7,1,1862.0999999940395,247241.20000000298,7759,VNB,B,6
5,test,2,0.0,1-Back,1.0,m,Tue Feb 24 2026 11:02:16 GMT-0600 (Central Standard Time),250886.0,011_m_f_n_a.png,O,m,754,8,1,1775.7999999970198,249110.20000000298,7759,VNB,B,7
5,test,2,0.0,1-Back,0.0,m,Tue Feb 24 2026 11:02:16 GMT-0600 (Central Standard Time),252785.29999999702,020_y_f_d_a.png,O,z,875,9,1,1893.5999999940395,250891.70000000298,7759,VNB,B,8
6,test,2,0.0,1-Back,1.0,m,Tue Feb 24 2026 11:02:16 GMT-0600 (Central Standard Time),255418.20000000298,007_m_m_n_a.png,O,m,1606,10,1,2624.1000000089407,252794.09999999404,7759,VNB,B,9
7,test,2,1.0,1-Back,1.0,m,Tue Feb 24 2026 11:02:16 GMT-0600 (Central Standard Time),257501.79999999702,011_m_f_h_a.png,O,m,1054,11,1,2078.2000000029802,255423.59999999404,7759,VNB,B,10
8,test,2,0.0,1-Back,1.0,z,Tue Feb 24 2026 11:02:16 GMT-0600 (Central Standard Time),259467.89999999106,004_o_m_h_a.png,O,z,940,12,1,1957.2999999970198,257510.59999999404,7759,VNB,B,11
9,test,2,0.0,1-Back,1.0,m,Tue Feb 24 2026 11:02:16 GMT-0600 (Central Standard Time),261415.70000000298,016_y_m_d_a.png,O,m,924,13,1,1941.800000011921,259473.89999999106,7759,VNB,B,12
10,test,2,0.0,1-Back,1.0,m,Tue Feb 24 2026 11:02:16 GMT-0600 (Central Standard Time),264282.09999999404,005_o_f_n_a.png,O,m,1833,14,1,2859.0,261423.09999999404,7759,VNB,B,13
11,test,2,0.0,1-Back,1.0,z,Tue Feb 24 2026 11:02:16 GMT-0600 (Central Standard Time),266731.299999997,020_y_f_n_a.png,O,z,1421,15,1,2444.9000000059605,264286.39999999106,7759,VNB,B,14
12,test,2,1.0,1-Back,1.0,m,Tue Feb 24 2026 11:02:16 GMT-0600 (Central Standard Time),268763.39999999106,007_m_m_h_a.png,O,m,1006,16,1,2025.0999999940395,266738.299999997,7759,VNB,B,15
12,test,2,0.0,1-Back,0.0,m,Tue Feb 24 2026 11:02:16 GMT-0600 (Central Standard Time),270629.5,005_o_f_d_a.png,O,z,844,17,1,1864.4000000059605,268765.09999999404,7759,VNB,B,16
12,test,2,1.0,1-Back,0.0,z,Tue Feb 24 2026 11:02:16 GMT-0600 (Central Standard Time),273646.700000003,004_o_m_d_a.png,O,None,2002,18,1,3012.2000000029802,270634.5,7759,VNB,B,17
0,test,3,1.0,1-Back,,,Tue Feb 24 2026 11:02:16 GMT-0600 (Central Standard Time),273646.700000003,005_o_f_h_a.png,O,space,5466,1,1,3012.2000000029802,270634.5,7759,VNB,B,0
0,test,3,0.0,1-Back,0.0,m,Tue Feb 24 2026 11:02:16 GMT-0600 (Central Standard Time),283291.799999997,011_m_f_d_a.png,O,z,1046,2,1,2059.5999999940395,281232.200000003,7759,VNB,B,1
1,test,3,1.0,1-Back,1.0,m,Tue Feb 24 2026 11:02:16 GMT-0600 (Central Standard Time),286140.299999997,007_m_m_n_a.png,O,m,1819,3,1,2842.2999999970198,283298.0,7759,VNB,B,2
1,test,3,0.0,1-Back,0.0,z,Tue Feb 24 2026 11:02:16 GMT-0600 (Central Standard Time),288540.5,005_o_f_n_a.png,O,m,1381,4,1,2397.9000000059605,286142.59999999404,7759,VNB,B,3
1,test,3,1.0,1-Back,0.0,m,Tue Feb 24 2026 11:02:16 GMT-0600 (Central Standard Time),290506.799999997,004_o_m_d_a.png,O,z,948,5,1,1959.5999999940395,288547.200000003,7759,VNB,B,4
2,test,3,0.0,1-Back,1.0,m,Tue Feb 24 2026 11:02:16 GMT-0600 (Central Standard Time),292423.200000003,020_y_f_h_a.png,O,m,885,6,1,1913.0,290510.200000003,7759,VNB,B,5
3,test,3,0.0,1-Back,1.0,z,Tue Feb 24 2026 11:02:16 GMT-0600 (Central Standard Time),294422.59999999404,016_y_m_h_a.png,O,z,978,7,1,1993.2000000029802,292429.39999999106,7759,VNB,B,6
4,test,3,0.0,1-Back,1.0,m,Tue Feb 24 2026 11:02:16 GMT-0600 (Central Standard Time),296838.700000003,011_m_f_n_a.png,O,m,1393,8,1,2413.5,294425.200000003,7759,VNB,B,7
5,test,3,0.0,1-Back,1.0,m,Tue Feb 24 2026 11:02:16 GMT-0600 (Central Standard Time),298936.89999999106,020_y_f_d_a.png,O,m,1066,9,1,2091.0999999940395,296845.799999997,7759,VNB,B,8
6,test,3,1.0,1-Back,1.0,m,Tue Feb 24 2026 11:02:16 GMT-0600 (Central Standard Time),301370.200000003,004_o_m_n_a.png,O,m,1407,10,1,2430.800000011921,298939.39999999106,7759,VNB,B,9
7,test,3,0.0,1-Back,1.0,m,Tue Feb 24 2026 11:02:16 GMT-0600 (Central Standard Time),303754.89999999106,007_m_m_h_a.png,O,m,1364,11,1,2378.699999988079,301376.200000003,7759,VNB,B,10
8,test,3,0.0,1-Back,1.0,z,Tue Feb 24 2026 11:02:16 GMT-0600 (Central Standard Time),305787.59999999404,011_m_f_h_a.png,O,z,1009,12,1,2030.5999999940395,303757.0,7759,VNB,B,11
9,test,3,1.0,1-Back,1.0,m,Tue Feb 24 2026 11:02:16 GMT-0600 (Central Standard Time),308185.59999999404,005_o_f_d_a.png,O,m,1376,13,1,2390.5999999940395,305795.0,7759,VNB,B,12
10,test,3,0.0,1-Back,1.0,z,Tue Feb 24 2026 11:02:16 GMT-0600 (Central Standard Time),310549.89999999106,007_m_m_d_a.png,O,z,1344,14,1,2361.199999988079,308188.700000003,7759,VNB,B,13
11,test,3,0.0,1-Back,1.0,m,Tue Feb 24 2026 11:02:16 GMT-0600 (Central Standard Time),313148.700000003,016_y_m_n_a.png,O,m,1583,15,1,2592.4000000059605,310556.299999997,7759,VNB,B,14
11,test,3,1.0,1-Back,0.0,m,Tue Feb 24 2026 11:02:16 GMT-0600 (Central Standard Time),315432.59999999404,004_o_m_h_a.png,O,z,1250,16,1,2282.2000000029802,313150.39999999106,7759,VNB,B,15
11,test,3,0.0,1-Back,0.0,m,Tue Feb 24 2026 11:02:16 GMT-0600 (Central Standard Time),317665.5,016_y_m_d_a.png,O,z,1200,17,1,2227.5,315438.0,7759,VNB,B,16
12,test,3,1.0,1-Back,1.0,m,Tue Feb 24 2026 11:02:16 GMT-0600 (Central Standard Time),320098.89999999106,020_y_f_n_a.png,O,m,1417,18,1,2430.5,317668.39999999106,7759,VNB,B,17
0,test,4,1.0,1-Back,,,Tue Feb 24 2026 11:02:16 GMT-0600 (Central Standard Time),320098.89999999106,007_m_m_d_a.png,O,space,1589,1,1,2430.5,317668.39999999106,7759,VNB,B,0
0,test,4,0.0,1-Back,0.0,z,Tue Feb 24 2026 11:02:16 GMT-0600 (Central Standard Time),325996.39999999106,004_o_m_d_a.png,O,m,1254,2,1,2275.5999999940395,323720.799999997,7759,VNB,B,1
1,test,4,0.0,1-Back,1.0,m,Tue Feb 24 2026 11:02:16 GMT-0600 (Central Standard Time),327978.89999999106,016_y_m_h_a.png,O,m,964,3,1,1974.7999999970198,326004.09999999404,7759,VNB,B,2
2,test,4,0.0,1-Back,1.0,m,Tue Feb 24 2026 11:02:16 GMT-0600 (Central Standard Time),329795.39999999106,011_m_f_n_a.png,O,m,790,4,1,1814.0999999940395,327981.299999997,7759,VNB,B,3
3,test,4,1.0,1-Back,1.0,m,Tue Feb 24 2026 11:02:16 GMT-0600 (Central Standard Time),331761.700000003,005_o_f_h_a.png,O,m,934,5,1,1961.800000011921,329799.89999999106,7759,VNB,B,4
4,test,4,0.0,1-Back,1.0,m,Tue Feb 24 2026 11:02:16 GMT-0600 (Central Standard Time),333527.59999999404,007_m_m_n_a.png,O,m,744,6,1,1763.0,331764.59999999404,7759,VNB,B,5
4,test,4,0.0,1-Back,0.0,m,Tue Feb 24 2026 11:02:16 GMT-0600 (Central Standard Time),335658.89999999106,016_y_m_d_a.png,O,z,1114,7,1,2121.5,333537.39999999106,7759,VNB,B,6
4,test,4,1.0,1-Back,0.0,z,Tue Feb 24 2026 11:02:16 GMT-0600 (Central Standard Time),337994.700000003,020_y_f_d_a.png,O,m,1322,8,1,2333.9000000059605,335660.799999997,7759,VNB,B,7
5,test,4,0.0,1-Back,1.0,m,Tue Feb 24 2026 11:02:16 GMT-0600 (Central Standard Time),340259.5,011_m_f_h_a.png,O,m,1233,9,1,2261.2999999970198,337998.200000003,7759,VNB,B,8
5,test,4,0.0,1-Back,0.0,z,Tue Feb 24 2026 11:02:16 GMT-0600 (Central Standard Time),342456.59999999404,004_o_m_h_a.png,O,m,1176,10,1,2194.2999999970198,340262.299999997,7759,VNB,B,9
6,test,4,1.0,1-Back,1.0,m,Tue Feb 24 2026 11:02:16 GMT-0600 (Central Standard Time),344522.5,005_o_f_n_a.png,O,m,1040,11,1,2058.4000000059605,342464.09999999404,7759,VNB,B,10
7,test,4,0.0,1-Back,1.0,m,Tue Feb 24 2026 11:02:16 GMT-0600 (Central Standard Time),346439.59999999404,011_m_f_d_a.png,O,m,886,12,1,1914.5,344525.09999999404,7759,VNB,B,11
8,test,4,0.0,1-Back,1.0,m,Tue Feb 24 2026 11:02:16 GMT-0600 (Central Standard Time),348705.0,020_y_f_n_a.png,O,m,1240,13,1,2258.5,346446.5,7759,VNB,B,12
8,test,4,0.0,1-Back,0.0,m,Tue Feb 24 2026 11:02:16 GMT-0600 (Central Standard Time),350987.799999997,005_o_f_d_a.png,O,z,1255,14,1,2280.0999999940395,348707.700000003,7759,VNB,B,13
9,test,4,0.0,1-Back,1.0,m,Tue Feb 24 2026 11:02:16 GMT-0600 (Central Standard Time),353387.89999999106,020_y_f_h_a.png,O,m,1381,15,1,2394.199999988079,350993.700000003,7759,VNB,B,14
10,test,4,1.0,1-Back,1.0,z,Tue Feb 24 2026 11:02:16 GMT-0600 (Central Standard Time),355452.59999999404,007_m_m_h_a.png,O,z,1037,16,1,2059.5999999940395,353393.0,7759,VNB,B,15
11,test,4,0.0,1-Back,1.0,m,Tue Feb 24 2026 11:02:16 GMT-0600 (Central Standard Time),357452.0,004_o_m_n_a.png,O,m,973,17,1,1993.6000000089407,355458.39999999106,7759,VNB,B,16
11,test,4,1.0,1-Back,0.0,z,Tue Feb 24 2026 11:02:16 GMT-0600 (Central Standard Time),359685.0,016_y_m_n_a.png,O,m,1204,18,1,2229.4000000059605,357455.59999999404,7759,VNB,B,17
0,test,5,1.0,1-Back,,,Tue Feb 24 2026 11:02:16 GMT-0600 (Central Standard Time),359685.0,004_o_m_n_a.png,O,space,1259,1,1,2229.4000000059605,357455.59999999404,7759,VNB,B,0
1,test,5,1.0,1-Back,1.0,m,Tue Feb 24 2026 11:02:16 GMT-0600 (Central Standard Time),365282.89999999106,005_o_f_h_a.png,O,m,1297,2,1,2311.0,362971.89999999106,7759,VNB,B,1
2,test,5,0.0,1-Back,1.0,m,Tue Feb 24 2026 11:02:16 GMT-0600 (Central Standard Time),367532.200000003,016_y_m_d_a.png,O,m,1230,3,1,2241.2000000029802,365291.0,7759,VNB,B,2
3,test,5,0.0,1-Back,1.0,z,Tue Feb 24 2026 11:02:16 GMT-0600 (Central Standard Time),369798.5,004_o_m_d_a.png,O,z,1236,4,1,2261.7999999970198,367536.700000003,7759,VNB,B,3
4,test,5,0.0,1-Back,1.0,m,Tue Feb 24 2026 11:02:16 GMT-0600 (Central Standard Time),371681.09999999404,011_m_f_h_a.png,O,m,851,5,1,1875.0999999940395,369806.0,7759,VNB,B,4
5,test,5,0.0,1-Back,1.0,m,Tue Feb 24 2026 11:02:16 GMT-0600 (Central Standard Time),373730.59999999404,020_y_f_n_a.png,O,m,1031,6,1,2045.5,371685.09999999404,7759,VNB,B,5
5,test,5,1.0,1-Back,0.0,z,Tue Feb 24 2026 11:02:16 GMT-0600 (Central Standard Time),376029.700000003,005_o_f_n_a.png,O,m,1271,7,1,2291.4000000059605,373738.299999997,7759,VNB,B,6
6,test,5,0.0,1-Back,1.0,m,Tue Feb 24 2026 11:02:16 GMT-0600 (Central Standard Time),378579.0,011_m_f_d_a.png,O,m,1523,8,1,2543.9000000059605,376035.09999999404,7759,VNB,B,7
7,test,5,0.0,1-Back,1.0,m,Tue Feb 24 2026 11:02:16 GMT-0600 (Central Standard Time),380610.700000003,016_y_m_h_a.png,O,m,1004,9,1,2024.4000000059605,378586.299999997,7759,VNB,B,8
8,test,5,0.0,1-Back,1.0,m,Tue Feb 24 2026 11:02:16 GMT-0600 (Central Standard Time),382577.799999997,020_y_f_d_a.png,O,m,942,10,1,1963.9000000059605,380613.89999999106,7759,VNB,B,9
9,test,5,0.0,1-Back,1.0,m,Tue Feb 24 2026 11:02:16 GMT-0600 (Central Standard Time),384894.0,007_m_m_n_a.png,O,m,1287,11,1,2306.5,382587.5,7759,VNB,B,10
10,test,5,1.0,1-Back,1.0,z,Tue Feb 24 2026 11:02:16 GMT-0600 (Central Standard Time),387293.89999999106,011_m_f_n_a.png,O,z,1372,12,1,2396.7999999970198,384897.09999999404,7759,VNB,B,11
11,test,5,0.0,1-Back,1.0,m,Tue Feb 24 2026 11:02:16 GMT-0600 (Central Standard Time),389142.799999997,004_o_m_h_a.png,O,m,820,13,1,1841.0,387301.799999997,7759,VNB,B,12
12,test,5,0.0,1-Back,1.0,z,Tue Feb 24 2026 11:02:16 GMT-0600 (Central Standard Time),391242.09999999404,007_m_m_h_a.png,O,z,1067,14,1,2096.5,389145.59999999404,7759,VNB,B,13
13,test,5,1.0,1-Back,1.0,m,Tue Feb 24 2026 11:02:16 GMT-0600 (Central Standard Time),393341.09999999404,005_o_f_d_a.png,O,m,1078,15,1,2095.3999999910593,391245.700000003,7759,VNB,B,14
14,test,5,0.0,1-Back,1.0,m,Tue Feb 24 2026 11:02:16 GMT-0600 (Central Standard Time),395756.89999999106,016_y_m_n_a.png,O,m,1388,16,1,2413.5999999940395,393343.299999997,7759,VNB,B,15
15,test,5,0.0,1-Back,1.0,m,Tue Feb 24 2026 11:02:16 GMT-0600 (Central Standard Time),397756.200000003,020_y_f_h_a.png,O,m,980,17,1,1990.2000000029802,395766.0,7759,VNB,B,16
16,test,5,0.0,1-Back,1.0,m,Tue Feb 24 2026 11:02:16 GMT-0600 (Central Standard Time),399872.700000003,007_m_m_d_a.png,O,m,1084,18,1,2113.5,397759.200000003,7759,VNB,B,17
0,prac,1,0.0,2-Back,,,Tue Feb 24 2026 11:02:16 GMT-0600 (Central Standard Time),399872.700000003,011_m_f_n_a.png,O,space,2218,1,1,2113.5,397759.200000003,7759,VNB,B,0
0,prac,1,0.0,2-Back,,,Tue Feb 24 2026 11:02:16 GMT-0600 (Central Standard Time),399872.700000003,005_o_f_h_a.png,O,space,2218,2,1,2113.5,397759.200000003,7759,VNB,B,0
1,prac,1,0.0,2-Back,1.0,m,Tue Feb 24 2026 11:02:16 GMT-0600 (Central Standard Time),514220.799999997,004_o_m_d_a.png,O,m,1741,3,1,2561.0,511659.799999997,7759,VNB,B,1
1,prac,1,1.0,2-Back,0.0,z,Tue Feb 24 2026 11:02:16 GMT-0600 (Central Standard Time),517102.39999999106,007_m_m_h_a.png,O,None,2016,4,1,2866.2999999970198,514236.09999999404,7759,VNB,B,2
1,prac,1,0.0,2-Back,0.0,m,Tue Feb 24 2026 11:02:16 GMT-0600 (Central Standard Time),519949.39999999106,020_y_f_n_a.png,O,None,2008,5,1,2842.3999999910593,517107.0,7759,VNB,B,3
1,prac,1,1.0,2-Back,0.0,z,Tue Feb 24 2026 11:02:16 GMT-0600 (Central Standard Time),522234.200000003,004_o_m_h_a.png,O,m,1519,6,1,2280.5,519953.700000003,7759,VNB,B,4
1,prac,1,1.0,2-Back,0.0,z,Tue Feb 24 2026 11:02:16 GMT-0600 (Central Standard Time),524299.599999994,016_y_m_n_a.png,O,m,1195,7,1,2062.5,522237.09999999404,7759,VNB,B,5
2,prac,1,0.0,2-Back,1.0,m,Tue Feb 24 2026 11:02:16 GMT-0600 (Central Standard Time),526714.8999999911,011_m_f_d_a.png,O,m,1571,8,1,2405.2999999970198,524309.599999994,7759,VNB,B,6
2,prac,1,0.0,2-Back,0.0,m,Tue Feb 24 2026 11:02:16 GMT-0600 (Central Standard Time),529497.299999997,005_o_f_d_a.png,O,z,1932,9,1,2779.9000000059605,526717.3999999911,7759,VNB,B,7
3,prac,1,0.0,2-Back,1.0,m,Tue Feb 24 2026 11:02:16 GMT-0600 (Central Standard Time),531362.599999994,007_m_m_h_a.png,O,m,1089,10,1,1858.8999999910593,529503.700000003,7759,VNB,B,8
3,prac,1,1.0,2-Back,0.0,z,Tue Feb 24 2026 11:02:16 GMT-0600 (Central Standard Time),534179.599999994,020_y_f_d_a.png,O,m,1974,11,1,2814.2000000029802,531365.3999999911,7759,VNB,B,9
4,prac,1,0.0,2-Back,1.0,m,Tue Feb 24 2026 11:02:16 GMT-0600 (Central Standard Time),536879.299999997,004_o_m_n_a.png,O,m,1848,12,1,2691.7999999970198,534187.5,7759,VNB,B,10
0,prac,2,0.0,2-Back,,,Tue Feb 24 2026 11:02:16 GMT-0600 (Central Standard Time),536879.299999997,011_m_f_n_a.png,O,a,9319,1,1,2691.7999999970198,534187.5,7759,VNB,B,0
0,prac,2,0.0,2-Back,,,Tue Feb 24 2026 11:02:16 GMT-0600 (Central Standard Time),536879.299999997,005_o_f_h_a.png,O,a,9319,2,1,2691.7999999970198,534187.5,7759,VNB,B,0
1,prac,2,0.0,2-Back,1.0,m,Tue Feb 24 2026 11:02:16 GMT-0600 (Central Standard Time),553756.599999994,004_o_m_d_a.png,O,m,1466,3,1,2313.7000000029802,551442.8999999911,7759,VNB,B,1
2,prac,2,1.0,2-Back,1.0,z,Tue Feb 24 2026 11:02:16 GMT-0600 (Central Standard Time),556422.8999999911,007_m_m_h_a.png,O,z,1874,4,1,2656.2999999970198,553766.599999994,7759,VNB,B,2
2,prac,2,0.0,2-Back,0.0,m,Tue Feb 24 2026 11:02:16 GMT-0600 (Central Standard Time),559256.099999994,020_y_f_n_a.png,O,None,2009,5,1,2829.5999999940395,556426.5,7759,VNB,B,3
2,prac,2,1.0,2-Back,0.0,z,Tue Feb 24 2026 11:02:16 GMT-0600 (Central Standard Time),561539.8999999911,004_o_m_h_a.png,O,m,1437,6,1,2275.0999999940395,559264.799999997,7759,VNB,B,4
3,prac,2,1.0,2-Back,1.0,z,Tue Feb 24 2026 11:02:16 GMT-0600 (Central Standard Time),564037.099999994,016_y_m_n_a.png,O,z,1632,7,1,2493.8999999910593,561543.200000003,7759,VNB,B,5
4,prac,2,0.0,2-Back,1.0,m,Tue Feb 24 2026 11:02:16 GMT-0600 (Central Standard Time),566619.700000003,011_m_f_d_a.png,O,m,1742,8,1,2573.800000011921,564045.8999999911,7759,VNB,B,6
4,prac,2,0.0,2-Back,0.0,m,Tue Feb 24 2026 11:02:16 GMT-0600 (Central Standard Time),569135.200000003,005_o_f_d_a.png,O,z,1658,9,1,2510.7000000029802,566624.5,7759,VNB,B,7
5,prac,2,0.0,2-Back,1.0,m,Tue Feb 24 2026 11:02:16 GMT-0600 (Central Standard Time),570901.0,007_m_m_h_a.png,O,m,987,10,1,1757.2999999970198,569143.700000003,7759,VNB,B,8
5,prac,2,1.0,2-Back,0.0,z,Tue Feb 24 2026 11:02:16 GMT-0600 (Central Standard Time),573022.8999999911,020_y_f_d_a.png,O,m,1283,11,1,2117.5999999940395,570905.299999997,7759,VNB,B,9
6,prac,2,0.0,2-Back,1.0,m,Tue Feb 24 2026 11:02:16 GMT-0600 (Central Standard Time),575168.3999999911,004_o_m_n_a.png,O,m,1307,12,1,2137.199999988079,573031.200000003,7759,VNB,B,10
0,test,1,0.0,2-Back,,,Tue Feb 24 2026 11:02:16 GMT-0600 (Central Standard Time),575168.3999999911,016_y_m_h_a.png,O,space,1726,1,1,2137.199999988079,573031.200000003,7759,VNB,B,0
0,test,1,0.0,2-Back,,,Tue Feb 24 2026 11:02:16 GMT-0600 (Central Standard Time),575168.3999999911,005_o_f_n_a.png,O,space,1726,2,1,2137.199999988079,573031.200000003,7759,VNB,B,0
1,test,1,0.0,2-Back,1.0,z,Tue Feb 24 2026 11:02:16 GMT-0600 (Central Standard Time),597276.0,004_o_m_h_a.png,O,z,947,3,1,1963.6000000089407,595312.3999999911,7759,VNB,B,1
2,test,1,0.0,2-Back,1.0,m,Tue Feb 24 2026 11:02:16 GMT-0600 (Central Standard Time),599909.299999997,011_m_f_d_a.png,O,m,1612,4,1,2620.0999999940395,597289.200000003,7759,VNB,B,2
2,test,1,1.0,2-Back,0.0,m,Tue Feb 24 2026 11:02:16 GMT-0600 (Central Standard Time),602640.8999999911,016_y_m_n_a.png,O,z,1708,5,1,2727.3999999910593,599913.5,7759,VNB,B,3
3,test,1,0.0,2-Back,1.0,z,Tue Feb 24 2026 11:02:16 GMT-0600 (Central Standard Time),605224.5,020_y_f_d_a.png,O,z,1560,6,1,2574.5,602650.0,7759,VNB,B,4
3,test,1,0.0,2-Back,0.0,m,Tue Feb 24 2026 11:02:16 GMT-0600 (Central Standard Time),608106.200000003,007_m_m_h_a.png,O,z,1859,7,1,2877.800000011921,605228.3999999911,7759,VNB,B,5
4,test,1,1.0,2-Back,1.0,m,Tue Feb 24 2026 11:02:16 GMT-0600 (Central Standard Time),610388.0,020_y_f_n_a.png,O,m,1254,8,1,2270.2999999970198,608117.700000003,7759,VNB,B,6
4,test,1,0.0,2-Back,0.0,z,Tue Feb 24 2026 11:02:16 GMT-0600 (Central Standard Time),612972.599999994,005_o_f_h_a.png,O,m,1564,9,1,2580.5999999940395,610392.0,7759,VNB,B,7
5,test,1,0.0,2-Back,1.0,m,Tue Feb 24 2026 11:02:16 GMT-0600 (Central Standard Time),615387.700000003,004_o_m_d_a.png,O,m,1391,10,1,2411.0,612976.700000003,7759,VNB,B,8
6,test,1,1.0,2-Back,1.0,m,Tue Feb 24 2026 11:02:16 GMT-0600 (Central Standard Time),617420.5,007_m_m_d_a.png,O,m,1006,11,1,2028.6000000089407,615391.8999999911,7759,VNB,B,9
7,test,1,0.0,2-Back,1.0,m,Tue Feb 24 2026 11:02:16 GMT-0600 (Central Standard Time),620038.200000003,011_m_f_n_a.png,O,m,1596,12,1,2606.2000000029802,617432.0,7759,VNB,B,10
8,test,1,0.0,2-Back,1.0,m,Tue Feb 24 2026 11:02:16 GMT-0600 (Central Standard Time),622518.8999999911,020_y_f_h_a.png,O,m,1462,13,1,2478.7999999970198,620040.099999994,7759,VNB,B,11
8,test,1,0.0,2-Back,0.0,z,Tue Feb 24 2026 11:02:16 GMT-0600 (Central Standard Time),625067.3999999911,007_m_m_n_a.png,O,m,1524,14,1,2537.5,622529.8999999911,7759,VNB,B,12
9,test,1,0.0,2-Back,1.0,m,Tue Feb 24 2026 11:02:16 GMT-0600 (Central Standard Time),627833.599999994,016_y_m_d_a.png,O,m,1735,15,1,2764.0,625069.599999994,7759,VNB,B,13
9,test,1,1.0,2-Back,0.0,m,Tue Feb 24 2026 11:02:16 GMT-0600 (Central Standard Time),630167.5,011_m_f_h_a.png,O,z,1310,16,1,2326.2000000029802,627841.299999997,7759,VNB,B,14
10,test,1,0.0,2-Back,1.0,z,Tue Feb 24 2026 11:02:16 GMT-0600 (Central Standard Time),632698.3999999911,005_o_f_d_a.png,O,z,1515,17,1,2528.3999999910593,630170.0,7759,VNB,B,15
10,test,1,0.0,2-Back,0.0,m,Tue Feb 24 2026 11:02:16 GMT-0600 (Central Standard Time),635731.0,004_o_m_n_a.png,O,None,2016,18,1,3026.7000000029802,632704.299999997,7759,VNB,B,16
0,test,2,0.0,2-Back,,,Tue Feb 24 2026 11:02:16 GMT-0600 (Central Standard Time),635731.0,007_m_m_h_a.png,O,space,2373,1,1,3026.7000000029802,632704.299999997,7759,VNB,B,0
0,test,2,0.0,2-Back,,,Tue Feb 24 2026 11:02:16 GMT-0600 (Central Standard Time),635731.0,020_y_f_n_a.png,O,space,2373,2,1,3026.7000000029802,632704.299999997,7759,VNB,B,0
1,test,2,1.0,2-Back,1.0,z,Tue Feb 24 2026 11:02:16 GMT-0600 (Central Standard Time),645593.799999997,005_o_f_h_a.png,O,z,1266,3,1,2296.0,643297.799999997,7759,VNB,B,1
1,test,2,0.0,2-Back,0.0,m,Tue Feb 24 2026 11:02:16 GMT-0600 (Central Standard Time),648210.099999994,004_o_m_d_a.png,O,z,1590,4,1,2608.2000000029802,645601.8999999911,7759,VNB,B,2
2,test,2,0.0,2-Back,1.0,m,Tue Feb 24 2026 11:02:16 GMT-0600 (Central Standard Time),650992.599999994,011_m_f_d_a.png,O,m,1758,5,1,2779.5,648213.099999994,7759,VNB,B,3
3,test,2,0.0,2-Back,1.0,m,Tue Feb 24 2026 11:02:16 GMT-0600 (Central Standard Time),653557.799999997,016_y_m_h_a.png,O,m,1544,6,1,2560.5999999940395,650997.200000003,7759,VNB,B,4
3,test,2,0.0,2-Back,0.0,m,Tue Feb 24 2026 11:02:16 GMT-0600 (Central Standard Time),656209.299999997,005_o_f_n_a.png,O,z,1625,7,1,2649.2000000029802,653560.099999994,7759,VNB,B,5
3,test,2,1.0,2-Back,0.0,z,Tue Feb 24 2026 11:02:16 GMT-0600 (Central Standard Time),658073.599999994,004_o_m_h_a.png,O,m,833,8,1,1861.7999999970198,656211.799999997,7759,VNB,B,6
4,test,2,0.0,2-Back,1.0,m,Tue Feb 24 2026 11:02:16 GMT-0600 (Central Standard Time),660707.0,020_y_f_d_a.png,O,m,1600,9,1,2631.2000000029802,658075.799999997,7759,VNB,B,7
4,test,2,0.0,2-Back,0.0,m,Tue Feb 24 2026 11:02:16 GMT-0600 (Central Standard Time),663740.599999994,016_y_m_d_a.png,O,None,2018,10,1,3027.0,660713.599999994,7759,VNB,B,8
5,test,2,0.0,2-Back,1.0,m,Tue Feb 24 2026 11:02:16 GMT-0600 (Central Standard Time),666171.099999994,007_m_m_n_a.png,O,m,1415,11,1,2427.5,663743.599999994,7759,VNB,B,9
5,test,2,0.0,2-Back,0.0,m,Tue Feb 24 2026 11:02:16 GMT-0600 (Central Standard Time),668969.799999997,011_m_f_h_a.png,O,z,1776,12,1,2791.7999999970198,666178.0,7759,VNB,B,10
5,test,2,1.0,2-Back,0.0,z,Tue Feb 24 2026 11:02:16 GMT-0600 (Central Standard Time),671769.299999997,004_o_m_n_a.png,O,m,1765,13,1,2797.2000000029802,668972.099999994,7759,VNB,B,11
6,test,2,0.0,2-Back,1.0,m,Tue Feb 24 2026 11:02:16 GMT-0600 (Central Standard Time),674036.8999999911,005_o_f_d_a.png,O,m,1249,14,1,2261.699999988079,671775.200000003,7759,VNB,B,12
7,test,2,0.0,2-Back,1.0,m,Tue Feb 24 2026 11:02:16 GMT-0600 (Central Standard Time),676500.8999999911,020_y_f_h_a.png,O,m,1446,15,1,2461.5,674039.3999999911,7759,VNB,B,13
8,test,2,0.0,2-Back,1.0,z,Tue Feb 24 2026 11:02:16 GMT-0600 (Central Standard Time),678983.3999999911,007_m_m_d_a.png,O,z,1460,16,1,2477.199999988079,676506.200000003,7759,VNB,B,14
9,test,2,0.0,2-Back,1.0,m,Tue Feb 24 2026 11:02:16 GMT-0600 (Central Standard Time),681149.299999997,016_y_m_n_a.png,O,m,1136,17,1,2164.0,678985.299999997,7759,VNB,B,15
10,test,2,1.0,2-Back,1.0,m,Tue Feb 24 2026 11:02:16 GMT-0600 (Central Standard Time),684166.0,011_m_f_n_a.png,O,m,1995,18,1,3010.2000000029802,681155.799999997,7759,VNB,B,16
0,test,3,1.0,2-Back,,,Tue Feb 24 2026 11:02:16 GMT-0600 (Central Standard Time),684166.0,004_o_m_n_a.png,O,space,1250,1,1,3010.2000000029802,681155.799999997,7759,VNB,B,0
0,test,3,1.0,2-Back,,,Tue Feb 24 2026 11:02:16 GMT-0600 (Central Standard Time),684166.0,005_o_f_d_a.png,O,space,1250,2,1,3010.2000000029802,681155.799999997,7759,VNB,B,0
1,test,3,0.0,2-Back,1.0,m,Tue Feb 24 2026 11:02:16 GMT-0600 (Central Standard Time),692563.0,020_y_f_h_a.png,O,m,1050,3,1,2079.6000000089407,690483.3999999911,7759,VNB,B,1
1,test,3,0.0,2-Back,0.0,z,Tue Feb 24 2026 11:02:16 GMT-0600 (Central Standard Time),694894.200000003,011_m_f_d_a.png,O,m,1310,4,1,2322.800000011921,692571.3999999911,7759,VNB,B,2
2,test,3,1.0,2-Back,1.0,m,Tue Feb 24 2026 11:02:16 GMT-0600 (Central Standard Time),696978.599999994,016_y_m_n_a.png,O,m,1064,5,1,2082.8999999910593,694895.700000003,7759,VNB,B,3
2,test,3,0.0,2-Back,0.0,m,Tue Feb 24 2026 11:02:16 GMT-0600 (Central Standard Time),699311.599999994,004_o_m_h_a.png,O,z,1312,6,1,2325.7000000029802,696985.8999999911,7759,VNB,B,4
3,test,3,0.0,2-Back,1.0,z,Tue Feb 24 2026 11:02:16 GMT-0600 (Central Standard Time),701975.3999999911,020_y_f_n_a.png,O,z,1639,7,1,2661.2999999970198,699314.099999994,7759,VNB,B,5
4,test,3,1.0,2-Back,1.0,m,Tue Feb 24 2026 11:02:16 GMT-0600 (Central Standard Time),704477.0,007_m_m_d_a.png,O,m,1473,8,1,2494.7999999970198,701982.200000003,7759,VNB,B,6
5,test,3,0.0,2-Back,1.0,m,Tue Feb 24 2026 11:02:16 GMT-0600 (Central Standard Time),706909.599999994,016_y_m_d_a.png,O,m,1416,9,1,2430.0999999940395,704479.5,7759,VNB,B,7
6,test,3,0.0,2-Back,1.0,m,Tue Feb 24 2026 11:02:16 GMT-0600 (Central Standard Time),709140.599999994,005_o_f_h_a.png,O,m,1212,10,1,2219.2000000029802,706921.3999999911,7759,VNB,B,8
7,test,3,1.0,2-Back,1.0,m,Tue Feb 24 2026 11:02:16 GMT-0600 (Central Standard Time),711739.5,011_m_f_n_a.png,O,m,1582,11,1,2597.4000000059605,709142.099999994,7759,VNB,B,9
8,test,3,1.0,2-Back,1.0,z,Tue Feb 24 2026 11:02:16 GMT-0600 (Central Standard Time),713805.799999997,007_m_m_h_a.png,O,z,1046,12,1,2061.5999999940395,711744.200000003,7759,VNB,B,10
9,test,3,0.0,2-Back,1.0,m,Tue Feb 24 2026 11:02:16 GMT-0600 (Central Standard Time),716372.3999999911,020_y_f_d_a.png,O,m,1547,13,1,2561.0999999940395,713811.299999997,7759,VNB,B,11
10,test,3,0.0,2-Back,1.0,m,Tue Feb 24 2026 11:02:16 GMT-0600 (Central Standard Time),719005.200000003,005_o_f_n_a.png,O,m,1617,14,1,2623.800000011921,716381.3999999911,7759,VNB,B,12
11,test,3,0.0,2-Back,1.0,z,Tue Feb 24 2026 11:02:16 GMT-0600 (Central Standard Time),721819.5,004_o_m_d_a.png,O,z,1790,15,1,2808.7999999970198,719010.700000003,7759,VNB,B,13
12,test,3,1.0,2-Back,1.0,m,Tue Feb 24 2026 11:02:16 GMT-0600 (Central Standard Time),724235.700000003,011_m_f_h_a.png,O,m,1389,16,1,2407.300000011921,721828.3999999911,7759,VNB,B,14
13,test,3,0.0,2-Back,1.0,m,Tue Feb 24 2026 11:02:16 GMT-0600 (Central Standard Time),726368.099999994,007_m_m_n_a.png,O,m,1101,17,1,2126.5999999940395,724241.5,7759,VNB,B,15
14,test,3,0.0,2-Back,1.0,z,Tue Feb 24 2026 11:02:16 GMT-0600 (Central Standard Time),728802.3999999911,016_y_m_h_a.png,O,z,1409,18,1,2425.2999999970198,726377.099999994,7759,VNB,B,16
0,test,4,0.0,2-Back,,,Tue Feb 24 2026 11:02:16 GMT-0600 (Central Standard Time),728802.3999999911,011_m_f_n_a.png,O,space,1118,1,1,2425.2999999970198,726377.099999994,7759,VNB,B,0
0,test,4,0.0,2-Back,,,Tue Feb 24 2026 11:02:16 GMT-0600 (Central Standard Time),728802.3999999911,004_o_m_n_a.png,O,space,1118,2,1,2425.2999999970198,726377.099999994,7759,VNB,B,0
1,test,4,1.0,2-Back,1.0,m,Tue Feb 24 2026 11:02:16 GMT-0600 (Central Standard Time),737182.299999997,016_y_m_h_a.png,O,m,1019,3,1,2047.9000000059605,735134.3999999911,7759,VNB,B,1
2,test,4,1.0,2-Back,1.0,m,Tue Feb 24 2026 11:02:16 GMT-0600 (Central Standard Time),739480.799999997,005_o_f_d_a.png,O,m,1268,4,1,2290.5999999940395,737190.200000003,7759,VNB,B,2
3,test,4,0.0,2-Back,1.0,z,Tue Feb 24 2026 11:02:16 GMT-0600 (Central Standard Time),741563.0,004_o_m_h_a.png,O,z,1055,5,1,2075.4000000059605,739487.599999994,7759,VNB,B,3
4,test,4,0.0,2-Back,1.0,m,Tue Feb 24 2026 11:02:16 GMT-0600 (Central Standard Time),743745.799999997,007_m_m_n_a.png,O,m,1149,6,1,2173.7000000029802,741572.099999994,7759,VNB,B,4
4,test,4,0.0,2-Back,0.0,m,Tue Feb 24 2026 11:02:16 GMT-0600 (Central Standard Time),746495.0,011_m_f_d_a.png,O,z,1726,7,1,2745.6000000089407,743749.3999999911,7759,VNB,B,5
5,test,4,0.0,2-Back,1.0,z,Tue Feb 24 2026 11:02:16 GMT-0600 (Central Standard Time),748978.700000003,020_y_f_n_a.png,O,z,1457,8,1,2478.4000000059605,746500.299999997,7759,VNB,B,6
6,test,4,1.0,2-Back,1.0,m,Tue Feb 24 2026 11:02:16 GMT-0600 (Central Standard Time),751143.700000003,005_o_f_h_a.png,O,m,1144,9,1,2161.7000000029802,748982.0,7759,VNB,B,7
7,test,4,0.0,2-Back,1.0,m,Tue Feb 24 2026 11:02:16 GMT-0600 (Central Standard Time),753443.5,007_m_m_h_a.png,O,m,1282,10,1,2293.7000000029802,751149.799999997,7759,VNB,B,8
8,test,4,0.0,2-Back,1.0,m,Tue Feb 24 2026 11:02:16 GMT-0600 (Central Standard Time),755508.799999997,020_y_f_d_a.png,O,m,1046,11,1,2062.4000000059605,753446.3999999911,7759,VNB,B,9
9,test,4,0.0,2-Back,1.0,m,Tue Feb 24 2026 11:02:16 GMT-0600 (Central Standard Time),757692.200000003,016_y_m_n_a.png,O,m,1164,12,1,2177.0,755515.200000003,7759,VNB,B,10
9,test,4,0.0,2-Back,0.0,z,Tue Feb 24 2026 11:02:16 GMT-0600 (Central Standard Time),760724.3999999911,004_o_m_d_a.png,O,None,2016,13,1,3028.7999999970198,757695.599999994,7759,VNB,B,11
10,test,4,1.0,2-Back,1.0,m,Tue Feb 24 2026 11:02:16 GMT-0600 (Central Standard Time),762675.299999997,011_m_f_h_a.png,O,m,926,14,1,1944.2999999970198,760731.0,7759,VNB,B,12
11,test,4,1.0,2-Back,1.0,m,Tue Feb 24 2026 11:02:16 GMT-0600 (Central Standard Time),765205.700000003,020_y_f_h_a.png,O,m,1504,15,1,2527.9000000059605,762677.799999997,7759,VNB,B,13
12,test,4,0.0,2-Back,1.0,m,Tue Feb 24 2026 11:02:16 GMT-0600 (Central Standard Time),767804.599999994,005_o_f_n_a.png,O,m,1579,16,1,2590.8999999910593,765213.700000003,7759,VNB,B,14
13,test,4,0.0,2-Back,1.0,m,Tue Feb 24 2026 11:02:16 GMT-0600 (Central Standard Time),770122.200000003,016_y_m_d_a.png,O,m,1301,17,1,2314.7000000029802,767807.5,7759,VNB,B,15
14,test,4,1.0,2-Back,1.0,m,Tue Feb 24 2026 11:02:16 GMT-0600 (Central Standard Time),772137.599999994,007_m_m_d_a.png,O,m,991,18,1,2007.5999999940395,770130.0,7759,VNB,B,16
0,test,5,1.0,2-Back,,,Tue Feb 24 2026 11:02:16 GMT-0600 (Central Standard Time),772137.599999994,020_y_f_d_a.png,O,space,1067,1,1,2007.5999999940395,770130.0,7759,VNB,B,0
0,test,5,1.0,2-Back,,,Tue Feb 24 2026 11:02:16 GMT-0600 (Central Standard Time),772137.599999994,005_o_f_h_a.png,O,space,1067,2,1,2007.5999999940395,770130.0,7759,VNB,B,0
0,test,5,1.0,2-Back,0.0,z,Tue Feb 24 2026 11:02:16 GMT-0600 (Central Standard Time),780585.5,004_o_m_d_a.png,O,m,1169,3,1,2194.7000000029802,778390.799999997,7759,VNB,B,1
1,test,5,1.0,2-Back,1.0,m,Tue Feb 24 2026 11:02:16 GMT-0600 (Central Standard Time),782933.799999997,011_m_f_n_a.png,O,m,1328,4,1,2340.7999999970198,780593.0,7759,VNB,B,2
1,test,5,0.0,2-Back,0.0,m,Tue Feb 24 2026 11:02:16 GMT-0600 (Central Standard Time),785366.599999994,007_m_m_h_a.png,O,z,1402,5,1,2429.5999999940395,782937.0,7759,VNB,B,3
2,test,5,0.0,2-Back,1.0,z,Tue Feb 24 2026 11:02:16 GMT-0600 (Central Standard Time),787682.8999999911,020_y_f_n_a.png,O,z,1300,6,1,2309.0999999940395,785373.799999997,7759,VNB,B,4
3,test,5,0.0,2-Back,1.0,m,Tue Feb 24 2026 11:02:16 GMT-0600 (Central Standard Time),789931.599999994,005_o_f_d_a.png,O,m,1222,7,1,2246.0999999940395,787685.5,7759,VNB,B,5
4,test,5,0.0,2-Back,1.0,m,Tue Feb 24 2026 11:02:16 GMT-0600 (Central Standard Time),791848.0,004_o_m_h_a.png,O,m,885,8,1,1910.7999999970198,789937.200000003,7759,VNB,B,6
4,test,5,1.0,2-Back,0.0,z,Tue Feb 24 2026 11:02:16 GMT-0600 (Central Standard Time),794046.8999999911,011_m_f_d_a.png,O,m,1167,9,1,2196.0999999940395,791850.799999997,7759,VNB,B,7
5,test,5,0.0,2-Back,1.0,m,Tue Feb 24 2026 11:02:16 GMT-0600 (Central Standard Time),796862.5,016_y_m_n_a.png,O,m,1785,10,1,2807.9000000059605,794054.599999994,7759,VNB,B,8
6,test,5,0.0,2-Back,1.0,m,Tue Feb 24 2026 11:02:16 GMT-0600 (Central Standard Time),799645.200000003,007_m_m_n_a.png,O,m,1752,11,1,2779.5,796865.700000003,7759,VNB,B,9
7,test,5,0.0,2-Back,1.0,m,Tue Feb 24 2026 11:02:16 GMT-0600 (Central Standard Time),801594.599999994,020_y_f_h_a.png,O,m,924,12,1,1942.8999999910593,799651.700000003,7759,VNB,B,10
8,test,5,0.0,2-Back,1.0,m,Tue Feb 24 2026 11:02:16 GMT-0600 (Central Standard Time),803759.700000003,016_y_m_d_a.png,O,m,1133,13,1,2163.300000011921,801596.3999999911,7759,VNB,B,11
9,test,5,1.0,2-Back,1.0,z,Tue Feb 24 2026 11:02:16 GMT-0600 (Central Standard Time),806642.299999997,011_m_f_h_a.png,O,z,1855,14,1,2875.5999999940395,803766.700000003,7759,VNB,B,12
9,test,5,0.0,2-Back,0.0,m,Tue Feb 24 2026 11:02:16 GMT-0600 (Central Standard Time),809258.700000003,004_o_m_n_a.png,O,z,1590,15,1,2614.4000000059605,806644.299999997,7759,VNB,B,13
10,test,5,0.0,2-Back,1.0,m,Tue Feb 24 2026 11:02:16 GMT-0600 (Central Standard Time),811658.599999994,007_m_m_d_a.png,O,m,1373,16,1,2392.2000000029802,809266.3999999911,7759,VNB,B,14
11,test,5,0.0,2-Back,1.0,z,Tue Feb 24 2026 11:02:16 GMT-0600 (Central Standard Time),814474.0,005_o_f_n_a.png,O,z,1798,17,1,2813.6000000089407,811660.3999999911,7759,VNB,B,15
12,test,5,1.0,2-Back,1.0,m,Tue Feb 24 2026 11:02:16 GMT-0600 (Central Standard Time),816493.599999994,016_y_m_h_a.png,O,m,1003,18,1,2013.0999999940395,814480.5,7759,VNB,B,16
