block_c,block_dur,condition,countdown,datetime,endtime,list,multichar_response,project,response,response_time,session_number,start_end,starttime,subject_id,task,task_vers,trial
,,,,Thu Mar 19 2026 11:16:23 GMT-0500 (Central Daylight Time),,,,I,space,597,1,,,8100,WL,B,
prac,,0,,Thu Mar 19 2026 11:16:23 GMT-0500 (Central Daylight Time),,NA,b,I,b,7082,1,,,8100,WL,B,1.0
prac,,0,,Thu Mar 19 2026 11:16:23 GMT-0500 (Central Daylight Time),,NA,bo,I,o,75,1,,,8100,WL,B,1.0
prac,,0,,Thu Mar 19 2026 11:16:23 GMT-0500 (Central Daylight Time),,NA,boo,I,o,153,1,,,8100,WL,B,1.0
prac,,0,,Thu Mar 19 2026 11:16:23 GMT-0500 (Central Daylight Time),,NA,boos,I,s,273,1,,,8100,WL,B,1.0
prac,,0,,Thu Mar 19 2026 11:16:23 GMT-0500 (Central Daylight Time),,NA,boost,I,t,229,1,,,8100,WL,B,1.0
prac,,0,,Thu Mar 19 2026 11:16:23 GMT-0500 (Central Daylight Time),,NA,boostenter,I,enter,1356,1,,,8100,WL,B,1.0
1,0.7170000076293945,learn,59282.999992370605,Thu Mar 19 2026 11:16:23 GMT-0500 (Central Daylight Time),111266.89999997616,A,s,I,s,710,1,716.5,110550.39999997616,8100,WL,B,1.0
1,1.0329999923706055,learn,58967.000007629395,Thu Mar 19 2026 11:16:23 GMT-0500 (Central Daylight Time),111583.19999992847,A,st,I,t,303,1,1032.7999999523163,110550.39999997616,8100,WL,B,1.0
1,1.5329999923706055,learn,58467.000007629395,Thu Mar 19 2026 11:16:23 GMT-0500 (Central Daylight Time),112083.10000002384,A,str,I,r,484,1,1532.7000000476837,110550.39999997616,8100,WL,B,1.0
1,1.7000000476837158,learn,58299.999952316284,Thu Mar 19 2026 11:16:23 GMT-0500 (Central Daylight Time),112249.60000002384,A,stre,I,e,152,1,1699.2000000476837,110550.39999997616,8100,WL,B,1.0
1,1.933000087738037,learn,58066.99991226196,Thu Mar 19 2026 11:16:23 GMT-0500 (Central Daylight Time),112483.10000002384,A,stree,I,e,218,1,1932.7000000476837,110550.39999997616,8100,WL,B,1.0
1,2.1490001678466797,learn,57850.99983215332,Thu Mar 19 2026 11:16:23 GMT-0500 (Central Daylight Time),112699.29999995232,A,street,I,t,200,1,2148.899999976158,110550.39999997616,8100,WL,B,1.0
1,2.5329999923706055,learn,57467.000007629395,Thu Mar 19 2026 11:16:23 GMT-0500 (Central Daylight Time),113082.79999995232,A,streetenter,I,enter,368,1,2532.399999976158,110550.39999997616,8100,WL,B,1.0
1,2.9820001125335693,learn,57017.99988746643,Thu Mar 19 2026 11:16:23 GMT-0500 (Central Daylight Time),113532.5,A,a,I,a,441,1,449.10000002384186,113083.39999997616,8100,WL,B,2.0
1,3.1490001678466797,learn,56850.99983215332,Thu Mar 19 2026 11:16:23 GMT-0500 (Central Daylight Time),113699.19999992847,A,ar,I,r,159,1,615.7999999523163,113083.39999997616,8100,WL,B,2.0
1,3.432000160217285,learn,56567.999839782715,Thu Mar 19 2026 11:16:23 GMT-0500 (Central Daylight Time),113982.5,A,arm,I,m,265,1,899.1000000238419,113083.39999997616,8100,WL,B,2.0
1,4.115000009536743,learn,55884.99999046326,Thu Mar 19 2026 11:16:23 GMT-0500 (Central Daylight Time),114665.19999992847,A,armenter,I,enter,668,1,1581.7999999523163,113083.39999997616,8100,WL,B,2.0
1,4.3480000495910645,learn,55651.999950408936,Thu Mar 19 2026 11:16:23 GMT-0500 (Central Daylight Time),114898.89999997616,A,w,I,w,226,1,233.29999995231628,114665.60000002384,8100,WL,B,3.0
1,4.482000112533569,learn,55517.99988746643,Thu Mar 19 2026 11:16:23 GMT-0500 (Central Daylight Time),115032.19999992847,A,wi,I,i,120,1,366.59999990463257,114665.60000002384,8100,WL,B,3.0
1,4.648000001907349,learn,55351.99999809265,Thu Mar 19 2026 11:16:23 GMT-0500 (Central Daylight Time),115198.5,A,wif,I,f,155,1,532.8999999761581,114665.60000002384,8100,WL,B,3.0
1,4.79800009727478,learn,55201.99990272522,Thu Mar 19 2026 11:16:23 GMT-0500 (Central Daylight Time),115348.5,A,wife,I,e,141,1,682.8999999761581,114665.60000002384,8100,WL,B,3.0
1,5.064000129699707,learn,54935.99987030029,Thu Mar 19 2026 11:16:23 GMT-0500 (Central Daylight Time),115615.10000002384,A,wifeenter,I,enter,247,1,949.5,114665.60000002384,8100,WL,B,3.0
1,5.480999946594238,learn,54519.00005340576,Thu Mar 19 2026 11:16:23 GMT-0500 (Central Daylight Time),116031.60000002384,A,w,I,w,396,1,416.10000002384186,115615.5,8100,WL,B,4.0
1,5.564000129699707,learn,54435.99987030029,Thu Mar 19 2026 11:16:23 GMT-0500 (Central Daylight Time),116115.10000002384,A,wi,I,i,76,1,499.60000002384186,115615.5,8100,WL,B,4.0
1,5.79800009727478,learn,54201.99990272522,Thu Mar 19 2026 11:16:23 GMT-0500 (Central Daylight Time),116348.5,A,win,I,n,217,1,733.0,115615.5,8100,WL,B,4.0
1,5.88100004196167,learn,54118.99995803833,Thu Mar 19 2026 11:16:23 GMT-0500 (Central Daylight Time),116431.60000002384,A,wind,I,d,62,1,816.1000000238419,115615.5,8100,WL,B,4.0
1,5.980999946594238,learn,54019.00005340576,Thu Mar 19 2026 11:16:23 GMT-0500 (Central Daylight Time),116531.5,A,windo,I,o,92,1,916.0,115615.5,8100,WL,B,4.0
1,6.148000001907349,learn,53851.99999809265,Thu Mar 19 2026 11:16:23 GMT-0500 (Central Daylight Time),116698.19999992847,A,window,I,w,160,1,1082.6999999284744,115615.5,8100,WL,B,4.0
1,6.63100004196167,learn,53368.99995803833,Thu Mar 19 2026 11:16:23 GMT-0500 (Central Daylight Time),117181.69999992847,A,windowenter,I,enter,473,1,1566.1999999284744,115615.5,8100,WL,B,4.0
1,6.980999946594238,learn,53019.00005340576,Thu Mar 19 2026 11:16:23 GMT-0500 (Central Daylight Time),117531.29999995232,A,p,I,p,342,1,349.1999999284744,117182.10000002384,8100,WL,B,5.0
1,7.197000026702881,learn,52802.99997329712,Thu Mar 19 2026 11:16:23 GMT-0500 (Central Daylight Time),117748.10000002384,A,pi,I,i,209,1,566.0,117182.10000002384,8100,WL,B,5.0
1,7.397000074386597,learn,52602.9999256134,Thu Mar 19 2026 11:16:23 GMT-0500 (Central Daylight Time),117947.60000002384,A,pip,I,p,192,1,765.5,117182.10000002384,8100,WL,B,5.0
1,7.5970001220703125,learn,52402.99987792969,Thu Mar 19 2026 11:16:23 GMT-0500 (Central Daylight Time),118147.79999995232,A,pipe,I,e,184,1,965.6999999284744,117182.10000002384,8100,WL,B,5.0
1,7.996999979019165,learn,52003.000020980835,Thu Mar 19 2026 11:16:23 GMT-0500 (Central Daylight Time),118547.69999992847,A,pipeenter,I,enter,384,1,1365.5999999046326,117182.10000002384,8100,WL,B,5.0
1,8.380000114440918,learn,51619.99988555908,Thu Mar 19 2026 11:16:23 GMT-0500 (Central Daylight Time),118930.69999992847,A,g,I,g,368,1,382.59999990463257,118548.10000002384,8100,WL,B,6.0
1,8.614000082015991,learn,51385.99991798401,Thu Mar 19 2026 11:16:23 GMT-0500 (Central Daylight Time),119164.39999997616,A,gr,I,r,217,1,616.2999999523163,118548.10000002384,8100,WL,B,6.0
1,8.880000114440918,learn,51119.99988555908,Thu Mar 19 2026 11:16:23 GMT-0500 (Central Daylight Time),119430.69999992847,A,gra,I,a,247,1,882.5999999046326,118548.10000002384,8100,WL,B,6.0
1,9.11300015449524,learn,50886.99984550476,Thu Mar 19 2026 11:16:23 GMT-0500 (Central Daylight Time),119663.89999997616,A,gras,I,s,221,1,1115.7999999523163,118548.10000002384,8100,WL,B,6.0
1,9.312999963760376,learn,50687.000036239624,Thu Mar 19 2026 11:16:23 GMT-0500 (Central Daylight Time),119863.89999997616,A,grass,I,s,187,1,1315.7999999523163,118548.10000002384,8100,WL,B,6.0
1,10.263000011444092,learn,49736.99998855591,Thu Mar 19 2026 11:16:23 GMT-0500 (Central Daylight Time),120814.0,A,grassenter,I,enter,940,1,2265.899999976158,118548.10000002384,8100,WL,B,6.0
1,12.529000043869019,learn,47470.99995613098,Thu Mar 19 2026 11:16:23 GMT-0500 (Central Daylight Time),123079.60000002384,A,s,I,s,2253,1,2265.4000000953674,120814.19999992847,8100,WL,B,7.0
1,13.045000076293945,learn,46954.999923706055,Thu Mar 19 2026 11:16:23 GMT-0500 (Central Daylight Time),123595.60000002384,A,st,I,t,499,1,2781.4000000953674,120814.19999992847,8100,WL,B,7.0
1,13.296000003814697,learn,46703.9999961853,Thu Mar 19 2026 11:16:23 GMT-0500 (Central Daylight Time),123846.89999997616,A,sta,I,a,240,1,3032.7000000476837,120814.19999992847,8100,WL,B,7.0
1,13.412000179290771,learn,46587.99982070923,Thu Mar 19 2026 11:16:23 GMT-0500 (Central Daylight Time),123962.5,A,star,I,r,100,1,3148.3000000715256,120814.19999992847,8100,WL,B,7.0
1,13.92900013923645,learn,46070.99986076355,Thu Mar 19 2026 11:16:23 GMT-0500 (Central Daylight Time),124479.29999995232,A,starenter,I,enter,503,1,3665.100000023842,120814.19999992847,8100,WL,B,7.0
1,29.223999977111816,learn,30776.000022888184,Thu Mar 19 2026 11:16:23 GMT-0500 (Central Daylight Time),139774.5,A,enter,I,enter,15276,1,15294.700000047684,124479.79999995232,8100,WL,B,8.0
1,33.955000162124634,learn,26044.999837875366,Thu Mar 19 2026 11:16:23 GMT-0500 (Central Daylight Time),144506.0,A,enter,I,enter,4726,1,4731.200000047684,139774.79999995232,8100,WL,B,9.0
1,34.13900017738342,learn,25860.999822616577,Thu Mar 19 2026 11:16:23 GMT-0500 (Central Daylight Time),144689.39999997616,A,enter,I,enter,177,1,183.0,144506.39999997616,8100,WL,B,10.0
1,34.32200002670288,learn,25677.99997329712,Thu Mar 19 2026 11:16:23 GMT-0500 (Central Daylight Time),144872.69999992847,A,enter,I,enter,178,1,183.0,144689.69999992847,8100,WL,B,11.0
1,34.65499997138977,learn,25345.00002861023,Thu Mar 19 2026 11:16:23 GMT-0500 (Central Daylight Time),145206.10000002384,A,enter,I,enter,324,1,333.10000002384186,144873.0,8100,WL,B,12.0
1,34.855000019073486,learn,25144.999980926514,Thu Mar 19 2026 11:16:23 GMT-0500 (Central Daylight Time),145405.89999997616,A,enter,I,enter,189,1,199.29999995231628,145206.60000002384,8100,WL,B,13.0
1,35.055999994277954,learn,24944.000005722046,Thu Mar 19 2026 11:16:23 GMT-0500 (Central Daylight Time),145607.0,A,enter,I,enter,183,1,200.70000004768372,145406.29999995232,8100,WL,B,14.0
1,35.42200016975403,learn,24577.99983024597,Thu Mar 19 2026 11:16:23 GMT-0500 (Central Daylight Time),145972.29999995232,A,enter,I,enter,357,1,364.89999997615814,145607.39999997616,8100,WL,B,15.0
2,0.6959998607635498,learn,59304.00013923645,Thu Mar 19 2026 11:16:23 GMT-0500 (Central Daylight Time),214847.10000002384,A,s,I,s,685,1,695.9000000953674,214151.19999992847,8100,WL,B,1.0
2,1.0339999198913574,learn,58966.00008010864,Thu Mar 19 2026 11:16:23 GMT-0500 (Central Daylight Time),215184.5,A,st,I,t,323,1,1033.3000000715256,214151.19999992847,8100,WL,B,1.0
2,1.316999912261963,learn,58683.00008773804,Thu Mar 19 2026 11:16:23 GMT-0500 (Central Daylight Time),215467.39999997616,A,str,I,r,276,1,1316.2000000476837,214151.19999992847,8100,WL,B,1.0
2,1.6499998569488525,learn,58350.00014305115,Thu Mar 19 2026 11:16:23 GMT-0500 (Central Daylight Time),215800.60000002384,A,stre,I,e,321,1,1649.4000000953674,214151.19999992847,8100,WL,B,1.0
2,1.8499999046325684,learn,58150.00009536743,Thu Mar 19 2026 11:16:23 GMT-0500 (Central Daylight Time),216000.79999995232,A,stree,I,e,188,1,1849.6000000238419,214151.19999992847,8100,WL,B,1.0
2,2.0829999446868896,learn,57917.00005531311,Thu Mar 19 2026 11:16:23 GMT-0500 (Central Daylight Time),216233.60000002384,A,street,I,t,228,1,2082.4000000953674,214151.19999992847,8100,WL,B,1.0
2,2.3329999446868896,learn,57667.00005531311,Thu Mar 19 2026 11:16:23 GMT-0500 (Central Daylight Time),216484.0,A,streetenter,I,enter,234,1,2332.8000000715256,214151.19999992847,8100,WL,B,1.0
2,2.6499998569488525,learn,57350.00014305115,Thu Mar 19 2026 11:16:23 GMT-0500 (Central Daylight Time),216800.60000002384,A,a,I,a,305,1,316.3000000715256,216484.29999995232,8100,WL,B,2.0
2,2.799999952316284,learn,57200.000047683716,Thu Mar 19 2026 11:16:23 GMT-0500 (Central Daylight Time),216950.5,A,ar,I,r,140,1,466.2000000476837,216484.29999995232,8100,WL,B,2.0
2,3.0329999923706055,learn,56967.000007629395,Thu Mar 19 2026 11:16:23 GMT-0500 (Central Daylight Time),217183.79999995232,A,arm,I,m,213,1,699.5,216484.29999995232,8100,WL,B,2.0
2,3.365999937057495,learn,56634.000062942505,Thu Mar 19 2026 11:16:23 GMT-0500 (Central Daylight Time),217516.69999992847,A,armenter,I,enter,324,1,1032.3999999761581,216484.29999995232,8100,WL,B,2.0
2,4.281999826431274,learn,55718.000173568726,Thu Mar 19 2026 11:16:23 GMT-0500 (Central Daylight Time),218433.19999992847,A,w,I,w,911,1,916.0999999046326,217517.10000002384,8100,WL,B,3.0
2,4.381999969482422,learn,55618.00003051758,Thu Mar 19 2026 11:16:23 GMT-0500 (Central Daylight Time),218533.0,A,wi,I,i,83,1,1015.8999999761581,217517.10000002384,8100,WL,B,3.0
2,4.615000009536743,learn,55384.99999046326,Thu Mar 19 2026 11:16:23 GMT-0500 (Central Daylight Time),218766.29999995232,A,win,I,n,215,1,1249.1999999284744,217517.10000002384,8100,WL,B,3.0
2,4.698999881744385,learn,55301.000118255615,Thu Mar 19 2026 11:16:23 GMT-0500 (Central Daylight Time),218849.5,A,wind,I,d,78,1,1332.3999999761581,217517.10000002384,8100,WL,B,3.0
2,4.948999881744385,learn,55051.000118255615,Thu Mar 19 2026 11:16:23 GMT-0500 (Central Daylight Time),219099.69999992847,A,windo,I,o,243,1,1582.5999999046326,217517.10000002384,8100,WL,B,3.0
2,5.082000017166138,learn,54917.99998283386,Thu Mar 19 2026 11:16:23 GMT-0500 (Central Daylight Time),219233.10000002384,A,window,I,w,121,1,1716.0,217517.10000002384,8100,WL,B,3.0
2,5.498999834060669,learn,54501.00016593933,Thu Mar 19 2026 11:16:23 GMT-0500 (Central Daylight Time),219649.69999992847,A,windowenter,I,enter,411,1,2132.5999999046326,217517.10000002384,8100,WL,B,3.0
2,5.898000001907349,learn,54101.99999809265,Thu Mar 19 2026 11:16:23 GMT-0500 (Central Daylight Time),220049.19999992847,A,g,I,g,395,1,399.1999999284744,219650.0,8100,WL,B,4.0
2,6.164999961853027,learn,53835.00003814697,Thu Mar 19 2026 11:16:23 GMT-0500 (Central Daylight Time),220315.69999992847,A,gr,I,r,250,1,665.6999999284744,219650.0,8100,WL,B,4.0
2,6.797999858856201,learn,53202.0001411438,Thu Mar 19 2026 11:16:23 GMT-0500 (Central Daylight Time),220949.0,A,gra,I,a,617,1,1299.0,219650.0,8100,WL,B,4.0
2,6.947999954223633,learn,53052.00004577637,Thu Mar 19 2026 11:16:23 GMT-0500 (Central Daylight Time),221099.19999992847,A,gras,I,s,135,1,1449.1999999284744,219650.0,8100,WL,B,4.0
2,7.180999994277954,learn,52819.000005722046,Thu Mar 19 2026 11:16:23 GMT-0500 (Central Daylight Time),221332.39999997616,A,grass,I,s,225,1,1682.3999999761581,219650.0,8100,WL,B,4.0
2,7.680999994277954,learn,52319.000005722046,Thu Mar 19 2026 11:16:23 GMT-0500 (Central Daylight Time),221832.0,A,grassenter,I,enter,479,1,2182.0,219650.0,8100,WL,B,4.0
2,7.997999906539917,learn,52002.00009346008,Thu Mar 19 2026 11:16:23 GMT-0500 (Central Daylight Time),222148.5,A,w,I,w,299,1,316.0,221832.5,8100,WL,B,5.0
2,8.13099980354309,learn,51869.00019645691,Thu Mar 19 2026 11:16:23 GMT-0500 (Central Daylight Time),222281.89999997616,A,wi,I,i,111,1,449.39999997615814,221832.5,8100,WL,B,5.0
2,8.264999866485596,learn,51735.000133514404,Thu Mar 19 2026 11:16:23 GMT-0500 (Central Daylight Time),222415.69999992847,A,wif,I,f,115,1,583.1999999284744,221832.5,8100,WL,B,5.0
2,8.414000034332275,learn,51585.999965667725,Thu Mar 19 2026 11:16:23 GMT-0500 (Central Daylight Time),222565.29999995232,A,wife,I,e,141,1,732.7999999523163,221832.5,8100,WL,B,5.0
2,9.113999843597412,learn,50886.00015640259,Thu Mar 19 2026 11:16:23 GMT-0500 (Central Daylight Time),223264.60000002384,A,wifeenter,I,enter,694,1,1432.1000000238419,221832.5,8100,WL,B,5.0
2,9.563999891281128,learn,50436.00010871887,Thu Mar 19 2026 11:16:23 GMT-0500 (Central Daylight Time),223714.69999992847,A,a,I,a,436,1,449.7999999523163,223264.89999997616,8100,WL,B,6.0
2,10.063999891281128,learn,49936.00010871887,Thu Mar 19 2026 11:16:23 GMT-0500 (Central Daylight Time),224214.79999995232,A,ar,I,r,482,1,949.8999999761581,223264.89999997616,8100,WL,B,6.0
2,10.179999828338623,learn,49820.00017166138,Thu Mar 19 2026 11:16:23 GMT-0500 (Central Daylight Time),224331.39999997616,A,arm,I,m,109,1,1066.5,223264.89999997616,8100,WL,B,6.0
2,11.146999835968018,learn,48853.00016403198,Thu Mar 19 2026 11:16:23 GMT-0500 (Central Daylight Time),225297.5,A,armenter,I,enter,961,1,2032.6000000238419,223264.89999997616,8100,WL,B,6.0
2,11.52999997138977,learn,48470.00002861023,Thu Mar 19 2026 11:16:23 GMT-0500 (Central Daylight Time),225681.19999992847,A,c,I,c,371,1,383.5,225297.69999992847,8100,WL,B,7.0
2,11.77999997138977,learn,48220.00002861023,Thu Mar 19 2026 11:16:23 GMT-0500 (Central Daylight Time),225930.79999995232,A,ca,I,a,235,1,633.1000000238419,225297.69999992847,8100,WL,B,7.0
2,12.095999956130981,learn,47904.00004386902,Thu Mar 19 2026 11:16:23 GMT-0500 (Central Daylight Time),226247.39999997616,A,cai,I,i,305,1,949.7000000476837,225297.69999992847,8100,WL,B,7.0
2,12.495999813079834,learn,47504.000186920166,Thu Mar 19 2026 11:16:23 GMT-0500 (Central Daylight Time),226647.0,A,ca,I,backspace,380,1,1349.3000000715256,225297.69999992847,8100,WL,B,7.0
2,12.595999956130981,learn,47404.00004386902,Thu Mar 19 2026 11:16:23 GMT-0500 (Central Daylight Time),226747.29999995232,A,cab,I,b,85,1,1449.6000000238419,225297.69999992847,8100,WL,B,7.0
2,12.796000003814697,learn,47203.9999961853,Thu Mar 19 2026 11:16:23 GMT-0500 (Central Daylight Time),226947.10000002384,A,cabi,I,i,192,1,1649.4000000953674,225297.69999992847,8100,WL,B,7.0
2,13.02999997138977,learn,46970.00002861023,Thu Mar 19 2026 11:16:23 GMT-0500 (Central Daylight Time),227180.5,A,cabin,I,n,226,1,1882.8000000715256,225297.69999992847,8100,WL,B,7.0
2,13.412999868392944,learn,46587.000131607056,Thu Mar 19 2026 11:16:23 GMT-0500 (Central Daylight Time),227563.60000002384,A,cabinenter,I,enter,367,1,2265.9000000953674,225297.69999992847,8100,WL,B,7.0
2,13.86299991607666,learn,46137.00008392334,Thu Mar 19 2026 11:16:23 GMT-0500 (Central Daylight Time),228013.39999997616,A,a,I,a,441,1,449.39999997615814,227564.0,8100,WL,B,8.0
2,14.312000036239624,learn,45687.999963760376,Thu Mar 19 2026 11:16:23 GMT-0500 (Central Daylight Time),228463.39999997616,A,,I,backspace,439,1,899.3999999761581,227564.0,8100,WL,B,8.0
2,14.628999948501587,learn,45371.00005149841,Thu Mar 19 2026 11:16:23 GMT-0500 (Central Daylight Time),228780.0,A,l,I,l,301,1,1216.0,227564.0,8100,WL,B,8.0
2,14.796000003814697,learn,45203.9999961853,Thu Mar 19 2026 11:16:23 GMT-0500 (Central Daylight Time),228946.60000002384,A,la,I,a,152,1,1382.6000000238419,227564.0,8100,WL,B,8.0
2,14.911999940872192,learn,45088.00005912781,Thu Mar 19 2026 11:16:23 GMT-0500 (Central Daylight Time),229063.10000002384,A,lak,I,k,97,1,1499.1000000238419,227564.0,8100,WL,B,8.0
2,15.046000003814697,learn,44953.9999961853,Thu Mar 19 2026 11:16:23 GMT-0500 (Central Daylight Time),229196.79999995232,A,lake,I,e,124,1,1632.7999999523163,227564.0,8100,WL,B,8.0
2,15.77899980545044,learn,44221.00019454956,Thu Mar 19 2026 11:16:23 GMT-0500 (Central Daylight Time),229929.5,A,lakeenter,I,enter,720,1,2365.5,227564.0,8100,WL,B,8.0
2,16.562000036239624,learn,43437.999963760376,Thu Mar 19 2026 11:16:23 GMT-0500 (Central Daylight Time),230712.69999992847,A,f,I,f,771,1,782.7999999523163,229929.89999997616,8100,WL,B,9.0
2,16.67799997329712,learn,43322.00002670288,Thu Mar 19 2026 11:16:23 GMT-0500 (Central Daylight Time),230829.10000002384,A,fi,I,i,100,1,899.2000000476837,229929.89999997616,8100,WL,B,9.0
2,16.812000036239624,learn,43187.999963760376,Thu Mar 19 2026 11:16:23 GMT-0500 (Central Daylight Time),230962.5,A,fir,I,r,120,1,1032.6000000238419,229929.89999997616,8100,WL,B,9.0
2,16.91100001335144,learn,43088.99998664856,Thu Mar 19 2026 11:16:23 GMT-0500 (Central Daylight Time),231062.39999997616,A,fire,I,e,90,1,1132.5,229929.89999997616,8100,WL,B,9.0
2,18.044999837875366,learn,41955.000162124634,Thu Mar 19 2026 11:16:23 GMT-0500 (Central Daylight Time),232195.60000002384,A,fireenter,I,enter,1125,1,2265.7000000476837,229929.89999997616,8100,WL,B,9.0
2,18.360999822616577,learn,41639.00017738342,Thu Mar 19 2026 11:16:23 GMT-0500 (Central Daylight Time),232512.0,A,p,I,p,305,1,316.10000002384186,232195.89999997616,8100,WL,B,10.0
2,18.76099991798401,learn,41239.00008201599,Thu Mar 19 2026 11:16:23 GMT-0500 (Central Daylight Time),232912.19999992847,A,pi,I,i,387,1,716.2999999523163,232195.89999997616,8100,WL,B,10.0
2,18.977999925613403,learn,41022.0000743866,Thu Mar 19 2026 11:16:23 GMT-0500 (Central Daylight Time),233128.5,A,pip,I,p,203,1,932.6000000238419,232195.89999997616,8100,WL,B,10.0
2,19.310999870300293,learn,40689.00012969971,Thu Mar 19 2026 11:16:23 GMT-0500 (Central Daylight Time),233461.89999997616,A,pipe,I,e,315,1,1266.0,232195.89999997616,8100,WL,B,10.0
2,19.926999807357788,learn,40073.00019264221,Thu Mar 19 2026 11:16:23 GMT-0500 (Central Daylight Time),234078.29999995232,A,pipeenter,I,enter,605,1,1882.3999999761581,232195.89999997616,8100,WL,B,10.0
2,20.24399995803833,learn,39756.00004196167,Thu Mar 19 2026 11:16:23 GMT-0500 (Central Daylight Time),234394.89999997616,A,p,I,p,302,1,316.2999999523163,234078.60000002384,8100,WL,B,11.0
2,20.444000005722046,learn,39555.999994277954,Thu Mar 19 2026 11:16:23 GMT-0500 (Central Daylight Time),234594.89999997616,A,pu,I,u,186,1,516.2999999523163,234078.60000002384,8100,WL,B,11.0
2,20.89299988746643,learn,39107.00011253357,Thu Mar 19 2026 11:16:23 GMT-0500 (Central Daylight Time),235044.5,A,pup,I,p,440,1,965.8999999761581,234078.60000002384,8100,WL,B,11.0
2,21.192999839782715,learn,38807.000160217285,Thu Mar 19 2026 11:16:23 GMT-0500 (Central Daylight Time),235344.60000002384,A,pupi,I,i,279,1,1266.0,234078.60000002384,8100,WL,B,11.0
2,21.42799997329712,learn,38572.00002670288,Thu Mar 19 2026 11:16:23 GMT-0500 (Central Daylight Time),235578.79999995232,A,pupil,I,l,228,1,1500.1999999284744,234078.60000002384,8100,WL,B,11.0
2,23.20899987220764,learn,36791.00012779236,Thu Mar 19 2026 11:16:23 GMT-0500 (Central Daylight Time),237360.60000002384,A,pupilenter,I,enter,1770,1,3282.0,234078.60000002384,8100,WL,B,11.0
2,24.026000022888184,learn,35973.99997711182,Thu Mar 19 2026 11:16:23 GMT-0500 (Central Daylight Time),238177.0,A,s,I,s,804,1,816.1000000238419,237360.89999997616,8100,WL,B,12.0
2,24.437000036239624,learn,35562.999963760376,Thu Mar 19 2026 11:16:23 GMT-0500 (Central Daylight Time),238588.60000002384,A,st,I,t,391,1,1227.7000000476837,237360.89999997616,8100,WL,B,12.0
2,24.526999950408936,learn,35473.000049591064,Thu Mar 19 2026 11:16:23 GMT-0500 (Central Daylight Time),238678.10000002384,A,sta,I,a,75,1,1317.2000000476837,237360.89999997616,8100,WL,B,12.0
2,24.64199995994568,learn,35358.00004005432,Thu Mar 19 2026 11:16:23 GMT-0500 (Central Daylight Time),238793.39999997616,A,star,I,r,102,1,1432.5,237360.89999997616,8100,WL,B,12.0
2,25.441999912261963,learn,34558.00008773804,Thu Mar 19 2026 11:16:23 GMT-0500 (Central Daylight Time),239593.10000002384,A,starenter,I,enter,787,1,2232.2000000476837,237360.89999997616,8100,WL,B,12.0
2,32.18999981880188,learn,27810.00018119812,Thu Mar 19 2026 11:16:23 GMT-0500 (Central Daylight Time),246340.89999997616,A,c,I,c,6740,1,6747.5,239593.39999997616,8100,WL,B,13.0
2,32.28999996185303,learn,27710.000038146973,Thu Mar 19 2026 11:16:23 GMT-0500 (Central Daylight Time),246440.89999997616,A,ci,I,i,86,1,6847.5,239593.39999997616,8100,WL,B,13.0
2,32.52300000190735,learn,27476.99999809265,Thu Mar 19 2026 11:16:23 GMT-0500 (Central Daylight Time),246674.29999995232,A,cit,I,t,220,1,7080.899999976158,239593.39999997616,8100,WL,B,13.0
2,32.65599989891052,learn,27344.000101089478,Thu Mar 19 2026 11:16:23 GMT-0500 (Central Daylight Time),246807.69999992847,A,city,I,y,121,1,7214.299999952316,239593.39999997616,8100,WL,B,13.0
2,33.70599985122681,learn,26294.000148773193,Thu Mar 19 2026 11:16:23 GMT-0500 (Central Daylight Time),247857.10000002384,A,cityenter,I,enter,1044,1,8263.700000047684,239593.39999997616,8100,WL,B,13.0
2,37.937999963760376,learn,22062.000036239624,Thu Mar 19 2026 11:16:23 GMT-0500 (Central Daylight Time),252089.39999997616,A,enter,I,enter,4212,1,4232.200000047684,247857.19999992847,8100,WL,B,14.0
2,38.30499982833862,learn,21695.000171661377,Thu Mar 19 2026 11:16:23 GMT-0500 (Central Daylight Time),252455.89999997616,A,enter,I,enter,346,1,366.2000000476837,252089.69999992847,8100,WL,B,15.0
3,0.9340000152587891,learn,59065.99998474121,Thu Mar 19 2026 11:16:23 GMT-0500 (Central Daylight Time),319086.2999999523,A,d,I,d,916,1,934.0,318152.2999999523,8100,WL,B,1.0
3,1.0839998722076416,learn,58916.00012779236,Thu Mar 19 2026 11:16:23 GMT-0500 (Central Daylight Time),319236.0,A,dk,I,k,140,1,1083.7000000476837,318152.2999999523,8100,WL,B,1.0
3,1.6649999618530273,learn,58335.00003814697,Thu Mar 19 2026 11:16:23 GMT-0500 (Central Daylight Time),319817.7999999523,A,d,I,backspace,576,1,1665.5,318152.2999999523,8100,WL,B,1.0
3,1.8819999694824219,learn,58118.00003051758,Thu Mar 19 2026 11:16:23 GMT-0500 (Central Daylight Time),320034.5,A,,I,backspace,202,1,1882.2000000476837,318152.2999999523,8100,WL,B,1.0
3,1.999000072479248,learn,58000.99992752075,Thu Mar 19 2026 11:16:23 GMT-0500 (Central Daylight Time),320151.60000002384,A,,I,backspace,97,1,1999.3000000715256,318152.2999999523,8100,WL,B,1.0
3,2.615000009536743,learn,57384.99999046326,Thu Mar 19 2026 11:16:23 GMT-0500 (Central Daylight Time),320767.7999999523,A,s,I,s,605,1,2615.5,318152.2999999523,8100,WL,B,1.0
3,2.7149999141693115,learn,57285.00008583069,Thu Mar 19 2026 11:16:23 GMT-0500 (Central Daylight Time),320867.89999997616,A,sk,I,k,93,1,2715.600000023842,318152.2999999523,8100,WL,B,1.0
3,2.9149999618530273,learn,57085.00003814697,Thu Mar 19 2026 11:16:23 GMT-0500 (Central Daylight Time),321067.7999999523,A,ski,I,i,193,1,2915.5,318152.2999999523,8100,WL,B,1.0
3,3.115000009536743,learn,56884.99999046326,Thu Mar 19 2026 11:16:23 GMT-0500 (Central Daylight Time),321267.6999999285,A,skin,I,n,185,1,3115.399999976158,318152.2999999523,8100,WL,B,1.0
3,3.5320000648498535,learn,56467.99993515015,Thu Mar 19 2026 11:16:23 GMT-0500 (Central Daylight Time),321684.1999999285,A,skinenter,I,enter,408,1,3531.899999976158,318152.2999999523,8100,WL,B,1.0
3,3.8980000019073486,learn,56101.99999809265,Thu Mar 19 2026 11:16:23 GMT-0500 (Central Daylight Time),322050.7999999523,A,w,I,w,361,1,366.2999999523163,321684.5,8100,WL,B,2.0
3,4.015000104904175,learn,55984.999895095825,Thu Mar 19 2026 11:16:23 GMT-0500 (Central Daylight Time),322167.5,A,wi,I,i,105,1,483.0,321684.5,8100,WL,B,2.0
3,4.23199987411499,learn,55768.00012588501,Thu Mar 19 2026 11:16:23 GMT-0500 (Central Daylight Time),322384.0,A,win,I,n,205,1,699.5,321684.5,8100,WL,B,2.0
3,4.365000009536743,learn,55634.99999046326,Thu Mar 19 2026 11:16:23 GMT-0500 (Central Daylight Time),322517.2999999523,A,wind,I,d,117,1,832.7999999523163,321684.5,8100,WL,B,2.0
3,4.4649999141693115,learn,55535.00008583069,Thu Mar 19 2026 11:16:23 GMT-0500 (Central Daylight Time),322617.2999999523,A,windo,I,o,79,1,932.7999999523163,321684.5,8100,WL,B,2.0
3,4.648000001907349,learn,55351.99999809265,Thu Mar 19 2026 11:16:23 GMT-0500 (Central Daylight Time),322800.2999999523,A,window,I,w,171,1,1115.7999999523163,321684.5,8100,WL,B,2.0
3,5.414999961853027,learn,54585.00003814697,Thu Mar 19 2026 11:16:23 GMT-0500 (Central Daylight Time),323567.0,A,windowenter,I,enter,755,1,1882.5,321684.5,8100,WL,B,2.0
3,5.747999906539917,learn,54252.00009346008,Thu Mar 19 2026 11:16:23 GMT-0500 (Central Daylight Time),323900.1999999285,A,w,I,w,325,1,332.89999997615814,323567.2999999523,8100,WL,B,3.0
3,5.88100004196167,learn,54118.99995803833,Thu Mar 19 2026 11:16:23 GMT-0500 (Central Daylight Time),324033.5,A,wi,I,i,112,1,466.2000000476837,323567.2999999523,8100,WL,B,3.0
3,6.013999938964844,learn,53986.000061035156,Thu Mar 19 2026 11:16:23 GMT-0500 (Central Daylight Time),324166.7999999523,A,wif,I,f,115,1,599.5,323567.2999999523,8100,WL,B,3.0
3,6.216000080108643,learn,53783.99991989136,Thu Mar 19 2026 11:16:23 GMT-0500 (Central Daylight Time),324368.60000002384,A,wife,I,e,196,1,801.3000000715256,323567.2999999523,8100,WL,B,3.0
3,6.88100004196167,learn,53118.99995803833,Thu Mar 19 2026 11:16:23 GMT-0500 (Central Daylight Time),325033.0,A,wifeenter,I,enter,660,1,1465.7000000476837,323567.2999999523,8100,WL,B,3.0
3,7.164000034332275,learn,52835.999965667725,Thu Mar 19 2026 11:16:23 GMT-0500 (Central Daylight Time),325316.2999999523,A,c,I,c,268,1,282.89999997615814,325033.39999997616,8100,WL,B,4.0
3,7.263999938964844,learn,52736.000061035156,Thu Mar 19 2026 11:16:23 GMT-0500 (Central Daylight Time),325416.10000002384,A,cl,I,l,88,1,382.7000000476837,325033.39999997616,8100,WL,B,4.0
3,7.480999946594238,learn,52519.00005340576,Thu Mar 19 2026 11:16:23 GMT-0500 (Central Daylight Time),325633.10000002384,A,clo,I,o,196,1,599.7000000476837,325033.39999997616,8100,WL,B,4.0
3,8.230000019073486,learn,51769.999980926514,Thu Mar 19 2026 11:16:23 GMT-0500 (Central Daylight Time),326382.60000002384,A,cloc,I,c,738,1,1349.2000000476837,325033.39999997616,8100,WL,B,4.0
3,8.697999954223633,learn,51302.00004577637,Thu Mar 19 2026 11:16:23 GMT-0500 (Central Daylight Time),326850.60000002384,A,clock,I,k,454,1,1817.2000000476837,325033.39999997616,8100,WL,B,4.0
3,9.645999908447266,learn,50354.000091552734,Thu Mar 19 2026 11:16:23 GMT-0500 (Central Daylight Time),327798.7999999523,A,clockenter,I,enter,929,1,2765.399999976158,325033.39999997616,8100,WL,B,4.0
3,10.579999923706055,learn,49420.000076293945,Thu Mar 19 2026 11:16:23 GMT-0500 (Central Daylight Time),328732.0,A,f,I,f,917,1,932.8000000715256,327799.1999999285,8100,WL,B,5.0
3,10.680000066757202,learn,49319.9999332428,Thu Mar 19 2026 11:16:23 GMT-0500 (Central Daylight Time),328831.89999997616,A,fi,I,i,88,1,1032.7000000476837,327799.1999999285,8100,WL,B,5.0
3,10.913000106811523,learn,49086.99989318848,Thu Mar 19 2026 11:16:23 GMT-0500 (Central Daylight Time),329065.0,A,fir,I,r,227,1,1265.8000000715256,327799.1999999285,8100,WL,B,5.0
3,10.996000051498413,learn,49003.99994850159,Thu Mar 19 2026 11:16:23 GMT-0500 (Central Daylight Time),329148.60000002384,A,fire,I,e,76,1,1349.4000000953674,327799.1999999285,8100,WL,B,5.0
3,11.446000099182129,learn,48553.99990081787,Thu Mar 19 2026 11:16:23 GMT-0500 (Central Daylight Time),329598.2999999523,A,fireenter,I,enter,440,1,1799.1000000238419,327799.1999999285,8100,WL,B,5.0
3,11.729000091552734,learn,48270.999908447266,Thu Mar 19 2026 11:16:23 GMT-0500 (Central Daylight Time),329881.5,A,c,I,c,263,1,282.89999997615814,329598.60000002384,8100,WL,B,6.0
3,11.946000099182129,learn,48053.99990081787,Thu Mar 19 2026 11:16:23 GMT-0500 (Central Daylight Time),330098.39999997616,A,ca,I,a,202,1,499.7999999523163,329598.60000002384,8100,WL,B,6.0
3,12.246000051498413,learn,47753.99994850159,Thu Mar 19 2026 11:16:23 GMT-0500 (Central Daylight Time),330398.1999999285,A,cab,I,b,282,1,799.5999999046326,329598.60000002384,8100,WL,B,6.0
3,12.395999908447266,learn,47604.000091552734,Thu Mar 19 2026 11:16:23 GMT-0500 (Central Daylight Time),330548.0,A,cabi,I,i,142,1,949.3999999761581,329598.60000002384,8100,WL,B,6.0
3,12.628999948501587,learn,47371.00005149841,Thu Mar 19 2026 11:16:23 GMT-0500 (Central Daylight Time),330781.39999997616,A,cabin,I,n,216,1,1182.7999999523163,329598.60000002384,8100,WL,B,6.0
3,13.34500002861023,learn,46654.99997138977,Thu Mar 19 2026 11:16:23 GMT-0500 (Central Daylight Time),331497.6999999285,A,cabinenter,I,enter,702,1,1899.0999999046326,329598.60000002384,8100,WL,B,6.0
3,13.678999900817871,learn,46321.00009918213,Thu Mar 19 2026 11:16:23 GMT-0500 (Central Daylight Time),331831.10000002384,A,l,I,l,314,1,333.2000000476837,331497.89999997616,8100,WL,B,7.0
3,13.84500002861023,learn,46154.99997138977,Thu Mar 19 2026 11:16:23 GMT-0500 (Central Daylight Time),331997.6999999285,A,la,I,a,149,1,499.7999999523163,331497.89999997616,8100,WL,B,7.0
3,14.227999925613403,learn,45772.0000743866,Thu Mar 19 2026 11:16:23 GMT-0500 (Central Daylight Time),332381.0,A,lak,I,k,375,1,883.1000000238419,331497.89999997616,8100,WL,B,7.0
3,14.509000062942505,learn,45490.999937057495,Thu Mar 19 2026 11:16:23 GMT-0500 (Central Daylight Time),332661.1999999285,A,lake,I,e,276,1,1163.2999999523163,331497.89999997616,8100,WL,B,7.0
3,14.655999898910522,learn,45344.00010108948,Thu Mar 19 2026 11:16:23 GMT-0500 (Central Daylight Time),332808.60000002384,A,lakeenter,I,enter,142,1,1310.7000000476837,331497.89999997616,8100,WL,B,7.0
3,14.960999965667725,learn,45039.000034332275,Thu Mar 19 2026 11:16:23 GMT-0500 (Central Daylight Time),333113.6999999285,A,c,I,c,298,1,304.7999999523163,332808.89999997616,8100,WL,B,8.0
3,15.045000076293945,learn,44954.999923706055,Thu Mar 19 2026 11:16:23 GMT-0500 (Central Daylight Time),333197.1999999285,A,ci,I,i,75,1,388.2999999523163,332808.89999997616,8100,WL,B,8.0
3,15.311000108718872,learn,44688.99989128113,Thu Mar 19 2026 11:16:23 GMT-0500 (Central Daylight Time),333463.89999997616,A,cit,I,t,255,1,655.0,332808.89999997616,8100,WL,B,8.0
3,15.444999933242798,learn,44555.0000667572,Thu Mar 19 2026 11:16:23 GMT-0500 (Central Daylight Time),333597.1999999285,A,city,I,y,125,1,788.2999999523163,332808.89999997616,8100,WL,B,8.0
3,15.960999965667725,learn,44039.000034332275,Thu Mar 19 2026 11:16:23 GMT-0500 (Central Daylight Time),334113.5,A,cityenter,I,enter,503,1,1304.6000000238419,332808.89999997616,8100,WL,B,8.0
3,16.460999965667725,learn,43539.000034332275,Thu Mar 19 2026 11:16:23 GMT-0500 (Central Daylight Time),334613.5,A,p,I,p,490,1,499.7000000476837,334113.7999999523,8100,WL,B,9.0
3,16.67799997329712,learn,43322.00002670288,Thu Mar 19 2026 11:16:23 GMT-0500 (Central Daylight Time),334830.1999999285,A,pu,I,u,199,1,716.3999999761581,334113.7999999523,8100,WL,B,9.0
3,16.960999965667725,learn,43039.000034332275,Thu Mar 19 2026 11:16:23 GMT-0500 (Central Daylight Time),335113.10000002384,A,pup,I,p,278,1,999.3000000715256,334113.7999999523,8100,WL,B,9.0
3,17.49399995803833,learn,42506.00004196167,Thu Mar 19 2026 11:16:23 GMT-0500 (Central Daylight Time),335646.5,A,pupi,I,i,515,1,1532.7000000476837,334113.7999999523,8100,WL,B,9.0
3,17.74399995803833,learn,42256.00004196167,Thu Mar 19 2026 11:16:23 GMT-0500 (Central Daylight Time),335896.6999999285,A,pupil,I,l,229,1,1782.8999999761581,334113.7999999523,8100,WL,B,9.0
3,18.526999950408936,learn,41473.000049591064,Thu Mar 19 2026 11:16:23 GMT-0500 (Central Daylight Time),336679.5,A,pupilenter,I,enter,771,1,2565.7000000476837,334113.7999999523,8100,WL,B,9.0
3,21.075999975204468,learn,38924.00002479553,Thu Mar 19 2026 11:16:23 GMT-0500 (Central Daylight Time),339228.60000002384,A,c,I,c,2541,1,2548.7000000476837,336679.89999997616,8100,WL,B,10.0
3,21.158999919891357,learn,38841.00008010864,Thu Mar 19 2026 11:16:23 GMT-0500 (Central Daylight Time),339311.7999999523,A,cl,I,l,72,1,2631.899999976158,336679.89999997616,8100,WL,B,10.0
3,21.359999895095825,learn,38640.000104904175,Thu Mar 19 2026 11:16:23 GMT-0500 (Central Daylight Time),339512.1999999285,A,clo,I,o,180,1,2832.2999999523163,336679.89999997616,8100,WL,B,10.0
3,21.625999927520752,learn,38374.00007247925,Thu Mar 19 2026 11:16:23 GMT-0500 (Central Daylight Time),339778.60000002384,A,cloc,I,c,260,1,3098.7000000476837,336679.89999997616,8100,WL,B,10.0
3,21.7260000705719,learn,38273.9999294281,Thu Mar 19 2026 11:16:23 GMT-0500 (Central Daylight Time),339878.5,A,clock,I,k,90,1,3198.600000023842,336679.89999997616,8100,WL,B,10.0
3,22.16000008583069,learn,37839.99991416931,Thu Mar 19 2026 11:16:23 GMT-0500 (Central Daylight Time),340312.60000002384,A,clockenter,I,enter,413,1,3632.7000000476837,336679.89999997616,8100,WL,B,10.0
3,23.22499990463257,learn,36775.00009536743,Thu Mar 19 2026 11:16:23 GMT-0500 (Central Daylight Time),341377.89999997616,A,s,I,s,1051,1,1065.1000000238419,340312.7999999523,8100,WL,B,11.0
3,23.4760000705719,learn,36523.9999294281,Thu Mar 19 2026 11:16:23 GMT-0500 (Central Daylight Time),341628.10000002384,A,st,I,t,234,1,1315.3000000715256,340312.7999999523,8100,WL,B,11.0
3,23.72499990463257,learn,36275.00009536743,Thu Mar 19 2026 11:16:23 GMT-0500 (Central Daylight Time),341877.7999999523,A,str,I,r,241,1,1565.0,340312.7999999523,8100,WL,B,11.0
3,23.825000047683716,learn,36174.999952316284,Thu Mar 19 2026 11:16:23 GMT-0500 (Central Daylight Time),341977.7999999523,A,stre,I,e,85,1,1665.0,340312.7999999523,8100,WL,B,11.0
3,24.009000062942505,learn,35990.999937057495,Thu Mar 19 2026 11:16:23 GMT-0500 (Central Daylight Time),342161.1999999285,A,stree,I,e,171,1,1848.3999999761581,340312.7999999523,8100,WL,B,11.0
3,36.17199993133545,learn,23828.00006866455,Thu Mar 19 2026 11:16:23 GMT-0500 (Central Daylight Time),354324.0,A,streer,I,r,12155,1,14011.200000047684,340312.7999999523,8100,WL,B,11.0
3,37.23699998855591,learn,22763.00001144409,Thu Mar 19 2026 11:16:23 GMT-0500 (Central Daylight Time),355390.1999999285,A,stree,I,backspace,1048,1,15077.399999976158,340312.7999999523,8100,WL,B,11.0
3,37.78699994087219,learn,22213.000059127808,Thu Mar 19 2026 11:16:23 GMT-0500 (Central Daylight Time),355940.10000002384,A,street,I,t,534,1,15627.300000071526,340312.7999999523,8100,WL,B,11.0
3,38.97000002861023,learn,21029.99997138977,Thu Mar 19 2026 11:16:23 GMT-0500 (Central Daylight Time),357123.0,A,streetenter,I,enter,1176,1,16810.200000047684,340312.7999999523,8100,WL,B,11.0
3,42.33699989318848,learn,17663.000106811523,Thu Mar 19 2026 11:16:23 GMT-0500 (Central Daylight Time),360489.5,A,g,I,g,3352,1,3366.100000023842,357123.39999997616,8100,WL,B,12.0
3,42.55299997329712,learn,17447.00002670288,Thu Mar 19 2026 11:16:23 GMT-0500 (Central Daylight Time),360705.39999997616,A,gr,I,r,202,1,3582.0,357123.39999997616,8100,WL,B,12.0
3,42.78600001335144,learn,17213.99998664856,Thu Mar 19 2026 11:16:23 GMT-0500 (Central Daylight Time),360938.5,A,gra,I,a,226,1,3815.100000023842,357123.39999997616,8100,WL,B,12.0
3,42.986000061035156,learn,17013.999938964844,Thu Mar 19 2026 11:16:23 GMT-0500 (Central Daylight Time),361138.60000002384,A,gras,I,s,186,1,4015.2000000476837,357123.39999997616,8100,WL,B,12.0
3,43.151999950408936,learn,16848.000049591064,Thu Mar 19 2026 11:16:23 GMT-0500 (Central Daylight Time),361305.0,A,grass,I,s,146,1,4181.600000023842,357123.39999997616,8100,WL,B,12.0
3,43.60199999809265,learn,16398.00000190735,Thu Mar 19 2026 11:16:23 GMT-0500 (Central Daylight Time),361754.89999997616,A,grassenter,I,enter,444,1,4631.5,357123.39999997616,8100,WL,B,12.0
3,45.01900005340576,learn,14980.999946594238,Thu Mar 19 2026 11:16:23 GMT-0500 (Central Daylight Time),363171.2999999523,A,s,I,s,1409,1,1416.0,361755.2999999523,8100,WL,B,13.0
3,45.30200004577637,learn,14697.999954223633,Thu Mar 19 2026 11:16:23 GMT-0500 (Central Daylight Time),363454.39999997616,A,st,I,t,273,1,1699.1000000238419,361755.2999999523,8100,WL,B,13.0
3,45.568000078201294,learn,14431.999921798706,Thu Mar 19 2026 11:16:23 GMT-0500 (Central Daylight Time),363721.0,A,sta,I,a,254,1,1965.7000000476837,361755.2999999523,8100,WL,B,13.0
3,45.66799998283386,learn,14332.000017166138,Thu Mar 19 2026 11:16:23 GMT-0500 (Central Daylight Time),363821.10000002384,A,star,I,r,84,1,2065.8000000715256,361755.2999999523,8100,WL,B,13.0
3,46.80200004577637,learn,13197.999954223633,Thu Mar 19 2026 11:16:23 GMT-0500 (Central Daylight Time),364954.7999999523,A,starenter,I,enter,1127,1,3199.5,361755.2999999523,8100,WL,B,13.0
3,47.151000022888184,learn,12848.999977111816,Thu Mar 19 2026 11:16:23 GMT-0500 (Central Daylight Time),365303.89999997616,A,s,I,s,328,1,348.7999999523163,364955.10000002384,8100,WL,B,14.0
3,47.384000062942505,learn,12615.999937057495,Thu Mar 19 2026 11:16:23 GMT-0500 (Central Daylight Time),365537.1999999285,A,st,I,t,213,1,582.0999999046326,364955.10000002384,8100,WL,B,14.0
3,47.58500003814697,learn,12414.999961853027,Thu Mar 19 2026 11:16:23 GMT-0500 (Central Daylight Time),365738.39999997616,A,str,I,r,187,1,783.2999999523163,364955.10000002384,8100,WL,B,14.0
3,47.71799993515015,learn,12282.000064849854,Thu Mar 19 2026 11:16:23 GMT-0500 (Central Daylight Time),365870.39999997616,A,stre,I,e,122,1,915.2999999523163,364955.10000002384,8100,WL,B,14.0
3,47.91799998283386,learn,12082.000017166138,Thu Mar 19 2026 11:16:23 GMT-0500 (Central Daylight Time),366070.2999999523,A,stree,I,e,182,1,1115.1999999284744,364955.10000002384,8100,WL,B,14.0
3,48.151000022888184,learn,11848.999977111816,Thu Mar 19 2026 11:16:23 GMT-0500 (Central Daylight Time),366303.5,A,street,I,t,221,1,1348.3999999761581,364955.10000002384,8100,WL,B,14.0
3,49.967000007629395,learn,10032.999992370605,Thu Mar 19 2026 11:16:23 GMT-0500 (Central Daylight Time),368119.60000002384,A,stree,I,backspace,1796,1,3164.5,364955.10000002384,8100,WL,B,14.0
3,50.134000062942505,learn,9865.999937057495,Thu Mar 19 2026 11:16:23 GMT-0500 (Central Daylight Time),368286.39999997616,A,stre,I,backspace,149,1,3331.2999999523163,364955.10000002384,8100,WL,B,14.0
3,50.299999952316284,learn,9700.000047683716,Thu Mar 19 2026 11:16:23 GMT-0500 (Central Daylight Time),368453.0,A,str,I,backspace,150,1,3497.899999976158,364955.10000002384,8100,WL,B,14.0
3,50.450000047683716,learn,9549.999952316284,Thu Mar 19 2026 11:16:23 GMT-0500 (Central Daylight Time),368602.7999999523,A,st,I,backspace,134,1,3647.6999999284744,364955.10000002384,8100,WL,B,14.0
3,50.59999990463257,learn,9400.000095367432,Thu Mar 19 2026 11:16:23 GMT-0500 (Central Daylight Time),368752.7999999523,A,s,I,backspace,138,1,3797.6999999284744,364955.10000002384,8100,WL,B,14.0
3,50.78399991989136,learn,9216.000080108643,Thu Mar 19 2026 11:16:23 GMT-0500 (Central Daylight Time),368936.39999997616,A,,I,backspace,163,1,3981.2999999523163,364955.10000002384,8100,WL,B,14.0
3,54.28200006484985,learn,5717.9999351501465,Thu Mar 19 2026 11:16:23 GMT-0500 (Central Daylight Time),372435.1999999285,A,p,I,p,3485,1,7480.099999904633,364955.10000002384,8100,WL,B,14.0
3,54.46499991416931,learn,5535.0000858306885,Thu Mar 19 2026 11:16:23 GMT-0500 (Central Daylight Time),372618.2999999523,A,pu,I,u,177,1,7663.199999928474,364955.10000002384,8100,WL,B,14.0
3,54.99900007247925,learn,5000.999927520752,Thu Mar 19 2026 11:16:23 GMT-0500 (Central Daylight Time),373151.39999997616,A,pup,I,p,512,1,8196.299999952316,364955.10000002384,8100,WL,B,14.0
3,55.198999881744385,learn,4801.000118255615,Thu Mar 19 2026 11:16:23 GMT-0500 (Central Daylight Time),373351.6999999285,A,pupi,I,i,189,1,8396.599999904633,364955.10000002384,8100,WL,B,14.0
3,55.46499991416931,learn,4535.0000858306885,Thu Mar 19 2026 11:16:23 GMT-0500 (Central Daylight Time),373618.0,A,pupil,I,l,253,1,8662.899999976158,364955.10000002384,8100,WL,B,14.0
3,57.49799990653992,learn,2502.000093460083,Thu Mar 19 2026 11:16:23 GMT-0500 (Central Daylight Time),375650.2999999523,A,pupilenter,I,enter,2025,1,10695.199999928474,364955.10000002384,8100,WL,B,14.0
3,60.013999938964844,learn,-13.99993896484375,Thu Mar 19 2026 11:16:23 GMT-0500 (Central Daylight Time),378166.5,A,None,I,None,2511,1,2515.899999976158,375650.60000002384,8100,WL,B,15.0
4,1.7149999141693115,learn,58285.00008583069,Thu Mar 19 2026 11:16:23 GMT-0500 (Central Daylight Time),446045.5,A,c,I,c,1707,1,1715.2000000476837,444330.2999999523,8100,WL,B,1.0
4,1.7990000247955322,learn,58200.99997520447,Thu Mar 19 2026 11:16:23 GMT-0500 (Central Daylight Time),446128.7999999523,A,cl,I,l,62,1,1798.5,444330.2999999523,8100,WL,B,1.0
4,1.9649999141693115,learn,58035.00008583069,Thu Mar 19 2026 11:16:23 GMT-0500 (Central Daylight Time),446295.10000002384,A,clo,I,o,156,1,1964.8000000715256,444330.2999999523,8100,WL,B,1.0
4,2.2149999141693115,learn,57785.00008583069,Thu Mar 19 2026 11:16:23 GMT-0500 (Central Daylight Time),446545.10000002384,A,cloc,I,c,237,1,2214.8000000715256,444330.2999999523,8100,WL,B,1.0
4,2.3480000495910645,learn,57651.999950408936,Thu Mar 19 2026 11:16:23 GMT-0500 (Central Daylight Time),446678.39999997616,A,clock,I,k,115,1,2348.100000023842,444330.2999999523,8100,WL,B,1.0
4,2.7819998264312744,learn,57218.000173568726,Thu Mar 19 2026 11:16:23 GMT-0500 (Central Daylight Time),447111.6999999285,A,clockenter,I,enter,422,1,2781.399999976158,444330.2999999523,8100,WL,B,1.0
4,3.2649998664855957,learn,56735.000133514404,Thu Mar 19 2026 11:16:23 GMT-0500 (Central Daylight Time),447594.89999997616,A,s,I,s,477,1,482.89999997615814,447112.0,8100,WL,B,2.0
4,3.797999858856201,learn,56202.0001411438,Thu Mar 19 2026 11:16:23 GMT-0500 (Central Daylight Time),448128.39999997616,A,,I,backspace,528,1,1016.3999999761581,447112.0,8100,WL,B,2.0
4,4.514999866485596,learn,55485.000133514404,Thu Mar 19 2026 11:16:23 GMT-0500 (Central Daylight Time),448844.5,A,g,I,g,708,1,1732.5,447112.0,8100,WL,B,2.0
4,4.747999906539917,learn,55252.00009346008,Thu Mar 19 2026 11:16:23 GMT-0500 (Central Daylight Time),449077.60000002384,A,gr,I,r,216,1,1965.6000000238419,447112.0,8100,WL,B,2.0
4,4.96399998664856,learn,55036.00001335144,Thu Mar 19 2026 11:16:23 GMT-0500 (Central Daylight Time),449294.2999999523,A,gra,I,a,207,1,2182.2999999523163,447112.0,8100,WL,B,2.0
4,5.180999994277954,learn,54819.000005722046,Thu Mar 19 2026 11:16:23 GMT-0500 (Central Daylight Time),449511.2999999523,A,gras,I,s,197,1,2399.2999999523163,447112.0,8100,WL,B,2.0
4,5.3480000495910645,learn,54651.999950408936,Thu Mar 19 2026 11:16:23 GMT-0500 (Central Daylight Time),449677.60000002384,A,grass,I,s,157,1,2565.600000023842,447112.0,8100,WL,B,2.0
4,5.813999891281128,learn,54186.00010871887,Thu Mar 19 2026 11:16:23 GMT-0500 (Central Daylight Time),450144.10000002384,A,grassenter,I,enter,455,1,3032.100000023842,447112.0,8100,WL,B,2.0
4,6.16100001335144,learn,53838.99998664856,Thu Mar 19 2026 11:16:23 GMT-0500 (Central Daylight Time),450491.2999999523,A,w,I,w,212,1,347.0,450144.2999999523,8100,WL,B,3.0
4,6.167999982833862,learn,53832.00001716614,Thu Mar 19 2026 11:16:23 GMT-0500 (Central Daylight Time),450497.6999999285,A,wi,I,i,1,1,353.39999997615814,450144.2999999523,8100,WL,B,3.0
4,6.379999876022339,learn,53620.00012397766,Thu Mar 19 2026 11:16:23 GMT-0500 (Central Daylight Time),450710.39999997616,A,win,I,n,194,1,566.1000000238419,450144.2999999523,8100,WL,B,3.0
4,6.546999931335449,learn,53453.00006866455,Thu Mar 19 2026 11:16:23 GMT-0500 (Central Daylight Time),450877.1999999285,A,wind,I,d,150,1,732.8999999761581,450144.2999999523,8100,WL,B,3.0
4,6.664000034332275,learn,53335.999965667725,Thu Mar 19 2026 11:16:23 GMT-0500 (Central Daylight Time),450993.6999999285,A,windo,I,o,111,1,849.3999999761581,450144.2999999523,8100,WL,B,3.0
4,6.846999883651733,learn,53153.00011634827,Thu Mar 19 2026 11:16:23 GMT-0500 (Central Daylight Time),451176.89999997616,A,window,I,w,163,1,1032.6000000238419,450144.2999999523,8100,WL,B,3.0
4,7.346999883651733,learn,52653.00011634827,Thu Mar 19 2026 11:16:23 GMT-0500 (Central Daylight Time),451676.89999997616,A,windowenter,I,enter,484,1,1532.6000000238419,450144.2999999523,8100,WL,B,3.0
4,7.629999876022339,learn,52370.00012397766,Thu Mar 19 2026 11:16:23 GMT-0500 (Central Daylight Time),451960.2999999523,A,w,I,w,272,1,283.0,451677.2999999523,8100,WL,B,4.0
4,7.730999946594238,learn,52269.00005340576,Thu Mar 19 2026 11:16:23 GMT-0500 (Central Daylight Time),452061.1999999285,A,wi,I,i,92,1,383.89999997615814,451677.2999999523,8100,WL,B,4.0
4,7.929999828338623,learn,52070.00017166138,Thu Mar 19 2026 11:16:23 GMT-0500 (Central Daylight Time),452260.0,A,wif,I,f,192,1,582.7000000476837,451677.2999999523,8100,WL,B,4.0
4,8.079999923706055,learn,51920.000076293945,Thu Mar 19 2026 11:16:23 GMT-0500 (Central Daylight Time),452410.0,A,wife,I,e,144,1,732.7000000476837,451677.2999999523,8100,WL,B,4.0
4,8.61299991607666,learn,51387.00008392334,Thu Mar 19 2026 11:16:23 GMT-0500 (Central Daylight Time),452943.2999999523,A,wifeenter,I,enter,514,1,1266.0,451677.2999999523,8100,WL,B,4.0
4,8.980000019073486,learn,51019.999980926514,Thu Mar 19 2026 11:16:23 GMT-0500 (Central Daylight Time),453309.6999999285,A,a,I,a,357,1,366.09999990463257,452943.60000002384,8100,WL,B,5.0
4,9.19700002670288,learn,50802.99997329712,Thu Mar 19 2026 11:16:23 GMT-0500 (Central Daylight Time),453526.60000002384,A,ar,I,r,207,1,583.0,452943.60000002384,8100,WL,B,5.0
4,9.44599986076355,learn,50554.00013923645,Thu Mar 19 2026 11:16:23 GMT-0500 (Central Daylight Time),453776.2999999523,A,arm,I,m,238,1,832.6999999284744,452943.60000002384,8100,WL,B,5.0
4,10.44599986076355,learn,49554.00013923645,Thu Mar 19 2026 11:16:23 GMT-0500 (Central Daylight Time),454775.89999997616,A,armenter,I,enter,979,1,1832.2999999523163,452943.60000002384,8100,WL,B,5.0
4,10.664000034332275,learn,49335.999965667725,Thu Mar 19 2026 11:16:23 GMT-0500 (Central Daylight Time),454993.6999999285,A,s,I,s,212,1,217.39999997615814,454776.2999999523,8100,WL,B,6.0
4,10.763999938964844,learn,49236.000061035156,Thu Mar 19 2026 11:16:23 GMT-0500 (Central Daylight Time),455093.7999999523,A,sk,I,k,91,1,317.5,454776.2999999523,8100,WL,B,6.0
4,10.978999853134155,learn,49021.000146865845,Thu Mar 19 2026 11:16:23 GMT-0500 (Central Daylight Time),455309.0,A,ski,I,i,207,1,532.7000000476837,454776.2999999523,8100,WL,B,6.0
4,11.211999893188477,learn,48788.00010681152,Thu Mar 19 2026 11:16:23 GMT-0500 (Central Daylight Time),455542.1999999285,A,skin,I,n,216,1,765.8999999761581,454776.2999999523,8100,WL,B,6.0
4,11.578999996185303,learn,48421.0000038147,Thu Mar 19 2026 11:16:23 GMT-0500 (Central Daylight Time),455909.0,A,skinenter,I,enter,358,1,1132.7000000476837,454776.2999999523,8100,WL,B,6.0
4,12.178999900817871,learn,47821.00009918213,Thu Mar 19 2026 11:16:23 GMT-0500 (Central Daylight Time),456509.1999999285,A,c,I,c,584,1,599.8999999761581,455909.2999999523,8100,WL,B,7.0
4,12.244999885559082,learn,47755.00011444092,Thu Mar 19 2026 11:16:23 GMT-0500 (Central Daylight Time),456575.2999999523,A,cl,I,l,54,1,666.0,455909.2999999523,8100,WL,B,7.0
4,12.661999940872192,learn,47338.00005912781,Thu Mar 19 2026 11:16:23 GMT-0500 (Central Daylight Time),456991.89999997616,A,c,I,backspace,405,1,1082.6000000238419,455909.2999999523,8100,WL,B,7.0
4,12.84500002861023,learn,47154.99997138977,Thu Mar 19 2026 11:16:23 GMT-0500 (Central Daylight Time),457175.10000002384,A,,I,backspace,173,1,1265.8000000715256,455909.2999999523,8100,WL,B,7.0
4,13.812999963760376,learn,46187.000036239624,Thu Mar 19 2026 11:16:23 GMT-0500 (Central Daylight Time),458142.7999999523,A,c,I,c,949,1,2233.5,455909.2999999523,8100,WL,B,7.0
4,14.044999837875366,learn,45955.000162124634,Thu Mar 19 2026 11:16:23 GMT-0500 (Central Daylight Time),458374.7999999523,A,ca,I,a,214,1,2465.5,455909.2999999523,8100,WL,B,7.0
4,14.34500002861023,learn,45654.99997138977,Thu Mar 19 2026 11:16:23 GMT-0500 (Central Daylight Time),458674.60000002384,A,cab,I,b,294,1,2765.3000000715256,455909.2999999523,8100,WL,B,7.0
4,14.510999917984009,learn,45489.00008201599,Thu Mar 19 2026 11:16:23 GMT-0500 (Central Daylight Time),458841.39999997616,A,cabi,I,i,162,1,2932.100000023842,455909.2999999523,8100,WL,B,7.0
4,14.710999965667725,learn,45289.000034332275,Thu Mar 19 2026 11:16:23 GMT-0500 (Central Daylight Time),459041.39999997616,A,cabin,I,n,187,1,3132.100000023842,455909.2999999523,8100,WL,B,7.0
4,15.077999830245972,learn,44922.00016975403,Thu Mar 19 2026 11:16:23 GMT-0500 (Central Daylight Time),459407.60000002384,A,cabinenter,I,enter,348,1,3498.3000000715256,455909.2999999523,8100,WL,B,7.0
4,15.378000020980835,learn,44621.999979019165,Thu Mar 19 2026 11:16:23 GMT-0500 (Central Daylight Time),459707.6999999285,A,l,I,l,284,1,299.7999999523163,459407.89999997616,8100,WL,B,8.0
4,15.526999950408936,learn,44473.000049591064,Thu Mar 19 2026 11:16:23 GMT-0500 (Central Daylight Time),459857.39999997616,A,la,I,a,145,1,449.5,459407.89999997616,8100,WL,B,8.0
4,15.760999917984009,learn,44239.00008201599,Thu Mar 19 2026 11:16:23 GMT-0500 (Central Daylight Time),460091.0,A,lak,I,k,227,1,683.1000000238419,459407.89999997616,8100,WL,B,8.0
4,15.894000053405762,learn,44105.99994659424,Thu Mar 19 2026 11:16:23 GMT-0500 (Central Daylight Time),460224.2999999523,A,lake,I,e,114,1,816.3999999761581,459407.89999997616,8100,WL,B,8.0
4,16.24399995803833,learn,43756.00004196167,Thu Mar 19 2026 11:16:23 GMT-0500 (Central Daylight Time),460574.1999999285,A,lakeenter,I,enter,332,1,1166.2999999523163,459407.89999997616,8100,WL,B,8.0
4,16.47699999809265,learn,43523.00000190735,Thu Mar 19 2026 11:16:23 GMT-0500 (Central Daylight Time),460807.39999997616,A,f,I,f,222,1,232.79999995231628,460574.60000002384,8100,WL,B,9.0
4,16.5939998626709,learn,43406.0001373291,Thu Mar 19 2026 11:16:23 GMT-0500 (Central Daylight Time),460924.1999999285,A,fi,I,i,101,1,349.59999990463257,460574.60000002384,8100,WL,B,9.0
4,17.14400005340576,learn,42855.99994659424,Thu Mar 19 2026 11:16:23 GMT-0500 (Central Daylight Time),461473.6999999285,A,fir,I,r,529,1,899.0999999046326,460574.60000002384,8100,WL,B,9.0
4,17.26099991798401,learn,42739.00008201599,Thu Mar 19 2026 11:16:23 GMT-0500 (Central Daylight Time),461590.5,A,fire,I,e,107,1,1015.8999999761581,460574.60000002384,8100,WL,B,9.0
4,17.759999990463257,learn,42240.00000953674,Thu Mar 19 2026 11:16:23 GMT-0500 (Central Daylight Time),462090.10000002384,A,fireenter,I,enter,494,1,1515.5,460574.60000002384,8100,WL,B,9.0
4,18.0939998626709,learn,41906.0001373291,Thu Mar 19 2026 11:16:23 GMT-0500 (Central Daylight Time),462423.60000002384,A,p,I,p,323,1,333.2000000476837,462090.39999997616,8100,WL,B,10.0
4,18.32699990272522,learn,41673.00009727478,Thu Mar 19 2026 11:16:23 GMT-0500 (Central Daylight Time),462657.0,A,pi,I,i,213,1,566.6000000238419,462090.39999997616,8100,WL,B,10.0
4,18.509999990463257,learn,41490.00000953674,Thu Mar 19 2026 11:16:23 GMT-0500 (Central Daylight Time),462839.89999997616,A,pip,I,p,162,1,749.5,462090.39999997616,8100,WL,B,10.0
4,18.744999885559082,learn,41255.00011444092,Thu Mar 19 2026 11:16:23 GMT-0500 (Central Daylight Time),463074.60000002384,A,pipe,I,e,229,1,984.2000000476837,462090.39999997616,8100,WL,B,10.0
4,19.05999994277954,learn,40940.00005722046,Thu Mar 19 2026 11:16:23 GMT-0500 (Central Daylight Time),463390.0,A,pipeenter,I,enter,298,1,1299.6000000238419,462090.39999997616,8100,WL,B,10.0
4,19.442999839782715,learn,40557.000160217285,Thu Mar 19 2026 11:16:23 GMT-0500 (Central Daylight Time),463773.39999997616,A,p,I,p,367,1,383.0,463390.39999997616,8100,WL,B,11.0
4,19.90999984741211,learn,40090.00015258789,Thu Mar 19 2026 11:16:23 GMT-0500 (Central Daylight Time),464240.0,A,pu,I,u,446,1,849.6000000238419,463390.39999997616,8100,WL,B,11.0
4,20.109999895095825,learn,39890.000104904175,Thu Mar 19 2026 11:16:23 GMT-0500 (Central Daylight Time),464439.60000002384,A,pup,I,p,188,1,1049.2000000476837,463390.39999997616,8100,WL,B,11.0
4,20.408999919891357,learn,39591.00008010864,Thu Mar 19 2026 11:16:23 GMT-0500 (Central Daylight Time),464739.5,A,pupi,I,i,285,1,1349.1000000238419,463390.39999997616,8100,WL,B,11.0
4,20.64299988746643,learn,39357.00011253357,Thu Mar 19 2026 11:16:23 GMT-0500 (Central Daylight Time),464972.7999999523,A,pupil,I,l,217,1,1582.3999999761581,463390.39999997616,8100,WL,B,11.0
4,22.14199995994568,learn,37858.00004005432,Thu Mar 19 2026 11:16:23 GMT-0500 (Central Daylight Time),466472.39999997616,A,pupilenter,I,enter,1480,1,3082.0,463390.39999997616,8100,WL,B,11.0
4,22.358999967575073,learn,37641.00003242493,Thu Mar 19 2026 11:16:23 GMT-0500 (Central Daylight Time),466688.89999997616,A,s,I,s,204,1,216.20000004768372,466472.6999999285,8100,WL,B,12.0
4,22.608999967575073,learn,37391.00003242493,Thu Mar 19 2026 11:16:23 GMT-0500 (Central Daylight Time),466938.7999999523,A,st,I,t,244,1,466.10000002384186,466472.6999999285,8100,WL,B,12.0
4,22.875,learn,37125.0,Thu Mar 19 2026 11:16:23 GMT-0500 (Central Daylight Time),467205.1999999285,A,sta,I,a,250,1,732.5,466472.6999999285,8100,WL,B,12.0
4,23.108999967575073,learn,36891.00003242493,Thu Mar 19 2026 11:16:23 GMT-0500 (Central Daylight Time),467438.60000002384,A,star,I,r,214,1,965.9000000953674,466472.6999999285,8100,WL,B,12.0
4,24.991999864578247,learn,35008.00013542175,Thu Mar 19 2026 11:16:23 GMT-0500 (Central Daylight Time),469321.5,A,starenter,I,enter,1870,1,2848.8000000715256,466472.6999999285,8100,WL,B,12.0
4,29.506999969482422,learn,30493.000030517578,Thu Mar 19 2026 11:16:23 GMT-0500 (Central Daylight Time),473836.5,A,c,I,c,4506,1,4514.700000047684,469321.7999999523,8100,WL,B,13.0
4,29.721999883651733,learn,30278.000116348267,Thu Mar 19 2026 11:16:23 GMT-0500 (Central Daylight Time),474051.60000002384,A,ci,I,i,63,1,4729.800000071526,469321.7999999523,8100,WL,B,13.0
4,29.86899995803833,learn,30131.00004196167,Thu Mar 19 2026 11:16:23 GMT-0500 (Central Daylight Time),474199.10000002384,A,cit,I,t,143,1,4877.300000071526,469321.7999999523,8100,WL,B,13.0
4,29.9229998588562,learn,30077.0001411438,Thu Mar 19 2026 11:16:23 GMT-0500 (Central Daylight Time),474252.7999999523,A,city,I,y,37,1,4931.0,469321.7999999523,8100,WL,B,13.0
4,30.872999906539917,learn,29127.000093460083,Thu Mar 19 2026 11:16:23 GMT-0500 (Central Daylight Time),475203.1999999285,A,cityenter,I,enter,936,1,5881.399999976158,469321.7999999523,8100,WL,B,13.0
4,39.61999988555908,learn,20380.000114440918,Thu Mar 19 2026 11:16:23 GMT-0500 (Central Daylight Time),483950.1999999285,A,w,I,w,8729,1,8746.699999928474,475203.5,8100,WL,B,14.0
4,39.669999837875366,learn,20330.000162124634,Thu Mar 19 2026 11:16:23 GMT-0500 (Central Daylight Time),484000.0,A,wi,I,i,37,1,8796.5,475203.5,8100,WL,B,14.0
4,39.88699984550476,learn,20113.00015449524,Thu Mar 19 2026 11:16:23 GMT-0500 (Central Daylight Time),484217.0,A,win,I,n,213,1,9013.5,475203.5,8100,WL,B,14.0
4,39.98799991607666,learn,20012.00008392334,Thu Mar 19 2026 11:16:23 GMT-0500 (Central Daylight Time),484318.1999999285,A,wind,I,d,92,1,9114.699999928474,475203.5,8100,WL,B,14.0
4,40.11999988555908,learn,19880.000114440918,Thu Mar 19 2026 11:16:23 GMT-0500 (Central Daylight Time),484449.89999997616,A,windo,I,o,117,1,9246.399999976158,475203.5,8100,WL,B,14.0
4,40.63599991798401,learn,19364.00008201599,Thu Mar 19 2026 11:16:23 GMT-0500 (Central Daylight Time),484966.5,A,window,I,w,507,1,9763.0,475203.5,8100,WL,B,14.0
4,41.53600001335144,learn,18463.99998664856,Thu Mar 19 2026 11:16:23 GMT-0500 (Central Daylight Time),485865.89999997616,A,windowenter,I,enter,894,1,10662.399999976158,475203.5,8100,WL,B,14.0
4,48.799999952316284,learn,11200.000047683716,Thu Mar 19 2026 11:16:23 GMT-0500 (Central Daylight Time),493130.5,A,enter,I,enter,7251,1,7264.300000071526,485866.1999999285,8100,WL,B,15.0
5,0.8829998970031738,learn,60000.0,Thu Mar 19 2026 11:16:23 GMT-0500 (Central Daylight Time),559743.2999999523,A,s,I,s,873,1,883.0,558860.2999999523,8100,WL,B,1.0
5,1.1989998817443848,learn,60000.0,Thu Mar 19 2026 11:16:23 GMT-0500 (Central Daylight Time),560059.7999999523,A,st,I,t,308,1,1199.5,558860.2999999523,8100,WL,B,1.0
5,1.4489998817443848,learn,60000.0,Thu Mar 19 2026 11:16:23 GMT-0500 (Central Daylight Time),560309.6999999285,A,str,I,r,240,1,1449.3999999761581,558860.2999999523,8100,WL,B,1.0
5,1.5989999771118164,learn,60000.0,Thu Mar 19 2026 11:16:23 GMT-0500 (Central Daylight Time),560459.6000000238,A,stre,I,e,135,1,1599.3000000715256,558860.2999999523,8100,WL,B,1.0
5,1.815999984741211,learn,60000.0,Thu Mar 19 2026 11:16:23 GMT-0500 (Central Daylight Time),560676.1999999285,A,stree,I,e,201,1,1815.8999999761581,558860.2999999523,8100,WL,B,1.0
5,2.0989999771118164,learn,60000.0,Thu Mar 19 2026 11:16:23 GMT-0500 (Central Daylight Time),560959.2999999523,A,street,I,t,272,1,2099.0,558860.2999999523,8100,WL,B,1.0
5,2.7319998741149902,learn,60000.0,Thu Mar 19 2026 11:16:23 GMT-0500 (Central Daylight Time),561592.7999999523,A,streetenter,I,enter,613,1,2732.5,558860.2999999523,8100,WL,B,1.0
5,2.999000072479248,learn,60000.0,Thu Mar 19 2026 11:16:23 GMT-0500 (Central Daylight Time),561859.5,A,g,I,g,252,1,266.3000000715256,561593.1999999285,8100,WL,B,2.0
5,3.249000072479248,learn,60000.0,Thu Mar 19 2026 11:16:23 GMT-0500 (Central Daylight Time),562109.1000000238,A,gr,I,r,232,1,515.9000000953674,561593.1999999285,8100,WL,B,2.0
5,3.4649999141693115,learn,60000.0,Thu Mar 19 2026 11:16:23 GMT-0500 (Central Daylight Time),562325.6999999285,A,gra,I,a,199,1,732.5,561593.1999999285,8100,WL,B,2.0
5,3.631999969482422,learn,60000.0,Thu Mar 19 2026 11:16:23 GMT-0500 (Central Daylight Time),562492.3999999762,A,gras,I,s,159,1,899.2000000476837,561593.1999999285,8100,WL,B,2.0
5,3.8320000171661377,learn,60000.0,Thu Mar 19 2026 11:16:23 GMT-0500 (Central Daylight Time),562692.1000000238,A,grass,I,s,192,1,1098.9000000953674,561593.1999999285,8100,WL,B,2.0
5,4.7149999141693115,learn,60000.0,Thu Mar 19 2026 11:16:23 GMT-0500 (Central Daylight Time),563575.5,A,grassenter,I,enter,872,1,1982.3000000715256,561593.1999999285,8100,WL,B,2.0
5,5.148000001907349,learn,60000.0,Thu Mar 19 2026 11:16:23 GMT-0500 (Central Daylight Time),564008.6000000238,A,w,I,w,413,1,432.7000000476837,563575.8999999762,8100,WL,B,3.0
5,5.2149999141693115,learn,60000.0,Thu Mar 19 2026 11:16:23 GMT-0500 (Central Daylight Time),564075.1000000238,A,wi,I,i,60,1,499.2000000476837,563575.8999999762,8100,WL,B,3.0
5,5.447999954223633,learn,60000.0,Thu Mar 19 2026 11:16:23 GMT-0500 (Central Daylight Time),564308.2999999523,A,win,I,n,224,1,732.3999999761581,563575.8999999762,8100,WL,B,3.0
5,5.565000057220459,learn,60000.0,Thu Mar 19 2026 11:16:23 GMT-0500 (Central Daylight Time),564425.1999999285,A,wind,I,d,96,1,849.2999999523163,563575.8999999762,8100,WL,B,3.0
5,5.680999994277954,learn,60000.0,Thu Mar 19 2026 11:16:23 GMT-0500 (Central Daylight Time),564541.6000000238,A,windo,I,o,107,1,965.7000000476837,563575.8999999762,8100,WL,B,3.0
5,5.831000089645386,learn,60000.0,Thu Mar 19 2026 11:16:23 GMT-0500 (Central Daylight Time),564691.6999999285,A,window,I,w,142,1,1115.7999999523163,563575.8999999762,8100,WL,B,3.0
5,6.063999891281128,learn,60000.0,Thu Mar 19 2026 11:16:23 GMT-0500 (Central Daylight Time),564924.7999999523,A,windows,I,s,216,1,1348.8999999761581,563575.8999999762,8100,WL,B,3.0
5,6.331000089645386,learn,60000.0,Thu Mar 19 2026 11:16:23 GMT-0500 (Central Daylight Time),565191.5,A,windowsenter,I,enter,255,1,1615.6000000238419,563575.8999999762,8100,WL,B,3.0
5,8.030999898910522,learn,60000.0,Thu Mar 19 2026 11:16:23 GMT-0500 (Central Daylight Time),566891.0,A,s,I,s,1693,1,1699.1000000238419,565191.8999999762,8100,WL,B,4.0
5,8.264999866485596,learn,60000.0,Thu Mar 19 2026 11:16:23 GMT-0500 (Central Daylight Time),567125.2999999523,A,st,I,t,217,1,1933.3999999761581,565191.8999999762,8100,WL,B,4.0
5,8.480000019073486,learn,60000.0,Thu Mar 19 2026 11:16:23 GMT-0500 (Central Daylight Time),567340.7999999523,A,sta,I,a,207,1,2148.899999976158,565191.8999999762,8100,WL,B,4.0
5,8.596999883651733,learn,60000.0,Thu Mar 19 2026 11:16:23 GMT-0500 (Central Daylight Time),567457.3999999762,A,star,I,r,104,1,2265.5,565191.8999999762,8100,WL,B,4.0
5,8.879999876022339,learn,60000.0,Thu Mar 19 2026 11:16:23 GMT-0500 (Central Daylight Time),567740.8999999762,A,stars,I,s,267,1,2549.0,565191.8999999762,8100,WL,B,4.0
5,9.845999956130981,learn,60000.0,Thu Mar 19 2026 11:16:23 GMT-0500 (Central Daylight Time),568707.0,A,starsenter,I,enter,952,1,3515.100000023842,565191.8999999762,8100,WL,B,4.0
5,10.230000019073486,learn,60000.0,Thu Mar 19 2026 11:16:23 GMT-0500 (Central Daylight Time),569090.1999999285,A,c,I,c,370,1,382.89999997615814,568707.2999999523,8100,WL,B,5.0
5,10.52999997138977,learn,60000.0,Thu Mar 19 2026 11:16:23 GMT-0500 (Central Daylight Time),569390.0,A,ci,I,i,290,1,682.7000000476837,568707.2999999523,8100,WL,B,5.0
5,10.979000091552734,learn,60000.0,Thu Mar 19 2026 11:16:23 GMT-0500 (Central Daylight Time),569840.0,A,cit,I,t,439,1,1132.7000000476837,568707.2999999523,8100,WL,B,5.0
5,11.213000059127808,learn,60000.0,Thu Mar 19 2026 11:16:23 GMT-0500 (Central Daylight Time),570073.2999999523,A,city,I,y,221,1,1366.0,568707.2999999523,8100,WL,B,5.0
5,11.961999893188477,learn,60000.0,Thu Mar 19 2026 11:16:23 GMT-0500 (Central Daylight Time),570822.7999999523,A,cityenter,I,enter,738,1,2115.5,568707.2999999523,8100,WL,B,5.0
5,13.078999996185303,learn,60000.0,Thu Mar 19 2026 11:16:23 GMT-0500 (Central Daylight Time),571939.2999999523,A,p,I,p,1109,1,1116.1000000238419,570823.1999999285,8100,WL,B,6.0
5,13.246000051498413,learn,60000.0,Thu Mar 19 2026 11:16:23 GMT-0500 (Central Daylight Time),572106.1000000238,A,pu,I,u,153,1,1282.9000000953674,570823.1999999285,8100,WL,B,6.0
5,13.461999893188477,learn,60000.0,Thu Mar 19 2026 11:16:23 GMT-0500 (Central Daylight Time),572322.6000000238,A,pup,I,p,201,1,1499.4000000953674,570823.1999999285,8100,WL,B,6.0
5,13.729000091552734,learn,60000.0,Thu Mar 19 2026 11:16:23 GMT-0500 (Central Daylight Time),572589.0,A,pupi,I,i,250,1,1765.8000000715256,570823.1999999285,8100,WL,B,6.0
5,13.979000091552734,learn,60000.0,Thu Mar 19 2026 11:16:23 GMT-0500 (Central Daylight Time),572839.1999999285,A,pupil,I,l,239,1,2016.0,570823.1999999285,8100,WL,B,6.0
5,14.295000076293945,learn,60000.0,Thu Mar 19 2026 11:16:23 GMT-0500 (Central Daylight Time),573155.5,A,pupilenter,I,enter,302,1,2332.3000000715256,570823.1999999285,8100,WL,B,6.0
5,14.562000036239624,learn,60000.0,Thu Mar 19 2026 11:16:23 GMT-0500 (Central Daylight Time),573422.1999999285,A,w,I,w,257,1,266.1999999284744,573156.0,8100,WL,B,7.0
5,14.67799997329712,learn,60000.0,Thu Mar 19 2026 11:16:23 GMT-0500 (Central Daylight Time),573538.6000000238,A,wi,I,i,109,1,382.60000002384186,573156.0,8100,WL,B,7.0
5,14.84500002861023,learn,60000.0,Thu Mar 19 2026 11:16:23 GMT-0500 (Central Daylight Time),573705.5,A,wif,I,f,162,1,549.5,573156.0,8100,WL,B,7.0
5,15.045000076293945,learn,60000.0,Thu Mar 19 2026 11:16:23 GMT-0500 (Central Daylight Time),573905.6000000238,A,wife,I,e,187,1,749.6000000238419,573156.0,8100,WL,B,7.0
5,15.611000061035156,learn,60000.0,Thu Mar 19 2026 11:16:23 GMT-0500 (Central Daylight Time),574471.6999999285,A,wifeenter,I,enter,546,1,1315.6999999284744,573156.0,8100,WL,B,7.0
5,16.861000061035156,learn,60000.0,Thu Mar 19 2026 11:16:23 GMT-0500 (Central Daylight Time),575721.5,A,c,I,c,1230,1,1249.6000000238419,574471.8999999762,8100,WL,B,8.0
5,16.99399995803833,learn,60000.0,Thu Mar 19 2026 11:16:23 GMT-0500 (Central Daylight Time),575854.6999999285,A,cl,I,l,122,1,1382.7999999523163,574471.8999999762,8100,WL,B,8.0
5,17.194000005722046,learn,60000.0,Thu Mar 19 2026 11:16:23 GMT-0500 (Central Daylight Time),576055.0,A,clo,I,o,182,1,1583.1000000238419,574471.8999999762,8100,WL,B,8.0
5,17.32800006866455,learn,60000.0,Thu Mar 19 2026 11:16:23 GMT-0500 (Central Daylight Time),576188.0,A,cloc,I,c,126,1,1716.1000000238419,574471.8999999762,8100,WL,B,8.0
5,17.42799997329712,learn,60000.0,Thu Mar 19 2026 11:16:23 GMT-0500 (Central Daylight Time),576288.1000000238,A,clock,I,k,89,1,1816.2000000476837,574471.8999999762,8100,WL,B,8.0
5,17.76099991798401,learn,60000.0,Thu Mar 19 2026 11:16:23 GMT-0500 (Central Daylight Time),576621.1000000238,A,clockenter,I,enter,316,1,2149.2000000476837,574471.8999999762,8100,WL,B,8.0
5,18.64400005340576,learn,60000.0,Thu Mar 19 2026 11:16:23 GMT-0500 (Central Daylight Time),577504.5,A,c,I,c,863,1,883.1000000238419,576621.3999999762,8100,WL,B,9.0
5,19.060999870300293,learn,60000.0,Thu Mar 19 2026 11:16:23 GMT-0500 (Central Daylight Time),577921.0,A,,I,backspace,396,1,1299.6000000238419,576621.3999999762,8100,WL,B,9.0
5,19.592999935150146,learn,60000.0,Thu Mar 19 2026 11:16:23 GMT-0500 (Central Daylight Time),578453.8999999762,A,l,I,l,524,1,1832.5,576621.3999999762,8100,WL,B,9.0
5,19.743000030517578,learn,60000.0,Thu Mar 19 2026 11:16:23 GMT-0500 (Central Daylight Time),578603.7999999523,A,la,I,a,135,1,1982.3999999761581,576621.3999999762,8100,WL,B,9.0
5,19.859999895095825,learn,60000.0,Thu Mar 19 2026 11:16:23 GMT-0500 (Central Daylight Time),578720.3999999762,A,lak,I,k,105,1,2099.0,576621.3999999762,8100,WL,B,9.0
5,19.99399995803833,learn,60000.0,Thu Mar 19 2026 11:16:23 GMT-0500 (Central Daylight Time),578854.0,A,lake,I,e,124,1,2232.600000023842,576621.3999999762,8100,WL,B,9.0
5,20.243000030517578,learn,60000.0,Thu Mar 19 2026 11:16:23 GMT-0500 (Central Daylight Time),579103.6000000238,A,lakeenter,I,enter,230,1,2482.2000000476837,576621.3999999762,8100,WL,B,9.0
5,20.57800006866455,learn,60000.0,Thu Mar 19 2026 11:16:23 GMT-0500 (Central Daylight Time),579438.1000000238,A,c,I,c,317,1,334.3000000715256,579103.7999999523,8100,WL,B,10.0
5,20.776999950408936,learn,60000.0,Thu Mar 19 2026 11:16:23 GMT-0500 (Central Daylight Time),579637.1000000238,A,ca,I,a,190,1,533.3000000715256,579103.7999999523,8100,WL,B,10.0
5,21.026000022888184,learn,60000.0,Thu Mar 19 2026 11:16:23 GMT-0500 (Central Daylight Time),579886.6000000238,A,cab,I,b,232,1,782.8000000715256,579103.7999999523,8100,WL,B,10.0
5,21.177000045776367,learn,60000.0,Thu Mar 19 2026 11:16:23 GMT-0500 (Central Daylight Time),580037.8999999762,A,cabi,I,i,134,1,934.1000000238419,579103.7999999523,8100,WL,B,10.0
5,21.375999927520752,learn,60000.0,Thu Mar 19 2026 11:16:23 GMT-0500 (Central Daylight Time),580236.8999999762,A,cabin,I,n,183,1,1133.1000000238419,579103.7999999523,8100,WL,B,10.0
5,21.925999879837036,learn,60000.0,Thu Mar 19 2026 11:16:23 GMT-0500 (Central Daylight Time),580786.5,A,cabinenter,I,enter,535,1,1682.7000000476837,579103.7999999523,8100,WL,B,10.0
5,22.991999864578247,learn,60000.0,Thu Mar 19 2026 11:16:23 GMT-0500 (Central Daylight Time),581852.8999999762,A,f,I,f,1050,1,1066.1000000238419,580786.7999999523,8100,WL,B,11.0
5,23.125999927520752,learn,60000.0,Thu Mar 19 2026 11:16:23 GMT-0500 (Central Daylight Time),581986.0,A,fi,I,i,128,1,1199.2000000476837,580786.7999999523,8100,WL,B,11.0
5,23.2260000705719,learn,60000.0,Thu Mar 19 2026 11:16:23 GMT-0500 (Central Daylight Time),582086.0,A,fir,I,r,91,1,1299.2000000476837,580786.7999999523,8100,WL,B,11.0
5,23.325999975204468,learn,60000.0,Thu Mar 19 2026 11:16:23 GMT-0500 (Central Daylight Time),582186.0,A,fire,I,e,79,1,1399.2000000476837,580786.7999999523,8100,WL,B,11.0
5,24.04200005531311,learn,60000.0,Thu Mar 19 2026 11:16:23 GMT-0500 (Central Daylight Time),582902.7999999523,A,fireenter,I,enter,699,1,2116.0,580786.7999999523,8100,WL,B,11.0
5,25.274999856948853,learn,60000.0,Thu Mar 19 2026 11:16:23 GMT-0500 (Central Daylight Time),584135.6999999285,A,a,I,a,1221,1,1232.5,582903.1999999285,8100,WL,B,12.0
5,25.657999992370605,learn,60000.0,Thu Mar 19 2026 11:16:23 GMT-0500 (Central Daylight Time),584519.0,A,ar,I,r,364,1,1615.8000000715256,582903.1999999285,8100,WL,B,12.0
5,25.79099988937378,learn,60000.0,Thu Mar 19 2026 11:16:23 GMT-0500 (Central Daylight Time),584651.7999999523,A,arm,I,m,118,1,1748.6000000238419,582903.1999999285,8100,WL,B,12.0
5,26.592000007629395,learn,60000.0,Thu Mar 19 2026 11:16:23 GMT-0500 (Central Daylight Time),585452.0,A,armenter,I,enter,784,1,2548.8000000715256,582903.1999999285,8100,WL,B,12.0
5,27.35800004005432,learn,60000.0,Thu Mar 19 2026 11:16:23 GMT-0500 (Central Daylight Time),586218.0,A,s,I,s,761,1,765.7000000476837,585452.2999999523,8100,WL,B,13.0
5,27.490999937057495,learn,60000.0,Thu Mar 19 2026 11:16:23 GMT-0500 (Central Daylight Time),586351.6999999285,A,sk,I,k,115,1,899.3999999761581,585452.2999999523,8100,WL,B,13.0
5,27.674000024795532,learn,60000.0,Thu Mar 19 2026 11:16:23 GMT-0500 (Central Daylight Time),586534.7999999523,A,ski,I,i,165,1,1082.5,585452.2999999523,8100,WL,B,13.0
5,27.95799994468689,learn,60000.0,Thu Mar 19 2026 11:16:23 GMT-0500 (Central Daylight Time),586818.1000000238,A,skin,I,n,269,1,1365.8000000715256,585452.2999999523,8100,WL,B,13.0
5,28.79099988937378,learn,60000.0,Thu Mar 19 2026 11:16:23 GMT-0500 (Central Daylight Time),587651.0,A,skinenter,I,enter,818,1,2198.7000000476837,585452.2999999523,8100,WL,B,13.0
5,29.341000080108643,learn,60000.0,Thu Mar 19 2026 11:16:23 GMT-0500 (Central Daylight Time),588201.1000000238,A,w,I,w,546,1,549.8000000715256,587651.2999999523,8100,WL,B,14.0
5,29.457000017166138,learn,60000.0,Thu Mar 19 2026 11:16:23 GMT-0500 (Central Daylight Time),588317.3999999762,A,wi,I,i,100,1,666.1000000238419,587651.2999999523,8100,WL,B,14.0
5,29.556999921798706,learn,60000.0,Thu Mar 19 2026 11:16:23 GMT-0500 (Central Daylight Time),588417.6999999285,A,wif,I,f,87,1,766.3999999761581,587651.2999999523,8100,WL,B,14.0
5,29.740999937057495,learn,60000.0,Thu Mar 19 2026 11:16:23 GMT-0500 (Central Daylight Time),588600.8999999762,A,wife,I,e,163,1,949.6000000238419,587651.2999999523,8100,WL,B,14.0
5,31.157000064849854,learn,60000.0,Thu Mar 19 2026 11:16:23 GMT-0500 (Central Daylight Time),590017.1000000238,A,wifeenter,I,enter,1396,1,2365.8000000715256,587651.2999999523,8100,WL,B,14.0
5,40.8199999332428,learn,60000.0,Thu Mar 19 2026 11:16:23 GMT-0500 (Central Daylight Time),599680.7999999523,A,p,I,p,9642,1,9663.399999976158,590017.3999999762,8100,WL,B,15.0
5,41.019999980926514,learn,60000.0,Thu Mar 19 2026 11:16:23 GMT-0500 (Central Daylight Time),599880.7999999523,A,pi,I,i,188,1,9863.399999976158,590017.3999999762,8100,WL,B,15.0
5,41.23699998855591,learn,60000.0,Thu Mar 19 2026 11:16:23 GMT-0500 (Central Daylight Time),600098.1000000238,A,pip,I,p,196,1,10080.700000047684,590017.3999999762,8100,WL,B,15.0
5,41.95300006866455,learn,60000.0,Thu Mar 19 2026 11:16:23 GMT-0500 (Central Daylight Time),600813.6999999285,A,pipe,I,e,705,1,10796.299999952316,590017.3999999762,8100,WL,B,15.0
5,42.88599991798401,learn,60000.0,Thu Mar 19 2026 11:16:23 GMT-0500 (Central Daylight Time),601746.7999999523,A,pipeenter,I,enter,927,1,11729.399999976158,590017.3999999762,8100,WL,B,15.0
6,1.2999999523162842,distr,58700.000047683716,Thu Mar 19 2026 11:16:23 GMT-0500 (Central Daylight Time),670841.6000000238,B,b,I,b,1295,1,1299.3000000715256,669542.2999999523,8100,WL,B,1.0
6,1.566999912261963,distr,58433.00008773804,Thu Mar 19 2026 11:16:23 GMT-0500 (Central Daylight Time),671108.5,B,ba,I,a,250,1,1566.2000000476837,669542.2999999523,8100,WL,B,1.0
6,1.9000000953674316,distr,58099.99990463257,Thu Mar 19 2026 11:16:23 GMT-0500 (Central Daylight Time),671441.3999999762,B,bab,I,b,328,1,1899.1000000238419,669542.2999999523,8100,WL,B,1.0
6,2.2669999599456787,distr,57733.00004005432,Thu Mar 19 2026 11:16:23 GMT-0500 (Central Daylight Time),671808.3999999762,B,baby,I,y,346,1,2266.100000023842,669542.2999999523,8100,WL,B,1.0
6,2.9000000953674316,distr,57099.99990463257,Thu Mar 19 2026 11:16:23 GMT-0500 (Central Daylight Time),672441.6000000238,B,babyenter,I,enter,628,1,2899.3000000715256,669542.2999999523,8100,WL,B,1.0
6,3.1989998817443848,distr,56801.000118255615,Thu Mar 19 2026 11:16:23 GMT-0500 (Central Daylight Time),672741.3999999762,B,a,I,a,291,1,299.60000002384186,672441.7999999523,8100,WL,B,2.0
6,3.3489999771118164,distr,56651.00002288818,Thu Mar 19 2026 11:16:23 GMT-0500 (Central Daylight Time),672891.1999999285,B,ar,I,r,143,1,449.39999997615814,672441.7999999523,8100,WL,B,2.0
6,3.6489999294281006,distr,56351.0000705719,Thu Mar 19 2026 11:16:23 GMT-0500 (Central Daylight Time),673190.8999999762,B,arm,I,m,289,1,749.1000000238419,672441.7999999523,8100,WL,B,2.0
6,3.9149999618530273,distr,56085.00003814697,Thu Mar 19 2026 11:16:23 GMT-0500 (Central Daylight Time),673457.1999999285,B,army,I,y,261,1,1015.3999999761581,672441.7999999523,8100,WL,B,2.0
6,4.264999866485596,distr,55735.000133514404,Thu Mar 19 2026 11:16:23 GMT-0500 (Central Daylight Time),673807.1000000238,B,armyenter,I,enter,330,1,1365.3000000715256,672441.7999999523,8100,WL,B,2.0
6,4.516000032424927,distr,55483.99996757507,Thu Mar 19 2026 11:16:23 GMT-0500 (Central Daylight Time),674057.5,B,o,I,o,229,1,250.20000004768372,673807.2999999523,8100,WL,B,3.0
6,4.681999921798706,distr,55318.000078201294,Thu Mar 19 2026 11:16:23 GMT-0500 (Central Daylight Time),674224.1999999285,B,oc,I,c,147,1,416.89999997615814,673807.2999999523,8100,WL,B,3.0
6,4.915999889373779,distr,55084.00011062622,Thu Mar 19 2026 11:16:23 GMT-0500 (Central Daylight Time),674457.3999999762,B,oce,I,e,212,1,650.1000000238419,673807.2999999523,8100,WL,B,3.0
6,5.131999969482422,distr,54868.00003051758,Thu Mar 19 2026 11:16:23 GMT-0500 (Central Daylight Time),674673.8999999762,B,ocea,I,a,211,1,866.6000000238419,673807.2999999523,8100,WL,B,3.0
6,5.2820000648498535,distr,54717.99993515015,Thu Mar 19 2026 11:16:23 GMT-0500 (Central Daylight Time),674824.1000000238,B,ocean,I,n,139,1,1016.8000000715256,673807.2999999523,8100,WL,B,3.0
6,5.881999969482422,distr,54118.00003051758,Thu Mar 19 2026 11:16:23 GMT-0500 (Central Daylight Time),675423.6999999285,B,oceanenter,I,enter,581,1,1616.3999999761581,673807.2999999523,8100,WL,B,3.0
6,6.3480000495910645,distr,53651.999950408936,Thu Mar 19 2026 11:16:23 GMT-0500 (Central Daylight Time),675889.7999999523,B,l,I,l,452,1,465.6999999284744,675424.1000000238,8100,WL,B,4.0
6,6.565000057220459,distr,53434.99994277954,Thu Mar 19 2026 11:16:23 GMT-0500 (Central Daylight Time),676107.0,B,li,I,i,203,1,682.8999999761581,675424.1000000238,8100,WL,B,4.0
6,6.747999906539917,distr,53252.00009346008,Thu Mar 19 2026 11:16:23 GMT-0500 (Central Daylight Time),676289.7999999523,B,lip,I,p,177,1,865.6999999284744,675424.1000000238,8100,WL,B,4.0
6,7.25,distr,52750.0,Thu Mar 19 2026 11:16:23 GMT-0500 (Central Daylight Time),676791.3999999762,B,lipenter,I,enter,483,1,1367.2999999523163,675424.1000000238,8100,WL,B,4.0
6,7.447999954223633,distr,52552.00004577637,Thu Mar 19 2026 11:16:23 GMT-0500 (Central Daylight Time),676990.0,B,c,I,c,189,1,198.30000007152557,676791.6999999285,8100,WL,B,5.0
6,7.7149999141693115,distr,52285.00008583069,Thu Mar 19 2026 11:16:23 GMT-0500 (Central Daylight Time),677256.3999999762,B,ce,I,e,245,1,464.7000000476837,676791.6999999285,8100,WL,B,5.0
6,7.865999937057495,distr,52134.000062942505,Thu Mar 19 2026 11:16:23 GMT-0500 (Central Daylight Time),677407.5,B,cel,I,l,132,1,615.8000000715256,676791.6999999285,8100,WL,B,5.0
6,8.014999866485596,distr,51985.000133514404,Thu Mar 19 2026 11:16:23 GMT-0500 (Central Daylight Time),677556.3999999762,B,cell,I,l,133,1,764.7000000476837,676791.6999999285,8100,WL,B,5.0
6,8.697999954223633,distr,51302.00004577637,Thu Mar 19 2026 11:16:23 GMT-0500 (Central Daylight Time),678239.6999999285,B,cellenter,I,enter,672,1,1448.0,676791.6999999285,8100,WL,B,5.0
6,11.379999876022339,distr,48620.00012397766,Thu Mar 19 2026 11:16:23 GMT-0500 (Central Daylight Time),680922.1000000238,B,d,I,d,2669,1,2682.100000023842,678240.0,8100,WL,B,6.0
6,11.579999923706055,distr,48420.000076293945,Thu Mar 19 2026 11:16:23 GMT-0500 (Central Daylight Time),681121.6000000238,B,dr,I,r,194,1,2881.600000023842,678240.0,8100,WL,B,6.0
6,11.680000066757202,distr,48319.9999332428,Thu Mar 19 2026 11:16:23 GMT-0500 (Central Daylight Time),681221.7999999523,B,dre,I,e,91,1,2981.7999999523163,678240.0,8100,WL,B,6.0
6,11.94700002670288,distr,48052.99997329712,Thu Mar 19 2026 11:16:23 GMT-0500 (Central Daylight Time),681488.6999999285,B,dres,I,s,246,1,3248.6999999284744,678240.0,8100,WL,B,6.0
6,12.162999868392944,distr,47837.000131607056,Thu Mar 19 2026 11:16:23 GMT-0500 (Central Daylight Time),681705.0,B,dress,I,s,212,1,3465.0,678240.0,8100,WL,B,6.0
6,13.578999996185303,distr,46421.0000038147,Thu Mar 19 2026 11:16:23 GMT-0500 (Central Daylight Time),683121.2999999523,B,dressenter,I,enter,1396,1,4881.299999952316,678240.0,8100,WL,B,6.0
6,18.444999933242798,distr,41555.0000667572,Thu Mar 19 2026 11:16:23 GMT-0500 (Central Daylight Time),687987.2999999523,B,c,I,c,4860,1,4865.699999928474,683121.6000000238,8100,WL,B,7.0
6,18.67799997329712,distr,41322.00002670288,Thu Mar 19 2026 11:16:23 GMT-0500 (Central Daylight Time),688219.6000000238,B,ce,I,e,225,1,5098.0,683121.6000000238,8100,WL,B,7.0
6,18.810999870300293,distr,41189.00012969971,Thu Mar 19 2026 11:16:23 GMT-0500 (Central Daylight Time),688353.0,B,cel,I,l,121,1,5231.399999976158,683121.6000000238,8100,WL,B,7.0
6,18.977999925613403,distr,41022.0000743866,Thu Mar 19 2026 11:16:23 GMT-0500 (Central Daylight Time),688519.6000000238,B,cell,I,l,147,1,5398.0,683121.6000000238,8100,WL,B,7.0
6,19.3439998626709,distr,40656.0001373291,Thu Mar 19 2026 11:16:23 GMT-0500 (Central Daylight Time),688886.2999999523,B,cellenter,I,enter,357,1,5764.699999928474,683121.6000000238,8100,WL,B,7.0
6,24.259999990463257,distr,35740.00000953674,Thu Mar 19 2026 11:16:23 GMT-0500 (Central Daylight Time),693801.3999999762,B,v,I,v,4902,1,4914.700000047684,688886.6999999285,8100,WL,B,8.0
6,24.292999982833862,distr,35707.00001716614,Thu Mar 19 2026 11:16:23 GMT-0500 (Central Daylight Time),693834.3999999762,B,vi,I,i,26,1,4947.700000047684,688886.6999999285,8100,WL,B,8.0
6,24.526000022888184,distr,35473.99997711182,Thu Mar 19 2026 11:16:23 GMT-0500 (Central Daylight Time),694068.0,B,vil,I,l,226,1,5181.300000071526,688886.6999999285,8100,WL,B,8.0
6,24.675999879837036,distr,35324.000120162964,Thu Mar 19 2026 11:16:23 GMT-0500 (Central Daylight Time),694217.6000000238,B,vill,I,l,144,1,5330.900000095367,688886.6999999285,8100,WL,B,8.0
6,24.776000022888184,distr,35223.99997711182,Thu Mar 19 2026 11:16:23 GMT-0500 (Central Daylight Time),694318.0,B,villa,I,a,83,1,5431.300000071526,688886.6999999285,8100,WL,B,8.0
6,25.026000022888184,distr,34973.99997711182,Thu Mar 19 2026 11:16:23 GMT-0500 (Central Daylight Time),694567.7999999523,B,villag,I,g,238,1,5681.100000023842,688886.6999999285,8100,WL,B,8.0
6,25.2260000705719,distr,34773.9999294281,Thu Mar 19 2026 11:16:23 GMT-0500 (Central Daylight Time),694767.6000000238,B,village,I,e,188,1,5880.900000095367,688886.6999999285,8100,WL,B,8.0
6,26.97499990463257,distr,33025.00009536743,Thu Mar 19 2026 11:16:23 GMT-0500 (Central Daylight Time),696516.8999999762,B,villageenter,I,enter,1732,1,7630.200000047684,688886.6999999285,8100,WL,B,8.0
6,27.375,distr,32625.0,Thu Mar 19 2026 11:16:23 GMT-0500 (Central Daylight Time),696917.0,B,l,I,l,383,1,399.7000000476837,696517.2999999523,8100,WL,B,9.0
6,27.625,distr,32375.0,Thu Mar 19 2026 11:16:23 GMT-0500 (Central Daylight Time),697166.8999999762,B,li,I,i,240,1,649.6000000238419,696517.2999999523,8100,WL,B,9.0
6,27.841000080108643,distr,32158.999919891357,Thu Mar 19 2026 11:16:23 GMT-0500 (Central Daylight Time),697383.2999999523,B,lip,I,p,205,1,866.0,696517.2999999523,8100,WL,B,9.0
6,28.325000047683716,distr,31674.999952316284,Thu Mar 19 2026 11:16:23 GMT-0500 (Central Daylight Time),697866.2999999523,B,lipenter,I,enter,477,1,1349.0,696517.2999999523,8100,WL,B,9.0
6,31.990000009536743,distr,28009.999990463257,Thu Mar 19 2026 11:16:23 GMT-0500 (Central Daylight Time),701532.1999999285,B,c,I,c,3658,1,3665.5999999046326,697866.6000000238,8100,WL,B,10.0
6,32.073999881744385,distr,27926.000118255615,Thu Mar 19 2026 11:16:23 GMT-0500 (Central Daylight Time),701615.6000000238,B,co,I,o,71,1,3749.0,697866.6000000238,8100,WL,B,10.0
6,32.139999866485596,distr,27860.000133514404,Thu Mar 19 2026 11:16:23 GMT-0500 (Central Daylight Time),701682.1999999285,B,coi,I,i,61,1,3815.5999999046326,697866.6000000238,8100,WL,B,10.0
6,32.58999991416931,distr,27410.00008583069,Thu Mar 19 2026 11:16:23 GMT-0500 (Central Daylight Time),702132.1999999285,B,coin,I,n,434,1,4265.599999904633,697866.6000000238,8100,WL,B,10.0
6,33.08999991416931,distr,26910.00008583069,Thu Mar 19 2026 11:16:23 GMT-0500 (Central Daylight Time),702631.6999999285,B,coinenter,I,enter,480,1,4765.099999904633,697866.6000000238,8100,WL,B,10.0
6,45.63599991798401,distr,14364.000082015991,Thu Mar 19 2026 11:16:23 GMT-0500 (Central Daylight Time),715177.8999999762,B,enter,I,enter,12533,1,12545.899999976158,702632.0,8100,WL,B,11.0
6,45.88599991798401,distr,14114.000082015991,Thu Mar 19 2026 11:16:23 GMT-0500 (Central Daylight Time),715427.7999999523,B,enter,I,enter,242,1,249.39999997615814,715178.3999999762,8100,WL,B,12.0
6,46.26900005340576,distr,13730.999946594238,Thu Mar 19 2026 11:16:23 GMT-0500 (Central Daylight Time),715811.1999999285,B,enter,I,enter,376,1,382.89999997615814,715428.2999999523,8100,WL,B,13.0
6,46.63499999046326,distr,13365.000009536743,Thu Mar 19 2026 11:16:23 GMT-0500 (Central Daylight Time),716177.5,B,enter,I,enter,353,1,366.0,715811.5,8100,WL,B,14.0
6,47.069000005722046,distr,12930.999994277954,Thu Mar 19 2026 11:16:23 GMT-0500 (Central Daylight Time),716610.8999999762,B,enter,I,enter,427,1,433.0,716177.8999999762,8100,WL,B,15.0
7,1.1499998569488525,immed,58850.00014305115,Thu Mar 19 2026 11:16:23 GMT-0500 (Central Daylight Time),729306.6999999285,A,g,I,g,1136,1,1149.3999999761581,728157.2999999523,8100,WL,B,1.0
7,1.3829998970031738,immed,58617.000102996826,Thu Mar 19 2026 11:16:23 GMT-0500 (Central Daylight Time),729540.1000000238,A,gr,I,r,217,1,1382.8000000715256,728157.2999999523,8100,WL,B,1.0
7,1.5,immed,58500.0,Thu Mar 19 2026 11:16:23 GMT-0500 (Central Daylight Time),729656.8999999762,A,gre,I,e,105,1,1499.6000000238419,728157.2999999523,8100,WL,B,1.0
7,1.7170000076293945,immed,58282.999992370605,Thu Mar 19 2026 11:16:23 GMT-0500 (Central Daylight Time),729873.6000000238,A,gree,I,e,203,1,1716.3000000715256,728157.2999999523,8100,WL,B,1.0
7,2.3999998569488525,immed,57600.00014305115,Thu Mar 19 2026 11:16:23 GMT-0500 (Central Daylight Time),730556.6000000238,A,gre,I,backspace,675,1,2399.3000000715256,728157.2999999523,8100,WL,B,1.0
7,2.8329999446868896,immed,57167.00005531311,Thu Mar 19 2026 11:16:23 GMT-0500 (Central Daylight Time),730989.5,A,gr,I,backspace,423,1,2832.2000000476837,728157.2999999523,8100,WL,B,1.0
7,3.065999984741211,immed,56934.00001525879,Thu Mar 19 2026 11:16:23 GMT-0500 (Central Daylight Time),731222.7999999523,A,g,I,backspace,214,1,3065.5,728157.2999999523,8100,WL,B,1.0
7,3.2160000801086426,immed,56783.99991989136,Thu Mar 19 2026 11:16:23 GMT-0500 (Central Daylight Time),731373.1000000238,A,,I,backspace,141,1,3215.8000000715256,728157.2999999523,8100,WL,B,1.0
7,3.499000072479248,immed,56500.99992752075,Thu Mar 19 2026 11:16:23 GMT-0500 (Central Daylight Time),731656.1000000238,A,g,I,g,263,1,3498.8000000715256,728157.2999999523,8100,WL,B,1.0
7,3.7160000801086426,immed,56283.99991989136,Thu Mar 19 2026 11:16:23 GMT-0500 (Central Daylight Time),731872.7999999523,A,gr,I,r,204,1,3715.5,728157.2999999523,8100,WL,B,1.0
7,3.9159998893737793,immed,56084.00011062622,Thu Mar 19 2026 11:16:23 GMT-0500 (Central Daylight Time),732072.6999999285,A,gra,I,a,188,1,3915.399999976158,728157.2999999523,8100,WL,B,1.0
7,4.065999984741211,immed,55934.00001525879,Thu Mar 19 2026 11:16:23 GMT-0500 (Central Daylight Time),732222.6000000238,A,gras,I,s,140,1,4065.3000000715256,728157.2999999523,8100,WL,B,1.0
7,4.2820000648498535,immed,55717.99993515015,Thu Mar 19 2026 11:16:23 GMT-0500 (Central Daylight Time),732439.2999999523,A,grass,I,s,197,1,4282.0,728157.2999999523,8100,WL,B,1.0
7,4.931999921798706,immed,55068.000078201294,Thu Mar 19 2026 11:16:23 GMT-0500 (Central Daylight Time),733089.2999999523,A,grassenter,I,enter,629,1,4932.0,728157.2999999523,8100,WL,B,1.0
7,5.295000076293945,immed,54704.999923706055,Thu Mar 19 2026 11:16:23 GMT-0500 (Central Daylight Time),733451.6999999285,A,s,I,s,342,1,362.0,733089.6999999285,8100,WL,B,2.0
7,5.4649999141693115,immed,54535.00008583069,Thu Mar 19 2026 11:16:23 GMT-0500 (Central Daylight Time),733622.1999999285,A,st,I,t,158,1,532.5,733089.6999999285,8100,WL,B,2.0
7,5.697999954223633,immed,54302.00004577637,Thu Mar 19 2026 11:16:23 GMT-0500 (Central Daylight Time),733855.5,A,str,I,r,222,1,765.8000000715256,733089.6999999285,8100,WL,B,2.0
7,5.815000057220459,immed,54184.99994277954,Thu Mar 19 2026 11:16:23 GMT-0500 (Central Daylight Time),733972.1000000238,A,stre,I,e,101,1,882.4000000953674,733089.6999999285,8100,WL,B,2.0
7,5.997999906539917,immed,54002.00009346008,Thu Mar 19 2026 11:16:23 GMT-0500 (Central Daylight Time),734155.3999999762,A,stree,I,e,176,1,1065.7000000476837,733089.6999999285,8100,WL,B,2.0
7,6.830999851226807,immed,53169.00014877319,Thu Mar 19 2026 11:16:23 GMT-0500 (Central Daylight Time),734988.5,A,street,I,t,825,1,1898.8000000715256,733089.6999999285,8100,WL,B,2.0
7,7.38100004196167,immed,52618.99995803833,Thu Mar 19 2026 11:16:23 GMT-0500 (Central Daylight Time),735538.2999999523,A,streetenter,I,enter,536,1,2448.600000023842,733089.6999999285,8100,WL,B,2.0
7,7.5980000495910645,immed,52401.999950408936,Thu Mar 19 2026 11:16:23 GMT-0500 (Central Daylight Time),735754.6000000238,A,w,I,w,201,1,215.90000009536743,735538.6999999285,8100,WL,B,3.0
7,7.697000026702881,immed,52302.99997329712,Thu Mar 19 2026 11:16:23 GMT-0500 (Central Daylight Time),735854.3999999762,A,wi,I,i,81,1,315.7000000476837,735538.6999999285,8100,WL,B,3.0
7,7.947999954223633,immed,52052.00004577637,Thu Mar 19 2026 11:16:23 GMT-0500 (Central Daylight Time),736104.7999999523,A,win,I,n,229,1,566.1000000238419,735538.6999999285,8100,WL,B,3.0
7,8.080999851226807,immed,51919.00014877319,Thu Mar 19 2026 11:16:23 GMT-0500 (Central Daylight Time),736238.0,A,wind,I,d,116,1,699.3000000715256,735538.6999999285,8100,WL,B,3.0
7,8.21399998664856,immed,51786.00001335144,Thu Mar 19 2026 11:16:23 GMT-0500 (Central Daylight Time),736371.1000000238,A,windo,I,o,127,1,832.4000000953674,735538.6999999285,8100,WL,B,3.0
7,8.398000001907349,immed,51601.99999809265,Thu Mar 19 2026 11:16:23 GMT-0500 (Central Daylight Time),736554.6000000238,A,window,I,w,177,1,1015.9000000953674,735538.6999999285,8100,WL,B,3.0
7,9.148000001907349,immed,50851.99999809265,Thu Mar 19 2026 11:16:23 GMT-0500 (Central Daylight Time),737305.0,A,windowenter,I,enter,738,1,1766.3000000715256,735538.6999999285,8100,WL,B,3.0
7,9.813999891281128,immed,50186.00010871887,Thu Mar 19 2026 11:16:23 GMT-0500 (Central Daylight Time),737970.7999999523,A,p,I,p,652,1,665.6000000238419,737305.1999999285,8100,WL,B,4.0
7,10.164000034332275,immed,49835.999965667725,Thu Mar 19 2026 11:16:23 GMT-0500 (Central Daylight Time),738320.6999999285,A,pi,I,i,338,1,1015.5,737305.1999999285,8100,WL,B,4.0
7,10.430000066757202,immed,49569.9999332428,Thu Mar 19 2026 11:16:23 GMT-0500 (Central Daylight Time),738587.1999999285,A,pip,I,p,260,1,1282.0,737305.1999999285,8100,WL,B,4.0
7,10.94700002670288,immed,49052.99997329712,Thu Mar 19 2026 11:16:23 GMT-0500 (Central Daylight Time),739103.7999999523,A,pipe,I,e,497,1,1798.6000000238419,737305.1999999285,8100,WL,B,4.0
7,11.595999956130981,immed,48404.00004386902,Thu Mar 19 2026 11:16:23 GMT-0500 (Central Daylight Time),739753.6000000238,A,pipeenter,I,enter,629,1,2448.4000000953674,737305.1999999285,8100,WL,B,4.0
7,11.845999956130981,immed,48154.00004386902,Thu Mar 19 2026 11:16:23 GMT-0500 (Central Daylight Time),740003.5,A,c,I,c,235,1,249.60000002384186,739753.8999999762,8100,WL,B,5.0
7,11.912999868392944,immed,48087.000131607056,Thu Mar 19 2026 11:16:23 GMT-0500 (Central Daylight Time),740070.0,A,ci,I,i,57,1,316.10000002384186,739753.8999999762,8100,WL,B,5.0
7,12.145999908447266,immed,47854.000091552734,Thu Mar 19 2026 11:16:23 GMT-0500 (Central Daylight Time),740303.2999999523,A,cit,I,t,222,1,549.3999999761581,739753.8999999762,8100,WL,B,5.0
7,12.246000051498413,immed,47753.99994850159,Thu Mar 19 2026 11:16:23 GMT-0500 (Central Daylight Time),740403.2999999523,A,city,I,y,93,1,649.3999999761581,739753.8999999762,8100,WL,B,5.0
7,13.345999956130981,immed,46654.00004386902,Thu Mar 19 2026 11:16:23 GMT-0500 (Central Daylight Time),741503.1000000238,A,citys,I,s,1089,1,1749.2000000476837,739753.8999999762,8100,WL,B,5.0
7,14.361999988555908,immed,45638.00001144409,Thu Mar 19 2026 11:16:23 GMT-0500 (Central Daylight Time),742519.3999999762,A,city,I,backspace,1005,1,2765.5,739753.8999999762,8100,WL,B,5.0
7,14.928999900817871,immed,45071.00009918213,Thu Mar 19 2026 11:16:23 GMT-0500 (Central Daylight Time),743085.6999999285,A,cityenter,I,enter,557,1,3331.7999999523163,739753.8999999762,8100,WL,B,5.0
7,15.312000036239624,immed,44687.999963760376,Thu Mar 19 2026 11:16:23 GMT-0500 (Central Daylight Time),743469.0,A,s,I,s,367,1,383.0,743086.0,8100,WL,B,6.0
7,15.578999996185303,immed,44421.0000038147,Thu Mar 19 2026 11:16:23 GMT-0500 (Central Daylight Time),743735.6999999285,A,st,I,t,248,1,649.6999999284744,743086.0,8100,WL,B,6.0
7,15.812000036239624,immed,44187.999963760376,Thu Mar 19 2026 11:16:23 GMT-0500 (Central Daylight Time),743969.1000000238,A,sta,I,a,228,1,883.1000000238419,743086.0,8100,WL,B,6.0
7,15.894999980926514,immed,44105.000019073486,Thu Mar 19 2026 11:16:23 GMT-0500 (Central Daylight Time),744052.1999999285,A,star,I,r,75,1,966.1999999284744,743086.0,8100,WL,B,6.0
7,16.161999940872192,immed,43838.00005912781,Thu Mar 19 2026 11:16:23 GMT-0500 (Central Daylight Time),744318.7999999523,A,stars,I,s,247,1,1232.7999999523163,743086.0,8100,WL,B,6.0
7,16.91100001335144,immed,43088.99998664856,Thu Mar 19 2026 11:16:23 GMT-0500 (Central Daylight Time),745068.6000000238,A,starsenter,I,enter,734,1,1982.6000000238419,743086.0,8100,WL,B,6.0
7,17.41100001335144,immed,42588.99998664856,Thu Mar 19 2026 11:16:23 GMT-0500 (Central Daylight Time),745568.5,A,p,I,p,488,1,499.60000002384186,745068.8999999762,8100,WL,B,7.0
7,17.67799997329712,immed,42322.00002670288,Thu Mar 19 2026 11:16:23 GMT-0500 (Central Daylight Time),745835.0,A,pu,I,u,252,1,766.1000000238419,745068.8999999762,8100,WL,B,7.0
7,17.92799997329712,immed,42072.00002670288,Thu Mar 19 2026 11:16:23 GMT-0500 (Central Daylight Time),746085.1000000238,A,pui,I,i,233,1,1016.2000000476837,745068.8999999762,8100,WL,B,7.0
7,18.361000061035156,immed,41638.999938964844,Thu Mar 19 2026 11:16:23 GMT-0500 (Central Daylight Time),746518.0,A,pu,I,backspace,423,1,1449.1000000238419,745068.8999999762,8100,WL,B,7.0
7,18.628000020980835,immed,41371.999979019165,Thu Mar 19 2026 11:16:23 GMT-0500 (Central Daylight Time),746784.7999999523,A,pup,I,p,255,1,1715.8999999761581,745068.8999999762,8100,WL,B,7.0
7,18.82699990272522,immed,41173.00009727478,Thu Mar 19 2026 11:16:23 GMT-0500 (Central Daylight Time),746984.5,A,pupi,I,i,187,1,1915.6000000238419,745068.8999999762,8100,WL,B,7.0
7,19.111000061035156,immed,40888.999938964844,Thu Mar 19 2026 11:16:23 GMT-0500 (Central Daylight Time),747268.1000000238,A,pupil,I,l,277,1,2199.2000000476837,745068.8999999762,8100,WL,B,7.0
7,19.41100001335144,immed,40588.99998664856,Thu Mar 19 2026 11:16:23 GMT-0500 (Central Daylight Time),747567.6999999285,A,pupilenter,I,enter,288,1,2498.7999999523163,745068.8999999762,8100,WL,B,7.0
7,19.927000045776367,immed,40072.99995422363,Thu Mar 19 2026 11:16:23 GMT-0500 (Central Daylight Time),748084.1000000238,A,s,I,s,509,1,516.1000000238419,747568.0,8100,WL,B,8.0
7,20.060999870300293,immed,39939.00012969971,Thu Mar 19 2026 11:16:23 GMT-0500 (Central Daylight Time),748217.6999999285,A,sk,I,k,122,1,649.6999999284744,747568.0,8100,WL,B,8.0
7,20.24399995803833,immed,39756.00004196167,Thu Mar 19 2026 11:16:23 GMT-0500 (Central Daylight Time),748401.2999999523,A,ski,I,i,179,1,833.2999999523163,747568.0,8100,WL,B,8.0
7,20.509999990463257,immed,39490.00000953674,Thu Mar 19 2026 11:16:23 GMT-0500 (Central Daylight Time),748667.5,A,skin,I,n,259,1,1099.5,747568.0,8100,WL,B,8.0
7,21.30999994277954,immed,38690.00005722046,Thu Mar 19 2026 11:16:23 GMT-0500 (Central Daylight Time),749467.2999999523,A,skinenter,I,enter,793,1,1899.2999999523163,747568.0,8100,WL,B,8.0
7,21.64299988746643,immed,38357.00011253357,Thu Mar 19 2026 11:16:23 GMT-0500 (Central Daylight Time),749800.3999999762,A,a,I,a,314,1,332.7999999523163,749467.6000000238,8100,WL,B,9.0
7,21.776999950408936,immed,38223.000049591064,Thu Mar 19 2026 11:16:23 GMT-0500 (Central Daylight Time),749933.8999999762,A,ar,I,r,116,1,466.2999999523163,749467.6000000238,8100,WL,B,9.0
7,21.99399995803833,immed,38006.00004196167,Thu Mar 19 2026 11:16:23 GMT-0500 (Central Daylight Time),750150.7999999523,A,arm,I,m,207,1,683.1999999284744,749467.6000000238,8100,WL,B,9.0
7,23.743000030517578,immed,36256.99996948242,Thu Mar 19 2026 11:16:23 GMT-0500 (Central Daylight Time),751900.0,A,armenter,I,enter,1742,1,2432.399999976158,749467.6000000238,8100,WL,B,9.0
7,24.625999927520752,immed,35374.00007247925,Thu Mar 19 2026 11:16:23 GMT-0500 (Central Daylight Time),752782.8999999762,A,c,I,c,872,1,882.5,751900.3999999762,8100,WL,B,10.0
7,24.7260000705719,immed,35273.9999294281,Thu Mar 19 2026 11:16:23 GMT-0500 (Central Daylight Time),752882.6999999285,A,cl,I,l,93,1,982.2999999523163,751900.3999999762,8100,WL,B,10.0
7,24.908999919891357,immed,35091.00008010864,Thu Mar 19 2026 11:16:23 GMT-0500 (Central Daylight Time),753066.2999999523,A,clo,I,o,170,1,1165.8999999761581,751900.3999999762,8100,WL,B,10.0
7,25.026000022888184,immed,34973.99997711182,Thu Mar 19 2026 11:16:23 GMT-0500 (Central Daylight Time),753182.7999999523,A,cloc,I,c,106,1,1282.3999999761581,751900.3999999762,8100,WL,B,10.0
7,25.158999919891357,immed,34841.00008010864,Thu Mar 19 2026 11:16:23 GMT-0500 (Central Daylight Time),753316.1000000238,A,clock,I,k,117,1,1415.7000000476837,751900.3999999762,8100,WL,B,10.0
7,25.441999912261963,immed,34558.00008773804,Thu Mar 19 2026 11:16:23 GMT-0500 (Central Daylight Time),753599.1999999285,A,clockenter,I,enter,273,1,1698.7999999523163,751900.3999999762,8100,WL,B,10.0
7,26.075000047683716,immed,33924.999952316284,Thu Mar 19 2026 11:16:23 GMT-0500 (Central Daylight Time),754232.5,A,f,I,f,613,1,632.8999999761581,753599.6000000238,8100,WL,B,11.0
7,26.109999895095825,immed,33890.000104904175,Thu Mar 19 2026 11:16:23 GMT-0500 (Central Daylight Time),754267.0,A,fi,I,i,13,1,667.3999999761581,753599.6000000238,8100,WL,B,11.0
7,26.30900001525879,immed,33690.99998474121,Thu Mar 19 2026 11:16:23 GMT-0500 (Central Daylight Time),754466.0,A,fir,I,r,185,1,866.3999999761581,753599.6000000238,8100,WL,B,11.0
7,26.375,immed,33625.0,Thu Mar 19 2026 11:16:23 GMT-0500 (Central Daylight Time),754532.2999999523,A,fire,I,e,51,1,932.6999999284744,753599.6000000238,8100,WL,B,11.0
7,26.774999856948853,immed,33225.00014305115,Thu Mar 19 2026 11:16:23 GMT-0500 (Central Daylight Time),754932.3999999762,A,fireenter,I,enter,384,1,1332.7999999523163,753599.6000000238,8100,WL,B,11.0
7,26.97499990463257,immed,33025.00009536743,Thu Mar 19 2026 11:16:23 GMT-0500 (Central Daylight Time),755132.1999999285,A,c,I,c,184,1,199.39999997615814,754932.7999999523,8100,WL,B,12.0
7,27.575000047683716,immed,32424.999952316284,Thu Mar 19 2026 11:16:23 GMT-0500 (Central Daylight Time),755732.1000000238,A,ca,I,a,593,1,799.3000000715256,754932.7999999523,8100,WL,B,12.0
7,27.825000047683716,immed,32174.999952316284,Thu Mar 19 2026 11:16:23 GMT-0500 (Central Daylight Time),755982.0,A,cab,I,b,240,1,1049.2000000476837,754932.7999999523,8100,WL,B,12.0
7,27.907999992370605,immed,32092.000007629395,Thu Mar 19 2026 11:16:23 GMT-0500 (Central Daylight Time),756065.1000000238,A,cabi,I,i,78,1,1132.3000000715256,754932.7999999523,8100,WL,B,12.0
7,28.141000032424927,immed,31858.999967575073,Thu Mar 19 2026 11:16:23 GMT-0500 (Central Daylight Time),756298.6000000238,A,cabin,I,n,220,1,1365.8000000715256,754932.7999999523,8100,WL,B,12.0
7,28.687000036239624,immed,31312.999963760376,Thu Mar 19 2026 11:16:23 GMT-0500 (Central Daylight Time),756844.0,A,cabinenter,I,enter,541,1,1911.2000000476837,754932.7999999523,8100,WL,B,12.0
7,28.89400005340576,immed,31105.99994659424,Thu Mar 19 2026 11:16:23 GMT-0500 (Central Daylight Time),757051.1999999285,A,l,I,l,194,1,206.89999997615814,756844.2999999523,8100,WL,B,13.0
7,29.058000087738037,immed,30941.999912261963,Thu Mar 19 2026 11:16:23 GMT-0500 (Central Daylight Time),757214.7999999523,A,la,I,a,153,1,370.5,756844.2999999523,8100,WL,B,13.0
7,29.157000064849854,immed,30842.999935150146,Thu Mar 19 2026 11:16:23 GMT-0500 (Central Daylight Time),757314.6000000238,A,lak,I,k,95,1,470.3000000715256,756844.2999999523,8100,WL,B,13.0
7,29.323999881744385,immed,30676.000118255615,Thu Mar 19 2026 11:16:23 GMT-0500 (Central Daylight Time),757481.1999999285,A,lake,I,e,154,1,636.8999999761581,756844.2999999523,8100,WL,B,13.0
7,30.556999921798706,immed,29443.000078201294,Thu Mar 19 2026 11:16:23 GMT-0500 (Central Daylight Time),758714.1999999285,A,lakeenter,I,enter,1219,1,1869.8999999761581,756844.2999999523,8100,WL,B,13.0
7,31.957000017166138,immed,28042.999982833862,Thu Mar 19 2026 11:16:23 GMT-0500 (Central Daylight Time),760113.7999999523,A,c,I,c,1379,1,1399.1999999284744,758714.6000000238,8100,WL,B,14.0
7,31.990999937057495,immed,28009.000062942505,Thu Mar 19 2026 11:16:23 GMT-0500 (Central Daylight Time),760148.2999999523,A,cl,I,l,26,1,1433.6999999284744,758714.6000000238,8100,WL,B,14.0
7,32.19099998474121,immed,27809.00001525879,Thu Mar 19 2026 11:16:23 GMT-0500 (Central Daylight Time),760348.2999999523,A,clo,I,o,192,1,1633.6999999284744,758714.6000000238,8100,WL,B,14.0
7,32.35699987411499,immed,27643.00012588501,Thu Mar 19 2026 11:16:23 GMT-0500 (Central Daylight Time),760514.0,A,cloc,I,c,152,1,1799.3999999761581,758714.6000000238,8100,WL,B,14.0
7,32.473000049591064,immed,27526.999950408936,Thu Mar 19 2026 11:16:23 GMT-0500 (Central Daylight Time),760630.2999999523,A,clock,I,k,99,1,1915.6999999284744,758714.6000000238,8100,WL,B,14.0
