acc_sum,block,block_c,condition,correct,correct_response,datetime,endtime,flanker,jitter,project,response,response_test_buffer_response,response_test_target_response,response_time,response_time_test_buffer_response,response_time_test_target_response,row_sel,session_number,start_end,starttime,subject_id,target,task,task_vers,time_test_buffer,time_test_buffer_response,time_test_constants,time_test_flanker,time_test_jitter,time_test_logger,time_test_target,time_test_target_response,time_test_variables,trial
1,prac,1,con,1,z,Mon Dec 15 2025 13:19:59 GMT-0500 (Eastern Standard Time),151164.80000019073,banana,800,I,z,,,782,,,1,3,2891.0999999046326,148273.7000002861,9024,banana,NF,C,,,,,,,,,,1
2,prac,1,con,1,z,Mon Dec 15 2025 13:19:59 GMT-0500 (Eastern Standard Time),153781.09999990463,kiwi,1000,I,z,,,306,,,7,3,2606.7999997138977,151174.30000019073,9024,kiwi,NF,C,,,,,,,,,,2
3,prac,1,con,1,z,Mon Dec 15 2025 13:19:59 GMT-0500 (Eastern Standard Time),156247.90000009537,orange,1000,I,z,,,154,,,3,3,2457.699999809265,153790.2000002861,9024,orange,NF,C,,,,,,,,,,3
3,prac,1,inc,0,m,Mon Dec 15 2025 13:19:59 GMT-0500 (Eastern Standard Time),158914.40000009537,plum,1100,I,z,,,258,,,16,3,2655.300000190735,156259.09999990463,9024,lead,NF,C,,,,,,,,,,4
3,prac,1,inc,0,m,Mon Dec 15 2025 13:19:59 GMT-0500 (Eastern Standard Time),163881.0,pear,900,I,None,,,1800,,,14,3,4956.799999713898,158924.2000002861,9024,iron,NF,C,,,,,,,,,,5
4,prac,1,inc,1,z,Mon Dec 15 2025 13:19:59 GMT-0500 (Eastern Standard Time),167297.80000019073,lead,1100,I,z,,,1009,,,8,3,3407.300000190735,163890.5,9024,plum,NF,C,,,,,,,,,,6
5,prac,1,con,1,z,Mon Dec 15 2025 13:19:59 GMT-0500 (Eastern Standard Time),170231.0,lime,800,I,z,,,820,,,5,3,2925.0999999046326,167305.90000009537,9024,lime,NF,C,,,,,,,,,,7
5,prac,1,con,0,m,Mon Dec 15 2025 13:19:59 GMT-0500 (Eastern Standard Time),173064.30000019073,silver,1000,I,z,,,520,,,11,3,2824.0999999046326,170240.2000002861,9024,silver,NF,C,,,,,,,,,,8
6,prac,1,con,1,m,Mon Dec 15 2025 13:19:59 GMT-0500 (Eastern Standard Time),176164.30000019073,gold,800,I,m,,,990,,,13,3,3090.9000000953674,173073.40000009537,9024,gold,NF,C,,,,,,,,,,9
6,prac,1,con,0,m,Mon Dec 15 2025 13:19:59 GMT-0500 (Eastern Standard Time),179114.40000009537,zinc,1000,I,z,,,635,,,15,3,2941.300000190735,176173.09999990463,9024,zinc,NF,C,,,,,,,,,,10
7,prac,1,inc,1,m,Mon Dec 15 2025 13:19:59 GMT-0500 (Eastern Standard Time),183031.0,raisin,1100,I,m,,,1505,,,12,3,3908.0999999046326,179122.90000009537,9024,cobalt,NF,C,,,,,,,,,,11
8,prac,1,inc,1,m,Mon Dec 15 2025 13:19:59 GMT-0500 (Eastern Standard Time),186047.59999990463,cherry,900,I,m,,,812,,,10,3,3005.3999996185303,183042.2000002861,9024,copper,NF,C,,,,,,,,,,12
9,prac,1,inc,1,z,Mon Dec 15 2025 13:19:59 GMT-0500 (Eastern Standard Time),188997.80000019073,iron,900,I,z,,,738,,,6,3,2941.5999999046326,186056.2000002861,9024,pear,NF,C,,,,,,,,,,13
10,prac,1,inc,1,z,Mon Dec 15 2025 13:19:59 GMT-0500 (Eastern Standard Time),191947.80000019073,copper,900,I,z,,,733,,,2,3,2941.300000190735,189006.5,9024,cherry,NF,C,,,,,,,,,,14
11,prac,1,con,1,m,Mon Dec 15 2025 13:19:59 GMT-0500 (Eastern Standard Time),194847.7000002861,bronze,800,I,m,,,794,,,9,3,2890.800000190735,191956.90000009537,9024,bronze,NF,C,,,,,,,,,,15
12,prac,1,inc,1,z,Mon Dec 15 2025 13:19:59 GMT-0500 (Eastern Standard Time),198114.40000009537,cobalt,1100,I,z,,,859,,,4,3,3257.800000190735,194856.59999990463,9024,raisin,NF,C,,,,,,,,,,16
1,test,1,inc,1,m,Mon Dec 15 2025 13:19:59 GMT-0500 (Eastern Standard Time),218814.09999990463,lime,800,I,m,m,None,697,498.0,199.0,125,3,2024.6999998092651,216789.40000009537,9024,lead,NF,C,193612,193612,192086,192895,192087,194111,193412,193412,194111,1
2,test,1,inc,1,z,Mon Dec 15 2025 13:19:59 GMT-0500 (Eastern Standard Time),220697.59999990463,gold,800,I,z,z,None,537,337.0,200.0,45,3,1871.8999996185303,218825.7000002861,9024,pear,NF,C,195645,195645,194123,194929,194123,195995,195445,195445,195995,2
3,test,1,con,1,z,Mon Dec 15 2025 13:19:59 GMT-0500 (Eastern Standard Time),222930.90000009537,lime,1000,I,z,z,None,693,493.0,200.0,35,3,2223.4000000953674,220707.5,9024,lime,NF,C,197728,197729,196005,197012,196005,198228,197528,197528,198228,3
4,test,1,con,1,z,Mon Dec 15 2025 13:19:59 GMT-0500 (Eastern Standard Time),225247.59999990463,kiwi,900,I,z,z,None,879,680.0,199.0,50,3,2308.0,222939.59999990463,9024,kiwi,NF,C,199862,199862,198237,199145,198237,200545,199662,199662,200545,4
5,test,1,con,1,z,Mon Dec 15 2025 13:19:59 GMT-0500 (Eastern Standard Time),227597.40000009537,cherry,1100,I,z,z,None,699,499.0,200.0,12,3,2341.5,225255.90000009537,9024,cherry,NF,C,202379,202379,200553,201662,200553,202895,202178,202178,202894,5
6,test,1,con,1,m,Mon Dec 15 2025 13:19:59 GMT-0500 (Eastern Standard Time),229847.59999990463,lead,900,I,m,m,None,806,606.0,200.0,122,3,2240.699999809265,227606.90000009537,9024,lead,NF,C,204528,204528,202904,203812,202904,205145,204328,204328,205145,6
7,test,1,inc,1,m,Mon Dec 15 2025 13:19:59 GMT-0500 (Eastern Standard Time),232413.90000009537,raisin,1100,I,m,m,None,930,731.0,199.0,72,3,2554.9000000953674,229859.0,9024,bronze,NF,C,206978,206979,205156,206262,205157,207711,206778,206779,207711,7
8,test,1,con,1,m,Mon Dec 15 2025 13:19:59 GMT-0500 (Eastern Standard Time),234764.2000002861,zinc,1000,I,m,m,None,800,601.0,199.0,115,3,2342.4000000953674,232421.80000019073,9024,zinc,NF,C,209445,209445,207719,208728,207719,210061,209245,209245,210061,8
9,test,1,con,1,m,Mon Dec 15 2025 13:19:59 GMT-0500 (Eastern Standard Time),237030.90000009537,copper,1000,I,m,m,None,705,506.0,199.0,75,3,2250.0999999046326,234780.80000019073,9024,copper,NF,C,211812,211812,210078,211095,210079,212328,211612,211612,212328,9
10,test,1,con,1,m,Mon Dec 15 2025 13:19:59 GMT-0500 (Eastern Standard Time),239047.5,cobalt,800,I,m,m,None,671,472.0,199.0,89,3,2005.5999999046326,237041.90000009537,9024,cobalt,NF,C,213862,213862,212339,213145,212339,214345,213662,213662,214344,10
11,test,1,inc,1,z,Mon Dec 15 2025 13:19:59 GMT-0500 (Eastern Standard Time),241364.2000002861,cobalt,1100,I,z,z,None,675,475.0,200.0,16,3,2304.2000002861023,239060.0,9024,cherry,NF,C,216179,216179,214357,215462,214357,216661,215978,215978,216661,11
12,test,1,con,1,m,Mon Dec 15 2025 13:19:59 GMT-0500 (Eastern Standard Time),243714.2000002861,cobalt,1100,I,m,m,None,711,512.0,199.0,92,3,2340.9000000953674,241373.30000019073,9024,cobalt,NF,C,218495,218495,216670,217778,216671,219011,218295,218295,219011,12
13,test,1,con,1,z,Mon Dec 15 2025 13:19:59 GMT-0500 (Eastern Standard Time),246264.30000019073,pear,1000,I,z,z,None,1004,805.0,199.0,43,3,2541.9000000953674,243722.40000009537,9024,pear,NF,C,220745,220745,219019,220028,219020,221561,220545,220545,221561,13
14,test,1,con,1,z,Mon Dec 15 2025 13:19:59 GMT-0500 (Eastern Standard Time),248630.7000002861,cherry,800,I,z,z,None,1022,823.0,199.0,9,3,2357.9000000953674,246272.80000019073,9024,cherry,NF,C,223095,223095,221570,222378,221570,223928,222895,222895,223928,14
15,test,1,inc,1,z,Mon Dec 15 2025 13:19:59 GMT-0500 (Eastern Standard Time),251114.09999990463,lead,1100,I,z,z,None,836,637.0,199.0,40,3,2474.699999809265,248639.40000009537,9024,lime,NF,C,225762,225762,223936,225045,223937,226411,225562,225562,226411,15
16,test,1,inc,1,m,Mon Dec 15 2025 13:19:59 GMT-0500 (Eastern Standard Time),253247.40000009537,lime,800,I,m,m,None,796,597.0,199.0,109,3,2122.4000000953674,251125.0,9024,iron,NF,C,227945,227945,226422,227228,226422,228544,227745,227745,228544,16
17,test,1,con,1,z,Mon Dec 15 2025 13:19:59 GMT-0500 (Eastern Standard Time),255580.80000019073,plum,900,I,z,z,None,883,683.0,200.0,58,3,2323.9000000953674,253256.90000009537,9024,plum,NF,C,230178,230179,228554,229462,228555,230878,229978,229978,230878,17
18,test,1,inc,1,z,Mon Dec 15 2025 13:19:59 GMT-0500 (Eastern Standard Time),257780.7000002861,gold,800,I,z,z,None,857,658.0,199.0,53,3,2191.300000190735,255589.40000009537,9024,kiwi,NF,C,232412,232412,230886,231695,230887,233078,232212,232212,233078,18
19,test,1,inc,1,m,Mon Dec 15 2025 13:19:59 GMT-0500 (Eastern Standard Time),260030.7000002861,lime,800,I,m,m,None,913,714.0,199.0,101,3,2239.5,257791.2000002861,9024,gold,NF,C,234612,234612,233088,233895,233089,235328,234412,234412,235328,19
20,test,1,inc,1,z,Mon Dec 15 2025 13:19:59 GMT-0500 (Eastern Standard Time),262464.0,silver,1000,I,z,z,None,896,697.0,199.0,15,3,2423.9000000953674,260040.09999990463,9024,cherry,NF,C,237062,237062,235337,236345,235337,237761,236862,236862,237761,20
21,test,1,inc,1,z,Mon Dec 15 2025 13:19:59 GMT-0500 (Eastern Standard Time),264680.80000019073,gold,800,I,z,z,None,870,671.0,199.0,61,3,2208.0,262472.80000019073,9024,plum,NF,C,239295,239295,237770,238578,237770,239978,239095,239095,239978,21
22,test,1,inc,1,z,Mon Dec 15 2025 13:19:59 GMT-0500 (Eastern Standard Time),267130.80000019073,lead,1100,I,z,z,None,801,602.0,199.0,48,3,2441.2000002861023,264689.59999990463,9024,pear,NF,C,241812,241812,239987,241095,239987,242428,241612,241612,242428,22
23,test,1,con,1,m,Mon Dec 15 2025 13:19:59 GMT-0500 (Eastern Standard Time),269430.80000019073,lead,1000,I,m,m,None,755,556.0,199.0,123,3,2289.4000000953674,267141.40000009537,9024,lead,NF,C,244162,244162,242438,243445,242439,244728,243962,243962,244728,23
24,test,1,con,1,m,Mon Dec 15 2025 13:19:59 GMT-0500 (Eastern Standard Time),271630.59999990463,bronze,800,I,m,m,None,863,664.0,199.0,65,3,2188.7999997138977,269441.80000019073,9024,bronze,NF,C,246262,246262,244739,245545,244739,246928,246062,246062,246928,24
25,test,1,inc,1,z,Mon Dec 15 2025 13:19:59 GMT-0500 (Eastern Standard Time),273980.90000009537,cobalt,1100,I,z,z,None,699,500.0,199.0,32,3,2341.0999999046326,271639.80000019073,9024,raisin,NF,C,248762,248762,246937,248045,246937,249278,248562,248562,249278,25
26,test,1,inc,1,m,Mon Dec 15 2025 13:19:59 GMT-0500 (Eastern Standard Time),276130.90000009537,pear,900,I,m,m,None,710,511.0,199.0,118,3,2141.5999999046326,273989.30000019073,9024,zinc,NF,C,250911,250911,249286,250195,249287,251428,250712,250712,251428,26
27,test,1,inc,1,m,Mon Dec 15 2025 13:19:59 GMT-0500 (Eastern Standard Time),278580.80000019073,orange,1000,I,m,m,None,907,708.0,199.0,87,3,2438.9000000953674,276141.90000009537,9024,silver,NF,C,253162,253162,251439,252445,251439,253878,252962,252962,253878,27
28,test,1,inc,1,z,Mon Dec 15 2025 13:19:59 GMT-0500 (Eastern Standard Time),280780.7000002861,copper,900,I,z,z,None,749,550.0,199.0,6,3,2191.1000003814697,278589.59999990463,9024,banana,NF,C,255512,255512,253887,254795,253887,256078,255312,255312,256078,28
29,test,1,inc,1,z,Mon Dec 15 2025 13:19:59 GMT-0500 (Eastern Standard Time),283130.90000009537,gold,800,I,z,z,None,1001,802.0,199.0,37,3,2341.699999809265,280789.2000002861,9024,lime,NF,C,257612,257612,256086,256895,256087,258428,257412,257412,258428,29
30,test,1,inc,1,m,Mon Dec 15 2025 13:19:59 GMT-0500 (Eastern Standard Time),285397.5,cherry,900,I,m,m,None,823,624.0,199.0,94,3,2258.7999997138977,283138.7000002861,9024,cobalt,NF,C,260062,260062,258436,259345,258436,260695,259862,259862,260695,30
31,test,1,inc,1,z,Mon Dec 15 2025 13:19:59 GMT-0500 (Eastern Standard Time),287830.80000019073,iron,900,I,z,z,None,990,790.0,200.0,46,3,2424.5,285406.30000019073,9024,pear,NF,C,262328,262328,260703,261612,260704,263128,262128,262128,263128,31
32,test,1,con,1,m,Mon Dec 15 2025 13:19:59 GMT-0500 (Eastern Standard Time),290247.5,zinc,900,I,m,m,None,971,772.0,199.0,114,3,2406.0,287841.5,9024,zinc,NF,C,264762,264762,263139,264045,263139,265545,264562,264562,265544,32
33,test,1,con,1,z,Mon Dec 15 2025 13:19:59 GMT-0500 (Eastern Standard Time),292397.5,lime,800,I,z,z,None,798,599.0,199.0,33,3,2137.7999997138977,290259.7000002861,9024,lime,NF,C,267079,267079,265557,266362,265557,267695,266878,266879,267694,33
34,test,1,con,1,z,Mon Dec 15 2025 13:19:59 GMT-0500 (Eastern Standard Time),295014.09999990463,kiwi,1100,I,z,z,None,974,774.0,200.0,52,3,2608.2999997138977,292405.80000019073,9024,kiwi,NF,C,269528,269528,267703,268812,267703,270311,269328,269328,270311,34
35,test,1,con,1,m,Mon Dec 15 2025 13:19:59 GMT-0500 (Eastern Standard Time),297064.09999990463,iron,800,I,m,m,None,704,505.0,199.0,105,3,2041.2999997138977,295022.80000019073,9024,iron,NF,C,271845,271845,270320,271128,270320,272361,271645,271645,272361,35
36,test,1,con,1,m,Mon Dec 15 2025 13:19:59 GMT-0500 (Eastern Standard Time),299180.90000009537,cobalt,900,I,m,m,None,666,467.0,199.0,90,3,2108.699999809265,297072.2000002861,9024,cobalt,NF,C,273995,273995,272369,273278,272370,274478,273795,273795,274478,36
37,test,1,con,1,z,Mon Dec 15 2025 13:19:59 GMT-0500 (Eastern Standard Time),301597.2000002861,pear,1100,I,z,z,None,765,566.0,199.0,44,3,2405.800000190735,299191.40000009537,9024,pear,NF,C,276312,276312,274488,275595,274489,276894,276112,276112,276894,37
38,test,1,inc,1,z,Mon Dec 15 2025 13:19:59 GMT-0500 (Eastern Standard Time),304080.80000019073,iron,900,I,z,z,None,1046,846.0,200.0,54,3,2478.5,301602.30000019073,9024,kiwi,NF,C,278528,278528,276899,277811,276900,279378,278328,278328,279378,38
39,test,1,con,1,m,Mon Dec 15 2025 13:19:59 GMT-0500 (Eastern Standard Time),306264.09999990463,silver,800,I,m,m,None,822,622.0,200.0,81,3,2167.2999997138977,304096.80000019073,9024,silver,NF,C,280928,280928,279394,280212,279395,281561,280728,280728,281561,39
40,test,1,con,1,z,Mon Dec 15 2025 13:19:59 GMT-0500 (Eastern Standard Time),308564.0,cherry,900,I,z,z,None,858,659.0,199.0,10,3,2285.4000000953674,306278.59999990463,9024,cherry,NF,C,283195,283195,281576,282478,281576,283861,282995,282995,283861,40
41,test,1,con,1,z,Mon Dec 15 2025 13:19:59 GMT-0500 (Eastern Standard Time),310914.09999990463,cherry,1000,I,z,z,None,810,611.0,199.0,11,3,2338.7999997138977,308575.30000019073,9024,cherry,NF,C,285595,285595,283872,284878,283873,286211,285395,285395,286211,41
42,test,1,inc,1,z,Mon Dec 15 2025 13:19:59 GMT-0500 (Eastern Standard Time),313064.09999990463,iron,900,I,z,z,None,704,505.0,199.0,62,3,2139.699999809265,310924.40000009537,9024,plum,NF,C,287845,287845,286221,287128,286222,288361,287645,287645,288361,42
43,test,1,inc,1,z,Mon Dec 15 2025 13:19:59 GMT-0500 (Eastern Standard Time),315597.40000009537,lead,1100,I,z,z,None,882,683.0,199.0,56,3,2525.0,313072.40000009537,9024,kiwi,NF,C,290195,290195,288369,289478,288370,290895,289995,289995,290894,43
44,test,1,inc,1,m,Mon Dec 15 2025 13:19:59 GMT-0500 (Eastern Standard Time),317964.0,raisin,1100,I,m,m,None,718,518.0,200.0,88,3,2358.5,315605.5,9024,silver,NF,C,292728,292728,290903,292012,290903,293261,292528,292528,293261,44
45,test,1,inc,1,z,Mon Dec 15 2025 13:19:59 GMT-0500 (Eastern Standard Time),320547.5,bronze,800,I,z,z,None,1242,1043.0,199.0,5,3,2569.699999809265,317977.80000019073,9024,banana,NF,C,294795,294795,293275,294078,293276,295845,294595,294595,295844,45
46,test,1,con,1,m,Mon Dec 15 2025 13:19:59 GMT-0500 (Eastern Standard Time),322847.2000002861,bronze,900,I,m,m,None,864,664.0,200.0,66,3,2289.0,320558.2000002861,9024,bronze,NF,C,297478,297478,295855,296762,295856,298144,297278,297278,298144,46
47,test,1,inc,1,m,Mon Dec 15 2025 13:19:59 GMT-0500 (Eastern Standard Time),325280.80000019073,pear,900,I,m,m,None,995,796.0,199.0,110,3,2426.0999999046326,322854.7000002861,9024,iron,NF,C,299778,299778,298152,299062,298152,300578,299578,299578,300578,47
48,test,1,inc,1,z,Mon Dec 15 2025 13:19:59 GMT-0500 (Eastern Standard Time),327897.40000009537,copper,900,I,z,z,None,1169,970.0,199.0,22,3,2605.800000190735,325291.59999990463,9024,orange,NF,C,302212,302212,300589,301495,300589,303194,302012,302012,303194,48
49,test,1,inc,1,m,Mon Dec 15 2025 13:19:59 GMT-0500 (Eastern Standard Time),330130.7000002861,lime,800,I,m,m,None,894,694.0,200.0,117,3,2222.6000003814697,327908.09999990463,9024,zinc,NF,C,304728,304728,303205,304012,303205,305428,304528,304528,305428,49
50,test,1,con,1,m,Mon Dec 15 2025 13:19:59 GMT-0500 (Eastern Standard Time),332897.40000009537,iron,1000,I,m,m,None,1228,1028.0,200.0,107,3,2758.4000000953674,330139.0,9024,iron,NF,C,307162,307162,305436,306445,305436,308195,306961,306961,308194,50
51,test,1,con,1,m,Mon Dec 15 2025 13:19:59 GMT-0500 (Eastern Standard Time),335030.80000019073,lead,800,I,m,m,None,790,590.0,200.0,121,3,2124.4000000953674,332906.40000009537,9024,lead,NF,C,309728,309728,308203,309012,308204,310328,309528,309528,310328,51
52,test,1,con,1,z,Mon Dec 15 2025 13:19:59 GMT-0500 (Eastern Standard Time),337447.5,orange,1100,I,z,z,None,772,572.0,200.0,20,3,2406.0999999046326,335041.40000009537,9024,orange,NF,C,312162,312162,310338,311445,310339,312745,311961,311961,312745,52
53,test,1,con,1,z,Mon Dec 15 2025 13:19:59 GMT-0500 (Eastern Standard Time),339914.0,raisin,1000,I,z,z,None,920,720.0,200.0,27,3,2458.699999809265,337455.30000019073,9024,raisin,NF,C,314478,314478,312752,313762,312753,315211,314278,314278,315211,53
54,test,1,con,1,z,Mon Dec 15 2025 13:19:59 GMT-0500 (Eastern Standard Time),342714.09999990463,banana,1100,I,z,z,None,1152,953.0,199.0,4,3,2789.3999996185303,339924.7000002861,9024,banana,NF,C,317045,317045,315222,316328,315222,318011,316845,316845,318011,54
55,test,1,inc,1,z,Mon Dec 15 2025 13:19:59 GMT-0500 (Eastern Standard Time),345330.80000019073,zinc,1000,I,z,z,None,1076,877.0,199.0,55,3,2608.5,342722.30000019073,9024,kiwi,NF,C,319745,319745,318019,319028,318020,320628,319545,319545,320628,55
56,test,1,con,1,m,Mon Dec 15 2025 13:19:59 GMT-0500 (Eastern Standard Time),347730.7000002861,gold,1000,I,m,m,None,859,660.0,199.0,99,3,2391.7000002861023,345339.0,9024,gold,NF,C,322362,322362,320636,321645,320636,323028,322162,322162,323028,56
57,test,1,con,1,m,Mon Dec 15 2025 13:19:59 GMT-0500 (Eastern Standard Time),349930.7000002861,iron,900,I,m,m,None,751,552.0,199.0,106,3,2190.800000190735,347739.90000009537,9024,iron,NF,C,324662,324662,323037,323945,323037,325228,324462,324462,325228,57
58,test,1,inc,1,z,Mon Dec 15 2025 13:19:59 GMT-0500 (Eastern Standard Time),352147.40000009537,bronze,800,I,z,z,None,875,676.0,199.0,13,3,2205.9000000953674,349941.5,9024,cherry,NF,C,326762,326762,325239,326045,325239,327445,326561,326562,327444,58
59,test,1,inc,1,z,Mon Dec 15 2025 13:19:59 GMT-0500 (Eastern Standard Time),354297.40000009537,bronze,800,I,z,z,None,804,604.0,200.0,21,3,2139.199999809265,352158.2000002861,9024,orange,NF,C,328978,328978,327455,328262,327456,329595,328778,328778,329594,59
60,test,1,con,1,z,Mon Dec 15 2025 13:19:59 GMT-0500 (Eastern Standard Time),356813.90000009537,kiwi,800,I,z,z,None,1182,982.0,200.0,49,3,2508.0999999046326,354305.80000019073,9024,kiwi,NF,C,331128,331128,329603,330412,329603,332111,330928,330928,332111,60
61,test,1,inc,1,m,Mon Dec 15 2025 13:19:59 GMT-0500 (Eastern Standard Time),359114.2000002861,kiwi,1000,I,m,m,None,752,553.0,199.0,103,3,2292.0,356822.2000002861,9024,gold,NF,C,333845,333845,332119,333128,332119,334411,333645,333645,334411,61
62,test,1,inc,1,z,Mon Dec 15 2025 13:19:59 GMT-0500 (Eastern Standard Time),361414.0,cobalt,1100,I,z,z,None,656,457.0,199.0,24,3,2291.4000000953674,359122.59999990463,9024,orange,NF,C,336245,336245,334420,335528,334420,336711,336045,336045,336711,62
63,test,1,inc,1,z,Mon Dec 15 2025 13:19:59 GMT-0500 (Eastern Standard Time),363864.09999990463,silver,1000,I,z,z,None,904,705.0,199.0,31,3,2442.0,361422.09999990463,9024,raisin,NF,C,338445,338445,336719,337728,336719,339161,338245,338245,339161,63
64,test,1,inc,1,m,Mon Dec 15 2025 13:19:59 GMT-0500 (Eastern Standard Time),365980.80000019073,pear,900,I,m,m,None,666,467.0,199.0,102,3,2105.2000002861023,363875.59999990463,9024,gold,NF,C,340795,340795,339173,340078,339173,341278,340595,340595,341278,64
65,test,1,inc,1,m,Mon Dec 15 2025 13:19:59 GMT-0500 (Eastern Standard Time),368347.40000009537,kiwi,1000,I,m,m,None,817,618.0,199.0,127,3,2356.0999999046326,365991.30000019073,9024,lead,NF,C,343012,343012,341288,342295,341289,343644,342811,342812,343644,65
66,test,1,con,1,m,Mon Dec 15 2025 13:19:59 GMT-0500 (Eastern Standard Time),370464.0,copper,800,I,m,m,None,780,580.0,200.0,73,3,2108.699999809265,368355.30000019073,9024,copper,NF,C,345178,345178,343652,344461,343653,345761,344978,344978,345761,66
67,test,1,con,1,m,Mon Dec 15 2025 13:19:59 GMT-0500 (Eastern Standard Time),372847.2000002861,lead,1100,I,m,m,None,747,547.0,200.0,124,3,2373.1000003814697,370474.09999990463,9024,lead,NF,C,347595,347595,345771,346878,345772,348144,347394,347394,348144,67
68,test,1,con,1,z,Mon Dec 15 2025 13:19:59 GMT-0500 (Eastern Standard Time),375147.40000009537,pear,900,I,z,z,None,852,652.0,200.0,42,3,2292.199999809265,372855.2000002861,9024,pear,NF,C,349778,349778,348152,349062,348153,350444,349578,349578,350444,68
69,test,1,con,1,z,Mon Dec 15 2025 13:19:59 GMT-0500 (Eastern Standard Time),377397.30000019073,banana,800,I,z,z,None,908,708.0,200.0,1,3,2239.4000000953674,375157.90000009537,9024,banana,NF,C,351978,351978,350455,351262,350455,352694,351778,351778,352694,69
70,test,1,inc,1,m,Mon Dec 15 2025 13:19:59 GMT-0500 (Eastern Standard Time),379464.0,cherry,900,I,m,m,None,622,422.0,200.0,70,3,2058.9000000953674,377405.09999990463,9024,bronze,NF,C,354328,354328,352702,353611,352702,354761,354128,354128,354761,70
71,test,1,inc,1,m,Mon Dec 15 2025 13:19:59 GMT-0500 (Eastern Standard Time),381680.80000019073,orange,1000,I,m,m,None,678,479.0,199.0,79,3,2208.5999999046326,379472.2000002861,9024,copper,NF,C,356495,356495,354769,355778,354770,356978,356295,356295,356978,71
72,test,1,inc,1,z,Mon Dec 15 2025 13:19:59 GMT-0500 (Eastern Standard Time),383847.30000019073,iron,900,I,z,z,None,722,522.0,200.0,38,3,2156.0999999046326,381691.2000002861,9024,lime,NF,C,358612,358612,356988,357895,356989,359144,358411,358411,359144,72
73,test,1,con,1,m,Mon Dec 15 2025 13:19:59 GMT-0500 (Eastern Standard Time),386380.7000002861,zinc,1100,I,m,m,None,885,684.0,201.0,116,3,2524.9000000953674,383855.80000019073,9024,zinc,NF,C,360978,360978,359153,360261,359153,361678,360777,360777,361678,73
74,test,1,inc,1,m,Mon Dec 15 2025 13:19:59 GMT-0500 (Eastern Standard Time),388464.0,banana,800,I,m,m,None,746,546.0,200.0,85,3,2074.5999999046326,386389.40000009537,9024,silver,NF,C,363212,363212,361686,362495,361687,363761,363011,363011,363761,74
75,test,1,con,1,m,Mon Dec 15 2025 13:19:59 GMT-0500 (Eastern Standard Time),390964.0,iron,1100,I,m,m,None,858,659.0,199.0,108,3,2489.5999999046326,388474.40000009537,9024,iron,NF,C,365595,365595,363771,364878,363772,366261,365395,365395,366261,75
76,test,1,con,1,z,Mon Dec 15 2025 13:19:59 GMT-0500 (Eastern Standard Time),393480.7000002861,plum,1100,I,z,z,None,870,671.0,199.0,60,3,2506.0,390974.7000002861,9024,plum,NF,C,368095,368095,366272,367378,366272,368778,367895,367895,368778,76
77,test,1,con,1,m,Mon Dec 15 2025 13:19:59 GMT-0500 (Eastern Standard Time),395713.80000019073,copper,900,I,m,m,None,793,594.0,199.0,74,3,2225.2000002861023,393488.59999990463,9024,copper,NF,C,370412,370412,368786,369695,368786,371011,370211,370212,371011,77
78,test,1,inc,1,m,Mon Dec 15 2025 13:19:59 GMT-0500 (Eastern Standard Time),398080.80000019073,kiwi,1000,I,m,m,None,828,629.0,199.0,111,3,2361.5,395719.30000019073,9024,iron,NF,C,372745,372745,371016,372028,371017,373378,372545,372545,373378,78
79,test,1,inc,1,z,Mon Dec 15 2025 13:19:59 GMT-0500 (Eastern Standard Time),400480.7000002861,zinc,1000,I,z,z,None,862,662.0,200.0,47,3,2391.7000002861023,398089.0,9024,pear,NF,C,375112,375112,373386,374395,373386,375778,374911,374911,375778,79
79,test,1,con,0,z,Mon Dec 15 2025 13:19:59 GMT-0500 (Eastern Standard Time),402547.40000009537,banana,900,I,m,m,None,626,426.0,200.0,2,3,2056.4000000953674,400491.0,9024,banana,NF,C,377412,377412,375788,376695,375788,377844,377211,377211,377844,80
80,test,1,con,1,z,Mon Dec 15 2025 13:19:59 GMT-0500 (Eastern Standard Time),404697.30000019073,lime,900,I,z,z,None,704,504.0,200.0,34,3,2140.9000000953674,402556.40000009537,9024,lime,NF,C,379478,379478,377853,378761,377854,379994,379278,379278,379994,81
81,test,1,inc,1,z,Mon Dec 15 2025 13:19:59 GMT-0500 (Eastern Standard Time),406997.40000009537,silver,1000,I,z,z,None,758,558.0,200.0,7,3,2292.199999809265,404705.2000002861,9024,banana,NF,C,381728,381728,380002,381011,380003,382294,381528,381528,382294,82
82,test,1,con,1,m,Mon Dec 15 2025 13:19:59 GMT-0500 (Eastern Standard Time),409497.40000009537,gold,1100,I,m,m,None,854,654.0,200.0,100,3,2490.0,407007.40000009537,9024,gold,NF,C,384128,384128,382304,383411,382305,384795,383928,383928,384794,83
83,test,1,inc,1,m,Mon Dec 15 2025 13:19:59 GMT-0500 (Eastern Standard Time),411913.90000009537,raisin,1100,I,m,m,None,770,570.0,200.0,96,3,2408.0,409505.90000009537,9024,cobalt,NF,C,386628,386628,384803,385911,384803,387211,386428,386428,387211,84
84,test,1,con,1,z,Mon Dec 15 2025 13:19:59 GMT-0500 (Eastern Standard Time),414114.0,raisin,900,I,z,z,None,760,561.0,199.0,26,3,2189.2999997138977,411924.7000002861,9024,raisin,NF,C,388845,388845,387222,388128,387222,389411,388645,388645,389411,85
85,test,1,con,1,m,Mon Dec 15 2025 13:19:59 GMT-0500 (Eastern Standard Time),416413.7000002861,silver,1000,I,m,m,None,764,565.0,199.0,83,3,2289.800000190735,414123.90000009537,9024,silver,NF,C,391145,391145,389421,390428,389421,391711,390945,390945,391711,86
86,test,1,inc,1,m,Mon Dec 15 2025 13:19:59 GMT-0500 (Eastern Standard Time),418514.0,banana,800,I,m,m,None,760,561.0,199.0,69,3,2091.9000000953674,416422.09999990463,9024,bronze,NF,C,393245,393245,391719,392528,391719,393811,393045,393045,393811,87
87,test,1,inc,1,z,Mon Dec 15 2025 13:19:59 GMT-0500 (Eastern Standard Time),420997.30000019073,copper,900,I,z,z,None,1040,841.0,199.0,14,3,2473.2000002861023,418524.09999990463,9024,cherry,NF,C,395445,395445,393821,394728,393821,396294,395245,395245,396294,88
88,test,1,con,1,m,Mon Dec 15 2025 13:19:59 GMT-0500 (Eastern Standard Time),423447.40000009537,copper,1100,I,m,m,None,806,606.0,200.0,76,3,2441.9000000953674,421005.5,9024,copper,NF,C,398128,398128,396303,397411,396303,398744,397928,397928,398744,89
89,test,1,con,1,m,Mon Dec 15 2025 13:19:59 GMT-0500 (Eastern Standard Time),425497.30000019073,zinc,800,I,m,m,None,704,504.0,200.0,113,3,2042.3000001907349,423455.0,9024,zinc,NF,C,400278,400278,398752,399561,398752,400794,400078,400078,400794,90
90,test,1,inc,1,m,Mon Dec 15 2025 13:19:59 GMT-0500 (Eastern Standard Time),428030.5,plum,1100,I,m,m,None,898,698.0,200.0,120,3,2523.7999997138977,425506.7000002861,9024,zinc,NF,C,402628,402628,400804,401911,400804,403328,402428,402428,403328,91
91,test,1,con,1,z,Mon Dec 15 2025 13:19:59 GMT-0500 (Eastern Standard Time),430314.0,plum,800,I,z,z,None,936,737.0,199.0,57,3,2274.4000000953674,428039.59999990463,9024,plum,NF,C,404861,404861,403337,404145,403337,405611,404662,404662,405611,92
92,test,1,inc,1,z,Mon Dec 15 2025 13:19:59 GMT-0500 (Eastern Standard Time),432797.30000019073,cobalt,1100,I,z,z,None,832,633.0,199.0,8,3,2475.0,430322.30000019073,9024,banana,NF,C,407445,407445,405619,406728,405620,408094,407245,407245,408094,93
93,test,1,con,1,m,Mon Dec 15 2025 13:19:59 GMT-0500 (Eastern Standard Time),434947.30000019073,gold,800,I,m,m,None,810,610.0,200.0,97,3,2139.2000002861023,432808.09999990463,9024,gold,NF,C,409628,409628,408105,408911,408105,410244,409428,409428,410244,94
94,test,1,inc,1,m,Mon Dec 15 2025 13:19:59 GMT-0500 (Eastern Standard Time),437214.09999990463,pear,900,I,m,m,None,832,632.0,200.0,126,3,2256.199999809265,434957.90000009537,9024,lead,NF,C,411878,411878,410255,411161,410255,412511,411678,411678,412511,95
95,test,1,con,1,m,Mon Dec 15 2025 13:19:59 GMT-0500 (Eastern Standard Time),439647.0,silver,900,I,m,m,None,996,797.0,199.0,82,3,2425.0,437222.0,9024,silver,NF,C,414145,414145,412519,413428,412519,414944,413945,413945,414944,96
96,test,1,inc,1,m,Mon Dec 15 2025 13:19:59 GMT-0500 (Eastern Standard Time),442164.0,plum,1100,I,m,m,None,875,675.0,200.0,104,3,2508.5999999046326,439655.40000009537,9024,gold,NF,C,416779,416779,414952,416062,414953,417461,416578,416578,417461,97
97,test,1,inc,1,m,Mon Dec 15 2025 13:19:59 GMT-0500 (Eastern Standard Time),444347.30000019073,orange,1000,I,m,m,None,634,435.0,199.0,71,3,2175.4000000953674,442171.90000009537,9024,bronze,NF,C,419195,419195,417469,418478,417469,419644,418995,418995,419644,98
98,test,1,con,1,m,Mon Dec 15 2025 13:19:59 GMT-0500 (Eastern Standard Time),446547.30000019073,bronze,1000,I,m,m,None,659,460.0,199.0,67,3,2192.300000190735,444355.0,9024,bronze,NF,C,421378,421378,419652,420661,419652,421844,421178,421178,421844,99
99,test,1,con,1,z,Mon Dec 15 2025 13:19:59 GMT-0500 (Eastern Standard Time),448963.90000009537,plum,1000,I,z,z,None,876,676.0,200.0,59,3,2406.4000000953674,446557.5,9024,plum,NF,C,423578,423578,421855,422861,421855,424261,423378,423378,424261,100
100,test,1,con,1,m,Mon Dec 15 2025 13:19:59 GMT-0500 (Eastern Standard Time),451147.30000019073,gold,900,I,m,m,None,734,535.0,199.0,98,3,2174.9000000953674,448972.40000009537,9024,gold,NF,C,425895,425895,424269,425178,424270,426444,425695,425695,426444,101
101,test,1,con,1,z,Mon Dec 15 2025 13:19:59 GMT-0500 (Eastern Standard Time),453880.5,pear,800,I,z,z,None,1388,1188.0,200.0,41,3,2722.5999999046326,451157.90000009537,9024,pear,NF,C,427978,427978,426455,427261,426455,429178,427778,427778,429178,102
102,test,1,inc,1,z,Mon Dec 15 2025 13:19:59 GMT-0500 (Eastern Standard Time),456364.0,silver,1000,I,z,z,None,935,735.0,200.0,23,3,2473.0999999046326,453890.90000009537,9024,orange,NF,C,430911,430911,429188,430195,429188,431661,430711,430711,431661,103
103,test,1,inc,1,z,Mon Dec 15 2025 13:19:59 GMT-0500 (Eastern Standard Time),458463.90000009537,copper,900,I,z,z,None,662,463.0,199.0,30,3,2089.5,456374.40000009537,9024,raisin,NF,C,433295,433295,431671,432578,431672,433761,433095,433095,433761,104
104,test,1,inc,1,m,Mon Dec 15 2025 13:19:59 GMT-0500 (Eastern Standard Time),460680.59999990463,kiwi,1000,I,m,m,None,670,471.0,199.0,119,3,2206.0,458474.59999990463,9024,zinc,NF,C,435495,435495,433772,434778,433772,435978,435295,435295,435978,105
105,test,1,con,1,m,Mon Dec 15 2025 13:19:59 GMT-0500 (Eastern Standard Time),462980.59999990463,cobalt,1000,I,m,m,None,759,559.0,200.0,91,3,2285.2999997138977,460695.30000019073,9024,cobalt,NF,C,437711,437711,435992,436995,435993,438278,437511,437511,438278,106
106,test,1,con,1,m,Mon Dec 15 2025 13:19:59 GMT-0500 (Eastern Standard Time),465413.80000019073,silver,1100,I,m,m,None,791,591.0,200.0,84,3,2425.4000000953674,462988.40000009537,9024,silver,NF,C,440111,440111,438285,439395,438286,440711,439911,439911,440711,107
107,test,1,inc,1,m,Mon Dec 15 2025 13:19:59 GMT-0500 (Eastern Standard Time),467647.09999990463,cherry,900,I,m,m,None,796,597.0,199.0,78,3,2224.7999997138977,465422.30000019073,9024,copper,NF,C,442345,442345,440719,441628,440720,442944,442145,442145,442944,108
108,test,1,con,1,z,Mon Dec 15 2025 13:19:59 GMT-0500 (Eastern Standard Time),469997.30000019073,orange,1000,I,z,z,None,800,600.0,200.0,19,3,2342.300000190735,467655.0,9024,orange,NF,C,444678,444678,442952,443961,442952,445294,444478,444478,445294,109
109,test,1,con,1,z,Mon Dec 15 2025 13:19:59 GMT-0500 (Eastern Standard Time),472463.7000002861,orange,900,I,z,z,None,1030,830.0,200.0,18,3,2457.0,470006.7000002861,9024,orange,NF,C,446928,446928,445304,446211,445304,447761,446728,446728,447761,110
110,test,1,inc,1,m,Mon Dec 15 2025 13:19:59 GMT-0500 (Eastern Standard Time),474580.59999990463,banana,800,I,m,m,None,774,575.0,199.0,77,3,2106.0,472474.59999990463,9024,copper,NF,C,449295,449295,447772,448578,447772,449878,449095,449095,449878,111
111,test,1,inc,1,m,Mon Dec 15 2025 13:19:59 GMT-0500 (Eastern Standard Time),476880.59999990463,plum,1100,I,m,m,None,663,463.0,200.0,128,3,2289.699999809265,474590.90000009537,9024,lead,NF,C,451711,451711,449888,450995,449888,452178,451511,451511,452178,112
112,test,1,inc,1,z,Mon Dec 15 2025 13:19:59 GMT-0500 (Eastern Standard Time),479197.40000009537,zinc,1000,I,z,z,None,783,583.0,200.0,39,3,2309.0,476888.40000009537,9024,lime,NF,C,453911,453911,452185,453195,452186,454494,453711,453711,454494,113
112,test,1,inc,0,z,Mon Dec 15 2025 13:19:59 GMT-0500 (Eastern Standard Time),481363.90000009537,zinc,1000,I,m,m,None,625,426.0,199.0,63,3,2158.0,479205.90000009537,9024,plum,NF,C,456228,456228,454503,455511,454503,456661,456028,456028,456661,114
113,test,1,inc,1,m,Mon Dec 15 2025 13:19:59 GMT-0500 (Eastern Standard Time),483513.90000009537,cherry,900,I,m,m,None,702,503.0,199.0,86,3,2139.800000190735,481374.09999990463,9024,silver,NF,C,458295,458295,456671,457578,456672,458811,458095,458095,458811,115
114,test,1,inc,1,z,Mon Dec 15 2025 13:19:59 GMT-0500 (Eastern Standard Time),485630.5,bronze,800,I,z,z,None,780,581.0,199.0,29,3,2107.5999999046326,483522.90000009537,9024,raisin,NF,C,460345,460345,458820,459628,458820,460928,460145,460145,460927,116
115,test,1,con,1,z,Mon Dec 15 2025 13:19:59 GMT-0500 (Eastern Standard Time),488230.59999990463,lime,1100,I,z,z,None,957,757.0,200.0,36,3,2592.0999999046326,485638.5,9024,lime,NF,C,462761,462761,460936,462045,460936,463528,462561,462561,463528,117
116,test,1,inc,1,m,Mon Dec 15 2025 13:19:59 GMT-0500 (Eastern Standard Time),490680.59999990463,plum,1100,I,m,m,None,805,605.0,200.0,112,3,2439.699999809265,488240.90000009537,9024,iron,NF,C,465361,465361,463538,464645,463538,465978,465161,465161,465978,118
117,test,1,con,1,z,Mon Dec 15 2025 13:19:59 GMT-0500 (Eastern Standard Time),493063.80000019073,raisin,800,I,z,z,None,1039,839.0,200.0,25,3,2374.9000000953674,490688.90000009537,9024,raisin,NF,C,467511,467511,465986,466795,465986,468361,467311,467311,468361,119
118,test,1,con,1,z,Mon Dec 15 2025 13:19:59 GMT-0500 (Eastern Standard Time),495364.0,orange,800,I,z,z,None,958,759.0,199.0,17,3,2291.0,493073.0,9024,orange,NF,C,469895,469895,468370,469178,468370,470661,469695,469695,470661,120
119,test,1,inc,1,m,Mon Dec 15 2025 13:19:59 GMT-0500 (Eastern Standard Time),497746.59999990463,orange,1000,I,m,m,None,841,642.0,199.0,95,3,2375.199999809265,495371.40000009537,9024,cobalt,NF,C,472395,472395,470668,471678,470669,473044,472195,472195,473044,121
120,test,1,con,1,z,Mon Dec 15 2025 13:19:59 GMT-0500 (Eastern Standard Time),500280.59999990463,raisin,1100,I,z,z,None,888,688.0,200.0,28,3,2528.699999809265,497751.90000009537,9024,raisin,NF,C,474878,474878,473049,474161,473049,475578,474678,474678,475578,122
120,test,1,con,0,z,Mon Dec 15 2025 13:19:59 GMT-0500 (Eastern Standard Time),503813.90000009537,kiwi,1000,I,None,None,None,1800,1800.0,200.0,51,3,3524.800000190735,500289.09999990463,9024,kiwi,NF,C,477311,477311,475586,476595,475586,479111,477111,477111,479111,123
121,test,1,con,1,z,Mon Dec 15 2025 13:19:59 GMT-0500 (Eastern Standard Time),506047.0,banana,1000,I,z,z,None,697,498.0,199.0,3,3,2223.7999997138977,503823.2000002861,9024,banana,NF,C,480844,480844,479120,480128,479121,481344,480645,480645,481344,124
122,test,1,con,1,m,Mon Dec 15 2025 13:19:59 GMT-0500 (Eastern Standard Time),508497.2000002861,bronze,1100,I,m,m,None,811,612.0,199.0,68,3,2442.4000000953674,506054.80000019073,9024,bronze,NF,C,483178,483178,481352,482461,481352,483794,482978,482978,483794,125
123,test,1,inc,1,m,Mon Dec 15 2025 13:19:59 GMT-0500 (Eastern Standard Time),510613.5,banana,800,I,m,m,None,773,573.0,200.0,93,3,2104.9000000953674,508508.59999990463,9024,cobalt,NF,C,485328,485328,483806,484611,483806,485911,485128,485128,485911,126
124,test,1,inc,1,z,Mon Dec 15 2025 13:19:59 GMT-0500 (Eastern Standard Time),513280.5,lead,1100,I,z,z,None,1028,829.0,199.0,64,3,2660.2999997138977,510620.2000002861,9024,plum,NF,C,487745,487745,485917,487028,485917,488578,487545,487545,488578,127
125,test,1,inc,1,m,Mon Dec 15 2025 13:19:59 GMT-0500 (Eastern Standard Time),516097.2000002861,raisin,1100,I,m,m,None,1179,979.0,200.0,80,3,2805.5,513291.7000002861,9024,copper,NF,C,490411,490411,488589,489695,488589,491394,490211,490211,491394,128
