acc_sum,block,block_c,condition,correct,correct_response,datetime,endtime,flanker,jitter,project,response,response_test_buffer_response,response_test_target_response,response_time,response_time_test_buffer_response,response_time_test_target_response,row_sel,session_number,start_end,starttime,subject_id,target,task,task_vers,time_test_buffer,time_test_buffer_response,time_test_constants,time_test_flanker,time_test_jitter,time_test_logger,time_test_target,time_test_target_response,time_test_variables,trial
0,prac,1,con,0,m,Wed Mar 18 2026 13:50:40 GMT-0500 (Central Daylight Time),121749.69999992847,bell,1000,O,None,,,1801,,,3,1,5063.899999976158,116685.79999995232,7782,bell,AF,B,,,,,,,,,,1
1,prac,1,con,1,m,Wed Mar 18 2026 13:50:40 GMT-0500 (Central Daylight Time),124266.79999995232,jacket,800,O,m,,,423,,,5,1,2513.2000000476837,121753.59999990463,7782,jacket,AF,B,,,,,,,,,,2
2,prac,1,inc,1,m,Wed Mar 18 2026 13:50:40 GMT-0500 (Central Daylight Time),127497.69999992847,hate,1100,O,m,,,816,,,4,1,3227.1999999284744,124270.5,7782,film,AF,B,,,,,,,,,,3
3,prac,1,inc,1,z,Wed Mar 18 2026 13:50:40 GMT-0500 (Central Daylight Time),130446.39999997616,film,900,O,z,,,744,,,14,1,2945.7000000476837,127500.69999992847,7782,hate,AF,B,,,,,,,,,,4
4,prac,1,con,1,z,Wed Mar 18 2026 13:50:40 GMT-0500 (Central Daylight Time),133212.09999990463,elated,800,O,z,,,662,,,9,1,2762.2999999523163,130449.79999995232,7782,elated,AF,B,,,,,,,,,,5
5,prac,1,inc,1,m,Wed Mar 18 2026 13:50:40 GMT-0500 (Central Daylight Time),136078.09999990463,elated,900,O,m,,,661,,,6,1,2861.0,133217.09999990463,7782,napkin,AF,B,,,,,,,,,,6
6,prac,1,con,1,z,Wed Mar 18 2026 13:50:40 GMT-0500 (Central Daylight Time),138943.79999995232,brutal,800,O,z,,,750,,,13,1,2862.2999999523163,136081.5,7782,brutal,AF,B,,,,,,,,,,7
7,prac,1,con,1,z,Wed Mar 18 2026 13:50:40 GMT-0500 (Central Daylight Time),141926.29999995232,rage,1000,O,z,,,685,,,15,1,2979.0,138947.29999995232,7782,rage,AF,B,,,,,,,,,,8
8,prac,1,inc,1,m,Wed Mar 18 2026 13:50:40 GMT-0500 (Central Daylight Time),144926.5,brutal,1100,O,m,,,586,,,8,1,2996.2000000476837,141930.29999995232,7782,window,AF,B,,,,,,,,,,9
9,prac,1,inc,1,z,Wed Mar 18 2026 13:50:40 GMT-0500 (Central Daylight Time),148124.79999995232,window,1100,O,z,,,787,,,16,1,3193.899999976158,144930.89999997616,7782,temper,AF,B,,,,,,,,,,10
10,prac,1,inc,1,z,Wed Mar 18 2026 13:50:40 GMT-0500 (Central Daylight Time),151073.5,rock,900,O,z,,,742,,,10,1,2945.3000000715256,148128.19999992847,7782,kind,AF,B,,,,,,,,,,11
11,prac,1,inc,1,m,Wed Mar 18 2026 13:50:40 GMT-0500 (Central Daylight Time),154089.0,kind,900,O,m,,,815,,,2,1,3012.5,151076.5,7782,rock,AF,B,,,,,,,,,,12
12,prac,1,con,1,m,Wed Mar 18 2026 13:50:40 GMT-0500 (Central Daylight Time),157271.79999995232,remote,1000,O,m,,,876,,,7,1,3179.600000023842,154092.19999992847,7782,remote,AF,B,,,,,,,,,,13
13,prac,1,con,1,m,Wed Mar 18 2026 13:50:40 GMT-0500 (Central Daylight Time),160236.39999997616,step,800,O,m,,,854,,,1,1,2961.3000000715256,157275.09999990463,7782,step,AF,B,,,,,,,,,,14
14,prac,1,inc,1,z,Wed Mar 18 2026 13:50:40 GMT-0500 (Central Daylight Time),163369.69999992847,napkin,1100,O,z,,,731,,,12,1,3130.1999999284744,160239.5,7782,friend,AF,B,,,,,,,,,,15
15,prac,1,con,1,z,Wed Mar 18 2026 13:50:40 GMT-0500 (Central Daylight Time),166385.19999992847,love,1000,O,z,,,722,,,11,1,3011.1999999284744,163374.0,7782,love,AF,B,,,,,,,,,,16
0,test,1,con,0,z,Wed Mar 18 2026 13:50:40 GMT-0500 (Central Daylight Time),190944.19999992847,friend,1100,O,None,None,None,1799,1799.0,200.0,28,1,3628.899999976158,187315.29999995232,7782,friend,AF,B,186781,186781,184951,186065,184952,188580,186580,186580,188580,1
1,test,1,con,1,z,Wed Mar 18 2026 13:50:40 GMT-0500 (Central Daylight Time),192827.09999990463,hate,800,O,z,z,None,534,334.0,200.0,41,1,1879.5999999046326,190947.5,7782,hate,AF,B,190113,190113,188584,189397,188584,190463,189913,189913,190463,2
2,test,1,con,1,m,Wed Mar 18 2026 13:50:40 GMT-0500 (Central Daylight Time),194815.69999992847,rock,900,O,m,m,None,551,350.0,201.0,74,1,1985.3999999761581,192830.29999995232,7782,rock,AF,B,192097,192097,190466,191381,190467,192452,191896,191896,192452,3
3,test,1,con,1,z,Wed Mar 18 2026 13:50:40 GMT-0500 (Central Daylight Time),197075.19999992847,kind,1000,O,z,z,None,716,516.0,200.0,11,1,2256.2999999523163,194818.89999997616,7782,kind,AF,B,194179,194179,192455,193463,192455,194711,193979,193979,194711,4
4,test,1,inc,1,z,Wed Mar 18 2026 13:50:40 GMT-0500 (Central Daylight Time),199141.29999995232,jacket,800,O,z,z,None,720,521.0,199.0,61,1,2063.100000023842,197078.19999992847,7782,temper,AF,B,196245,196245,194714,195528,194714,196777,196045,196045,196777,5
5,test,1,con,1,m,Wed Mar 18 2026 13:50:40 GMT-0500 (Central Daylight Time),201157.39999997616,step,800,O,m,m,None,670,471.0,199.0,65,1,2013.2000000476837,199144.19999992847,7782,step,AF,B,198311,198311,196780,197594,196780,198793,198111,198111,198793,6
6,test,1,con,1,m,Wed Mar 18 2026 13:50:40 GMT-0500 (Central Daylight Time),203056.69999992847,bell,800,O,m,m,None,558,359.0,199.0,81,1,1895.7999999523163,201160.89999997616,7782,bell,AF,B,200327,200327,198797,199610,198797,200693,200127,200127,200693,7
7,test,1,inc,1,z,Wed Mar 18 2026 13:50:40 GMT-0500 (Central Daylight Time),205190.0,jacket,800,O,z,z,None,781,582.0,199.0,29,1,2130.100000023842,203059.89999997616,7782,friend,AF,B,202226,202226,200696,201510,200696,202826,202026,202026,202826,8
8,test,1,con,1,z,Wed Mar 18 2026 13:50:40 GMT-0500 (Central Daylight Time),207305.29999995232,kind,900,O,z,z,None,683,468.0,215.0,10,1,2112.2000000476837,205193.09999990463,7782,kind,AF,B,204458,204458,202829,203741,202829,204941,204243,204243,204941,9
9,test,1,inc,1,z,Wed Mar 18 2026 13:50:40 GMT-0500 (Central Daylight Time),209271.69999992847,rock,900,O,z,z,None,544,345.0,199.0,46,1,1963.6999999284744,207308.0,7782,hate,AF,B,206558,206558,204944,205858,204944,206908,206359,206359,206908,10
10,test,1,inc,1,m,Wed Mar 18 2026 13:50:40 GMT-0500 (Central Daylight Time),211204.0,rage,800,O,m,m,None,598,399.0,199.0,85,1,1929.2000000476837,209274.79999995232,7782,bell,AF,B,208441,208441,206911,207724,206911,208840,208241,208241,208840,11
11,test,1,con,1,m,Wed Mar 18 2026 13:50:40 GMT-0500 (Central Daylight Time),213870.39999997616,rock,1100,O,m,m,None,1021,822.0,199.0,76,1,2663.3000000715256,211207.09999990463,7782,rock,AF,B,210673,210673,208843,209957,208843,211506,210474,210474,211506,12
12,test,1,inc,1,z,Wed Mar 18 2026 13:50:40 GMT-0500 (Central Daylight Time),216002.39999997616,bell,1000,O,z,z,None,591,391.0,200.0,23,1,2129.399999976158,213873.0,7782,love,AF,B,213239,213239,211509,212523,211509,213639,213039,213039,213638,13
13,test,1,inc,1,m,Wed Mar 18 2026 13:50:40 GMT-0500 (Central Daylight Time),218052.59999990463,brutal,900,O,m,m,None,616,417.0,199.0,102,1,2047.2999999523163,216005.29999995232,7782,jacket,AF,B,215271,215271,213641,214556,213642,215689,215072,215072,215689,14
14,test,1,inc,1,z,Wed Mar 18 2026 13:50:40 GMT-0500 (Central Daylight Time),220234.29999995232,napkin,900,O,z,z,None,733,533.0,200.0,30,1,2178.600000023842,218055.69999992847,7782,friend,AF,B,217321,217321,215692,216605,215692,217870,217121,217121,217870,15
15,test,1,con,1,m,Wed Mar 18 2026 13:50:40 GMT-0500 (Central Daylight Time),222517.19999992847,bell,1100,O,m,m,None,637,438.0,199.0,84,1,2279.600000023842,220237.59999990463,7782,bell,AF,B,219704,219704,217874,218988,217874,220153,219504,219504,220153,16
16,test,1,inc,1,m,Wed Mar 18 2026 13:50:40 GMT-0500 (Central Daylight Time),224967.0,hate,1100,O,m,m,None,804,605.0,199.0,72,1,2445.7000000476837,222521.29999995232,7782,step,AF,B,221986,221986,220157,221270,220158,222603,221787,221787,222603,17
17,test,1,inc,1,m,Wed Mar 18 2026 13:50:40 GMT-0500 (Central Daylight Time),227149.5,love,1000,O,m,m,None,639,439.0,200.0,79,1,2179.5,224970.0,7782,rock,AF,B,224336,224336,222606,223620,222606,224786,224136,224136,224786,18
18,test,1,con,1,z,Wed Mar 18 2026 13:50:40 GMT-0500 (Central Daylight Time),229381.89999997616,love,1000,O,z,z,None,688,489.0,199.0,19,1,2229.0,227152.89999997616,7782,love,AF,B,226518,226518,224789,225802,224789,227018,226318,226318,227018,19
19,test,1,inc,1,z,Wed Mar 18 2026 13:50:40 GMT-0500 (Central Daylight Time),231314.29999995232,step,800,O,z,z,None,591,392.0,199.0,21,1,1928.6000000238419,229385.69999992847,7782,love,AF,B,228550,228550,227022,227834,227022,228950,228351,228351,228950,20
20,test,1,inc,1,m,Wed Mar 18 2026 13:50:40 GMT-0500 (Central Daylight Time),233247.09999990463,rage,800,O,m,m,None,595,395.0,200.0,69,1,1926.7999999523163,231320.29999995232,7782,step,AF,B,230483,230483,228956,229767,228957,230883,230283,230283,230883,21
21,test,1,con,1,m,Wed Mar 18 2026 13:50:40 GMT-0500 (Central Daylight Time),235663.79999995232,remote,1000,O,m,m,None,895,695.0,200.0,115,1,2412.899999976158,233250.89999997616,7782,remote,AF,B,232600,232600,230887,231899,230887,233300,232400,232400,233300,22
22,test,1,inc,1,z,Wed Mar 18 2026 13:50:40 GMT-0500 (Central Daylight Time),237946.29999995232,window,1100,O,z,z,None,642,442.0,200.0,8,1,2279.399999976158,235666.89999997616,7782,elated,AF,B,235133,235133,233303,234416,233303,235582,234932,234932,235582,23
23,test,1,con,1,m,Wed Mar 18 2026 13:50:40 GMT-0500 (Central Daylight Time),240261.29999995232,napkin,1100,O,m,m,None,670,471.0,199.0,108,1,2311.7000000476837,237949.59999990463,7782,napkin,AF,B,237415,237415,235586,236698,235586,237897,237215,237215,237897,24
24,test,1,con,1,z,Wed Mar 18 2026 13:50:40 GMT-0500 (Central Daylight Time),242528.29999995232,rage,1100,O,z,z,None,636,425.0,211.0,52,1,2264.2999999523163,240264.0,7782,rage,AF,B,239733,239733,237900,239016,237900,240164,239521,239521,240164,25
25,test,1,con,1,m,Wed Mar 18 2026 13:50:40 GMT-0500 (Central Daylight Time),244577.29999995232,napkin,900,O,m,m,None,609,409.0,200.0,106,1,2045.7000000476837,242531.59999990463,7782,napkin,AF,B,241797,241797,240168,241080,240168,242213,241597,241597,242213,26
26,test,1,con,1,z,Wed Mar 18 2026 13:50:40 GMT-0500 (Central Daylight Time),246893.09999990463,friend,1000,O,z,z,None,780,580.0,200.0,27,1,2312.7999999523163,244580.29999995232,7782,friend,AF,B,243946,243946,242216,243230,242216,244529,243746,243746,244529,27
27,test,1,con,1,m,Wed Mar 18 2026 13:50:40 GMT-0500 (Central Daylight Time),248925.29999995232,film,800,O,m,m,None,687,488.0,199.0,89,1,2029.3999999761581,246895.89999997616,7782,film,AF,B,246062,246062,244532,245346,244532,246561,245863,245863,246561,28
28,test,1,inc,1,m,Wed Mar 18 2026 13:50:40 GMT-0500 (Central Daylight Time),251358.29999995232,temper,1000,O,m,m,None,895,696.0,199.0,119,1,2430.0,248928.29999995232,7782,remote,AF,B,248294,248294,246564,247579,246565,248994,248095,248095,248994,29
29,test,1,inc,1,m,Wed Mar 18 2026 13:50:40 GMT-0500 (Central Daylight Time),253473.59999990463,brutal,900,O,m,m,None,666,465.0,201.0,126,1,2111.5999999046326,251362.0,7782,window,AF,B,250629,250629,248998,249911,248998,251110,250427,250427,251110,30
30,test,1,inc,1,m,Wed Mar 18 2026 13:50:40 GMT-0500 (Central Daylight Time),255857.0,hate,1100,O,m,m,None,741,542.0,199.0,96,1,2380.4000000953674,253476.59999990463,7782,film,AF,B,252944,252944,251113,252228,251113,253493,252744,252744,253493,31
31,test,1,inc,1,m,Wed Mar 18 2026 13:50:40 GMT-0500 (Central Daylight Time),258022.59999990463,love,1000,O,m,m,None,620,420.0,200.0,87,1,2162.6999999284744,255859.89999997616,7782,bell,AF,B,255226,255226,253496,254510,253496,255659,255026,255026,255659,32
32,test,1,inc,1,m,Wed Mar 18 2026 13:50:40 GMT-0500 (Central Daylight Time),260055.5,kind,900,O,m,m,None,594,395.0,199.0,70,1,2030.3000000715256,258025.19999992847,7782,step,AF,B,257291,257291,255661,256576,255661,257692,257092,257092,257692,33
32,test,1,con,0,z,Wed Mar 18 2026 13:50:40 GMT-0500 (Central Daylight Time),262038.5,friend,900,O,m,m,None,546,345.0,201.0,26,1,1980.5,260058.0,7782,friend,AF,B,259325,259325,257694,258608,257694,259675,259124,259124,259675,34
33,test,1,con,1,z,Wed Mar 18 2026 13:50:40 GMT-0500 (Central Daylight Time),264070.89999997616,kind,800,O,z,z,None,694,495.0,199.0,9,1,2029.5,262041.39999997616,7782,kind,AF,B,261207,261207,259677,260492,259678,261707,261007,261007,261707,35
34,test,1,inc,1,m,Wed Mar 18 2026 13:50:40 GMT-0500 (Central Daylight Time),266070.5,elated,800,O,m,m,None,661,461.0,200.0,125,1,1996.5,264074.0,7782,window,AF,B,263242,263242,261710,262525,261710,263707,263041,263041,263707,36
35,test,1,inc,1,m,Wed Mar 18 2026 13:50:40 GMT-0500 (Central Daylight Time),268419.39999997616,temper,1000,O,m,m,None,816,615.0,201.0,127,1,2345.3000000715256,266074.09999990463,7782,window,AF,B,265440,265440,263710,264724,263710,266055,265239,265239,266055,37
36,test,1,inc,1,m,Wed Mar 18 2026 13:50:40 GMT-0500 (Central Daylight Time),270619.2999999523,love,1000,O,m,m,None,649,450.0,199.0,95,1,2197.100000023842,268422.1999999285,7782,film,AF,B,267788,267788,266058,267073,266058,268255,267589,267589,268255,38
37,test,1,con,1,m,Wed Mar 18 2026 13:50:40 GMT-0500 (Central Daylight Time),272533.59999990463,rock,800,O,m,m,None,578,378.0,200.0,73,1,1911.1999999284744,270622.39999997616,7782,rock,AF,B,269788,269788,268258,269071,268259,270170,269588,269588,270170,39
38,test,1,inc,1,z,Wed Mar 18 2026 13:50:40 GMT-0500 (Central Daylight Time),274700.09999990463,film,1100,O,z,z,None,529,329.0,200.0,48,1,2163.7999999523163,272536.2999999523,7782,hate,AF,B,272005,272005,270172,271288,270173,272336,271804,271804,272336,40
39,test,1,con,1,z,Wed Mar 18 2026 13:50:40 GMT-0500 (Central Daylight Time),276783.0,brutal,1000,O,z,z,None,537,335.0,202.0,35,1,2079.9000000953674,274703.09999990463,7782,brutal,AF,B,274071,274071,272339,273354,272339,274419,273869,273869,274419,41
40,test,1,inc,1,m,Wed Mar 18 2026 13:50:40 GMT-0500 (Central Daylight Time),278949.59999990463,temper,1000,O,m,m,None,645,446.0,199.0,111,1,2163.1999999284744,276786.39999997616,7782,napkin,AF,B,276137,276137,274422,275436,274423,276586,275937,275937,276586,42
41,test,1,con,1,z,Wed Mar 18 2026 13:50:40 GMT-0500 (Central Daylight Time),281082.2999999523,hate,900,O,z,z,None,691,491.0,200.0,42,1,2129.600000023842,278952.6999999285,7782,hate,AF,B,278219,278219,276589,277502,276589,278718,278018,278018,278718,43
42,test,1,con,1,z,Wed Mar 18 2026 13:50:40 GMT-0500 (Central Daylight Time),283381.2999999523,hate,1100,O,z,z,None,654,455.0,199.0,44,1,2296.100000023842,281085.1999999285,7782,hate,AF,B,280551,280551,278721,279834,278721,281017,280351,280351,281017,44
43,test,1,con,1,z,Wed Mar 18 2026 13:50:40 GMT-0500 (Central Daylight Time),285614.39999997616,temper,1000,O,z,z,None,687,488.0,199.0,59,1,2230.2000000476837,283384.1999999285,7782,temper,AF,B,282750,282750,281020,282034,281020,283250,282551,282551,283250,45
44,test,1,inc,1,z,Wed Mar 18 2026 13:50:40 GMT-0500 (Central Daylight Time),287846.59999990463,bell,1000,O,z,z,None,687,488.0,199.0,47,1,2228.1999999284744,285618.39999997616,7782,hate,AF,B,284982,284982,283254,284266,283255,285483,284783,284783,285483,46
45,test,1,con,1,m,Wed Mar 18 2026 13:50:40 GMT-0500 (Central Daylight Time),290145.5,window,1100,O,m,m,None,651,452.0,199.0,124,1,2295.5,287850.0,7782,window,AF,B,287314,287314,285486,286603,285486,287782,287115,287115,287781,47
46,test,1,con,1,z,Wed Mar 18 2026 13:50:40 GMT-0500 (Central Daylight Time),292062.09999990463,brutal,800,O,z,z,None,579,380.0,199.0,33,1,1913.5,290148.59999990463,7782,brutal,AF,B,289314,289314,287785,288599,287785,289698,289115,289115,289698,48
47,test,1,inc,1,z,Wed Mar 18 2026 13:50:40 GMT-0500 (Central Daylight Time),294277.09999990463,film,1100,O,z,z,None,586,387.0,199.0,24,1,2212.1999999284744,292064.89999997616,7782,love,AF,B,291515,291515,289701,290814,289701,291913,291315,291315,291913,49
48,test,1,con,1,m,Wed Mar 18 2026 13:50:40 GMT-0500 (Central Daylight Time),296277.59999990463,jacket,900,O,m,m,None,556,354.0,202.0,98,1,1997.5,294280.09999990463,7782,jacket,AF,B,293548,293548,291916,292830,291916,293914,293346,293346,293914,50
49,test,1,inc,1,m,Wed Mar 18 2026 13:50:40 GMT-0500 (Central Daylight Time),298460.2999999523,kind,900,O,m,m,None,750,551.0,199.0,94,1,2179.7000000476837,296280.59999990463,7782,film,AF,B,295545,295545,293917,294829,293917,296096,295346,295346,296096,51
50,test,1,con,1,z,Wed Mar 18 2026 13:50:40 GMT-0500 (Central Daylight Time),300542.7999999523,brutal,900,O,z,z,None,645,446.0,199.0,34,1,2079.899999976158,298462.89999997616,7782,brutal,AF,B,297728,297728,296099,297013,296099,298179,297529,297529,298179,52
51,test,1,con,1,m,Wed Mar 18 2026 13:50:40 GMT-0500 (Central Daylight Time),302624.39999997616,remote,800,O,m,m,None,742,543.0,199.0,113,1,2078.0,300546.39999997616,7782,remote,AF,B,299711,299711,298182,298995,298183,300260,299512,299512,300260,53
52,test,1,inc,1,z,Wed Mar 18 2026 13:50:40 GMT-0500 (Central Daylight Time),304624.2999999523,napkin,900,O,z,z,None,551,352.0,199.0,38,1,1997.1000000238419,302627.1999999285,7782,brutal,AF,B,301894,301894,300263,301180,300263,302260,301695,301695,302260,54
53,test,1,con,1,z,Wed Mar 18 2026 13:50:40 GMT-0500 (Central Daylight Time),306924.0,elated,1100,O,z,z,None,672,457.0,215.0,4,1,2296.8000000715256,304627.1999999285,7782,elated,AF,B,304093,304093,302263,303377,302263,304560,303878,303878,304560,55
54,test,1,con,1,m,Wed Mar 18 2026 13:50:40 GMT-0500 (Central Daylight Time),308972.6999999285,step,900,O,m,m,None,613,412.0,201.0,66,1,2045.8999999761581,306926.7999999523,7782,step,AF,B,306194,306194,304563,305477,304563,306609,305992,305992,306609,56
55,test,1,con,1,z,Wed Mar 18 2026 13:50:40 GMT-0500 (Central Daylight Time),311040.09999990463,rage,800,O,z,z,None,721,521.0,200.0,49,1,2064.0,308976.09999990463,7782,rage,AF,B,308142,308142,306612,307425,306612,308676,307942,307942,308676,57
56,test,1,inc,1,z,Wed Mar 18 2026 13:50:40 GMT-0500 (Central Daylight Time),313155.39999997616,rock,900,O,z,z,None,685,474.0,211.0,14,1,2112.600000023842,311042.7999999523,7782,kind,AF,B,310309,310309,308679,309592,308679,310791,310097,310097,310791,58
57,test,1,inc,1,m,Wed Mar 18 2026 13:50:40 GMT-0500 (Central Daylight Time),315171.59999990463,kind,900,O,m,m,None,566,367.0,199.0,78,1,2013.5999999046326,313158.0,7782,rock,AF,B,312423,312424,310794,311708,310794,312808,312224,312224,312808,59
58,test,1,con,1,z,Wed Mar 18 2026 13:50:40 GMT-0500 (Central Daylight Time),317370.39999997616,love,1100,O,z,z,None,559,359.0,200.0,20,1,2196.2000000476837,315174.1999999285,7782,love,AF,B,314640,314640,312810,313924,312810,315006,314440,314440,315006,60
59,test,1,con,1,z,Wed Mar 18 2026 13:50:40 GMT-0500 (Central Daylight Time),319453.5,elated,800,O,z,z,None,747,547.0,200.0,1,1,2080.4000000953674,317373.09999990463,7782,elated,AF,B,316540,316540,315009,315823,315009,317090,316340,316340,317090,61
60,test,1,inc,1,z,Wed Mar 18 2026 13:50:40 GMT-0500 (Central Daylight Time),321369.39999997616,jacket,800,O,z,z,None,575,376.0,199.0,37,1,1912.8999999761581,319456.5,7782,brutal,AF,B,318623,318623,317093,317906,317093,319006,318423,318423,319005,62
61,test,1,con,1,m,Wed Mar 18 2026 13:50:40 GMT-0500 (Central Daylight Time),323502.2999999523,bell,1000,O,m,m,None,589,389.0,200.0,83,1,2129.899999976158,321372.39999997616,7782,bell,AF,B,320738,320738,319008,320022,319009,321138,320538,320538,321138,63
62,test,1,inc,1,m,Wed Mar 18 2026 13:50:40 GMT-0500 (Central Daylight Time),325668.6999999285,elated,800,O,m,m,None,817,617.0,200.0,117,1,2163.2999999523163,323505.39999997616,7782,remote,AF,B,322671,322671,321141,321954,321142,323305,322470,322470,323305,64
63,test,1,con,1,m,Wed Mar 18 2026 13:50:40 GMT-0500 (Central Daylight Time),327717.39999997616,jacket,800,O,m,m,None,718,502.0,216.0,97,1,2045.3999999761581,325672.0,7782,jacket,AF,B,324840,324840,323308,324120,323308,325353,324623,324624,325353,65
64,test,1,inc,1,m,Wed Mar 18 2026 13:50:40 GMT-0500 (Central Daylight Time),329983.7999999523,hate,1100,O,m,m,None,629,428.0,201.0,88,1,2263.2999999523163,327720.5,7782,bell,AF,B,327187,327187,325357,326469,325357,327620,326986,326986,327620,66
65,test,1,con,1,m,Wed Mar 18 2026 13:50:40 GMT-0500 (Central Daylight Time),332150.5,napkin,1000,O,m,m,None,621,406.0,215.0,107,1,2164.0,329986.5,7782,napkin,AF,B,329369,329369,327622,328636,327623,329787,329154,329154,329787,67
66,test,1,inc,1,z,Wed Mar 18 2026 13:50:40 GMT-0500 (Central Daylight Time),334399.5,film,1100,O,z,z,None,603,402.0,201.0,56,1,2246.2000000476837,332153.2999999523,7782,rage,AF,B,331621,331621,329789,330902,329790,332036,331419,331419,332036,68
67,test,1,con,1,z,Wed Mar 18 2026 13:50:40 GMT-0500 (Central Daylight Time),336715.39999997616,kind,1100,O,z,z,None,676,476.0,200.0,12,1,2313.100000023842,334402.2999999523,7782,kind,AF,B,333867,333867,332038,333152,332039,334351,333667,333667,334351,69
68,test,1,inc,1,m,Wed Mar 18 2026 13:50:40 GMT-0500 (Central Daylight Time),338746.89999997616,rage,800,O,m,m,None,690,489.0,201.0,77,1,2028.0,336718.89999997616,7782,rock,AF,B,335884,335885,334355,335167,334355,336383,335683,335683,336383,70
69,test,1,inc,1,m,Wed Mar 18 2026 13:50:40 GMT-0500 (Central Daylight Time),340880.1999999285,brutal,900,O,m,m,None,685,486.0,199.0,110,1,2130.899999976158,338749.2999999523,7782,napkin,AF,B,338016,338016,336385,337300,336385,338516,337817,337817,338516,71
70,test,1,con,1,m,Wed Mar 18 2026 13:50:40 GMT-0500 (Central Daylight Time),343379.1999999285,window,900,O,m,m,None,1047,833.0,214.0,122,1,2496.100000023842,340883.09999990463,7782,window,AF,B,340165,340165,338519,339433,338519,341015,339951,339951,341015,72
71,test,1,con,1,m,Wed Mar 18 2026 13:50:40 GMT-0500 (Central Daylight Time),345312.0,napkin,800,O,m,m,None,586,386.0,200.0,105,1,1930.3000000715256,343381.6999999285,7782,napkin,AF,B,342548,342548,341018,341831,341018,342948,342348,342348,342948,73
72,test,1,inc,1,m,Wed Mar 18 2026 13:50:40 GMT-0500 (Central Daylight Time),347610.59999990463,friend,1100,O,m,m,None,666,466.0,200.0,128,1,2295.7999999523163,345314.7999999523,7782,window,AF,B,344781,344781,342951,344064,342951,345247,344581,344581,345247,74
73,test,1,inc,1,z,Wed Mar 18 2026 13:50:40 GMT-0500 (Central Daylight Time),349460.0,step,800,O,z,z,None,505,306.0,199.0,53,1,1846.8000000715256,347613.1999999285,7782,rage,AF,B,346780,346780,345249,346064,345249,347096,346580,346580,347096,75
74,test,1,inc,1,m,Wed Mar 18 2026 13:50:40 GMT-0500 (Central Daylight Time),351825.89999997616,hate,1100,O,m,m,None,717,517.0,200.0,80,1,2363.3000000715256,349462.59999990463,7782,rock,AF,B,348929,348929,347099,348213,347099,349462,348729,348729,349462,76
75,test,1,con,1,z,Wed Mar 18 2026 13:50:40 GMT-0500 (Central Daylight Time),353825.6999999285,friend,800,O,z,z,None,660,460.0,200.0,25,1,1996.7999999523163,351828.89999997616,7782,friend,AF,B,350995,350995,349465,350279,349465,351462,350795,350795,351462,77
75,test,1,inc,0,m,Wed Mar 18 2026 13:50:40 GMT-0500 (Central Daylight Time),355608.89999997616,brutal,900,O,z,z,None,344,144.0,200.0,118,1,1780.1000000238419,353828.7999999523,7782,remote,AF,B,353095,353095,351465,352379,351465,353245,352894,352894,353245,78
76,test,1,inc,1,z,Wed Mar 18 2026 13:50:40 GMT-0500 (Central Daylight Time),357991.0,film,1100,O,z,z,None,737,538.0,199.0,16,1,2379.0,355612.0,7782,kind,AF,B,355077,355077,353248,354361,353248,355627,354877,354877,355627,79
77,test,1,inc,1,z,Wed Mar 18 2026 13:50:40 GMT-0500 (Central Daylight Time),360240.5,napkin,900,O,z,z,None,811,601.0,210.0,62,1,2246.5,357994.0,7782,temper,AF,B,357261,357261,355630,356543,355630,357877,357050,357050,357877,80
78,test,1,inc,1,z,Wed Mar 18 2026 13:50:40 GMT-0500 (Central Daylight Time),362423.39999997616,rock,900,O,z,z,None,737,537.0,200.0,54,1,2180.100000023842,360243.2999999523,7782,rage,AF,B,359510,359510,357879,358793,357880,360060,359309,359309,360059,81
79,test,1,inc,1,m,Wed Mar 18 2026 13:50:40 GMT-0500 (Central Daylight Time),364505.6999999285,elated,800,O,m,m,None,734,535.0,199.0,101,1,2077.399999976158,362428.2999999523,7782,jacket,AF,B,361591,361591,360064,360876,360065,362142,361392,361392,362142,82
80,test,1,inc,1,z,Wed Mar 18 2026 13:50:40 GMT-0500 (Central Daylight Time),366571.09999990463,step,800,O,z,z,None,723,524.0,199.0,45,1,2062.7999999523163,364508.2999999523,7782,hate,AF,B,363675,363675,362144,362959,362145,364207,363475,363475,364207,83
81,test,1,con,1,m,Wed Mar 18 2026 13:50:40 GMT-0500 (Central Daylight Time),368988.09999990463,film,1100,O,m,m,None,774,574.0,200.0,92,1,2414.2999999523163,366573.7999999523,7782,film,AF,B,366041,366041,364210,365325,364210,366624,365841,365841,366624,84
82,test,1,con,1,m,Wed Mar 18 2026 13:50:40 GMT-0500 (Central Daylight Time),371403.0,jacket,1000,O,m,m,None,866,667.0,199.0,99,1,2411.8000000715256,368991.1999999285,7782,jacket,AF,B,368356,368356,366627,367640,366627,369039,368157,368157,369039,85
83,test,1,con,1,z,Wed Mar 18 2026 13:50:40 GMT-0500 (Central Daylight Time),373669.59999990463,temper,1100,O,z,z,None,630,431.0,199.0,60,1,2263.2999999523163,371406.2999999523,7782,temper,AF,B,370872,370872,369042,370157,369042,371306,370672,370672,371306,86
84,test,1,con,1,z,Wed Mar 18 2026 13:50:40 GMT-0500 (Central Daylight Time),376035.1999999285,love,900,O,z,z,None,924,709.0,215.0,18,1,2362.399999976158,373672.7999999523,7782,love,AF,B,372954,372954,371309,372222,371309,373671,372739,372739,373671,87
85,test,1,inc,1,m,Wed Mar 18 2026 13:50:40 GMT-0500 (Central Daylight Time),378400.7999999523,friend,1100,O,m,m,None,743,544.0,199.0,120,1,2362.2999999523163,376038.5,7782,remote,AF,B,375487,375487,373675,374787,373675,376037,375288,375288,376037,88
86,test,1,inc,1,m,Wed Mar 18 2026 13:50:40 GMT-0500 (Central Daylight Time),380718.5,love,1000,O,m,m,None,772,572.0,200.0,71,1,2314.4000000953674,378404.09999990463,7782,step,AF,B,377770,377770,376040,377053,376040,378355,377570,377570,378354,89
87,test,1,con,1,z,Wed Mar 18 2026 13:50:40 GMT-0500 (Central Daylight Time),382482.7999999523,love,800,O,z,z,None,432,233.0,199.0,17,1,1760.7999999523163,380722.0,7782,love,AF,B,379886,379886,378358,379170,378358,380119,379686,379686,380119,90
88,test,1,con,1,m,Wed Mar 18 2026 13:50:40 GMT-0500 (Central Daylight Time),384982.5,jacket,1100,O,m,m,None,861,662.0,199.0,100,1,2497.0,382485.5,7782,jacket,AF,B,381952,381952,380122,381235,380122,382619,381752,381753,382619,91
89,test,1,inc,1,z,Wed Mar 18 2026 13:50:40 GMT-0500 (Central Daylight Time),387215.5,remote,1000,O,z,z,None,712,513.0,199.0,7,1,2230.0,384985.5,7782,elated,AF,B,384334,384334,382622,383634,382622,384852,384135,384135,384852,92
90,test,1,inc,1,z,Wed Mar 18 2026 13:50:40 GMT-0500 (Central Daylight Time),389164.5,jacket,800,O,z,z,None,614,414.0,200.0,5,1,1946.3000000715256,387218.1999999285,7782,elated,AF,B,386384,386384,384854,385669,384854,386801,386184,386184,386801,93
91,test,1,inc,1,m,Wed Mar 18 2026 13:50:40 GMT-0500 (Central Daylight Time),391363.0,temper,1000,O,m,m,None,655,439.0,216.0,103,1,2195.5,389167.5,7782,jacket,AF,B,388551,388551,386804,387817,386804,388999,388335,388335,388999,94
92,test,1,con,1,z,Wed Mar 18 2026 13:50:40 GMT-0500 (Central Daylight Time),393429.89999997616,rage,900,O,z,z,None,630,430.0,200.0,50,1,2064.2000000476837,391365.6999999285,7782,rage,AF,B,390632,390632,389002,389916,389002,391066,390432,390432,391066,95
93,test,1,con,1,z,Wed Mar 18 2026 13:50:40 GMT-0500 (Central Daylight Time),395612.6999999285,hate,1000,O,z,z,None,648,448.0,200.0,43,1,2179.6999999284744,393433.0,7782,hate,AF,B,392799,392799,391069,392083,391069,393249,392599,392599,393249,96
94,test,1,inc,1,m,Wed Mar 18 2026 13:50:40 GMT-0500 (Central Daylight Time),397895.5,friend,1100,O,m,m,None,644,444.0,200.0,112,1,2280.2000000476837,395615.2999999523,7782,napkin,AF,B,395082,395082,393251,394366,393251,395532,394882,394882,395532,97
95,test,1,con,1,m,Wed Mar 18 2026 13:50:40 GMT-0500 (Central Daylight Time),399977.6999999285,bell,900,O,m,m,None,643,443.0,200.0,82,1,2078.600000023842,397899.09999990463,7782,bell,AF,B,397164,397164,395535,396447,395535,397614,396963,396963,397614,98
96,test,1,inc,1,z,Wed Mar 18 2026 13:50:40 GMT-0500 (Central Daylight Time),402177.0,remote,1000,O,z,z,None,660,459.0,201.0,39,1,2196.8000000715256,399980.1999999285,7782,brutal,AF,B,399347,399347,397616,398630,397616,399813,399146,399146,399813,99
97,test,1,con,1,m,Wed Mar 18 2026 13:50:40 GMT-0500 (Central Daylight Time),404509.0,film,1000,O,m,m,None,789,588.0,201.0,91,1,2329.4000000953674,402179.59999990463,7782,film,AF,B,401546,401546,399816,400829,399816,402145,401345,401345,402145,100
98,test,1,inc,1,z,Wed Mar 18 2026 13:50:40 GMT-0500 (Central Daylight Time),406875.6999999285,remote,1000,O,z,z,None,831,631.0,200.0,31,1,2364.100000023842,404511.59999990463,7782,friend,AF,B,403879,403879,402148,403162,402148,404512,403678,403678,404512,101
99,test,1,inc,1,z,Wed Mar 18 2026 13:50:40 GMT-0500 (Central Daylight Time),409057.89999997616,rock,900,O,z,z,None,758,558.0,200.0,22,1,2179.8000000715256,406878.09999990463,7782,love,AF,B,406128,406128,404514,405427,404514,406694,405928,405928,406694,102
100,test,1,con,1,z,Wed Mar 18 2026 13:50:40 GMT-0500 (Central Daylight Time),411141.0,elated,900,O,z,z,None,646,447.0,199.0,2,1,2080.7000000476837,409060.2999999523,7782,elated,AF,B,408327,408327,406696,407611,406696,408777,408127,408127,408777,103
101,test,1,con,1,m,Wed Mar 18 2026 13:50:40 GMT-0500 (Central Daylight Time),413290.09999990463,step,1000,O,m,m,None,599,400.0,199.0,67,1,2146.399999976158,411143.6999999285,7782,step,AF,B,410510,410510,408780,409794,408780,410926,410310,410310,410926,104
102,test,1,inc,1,m,Wed Mar 18 2026 13:50:40 GMT-0500 (Central Daylight Time),415373.89999997616,elated,800,O,m,m,None,747,547.0,200.0,109,1,2081.3000000715256,413292.59999990463,7782,napkin,AF,B,412460,412460,410929,411742,410929,413010,412259,412259,413010,105
103,test,1,inc,1,z,Wed Mar 18 2026 13:50:40 GMT-0500 (Central Daylight Time),417705.39999997616,window,1100,O,z,z,None,692,493.0,199.0,64,1,2327.0,415378.39999997616,7782,temper,AF,B,414842,414842,413014,414125,413015,415341,414642,414642,415341,106
104,test,1,inc,1,z,Wed Mar 18 2026 13:50:40 GMT-0500 (Central Daylight Time),419888.0,napkin,900,O,z,z,None,743,544.0,199.0,6,1,2179.8000000715256,417708.1999999285,7782,elated,AF,B,416975,416975,415344,416257,415344,417524,416774,416775,417524,107
105,test,1,con,1,z,Wed Mar 18 2026 13:50:40 GMT-0500 (Central Daylight Time),422054.09999990463,brutal,1100,O,z,z,None,521,322.0,199.0,36,1,2163.5,419890.59999990463,7782,brutal,AF,B,419356,419356,417527,418640,417527,419690,419157,419157,419690,108
106,test,1,inc,1,m,Wed Mar 18 2026 13:50:40 GMT-0500 (Central Daylight Time),424270.7999999523,friend,1100,O,m,m,None,579,380.0,199.0,104,1,2213.899999976158,422056.89999997616,7782,jacket,AF,B,421523,421523,419693,420807,419693,421907,421323,421323,421907,109
107,test,1,inc,1,z,Wed Mar 18 2026 13:50:40 GMT-0500 (Central Daylight Time),426386.6999999285,bell,1000,O,z,z,None,566,367.0,199.0,15,1,2113.100000023842,424273.59999990463,7782,kind,AF,B,423639,423639,421910,422922,421910,424023,423439,423439,424023,110
108,test,1,con,1,z,Wed Mar 18 2026 13:50:40 GMT-0500 (Central Daylight Time),428402.09999990463,rage,1000,O,z,z,None,476,277.0,199.0,51,1,2012.5,426389.59999990463,7782,rage,AF,B,425754,425754,424026,425039,424026,426038,425555,425555,426038,111
109,test,1,inc,1,m,Wed Mar 18 2026 13:50:40 GMT-0500 (Central Daylight Time),430501.59999990463,kind,900,O,m,m,None,665,450.0,215.0,86,1,2096.5,428405.09999990463,7782,bell,AF,B,427676,427676,426041,426953,426041,428138,427461,427461,428138,112
110,test,1,inc,1,z,Wed Mar 18 2026 13:50:40 GMT-0500 (Central Daylight Time),432383.89999997616,step,800,O,z,z,None,536,336.0,200.0,13,1,1879.3999999761581,430504.5,7782,kind,AF,B,429670,429670,428141,428954,428141,430020,429470,429470,430020,113
111,test,1,inc,1,z,Wed Mar 18 2026 13:50:40 GMT-0500 (Central Daylight Time),434516.09999990463,remote,1000,O,z,z,None,606,406.0,200.0,63,1,2129.7999999523163,432386.2999999523,7782,temper,AF,B,431737,431737,430022,431036,430023,432152,431537,431537,432152,114
112,test,1,con,1,m,Wed Mar 18 2026 13:50:40 GMT-0500 (Central Daylight Time),436599.39999997616,window,1000,O,m,m,None,546,344.0,202.0,123,1,2080.899999976158,434518.5,7782,window,AF,B,433887,433887,432155,433169,432155,434235,433685,433685,434235,115
113,test,1,con,1,z,Wed Mar 18 2026 13:50:40 GMT-0500 (Central Daylight Time),438681.59999990463,temper,900,O,z,z,None,649,434.0,215.0,58,1,2079.1999999284744,436602.39999997616,7782,temper,AF,B,435868,435868,434238,435151,434239,436318,435653,435653,436318,116
114,test,1,inc,1,z,Wed Mar 18 2026 13:50:40 GMT-0500 (Central Daylight Time),440881.59999990463,bell,1000,O,z,z,None,651,451.0,200.0,55,1,2197.0,438684.59999990463,7782,rage,AF,B,438051,438051,436321,437335,436321,438518,437851,437851,438518,117
115,test,1,con,1,m,Wed Mar 18 2026 13:50:40 GMT-0500 (Central Daylight Time),443030.6999999285,film,900,O,m,m,None,704,503.0,201.0,90,1,2146.5,440884.1999999285,7782,film,AF,B,440152,440152,438520,439434,438520,440667,439950,439950,440667,118
116,test,1,con,1,m,Wed Mar 18 2026 13:50:40 GMT-0500 (Central Daylight Time),445114.1999999285,remote,900,O,m,m,None,641,427.0,214.0,114,1,2079.1999999284744,443035.0,7782,remote,AF,B,442316,442316,440671,441583,440671,442750,442101,442101,442750,119
117,test,1,inc,1,z,Wed Mar 18 2026 13:50:40 GMT-0500 (Central Daylight Time),447429.09999990463,window,1100,O,z,z,None,671,472.0,199.0,40,1,2308.1999999284744,445120.89999997616,7782,brutal,AF,B,444582,444582,442757,443865,442757,445065,444383,444383,445065,120
118,test,1,con,1,z,Wed Mar 18 2026 13:50:40 GMT-0500 (Central Daylight Time),449295.39999997616,temper,800,O,z,z,None,545,345.0,200.0,57,1,1863.3999999761581,447432.0,7782,temper,AF,B,446582,446582,445068,445880,445068,446931,446381,446381,446931,121
119,test,1,con,1,m,Wed Mar 18 2026 13:50:40 GMT-0500 (Central Daylight Time),451328.0,window,800,O,m,m,None,694,495.0,199.0,121,1,2029.6000000238419,449298.39999997616,7782,window,AF,B,448464,448464,446934,447749,446935,448964,448265,448265,448964,122
120,test,1,con,1,z,Wed Mar 18 2026 13:50:40 GMT-0500 (Central Daylight Time),453568.5,elated,1000,O,z,z,None,694,494.0,200.0,3,1,2237.8000000715256,451330.6999999285,7782,elated,AF,B,450697,450697,448967,449980,448967,451205,450497,450497,451205,123
121,test,1,con,1,m,Wed Mar 18 2026 13:50:40 GMT-0500 (Central Daylight Time),455959.1999999285,remote,1100,O,m,m,None,762,562.0,200.0,116,1,2387.899999976158,453571.2999999523,7782,remote,AF,B,453029,453029,451207,452313,451207,453595,452829,452829,453595,124
122,test,1,con,1,m,Wed Mar 18 2026 13:50:40 GMT-0500 (Central Daylight Time),458060.0,step,1100,O,m,m,None,458,258.0,200.0,68,1,2097.5,455962.5,7782,step,AF,B,455429,455429,453599,454712,453599,455696,455229,455229,455696,125
122,test,1,inc,0,z,Wed Mar 18 2026 13:50:40 GMT-0500 (Central Daylight Time),460341.1999999285,window,1100,O,m,m,None,647,448.0,199.0,32,1,2276.7999999523163,458064.39999997616,7782,friend,AF,B,457527,457527,455700,456812,455701,457977,457328,457328,457977,126
123,test,1,inc,1,m,Wed Mar 18 2026 13:50:40 GMT-0500 (Central Daylight Time),462357.2999999523,rage,800,O,m,m,None,671,472.0,199.0,93,1,2013.6000000238419,460343.6999999285,7782,film,AF,B,459510,459510,457980,458796,457980,459993,459311,459311,459993,127
124,test,1,con,1,m,Wed Mar 18 2026 13:50:40 GMT-0500 (Central Daylight Time),464657.09999990463,rock,1000,O,m,m,None,775,576.0,199.0,75,1,2297.399999976158,462359.6999999285,7782,rock,AF,B,461711,461711,459996,461010,459996,462293,461511,461511,462293,128
