acc_sum,block,block_c,condition,correct,correct_response,datetime,endtime,flanker,jitter,project,response,response_test_buffer_response,response_test_target_response,response_time,response_time_test_buffer_response,response_time_test_target_response,row_sel,session_number,start_end,starttime,subject_id,target,task,task_vers,time_test_buffer,time_test_buffer_response,time_test_constants,time_test_flanker,time_test_jitter,time_test_logger,time_test_target,time_test_target_response,time_test_variables,trial
1,prac,1,con,1,z,Tue Aug 20 2024 16:36:51 GMT-0500 (Central Daylight Time),98436.80000001192,elated,800,O,z,,,645,,,9,1,2742.800000011921,95694.0,7003,elated,AF,A,,,,,,,,,,1
2,prac,1,inc,1,z,Tue Aug 20 2024 16:36:51 GMT-0500 (Central Daylight Time),101319.19999998808,rock,900,O,z,,,668,,,10,1,2876.800000011921,98442.39999997616,7003,kind,AF,A,,,,,,,,,,2
3,prac,1,inc,1,m,Tue Aug 20 2024 16:36:51 GMT-0500 (Central Daylight Time),104085.0,elated,900,O,m,,,554,,,6,1,2761.199999988079,101323.80000001192,7003,napkin,AF,A,,,,,,,,,,3
4,prac,1,con,1,z,Tue Aug 20 2024 16:36:51 GMT-0500 (Central Daylight Time),106867.39999997616,brutal,800,O,z,,,680,,,13,1,2778.199999988079,104089.19999998808,7003,brutal,AF,A,,,,,,,,,,4
5,prac,1,con,1,z,Tue Aug 20 2024 16:36:51 GMT-0500 (Central Daylight Time),109883.39999997616,rage,1000,O,z,,,713,,,15,1,3011.099999964237,106872.30000001192,7003,rage,AF,A,,,,,,,,,,5
5,prac,1,inc,0,z,Tue Aug 20 2024 16:36:51 GMT-0500 (Central Daylight Time),113149.0,napkin,1100,O,m,,,853,,,12,1,3261.199999988079,109887.80000001192,7003,friend,AF,A,,,,,,,,,,6
6,prac,1,con,1,m,Tue Aug 20 2024 16:36:51 GMT-0500 (Central Daylight Time),116247.89999997616,bell,1000,O,m,,,783,,,3,1,3094.699999988079,113153.19999998808,7003,bell,AF,A,,,,,,,,,,7
7,prac,1,con,1,m,Tue Aug 20 2024 16:36:51 GMT-0500 (Central Daylight Time),118797.0,jacket,800,O,m,,,444,,,5,1,2544.699999988079,116252.30000001192,7003,jacket,AF,A,,,,,,,,,,8
8,prac,1,con,1,z,Tue Aug 20 2024 16:36:51 GMT-0500 (Central Daylight Time),121546.10000002384,love,1000,O,z,,,440,,,11,1,2744.5,118801.60000002384,7003,love,AF,A,,,,,,,,,,9
9,prac,1,inc,1,m,Tue Aug 20 2024 16:36:51 GMT-0500 (Central Daylight Time),124345.5,kind,900,O,m,,,599,,,2,1,2794.899999976158,121550.60000002384,7003,rock,AF,A,,,,,,,,,,10
10,prac,1,inc,1,m,Tue Aug 20 2024 16:36:51 GMT-0500 (Central Daylight Time),127394.69999998808,hate,1100,O,m,,,648,,,4,1,3044.099999964237,124350.60000002384,7003,film,AF,A,,,,,,,,,,11
11,prac,1,con,1,m,Tue Aug 20 2024 16:36:51 GMT-0500 (Central Daylight Time),130160.19999998808,remote,1000,O,m,,,450,,,7,1,2761.199999988079,127399.0,7003,remote,AF,A,,,,,,,,,,12
12,prac,1,con,1,m,Tue Aug 20 2024 16:36:51 GMT-0500 (Central Daylight Time),132709.30000001192,step,800,O,m,,,437,,,1,1,2545.0,130164.30000001192,7003,step,AF,A,,,,,,,,,,13
13,prac,1,inc,1,z,Tue Aug 20 2024 16:36:51 GMT-0500 (Central Daylight Time),135908.30000001192,window,1100,O,z,,,787,,,16,1,3194.600000023842,132713.69999998808,7003,temper,AF,A,,,,,,,,,,14
14,prac,1,inc,1,z,Tue Aug 20 2024 16:36:51 GMT-0500 (Central Daylight Time),139057.60000002384,film,900,O,z,,,941,,,14,1,3145.0,135912.60000002384,7003,hate,AF,A,,,,,,,,,,15
15,prac,1,inc,1,m,Tue Aug 20 2024 16:36:51 GMT-0500 (Central Daylight Time),142106.5,brutal,1100,O,m,,,640,,,8,1,3044.699999988079,139061.80000001192,7003,window,AF,A,,,,,,,,,,16
1,test,1,con,1,m,Tue Aug 20 2024 16:36:51 GMT-0500 (Central Daylight Time),149387.60000002384,window,800,O,m,m,None,431,231.0,200.0,121,1,1762.7000000476837,147624.89999997616,7003,window,AF,A,144775,144776,143246,144059,143246,145009,144575,144575,145009,1
2,test,1,inc,1,z,Tue Aug 20 2024 16:36:51 GMT-0500 (Central Daylight Time),151303.5,step,800,O,z,z,None,576,377.0,199.0,53,1,1911.1000000238419,149392.39999997616,7003,rage,AF,A,146542,146542,145013,145825,145014,146925,146342,146342,146924,2
3,test,1,inc,1,m,Tue Aug 20 2024 16:36:51 GMT-0500 (Central Daylight Time),153253.0,kind,900,O,m,m,None,505,305.0,200.0,86,1,1945.1000000238419,151307.89999997616,7003,bell,AF,A,148558,148558,146929,147841,146929,148874,148357,148357,148874,3
3,test,1,con,0,z,Tue Aug 20 2024 16:36:51 GMT-0500 (Central Daylight Time),156085.30000001192,temper,1100,O,m,m,None,1195,996.0,199.0,60,1,2828.400000035763,153256.89999997616,7003,temper,AF,A,150707,150707,148878,149991,148878,151706,150507,150507,151706,4
4,test,1,inc,1,m,Tue Aug 20 2024 16:36:51 GMT-0500 (Central Daylight Time),158001.39999997616,kind,900,O,m,m,None,466,267.0,199.0,78,1,1912.2999999523163,156089.10000002384,7003,rock,AF,A,153340,153340,151710,152623,151710,153622,153140,153140,153622,5
5,test,1,con,1,z,Tue Aug 20 2024 16:36:51 GMT-0500 (Central Daylight Time),160150.80000001192,elated,1100,O,z,z,None,527,328.0,199.0,4,1,2145.600000023842,158005.19999998808,7003,elated,AF,A,155439,155439,153626,154737,153626,155772,155239,155239,155772,6
6,test,1,inc,1,z,Tue Aug 20 2024 16:36:51 GMT-0500 (Central Daylight Time),162433.30000001192,film,1100,O,z,z,None,641,442.0,199.0,24,1,2278.5,160154.80000001192,7003,love,AF,A,157605,157605,155776,156888,155776,158054,157405,157405,158054,7
7,test,1,con,1,z,Tue Aug 20 2024 16:36:51 GMT-0500 (Central Daylight Time),164565.89999997616,kind,1100,O,z,z,None,487,287.0,200.0,12,1,2128.699999988079,162437.19999998808,7003,kind,AF,A,159887,159888,158058,159171,158059,160187,159687,159687,160187,8
8,test,1,inc,1,z,Tue Aug 20 2024 16:36:51 GMT-0500 (Central Daylight Time),166598.69999998808,jacket,800,O,z,z,None,687,487.0,200.0,61,1,2028.800000011921,164569.89999997616,7003,temper,AF,A,161720,161720,160191,161004,160191,162220,161520,161520,162220,9
9,test,1,inc,1,m,Tue Aug 20 2024 16:36:51 GMT-0500 (Central Daylight Time),168698.19999998808,temper,1000,O,m,m,None,566,365.0,201.0,127,1,2095.399999976158,166602.80000001192,7003,window,AF,A,163954,163954,162224,163236,162224,164319,163753,163753,164319,10
10,test,1,con,1,m,Tue Aug 20 2024 16:36:51 GMT-0500 (Central Daylight Time),170880.69999998808,window,1100,O,m,m,None,535,335.0,200.0,124,1,2178.199999988079,168702.5,7003,window,AF,A,166152,166152,164324,165435,164324,166502,165952,165952,166502,11
11,test,1,con,1,m,Tue Aug 20 2024 16:36:51 GMT-0500 (Central Daylight Time),172763.30000001192,remote,800,O,m,m,None,540,340.0,200.0,113,1,1878.300000011921,170885.0,7003,remote,AF,A,168035,168035,166506,167318,166506,168384,167835,167835,168384,12
12,test,1,con,1,m,Tue Aug 20 2024 16:36:51 GMT-0500 (Central Daylight Time),174662.80000001192,step,900,O,m,m,None,453,254.0,199.0,66,1,1895.199999988079,172767.60000002384,7003,step,AF,A,170017,170017,168389,169301,168389,170284,169818,169818,170284,13
12,test,1,inc,0,z,Tue Aug 20 2024 16:36:51 GMT-0500 (Central Daylight Time),177311.89999997616,remote,1000,O,m,m,None,1110,910.0,200.0,39,1,2645.199999988079,174666.69999998808,7003,brutal,AF,A,172017,172017,170288,171300,170288,172933,171817,171817,172933,14
13,test,1,con,1,m,Tue Aug 20 2024 16:36:51 GMT-0500 (Central Daylight Time),179211.39999997616,window,1000,O,m,m,None,357,157.0,200.0,123,1,1895.699999988079,177315.69999998808,7003,window,AF,A,174666,174666,172937,173950,172937,174832,174466,174466,174832,15
13,test,1,inc,0,z,Tue Aug 20 2024 16:36:51 GMT-0500 (Central Daylight Time),181444.0,window,1100,O,m,m,None,588,389.0,199.0,32,1,2228.800000011921,179215.19999998808,7003,friend,AF,A,176665,176666,174836,175949,174837,177065,176465,176466,177065,16
14,test,1,inc,1,z,Tue Aug 20 2024 16:36:51 GMT-0500 (Central Daylight Time),183743.5,napkin,900,O,z,z,None,861,661.0,200.0,38,1,2295.600000023842,181447.89999997616,7003,brutal,AF,A,178698,178698,177069,177982,177069,179365,178498,178498,179364,17
15,test,1,inc,1,m,Tue Aug 20 2024 16:36:51 GMT-0500 (Central Daylight Time),185659.60000002384,rage,800,O,m,m,None,574,374.0,200.0,85,1,1912.0,183747.60000002384,7003,bell,AF,A,180897,180897,179369,180181,179369,181281,180697,180697,181281,18
16,test,1,con,1,z,Tue Aug 20 2024 16:36:51 GMT-0500 (Central Daylight Time),187925.39999997616,hate,1000,O,z,z,None,722,522.0,200.0,43,1,2262.0,185663.39999997616,7003,hate,AF,A,183013,183013,181284,182297,181285,183546,182813,182813,183546,19
17,test,1,con,1,m,Tue Aug 20 2024 16:36:51 GMT-0500 (Central Daylight Time),189774.69999998808,napkin,900,O,m,m,None,411,211.0,200.0,106,1,1845.3999999761581,187929.30000001192,7003,napkin,AF,A,185180,185180,183550,184463,183551,185396,184979,184979,185396,20
18,test,1,inc,1,z,Tue Aug 20 2024 16:36:51 GMT-0500 (Central Daylight Time),191840.69999998808,rock,900,O,z,z,None,618,418.0,200.0,22,1,2062.099999964237,189778.60000002384,7003,love,AF,A,187029,187029,185400,186313,185400,187462,186829,186829,187462,21
19,test,1,inc,1,z,Tue Aug 20 2024 16:36:51 GMT-0500 (Central Daylight Time),193973.39999997616,napkin,900,O,z,z,None,688,488.0,200.0,62,1,2126.399999976158,191847.0,7003,temper,AF,A,189095,189095,187468,188378,187468,189594,188895,188895,189594,22
20,test,1,con,1,m,Tue Aug 20 2024 16:36:51 GMT-0500 (Central Daylight Time),195739.60000002384,napkin,800,O,m,m,None,430,231.0,199.0,105,1,1761.6000000238419,193978.0,7003,napkin,AF,A,191128,191128,189599,190411,189599,191361,190928,190928,191361,23
21,test,1,inc,1,m,Tue Aug 20 2024 16:36:51 GMT-0500 (Central Daylight Time),197888.69999998808,love,1000,O,m,m,None,600,401.0,199.0,71,1,2144.899999976158,195743.80000001192,7003,step,AF,A,193093,193094,191365,192377,191365,193510,192894,192894,193510,24
22,test,1,inc,1,z,Tue Aug 20 2024 16:36:51 GMT-0500 (Central Daylight Time),200038.19999998808,napkin,900,O,z,z,None,704,504.0,200.0,30,1,2145.399999976158,197892.80000001192,7003,friend,AF,A,195143,195143,193514,194426,193514,195659,194943,194943,195659,25
23,test,1,con,1,m,Tue Aug 20 2024 16:36:51 GMT-0500 (Central Daylight Time),201870.80000001192,rock,900,O,m,m,None,387,187.0,200.0,74,1,1828.699999988079,200042.10000002384,7003,rock,AF,A,197292,197292,195663,196576,195663,197492,197092,197092,197492,26
24,test,1,inc,1,m,Tue Aug 20 2024 16:36:51 GMT-0500 (Central Daylight Time),204187.89999997616,friend,1100,O,m,m,None,682,482.0,200.0,112,1,2313.099999964237,201874.80000001192,7003,napkin,AF,A,199325,199325,197496,198609,197496,199809,199125,199125,199809,27
24,test,1,con,0,z,Tue Aug 20 2024 16:36:51 GMT-0500 (Central Daylight Time),206019.60000002384,rage,800,O,m,m,None,489,290.0,199.0,49,1,1827.6000000238419,204192.0,7003,rage,AF,A,201341,201341,199813,200624,199813,201641,201142,201142,201641,28
25,test,1,con,1,z,Tue Aug 20 2024 16:36:51 GMT-0500 (Central Daylight Time),208168.80000001192,love,1100,O,z,z,None,500,301.0,199.0,20,1,2145.199999988079,206023.60000002384,7003,love,AF,A,203474,203474,201645,202757,201645,203790,203274,203274,203790,29
26,test,1,con,1,z,Tue Aug 20 2024 16:36:51 GMT-0500 (Central Daylight Time),210268.39999997616,brutal,1100,O,z,z,None,456,256.0,200.0,36,1,2095.599999964237,208172.80000001192,7003,brutal,AF,A,205623,205623,203794,204907,203794,205889,205423,205423,205889,30
27,test,1,inc,1,m,Tue Aug 20 2024 16:36:51 GMT-0500 (Central Daylight Time),212367.80000001192,love,1000,O,m,m,None,553,353.0,200.0,79,1,2095.600000023842,210272.19999998808,7003,rock,AF,A,207622,207622,205893,206906,205893,207989,207422,207422,207989,31
28,test,1,inc,1,z,Tue Aug 20 2024 16:36:51 GMT-0500 (Central Daylight Time),214733.5,film,1100,O,z,z,None,728,529.0,199.0,16,1,2361.600000023842,212371.89999997616,7003,kind,AF,A,209822,209822,207993,209106,207993,210355,209622,209622,210355,32
29,test,1,inc,1,z,Tue Aug 20 2024 16:36:51 GMT-0500 (Central Daylight Time),217066.10000002384,window,1100,O,z,z,None,698,499.0,199.0,8,1,2329.0,214737.10000002384,7003,elated,AF,A,212187,212188,210358,211471,210358,212687,211988,211988,212687,33
30,test,1,con,1,z,Tue Aug 20 2024 16:36:51 GMT-0500 (Central Daylight Time),218882.30000001192,love,800,O,z,z,None,483,283.0,200.0,17,1,1812.5,217069.80000001192,7003,love,AF,A,214220,214220,212691,213504,212691,214503,214020,214020,214503,34
31,test,1,inc,1,z,Tue Aug 20 2024 16:36:51 GMT-0500 (Central Daylight Time),220881.60000002384,step,800,O,z,z,None,649,434.0,215.0,21,1,1995.5,218886.10000002384,7003,love,AF,A,216053,216053,214507,215320,214507,216503,215838,215838,216503,35
32,test,1,inc,1,z,Tue Aug 20 2024 16:36:51 GMT-0500 (Central Daylight Time),222947.69999998808,rock,900,O,z,z,None,630,431.0,199.0,14,1,2062.199999988079,220885.5,7003,kind,AF,A,218136,218136,216507,217420,216507,218569,217936,217936,218569,36
32,test,1,con,0,m,Tue Aug 20 2024 16:36:51 GMT-0500 (Central Daylight Time),224946.89999997616,bell,1000,O,z,z,None,465,265.0,200.0,83,1,1995.0999999642372,222951.80000001192,7003,bell,AF,A,220302,220302,218573,219587,218573,220568,220102,220102,220568,37
33,test,1,inc,1,z,Tue Aug 20 2024 16:36:51 GMT-0500 (Central Daylight Time),226896.30000001192,step,800,O,z,z,None,610,410.0,200.0,45,1,1945.9000000357628,224950.39999997616,7003,hate,AF,A,222101,222101,220571,221385,220572,222517,221901,221901,222517,38
34,test,1,con,1,z,Tue Aug 20 2024 16:36:51 GMT-0500 (Central Daylight Time),229045.5,kind,1000,O,z,z,None,604,405.0,199.0,11,1,2145.399999976158,226900.10000002384,7003,kind,AF,A,224250,224250,222521,223534,222521,224667,224051,224051,224667,39
35,test,1,con,1,z,Tue Aug 20 2024 16:36:51 GMT-0500 (Central Daylight Time),231528.10000002384,hate,800,O,z,z,None,1067,868.0,199.0,41,1,2478.400000035763,229049.69999998808,7003,hate,AF,A,226267,226267,224671,225564,224671,227149,226067,226067,227149,40
36,test,1,con,1,m,Tue Aug 20 2024 16:36:51 GMT-0500 (Central Daylight Time),233427.80000001192,jacket,800,O,m,m,None,565,365.0,200.0,97,1,1895.9000000357628,231531.89999997616,7003,jacket,AF,A,228682,228682,227153,227966,227153,229049,228482,228482,229049,41
37,test,1,inc,1,z,Tue Aug 20 2024 16:36:51 GMT-0500 (Central Daylight Time),235793.69999998808,film,1100,O,z,z,None,724,525.0,199.0,56,1,2362.199999988079,233431.5,7003,rage,AF,A,230882,230882,229053,230165,229053,231415,230682,230682,231415,42
38,test,1,con,1,m,Tue Aug 20 2024 16:36:51 GMT-0500 (Central Daylight Time),238093.69999998808,step,1100,O,m,m,None,654,455.0,199.0,68,1,2296.5,235797.19999998808,7003,step,AF,A,233248,233248,231418,232531,231419,233715,233048,233048,233715,43
39,test,1,inc,1,z,Tue Aug 20 2024 16:36:51 GMT-0500 (Central Daylight Time),240841.60000002384,window,1100,O,z,z,None,1116,916.0,200.0,64,1,2744.0,238097.60000002384,7003,temper,AF,A,235547,235547,233719,234830,233719,236463,235347,235347,236463,44
40,test,1,con,1,z,Tue Aug 20 2024 16:36:51 GMT-0500 (Central Daylight Time),243357.80000001192,brutal,800,O,z,z,None,1171,971.0,200.0,33,1,2512.199999988079,240845.60000002384,7003,brutal,AF,A,237996,237996,236467,237280,236467,238979,237796,237796,238979,45
41,test,1,con,1,z,Tue Aug 20 2024 16:36:51 GMT-0500 (Central Daylight Time),245773.80000001192,friend,1000,O,z,z,None,871,671.0,200.0,27,1,2412.100000023842,243361.69999998808,7003,friend,AF,A,240712,240712,238983,239995,238983,241395,240512,240512,241395,46
42,test,1,con,1,m,Tue Aug 20 2024 16:36:51 GMT-0500 (Central Daylight Time),247706.60000002384,jacket,900,O,m,m,None,491,291.0,200.0,98,1,1928.7000000476837,245777.89999997616,7003,jacket,AF,A,243028,243028,241399,242311,241399,243328,242828,242828,243328,47
43,test,1,con,1,m,Tue Aug 20 2024 16:36:51 GMT-0500 (Central Daylight Time),249657.0,bell,800,O,m,m,None,609,410.0,199.0,81,1,1946.699999988079,247710.30000001192,7003,bell,AF,A,244861,244861,243331,244144,243332,245278,244661,244661,245278,48
44,test,1,con,1,m,Tue Aug 20 2024 16:36:51 GMT-0500 (Central Daylight Time),251455.30000001192,rock,800,O,m,m,None,453,253.0,200.0,73,1,1794.1000000238419,249661.19999998808,7003,rock,AF,A,246810,246810,245282,246094,245282,247076,246610,246610,247076,49
45,test,1,inc,1,m,Tue Aug 20 2024 16:36:51 GMT-0500 (Central Daylight Time),253571.0,kind,900,O,m,m,None,681,481.0,200.0,70,1,2111.899999976158,251459.10000002384,7003,step,AF,A,248710,248710,247080,247993,247080,249192,248509,248509,249192,50
46,test,1,inc,1,m,Tue Aug 20 2024 16:36:51 GMT-0500 (Central Daylight Time),255688.69999998808,temper,1000,O,m,m,None,569,370.0,199.0,103,1,2114.099999964237,253574.60000002384,7003,jacket,AF,A,250925,250925,249196,250209,249196,251310,250726,250726,251310,51
47,test,1,con,1,m,Tue Aug 20 2024 16:36:51 GMT-0500 (Central Daylight Time),257770.19999998808,napkin,1100,O,m,m,None,440,241.0,199.0,108,1,2077.5,255692.69999998808,7003,napkin,AF,A,253141,253142,251314,252425,251314,253391,252941,252942,253391,52
48,test,1,inc,1,m,Tue Aug 20 2024 16:36:51 GMT-0500 (Central Daylight Time),259869.30000001192,love,1000,O,m,m,None,555,355.0,200.0,87,1,2095.199999988079,257774.10000002384,7003,bell,AF,A,255124,255124,253395,254408,253395,255490,254924,254924,255490,53
49,test,1,inc,1,m,Tue Aug 20 2024 16:36:51 GMT-0500 (Central Daylight Time),262135.19999998808,friend,1100,O,m,m,None,627,427.0,200.0,120,1,2262.0,259873.19999998808,7003,remote,AF,A,257323,257324,255494,256607,255494,257756,257123,257123,257756,54
50,test,1,con,1,z,Tue Aug 20 2024 16:36:51 GMT-0500 (Central Daylight Time),264218.0,friend,800,O,z,z,None,749,550.0,199.0,25,1,2079.100000023842,262138.89999997616,7003,friend,AF,A,259289,259289,257760,258573,257760,259839,259090,259090,259839,55
51,test,1,con,1,z,Tue Aug 20 2024 16:36:51 GMT-0500 (Central Daylight Time),266200.60000002384,rage,900,O,z,z,None,535,335.0,200.0,50,1,1978.6000000238419,264222.0,7003,rage,AF,A,261472,261472,259843,260756,259843,261822,261272,261272,261822,56
52,test,1,con,1,z,Tue Aug 20 2024 16:36:51 GMT-0500 (Central Daylight Time),268066.89999997616,temper,900,O,z,z,None,424,224.0,200.0,58,1,1862.199999988079,266204.6999999881,7003,temper,AF,A,263455,263455,261826,262739,261826,263688,263255,263255,263688,57
53,test,1,inc,1,m,Tue Aug 20 2024 16:36:51 GMT-0500 (Central Daylight Time),270099.3000000119,brutal,900,O,m,m,None,598,398.0,200.0,102,1,2028.699999988079,268070.60000002384,7003,jacket,AF,A,265321,265321,263692,264604,263692,265720,265121,265121,265720,58
54,test,1,con,1,z,Tue Aug 20 2024 16:36:51 GMT-0500 (Central Daylight Time),272482.1999999881,friend,1100,O,z,z,None,733,534.0,199.0,28,1,2379.399999976158,270102.8000000119,7003,friend,AF,A,267553,267553,265724,266837,265724,268103,267354,267354,268103,59
55,test,1,con,1,z,Tue Aug 20 2024 16:36:51 GMT-0500 (Central Daylight Time),274232.60000002384,kind,800,O,z,z,None,410,211.0,199.0,9,1,1746.800000011921,272485.8000000119,7003,kind,AF,A,269636,269636,268107,268920,268107,269854,269437,269437,269854,60
56,test,1,inc,1,z,Tue Aug 20 2024 16:36:51 GMT-0500 (Central Daylight Time),276464.10000002384,rock,900,O,z,z,None,792,593.0,199.0,46,1,2227.7000000476837,274236.39999997616,7003,hate,AF,A,271486,271486,269857,270769,269858,272085,271286,271286,272085,61
57,test,1,inc,1,z,Tue Aug 20 2024 16:36:51 GMT-0500 (Central Daylight Time),278563.5,rock,900,O,z,z,None,663,464.0,199.0,54,1,2095.399999976158,276468.10000002384,7003,rage,AF,A,273719,273719,272089,273002,272089,274185,273519,273519,274185,62
58,test,1,inc,1,m,Tue Aug 20 2024 16:36:51 GMT-0500 (Central Daylight Time),280446.5,rage,800,O,m,m,None,544,345.0,199.0,69,1,1879.0,278567.5,7003,step,AF,A,275718,275718,274189,275001,274189,276068,275518,275518,276067,63
59,test,1,inc,1,z,Tue Aug 20 2024 16:36:51 GMT-0500 (Central Daylight Time),282578.89999997616,bell,1000,O,z,z,None,591,391.0,200.0,23,1,2128.7999999523163,280450.10000002384,7003,love,AF,A,277800,277800,276071,277084,276071,278200,277600,277600,278200,64
60,test,1,inc,1,m,Tue Aug 20 2024 16:36:51 GMT-0500 (Central Daylight Time),284611.5,brutal,900,O,m,m,None,605,390.0,215.0,126,1,2028.5,282583.0,7003,window,AF,A,279833,279833,278204,279117,278204,280233,279618,279618,280232,65
61,test,1,con,1,m,Tue Aug 20 2024 16:36:51 GMT-0500 (Central Daylight Time),286577.60000002384,bell,900,O,m,m,None,525,325.0,200.0,82,1,1962.5,284615.10000002384,7003,bell,AF,A,281866,281866,280236,281149,280236,282199,281666,281666,282199,66
62,test,1,con,1,m,Tue Aug 20 2024 16:36:51 GMT-0500 (Central Daylight Time),288676.89999997616,step,800,O,m,m,None,763,563.0,200.0,65,1,2095.5,286581.39999997616,7003,step,AF,A,283732,283732,282202,283016,282203,284298,283532,283532,284298,67
63,test,1,con,1,z,Tue Aug 20 2024 16:36:51 GMT-0500 (Central Daylight Time),290826.3000000119,brutal,1000,O,z,z,None,608,408.0,200.0,35,1,2145.300000011921,288681.0,7003,brutal,AF,A,286031,286031,284302,285315,284302,286447,285831,285831,286447,68
64,test,1,con,1,m,Tue Aug 20 2024 16:36:51 GMT-0500 (Central Daylight Time),292792.3000000119,film,800,O,m,m,None,627,427.0,200.0,89,1,1961.699999988079,290830.60000002384,7003,film,AF,A,287980,287980,286452,287264,286452,288413,287780,287780,288413,69
65,test,1,inc,1,m,Tue Aug 20 2024 16:36:51 GMT-0500 (Central Daylight Time),294741.8000000119,elated,800,O,m,m,None,611,412.0,199.0,109,1,1945.800000011921,292796.0,7003,napkin,AF,A,289947,289947,288417,289230,288417,290363,289747,289747,290363,70
66,test,1,inc,1,z,Tue Aug 20 2024 16:36:51 GMT-0500 (Central Daylight Time),296924.5,remote,1000,O,z,z,None,639,439.0,200.0,7,1,2178.899999976158,294745.60000002384,7003,elated,AF,A,292096,292096,290367,291380,290367,292546,291896,291896,292546,71
67,test,1,con,1,m,Tue Aug 20 2024 16:36:51 GMT-0500 (Central Daylight Time),299173.6999999881,rock,1100,O,m,m,None,604,405.0,199.0,76,1,2245.099999964237,296928.60000002384,7003,rock,AF,A,294378,294378,292550,293662,292550,294795,294179,294179,294795,72
68,test,1,inc,1,z,Tue Aug 20 2024 16:36:51 GMT-0500 (Central Daylight Time),301256.1999999881,step,800,O,z,z,None,751,476.0,275.0,13,1,2078.699999988079,299177.5,7003,kind,AF,A,296387,296387,294799,295611,294799,296877,296112,296112,296877,73
69,test,1,con,1,z,Tue Aug 20 2024 16:36:51 GMT-0500 (Central Daylight Time),303307.1999999881,friend,900,O,z,z,None,624,425.0,199.0,26,1,2047.3999999761581,301259.8000000119,7003,friend,AF,A,298494,298494,296881,297794,296881,298928,298295,298295,298928,74
70,test,1,con,1,m,Tue Aug 20 2024 16:36:51 GMT-0500 (Central Daylight Time),305505.0,bell,1100,O,m,m,None,559,359.0,200.0,84,1,2193.300000011921,303311.6999999881,7003,bell,AF,A,300760,300760,298933,300043,298933,301126,300560,300560,301126,75
71,test,1,con,1,z,Tue Aug 20 2024 16:36:51 GMT-0500 (Central Daylight Time),307537.6999999881,elated,1000,O,z,z,None,500,301.0,199.0,3,1,2028.699999988079,305509.0,7003,elated,AF,A,302842,302842,301130,302142,301130,303159,302643,302643,303159,76
72,test,1,con,1,m,Tue Aug 20 2024 16:36:51 GMT-0500 (Central Daylight Time),309788.39999997616,film,1100,O,m,m,None,615,415.0,200.0,92,1,2246.7999999523163,307541.60000002384,7003,film,AF,A,304992,304992,303163,304275,303163,305409,304792,304792,305409,77
73,test,1,inc,1,z,Tue Aug 20 2024 16:36:51 GMT-0500 (Central Daylight Time),312069.89999997616,jacket,800,O,z,z,None,938,738.0,200.0,29,1,2277.699999988079,309792.1999999881,7003,friend,AF,A,306941,306941,305413,306225,305414,307691,306741,306741,307691,78
74,test,1,inc,1,z,Tue Aug 20 2024 16:36:51 GMT-0500 (Central Daylight Time),314002.39999997616,jacket,800,O,z,z,None,591,391.0,200.0,5,1,1928.7999999523163,312073.60000002384,7003,elated,AF,A,309224,309224,307695,308507,307695,309623,309024,309024,309623,79
75,test,1,inc,1,m,Tue Aug 20 2024 16:36:51 GMT-0500 (Central Daylight Time),316201.8000000119,hate,1100,O,m,m,None,559,359.0,200.0,96,1,2195.5,314006.3000000119,7003,film,AF,A,311456,311456,309627,310740,309628,311823,311256,311256,311823,80
76,test,1,inc,1,z,Tue Aug 20 2024 16:36:51 GMT-0500 (Central Daylight Time),318467.6999999881,bell,1000,O,z,z,None,723,523.0,200.0,15,1,2262.399999976158,316205.3000000119,7003,kind,AF,A,313556,313556,311826,312839,311827,314089,313356,313356,314089,81
77,test,1,con,1,m,Tue Aug 20 2024 16:36:51 GMT-0500 (Central Daylight Time),320567.39999997616,jacket,1000,O,m,m,None,552,353.0,199.0,99,1,2096.099999964237,318471.3000000119,7003,jacket,AF,A,315822,315822,314092,315105,314093,316189,315622,315622,316188,82
78,test,1,con,1,z,Tue Aug 20 2024 16:36:51 GMT-0500 (Central Daylight Time),322433.0,kind,900,O,z,z,None,418,218.0,200.0,10,1,1861.699999988079,320571.3000000119,7003,kind,AF,A,317821,317821,316192,317104,316193,318054,317621,317621,318054,83
79,test,1,inc,1,m,Tue Aug 20 2024 16:36:51 GMT-0500 (Central Daylight Time),324648.60000002384,friend,1100,O,m,m,None,575,267.0,308.0,128,1,2211.800000011921,322436.8000000119,7003,window,AF,A,319996,319996,318058,319171,318058,320270,319687,319687,320270,84
80,test,1,inc,1,m,Tue Aug 20 2024 16:36:51 GMT-0500 (Central Daylight Time),326815.0,hate,1100,O,m,m,None,528,328.0,200.0,80,1,2162.600000023842,324652.39999997616,7003,rock,AF,A,322103,322103,320273,321387,320274,322436,321903,321903,322436,85
81,test,1,con,1,m,Tue Aug 20 2024 16:36:51 GMT-0500 (Central Daylight Time),328830.89999997616,rock,1000,O,m,m,None,478,278.0,200.0,75,1,2012.199999988079,326818.6999999881,7003,rock,AF,A,324169,324169,322440,323453,322440,324452,323969,323969,324452,86
82,test,1,con,1,m,Tue Aug 20 2024 16:36:51 GMT-0500 (Central Daylight Time),330930.5,jacket,1100,O,m,m,None,458,258.0,200.0,100,1,2095.899999976158,328834.60000002384,7003,jacket,AF,A,326285,326285,324456,325569,324456,326552,326085,326085,326552,87
83,test,1,inc,1,z,Tue Aug 20 2024 16:36:51 GMT-0500 (Central Daylight Time),333146.60000002384,remote,1000,O,z,z,None,665,466.0,199.0,63,1,2212.100000023842,330934.5,7003,temper,AF,A,328285,328285,326556,327568,326556,328768,328084,328085,328768,88
84,test,1,inc,1,m,Tue Aug 20 2024 16:36:51 GMT-0500 (Central Daylight Time),335062.5,elated,800,O,m,m,None,570,370.0,200.0,125,1,1912.0,333150.5,7003,window,AF,A,330300,330301,328772,329584,328772,330684,330100,330100,330684,89
84,test,1,con,0,z,Tue Aug 20 2024 16:36:51 GMT-0500 (Central Daylight Time),337145.10000002384,rage,1000,O,m,m,None,541,342.0,199.0,51,1,2078.900000035763,335066.1999999881,7003,rage,AF,A,332417,332417,330687,331700,330688,332766,332217,332217,332766,90
85,test,1,con,1,m,Tue Aug 20 2024 16:36:51 GMT-0500 (Central Daylight Time),339611.0,remote,1100,O,m,m,None,824,624.0,200.0,116,1,2462.100000023842,337148.89999997616,7003,remote,AF,A,334599,334599,332770,333883,332770,335232,334399,334399,335232,91
86,test,1,con,1,m,Tue Aug 20 2024 16:36:51 GMT-0500 (Central Daylight Time),341677.0,napkin,1000,O,m,m,None,522,322.0,200.0,107,1,2062.5,339614.5,7003,napkin,AF,A,336965,336965,335236,336250,335236,337298,336765,336765,337298,92
87,test,1,con,1,z,Tue Aug 20 2024 16:36:51 GMT-0500 (Central Daylight Time),343842.8000000119,hate,900,O,z,z,None,732,532.0,200.0,42,1,2162.199999988079,341680.60000002384,7003,hate,AF,A,338931,338931,337302,338215,337302,339464,338731,338731,339464,93
88,test,1,inc,1,m,Tue Aug 20 2024 16:36:51 GMT-0500 (Central Daylight Time),345775.8000000119,rage,800,O,m,m,None,594,394.0,200.0,77,1,1929.5,343846.3000000119,7003,rock,AF,A,340997,340997,339467,340281,339468,341397,340797,340797,341397,94
89,test,1,inc,1,m,Tue Aug 20 2024 16:36:51 GMT-0500 (Central Daylight Time),347692.0,elated,800,O,m,m,None,596,381.0,215.0,101,1,1912.5,345779.5,7003,jacket,AF,A,342930,342930,341401,342213,341401,343313,342715,342715,343313,95
90,test,1,inc,1,z,Tue Aug 20 2024 16:36:51 GMT-0500 (Central Daylight Time),349957.8000000119,remote,1000,O,z,z,None,721,521.0,200.0,31,1,2262.300000011921,347695.5,7003,friend,AF,A,345046,345046,343317,344329,343317,345579,344846,344846,345579,96
91,test,1,con,1,m,Tue Aug 20 2024 16:36:51 GMT-0500 (Central Daylight Time),351990.39999997616,step,1000,O,m,m,None,487,287.0,200.0,67,1,2028.8999999761581,349961.5,7003,step,AF,A,347312,347312,345583,346595,345583,347612,347112,347112,347611,97
92,test,1,inc,1,m,Tue Aug 20 2024 16:36:51 GMT-0500 (Central Daylight Time),354090.0,elated,800,O,m,m,None,765,566.0,199.0,117,1,2095.600000023842,351994.39999997616,7003,remote,AF,A,349145,349145,347615,348430,347616,349711,348945,348945,349711,98
92,test,1,con,0,z,Tue Aug 20 2024 16:36:51 GMT-0500 (Central Daylight Time),356022.39999997616,elated,800,O,m,m,None,587,387.0,200.0,1,1,1928.699999988079,354093.6999999881,7003,elated,AF,A,351244,351244,349715,350527,349715,351644,351044,351044,351643,99
93,test,1,con,1,m,Tue Aug 20 2024 16:36:51 GMT-0500 (Central Daylight Time),358038.60000002384,remote,900,O,m,m,None,577,378.0,199.0,114,1,2012.5,356026.10000002384,7003,remote,AF,A,353277,353277,351647,352560,351648,353660,353077,353077,353660,100
94,test,1,inc,1,m,Tue Aug 20 2024 16:36:51 GMT-0500 (Central Daylight Time),360004.5,rage,800,O,m,m,None,630,430.0,200.0,93,1,1962.199999988079,358042.3000000119,7003,film,AF,A,355193,355193,353663,354476,353664,355626,354993,354993,355625,101
95,test,1,inc,1,z,Tue Aug 20 2024 16:36:51 GMT-0500 (Central Daylight Time),362237.39999997616,bell,1000,O,z,z,None,695,496.0,199.0,55,1,2229.2999999523163,360008.10000002384,7003,rage,AF,A,357359,357359,355629,356642,355629,357858,357159,357159,357858,102
96,test,1,inc,1,m,Tue Aug 20 2024 16:36:51 GMT-0500 (Central Daylight Time),364486.60000002384,friend,1100,O,m,m,None,604,404.0,200.0,104,1,2245.300000011921,362241.3000000119,7003,jacket,AF,A,359691,359691,357862,358975,357863,360108,359491,359491,360108,103
97,test,1,con,1,m,Tue Aug 20 2024 16:36:51 GMT-0500 (Central Daylight Time),366469.10000002384,window,900,O,m,m,None,537,338.0,199.0,122,1,1978.9000000357628,364490.1999999881,7003,window,AF,A,361741,361741,360111,361024,360111,362090,361541,361541,362090,104
98,test,1,con,1,z,Tue Aug 20 2024 16:36:51 GMT-0500 (Central Daylight Time),368452.10000002384,brutal,900,O,z,z,None,548,348.0,200.0,34,1,1979.300000011921,366472.8000000119,7003,brutal,AF,A,363723,363723,362094,363007,362094,364073,363523,363523,364073,105
99,test,1,inc,1,m,Tue Aug 20 2024 16:36:51 GMT-0500 (Central Daylight Time),370568.8000000119,temper,1000,O,m,m,None,577,377.0,200.0,111,1,2113.300000011921,368455.5,7003,napkin,AF,A,365806,365806,364077,365089,364077,366190,365606,365606,366190,106
100,test,1,inc,1,m,Tue Aug 20 2024 16:36:51 GMT-0500 (Central Daylight Time),372750.5,love,1000,O,m,m,None,587,387.0,200.0,95,1,2177.600000023842,370572.89999997616,7003,film,AF,A,367972,367972,366194,367261,366194,368372,367772,367772,368372,107
101,test,1,inc,1,z,Tue Aug 20 2024 16:36:51 GMT-0500 (Central Daylight Time),374833.1999999881,jacket,800,O,z,z,None,741,542.0,199.0,37,1,2078.699999988079,372754.5,7003,brutal,AF,A,369905,369905,368376,369188,368376,370454,369705,369705,370454,108
102,test,1,inc,1,z,Tue Aug 20 2024 16:36:51 GMT-0500 (Central Daylight Time),377049.1999999881,napkin,900,O,z,z,None,775,575.0,200.0,6,1,2211.800000011921,374837.39999997616,7003,elated,AF,A,372088,372088,370458,371371,370459,372670,371887,371887,372670,109
103,test,1,inc,1,z,Tue Aug 20 2024 16:36:51 GMT-0500 (Central Daylight Time),379448.39999997616,film,1100,O,z,z,None,752,552.0,200.0,48,1,2395.099999964237,377053.3000000119,7003,hate,AF,A,374503,374503,372674,373787,372675,375070,374303,374303,375069,110
104,test,1,con,1,z,Tue Aug 20 2024 16:36:51 GMT-0500 (Central Daylight Time),381464.8000000119,love,900,O,z,z,None,568,369.0,199.0,18,1,2012.300000011921,379452.5,7003,love,AF,A,376702,376702,375074,375986,375074,377086,376503,376503,377086,111
105,test,1,con,1,z,Tue Aug 20 2024 16:36:51 GMT-0500 (Central Daylight Time),383663.6999999881,rage,1100,O,z,z,None,553,352.0,201.0,52,1,2195.0,381468.6999999881,7003,rage,AF,A,378919,378919,377090,378202,377090,379285,378718,378718,379285,112
106,test,1,inc,1,z,Tue Aug 20 2024 16:36:51 GMT-0500 (Central Daylight Time),385846.60000002384,bell,1000,O,z,z,None,637,436.0,201.0,47,1,2179.0,383667.60000002384,7003,hate,AF,A,381019,381019,379289,380301,379289,381468,380818,380818,381468,113
107,test,1,con,1,z,Tue Aug 20 2024 16:36:51 GMT-0500 (Central Daylight Time),388562.1999999881,temper,1000,O,z,z,None,1181,982.0,199.0,59,1,2712.0,385850.1999999881,7003,temper,AF,A,383201,383201,381471,382484,381471,384183,383001,383001,384183,114
108,test,1,con,1,m,Tue Aug 20 2024 16:36:51 GMT-0500 (Central Daylight Time),390678.3000000119,film,1000,O,m,m,None,579,379.0,200.0,91,1,2112.5,388565.8000000119,7003,film,AF,A,385916,385916,384187,385200,384187,386299,385716,385716,386299,115
109,test,1,inc,1,m,Tue Aug 20 2024 16:36:51 GMT-0500 (Central Daylight Time),392794.39999997616,brutal,900,O,m,m,None,666,466.0,200.0,118,1,2112.399999976158,390682.0,7003,remote,AF,A,387932,387933,386303,387216,386303,388415,387732,387732,388415,116
110,test,1,inc,1,m,Tue Aug 20 2024 16:36:51 GMT-0500 (Central Daylight Time),395060.39999997616,hate,1100,O,m,m,None,631,429.0,202.0,88,1,2262.199999988079,392798.1999999881,7003,bell,AF,A,390250,390250,388419,389532,388419,390681,390048,390048,390681,117
111,test,1,con,1,m,Tue Aug 20 2024 16:36:51 GMT-0500 (Central Daylight Time),397243.0,film,900,O,m,m,None,741,541.0,200.0,90,1,2178.800000011921,395064.1999999881,7003,film,AF,A,392314,392314,390685,391598,390685,392864,392114,392114,392864,118
112,test,1,inc,1,m,Tue Aug 20 2024 16:36:51 GMT-0500 (Central Daylight Time),399342.10000002384,temper,1000,O,m,m,None,562,362.0,200.0,119,1,2095.5,397246.60000002384,7003,remote,AF,A,394597,394597,392868,393880,392868,394963,394397,394397,394963,119
113,test,1,inc,1,m,Tue Aug 20 2024 16:36:51 GMT-0500 (Central Daylight Time),401358.39999997616,kind,900,O,m,m,None,570,369.0,201.0,94,1,2012.5999999642372,399345.8000000119,7003,film,AF,A,396598,396598,394967,395880,394967,396979,396396,396397,396979,120
114,test,1,con,1,z,Tue Aug 20 2024 16:36:51 GMT-0500 (Central Daylight Time),403374.3000000119,love,1000,O,z,z,None,479,279.0,200.0,19,1,2012.5,401361.8000000119,7003,love,AF,A,398712,398712,396983,397996,396983,398995,398512,398512,398995,121
115,test,1,inc,1,z,Tue Aug 20 2024 16:36:51 GMT-0500 (Central Daylight Time),405706.6999999881,window,1100,O,z,z,None,696,482.0,214.0,40,1,2328.399999976158,403378.3000000119,7003,brutal,AF,A,400845,400845,398999,400112,398999,401328,400631,400631,401328,122
116,test,1,con,1,z,Tue Aug 20 2024 16:36:51 GMT-0500 (Central Daylight Time),408024.39999997616,hate,1100,O,z,z,None,678,478.0,200.0,44,1,2314.0,405710.39999997616,7003,hate,AF,A,403161,403161,401331,402444,401332,403645,402961,402961,403645,123
117,test,1,con,1,z,Tue Aug 20 2024 16:36:51 GMT-0500 (Central Daylight Time),410122.39999997616,elated,900,O,z,z,None,658,458.0,200.0,2,1,2094.099999964237,408028.3000000119,7003,elated,AF,A,405277,405277,403649,404561,403650,405743,405077,405077,405743,124
118,test,1,con,1,z,Tue Aug 20 2024 16:36:51 GMT-0500 (Central Daylight Time),412138.5,temper,800,O,z,z,None,675,475.0,200.0,57,1,2012.3999999761581,410126.10000002384,7003,temper,AF,A,407276,407276,405747,406560,405747,407760,407076,407076,407760,125
119,test,1,con,1,m,Tue Aug 20 2024 16:36:51 GMT-0500 (Central Daylight Time),414104.3000000119,remote,1000,O,m,m,None,419,219.0,200.0,115,1,1962.199999988079,412142.10000002384,7003,remote,AF,A,409492,409492,407763,408776,407763,409725,409292,409292,409725,126
120,test,1,inc,1,m,Tue Aug 20 2024 16:36:51 GMT-0500 (Central Daylight Time),416520.1999999881,hate,1100,O,m,m,None,777,577.0,200.0,72,1,2412.399999976158,414107.8000000119,7003,step,AF,A,411558,411558,409729,410842,409729,412141,411358,411358,412141,127
121,test,1,inc,1,m,Tue Aug 20 2024 16:36:51 GMT-0500 (Central Daylight Time),418536.39999997616,brutal,900,O,m,m,None,568,368.0,200.0,110,1,2012.5,416523.89999997616,7003,napkin,AF,A,413775,413775,412145,413058,412145,414157,413574,413574,414157,128
