Q,Q1,Q2,Q3,Q4,acc_sum,block,block_c,correct,correct_response,datetime,endtime,project,response,response_time,row_sel,session_number,squiggle1,squiggle1x,squiggle1y,squiggle2,squiggle2x,squiggle2y,squiggle3,squiggle3x,squiggle3y,squiggle4,squiggle4x,squiggle4y,start_end,starttime,subject_id,target_congruent,task,task_vers,testsquiggle,testsquigglex,testsquiggley,time_practice_delay,time_practice_fixation,time_practice_stimuli,time_practice_study,time_test_delay,time_test_fixation,time_test_stimuli,time_test_study,trial
1,1,0,0,0,0,prac,1,0,z,Mon Jun 08 2026 15:24:49 GMT-0500 (Central Daylight Time),134199.0,O,m,1524,1,1,116.bmp,-120,-120,117.bmp,120,-120,118.bmp,-120,120,119.bmp,120,120,10340.899999976158,123858.10000002384,7801,yes,SM,A,116.bmp,-120,-120,126778,120753,128794,122763,,,,,1
3,0,0,1,0,1,prac,1,1,m,Mon Jun 08 2026 15:24:49 GMT-0500 (Central Daylight Time),144530.10000002384,O,m,1503,2,1,120.bmp,-120,-120,121.bmp,120,-120,122.bmp,-120,120,123.bmp,120,120,10324.399999976158,134205.70000004768,7801,no,SM,A,123.bmp,-120,120,137127,131101,139142,133112,,,,,2
4,0,0,0,1,2,prac,1,1,m,Mon Jun 08 2026 15:24:49 GMT-0500 (Central Daylight Time),154759.5,O,m,1415,3,1,124.bmp,-120,-120,125.bmp,120,-120,126.bmp,-120,120,127.bmp,120,120,10223.399999976158,144536.10000002384,7801,no,SM,A,124.bmp,120,120,147456,141432,149472,143441,,,,,3
2,0,1,0,0,2,prac,1,0,z,Mon Jun 08 2026 15:24:49 GMT-0500 (Central Daylight Time),165589.10000002384,O,None,2016,4,1,128.bmp,-120,-120,129.bmp,120,-120,130.bmp,-120,120,131.bmp,120,120,10825.200000047684,154763.89999997616,7801,yes,SM,A,129.bmp,120,-120,157688,151659,159701,153671,,,,,4
3,0,0,1,0,3,prac,1,1,z,Mon Jun 08 2026 15:24:49 GMT-0500 (Central Daylight Time),175419.20000004768,O,z,1002,5,1,132.bmp,-120,-120,133.bmp,120,-120,134.bmp,-120,120,135.bmp,120,120,9825.5,165593.70000004768,7801,yes,SM,A,134.bmp,-120,120,168516,162489,170532,164501,,,,,5
1,1,0,0,0,4,prac,1,1,m,Mon Jun 08 2026 15:24:49 GMT-0500 (Central Daylight Time),185951.0,O,m,1715,6,1,136.bmp,-120,-120,137.bmp,120,-120,138.bmp,-120,120,139.bmp,120,120,10528.399999976158,175422.60000002384,7801,no,SM,A,139.bmp,-120,-120,178346,172318,180363,174329,,,,,6
2,0,1,0,0,5,prac,1,1,m,Mon Jun 08 2026 15:24:49 GMT-0500 (Central Daylight Time),195979.60000002384,O,m,1207,7,1,140.bmp,-120,-120,141.bmp,120,-120,142.bmp,-120,120,143.bmp,120,120,10025.0,185954.60000002384,7801,no,SM,A,140.bmp,120,-120,188876,182850,190893,184862,,,,,7
4,0,0,0,1,6,prac,1,1,z,Mon Jun 08 2026 15:24:49 GMT-0500 (Central Daylight Time),206659.80000007153,O,z,1851,8,1,144.bmp,-120,-120,145.bmp,120,-120,146.bmp,-120,120,147.bmp,120,120,10674.100000023842,195985.70000004768,7801,yes,SM,A,147.bmp,120,120,198907,192881,200922,194890,,,,,8
4,0,0,0,1,1,test,1,1,m,Mon Jun 08 2026 15:24:49 GMT-0500 (Central Daylight Time),221188.60000002384,O,m,1385,1,1,148.bmp,-120,-120,149.bmp,120,-120,150.bmp,-120,120,143.bmp,120,120,9444.0,211744.60000002384,7801,no,SM,A,150.bmp,120,120,198907,192881,200922,194890,214668.0,208640.0,216685.0,210653.0,1
2,0,1,0,0,2,test,1,1,m,Mon Jun 08 2026 15:24:49 GMT-0500 (Central Daylight Time),230800.80000007153,O,m,1550,2,1,101.bmp,-120,-120,102.bmp,120,-120,103.bmp,-120,120,104.bmp,120,120,9608.600000023842,221192.20000004768,7801,no,SM,A,103.bmp,120,-120,198907,192881,200922,194890,224115.0,218087.0,226130.0,220100.0,2
1,1,0,0,0,3,test,1,1,z,Mon Jun 08 2026 15:24:49 GMT-0500 (Central Daylight Time),240247.70000004768,O,z,1383,3,1,105.bmp,-120,-120,106.bmp,120,-120,107.bmp,-120,120,108.bmp,120,120,9440.800000071526,230806.89999997616,7801,yes,SM,A,105.bmp,-120,-120,198907,192881,200922,194890,233728.0,227702.0,235745.0,229712.0,3
3,0,0,1,0,3,test,1,0,m,Mon Jun 08 2026 15:24:49 GMT-0500 (Central Daylight Time),249744.10000002384,O,z,1454,4,1,109.bmp,-120,-120,110.bmp,120,-120,111.bmp,-120,120,112.bmp,120,120,9491.799999952316,240252.30000007153,7801,no,SM,A,109.bmp,-120,120,198907,192881,200922,194890,243174.0,237147.0,245175.0,239160.0,4
2,0,1,0,0,3,test,1,0,z,Mon Jun 08 2026 15:24:49 GMT-0500 (Central Daylight Time),259808.80000007153,O,None,2016,5,1,113.bmp,-120,-120,114.bmp,120,-120,115.bmp,-120,120,116.bmp,120,120,10059.0,249749.80000007153,7801,yes,SM,A,114.bmp,120,-120,198907,192881,200922,194890,252671.0,246645.0,254688.0,248657.0,5
3,0,0,1,0,4,test,1,1,z,Mon Jun 08 2026 15:24:49 GMT-0500 (Central Daylight Time),269138.0,O,z,1269,6,1,117.bmp,-120,-120,118.bmp,120,-120,119.bmp,-120,120,120.bmp,120,120,9322.799999952316,259815.20000004768,7801,yes,SM,A,119.bmp,-120,120,198907,192881,200922,194890,262735.0,256710.0,264751.0,258722.0,6
4,0,0,0,1,5,test,1,1,z,Mon Jun 08 2026 15:24:49 GMT-0500 (Central Daylight Time),278385.7000000477,O,z,1196,7,1,121.bmp,-120,-120,122.bmp,120,-120,123.bmp,-120,120,124.bmp,120,120,9244.800000071526,269140.89999997616,7801,yes,SM,A,124.bmp,120,120,198907,192881,200922,194890,272066.0,266036.0,274081.0,268051.0,7
2,0,1,0,0,6,test,1,1,m,Mon Jun 08 2026 15:24:49 GMT-0500 (Central Daylight Time),288200.60000002384,O,m,1757,8,1,125.bmp,-120,-120,126.bmp,120,-120,127.bmp,-120,120,128.bmp,120,120,9812.100000023842,278388.5,7801,no,SM,A,125.bmp,120,-120,198907,192881,200922,194890,281312.0,275284.0,283329.0,277300.0,8
3,0,0,1,0,7,test,1,1,m,Mon Jun 08 2026 15:24:49 GMT-0500 (Central Daylight Time),297929.8000000715,O,m,1666,9,1,129.bmp,-120,-120,130.bmp,120,-120,131.bmp,-120,120,132.bmp,120,120,9722.300000071526,288207.5,7801,no,SM,A,130.bmp,-120,120,198907,192881,200922,194890,291127.0,285103.0,293143.0,287113.0,9
4,0,0,0,1,7,test,1,0,z,Mon Jun 08 2026 15:24:49 GMT-0500 (Central Daylight Time),307993.5,O,None,2016,10,1,137.bmp,-120,-120,138.bmp,120,-120,139.bmp,-120,120,140.bmp,120,120,10059.199999928474,297934.3000000715,7801,yes,SM,A,140.bmp,120,120,198907,192881,200922,194890,300856.0,294830.0,302872.0,296842.0,10
3,0,0,1,0,8,test,1,1,z,Mon Jun 08 2026 15:24:49 GMT-0500 (Central Daylight Time),317839.39999997616,O,z,1806,11,1,133.bmp,-120,-120,134.bmp,120,-120,135.bmp,-120,120,136.bmp,120,120,9841.299999952316,307998.10000002384,7801,yes,SM,A,135.bmp,-120,120,198907,192881,200922,194890,310918.0,304893.0,312919.0,306905.0,11
2,0,1,0,0,8,test,1,0,m,Mon Jun 08 2026 15:24:49 GMT-0500 (Central Daylight Time),327904.3000000715,O,None,2016,12,1,141.bmp,-120,-120,142.bmp,120,-120,143.bmp,-120,120,144.bmp,120,120,10061.600000023842,317842.7000000477,7801,no,SM,A,141.bmp,120,-120,198907,192881,200922,194890,320767.0,314738.0,322783.0,316751.0,12
3,0,0,1,0,9,test,1,1,m,Mon Jun 08 2026 15:24:49 GMT-0500 (Central Daylight Time),337035.0,O,m,1078,13,1,145.bmp,-120,-120,146.bmp,120,-120,147.bmp,-120,120,148.bmp,120,120,9125.699999928474,327909.3000000715,7801,no,SM,A,146.bmp,-120,120,198907,192881,200922,194890,330831.0,324805.0,332848.0,326814.0,13
1,1,0,0,0,10,test,1,1,z,Mon Jun 08 2026 15:24:49 GMT-0500 (Central Daylight Time),346748.2000000477,O,z,1652,14,1,149.bmp,-120,-120,150.bmp,120,-120,104.bmp,-120,120,101.bmp,120,120,9709.600000023842,337038.60000002384,7801,yes,SM,A,149.bmp,-120,-120,198907,192881,200922,194890,339961.0,333934.0,341978.0,335945.0,14
4,0,0,0,1,10,test,1,0,m,Mon Jun 08 2026 15:24:49 GMT-0500 (Central Daylight Time),356410.39999997616,O,z,1603,15,1,110.bmp,-120,-120,111.bmp,120,-120,112.bmp,-120,120,113.bmp,120,120,9658.5,346751.89999997616,7801,no,SM,A,111.bmp,120,120,198907,192881,200922,194890,349675.0,343647.0,351690.0,345659.0,15
1,1,0,0,0,11,test,1,1,m,Mon Jun 08 2026 15:24:49 GMT-0500 (Central Daylight Time),365875.10000002384,O,m,1413,16,1,102.bmp,-120,-120,103.bmp,120,-120,104.bmp,-120,120,105.bmp,120,120,9462.100000023842,356413.0,7801,no,SM,A,105.bmp,-120,-120,198907,192881,200922,194890,359338.0,353308.0,361353.0,355323.0,16
3,0,0,1,0,11,test,1,0,m,Mon Jun 08 2026 15:24:49 GMT-0500 (Central Daylight Time),375624.39999997616,O,z,1685,17,1,122.bmp,-120,-120,123.bmp,120,-120,124.bmp,-120,120,125.bmp,120,120,9746.0,365878.39999997616,7801,no,SM,A,122.bmp,-120,120,198907,192881,200922,194890,368801.0,362774.0,370817.0,364788.0,17
1,1,0,0,0,11,test,1,0,z,Mon Jun 08 2026 15:24:49 GMT-0500 (Central Daylight Time),385686.3000000715,O,None,2016,18,1,106.bmp,-120,-120,107.bmp,120,-120,108.bmp,-120,120,109.bmp,120,120,10057.5,375628.8000000715,7801,yes,SM,A,106.bmp,-120,-120,198907,192881,200922,194890,378549.0,372524.0,380565.0,374534.0,18
2,0,1,0,0,12,test,1,1,z,Mon Jun 08 2026 15:24:49 GMT-0500 (Central Daylight Time),395331.2000000477,O,z,1585,19,1,126.bmp,-120,-120,127.bmp,120,-120,128.bmp,-120,120,129.bmp,120,120,9639.0,385692.2000000477,7801,yes,SM,A,127.bmp,120,-120,198907,192881,200922,194890,388611.0,382587.0,390628.0,384597.0,19
3,0,0,1,0,13,test,1,1,z,Mon Jun 08 2026 15:24:49 GMT-0500 (Central Daylight Time),404996.7000000477,O,z,1612,20,1,130.bmp,-120,-120,131.bmp,120,-120,132.bmp,-120,120,133.bmp,120,120,9661.200000047684,395335.5,7801,yes,SM,A,132.bmp,-120,120,198907,192881,200922,194890,398259.0,392231.0,400275.0,394244.0,20
1,1,0,0,0,13,test,1,0,m,Mon Jun 08 2026 15:24:49 GMT-0500 (Central Daylight Time),415058.2000000477,O,None,2014,21,1,114.bmp,-120,-120,115.bmp,120,-120,116.bmp,-120,120,117.bmp,120,120,10056.600000023842,405001.60000002384,7801,no,SM,A,116.bmp,-120,-120,198907,192881,200922,194890,407923.0,401897.0,409939.0,403907.0,21
4,0,0,0,1,14,test,1,1,z,Mon Jun 08 2026 15:24:49 GMT-0500 (Central Daylight Time),424689.0,O,z,1582,22,1,118.bmp,-120,-120,119.bmp,120,-120,120.bmp,-120,120,121.bmp,120,120,9626.899999976158,415062.10000002384,7801,yes,SM,A,121.bmp,120,120,198907,192881,200922,194890,417986.0,411957.0,420002.0,413971.0,22
1,1,0,0,0,15,test,1,1,m,Mon Jun 08 2026 15:24:49 GMT-0500 (Central Daylight Time),434435.89999997616,O,m,1683,23,1,134.bmp,-120,-120,135.bmp,120,-120,136.bmp,-120,120,137.bmp,120,120,9743.799999952316,424692.10000002384,7801,no,SM,A,137.bmp,-120,-120,198907,192881,200922,194890,427617.0,421587.0,429634.0,423602.0,23
2,0,1,0,0,16,test,1,1,z,Mon Jun 08 2026 15:24:49 GMT-0500 (Central Daylight Time),444016.2000000477,O,z,1532,24,1,142.bmp,-120,-120,143.bmp,120,-120,144.bmp,-120,120,145.bmp,120,120,9577.399999976158,434438.8000000715,7801,yes,SM,A,143.bmp,120,-120,198907,192881,200922,194890,437363.0,431334.0,439379.0,433348.0,24
4,0,0,0,1,17,test,1,1,m,Mon Jun 08 2026 15:24:49 GMT-0500 (Central Daylight Time),453464.2000000477,O,m,1382,25,1,146.bmp,-120,-120,147.bmp,120,-120,148.bmp,-120,120,149.bmp,120,120,9439.700000047684,444024.5,7801,no,SM,A,148.bmp,120,120,198907,192881,200922,194890,446944.0,440920.0,448961.0,442928.0,25
1,1,0,0,0,18,test,1,1,z,Mon Jun 08 2026 15:24:49 GMT-0500 (Central Daylight Time),462728.3000000715,O,z,1200,26,1,138.bmp,-120,-120,139.bmp,120,-120,140.bmp,-120,120,141.bmp,120,120,9261.0,453467.3000000715,7801,yes,SM,A,138.bmp,-120,-120,198907,192881,200922,194890,456391.0,450363.0,458407.0,452375.0,26
4,0,0,0,1,19,test,1,1,z,Mon Jun 08 2026 15:24:49 GMT-0500 (Central Daylight Time),472523.60000002384,O,z,1736,27,1,150.bmp,-120,-120,111.bmp,120,-120,101.bmp,-120,120,102.bmp,120,120,9792.799999952316,462730.8000000715,7801,yes,SM,A,102.bmp,120,120,198907,192881,200922,194890,465654.0,459626.0,467670.0,461639.0,27
3,0,0,1,0,19,test,1,0,m,Mon Jun 08 2026 15:24:49 GMT-0500 (Central Daylight Time),482070.7000000477,O,z,1491,28,1,103.bmp,-120,-120,104.bmp,120,-120,105.bmp,-120,120,106.bmp,120,120,9542.100000023842,472528.60000002384,7801,no,SM,A,103.bmp,-120,120,198907,192881,200922,194890,475450.0,469424.0,477467.0,471434.0,28
2,0,1,0,0,20,test,1,1,z,Mon Jun 08 2026 15:24:49 GMT-0500 (Central Daylight Time),491884.2000000477,O,z,1761,29,1,107.bmp,-120,-120,108.bmp,120,-120,109.bmp,-120,120,110.bmp,120,120,9806.899999976158,482077.3000000715,7801,yes,SM,A,108.bmp,120,-120,198907,192881,200922,194890,484997.0,478973.0,487013.0,480983.0,29
3,0,0,1,0,21,test,1,1,z,Mon Jun 08 2026 15:24:49 GMT-0500 (Central Daylight Time),501732.0,O,z,1796,30,1,111.bmp,-120,-120,112.bmp,120,-120,113.bmp,-120,120,114.bmp,120,120,9843.100000023842,491888.89999997616,7801,yes,SM,A,113.bmp,-120,120,198907,192881,200922,194890,494811.0,488784.0,496827.0,490796.0,30
1,1,0,0,0,22,test,1,1,z,Mon Jun 08 2026 15:24:49 GMT-0500 (Central Daylight Time),510978.5,O,z,1188,31,1,115.bmp,-120,-120,116.bmp,120,-120,117.bmp,-120,120,118.bmp,120,120,9243.0,501735.5,7801,yes,SM,A,115.bmp,-120,-120,198907,192881,200922,194890,504658.0,498631.0,506674.0,500644.0,31
2,0,1,0,0,23,test,1,1,m,Mon Jun 08 2026 15:24:49 GMT-0500 (Central Daylight Time),520310.10000002384,O,m,1277,32,1,119.bmp,-120,-120,120.bmp,120,-120,121.bmp,-120,120,122.bmp,120,120,9328.100000023842,510982.0,7801,no,SM,A,119.bmp,120,-120,198907,192881,200922,194890,513905.0,507877.0,515921.0,509890.0,32
4,0,0,0,1,24,test,1,1,z,Mon Jun 08 2026 15:24:49 GMT-0500 (Central Daylight Time),530022.8000000715,O,z,1674,33,1,131.bmp,-120,-120,132.bmp,120,-120,133.bmp,-120,120,134.bmp,120,120,9709.600000023842,520313.2000000477,7801,yes,SM,A,134.bmp,120,120,198907,192881,200922,194890,523221.0,517208.0,525235.0,519219.0,33
2,0,1,0,0,25,test,1,1,z,Mon Jun 08 2026 15:24:49 GMT-0500 (Central Daylight Time),539951.0,O,z,1870,34,1,123.bmp,-120,-120,124.bmp,120,-120,125.bmp,-120,120,126.bmp,120,120,9925.100000023842,530025.8999999762,7801,yes,SM,A,124.bmp,120,-120,198907,192881,200922,194890,532949.0,526921.0,534966.0,528934.0,34
4,0,0,0,1,26,test,1,1,m,Mon Jun 08 2026 15:24:49 GMT-0500 (Central Daylight Time),549665.3999999762,O,m,1663,35,1,127.bmp,-120,-120,128.bmp,120,-120,129.bmp,-120,120,130.bmp,120,120,9712.199999928474,539953.2000000477,7801,no,SM,A,129.bmp,120,120,198907,192881,200922,194890,542880.0,536848.0,544897.0,538865.0,35
3,0,0,1,0,26,test,1,0,m,Mon Jun 08 2026 15:24:49 GMT-0500 (Central Daylight Time),559096.5,O,z,1374,36,1,135.bmp,-120,-120,136.bmp,120,-120,137.bmp,-120,120,138.bmp,120,120,9428.100000023842,549668.3999999762,7801,no,SM,A,135.bmp,-120,120,198907,192881,200922,194890,552592.0,546564.0,554608.0,548579.0,36
1,1,0,0,0,27,test,1,1,m,Mon Jun 08 2026 15:24:49 GMT-0500 (Central Daylight Time),568593.1000000238,O,m,1437,37,1,139.bmp,-120,-120,140.bmp,120,-120,141.bmp,-120,120,142.bmp,120,120,9492.799999952316,559100.3000000715,7801,no,SM,A,140.bmp,-120,-120,198907,192881,200922,194890,562024.0,555996.0,564040.0,558009.0,37
2,0,1,0,0,28,test,1,1,m,Mon Jun 08 2026 15:24:49 GMT-0500 (Central Daylight Time),578091.0,O,m,1446,38,1,143.bmp,-120,-120,144.bmp,120,-120,145.bmp,-120,120,146.bmp,120,120,9493.299999952316,568597.7000000477,7801,no,SM,A,145.bmp,120,-120,198907,192881,200922,194890,571520.0,565494.0,573536.0,567505.0,38
4,0,0,0,1,28,test,1,0,z,Mon Jun 08 2026 15:24:49 GMT-0500 (Central Daylight Time),588156.0,O,None,2017,39,1,147.bmp,-120,-120,148.bmp,120,-120,149.bmp,-120,120,150.bmp,120,120,10061.299999952316,578094.7000000477,7801,yes,SM,A,150.bmp,120,120,198907,192881,200922,194890,581017.0,574990.0,583034.0,577003.0,39
3,0,0,1,0,29,test,1,1,m,Mon Jun 08 2026 15:24:49 GMT-0500 (Central Daylight Time),597467.0,O,m,1262,40,1,104.bmp,-120,-120,105.bmp,120,-120,106.bmp,-120,120,107.bmp,120,120,9306.5,588160.5,7801,no,SM,A,105.bmp,-120,120,198907,192881,200922,194890,591080.0,585056.0,593096.0,587065.0,40
1,1,0,0,0,30,test,1,1,z,Mon Jun 08 2026 15:24:49 GMT-0500 (Central Daylight Time),606930.8000000715,O,z,1404,41,1,108.bmp,-120,-120,109.bmp,120,-120,110.bmp,-120,120,111.bmp,120,120,9457.800000071526,597473.0,7801,yes,SM,A,108.bmp,-120,-120,198907,192881,200922,194890,600395.0,594368.0,602410.0,596379.0,41
4,0,0,0,1,31,test,1,1,z,Mon Jun 08 2026 15:24:49 GMT-0500 (Central Daylight Time),616461.1000000238,O,z,1468,42,1,112.bmp,-120,-120,113.bmp,120,-120,114.bmp,-120,120,115.bmp,120,120,9525.299999952316,606935.8000000715,7801,yes,SM,A,115.bmp,120,120,198907,192881,200922,194890,609858.0,603831.0,611874.0,605842.0,42
1,1,0,0,0,32,test,1,1,z,Mon Jun 08 2026 15:24:49 GMT-0500 (Central Daylight Time),626325.6000000238,O,z,1810,43,1,116.bmp,-120,-120,117.bmp,120,-120,118.bmp,-120,120,119.bmp,120,120,9859.100000023842,616466.5,7801,yes,SM,A,116.bmp,-120,-120,198907,192881,200922,194890,619389.0,613362.0,621404.0,615374.0,43
4,0,0,0,1,33,test,1,1,m,Mon Jun 08 2026 15:24:49 GMT-0500 (Central Daylight Time),635637.8000000715,O,m,1273,44,1,104.bmp,-120,-120,101.bmp,120,-120,102.bmp,-120,120,103.bmp,120,120,9308.5,626329.3000000715,7801,no,SM,A,104.bmp,120,120,198907,192881,200922,194890,629251.0,623225.0,631252.0,625237.0,44
1,1,0,0,0,34,test,1,1,m,Mon Jun 08 2026 15:24:49 GMT-0500 (Central Daylight Time),645102.3999999762,O,m,1408,45,1,128.bmp,-120,-120,129.bmp,120,-120,130.bmp,-120,120,131.bmp,120,120,9460.399999976158,635642.0,7801,no,SM,A,131.bmp,-120,-120,198907,192881,200922,194890,638565.0,632537.0,640582.0,634551.0,45
1,1,0,0,0,35,test,1,1,m,Mon Jun 08 2026 15:24:49 GMT-0500 (Central Daylight Time),654416.5,O,m,1255,46,1,120.bmp,-120,-120,121.bmp,120,-120,122.bmp,-120,120,123.bmp,120,120,9309.899999976158,645106.6000000238,7801,no,SM,A,121.bmp,-120,-120,198907,192881,200922,194890,648030.0,642002.0,650045.0,644015.0,46
3,0,0,1,0,35,test,1,0,z,Mon Jun 08 2026 15:24:49 GMT-0500 (Central Daylight Time),664480.3999999762,O,None,2014,47,1,124.bmp,-120,-120,125.bmp,120,-120,126.bmp,-120,120,127.bmp,120,120,10061.799999952316,654418.6000000238,7801,yes,SM,A,126.bmp,-120,120,198907,192881,200922,194890,657344.0,651314.0,659361.0,653328.0,47
3,0,0,1,0,36,test,1,1,z,Mon Jun 08 2026 15:24:49 GMT-0500 (Central Daylight Time),674176.3999999762,O,z,1640,48,1,140.bmp,-120,-120,141.bmp,120,-120,142.bmp,-120,120,143.bmp,120,120,9692.299999952316,664484.1000000238,7801,yes,SM,A,142.bmp,-120,120,198907,192881,200922,194890,667407.0,661379.0,669422.0,663391.0,48
2,0,1,0,0,37,test,1,1,z,Mon Jun 08 2026 15:24:49 GMT-0500 (Central Daylight Time),683722.3000000715,O,z,1494,49,1,136.bmp,-120,-120,137.bmp,120,-120,138.bmp,-120,120,139.bmp,120,120,9541.400000095367,674180.8999999762,7801,yes,SM,A,137.bmp,120,-120,198907,192881,200922,194890,677102.0,671076.0,679119.0,673088.0,49
3,0,0,1,0,37,test,1,0,m,Mon Jun 08 2026 15:24:49 GMT-0500 (Central Daylight Time),693786.8999999762,O,None,2016,50,1,132.bmp,-120,-120,133.bmp,120,-120,134.bmp,-120,120,135.bmp,120,120,10061.299999952316,683725.6000000238,7801,no,SM,A,132.bmp,-120,120,198907,192881,200922,194890,686650.0,680621.0,688666.0,682635.0,50
2,0,1,0,0,38,test,1,1,z,Mon Jun 08 2026 15:24:49 GMT-0500 (Central Daylight Time),702984.3999999762,O,z,1134,51,1,144.bmp,-120,-120,145.bmp,120,-120,146.bmp,-120,120,147.bmp,120,120,9193.599999904633,693790.8000000715,7801,yes,SM,A,145.bmp,120,-120,198907,192881,200922,194890,696714.0,690686.0,698730.0,692699.0,51
4,0,0,0,1,39,test,1,1,m,Mon Jun 08 2026 15:24:49 GMT-0500 (Central Daylight Time),712331.3999999762,O,m,1286,52,1,148.bmp,-120,-120,149.bmp,120,-120,150.bmp,-120,120,131.bmp,120,120,9343.0,702988.3999999762,7801,no,SM,A,148.bmp,120,120,198907,192881,200922,194890,705910.0,699884.0,707927.0,701897.0,52
3,0,0,1,0,40,test,1,1,z,Mon Jun 08 2026 15:24:49 GMT-0500 (Central Daylight Time),722246.7000000477,O,z,1853,53,1,101.bmp,-120,-120,102.bmp,120,-120,103.bmp,-120,120,104.bmp,120,120,9910.0,712336.7000000477,7801,yes,SM,A,103.bmp,-120,120,198907,192881,200922,194890,715257.0,709232.0,717272.0,711244.0,53
1,1,0,0,0,40,test,1,0,m,Mon Jun 08 2026 15:24:49 GMT-0500 (Central Daylight Time),732307.3000000715,O,None,2014,54,1,105.bmp,-120,-120,106.bmp,120,-120,107.bmp,-120,120,108.bmp,120,120,10057.700000047684,722249.6000000238,7801,no,SM,A,107.bmp,-120,-120,198907,192881,200922,194890,725171.0,719145.0,727188.0,721156.0,54
4,0,0,0,1,41,test,1,1,z,Mon Jun 08 2026 15:24:49 GMT-0500 (Central Daylight Time),741854.5,O,z,1482,55,1,109.bmp,-120,-120,110.bmp,120,-120,111.bmp,-120,120,112.bmp,120,120,9541.299999952316,732313.2000000477,7801,yes,SM,A,112.bmp,120,120,198907,192881,200922,194890,735237.0,729209.0,737251.0,731220.0,55
2,0,1,0,0,42,test,1,1,m,Mon Jun 08 2026 15:24:49 GMT-0500 (Central Daylight Time),751118.3999999762,O,m,1216,56,1,113.bmp,-120,-120,114.bmp,120,-120,115.bmp,-120,120,116.bmp,120,120,9259.899999976158,741858.5,7801,no,SM,A,113.bmp,120,-120,198907,192881,200922,194890,744781.0,738754.0,746782.0,740766.0,56
4,0,0,0,1,42,test,1,0,m,Mon Jun 08 2026 15:24:49 GMT-0500 (Central Daylight Time),760798.8000000715,O,z,1626,57,1,117.bmp,-120,-120,118.bmp,120,-120,119.bmp,-120,120,120.bmp,120,120,9677.400000095367,751121.3999999762,7801,no,SM,A,118.bmp,120,120,198907,192881,200922,194890,754046.0,748017.0,756060.0,750031.0,57
3,0,0,1,0,43,test,1,1,z,Mon Jun 08 2026 15:24:49 GMT-0500 (Central Daylight Time),770196.7000000477,O,z,1336,58,1,121.bmp,-120,-120,122.bmp,120,-120,123.bmp,-120,120,124.bmp,120,120,9395.100000023842,760801.6000000238,7801,yes,SM,A,123.bmp,-120,120,198907,192881,200922,194890,763726.0,757697.0,765741.0,759711.0,58
2,0,1,0,0,43,test,1,0,m,Mon Jun 08 2026 15:24:49 GMT-0500 (Central Daylight Time),779492.3999999762,O,z,1235,59,1,125.bmp,-120,-120,126.bmp,120,-120,127.bmp,-120,120,128.bmp,120,120,9293.199999928474,770199.2000000477,7801,no,SM,A,128.bmp,120,-120,198907,192881,200922,194890,773122.0,767094.0,775138.0,769108.0,59
1,1,0,0,0,44,test,1,1,z,Mon Jun 08 2026 15:24:49 GMT-0500 (Central Daylight Time),789089.7000000477,O,z,1534,60,1,129.bmp,-120,-120,130.bmp,120,-120,131.bmp,-120,120,132.bmp,120,120,9594.899999976158,779494.8000000715,7801,yes,SM,A,129.bmp,-120,-120,198907,192881,200922,194890,782419.0,776390.0,784435.0,778404.0,60
2,0,1,0,0,45,test,1,1,z,Mon Jun 08 2026 15:24:49 GMT-0500 (Central Daylight Time),798454.7000000477,O,z,1300,61,1,133.bmp,-120,-120,134.bmp,120,-120,135.bmp,-120,120,136.bmp,120,120,9361.899999976158,789092.8000000715,7801,yes,SM,A,134.bmp,120,-120,198907,192881,200922,194890,792017.0,785988.0,794033.0,788001.0,61
4,0,0,0,1,46,test,1,1,z,Mon Jun 08 2026 15:24:49 GMT-0500 (Central Daylight Time),808082.8999999762,O,z,1576,62,1,141.bmp,-120,-120,142.bmp,120,-120,143.bmp,-120,120,144.bmp,120,120,9623.5,798459.3999999762,7801,yes,SM,A,144.bmp,120,120,198907,192881,200922,194890,801381.0,795355.0,803397.0,797366.0,62
1,1,0,0,0,46,test,1,0,m,Mon Jun 08 2026 15:24:49 GMT-0500 (Central Daylight Time),818013.3000000715,O,z,1875,63,1,145.bmp,-120,-120,146.bmp,120,-120,147.bmp,-120,120,148.bmp,120,120,9927.5,808085.8000000715,7801,no,SM,A,145.bmp,-120,120,198907,192881,200922,194890,811010.0,804981.0,813027.0,806997.0,63
2,0,1,0,0,47,test,1,1,z,Mon Jun 08 2026 15:24:49 GMT-0500 (Central Daylight Time),827711.8999999762,O,z,1634,64,1,149.bmp,-120,-120,150.bmp,120,-120,112.bmp,-120,120,101.bmp,120,120,9695.699999928474,818016.2000000477,7801,yes,SM,A,150.bmp,120,-120,198907,192881,200922,194890,820940.0,814911.0,822957.0,816925.0,64
4,0,0,0,1,48,test,1,1,m,Mon Jun 08 2026 15:24:49 GMT-0500 (Central Daylight Time),836957.6000000238,O,m,1193,65,1,102.bmp,-120,-120,103.bmp,120,-120,104.bmp,-120,120,105.bmp,120,120,9242.899999976158,827714.7000000477,7801,no,SM,A,104.bmp,120,120,198907,192881,200922,194890,830638.0,824610.0,832653.0,826622.0,65
3,0,0,1,0,49,test,1,1,m,Mon Jun 08 2026 15:24:49 GMT-0500 (Central Daylight Time),846304.1000000238,O,m,1284,66,1,106.bmp,-120,-120,107.bmp,120,-120,108.bmp,-120,120,109.bmp,120,120,9342.399999976158,836961.7000000477,7801,no,SM,A,109.bmp,-120,120,198907,192881,200922,194890,839884.0,833857.0,841901.0,835869.0,66
2,0,1,0,0,50,test,1,1,m,Mon Jun 08 2026 15:24:49 GMT-0500 (Central Daylight Time),855666.8999999762,O,m,1310,67,1,137.bmp,-120,-120,138.bmp,120,-120,139.bmp,-120,120,140.bmp,120,120,9356.399999976158,846310.5,7801,no,SM,A,139.bmp,120,-120,198907,192881,200922,194890,849231.0,843206.0,851247.0,845216.0,67
3,0,0,1,0,51,test,1,1,z,Mon Jun 08 2026 15:24:49 GMT-0500 (Central Daylight Time),865365.8000000715,O,z,1634,68,1,110.bmp,-120,-120,111.bmp,120,-120,112.bmp,-120,120,113.bmp,120,120,9695.100000023842,855670.7000000477,7801,yes,SM,A,112.bmp,-120,120,198907,192881,200922,194890,858594.0,852566.0,860611.0,854578.0,68
1,1,0,0,0,52,test,1,1,m,Mon Jun 08 2026 15:24:49 GMT-0500 (Central Daylight Time),874828.0,O,m,1400,69,1,114.bmp,-120,-120,115.bmp,120,-120,116.bmp,-120,120,117.bmp,120,120,9457.799999952316,865370.2000000477,7801,no,SM,A,115.bmp,-120,-120,198907,192881,200922,194890,868291.0,862265.0,870309.0,864279.0,69
2,0,1,0,0,53,test,1,1,m,Mon Jun 08 2026 15:24:49 GMT-0500 (Central Daylight Time),884459.5,O,m,1571,70,1,118.bmp,-120,-120,119.bmp,120,-120,120.bmp,-120,120,121.bmp,120,120,9626.799999952316,874832.7000000477,7801,no,SM,A,120.bmp,120,-120,198907,192881,200922,194890,877757.0,871728.0,879771.0,873741.0,70
4,0,0,0,1,54,test,1,1,z,Mon Jun 08 2026 15:24:49 GMT-0500 (Central Daylight Time),893873.0,O,z,1365,71,1,122.bmp,-120,-120,123.bmp,120,-120,124.bmp,-120,120,125.bmp,120,120,9409.899999976158,884463.1000000238,7801,yes,SM,A,125.bmp,120,120,198907,192881,200922,194890,887386.0,881358.0,889400.0,883371.0,71
1,1,0,0,0,55,test,1,1,z,Mon Jun 08 2026 15:24:49 GMT-0500 (Central Daylight Time),903136.3000000715,O,z,1205,72,1,126.bmp,-120,-120,127.bmp,120,-120,128.bmp,-120,120,129.bmp,120,120,9260.600000023842,893875.7000000477,7801,yes,SM,A,126.bmp,-120,-120,198907,192881,200922,194890,896801.0,890771.0,898817.0,892785.0,72
2,0,1,0,0,56,test,1,1,z,Mon Jun 08 2026 15:24:49 GMT-0500 (Central Daylight Time),912750.2000000477,O,z,1550,73,1,130.bmp,-120,-120,131.bmp,120,-120,132.bmp,-120,120,133.bmp,120,120,9610.5,903139.7000000477,7801,yes,SM,A,131.bmp,120,-120,198907,192881,200922,194890,906064.0,900035.0,908081.0,902049.0,73
4,0,0,0,1,57,test,1,1,m,Mon Jun 08 2026 15:24:49 GMT-0500 (Central Daylight Time),922513.8999999762,O,m,1703,74,1,134.bmp,-120,-120,135.bmp,120,-120,136.bmp,-120,120,137.bmp,120,120,9760.299999952316,912753.6000000238,7801,no,SM,A,136.bmp,120,120,198907,192881,200922,194890,915678.0,909649.0,917695.0,911663.0,74
2,0,1,0,0,57,test,1,0,m,Mon Jun 08 2026 15:24:49 GMT-0500 (Central Daylight Time),931844.3000000715,O,z,1268,75,1,138.bmp,-120,-120,139.bmp,120,-120,140.bmp,-120,120,141.bmp,120,120,9327.100000023842,922517.2000000477,7801,no,SM,A,141.bmp,120,-120,198907,192881,200922,194890,925441.0,919412.0,927456.0,921426.0,75
1,1,0,0,0,58,test,1,1,z,Mon Jun 08 2026 15:24:49 GMT-0500 (Central Daylight Time),941090.7000000477,O,z,1186,76,1,142.bmp,-120,-120,143.bmp,120,-120,144.bmp,-120,120,145.bmp,120,120,9243.700000047684,931847.0,7801,yes,SM,A,142.bmp,-120,-120,198907,192881,200922,194890,934771.0,928742.0,936787.0,930755.0,76
3,0,0,1,0,59,test,1,1,z,Mon Jun 08 2026 15:24:49 GMT-0500 (Central Daylight Time),950537.6000000238,O,z,1387,77,1,150.bmp,-120,-120,111.bmp,120,-120,101.bmp,-120,120,102.bmp,120,120,9443.5,941094.1000000238,7801,yes,SM,A,101.bmp,-120,120,198907,192881,200922,194890,944018.0,937989.0,946034.0,940001.0,77
1,1,0,0,0,60,test,1,1,m,Mon Jun 08 2026 15:24:49 GMT-0500 (Central Daylight Time),960550.8000000715,O,m,1958,78,1,146.bmp,-120,-120,147.bmp,120,-120,148.bmp,-120,120,149.bmp,120,120,10007.600000023842,950543.2000000477,7801,no,SM,A,147.bmp,-120,-120,198907,192881,200922,194890,953465.0,947438.0,955480.0,949450.0,78
4,0,0,0,1,61,test,1,1,m,Mon Jun 08 2026 15:24:49 GMT-0500 (Central Daylight Time),970231.3000000715,O,m,1618,79,1,107.bmp,-120,-120,108.bmp,120,-120,109.bmp,-120,120,110.bmp,120,120,9673.0,960558.3000000715,7801,no,SM,A,107.bmp,120,120,198907,192881,200922,194890,963478.0,957454.0,965494.0,959463.0,79
3,0,0,1,0,62,test,1,1,m,Mon Jun 08 2026 15:24:49 GMT-0500 (Central Daylight Time),979645.8000000715,O,m,1366,80,1,103.bmp,-120,-120,104.bmp,120,-120,105.bmp,-120,120,106.bmp,120,120,9406.800000071526,970239.0,7801,no,SM,A,106.bmp,-120,120,198907,192881,200922,194890,973159.0,967134.0,975175.0,969143.0,80
