acc_sum,block,block_c,condition,correct,correct_response,datetime,endtime,flanker,jitter,project,response,response_test_buffer_response,response_test_target_response,response_time,response_time_test_buffer_response,response_time_test_target_response,row_sel,session_number,start_end,starttime,subject_id,target,task,task_vers,time_test_buffer,time_test_buffer_response,time_test_constants,time_test_flanker,time_test_jitter,time_test_logger,time_test_target,time_test_target_response,time_test_variables,trial
1,prac,1,con,1,m,Thu May 28 2026 15:11:23 GMT-0400 (Eastern Daylight Time),159042.30000019073,silver,1000,I,m,,,577,,,11,3,2873.7000002861023,156168.59999990463,9029,silver,NF,C,,,,,,,,,,1
2,prac,1,inc,1,m,Thu May 28 2026 15:11:23 GMT-0400 (Eastern Daylight Time),161742.19999980927,pear,900,I,m,,,498,,,14,3,2687.0,159055.19999980927,9029,iron,NF,C,,,,,,,,,,2
3,prac,1,inc,1,z,Thu May 28 2026 15:11:23 GMT-0400 (Eastern Daylight Time),164442.0,copper,900,I,z,,,485,,,2,3,2689.699999809265,161752.30000019073,9029,cherry,NF,C,,,,,,,,,,3
4,prac,1,inc,1,z,Thu May 28 2026 15:11:23 GMT-0400 (Eastern Daylight Time),167392.0,cobalt,1100,I,z,,,545,,,4,3,2940.300000190735,164451.69999980927,9029,raisin,NF,C,,,,,,,,,,4
5,prac,1,inc,1,m,Thu May 28 2026 15:11:23 GMT-0400 (Eastern Daylight Time),170058.80000019073,cherry,900,I,m,,,451,,,10,3,2656.6000003814697,167402.19999980927,9029,copper,NF,C,,,,,,,,,,5
6,prac,1,inc,1,m,Thu May 28 2026 15:11:23 GMT-0400 (Eastern Daylight Time),173008.90000009537,raisin,1100,I,m,,,544,,,12,3,2940.800000190735,170068.09999990463,9029,cobalt,NF,C,,,,,,,,,,6
7,prac,1,con,1,m,Thu May 28 2026 15:11:23 GMT-0400 (Eastern Daylight Time),175558.69999980927,gold,800,I,m,,,438,,,13,3,2539.2999997138977,173019.40000009537,9029,gold,NF,C,,,,,,,,,,7
8,prac,1,con,1,z,Thu May 28 2026 15:11:23 GMT-0400 (Eastern Daylight Time),178108.69999980927,lime,800,I,z,,,432,,,5,3,2540.8999996185303,175567.80000019073,9029,lime,NF,C,,,,,,,,,,8
9,prac,1,con,1,m,Thu May 28 2026 15:11:23 GMT-0400 (Eastern Daylight Time),180642.0,bronze,800,I,m,,,426,,,9,3,2520.5999999046326,178121.40000009537,9029,bronze,NF,C,,,,,,,,,,9
10,prac,1,con,1,m,Thu May 28 2026 15:11:23 GMT-0400 (Eastern Daylight Time),183475.0,zinc,1000,I,m,,,525,,,15,3,2820.4000000953674,180654.59999990463,9029,zinc,NF,C,,,,,,,,,,10
11,prac,1,con,1,z,Thu May 28 2026 15:11:23 GMT-0400 (Eastern Daylight Time),186191.90000009537,orange,1000,I,z,,,413,,,3,3,2710.0,183481.90000009537,9029,orange,NF,C,,,,,,,,,,11
12,prac,1,con,1,z,Thu May 28 2026 15:11:23 GMT-0400 (Eastern Daylight Time),188691.90000009537,banana,800,I,z,,,391,,,1,3,2490.4000000953674,186201.5,9029,banana,NF,C,,,,,,,,,,12
13,prac,1,inc,1,z,Thu May 28 2026 15:11:23 GMT-0400 (Eastern Daylight Time),191475.40000009537,iron,900,I,z,,,575,,,6,3,2773.800000190735,188701.59999990463,9029,pear,NF,C,,,,,,,,,,13
14,prac,1,con,1,z,Thu May 28 2026 15:11:23 GMT-0400 (Eastern Daylight Time),194275.30000019073,kiwi,1000,I,z,,,492,,,7,3,2787.6000003814697,191487.69999980927,9029,kiwi,NF,C,,,,,,,,,,14
15,prac,1,inc,1,m,Thu May 28 2026 15:11:23 GMT-0400 (Eastern Daylight Time),197208.69999980927,plum,1100,I,m,,,521,,,16,3,2923.3999996185303,194285.30000019073,9029,lead,NF,C,,,,,,,,,,15
16,prac,1,inc,1,z,Thu May 28 2026 15:11:23 GMT-0400 (Eastern Daylight Time),200258.90000009537,lead,1100,I,z,,,642,,,8,3,3041.300000190735,197217.59999990463,9029,plum,NF,C,,,,,,,,,,16
1,test,1,inc,1,m,Thu May 28 2026 15:11:23 GMT-0400 (Eastern Daylight Time),219241.30000019073,lime,800,I,m,m,None,420,220.0,200.0,125,3,1758.1000003814697,217483.19999980927,9029,lead,NF,C,216122,216122,214596,215405,214597,216354,215922,215922,216354,1
2,test,1,inc,1,m,Thu May 28 2026 15:11:23 GMT-0400 (Eastern Daylight Time),221141.80000019073,lime,800,I,m,m,None,557,358.0,199.0,117,3,1894.7000002861023,219247.09999990463,9029,zinc,NF,C,217889,217889,216360,217172,216361,218255,217689,217689,218255,2
3,test,1,inc,1,m,Thu May 28 2026 15:11:23 GMT-0400 (Eastern Daylight Time),223292.0,raisin,1100,I,m,m,None,501,302.0,199.0,72,3,2139.699999809265,221152.30000019073,9029,bronze,NF,C,220089,220089,218265,219372,218266,220405,219889,219889,220405,3
4,test,1,con,1,m,Thu May 28 2026 15:11:23 GMT-0400 (Eastern Daylight Time),225191.80000019073,lead,900,I,m,m,None,455,256.0,199.0,122,3,1891.3000001907349,223300.5,9029,lead,NF,C,222039,222039,220414,221322,220414,222305,221839,221839,222305,4
5,test,1,con,1,m,Thu May 28 2026 15:11:23 GMT-0400 (Eastern Daylight Time),227275.30000019073,gold,1100,I,m,m,None,435,236.0,199.0,100,3,2073.300000190735,225202.0,9029,gold,NF,C,224139,224139,222315,223422,222315,224388,223939,223939,224388,5
6,test,1,inc,1,z,Thu May 28 2026 15:11:23 GMT-0400 (Eastern Daylight Time),229374.90000009537,cobalt,1100,I,z,z,None,465,265.0,200.0,16,3,2089.5,227285.40000009537,9029,cherry,NF,C,226222,226222,224398,225505,224399,226488,226022,226022,226488,6
7,test,1,con,1,z,Thu May 28 2026 15:11:23 GMT-0400 (Eastern Daylight Time),231358.5,pear,1000,I,z,z,None,449,249.0,200.0,43,3,1974.5,229384.0,9029,pear,NF,C,228222,228222,226497,227506,226497,228472,228022,228022,228472,7
8,test,1,con,1,m,Thu May 28 2026 15:11:23 GMT-0400 (Eastern Daylight Time),233175.30000019073,zinc,800,I,m,m,None,473,273.0,200.0,113,3,1808.3000001907349,231367.0,9029,zinc,NF,C,230006,230006,228480,229289,228480,230288,229805,229805,230288,8
8,test,1,con,0,z,Thu May 28 2026 15:11:23 GMT-0400 (Eastern Daylight Time),234958.5,lime,800,I,m,m,None,432,233.0,199.0,33,3,1772.1999998092651,233186.30000019073,9029,lime,NF,C,231822,231822,230299,231106,230300,232072,231622,231622,232072,9
9,test,1,con,1,z,Thu May 28 2026 15:11:23 GMT-0400 (Eastern Daylight Time),236958.59999990463,raisin,1000,I,z,z,None,448,249.0,199.0,27,3,1990.2999997138977,234968.30000019073,9029,raisin,NF,C,233806,233806,232081,233089,232082,234072,233606,233606,234072,10
10,test,1,con,1,z,Thu May 28 2026 15:11:23 GMT-0400 (Eastern Daylight Time),239175.40000009537,banana,1100,I,z,z,None,573,373.0,200.0,4,3,2206.300000190735,236969.09999990463,9029,banana,NF,C,235905,235906,234082,235189,234083,236288,235705,235705,236288,11
11,test,1,inc,1,m,Thu May 28 2026 15:11:23 GMT-0400 (Eastern Daylight Time),241091.90000009537,lime,800,I,m,m,None,576,377.0,199.0,109,3,1907.3000001907349,239184.59999990463,9029,iron,NF,C,237822,237822,236298,237106,236298,238205,237622,237622,238205,12
12,test,1,inc,1,m,Thu May 28 2026 15:11:23 GMT-0400 (Eastern Daylight Time),243258.5,raisin,1100,I,m,m,None,519,320.0,199.0,80,3,2156.199999809265,241102.30000019073,9029,copper,NF,C,240039,240039,238215,239322,238216,240372,239839,239839,240372,13
13,test,1,con,1,z,Thu May 28 2026 15:11:23 GMT-0400 (Eastern Daylight Time),245408.59999990463,plum,1100,I,z,z,None,512,313.0,199.0,60,3,2140.0999999046326,243268.5,9029,plum,NF,C,242206,242206,240381,241489,240382,242522,242006,242006,242522,14
14,test,1,inc,1,m,Thu May 28 2026 15:11:23 GMT-0400 (Eastern Daylight Time),247441.90000009537,kiwi,1000,I,m,m,None,494,295.0,199.0,127,3,2021.7000002861023,245420.19999980927,9029,lead,NF,C,244255,244256,242533,243539,242534,244555,244055,244056,244555,15
15,test,1,con,1,m,Thu May 28 2026 15:11:23 GMT-0400 (Eastern Daylight Time),249391.69999980927,silver,800,I,m,m,None,613,414.0,199.0,81,3,1940.3999996185303,247451.30000019073,9029,silver,NF,C,246089,246089,244564,245372,244565,246505,245889,245889,246505,16
16,test,1,inc,1,m,Thu May 28 2026 15:11:23 GMT-0400 (Eastern Daylight Time),251458.59999990463,orange,1000,I,m,m,None,527,328.0,199.0,87,3,2056.9000000953674,249401.69999980927,9029,silver,NF,C,248239,248239,246515,247522,246515,248572,248039,248039,248572,17
17,test,1,con,1,m,Thu May 28 2026 15:11:23 GMT-0400 (Eastern Daylight Time),253292.0,iron,800,I,m,m,None,484,285.0,199.0,105,3,1824.0999999046326,251467.90000009537,9029,iron,NF,C,250106,250106,248581,249389,248581,250405,249906,249906,250405,18
18,test,1,con,1,m,Thu May 28 2026 15:11:23 GMT-0400 (Eastern Daylight Time),255108.5,gold,800,I,m,m,None,475,276.0,199.0,97,3,1807.0999999046326,253301.40000009537,9029,gold,NF,C,251939,251939,250414,251222,250415,252222,251739,251739,252222,19
19,test,1,con,1,z,Thu May 28 2026 15:11:23 GMT-0400 (Eastern Daylight Time),256975.09999990463,plum,900,I,z,z,None,430,231.0,199.0,58,3,1855.2999997138977,255119.80000019073,9029,plum,NF,C,253856,253856,252233,253139,252233,254088,253656,253656,254088,20
20,test,1,inc,1,z,Thu May 28 2026 15:11:23 GMT-0400 (Eastern Daylight Time),259025.19999980927,silver,1000,I,z,z,None,513,313.0,200.0,23,3,2041.3999996185303,256983.80000019073,9029,orange,NF,C,255822,255822,254097,255105,254097,256138,255622,255622,256138,21
21,test,1,inc,1,z,Thu May 28 2026 15:11:23 GMT-0400 (Eastern Daylight Time),261092.0,iron,900,I,z,z,None,627,427.0,200.0,54,3,2056.0999999046326,259035.90000009537,9029,kiwi,NF,C,257772,257772,256149,257056,256149,258205,257572,257572,258205,22
22,test,1,inc,1,z,Thu May 28 2026 15:11:23 GMT-0400 (Eastern Daylight Time),263258.59999990463,zinc,1000,I,z,z,None,619,420.0,199.0,39,3,2156.7999997138977,261101.80000019073,9029,lime,NF,C,259939,259939,258215,259222,258215,260372,259739,259739,260372,23
23,test,1,con,1,m,Thu May 28 2026 15:11:23 GMT-0400 (Eastern Daylight Time),265091.90000009537,bronze,800,I,m,m,None,492,293.0,199.0,65,3,1821.5,263270.40000009537,9029,bronze,NF,C,261906,261906,260383,261189,260384,262205,261706,261706,262205,24
24,test,1,inc,1,z,Thu May 28 2026 15:11:23 GMT-0400 (Eastern Daylight Time),267092.0,copper,900,I,z,z,None,559,360.0,199.0,22,3,1987.9000000953674,265104.09999990463,9029,orange,NF,C,263839,263839,262217,263122,262217,264205,263639,263639,264205,25
25,test,1,inc,1,z,Thu May 28 2026 15:11:23 GMT-0400 (Eastern Daylight Time),269275.40000009537,cobalt,1100,I,z,z,None,535,336.0,199.0,32,3,2171.7000002861023,267103.69999980927,9029,raisin,NF,C,266039,266039,264217,265322,264217,266388,265839,265839,266388,26
26,test,1,con,1,m,Thu May 28 2026 15:11:23 GMT-0400 (Eastern Daylight Time),271377.0,copper,1100,I,m,m,None,465,265.0,200.0,76,3,2092.0999999046326,269284.90000009537,9029,copper,NF,C,268222,268222,266398,267505,266398,268490,268022,268022,268490,27
27,test,1,inc,1,m,Thu May 28 2026 15:11:23 GMT-0400 (Eastern Daylight Time),273359.0,cherry,900,I,m,m,None,549,349.0,200.0,70,3,1968.0,271391.0,9029,bronze,NF,C,270122,270122,268504,269405,268504,270472,269922,269922,270472,28
28,test,1,inc,1,m,Thu May 28 2026 15:11:23 GMT-0400 (Eastern Daylight Time),275391.59999990463,pear,900,I,m,m,None,596,397.0,199.0,102,3,2024.4000000953674,273367.19999980927,9029,gold,NF,C,272106,272106,270480,271389,270481,272505,271906,271906,272505,29
29,test,1,inc,1,m,Thu May 28 2026 15:11:23 GMT-0400 (Eastern Daylight Time),277325.30000019073,lime,800,I,m,m,None,583,384.0,199.0,101,3,1924.4000000953674,275400.90000009537,9029,gold,NF,C,274039,274039,272514,273322,272514,274438,273839,273839,274438,30
30,test,1,con,1,z,Thu May 28 2026 15:11:23 GMT-0400 (Eastern Daylight Time),279491.90000009537,kiwi,1100,I,z,z,None,527,327.0,200.0,52,3,2157.2000002861023,277334.69999980927,9029,kiwi,NF,C,276272,276272,274448,275555,274448,276605,276072,276072,276605,31
31,test,1,con,1,m,Thu May 28 2026 15:11:23 GMT-0400 (Eastern Daylight Time),281525.30000019073,lead,1000,I,m,m,None,491,292.0,199.0,123,3,2025.2000002861023,279500.09999990463,9029,lead,NF,C,278339,278339,276613,277622,276614,278638,278139,278139,278638,32
32,test,1,con,1,m,Thu May 28 2026 15:11:23 GMT-0400 (Eastern Daylight Time),283642.0,zinc,1000,I,m,m,None,571,371.0,200.0,115,3,2107.300000190735,281534.69999980927,9029,zinc,NF,C,280372,280372,278648,279655,278648,280755,280172,280172,280755,33
33,test,1,inc,1,m,Thu May 28 2026 15:11:23 GMT-0400 (Eastern Daylight Time),285675.30000019073,pear,900,I,m,m,None,585,386.0,199.0,126,3,2023.2000002861023,283652.09999990463,9029,lead,NF,C,282389,282389,280765,281672,280766,282789,282189,282189,282788,34
34,test,1,inc,1,m,Thu May 28 2026 15:11:23 GMT-0400 (Eastern Daylight Time),287575.30000019073,banana,800,I,m,m,None,556,356.0,200.0,77,3,1891.5,285683.80000019073,9029,copper,NF,C,284322,284323,282797,283605,282797,284688,284122,284122,284688,35
35,test,1,con,1,z,Thu May 28 2026 15:11:23 GMT-0400 (Eastern Daylight Time),289541.80000019073,orange,1000,I,z,z,None,425,225.0,200.0,19,3,1955.6000003814697,287586.19999980927,9029,orange,NF,C,286422,286422,284699,285705,284700,286655,286222,286222,286655,36
36,test,1,inc,1,z,Thu May 28 2026 15:11:23 GMT-0400 (Eastern Daylight Time),291625.30000019073,silver,1000,I,z,z,None,537,338.0,199.0,7,3,2074.7000002861023,289550.59999990463,9029,banana,NF,C,288389,288389,286664,287672,286664,288738,288189,288189,288738,37
37,test,1,inc,1,z,Thu May 28 2026 15:11:23 GMT-0400 (Eastern Daylight Time),293575.30000019073,bronze,800,I,z,z,None,607,407.0,200.0,5,3,1940.4000000953674,291634.90000009537,9029,banana,NF,C,290272,290272,288748,289555,288748,290688,290072,290072,290688,38
38,test,1,con,1,z,Thu May 28 2026 15:11:23 GMT-0400 (Eastern Daylight Time),295591.69999980927,cherry,1000,I,z,z,None,473,273.0,200.0,11,3,2005.3999996185303,293586.30000019073,9029,cherry,NF,C,292422,292422,290699,291705,290700,292705,292222,292222,292705,39
39,test,1,con,1,z,Thu May 28 2026 15:11:23 GMT-0400 (Eastern Daylight Time),297525.30000019073,orange,900,I,z,z,None,491,292.0,199.0,18,3,1927.0,295598.30000019073,9029,orange,NF,C,294339,294339,292711,293622,292712,294638,294139,294139,294638,40
40,test,1,inc,1,z,Thu May 28 2026 15:11:23 GMT-0400 (Eastern Daylight Time),299675.40000009537,lead,1100,I,z,z,None,503,303.0,200.0,48,3,2139.9000000953674,297535.5,9029,pear,NF,C,296472,296472,294649,295755,294649,296789,296272,296272,296788,41
41,test,1,inc,1,m,Thu May 28 2026 15:11:23 GMT-0400 (Eastern Daylight Time),301741.90000009537,kiwi,1000,I,m,m,None,517,317.0,200.0,111,3,2052.9000000953674,299689.0,9029,iron,NF,C,298522,298522,296802,297805,296802,298855,298322,298322,298855,42
42,test,1,inc,1,m,Thu May 28 2026 15:11:23 GMT-0400 (Eastern Daylight Time),303658.69999980927,cherry,900,I,m,m,None,469,270.0,199.0,86,3,1905.6999998092651,301753.0,9029,silver,NF,C,300489,300489,298866,299772,298866,300772,300289,300289,300772,43
43,test,1,inc,1,z,Thu May 28 2026 15:11:23 GMT-0400 (Eastern Daylight Time),305541.90000009537,gold,800,I,z,z,None,541,342.0,199.0,45,3,1874.5,303667.40000009537,9029,pear,NF,C,302305,302305,300780,301588,300781,302655,302106,302106,302655,44
44,test,1,con,1,m,Thu May 28 2026 15:11:23 GMT-0400 (Eastern Daylight Time),307658.80000019073,silver,1000,I,m,m,None,569,370.0,199.0,83,3,2108.6000003814697,305550.19999980927,9029,silver,NF,C,304389,304389,302663,303672,302663,304772,304189,304189,304772,45
45,test,1,inc,1,z,Thu May 28 2026 15:11:23 GMT-0400 (Eastern Daylight Time),309558.69999980927,bronze,800,I,z,z,None,541,341.0,200.0,13,3,1884.2999997138977,307674.40000009537,9029,cherry,NF,C,306322,306322,304787,305606,304788,306672,306122,306122,306672,46
46,test,1,inc,1,m,Thu May 28 2026 15:11:23 GMT-0400 (Eastern Daylight Time),311708.59999990463,orange,1000,I,m,m,None,600,401.0,199.0,95,3,2140.199999809265,309568.40000009537,9029,cobalt,NF,C,308406,308406,306681,307689,306682,308822,308206,308206,308822,47
47,test,1,con,1,z,Thu May 28 2026 15:11:23 GMT-0400 (Eastern Daylight Time),313958.59999990463,orange,1100,I,z,z,None,606,407.0,199.0,20,3,2239.5999999046326,311719.0,9029,orange,NF,C,310656,310656,308832,309939,308832,311072,310455,310456,311072,48
48,test,1,con,1,m,Thu May 28 2026 15:11:23 GMT-0400 (Eastern Daylight Time),315925.30000019073,iron,900,I,m,m,None,525,325.0,200.0,106,3,1957.5,313967.80000019073,9029,iron,NF,C,312706,312706,311081,311989,311081,313038,312505,312505,313038,49
49,test,1,con,1,z,Thu May 28 2026 15:11:23 GMT-0400 (Eastern Daylight Time),318042.0,lime,900,I,z,z,None,671,471.0,200.0,34,3,2105.5999999046326,315936.40000009537,9029,lime,NF,C,314672,314672,313049,313955,313050,315155,314472,314472,315155,50
50,test,1,con,1,m,Thu May 28 2026 15:11:23 GMT-0400 (Eastern Daylight Time),320075.40000009537,copper,1000,I,m,m,None,485,286.0,199.0,75,3,2023.8000001907349,318051.59999990463,9029,copper,NF,C,316889,316889,315165,316172,315165,317189,316689,316689,317188,51
51,test,1,inc,1,z,Thu May 28 2026 15:11:23 GMT-0400 (Eastern Daylight Time),322325.40000009537,lead,1100,I,z,z,None,609,409.0,200.0,56,3,2240.300000190735,320085.09999990463,9029,kiwi,NF,C,319022,319022,317198,318305,317198,319438,318822,318822,319438,52
52,test,1,inc,1,z,Thu May 28 2026 15:11:23 GMT-0400 (Eastern Daylight Time),324291.90000009537,copper,900,I,z,z,None,527,327.0,200.0,30,3,1957.9000000953674,322334.0,9029,raisin,NF,C,321072,321072,319447,320356,319447,321405,320872,320872,321405,53
53,test,1,con,1,m,Thu May 28 2026 15:11:23 GMT-0400 (Eastern Daylight Time),326142.40000009537,lead,800,I,m,m,None,515,316.0,199.0,121,3,1837.0999999046326,324305.30000019073,9029,lead,NF,C,322939,322939,321418,322222,321419,323255,322739,322739,323255,54
54,test,1,con,1,z,Thu May 28 2026 15:11:23 GMT-0400 (Eastern Daylight Time),328025.30000019073,raisin,900,I,z,z,None,437,238.0,199.0,26,3,1873.9000000953674,326151.40000009537,9029,raisin,NF,C,324889,324889,323264,324172,323265,325138,324689,324689,325138,55
55,test,1,con,1,m,Thu May 28 2026 15:11:23 GMT-0400 (Eastern Daylight Time),330125.30000019073,lead,1100,I,m,m,None,451,251.0,200.0,124,3,2090.800000190735,328034.5,9029,lead,NF,C,326972,326972,325148,326255,325148,327238,326772,326772,327238,56
56,test,1,con,1,z,Thu May 28 2026 15:11:23 GMT-0400 (Eastern Daylight Time),332075.30000019073,plum,1000,I,z,z,None,403,203.0,200.0,59,3,1938.6000003814697,330136.69999980927,9029,plum,NF,C,328972,328972,327250,328255,327250,329188,328772,328772,329188,57
57,test,1,con,1,z,Thu May 28 2026 15:11:23 GMT-0400 (Eastern Daylight Time),334058.5,pear,900,I,z,z,None,536,336.0,200.0,42,3,1972.0,332086.5,9029,pear,NF,C,330822,330823,329200,330106,329200,331172,330622,330622,331172,58
58,test,1,con,1,z,Thu May 28 2026 15:11:23 GMT-0400 (Eastern Daylight Time),336058.69999980927,lime,1000,I,z,z,None,453,253.0,200.0,35,3,1991.0,334067.69999980927,9029,lime,NF,C,332905,332906,331181,332189,331181,333172,332705,332705,333172,59
59,test,1,inc,1,m,Thu May 28 2026 15:11:23 GMT-0400 (Eastern Daylight Time),338025.30000019073,pear,900,I,m,m,None,521,322.0,199.0,110,3,1954.3000001907349,336071.0,9029,iron,NF,C,334805,334805,333184,334089,333184,335139,334606,334606,335138,60
60,test,1,con,1,z,Thu May 28 2026 15:11:23 GMT-0400 (Eastern Daylight Time),340191.80000019073,raisin,1100,I,z,z,None,531,331.0,200.0,28,3,2157.4000000953674,338034.40000009537,9029,raisin,NF,C,336972,336972,335147,336255,335148,337305,336772,336772,337305,61
61,test,1,inc,1,z,Thu May 28 2026 15:11:23 GMT-0400 (Eastern Daylight Time),342425.40000009537,lead,1100,I,z,z,None,587,388.0,199.0,40,3,2224.0,340201.40000009537,9029,lime,NF,C,339139,339139,337314,338422,337315,339538,338939,338939,339538,62
62,test,1,con,1,m,Thu May 28 2026 15:11:23 GMT-0400 (Eastern Daylight Time),344492.0,zinc,900,I,m,m,None,619,419.0,200.0,114,3,2057.0999999046326,342434.90000009537,9029,zinc,NF,C,341172,341172,339548,340455,339548,341605,340972,340972,341605,63
63,test,1,inc,1,m,Thu May 28 2026 15:11:23 GMT-0400 (Eastern Daylight Time),346658.69999980927,plum,1100,I,m,m,None,527,328.0,199.0,128,3,2157.5999999046326,344501.09999990463,9029,lead,NF,C,343439,343439,341614,342722,341615,343772,343239,343239,343772,64
64,test,1,con,1,m,Thu May 28 2026 15:11:23 GMT-0400 (Eastern Daylight Time),348691.90000009537,gold,1000,I,m,m,None,493,293.0,200.0,99,3,2023.4000000953674,346668.5,9029,gold,NF,C,345506,345506,343782,344789,343782,345805,345305,345305,345805,65
65,test,1,inc,1,z,Thu May 28 2026 15:11:23 GMT-0400 (Eastern Daylight Time),350892.0,cobalt,1100,I,z,z,None,551,352.0,199.0,8,3,2189.300000190735,348702.69999980927,9029,banana,NF,C,347639,347639,345816,346922,345816,348005,347439,347439,348005,66
66,test,1,inc,1,z,Thu May 28 2026 15:11:23 GMT-0400 (Eastern Daylight Time),352725.40000009537,bronze,800,I,z,z,None,491,292.0,199.0,29,3,1825.0,350900.40000009537,9029,raisin,NF,C,349539,349539,348013,348822,348014,349838,349339,349339,349838,67
67,test,1,con,1,m,Thu May 28 2026 15:11:23 GMT-0400 (Eastern Daylight Time),354808.69999980927,iron,1000,I,m,m,None,539,339.0,200.0,107,3,2075.2999997138977,352733.40000009537,9029,iron,NF,C,351572,351572,349846,350855,349847,351922,351372,351372,351922,68
68,test,1,con,1,m,Thu May 28 2026 15:11:23 GMT-0400 (Eastern Daylight Time),357042.0,bronze,1000,I,m,m,None,694,495.0,199.0,67,3,2223.9000000953674,354818.09999990463,9029,bronze,NF,C,353656,353656,351931,352939,351931,354155,353456,353456,354155,69
69,test,1,con,1,m,Thu May 28 2026 15:11:23 GMT-0400 (Eastern Daylight Time),359142.0,silver,1100,I,m,m,None,457,258.0,199.0,84,3,2089.0,357053.0,9029,silver,NF,C,355989,355989,354166,355272,354166,356255,355789,355789,356255,70
70,test,1,con,1,z,Thu May 28 2026 15:11:23 GMT-0400 (Eastern Daylight Time),361292.09999990463,lime,1100,I,z,z,None,501,302.0,199.0,36,3,2141.7999997138977,359150.30000019073,9029,lime,NF,C,358089,358089,356263,357372,356264,358405,357889,357889,358405,71
71,test,1,con,1,m,Thu May 28 2026 15:11:23 GMT-0400 (Eastern Daylight Time),363358.80000019073,gold,900,I,m,m,None,631,432.0,199.0,98,3,2056.2000002861023,361302.59999990463,9029,gold,NF,C,360039,360039,358416,359322,358416,360472,359839,359839,360472,72
72,test,1,inc,1,z,Thu May 28 2026 15:11:23 GMT-0400 (Eastern Daylight Time),365242.0,gold,800,I,z,z,None,537,337.0,200.0,53,3,1874.0,363368.0,9029,kiwi,NF,C,362005,362006,360481,361289,360482,362355,361805,361805,362355,73
73,test,1,inc,1,m,Thu May 28 2026 15:11:23 GMT-0400 (Eastern Daylight Time),367358.80000019073,plum,1100,I,m,m,None,466,267.0,199.0,120,3,2107.4000000953674,365251.40000009537,9029,zinc,NF,C,364189,364189,362364,363472,362365,364472,363989,363989,364472,74
74,test,1,inc,1,m,Thu May 28 2026 15:11:23 GMT-0400 (Eastern Daylight Time),369358.80000019073,cherry,900,I,m,m,None,548,349.0,199.0,78,3,1990.2000002861023,367368.59999990463,9029,copper,NF,C,366106,366106,364482,365389,364482,366472,365906,365906,366472,75
75,test,1,inc,1,z,Thu May 28 2026 15:11:23 GMT-0400 (Eastern Daylight Time),371425.19999980927,zinc,1000,I,z,z,None,528,329.0,199.0,63,3,2055.2999997138977,369369.90000009537,9029,plum,NF,C,368206,368206,366483,367489,366483,368538,368006,368006,368538,76
76,test,1,inc,1,m,Thu May 28 2026 15:11:23 GMT-0400 (Eastern Daylight Time),373542.0,raisin,1100,I,m,m,None,475,275.0,200.0,88,3,2107.5,371434.5,9029,silver,NF,C,370372,370372,368548,369656,368548,370655,370172,370172,370655,77
77,test,1,con,1,z,Thu May 28 2026 15:11:23 GMT-0400 (Eastern Daylight Time),375475.30000019073,kiwi,800,I,z,z,None,593,394.0,199.0,49,3,1924.1000003814697,373551.19999980927,9029,kiwi,NF,C,372189,372189,370664,371472,370665,372588,371989,371989,372588,78
78,test,1,inc,1,m,Thu May 28 2026 15:11:23 GMT-0400 (Eastern Daylight Time),377275.40000009537,banana,800,I,m,m,None,453,253.0,200.0,85,3,1790.9000000953674,375484.5,9029,silver,NF,C,374122,374122,372598,373406,372598,374388,373922,373922,374388,79
79,test,1,con,1,m,Thu May 28 2026 15:11:23 GMT-0400 (Eastern Daylight Time),379125.30000019073,copper,800,I,m,m,None,509,309.0,200.0,73,3,1840.7000002861023,377284.59999990463,9029,copper,NF,C,375922,375922,374398,375205,374398,376238,375722,375722,376238,80
80,test,1,con,1,m,Thu May 28 2026 15:11:23 GMT-0400 (Eastern Daylight Time),381358.59999990463,iron,1100,I,m,m,None,584,384.0,200.0,108,3,2224.5,379134.09999990463,9029,iron,NF,C,378072,378072,376247,377356,376248,378472,377872,377872,378472,81
81,test,1,con,1,z,Thu May 28 2026 15:11:23 GMT-0400 (Eastern Daylight Time),383158.90000009537,pear,800,I,z,z,None,457,258.0,199.0,41,3,1791.8000001907349,381367.09999990463,9029,pear,NF,C,380006,380006,378480,379289,378480,380272,379805,379806,380272,82
82,test,1,inc,1,m,Thu May 28 2026 15:11:23 GMT-0400 (Eastern Daylight Time),385208.80000019073,orange,1000,I,m,m,None,505,305.0,200.0,79,3,2040.9000000953674,383167.90000009537,9029,copper,NF,C,382006,382006,380281,381289,380281,382322,381805,381805,382322,83
83,test,1,con,1,z,Thu May 28 2026 15:11:23 GMT-0400 (Eastern Daylight Time),387092.09999990463,kiwi,900,I,z,z,None,442,243.0,199.0,50,3,1872.0,385220.09999990463,9029,kiwi,NF,C,383956,383956,382333,383239,382333,384205,383755,383756,384205,84
84,test,1,inc,1,m,Thu May 28 2026 15:11:23 GMT-0400 (Eastern Daylight Time),389191.90000009537,raisin,1100,I,m,m,None,455,256.0,199.0,96,3,2090.7000002861023,387101.19999980927,9029,cobalt,NF,C,386039,386039,384214,385322,384215,386305,385839,385839,386305,85
85,test,1,con,1,z,Thu May 28 2026 15:11:23 GMT-0400 (Eastern Daylight Time),391042.0,cherry,900,I,z,z,None,411,212.0,199.0,10,3,1840.5999999046326,389201.40000009537,9029,cherry,NF,C,387939,387939,386314,387222,386315,388155,387739,387739,388155,86
86,test,1,con,1,z,Thu May 28 2026 15:11:23 GMT-0400 (Eastern Daylight Time),393142.0,cherry,1100,I,z,z,None,457,258.0,199.0,12,3,2091.199999809265,391050.80000019073,9029,cherry,NF,C,389989,389989,388164,389272,388164,390255,389789,389789,390255,87
87,test,1,con,1,m,Thu May 28 2026 15:11:23 GMT-0400 (Eastern Daylight Time),395258.69999980927,zinc,1100,I,m,m,None,469,270.0,199.0,116,3,2107.0999999046326,393151.59999990463,9029,zinc,NF,C,392089,392089,390265,391372,390265,392372,391889,391889,392372,88
88,test,1,inc,1,z,Thu May 28 2026 15:11:23 GMT-0400 (Eastern Daylight Time),397492.09999990463,cobalt,1100,I,z,z,None,592,393.0,199.0,24,3,2224.9000000953674,395267.19999980927,9029,orange,NF,C,394206,394206,392380,393489,392381,394605,394006,394006,394605,89
89,test,1,inc,1,z,Thu May 28 2026 15:11:23 GMT-0400 (Eastern Daylight Time),399592.09999990463,zinc,1000,I,z,z,None,556,357.0,199.0,47,3,2090.9000000953674,397501.19999980927,9029,pear,NF,C,396338,396338,394614,395622,394615,396705,396139,396139,396705,90
90,test,1,inc,1,z,Thu May 28 2026 15:11:23 GMT-0400 (Eastern Daylight Time),401525.40000009537,copper,900,I,z,z,None,491,292.0,199.0,14,3,1923.5,399601.90000009537,9029,cherry,NF,C,398339,398339,396715,397622,396715,398639,398139,398139,398638,91
91,test,1,inc,1,m,Thu May 28 2026 15:11:23 GMT-0400 (Eastern Daylight Time),403625.40000009537,orange,1000,I,m,m,None,555,355.0,200.0,71,3,2091.2000002861023,401534.19999980927,9029,bronze,NF,C,400372,400372,398647,399656,398648,400739,400172,400172,400738,92
92,test,1,con,1,z,Thu May 28 2026 15:11:23 GMT-0400 (Eastern Daylight Time),405525.40000009537,plum,800,I,z,z,None,559,359.0,200.0,57,3,1891.9000000953674,403633.5,9029,plum,NF,C,402272,402272,400747,401556,400747,402639,402072,402072,402638,93
93,test,1,con,1,z,Thu May 28 2026 15:11:23 GMT-0400 (Eastern Daylight Time),407525.40000009537,banana,1000,I,z,z,None,458,258.0,200.0,3,3,1989.7000002861023,405535.69999980927,9029,banana,NF,C,404372,404373,402649,403656,402649,404639,404172,404172,404638,94
94,test,1,con,1,z,Thu May 28 2026 15:11:23 GMT-0400 (Eastern Daylight Time),409442.0,banana,900,I,z,z,None,479,279.0,200.0,2,3,1906.5999999046326,407535.40000009537,9029,banana,NF,C,406272,406272,404648,405555,404649,406555,406072,406072,406555,95
95,test,1,inc,1,m,Thu May 28 2026 15:11:23 GMT-0400 (Eastern Daylight Time),411442.0,cherry,900,I,m,m,None,561,362.0,199.0,94,3,1989.1999998092651,409452.80000019073,9029,cobalt,NF,C,408189,408189,406566,407472,406566,408555,407989,407989,408555,96
96,test,1,inc,1,m,Thu May 28 2026 15:11:23 GMT-0400 (Eastern Daylight Time),413458.69999980927,banana,800,I,m,m,None,677,478.0,199.0,93,3,2008.0,411450.69999980927,9029,cobalt,NF,C,410089,410089,408564,409372,408564,410572,409889,409889,410572,97
97,test,1,inc,1,m,Thu May 28 2026 15:11:23 GMT-0400 (Eastern Daylight Time),415508.69999980927,pear,900,I,m,m,None,608,409.0,199.0,118,3,2040.8999996185303,413467.80000019073,9029,zinc,NF,C,412206,412206,410581,411489,410581,412622,412006,412006,412622,98
98,test,1,con,1,m,Thu May 28 2026 15:11:23 GMT-0400 (Eastern Daylight Time),417525.40000009537,cobalt,1000,I,m,m,None,474,275.0,199.0,91,3,2008.0,415517.40000009537,9029,cobalt,NF,C,414356,414356,412630,413639,412631,414639,414156,414156,414638,99
99,test,1,con,1,z,Thu May 28 2026 15:11:23 GMT-0400 (Eastern Daylight Time),419442.0,raisin,800,I,z,z,None,579,379.0,200.0,25,3,1906.0,417536.0,9029,raisin,NF,C,416172,416172,414649,415456,414650,416555,415972,415972,416555,100
100,test,1,con,1,z,Thu May 28 2026 15:11:23 GMT-0400 (Eastern Daylight Time),421292.09999990463,cherry,800,I,z,z,None,501,302.0,199.0,9,3,1840.5999999046326,419451.5,9029,cherry,NF,C,418089,418089,416565,417372,416565,418405,417889,417889,418405,101
101,test,1,inc,1,m,Thu May 28 2026 15:11:23 GMT-0400 (Eastern Daylight Time),423225.40000009537,banana,800,I,m,m,None,587,388.0,199.0,69,3,1924.2000002861023,421301.19999980927,9029,bronze,NF,C,419939,419939,418414,419222,418415,420339,419739,419739,420338,102
102,test,1,inc,1,m,Thu May 28 2026 15:11:23 GMT-0400 (Eastern Daylight Time),425508.80000019073,kiwi,1000,I,m,m,None,743,543.0,200.0,103,3,2272.4000000953674,423236.40000009537,9029,gold,NF,C,422072,422072,420349,421355,420350,422622,421872,421872,422622,103
103,test,1,con,1,m,Thu May 28 2026 15:11:23 GMT-0400 (Eastern Daylight Time),427725.5,cobalt,1100,I,m,m,None,566,367.0,199.0,92,3,2206.300000190735,425519.19999980927,9029,cobalt,NF,C,424456,424456,422632,423739,422633,424839,424256,424256,424838,104
104,test,1,inc,1,z,Thu May 28 2026 15:11:23 GMT-0400 (Eastern Daylight Time),429791.80000019073,silver,1000,I,z,z,None,531,331.0,200.0,31,3,2055.6000003814697,427736.19999980927,9029,raisin,NF,C,426572,426572,424849,425855,424849,426905,426372,426372,426905,105
105,test,1,inc,1,z,Thu May 28 2026 15:11:23 GMT-0400 (Eastern Daylight Time),431858.90000009537,copper,900,I,z,z,None,627,428.0,199.0,6,3,2057.7000002861023,429801.19999980927,9029,banana,NF,C,428539,428539,426914,427822,426915,428972,428339,428339,428972,106
106,test,1,inc,1,z,Thu May 28 2026 15:11:23 GMT-0400 (Eastern Daylight Time),433725.5,bronze,800,I,z,z,None,516,317.0,199.0,21,3,1857.1999998092651,431868.30000019073,9029,orange,NF,C,430506,430506,428981,429789,428982,430839,430305,430306,430839,107
107,test,1,inc,1,m,Thu May 28 2026 15:11:23 GMT-0400 (Eastern Daylight Time),435942.0,plum,1100,I,m,m,None,575,375.0,200.0,104,3,2204.5999999046326,433737.40000009537,9029,gold,NF,C,432672,432672,430850,431956,430851,433055,432472,432472,433055,108
108,test,1,con,1,z,Thu May 28 2026 15:11:23 GMT-0400 (Eastern Daylight Time),438158.69999980927,kiwi,1000,I,z,z,None,665,466.0,199.0,51,3,2208.199999809265,435950.5,9029,kiwi,NF,C,434789,434789,433063,434072,433064,435272,434589,434589,435272,109
109,test,1,inc,1,m,Thu May 28 2026 15:11:23 GMT-0400 (Eastern Daylight Time),440375.40000009537,plum,1100,I,m,m,None,572,373.0,199.0,112,3,2206.800000190735,438168.59999990463,9029,iron,NF,C,437106,437106,435282,436389,435282,437489,436906,436906,437488,110
110,test,1,con,1,m,Thu May 28 2026 15:11:23 GMT-0400 (Eastern Daylight Time),442342.0,bronze,900,I,m,m,None,525,325.0,200.0,66,3,1957.6999998092651,440384.30000019073,9029,bronze,NF,C,439122,439122,437497,438406,437498,439455,438922,438922,439455,111
111,test,1,con,1,z,Thu May 28 2026 15:11:23 GMT-0400 (Eastern Daylight Time),444492.0,pear,1100,I,z,z,None,501,302.0,199.0,44,3,2141.0999999046326,442350.90000009537,9029,pear,NF,C,441289,441289,439464,440572,439464,441605,441089,441089,441605,112
112,test,1,con,1,m,Thu May 28 2026 15:11:23 GMT-0400 (Eastern Daylight Time),446442.09999990463,silver,900,I,m,m,None,503,304.0,199.0,82,3,1941.5999999046326,444500.5,9029,silver,NF,C,443239,443239,441613,442522,441614,443555,443039,443039,443555,113
113,test,1,con,1,m,Thu May 28 2026 15:11:23 GMT-0400 (Eastern Daylight Time),448408.69999980927,cobalt,900,I,m,m,None,522,323.0,199.0,90,3,1957.5,446451.19999980927,9029,cobalt,NF,C,445189,445189,443564,444472,443564,445522,444989,444989,445522,114
114,test,1,con,1,z,Thu May 28 2026 15:11:23 GMT-0400 (Eastern Daylight Time),450242.0,orange,800,I,z,z,None,495,295.0,200.0,17,3,1824.6999998092651,448417.30000019073,9029,orange,NF,C,447056,447056,445530,446339,445531,447355,446855,446855,447355,115
115,test,1,con,1,z,Thu May 28 2026 15:11:23 GMT-0400 (Eastern Daylight Time),452142.09999990463,banana,800,I,z,z,None,549,350.0,199.0,1,3,1891.1999998092651,450250.90000009537,9029,banana,NF,C,448889,448889,447364,448172,447364,449255,448689,448689,449255,116
116,test,1,con,1,m,Thu May 28 2026 15:11:23 GMT-0400 (Eastern Daylight Time),453858.69999980927,cobalt,800,I,m,m,None,377,178.0,199.0,89,3,1707.3999996185303,452151.30000019073,9029,cobalt,NF,C,450789,450789,449264,450072,449265,450972,450589,450589,450972,117
117,test,1,inc,1,z,Thu May 28 2026 15:11:23 GMT-0400 (Eastern Daylight Time),455992.09999990463,iron,900,I,z,z,None,689,489.0,200.0,38,3,2124.699999809265,453867.40000009537,9029,lime,NF,C,452606,452606,450980,451889,450981,453105,452405,452405,453105,118
118,test,1,inc,1,z,Thu May 28 2026 15:11:23 GMT-0400 (Eastern Daylight Time),457975.40000009537,silver,1000,I,z,z,None,439,240.0,199.0,15,3,1974.0999999046326,456001.30000019073,9029,cherry,NF,C,454839,454839,453114,454122,453115,455088,454639,454639,455088,119
119,test,1,inc,1,m,Thu May 28 2026 15:11:23 GMT-0400 (Eastern Daylight Time),460108.80000019073,kiwi,1000,I,m,m,None,586,386.0,200.0,119,3,2124.7000002861023,457984.09999990463,9029,zinc,NF,C,456822,456822,455097,456106,455098,457222,456622,456622,457222,120
120,test,1,inc,1,z,Thu May 28 2026 15:11:23 GMT-0400 (Eastern Daylight Time),462258.69999980927,lead,1100,I,z,z,None,510,311.0,199.0,64,3,2139.199999809265,460119.5,9029,plum,NF,C,459056,459056,457233,458339,457233,459372,458856,458856,459372,121
121,test,1,inc,1,z,Thu May 28 2026 15:11:23 GMT-0400 (Eastern Daylight Time),464191.90000009537,iron,900,I,z,z,None,497,297.0,200.0,46,3,1924.4000000953674,462267.5,9029,pear,NF,C,461006,461006,459381,460289,459381,461305,460805,460805,461305,122
122,test,1,con,1,m,Thu May 28 2026 15:11:23 GMT-0400 (Eastern Daylight Time),466292.09999990463,bronze,1100,I,m,m,None,459,260.0,199.0,68,3,2090.9000000953674,464201.19999980927,9029,bronze,NF,C,463139,463139,461314,462422,461314,463405,462939,462939,463405,123
123,test,1,con,1,m,Thu May 28 2026 15:11:23 GMT-0400 (Eastern Daylight Time),468258.69999980927,copper,900,I,m,m,None,527,328.0,199.0,74,3,1957.3999996185303,466301.30000019073,9029,copper,NF,C,465039,465039,463414,464322,463415,465372,464839,464839,465372,124
124,test,1,inc,1,z,Thu May 28 2026 15:11:23 GMT-0400 (Eastern Daylight Time),470258.80000019073,iron,900,I,z,z,None,561,361.0,200.0,62,3,1990.7000002861023,468268.09999990463,9029,plum,NF,C,467006,467006,465381,466289,465381,467372,466805,466805,467372,125
125,test,1,inc,1,z,Thu May 28 2026 15:11:23 GMT-0400 (Eastern Daylight Time),472325.40000009537,zinc,1000,I,z,z,None,524,325.0,199.0,55,3,2055.800000190735,470269.59999990463,9029,kiwi,NF,C,469106,469106,467383,468389,467383,469439,468906,468906,469438,126
126,test,1,inc,1,z,Thu May 28 2026 15:11:23 GMT-0400 (Eastern Daylight Time),474158.69999980927,gold,800,I,z,z,None,499,299.0,200.0,61,3,1824.5,472334.19999980927,9029,plum,NF,C,470972,470972,469447,470255,469447,471272,470772,470772,471272,127
127,test,1,inc,1,z,Thu May 28 2026 15:11:23 GMT-0400 (Eastern Daylight Time),476042.09999990463,gold,800,I,z,z,None,536,337.0,199.0,37,3,1874.2999997138977,474167.80000019073,9029,lime,NF,C,472806,472806,471281,472089,471281,473155,472606,472606,473155,128
