acc_sum,block,block_c,change,condition,correct,correct_response,datetime,endtime,face,project,response,response_time,row_sel,session_number,start_end,starttime,subject_id,task,task_vers,trial
0,prac,1,,1-Back,,,Wed Feb 25 2026 16:04:55 GMT-0600 (Central Standard Time),,012_o_f_d_a.png,O,space,26610,1,1,,,7763,VNB,C,0
1,prac,1,0.0,1-Back,1.0,m,Wed Feb 25 2026 16:04:55 GMT-0600 (Central Standard Time),232991.20000000298,022_y_f_n_a.png,O,m,1662,2,1,2532.3999999910593,230458.80000001192,7763,VNB,C,1
1,prac,1,0.0,1-Back,0.0,m,Wed Feb 25 2026 16:04:55 GMT-0600 (Central Standard Time),235839.40000000596,014_m_m_h_a.png,O,None,2006,3,1,2841.0999999940395,232998.30000001192,7763,VNB,C,2
2,prac,1,0.0,1-Back,1.0,m,Wed Feb 25 2026 16:04:55 GMT-0600 (Central Standard Time),237872.70000000298,025_y_m_d_a.png,O,m,1190,4,1,2022.0,235850.70000000298,7763,VNB,C,3
3,prac,1,0.0,1-Back,1.0,m,Wed Feb 25 2026 16:04:55 GMT-0600 (Central Standard Time),240271.5,012_o_f_n_a.png,O,m,1531,5,1,2394.0,237877.5,7763,VNB,C,4
4,prac,1,1.0,1-Back,1.0,z,Wed Feb 25 2026 16:04:55 GMT-0600 (Central Standard Time),242054.20000000298,025_y_m_n_a.png,O,z,924,6,1,1771.8999999910593,240282.30000001192,7763,VNB,C,5
4,prac,1,0.0,1-Back,0.0,m,Wed Feb 25 2026 16:04:55 GMT-0600 (Central Standard Time),244288.0,015_o_m_h_a.png,O,z,1358,7,1,2229.0,242059.0,7763,VNB,C,6
5,prac,1,0.0,1-Back,1.0,m,Wed Feb 25 2026 16:04:55 GMT-0600 (Central Standard Time),246502.90000000596,019_m_f_d_a.png,O,m,1346,8,1,2205.7999999970198,244297.10000000894,7763,VNB,C,7
6,prac,1,1.0,1-Back,1.0,z,Wed Feb 25 2026 16:04:55 GMT-0600 (Central Standard Time),248303.80000001192,022_y_f_d_a.png,O,z,936,9,1,1798.1000000089407,246505.70000000298,7763,VNB,C,8
7,prac,1,0.0,1-Back,1.0,m,Wed Feb 25 2026 16:04:55 GMT-0600 (Central Standard Time),250887.10000000894,014_m_m_n_a.png,O,m,1725,10,1,2573.0,248314.10000000894,7763,VNB,C,9
8,prac,1,0.0,1-Back,1.0,m,Wed Feb 25 2026 16:04:55 GMT-0600 (Central Standard Time),252966.60000000894,012_o_f_h_a.png,O,m,1218,11,1,2074.4000000059605,250892.20000000298,7763,VNB,C,10
9,prac,1,0.0,1-Back,1.0,m,Wed Feb 25 2026 16:04:55 GMT-0600 (Central Standard Time),255151.70000000298,025_y_m_d_a.png,O,m,1328,12,1,2173.5999999940395,252978.10000000894,7763,VNB,C,11
0,prac,2,0.0,1-Back,,,Wed Feb 25 2026 16:04:55 GMT-0600 (Central Standard Time),255151.70000000298,012_o_f_d_a.png,O,a,3308,1,1,2173.5999999940395,252978.10000000894,7763,VNB,C,0
1,prac,2,0.0,1-Back,1.0,m,Wed Feb 25 2026 16:04:55 GMT-0600 (Central Standard Time),263931.700000003,022_y_f_n_a.png,O,m,1554,2,1,2426.0,261505.70000000298,7763,VNB,C,1
1,prac,2,0.0,1-Back,0.0,m,Wed Feb 25 2026 16:04:55 GMT-0600 (Central Standard Time),266047.8000000119,014_m_m_h_a.png,O,z,1273,3,1,2111.7000000029802,263936.10000000894,7763,VNB,C,2
2,prac,2,0.0,1-Back,1.0,m,Wed Feb 25 2026 16:04:55 GMT-0600 (Central Standard Time),268148.200000003,025_y_m_d_a.png,O,m,1320,4,1,2092.5,266055.700000003,7763,VNB,C,3
3,prac,2,0.0,1-Back,1.0,m,Wed Feb 25 2026 16:04:55 GMT-0600 (Central Standard Time),270678.5,012_o_f_n_a.png,O,m,1674,5,1,2526.3999999910593,268152.10000000894,7763,VNB,C,4
4,prac,2,1.0,1-Back,1.0,z,Wed Feb 25 2026 16:04:55 GMT-0600 (Central Standard Time),272412.40000000596,025_y_m_n_a.png,O,z,878,6,1,1728.0,270684.40000000596,7763,VNB,C,5
5,prac,2,0.0,1-Back,1.0,m,Wed Feb 25 2026 16:04:55 GMT-0600 (Central Standard Time),274528.60000000894,015_o_m_h_a.png,O,m,1241,7,1,2111.6000000089407,272417.0,7763,VNB,C,6
6,prac,2,0.0,1-Back,1.0,m,Wed Feb 25 2026 16:04:55 GMT-0600 (Central Standard Time),276460.60000000894,019_m_f_d_a.png,O,m,1064,8,1,1921.5,274539.10000000894,7763,VNB,C,7
6,prac,2,1.0,1-Back,0.0,z,Wed Feb 25 2026 16:04:55 GMT-0600 (Central Standard Time),279326.10000000894,022_y_f_d_a.png,O,None,2009,9,1,2861.2999999970198,276464.8000000119,7763,VNB,C,8
7,prac,2,0.0,1-Back,1.0,m,Wed Feb 25 2026 16:04:55 GMT-0600 (Central Standard Time),281758.700000003,014_m_m_n_a.png,O,m,1570,10,1,2424.2999999970198,279334.40000000596,7763,VNB,C,9
8,prac,2,0.0,1-Back,1.0,m,Wed Feb 25 2026 16:04:55 GMT-0600 (Central Standard Time),283642.60000000894,012_o_f_h_a.png,O,m,1018,11,1,1881.0,281761.60000000894,7763,VNB,C,10
9,prac,2,0.0,1-Back,1.0,m,Wed Feb 25 2026 16:04:55 GMT-0600 (Central Standard Time),285541.10000000894,025_y_m_d_a.png,O,m,1037,12,1,1888.1000000089407,283653.0,7763,VNB,C,11
0,test,1,0.0,1-Back,,,Wed Feb 25 2026 16:04:55 GMT-0600 (Central Standard Time),285541.10000000894,022_y_f_d_a.png,O,space,3645,1,1,1888.1000000089407,283653.0,7763,VNB,C,0
1,test,1,0.0,1-Back,1.0,m,Wed Feb 25 2026 16:04:55 GMT-0600 (Central Standard Time),306600.3000000119,019_m_f_n_a.png,O,m,1522,2,1,2536.0,304064.3000000119,7763,VNB,C,1
2,test,1,0.0,1-Back,1.0,m,Wed Feb 25 2026 16:04:55 GMT-0600 (Central Standard Time),308483.60000000894,015_o_m_h_a.png,O,m,862,3,1,1881.4000000059605,306602.200000003,7763,VNB,C,2
3,test,1,1.0,1-Back,1.0,z,Wed Feb 25 2026 16:04:55 GMT-0600 (Central Standard Time),310400.0,014_m_m_h_a.png,O,z,885,4,1,1911.8999999910593,308488.10000000894,7763,VNB,C,3
4,test,1,0.0,1-Back,1.0,m,Wed Feb 25 2026 16:04:55 GMT-0600 (Central Standard Time),312632.5,012_o_f_n_a.png,O,m,1209,5,1,2229.699999988079,310402.8000000119,7763,VNB,C,4
5,test,1,0.0,1-Back,1.0,m,Wed Feb 25 2026 16:04:55 GMT-0600 (Central Standard Time),315131.700000003,025_y_m_d_a.png,O,m,1481,6,1,2489.5,312642.200000003,7763,VNB,C,5
6,test,1,1.0,1-Back,1.0,z,Wed Feb 25 2026 16:04:55 GMT-0600 (Central Standard Time),317063.40000000596,019_m_f_d_a.png,O,z,908,7,1,1928.2999999970198,315135.10000000894,7763,VNB,C,6
7,test,1,0.0,1-Back,1.0,m,Wed Feb 25 2026 16:04:55 GMT-0600 (Central Standard Time),319013.60000000894,022_y_f_h_a.png,O,m,927,8,1,1946.2000000029802,317067.40000000596,7763,VNB,C,7
8,test,1,0.0,1-Back,1.0,m,Wed Feb 25 2026 16:04:55 GMT-0600 (Central Standard Time),321079.8000000119,015_o_m_n_a.png,O,m,1033,9,1,2062.5,319017.3000000119,7763,VNB,C,8
9,test,1,0.0,1-Back,1.0,m,Wed Feb 25 2026 16:04:55 GMT-0600 (Central Standard Time),323129.0,025_y_m_h_a.png,O,m,1031,10,1,2039.0999999940395,321089.90000000596,7763,VNB,C,9
10,test,1,0.0,1-Back,1.0,m,Wed Feb 25 2026 16:04:55 GMT-0600 (Central Standard Time),325444.8000000119,015_o_m_d_a.png,O,m,1286,11,1,2312.6000000089407,323132.200000003,7763,VNB,C,10
11,test,1,1.0,1-Back,1.0,z,Wed Feb 25 2026 16:04:55 GMT-0600 (Central Standard Time),327377.0,012_o_f_d_a.png,O,z,907,12,1,1923.8999999910593,325453.10000000894,7763,VNB,C,11
12,test,1,0.0,1-Back,1.0,m,Wed Feb 25 2026 16:04:55 GMT-0600 (Central Standard Time),329344.10000000894,014_m_m_n_a.png,O,m,933,13,1,1964.0,327380.10000000894,7763,VNB,C,12
13,test,1,1.0,1-Back,1.0,z,Wed Feb 25 2026 16:04:55 GMT-0600 (Central Standard Time),331625.700000003,022_y_f_n_a.png,O,z,1256,14,1,2273.7999999970198,329351.90000000596,7763,VNB,C,13
14,test,1,0.0,1-Back,1.0,m,Wed Feb 25 2026 16:04:55 GMT-0600 (Central Standard Time),334061.40000000596,019_m_f_h_a.png,O,m,1412,15,1,2433.4000000059605,331628.0,7763,VNB,C,14
15,test,1,0.0,1-Back,1.0,m,Wed Feb 25 2026 16:04:55 GMT-0600 (Central Standard Time),336340.5,014_m_m_d_a.png,O,m,1253,16,1,2271.7999999970198,334068.700000003,7763,VNB,C,15
16,test,1,0.0,1-Back,1.0,m,Wed Feb 25 2026 16:04:55 GMT-0600 (Central Standard Time),338409.8000000119,025_y_m_n_a.png,O,m,1034,17,1,2065.4000000059605,336344.40000000596,7763,VNB,C,16
17,test,1,0.0,1-Back,1.0,m,Wed Feb 25 2026 16:04:55 GMT-0600 (Central Standard Time),340758.5,012_o_f_h_a.png,O,m,1319,18,1,2342.199999988079,338416.3000000119,7763,VNB,C,17
0,test,2,0.0,1-Back,,,Wed Feb 25 2026 16:04:55 GMT-0600 (Central Standard Time),340758.5,025_y_m_n_a.png,O,space,2506,1,1,2342.199999988079,338416.3000000119,7763,VNB,C,0
1,test,2,0.0,1-Back,1.0,m,Wed Feb 25 2026 16:04:55 GMT-0600 (Central Standard Time),347153.90000000596,022_y_f_h_a.png,O,m,840,2,1,1856.0999999940395,345297.8000000119,7763,VNB,C,1
2,test,2,1.0,1-Back,1.0,m,Wed Feb 25 2026 16:04:55 GMT-0600 (Central Standard Time),349054.10000000894,015_o_m_n_a.png,O,m,868,3,1,1896.7000000029802,347157.40000000596,7763,VNB,C,2
3,test,2,0.0,1-Back,1.0,m,Wed Feb 25 2026 16:04:55 GMT-0600 (Central Standard Time),351004.5,019_m_f_d_a.png,O,m,923,4,1,1944.3999999910593,349060.10000000894,7763,VNB,C,3
4,test,2,0.0,1-Back,1.0,z,Wed Feb 25 2026 16:04:55 GMT-0600 (Central Standard Time),353053.0,014_m_m_d_a.png,O,z,1028,5,1,2044.7999999970198,351008.200000003,7763,VNB,C,4
5,test,2,0.0,1-Back,1.0,m,Wed Feb 25 2026 16:04:55 GMT-0600 (Central Standard Time),354883.90000000596,025_y_m_h_a.png,O,m,811,6,1,1823.2999999970198,353060.60000000894,7763,VNB,C,5
6,test,2,1.0,1-Back,1.0,z,Wed Feb 25 2026 16:04:55 GMT-0600 (Central Standard Time),357050.90000000596,012_o_f_h_a.png,O,z,1146,7,1,2165.0,354885.90000000596,7763,VNB,C,6
7,test,2,0.0,1-Back,1.0,m,Wed Feb 25 2026 16:04:55 GMT-0600 (Central Standard Time),358902.10000000894,019_m_f_n_a.png,O,m,827,8,1,1843.5,357058.60000000894,7763,VNB,C,7
8,test,2,0.0,1-Back,1.0,m,Wed Feb 25 2026 16:04:55 GMT-0600 (Central Standard Time),361001.90000000596,022_y_f_d_a.png,O,m,1070,9,1,2097.0999999940395,358904.8000000119,7763,VNB,C,8
9,test,2,0.0,1-Back,1.0,m,Wed Feb 25 2026 16:04:55 GMT-0600 (Central Standard Time),363581.90000000596,014_m_m_n_a.png,O,m,1561,10,1,2572.5999999940395,361009.3000000119,7763,VNB,C,9
10,test,2,1.0,1-Back,1.0,m,Wed Feb 25 2026 16:04:55 GMT-0600 (Central Standard Time),365682.700000003,019_m_f_h_a.png,O,m,1064,11,1,2097.0999999940395,363585.60000000894,7763,VNB,C,10
11,test,2,0.0,1-Back,1.0,z,Wed Feb 25 2026 16:04:55 GMT-0600 (Central Standard Time),367431.40000000596,015_o_m_h_a.png,O,z,727,12,1,1738.5,365692.90000000596,7763,VNB,C,11
12,test,2,0.0,1-Back,1.0,m,Wed Feb 25 2026 16:04:55 GMT-0600 (Central Standard Time),369331.3000000119,025_y_m_d_a.png,O,m,873,13,1,1897.300000011921,367434.0,7763,VNB,C,12
13,test,2,0.0,1-Back,1.0,m,Wed Feb 25 2026 16:04:55 GMT-0600 (Central Standard Time),371612.700000003,012_o_f_n_a.png,O,m,1252,14,1,2272.0,369340.700000003,7763,VNB,C,13
14,test,2,0.0,1-Back,1.0,z,Wed Feb 25 2026 16:04:55 GMT-0600 (Central Standard Time),373812.40000000596,022_y_f_n_a.png,O,z,1170,15,1,2196.5,371615.90000000596,7763,VNB,C,14
15,test,2,1.0,1-Back,1.0,m,Wed Feb 25 2026 16:04:55 GMT-0600 (Central Standard Time),375794.90000000596,014_m_m_h_a.png,O,m,954,16,1,1975.4000000059605,373819.5,7763,VNB,C,15
16,test,2,0.0,1-Back,1.0,m,Wed Feb 25 2026 16:04:55 GMT-0600 (Central Standard Time),377711.3000000119,012_o_f_d_a.png,O,m,884,17,1,1913.5,375797.8000000119,7763,VNB,C,16
17,test,2,1.0,1-Back,1.0,z,Wed Feb 25 2026 16:04:55 GMT-0600 (Central Standard Time),379628.0,015_o_m_d_a.png,O,z,889,18,1,1910.0999999940395,377717.90000000596,7763,VNB,C,17
0,test,3,1.0,1-Back,,,Wed Feb 25 2026 16:04:55 GMT-0600 (Central Standard Time),379628.0,012_o_f_h_a.png,O,space,2299,1,1,1910.0999999940395,377717.90000000596,7763,VNB,C,0
1,test,3,0.0,1-Back,1.0,m,Wed Feb 25 2026 16:04:55 GMT-0600 (Central Standard Time),386192.3000000119,019_m_f_d_a.png,O,m,1125,2,1,2140.300000011921,384052.0,7763,VNB,C,1
2,test,3,1.0,1-Back,1.0,m,Wed Feb 25 2026 16:04:55 GMT-0600 (Central Standard Time),388090.5,014_m_m_n_a.png,O,m,872,3,1,1895.699999988079,386194.8000000119,7763,VNB,C,2
3,test,3,0.0,1-Back,1.0,z,Wed Feb 25 2026 16:04:55 GMT-0600 (Central Standard Time),390090.8000000119,012_o_f_n_a.png,O,z,973,4,1,1994.800000011921,388096.0,7763,VNB,C,3
4,test,3,1.0,1-Back,1.0,m,Wed Feb 25 2026 16:04:55 GMT-0600 (Central Standard Time),391924.3000000119,015_o_m_d_a.png,O,m,813,5,1,1831.5,390092.8000000119,7763,VNB,C,4
5,test,3,0.0,1-Back,1.0,m,Wed Feb 25 2026 16:04:55 GMT-0600 (Central Standard Time),393891.10000000894,022_y_f_h_a.png,O,m,932,6,1,1963.4000000059605,391927.700000003,7763,VNB,C,5
6,test,3,0.0,1-Back,1.0,z,Wed Feb 25 2026 16:04:55 GMT-0600 (Central Standard Time),395693.90000000596,025_y_m_h_a.png,O,z,767,7,1,1800.7000000029802,393893.200000003,7763,VNB,C,6
7,test,3,0.0,1-Back,1.0,m,Wed Feb 25 2026 16:04:55 GMT-0600 (Central Standard Time),397589.10000000894,019_m_f_n_a.png,O,m,879,8,1,1891.5,395697.60000000894,7763,VNB,C,7
8,test,3,0.0,1-Back,1.0,m,Wed Feb 25 2026 16:04:55 GMT-0600 (Central Standard Time),399454.40000000596,022_y_f_d_a.png,O,m,842,9,1,1862.9000000059605,397591.5,7763,VNB,C,8
9,test,3,1.0,1-Back,1.0,m,Wed Feb 25 2026 16:04:55 GMT-0600 (Central Standard Time),401572.90000000596,015_o_m_n_a.png,O,m,1098,10,1,2113.5999999940395,399459.3000000119,7763,VNB,C,9
10,test,3,0.0,1-Back,1.0,m,Wed Feb 25 2026 16:04:55 GMT-0600 (Central Standard Time),403519.40000000596,014_m_m_h_a.png,O,m,923,11,1,1944.0999999940395,401575.3000000119,7763,VNB,C,10
11,test,3,0.0,1-Back,1.0,z,Wed Feb 25 2026 16:04:55 GMT-0600 (Central Standard Time),405403.200000003,019_m_f_h_a.png,O,z,854,12,1,1875.7999999970198,403527.40000000596,7763,VNB,C,11
12,test,3,1.0,1-Back,1.0,m,Wed Feb 25 2026 16:04:55 GMT-0600 (Central Standard Time),407685.0,012_o_f_d_a.png,O,m,1262,13,1,2279.5,405405.5,7763,VNB,C,12
13,test,3,0.0,1-Back,1.0,z,Wed Feb 25 2026 16:04:55 GMT-0600 (Central Standard Time),409769.3000000119,014_m_m_d_a.png,O,z,1058,14,1,2076.2000000029802,407693.10000000894,7763,VNB,C,13
14,test,3,0.0,1-Back,1.0,m,Wed Feb 25 2026 16:04:55 GMT-0600 (Central Standard Time),411601.60000000894,025_y_m_n_a.png,O,m,817,15,1,1830.0,409771.60000000894,7763,VNB,C,14
15,test,3,1.0,1-Back,1.0,m,Wed Feb 25 2026 16:04:55 GMT-0600 (Central Standard Time),413583.8000000119,015_o_m_h_a.png,O,m,951,16,1,1973.0,411610.8000000119,7763,VNB,C,15
16,test,3,0.0,1-Back,1.0,m,Wed Feb 25 2026 16:04:55 GMT-0600 (Central Standard Time),415551.5,025_y_m_d_a.png,O,m,944,17,1,1965.5999999940395,413585.90000000596,7763,VNB,C,16
17,test,3,1.0,1-Back,1.0,m,Wed Feb 25 2026 16:04:55 GMT-0600 (Central Standard Time),417398.200000003,022_y_f_n_a.png,O,m,825,18,1,1836.5999999940395,415561.60000000894,7763,VNB,C,17
0,test,4,1.0,1-Back,,,Wed Feb 25 2026 16:04:55 GMT-0600 (Central Standard Time),417398.200000003,014_m_m_d_a.png,O,space,2091,1,1,1836.5999999940395,415561.60000000894,7763,VNB,C,0
1,test,4,0.0,1-Back,1.0,z,Wed Feb 25 2026 16:04:55 GMT-0600 (Central Standard Time),423664.200000003,015_o_m_d_a.png,O,z,1116,2,1,2141.3999999910593,421522.8000000119,7763,VNB,C,1
2,test,4,0.0,1-Back,1.0,m,Wed Feb 25 2026 16:04:55 GMT-0600 (Central Standard Time),425396.700000003,025_y_m_h_a.png,O,m,711,3,1,1729.7000000029802,423667.0,7763,VNB,C,2
3,test,4,0.0,1-Back,1.0,m,Wed Feb 25 2026 16:04:55 GMT-0600 (Central Standard Time),427328.40000000596,019_m_f_n_a.png,O,m,907,4,1,1925.4000000059605,425403.0,7763,VNB,C,3
4,test,4,1.0,1-Back,1.0,m,Wed Feb 25 2026 16:04:55 GMT-0600 (Central Standard Time),429446.5,012_o_f_h_a.png,O,m,1084,5,1,2116.0999999940395,427330.40000000596,7763,VNB,C,4
5,test,4,0.0,1-Back,1.0,m,Wed Feb 25 2026 16:04:55 GMT-0600 (Central Standard Time),431329.10000000894,014_m_m_n_a.png,O,m,855,6,1,1875.9000000059605,429453.200000003,7763,VNB,C,5
6,test,4,0.0,1-Back,1.0,m,Wed Feb 25 2026 16:04:55 GMT-0600 (Central Standard Time),433294.40000000596,025_y_m_d_a.png,O,m,935,7,1,1963.0999999940395,431331.3000000119,7763,VNB,C,6
7,test,4,1.0,1-Back,1.0,z,Wed Feb 25 2026 16:04:55 GMT-0600 (Central Standard Time),435043.10000000894,022_y_f_d_a.png,O,z,721,8,1,1741.2999999970198,433301.8000000119,7763,VNB,C,7
8,test,4,0.0,1-Back,1.0,m,Wed Feb 25 2026 16:04:55 GMT-0600 (Central Standard Time),436795.200000003,019_m_f_h_a.png,O,m,734,9,1,1750.2999999970198,435044.90000000596,7763,VNB,C,8
8,test,4,0.0,1-Back,0.0,z,Wed Feb 25 2026 16:04:55 GMT-0600 (Central Standard Time),438609.90000000596,015_o_m_h_a.png,O,m,783,10,1,1805.7999999970198,436804.10000000894,7763,VNB,C,9
9,test,4,1.0,1-Back,1.0,m,Wed Feb 25 2026 16:04:55 GMT-0600 (Central Standard Time),440841.3000000119,012_o_f_n_a.png,O,m,1216,11,1,2228.6000000089407,438612.700000003,7763,VNB,C,10
10,test,4,0.0,1-Back,1.0,m,Wed Feb 25 2026 16:04:55 GMT-0600 (Central Standard Time),442808.8000000119,019_m_f_d_a.png,O,m,952,12,1,1961.6000000089407,440847.200000003,7763,VNB,C,11
11,test,4,0.0,1-Back,1.0,m,Wed Feb 25 2026 16:04:55 GMT-0600 (Central Standard Time),444990.200000003,022_y_f_n_a.png,O,m,1161,13,1,2178.5999999940395,442811.60000000894,7763,VNB,C,12
12,test,4,0.0,1-Back,1.0,m,Wed Feb 25 2026 16:04:55 GMT-0600 (Central Standard Time),446905.8000000119,012_o_f_d_a.png,O,m,898,14,1,1909.0,444996.8000000119,7763,VNB,C,13
13,test,4,0.0,1-Back,1.0,m,Wed Feb 25 2026 16:04:55 GMT-0600 (Central Standard Time),448939.10000000894,022_y_f_h_a.png,O,m,1013,15,1,2031.5,446907.60000000894,7763,VNB,C,14
14,test,4,1.0,1-Back,1.0,z,Wed Feb 25 2026 16:04:55 GMT-0600 (Central Standard Time),450987.200000003,014_m_m_h_a.png,O,z,1020,16,1,2040.5999999940395,448946.60000000894,7763,VNB,C,15
15,test,4,0.0,1-Back,1.0,m,Wed Feb 25 2026 16:04:55 GMT-0600 (Central Standard Time),453070.90000000596,015_o_m_n_a.png,O,m,1059,17,1,2080.2000000029802,450990.700000003,7763,VNB,C,16
16,test,4,1.0,1-Back,1.0,z,Wed Feb 25 2026 16:04:55 GMT-0600 (Central Standard Time),454953.0,025_y_m_n_a.png,O,z,865,18,1,1871.3999999910593,453081.60000000894,7763,VNB,C,17
0,test,5,1.0,1-Back,,,Wed Feb 25 2026 16:04:55 GMT-0600 (Central Standard Time),454953.0,015_o_m_n_a.png,O,space,1758,1,1,1871.3999999910593,453081.60000000894,7763,VNB,C,0
1,test,5,1.0,1-Back,1.0,m,Wed Feb 25 2026 16:04:55 GMT-0600 (Central Standard Time),460601.3000000119,012_o_f_h_a.png,O,m,832,2,1,1857.800000011921,458743.5,7763,VNB,C,1
2,test,5,0.0,1-Back,1.0,m,Wed Feb 25 2026 16:04:55 GMT-0600 (Central Standard Time),462518.700000003,025_y_m_d_a.png,O,m,887,3,1,1911.2000000029802,460607.5,7763,VNB,C,2
3,test,5,0.0,1-Back,1.0,z,Wed Feb 25 2026 16:04:55 GMT-0600 (Central Standard Time),464733.90000000596,015_o_m_d_a.png,O,z,1187,4,1,2205.2000000029802,462528.700000003,7763,VNB,C,3
4,test,5,0.0,1-Back,1.0,m,Wed Feb 25 2026 16:04:55 GMT-0600 (Central Standard Time),466550.60000000894,019_m_f_h_a.png,O,m,786,5,1,1813.2999999970198,464737.3000000119,7763,VNB,C,4
5,test,5,0.0,1-Back,1.0,m,Wed Feb 25 2026 16:04:55 GMT-0600 (Central Standard Time),468433.3000000119,022_y_f_n_a.png,O,m,866,6,1,1871.4000000059605,466561.90000000596,7763,VNB,C,5
6,test,5,1.0,1-Back,1.0,z,Wed Feb 25 2026 16:04:55 GMT-0600 (Central Standard Time),470415.0,012_o_f_n_a.png,O,z,952,7,1,1978.199999988079,468436.8000000119,7763,VNB,C,6
7,test,5,0.0,1-Back,1.0,m,Wed Feb 25 2026 16:04:55 GMT-0600 (Central Standard Time),472198.40000000596,019_m_f_d_a.png,O,m,753,8,1,1774.2000000029802,470424.200000003,7763,VNB,C,7
8,test,5,0.0,1-Back,1.0,m,Wed Feb 25 2026 16:04:55 GMT-0600 (Central Standard Time),474181.60000000894,025_y_m_h_a.png,O,m,949,9,1,1976.6000000089407,472205.0,7763,VNB,C,8
9,test,5,0.0,1-Back,1.0,m,Wed Feb 25 2026 16:04:55 GMT-0600 (Central Standard Time),476329.40000000596,022_y_f_d_a.png,O,m,1123,10,1,2139.0,474190.40000000596,7763,VNB,C,9
10,test,5,0.0,1-Back,1.0,m,Wed Feb 25 2026 16:04:55 GMT-0600 (Central Standard Time),478345.3000000119,014_m_m_n_a.png,O,m,989,11,1,2011.300000011921,476334.0,7763,VNB,C,10
11,test,5,1.0,1-Back,1.0,z,Wed Feb 25 2026 16:04:55 GMT-0600 (Central Standard Time),480094.90000000596,019_m_f_n_a.png,O,z,718,12,1,1745.2000000029802,478349.700000003,7763,VNB,C,11
12,test,5,0.0,1-Back,1.0,m,Wed Feb 25 2026 16:04:55 GMT-0600 (Central Standard Time),482028.40000000596,015_o_m_h_a.png,O,m,903,13,1,1930.0,480098.40000000596,7763,VNB,C,12
13,test,5,0.0,1-Back,1.0,z,Wed Feb 25 2026 16:04:55 GMT-0600 (Central Standard Time),483978.0,014_m_m_h_a.png,O,z,917,14,1,1941.5,482036.5,7763,VNB,C,13
14,test,5,1.0,1-Back,1.0,m,Wed Feb 25 2026 16:04:55 GMT-0600 (Central Standard Time),486043.10000000894,012_o_f_d_a.png,O,m,1046,15,1,2060.7000000029802,483982.40000000596,7763,VNB,C,14
15,test,5,0.0,1-Back,1.0,m,Wed Feb 25 2026 16:04:55 GMT-0600 (Central Standard Time),487926.5,025_y_m_n_a.png,O,m,861,16,1,1876.7999999970198,486049.700000003,7763,VNB,C,15
16,test,5,0.0,1-Back,1.0,m,Wed Feb 25 2026 16:04:55 GMT-0600 (Central Standard Time),489958.60000000894,022_y_f_h_a.png,O,m,1001,17,1,2028.6000000089407,487930.0,7763,VNB,C,16
17,test,5,0.0,1-Back,1.0,m,Wed Feb 25 2026 16:04:55 GMT-0600 (Central Standard Time),491892.3000000119,014_m_m_d_a.png,O,m,907,18,1,1927.300000011921,489965.0,7763,VNB,C,17
0,prac,1,0.0,2-Back,,,Wed Feb 25 2026 16:04:55 GMT-0600 (Central Standard Time),491892.3000000119,019_m_f_n_a.png,O,space,2161,1,1,1927.300000011921,489965.0,7763,VNB,C,0
0,prac,1,0.0,2-Back,,,Wed Feb 25 2026 16:04:55 GMT-0600 (Central Standard Time),491892.3000000119,012_o_f_h_a.png,O,space,2161,2,1,1927.300000011921,489965.0,7763,VNB,C,0
1,prac,1,0.0,2-Back,1.0,m,Wed Feb 25 2026 16:04:55 GMT-0600 (Central Standard Time),585461.6000000089,015_o_m_d_a.png,O,m,1442,3,1,2309.2999999970198,583152.3000000119,7763,VNB,C,1
2,prac,1,1.0,2-Back,1.0,z,Wed Feb 25 2026 16:04:55 GMT-0600 (Central Standard Time),587779.400000006,014_m_m_h_a.png,O,z,1471,4,1,2306.4000000059605,585473.0,7763,VNB,C,2
3,prac,1,0.0,2-Back,1.0,m,Wed Feb 25 2026 16:04:55 GMT-0600 (Central Standard Time),590444.8000000119,022_y_f_n_a.png,O,m,1795,5,1,2658.1000000089407,587786.700000003,7763,VNB,C,3
3,prac,1,1.0,2-Back,0.0,z,Wed Feb 25 2026 16:04:55 GMT-0600 (Central Standard Time),593043.400000006,015_o_m_h_a.png,O,m,1728,6,1,2584.2999999970198,590459.1000000089,7763,VNB,C,4
4,prac,1,1.0,2-Back,1.0,z,Wed Feb 25 2026 16:04:55 GMT-0600 (Central Standard Time),595476.0,025_y_m_n_a.png,O,z,1579,7,1,2425.5,593050.5,7763,VNB,C,5
4,prac,1,0.0,2-Back,0.0,m,Wed Feb 25 2026 16:04:55 GMT-0600 (Central Standard Time),598341.700000003,019_m_f_d_a.png,O,z,1987,8,1,2849.0,595492.700000003,7763,VNB,C,6
5,prac,1,0.0,2-Back,1.0,m,Wed Feb 25 2026 16:04:55 GMT-0600 (Central Standard Time),600939.8000000119,012_o_f_d_a.png,O,m,1730,9,1,2593.5,598346.3000000119,7763,VNB,C,7
6,prac,1,0.0,2-Back,1.0,m,Wed Feb 25 2026 16:04:55 GMT-0600 (Central Standard Time),603272.700000003,014_m_m_h_a.png,O,m,1555,10,1,2323.3999999910593,600949.3000000119,7763,VNB,C,8
7,prac,1,1.0,2-Back,1.0,z,Wed Feb 25 2026 16:04:55 GMT-0600 (Central Standard Time),605639.8000000119,022_y_f_d_a.png,O,z,1483,11,1,2361.5,603278.3000000119,7763,VNB,C,9
8,prac,1,0.0,2-Back,1.0,m,Wed Feb 25 2026 16:04:55 GMT-0600 (Central Standard Time),608388.400000006,015_o_m_n_a.png,O,m,1868,12,1,2736.5999999940395,605651.8000000119,7763,VNB,C,10
0,test,1,0.0,2-Back,,,Wed Feb 25 2026 16:04:55 GMT-0600 (Central Standard Time),608388.400000006,025_y_m_h_a.png,O,space,3805,1,1,2736.5999999940395,605651.8000000119,7763,VNB,C,0
0,test,1,0.0,2-Back,,,Wed Feb 25 2026 16:04:55 GMT-0600 (Central Standard Time),608388.400000006,012_o_f_n_a.png,O,space,3805,2,1,2736.5999999940395,605651.8000000119,7763,VNB,C,0
1,test,1,0.0,2-Back,1.0,z,Wed Feb 25 2026 16:04:55 GMT-0600 (Central Standard Time),641043.8000000119,015_o_m_h_a.png,O,z,1128,3,1,2145.300000011921,638898.5,7763,VNB,C,1
2,test,1,0.0,2-Back,1.0,m,Wed Feb 25 2026 16:04:55 GMT-0600 (Central Standard Time),643213.200000003,019_m_f_d_a.png,O,m,1135,4,1,2160.0,641053.200000003,7763,VNB,C,2
2,test,1,1.0,2-Back,0.0,m,Wed Feb 25 2026 16:04:55 GMT-0600 (Central Standard Time),646243.1000000089,025_y_m_n_a.png,O,None,2015,5,1,3026.4000000059605,643216.700000003,7763,VNB,C,3
3,test,1,0.0,2-Back,1.0,z,Wed Feb 25 2026 16:04:55 GMT-0600 (Central Standard Time),648508.5,022_y_f_d_a.png,O,z,1237,6,1,2256.199999988079,646252.3000000119,7763,VNB,C,4
4,test,1,0.0,2-Back,1.0,m,Wed Feb 25 2026 16:04:55 GMT-0600 (Central Standard Time),650959.200000003,014_m_m_h_a.png,O,m,1426,7,1,2448.0999999940395,648511.1000000089,7763,VNB,C,5
4,test,1,1.0,2-Back,0.0,m,Wed Feb 25 2026 16:04:55 GMT-0600 (Central Standard Time),653990.3000000119,022_y_f_n_a.png,O,None,2014,8,1,3020.7000000029802,650969.6000000089,7763,VNB,C,6
5,test,1,0.0,2-Back,1.0,z,Wed Feb 25 2026 16:04:55 GMT-0600 (Central Standard Time),656756.700000003,012_o_f_h_a.png,O,z,1746,9,1,2762.2000000029802,653994.5,7763,VNB,C,7
5,test,1,0.0,2-Back,0.0,m,Wed Feb 25 2026 16:04:55 GMT-0600 (Central Standard Time),659788.400000006,015_o_m_d_a.png,O,None,2014,10,1,3026.4000000059605,656762.0,7763,VNB,C,8
5,test,1,1.0,2-Back,0.0,m,Wed Feb 25 2026 16:04:55 GMT-0600 (Central Standard Time),662337.400000006,014_m_m_d_a.png,O,z,1521,11,1,2544.9000000059605,659792.5,7763,VNB,C,9
6,test,1,0.0,2-Back,1.0,m,Wed Feb 25 2026 16:04:55 GMT-0600 (Central Standard Time),664753.900000006,019_m_f_n_a.png,O,m,1390,12,1,2409.9000000059605,662344.0,7763,VNB,C,10
7,test,1,0.0,2-Back,1.0,m,Wed Feb 25 2026 16:04:55 GMT-0600 (Central Standard Time),667735.700000003,022_y_f_h_a.png,O,m,1960,13,1,2978.8999999910593,664756.8000000119,7763,VNB,C,11
8,test,1,0.0,2-Back,1.0,z,Wed Feb 25 2026 16:04:55 GMT-0600 (Central Standard Time),669669.0,014_m_m_n_a.png,O,z,903,14,1,1925.7999999970198,667743.200000003,7763,VNB,C,12
9,test,1,0.0,2-Back,1.0,m,Wed Feb 25 2026 16:04:55 GMT-0600 (Central Standard Time),671753.0,025_y_m_d_a.png,O,m,1066,15,1,2080.2999999970198,669672.700000003,7763,VNB,C,13
9,test,1,1.0,2-Back,0.0,m,Wed Feb 25 2026 16:04:55 GMT-0600 (Central Standard Time),674667.900000006,019_m_f_h_a.png,O,z,1889,16,1,2906.4000000059605,671761.5,7763,VNB,C,14
10,test,1,0.0,2-Back,1.0,z,Wed Feb 25 2026 16:04:55 GMT-0600 (Central Standard Time),677649.400000006,012_o_f_d_a.png,O,z,1956,17,1,2978.2999999970198,674671.1000000089,7763,VNB,C,15
11,test,1,0.0,2-Back,1.0,m,Wed Feb 25 2026 16:04:55 GMT-0600 (Central Standard Time),679748.700000003,015_o_m_n_a.png,O,m,1079,18,1,2091.7000000029802,677657.0,7763,VNB,C,16
0,test,2,0.0,2-Back,,,Wed Feb 25 2026 16:04:55 GMT-0600 (Central Standard Time),679748.700000003,014_m_m_h_a.png,O,space,3541,1,1,2091.7000000029802,677657.0,7763,VNB,C,0
0,test,2,0.0,2-Back,,,Wed Feb 25 2026 16:04:55 GMT-0600 (Central Standard Time),679748.700000003,022_y_f_n_a.png,O,space,3541,2,1,2091.7000000029802,677657.0,7763,VNB,C,0
1,test,2,1.0,2-Back,1.0,z,Wed Feb 25 2026 16:04:55 GMT-0600 (Central Standard Time),690710.700000003,012_o_f_h_a.png,O,z,1191,3,1,2212.0999999940395,688498.6000000089,7763,VNB,C,1
2,test,2,0.0,2-Back,1.0,m,Wed Feb 25 2026 16:04:55 GMT-0600 (Central Standard Time),693178.0,015_o_m_d_a.png,O,m,1432,4,1,2464.2999999970198,690713.700000003,7763,VNB,C,2
3,test,2,0.0,2-Back,1.0,m,Wed Feb 25 2026 16:04:55 GMT-0600 (Central Standard Time),696177.200000003,019_m_f_d_a.png,O,m,1973,5,1,2994.7000000029802,693182.5,7763,VNB,C,3
3,test,2,0.0,2-Back,0.0,m,Wed Feb 25 2026 16:04:55 GMT-0600 (Central Standard Time),698592.8000000119,025_y_m_h_a.png,O,z,1383,6,1,2404.6000000089407,696188.200000003,7763,VNB,C,4
4,test,2,0.0,2-Back,1.0,m,Wed Feb 25 2026 16:04:55 GMT-0600 (Central Standard Time),700758.400000006,012_o_f_n_a.png,O,m,1135,7,1,2161.7999999970198,698596.6000000089,7763,VNB,C,5
4,test,2,1.0,2-Back,0.0,z,Wed Feb 25 2026 16:04:55 GMT-0600 (Central Standard Time),703791.0,015_o_m_h_a.png,O,None,2015,8,1,3024.699999988079,700766.3000000119,7763,VNB,C,6
4,test,2,0.0,2-Back,0.0,m,Wed Feb 25 2026 16:04:55 GMT-0600 (Central Standard Time),706825.1000000089,022_y_f_d_a.png,O,None,2017,9,1,3031.1000000089407,703794.0,7763,VNB,C,7
4,test,2,0.0,2-Back,0.0,m,Wed Feb 25 2026 16:04:55 GMT-0600 (Central Standard Time),709173.1000000089,025_y_m_d_a.png,O,z,1330,10,1,2340.6000000089407,706832.5,7763,VNB,C,8
4,test,2,0.0,2-Back,0.0,m,Wed Feb 25 2026 16:04:55 GMT-0600 (Central Standard Time),711938.8000000119,014_m_m_n_a.png,O,z,1739,11,1,2762.6000000089407,709176.200000003,7763,VNB,C,9
5,test,2,0.0,2-Back,1.0,m,Wed Feb 25 2026 16:04:55 GMT-0600 (Central Standard Time),714055.3000000119,019_m_f_h_a.png,O,m,1085,12,1,2109.1000000089407,711946.200000003,7763,VNB,C,10
6,test,2,1.0,2-Back,1.0,z,Wed Feb 25 2026 16:04:55 GMT-0600 (Central Standard Time),716520.0,015_o_m_n_a.png,O,z,1432,13,1,2462.2999999970198,714057.700000003,7763,VNB,C,11
7,test,2,0.0,2-Back,1.0,m,Wed Feb 25 2026 16:04:55 GMT-0600 (Central Standard Time),719523.0,012_o_f_d_a.png,O,m,1985,14,1,2995.0999999940395,716527.900000006,7763,VNB,C,12
7,test,2,0.0,2-Back,0.0,m,Wed Feb 25 2026 16:04:55 GMT-0600 (Central Standard Time),722551.5,022_y_f_h_a.png,O,None,2014,15,1,3025.2999999970198,719526.200000003,7763,VNB,C,13
7,test,2,0.0,2-Back,0.0,z,Wed Feb 25 2026 16:04:55 GMT-0600 (Central Standard Time),724985.6000000089,014_m_m_d_a.png,O,m,1401,16,1,2427.7000000029802,722557.900000006,7763,VNB,C,14
8,test,2,0.0,2-Back,1.0,m,Wed Feb 25 2026 16:04:55 GMT-0600 (Central Standard Time),727799.700000003,025_y_m_n_a.png,O,m,1785,17,1,2810.7999999970198,724988.900000006,7763,VNB,C,15
8,test,2,1.0,2-Back,0.0,m,Wed Feb 25 2026 16:04:55 GMT-0600 (Central Standard Time),730832.8000000119,019_m_f_n_a.png,O,None,2017,18,1,3020.800000011921,727812.0,7763,VNB,C,16
0,test,3,1.0,2-Back,,,Wed Feb 25 2026 16:04:55 GMT-0600 (Central Standard Time),730832.8000000119,015_o_m_n_a.png,O,space,12078,1,1,3020.800000011921,727812.0,7763,VNB,C,0
0,test,3,1.0,2-Back,,,Wed Feb 25 2026 16:04:55 GMT-0600 (Central Standard Time),730832.8000000119,012_o_f_d_a.png,O,space,12078,2,1,3020.800000011921,727812.0,7763,VNB,C,0
1,test,3,0.0,2-Back,1.0,m,Wed Feb 25 2026 16:04:55 GMT-0600 (Central Standard Time),750361.0,022_y_f_h_a.png,O,m,1359,3,1,2383.3999999910593,747977.6000000089,7763,VNB,C,1
2,test,3,0.0,2-Back,1.0,z,Wed Feb 25 2026 16:04:55 GMT-0600 (Central Standard Time),752858.1000000089,019_m_f_d_a.png,O,z,1482,4,1,2489.7999999970198,750368.3000000119,7763,VNB,C,2
3,test,3,1.0,2-Back,1.0,m,Wed Feb 25 2026 16:04:55 GMT-0600 (Central Standard Time),755807.8000000119,025_y_m_n_a.png,O,m,1926,5,1,2948.300000011921,752859.5,7763,VNB,C,3
3,test,3,0.0,2-Back,0.0,m,Wed Feb 25 2026 16:04:55 GMT-0600 (Central Standard Time),758840.1000000089,015_o_m_h_a.png,O,None,2015,6,1,3025.5,755814.6000000089,7763,VNB,C,4
4,test,3,0.0,2-Back,1.0,z,Wed Feb 25 2026 16:04:55 GMT-0600 (Central Standard Time),760972.1000000089,022_y_f_n_a.png,O,z,1103,7,1,2129.0,758843.1000000089,7763,VNB,C,5
5,test,3,1.0,2-Back,1.0,m,Wed Feb 25 2026 16:04:55 GMT-0600 (Central Standard Time),763054.8000000119,014_m_m_d_a.png,O,m,1050,8,1,2076.800000011921,760978.0,7763,VNB,C,6
6,test,3,0.0,2-Back,1.0,m,Wed Feb 25 2026 16:04:55 GMT-0600 (Central Standard Time),765221.700000003,025_y_m_d_a.png,O,m,1136,9,1,2165.2000000029802,763056.5,7763,VNB,C,7
7,test,3,0.0,2-Back,1.0,m,Wed Feb 25 2026 16:04:55 GMT-0600 (Central Standard Time),767653.200000003,012_o_f_h_a.png,O,m,1410,10,1,2424.0,765229.200000003,7763,VNB,C,8
7,test,3,1.0,2-Back,0.0,m,Wed Feb 25 2026 16:04:55 GMT-0600 (Central Standard Time),770688.400000006,019_m_f_n_a.png,O,None,2017,11,1,3033.5999999940395,767654.8000000119,7763,VNB,C,9
8,test,3,1.0,2-Back,1.0,z,Wed Feb 25 2026 16:04:55 GMT-0600 (Central Standard Time),772869.1000000089,014_m_m_h_a.png,O,z,1161,12,1,2174.2000000029802,770694.900000006,7763,VNB,C,10
9,test,3,0.0,2-Back,1.0,m,Wed Feb 25 2026 16:04:55 GMT-0600 (Central Standard Time),775501.5,022_y_f_d_a.png,O,m,1610,13,1,2630.0999999940395,772871.400000006,7763,VNB,C,11
10,test,3,0.0,2-Back,1.0,m,Wed Feb 25 2026 16:04:55 GMT-0600 (Central Standard Time),778102.5,012_o_f_n_a.png,O,m,1569,14,1,2594.699999988079,775507.8000000119,7763,VNB,C,12
10,test,3,0.0,2-Back,0.0,z,Wed Feb 25 2026 16:04:55 GMT-0600 (Central Standard Time),781133.900000006,015_o_m_d_a.png,O,None,2017,15,1,3029.9000000059605,778104.0,7763,VNB,C,13
10,test,3,1.0,2-Back,0.0,m,Wed Feb 25 2026 16:04:55 GMT-0600 (Central Standard Time),782965.8000000119,019_m_f_h_a.png,O,z,810,16,1,1823.9000000059605,781141.900000006,7763,VNB,C,14
11,test,3,0.0,2-Back,1.0,m,Wed Feb 25 2026 16:04:55 GMT-0600 (Central Standard Time),785450.200000003,014_m_m_n_a.png,O,m,1449,17,1,2482.2999999970198,782967.900000006,7763,VNB,C,15
12,test,3,0.0,2-Back,1.0,z,Wed Feb 25 2026 16:04:55 GMT-0600 (Central Standard Time),787950.3000000119,025_y_m_h_a.png,O,z,1471,18,1,2493.4000000059605,785456.900000006,7763,VNB,C,16
0,test,4,0.0,2-Back,,,Wed Feb 25 2026 16:04:55 GMT-0600 (Central Standard Time),787950.3000000119,019_m_f_n_a.png,O,space,2889,1,1,2493.4000000059605,785456.900000006,7763,VNB,C,0
0,test,4,0.0,2-Back,,,Wed Feb 25 2026 16:04:55 GMT-0600 (Central Standard Time),787950.3000000119,015_o_m_n_a.png,O,space,2889,2,1,2493.4000000059605,785456.900000006,7763,VNB,C,0
1,test,4,1.0,2-Back,1.0,m,Wed Feb 25 2026 16:04:55 GMT-0600 (Central Standard Time),798194.700000003,025_y_m_h_a.png,O,m,1116,3,1,2129.2999999970198,796065.400000006,7763,VNB,C,1
2,test,4,1.0,2-Back,1.0,m,Wed Feb 25 2026 16:04:55 GMT-0600 (Central Standard Time),800643.0,012_o_f_d_a.png,O,m,1426,4,1,2440.8999999910593,798202.1000000089,7763,VNB,C,2
3,test,4,0.0,2-Back,1.0,z,Wed Feb 25 2026 16:04:55 GMT-0600 (Central Standard Time),802726.6000000089,015_o_m_h_a.png,O,z,1061,5,1,2081.7000000029802,800644.900000006,7763,VNB,C,3
3,test,4,0.0,2-Back,0.0,m,Wed Feb 25 2026 16:04:55 GMT-0600 (Central Standard Time),805758.6000000089,014_m_m_n_a.png,O,None,2015,6,1,3022.6000000089407,802736.0,7763,VNB,C,4
3,test,4,0.0,2-Back,0.0,m,Wed Feb 25 2026 16:04:55 GMT-0600 (Central Standard Time),808791.3000000119,019_m_f_d_a.png,O,None,2016,7,1,3030.300000011921,805761.0,7763,VNB,C,5
4,test,4,0.0,2-Back,1.0,z,Wed Feb 25 2026 16:04:55 GMT-0600 (Central Standard Time),811273.8000000119,022_y_f_n_a.png,O,z,1451,8,1,2470.1000000089407,808803.700000003,7763,VNB,C,6
5,test,4,1.0,2-Back,1.0,m,Wed Feb 25 2026 16:04:55 GMT-0600 (Central Standard Time),814021.8000000119,012_o_f_h_a.png,O,m,1718,9,1,2744.800000011921,811277.0,7763,VNB,C,7
5,test,4,0.0,2-Back,0.0,m,Wed Feb 25 2026 16:04:55 GMT-0600 (Central Standard Time),817054.700000003,014_m_m_h_a.png,O,None,2014,10,1,3026.7000000029802,814028.0,7763,VNB,C,8
6,test,4,0.0,2-Back,1.0,m,Wed Feb 25 2026 16:04:55 GMT-0600 (Central Standard Time),819772.400000006,022_y_f_d_a.png,O,m,1699,11,1,2713.0999999940395,817059.3000000119,7763,VNB,C,9
7,test,4,0.0,2-Back,1.0,m,Wed Feb 25 2026 16:04:55 GMT-0600 (Central Standard Time),821937.1000000089,025_y_m_n_a.png,O,m,1141,12,1,2155.2000000029802,819781.900000006,7763,VNB,C,10
8,test,4,0.0,2-Back,1.0,z,Wed Feb 25 2026 16:04:55 GMT-0600 (Central Standard Time),823985.900000006,015_o_m_d_a.png,O,z,1023,13,1,2043.5999999940395,821942.3000000119,7763,VNB,C,11
9,test,4,1.0,2-Back,1.0,m,Wed Feb 25 2026 16:04:55 GMT-0600 (Central Standard Time),826119.5,019_m_f_h_a.png,O,m,1102,14,1,2125.3999999910593,823994.1000000089,7763,VNB,C,12
10,test,4,1.0,2-Back,1.0,m,Wed Feb 25 2026 16:04:55 GMT-0600 (Central Standard Time),828867.6000000089,022_y_f_h_a.png,O,m,1729,15,1,2745.4000000059605,826122.200000003,7763,VNB,C,13
11,test,4,0.0,2-Back,1.0,m,Wed Feb 25 2026 16:04:55 GMT-0600 (Central Standard Time),831183.0,012_o_f_n_a.png,O,m,1283,16,1,2302.3999999910593,828880.6000000089,7763,VNB,C,14
12,test,4,0.0,2-Back,1.0,m,Wed Feb 25 2026 16:04:55 GMT-0600 (Central Standard Time),833533.1000000089,025_y_m_d_a.png,O,m,1320,17,1,2345.7000000029802,831187.400000006,7763,VNB,C,15
13,test,4,1.0,2-Back,1.0,m,Wed Feb 25 2026 16:04:55 GMT-0600 (Central Standard Time),836150.6000000089,014_m_m_d_a.png,O,m,1595,18,1,2608.7000000029802,833541.900000006,7763,VNB,C,16
0,test,5,1.0,2-Back,,,Wed Feb 25 2026 16:04:55 GMT-0600 (Central Standard Time),836150.6000000089,022_y_f_d_a.png,O,space,2474,1,1,2608.7000000029802,833541.900000006,7763,VNB,C,0
0,test,5,1.0,2-Back,,,Wed Feb 25 2026 16:04:55 GMT-0600 (Central Standard Time),836150.6000000089,012_o_f_h_a.png,O,space,2474,2,1,2608.7000000029802,833541.900000006,7763,VNB,C,0
1,test,5,1.0,2-Back,1.0,z,Wed Feb 25 2026 16:04:55 GMT-0600 (Central Standard Time),846345.900000006,015_o_m_d_a.png,O,z,1482,3,1,2494.0999999940395,843851.8000000119,7763,VNB,C,1
2,test,5,1.0,2-Back,1.0,m,Wed Feb 25 2026 16:04:55 GMT-0600 (Central Standard Time),848927.700000003,019_m_f_n_a.png,O,m,1549,4,1,2577.5999999940395,846350.1000000089,7763,VNB,C,2
3,test,5,0.0,2-Back,1.0,m,Wed Feb 25 2026 16:04:55 GMT-0600 (Central Standard Time),851444.0,014_m_m_h_a.png,O,m,1495,5,1,2513.699999988079,848930.3000000119,7763,VNB,C,3
3,test,5,0.0,2-Back,0.0,z,Wed Feb 25 2026 16:04:55 GMT-0600 (Central Standard Time),854275.8000000119,022_y_f_n_a.png,O,m,1803,6,1,2821.5,851454.3000000119,7763,VNB,C,4
4,test,5,0.0,2-Back,1.0,m,Wed Feb 25 2026 16:04:55 GMT-0600 (Central Standard Time),856425.400000006,012_o_f_d_a.png,O,m,1123,7,1,2145.0999999940395,854280.3000000119,7763,VNB,C,5
5,test,5,0.0,2-Back,1.0,m,Wed Feb 25 2026 16:04:55 GMT-0600 (Central Standard Time),858909.1000000089,015_o_m_h_a.png,O,m,1462,8,1,2475.4000000059605,856433.700000003,7763,VNB,C,6
5,test,5,1.0,2-Back,0.0,z,Wed Feb 25 2026 16:04:55 GMT-0600 (Central Standard Time),861474.400000006,019_m_f_d_a.png,O,m,1545,9,1,2560.7999999970198,858913.6000000089,7763,VNB,C,7
5,test,5,0.0,2-Back,0.0,m,Wed Feb 25 2026 16:04:55 GMT-0600 (Central Standard Time),863773.5,025_y_m_n_a.png,O,z,1278,10,1,2295.0,861478.5,7763,VNB,C,8
6,test,5,0.0,2-Back,1.0,m,Wed Feb 25 2026 16:04:55 GMT-0600 (Central Standard Time),866372.3000000119,014_m_m_n_a.png,O,m,1570,11,1,2596.2000000029802,863776.1000000089,7763,VNB,C,9
7,test,5,0.0,2-Back,1.0,m,Wed Feb 25 2026 16:04:55 GMT-0600 (Central Standard Time),868587.1000000089,022_y_f_h_a.png,O,m,1186,12,1,2204.4000000059605,866382.700000003,7763,VNB,C,10
8,test,5,0.0,2-Back,1.0,m,Wed Feb 25 2026 16:04:55 GMT-0600 (Central Standard Time),871521.5,025_y_m_d_a.png,O,m,1908,13,1,2932.8999999910593,868588.6000000089,7763,VNB,C,11
9,test,5,1.0,2-Back,1.0,z,Wed Feb 25 2026 16:04:55 GMT-0600 (Central Standard Time),874171.3000000119,019_m_f_h_a.png,O,z,1623,14,1,2643.5,871527.8000000119,7763,VNB,C,12
9,test,5,0.0,2-Back,0.0,m,Wed Feb 25 2026 16:04:55 GMT-0600 (Central Standard Time),877202.900000006,015_o_m_n_a.png,O,None,2016,15,1,3029.2000000029802,874173.700000003,7763,VNB,C,13
10,test,5,0.0,2-Back,1.0,m,Wed Feb 25 2026 16:04:55 GMT-0600 (Central Standard Time),879601.6000000089,014_m_m_d_a.png,O,m,1372,16,1,2390.6000000089407,877211.0,7763,VNB,C,14
11,test,5,0.0,2-Back,1.0,z,Wed Feb 25 2026 16:04:55 GMT-0600 (Central Standard Time),882000.8000000119,012_o_f_n_a.png,O,z,1373,17,1,2397.0,879603.8000000119,7763,VNB,C,15
11,test,5,1.0,2-Back,0.0,m,Wed Feb 25 2026 16:04:55 GMT-0600 (Central Standard Time),885034.5,025_y_m_h_a.png,O,None,2018,18,1,3029.699999988079,882004.8000000119,7763,VNB,C,16
