acc_sum,block,block_c,change,condition,correct,correct_response,datetime,endtime,face,project,response,response_time,row_sel,session_number,start_end,starttime,subject_id,task,task_vers,trial
0,prac,1,,1-Back,,,Wed May 27 2026 15:45:51 GMT-0500 (Central Daylight Time),,124_o_f_d_a.png,I,space,4210,1,1,,,8101,VNB,A,0
1,prac,1,0.0,1-Back,1.0,m,Wed May 27 2026 15:45:51 GMT-0500 (Central Daylight Time),119577.40000000596,071_y_f_n_a.png,I,m,1443,2,1,2256.1000000089407,117321.29999999702,8101,VNB,A,1
2,prac,1,0.0,1-Back,1.0,m,Wed May 27 2026 15:45:51 GMT-0500 (Central Daylight Time),121658.79999999702,165_m_m_h_a.png,I,m,1274,3,1,2077.0999999940395,119581.70000000298,8101,VNB,A,2
3,prac,1,0.0,1-Back,1.0,m,Wed May 27 2026 15:45:51 GMT-0500 (Central Daylight Time),123708.20000000298,109_y_m_d_a.png,I,m,1239,4,1,2042.5,121665.70000000298,8101,VNB,A,3
4,prac,1,0.0,1-Back,1.0,m,Wed May 27 2026 15:45:51 GMT-0500 (Central Daylight Time),125524.09999999404,124_o_f_n_a.png,I,m,985,5,1,1812.199999988079,123711.90000000596,8101,VNB,A,4
5,prac,1,1.0,1-Back,1.0,z,Wed May 27 2026 15:45:51 GMT-0500 (Central Daylight Time),127706.90000000596,109_y_m_n_a.png,I,z,1373,6,1,2174.2000000029802,125532.70000000298,8101,VNB,A,5
6,prac,1,0.0,1-Back,1.0,m,Wed May 27 2026 15:45:51 GMT-0500 (Central Daylight Time),129406.59999999404,039_o_m_h_a.png,I,m,898,7,1,1695.0999999940395,127711.5,8101,VNB,A,6
7,prac,1,0.0,1-Back,1.0,m,Wed May 27 2026 15:45:51 GMT-0500 (Central Daylight Time),131222.59999999404,139_m_f_d_a.png,I,m,1008,8,1,1807.8999999910593,129414.70000000298,8101,VNB,A,7
7,prac,1,1.0,1-Back,0.0,z,Wed May 27 2026 15:45:51 GMT-0500 (Central Daylight Time),133854.90000000596,071_y_f_d_a.png,I,m,1821,9,1,2628.0,131226.90000000596,8101,VNB,A,8
8,prac,1,0.0,1-Back,1.0,m,Wed May 27 2026 15:45:51 GMT-0500 (Central Daylight Time),135937.70000000298,165_m_m_n_a.png,I,m,1273,10,1,2075.1000000089407,133862.59999999404,8101,VNB,A,9
9,prac,1,0.0,1-Back,1.0,m,Wed May 27 2026 15:45:51 GMT-0500 (Central Daylight Time),137787.20000000298,124_o_f_h_a.png,I,m,1033,11,1,1845.2000000029802,135942.0,8101,VNB,A,10
10,prac,1,0.0,1-Back,1.0,m,Wed May 27 2026 15:45:51 GMT-0500 (Central Daylight Time),139603.90000000596,109_y_m_d_a.png,I,m,1038,12,1,1808.7000000029802,137795.20000000298,8101,VNB,A,11
0,test,1,0.0,1-Back,,,Wed May 27 2026 15:45:51 GMT-0500 (Central Daylight Time),139603.90000000596,071_y_f_d_a.png,I,space,6886,1,1,1808.7000000029802,137795.20000000298,8101,VNB,A,0
1,test,1,0.0,1-Back,1.0,m,Wed May 27 2026 15:45:51 GMT-0500 (Central Daylight Time),160180.0,139_m_f_n_a.png,I,m,1139,2,1,2160.0999999940395,158019.90000000596,8101,VNB,A,1
2,test,1,0.0,1-Back,1.0,m,Wed May 27 2026 15:45:51 GMT-0500 (Central Daylight Time),162296.09999999404,039_o_m_h_a.png,I,m,1085,3,1,2113.3999999910593,160182.70000000298,8101,VNB,A,2
3,test,1,1.0,1-Back,1.0,z,Wed May 27 2026 15:45:51 GMT-0500 (Central Daylight Time),164428.59999999404,165_m_m_h_a.png,I,z,1105,4,1,2129.699999988079,162298.90000000596,8101,VNB,A,3
4,test,1,0.0,1-Back,1.0,m,Wed May 27 2026 15:45:51 GMT-0500 (Central Daylight Time),166461.40000000596,124_o_f_n_a.png,I,m,1012,5,1,2030.2000000029802,164431.20000000298,8101,VNB,A,4
5,test,1,0.0,1-Back,1.0,m,Wed May 27 2026 15:45:51 GMT-0500 (Central Daylight Time),168544.29999999702,109_y_m_d_a.png,I,m,1060,6,1,2080.2000000029802,166464.09999999404,8101,VNB,A,5
6,test,1,1.0,1-Back,1.0,z,Wed May 27 2026 15:45:51 GMT-0500 (Central Daylight Time),170643.5,139_m_f_d_a.png,I,z,1080,7,1,2096.2000000029802,168547.29999999702,8101,VNB,A,6
7,test,1,0.0,1-Back,1.0,m,Wed May 27 2026 15:45:51 GMT-0500 (Central Daylight Time),172626.09999999404,071_y_f_h_a.png,I,m,963,8,1,1980.199999988079,170645.90000000596,8101,VNB,A,7
8,test,1,0.0,1-Back,1.0,m,Wed May 27 2026 15:45:51 GMT-0500 (Central Daylight Time),174592.0,039_o_m_n_a.png,I,m,935,9,1,1963.0999999940395,172628.90000000596,8101,VNB,A,8
9,test,1,0.0,1-Back,1.0,m,Wed May 27 2026 15:45:51 GMT-0500 (Central Daylight Time),176608.09999999404,109_y_m_h_a.png,I,m,985,10,1,2013.5999999940395,174594.5,8101,VNB,A,9
10,test,1,0.0,1-Back,1.0,m,Wed May 27 2026 15:45:51 GMT-0500 (Central Daylight Time),178658.70000000298,039_o_m_d_a.png,I,m,1015,11,1,2048.0,176610.70000000298,8101,VNB,A,10
11,test,1,1.0,1-Back,1.0,z,Wed May 27 2026 15:45:51 GMT-0500 (Central Daylight Time),180873.5,124_o_f_d_a.png,I,z,1184,12,1,2211.7999999970198,178661.70000000298,8101,VNB,A,11
12,test,1,0.0,1-Back,1.0,m,Wed May 27 2026 15:45:51 GMT-0500 (Central Daylight Time),182823.20000000298,165_m_m_n_a.png,I,m,920,13,1,1947.1000000089407,180876.09999999404,8101,VNB,A,12
13,test,1,1.0,1-Back,1.0,z,Wed May 27 2026 15:45:51 GMT-0500 (Central Daylight Time),185072.40000000596,071_y_f_n_a.png,I,z,1218,14,1,2246.4000000059605,182826.0,8101,VNB,A,13
14,test,1,0.0,1-Back,1.0,m,Wed May 27 2026 15:45:51 GMT-0500 (Central Daylight Time),187021.5,139_m_f_h_a.png,I,m,928,15,1,1946.4000000059605,185075.09999999404,8101,VNB,A,14
15,test,1,0.0,1-Back,1.0,m,Wed May 27 2026 15:45:51 GMT-0500 (Central Daylight Time),189122.20000000298,165_m_m_d_a.png,I,m,1076,16,1,2098.2999999970198,187023.90000000596,8101,VNB,A,15
16,test,1,0.0,1-Back,1.0,m,Wed May 27 2026 15:45:51 GMT-0500 (Central Daylight Time),191353.90000000596,109_y_m_n_a.png,I,m,1217,17,1,2228.4000000059605,189125.5,8101,VNB,A,16
17,test,1,0.0,1-Back,1.0,m,Wed May 27 2026 15:45:51 GMT-0500 (Central Daylight Time),193496.09999999404,124_o_f_h_a.png,I,m,1126,18,1,2139.7999999970198,191356.29999999702,8101,VNB,A,17
0,test,2,0.0,1-Back,,,Wed May 27 2026 15:45:51 GMT-0500 (Central Daylight Time),193496.09999999404,109_y_m_n_a.png,I,space,1656,1,1,2139.7999999970198,191356.29999999702,8101,VNB,A,0
1,test,2,0.0,1-Back,1.0,m,Wed May 27 2026 15:45:51 GMT-0500 (Central Daylight Time),199151.09999999404,071_y_f_h_a.png,I,m,943,2,1,1960.699999988079,197190.40000000596,8101,VNB,A,1
2,test,2,1.0,1-Back,1.0,m,Wed May 27 2026 15:45:51 GMT-0500 (Central Daylight Time),201033.79999999702,039_o_m_n_a.png,I,m,857,3,1,1879.7000000029802,199154.09999999404,8101,VNB,A,2
3,test,2,0.0,1-Back,1.0,m,Wed May 27 2026 15:45:51 GMT-0500 (Central Daylight Time),202966.70000000298,139_m_f_d_a.png,I,m,904,4,1,1930.2000000029802,201036.5,8101,VNB,A,3
4,test,2,0.0,1-Back,1.0,z,Wed May 27 2026 15:45:51 GMT-0500 (Central Daylight Time),205065.90000000596,165_m_m_d_a.png,I,z,1067,5,1,2096.300000011921,202969.59999999404,8101,VNB,A,4
5,test,2,0.0,1-Back,1.0,m,Wed May 27 2026 15:45:51 GMT-0500 (Central Daylight Time),206882.0,109_y_m_h_a.png,I,m,791,6,1,1813.4000000059605,205068.59999999404,8101,VNB,A,5
6,test,2,1.0,1-Back,1.0,z,Wed May 27 2026 15:45:51 GMT-0500 (Central Daylight Time),209231.5,124_o_f_h_a.png,I,z,1327,7,1,2346.7000000029802,206884.79999999702,8101,VNB,A,6
7,test,2,0.0,1-Back,1.0,m,Wed May 27 2026 15:45:51 GMT-0500 (Central Daylight Time),211147.20000000298,139_m_f_n_a.png,I,m,890,8,1,1912.5,209234.70000000298,8101,VNB,A,7
8,test,2,0.0,1-Back,1.0,m,Wed May 27 2026 15:45:51 GMT-0500 (Central Daylight Time),213263.40000000596,071_y_f_d_a.png,I,m,1086,9,1,2113.5,211149.90000000596,8101,VNB,A,8
9,test,2,0.0,1-Back,1.0,m,Wed May 27 2026 15:45:51 GMT-0500 (Central Daylight Time),215062.90000000596,165_m_m_n_a.png,I,m,770,10,1,1796.9000000059605,213266.0,8101,VNB,A,9
10,test,2,1.0,1-Back,1.0,m,Wed May 27 2026 15:45:51 GMT-0500 (Central Daylight Time),216923.40000000596,139_m_f_h_a.png,I,m,843,11,1,1857.7000000029802,215065.70000000298,8101,VNB,A,10
11,test,2,0.0,1-Back,1.0,z,Wed May 27 2026 15:45:51 GMT-0500 (Central Daylight Time),218945.0,039_o_m_h_a.png,I,z,1000,12,1,2018.7999999970198,216926.20000000298,8101,VNB,A,11
12,test,2,0.0,1-Back,1.0,m,Wed May 27 2026 15:45:51 GMT-0500 (Central Daylight Time),220860.90000000596,109_y_m_d_a.png,I,m,896,13,1,1913.2000000029802,218947.70000000298,8101,VNB,A,12
13,test,2,0.0,1-Back,1.0,m,Wed May 27 2026 15:45:51 GMT-0500 (Central Daylight Time),222810.59999999404,124_o_f_n_a.png,I,m,925,14,1,1946.7999999970198,220863.79999999702,8101,VNB,A,13
14,test,2,0.0,1-Back,1.0,z,Wed May 27 2026 15:45:51 GMT-0500 (Central Daylight Time),224842.79999999702,071_y_f_n_a.png,I,z,1015,15,1,2029.3999999910593,222813.40000000596,8101,VNB,A,14
15,test,2,1.0,1-Back,1.0,m,Wed May 27 2026 15:45:51 GMT-0500 (Central Daylight Time),227160.29999999702,165_m_m_h_a.png,I,m,1285,16,1,2314.7999999970198,224845.5,8101,VNB,A,15
16,test,2,0.0,1-Back,1.0,m,Wed May 27 2026 15:45:51 GMT-0500 (Central Daylight Time),229158.5,124_o_f_d_a.png,I,m,978,17,1,1995.0999999940395,227163.40000000596,8101,VNB,A,16
17,test,2,1.0,1-Back,1.0,z,Wed May 27 2026 15:45:51 GMT-0500 (Central Daylight Time),231024.5,039_o_m_d_a.png,I,z,834,18,1,1863.5999999940395,229160.90000000596,8101,VNB,A,17
0,test,3,1.0,1-Back,,,Wed May 27 2026 15:45:51 GMT-0500 (Central Daylight Time),231024.5,124_o_f_h_a.png,I,space,1520,1,1,1863.5999999940395,229160.90000000596,8101,VNB,A,0
1,test,3,0.0,1-Back,1.0,m,Wed May 27 2026 15:45:51 GMT-0500 (Central Daylight Time),236439.70000000298,139_m_f_d_a.png,I,m,811,2,1,1829.2000000029802,234610.5,8101,VNB,A,1
2,test,3,1.0,1-Back,1.0,m,Wed May 27 2026 15:45:51 GMT-0500 (Central Daylight Time),238572.20000000298,165_m_m_n_a.png,I,m,1114,3,1,2129.7000000029802,236442.5,8101,VNB,A,2
2,test,3,0.0,1-Back,0.0,z,Wed May 27 2026 15:45:51 GMT-0500 (Central Daylight Time),241604.40000000596,124_o_f_n_a.png,I,None,2015,4,1,3029.1000000089407,238575.29999999702,8101,VNB,A,3
3,test,3,1.0,1-Back,1.0,m,Wed May 27 2026 15:45:51 GMT-0500 (Central Daylight Time),243903.90000000596,039_o_m_d_a.png,I,m,1277,5,1,2295.4000000059605,241608.5,8101,VNB,A,4
4,test,3,0.0,1-Back,1.0,m,Wed May 27 2026 15:45:51 GMT-0500 (Central Daylight Time),245770.0,071_y_f_h_a.png,I,m,842,6,1,1863.5999999940395,243906.40000000596,8101,VNB,A,5
5,test,3,0.0,1-Back,1.0,z,Wed May 27 2026 15:45:51 GMT-0500 (Central Daylight Time),247652.70000000298,109_y_m_h_a.png,I,z,863,7,1,1880.2000000029802,245772.5,8101,VNB,A,6
6,test,3,0.0,1-Back,1.0,m,Wed May 27 2026 15:45:51 GMT-0500 (Central Daylight Time),249419.90000000596,139_m_f_n_a.png,I,m,740,8,1,1764.5,247655.40000000596,8101,VNB,A,7
7,test,3,0.0,1-Back,1.0,m,Wed May 27 2026 15:45:51 GMT-0500 (Central Daylight Time),251351.59999999404,071_y_f_d_a.png,I,m,901,9,1,1928.8999999910593,249422.70000000298,8101,VNB,A,8
8,test,3,1.0,1-Back,1.0,m,Wed May 27 2026 15:45:51 GMT-0500 (Central Daylight Time),253334.09999999404,039_o_m_n_a.png,I,m,954,10,1,1979.5999999940395,251354.5,8101,VNB,A,9
9,test,3,0.0,1-Back,1.0,m,Wed May 27 2026 15:45:51 GMT-0500 (Central Daylight Time),255683.70000000298,165_m_m_h_a.png,I,m,1322,11,1,2345.4000000059605,253338.29999999702,8101,VNB,A,10
10,test,3,0.0,1-Back,1.0,z,Wed May 27 2026 15:45:51 GMT-0500 (Central Daylight Time),258382.70000000298,139_m_f_h_a.png,I,z,1678,12,1,2695.9000000059605,255686.79999999702,8101,VNB,A,11
11,test,3,1.0,1-Back,1.0,m,Wed May 27 2026 15:45:51 GMT-0500 (Central Daylight Time),260281.90000000596,124_o_f_d_a.png,I,m,867,13,1,1896.800000011921,258385.09999999404,8101,VNB,A,12
11,test,3,0.0,1-Back,0.0,z,Wed May 27 2026 15:45:51 GMT-0500 (Central Daylight Time),262914.200000003,165_m_m_d_a.png,I,m,1614,14,1,2629.7999999970198,260284.40000000596,8101,VNB,A,13
12,test,3,0.0,1-Back,1.0,m,Wed May 27 2026 15:45:51 GMT-0500 (Central Daylight Time),265047.40000000596,109_y_m_n_a.png,I,m,1013,15,1,2130.5,262916.90000000596,8101,VNB,A,14
13,test,3,1.0,1-Back,1.0,m,Wed May 27 2026 15:45:51 GMT-0500 (Central Daylight Time),267246.40000000596,039_o_m_h_a.png,I,m,1170,16,1,2196.5,265049.90000000596,8101,VNB,A,15
14,test,3,0.0,1-Back,1.0,m,Wed May 27 2026 15:45:51 GMT-0500 (Central Daylight Time),268979.299999997,109_y_m_d_a.png,I,m,707,17,1,1729.8999999910593,267249.40000000596,8101,VNB,A,16
15,test,3,1.0,1-Back,1.0,m,Wed May 27 2026 15:45:51 GMT-0500 (Central Daylight Time),270662.09999999404,071_y_f_n_a.png,I,m,654,18,1,1680.199999988079,268981.90000000596,8101,VNB,A,17
0,test,4,1.0,1-Back,,,Wed May 27 2026 15:45:51 GMT-0500 (Central Daylight Time),270662.09999999404,165_m_m_d_a.png,I,space,1634,1,1,1680.199999988079,268981.90000000596,8101,VNB,A,0
1,test,4,0.0,1-Back,1.0,z,Wed May 27 2026 15:45:51 GMT-0500 (Central Daylight Time),276843.299999997,039_o_m_d_a.png,I,z,1490,2,1,2512.0999999940395,274331.200000003,8101,VNB,A,1
2,test,4,0.0,1-Back,1.0,m,Wed May 27 2026 15:45:51 GMT-0500 (Central Daylight Time),278926.200000003,109_y_m_h_a.png,I,m,1054,3,1,2080.2000000029802,276846.0,8101,VNB,A,2
3,test,4,0.0,1-Back,1.0,m,Wed May 27 2026 15:45:51 GMT-0500 (Central Daylight Time),280775.799999997,139_m_f_n_a.png,I,m,819,4,1,1846.8999999910593,278928.90000000596,8101,VNB,A,3
4,test,4,1.0,1-Back,1.0,m,Wed May 27 2026 15:45:51 GMT-0500 (Central Daylight Time),282575.0,124_o_f_h_a.png,I,m,770,5,1,1796.7000000029802,280778.299999997,8101,VNB,A,4
5,test,4,0.0,1-Back,1.0,m,Wed May 27 2026 15:45:51 GMT-0500 (Central Daylight Time),284457.90000000596,165_m_m_n_a.png,I,m,857,6,1,1880.2000000029802,282577.700000003,8101,VNB,A,5
6,test,4,0.0,1-Back,1.0,m,Wed May 27 2026 15:45:51 GMT-0500 (Central Daylight Time),286457.09999999404,109_y_m_d_a.png,I,m,976,7,1,1996.5,284460.59999999404,8101,VNB,A,6
7,test,4,1.0,1-Back,1.0,z,Wed May 27 2026 15:45:51 GMT-0500 (Central Daylight Time),288939.90000000596,071_y_f_d_a.png,I,z,1455,8,1,2480.1000000089407,286459.799999997,8101,VNB,A,7
8,test,4,0.0,1-Back,1.0,m,Wed May 27 2026 15:45:51 GMT-0500 (Central Daylight Time),290989.200000003,139_m_f_h_a.png,I,m,1029,9,1,2046.2999999970198,288942.90000000596,8101,VNB,A,8
9,test,4,0.0,1-Back,1.0,z,Wed May 27 2026 15:45:51 GMT-0500 (Central Daylight Time),293221.700000003,039_o_m_h_a.png,I,z,1212,10,1,2229.6000000089407,290992.09999999404,8101,VNB,A,9
10,test,4,1.0,1-Back,1.0,m,Wed May 27 2026 15:45:51 GMT-0500 (Central Daylight Time),295137.90000000596,124_o_f_n_a.png,I,m,900,11,1,1912.7000000029802,293225.200000003,8101,VNB,A,10
11,test,4,0.0,1-Back,1.0,m,Wed May 27 2026 15:45:51 GMT-0500 (Central Daylight Time),297087.200000003,139_m_f_d_a.png,I,m,920,12,1,1946.7999999970198,295140.40000000596,8101,VNB,A,11
12,test,4,0.0,1-Back,1.0,m,Wed May 27 2026 15:45:51 GMT-0500 (Central Daylight Time),299369.799999997,071_y_f_n_a.png,I,m,1257,13,1,2279.8999999910593,297089.90000000596,8101,VNB,A,12
13,test,4,0.0,1-Back,1.0,m,Wed May 27 2026 15:45:51 GMT-0500 (Central Daylight Time),301335.799999997,124_o_f_d_a.png,I,m,936,14,1,1963.2999999970198,299372.5,8101,VNB,A,13
14,test,4,0.0,1-Back,1.0,m,Wed May 27 2026 15:45:51 GMT-0500 (Central Daylight Time),303368.40000000596,071_y_f_h_a.png,I,m,1001,15,1,2029.800000011921,301338.59999999404,8101,VNB,A,14
15,test,4,1.0,1-Back,1.0,z,Wed May 27 2026 15:45:51 GMT-0500 (Central Daylight Time),305034.299999997,165_m_m_h_a.png,I,z,648,16,1,1663.2999999970198,303371.0,8101,VNB,A,15
16,test,4,0.0,1-Back,1.0,m,Wed May 27 2026 15:45:51 GMT-0500 (Central Daylight Time),306767.59999999404,039_o_m_n_a.png,I,m,710,17,1,1730.7999999970198,305036.799999997,8101,VNB,A,16
17,test,4,1.0,1-Back,1.0,z,Wed May 27 2026 15:45:51 GMT-0500 (Central Daylight Time),308833.40000000596,109_y_m_n_a.png,I,z,1041,18,1,2063.4000000059605,306770.0,8101,VNB,A,17
0,test,5,1.0,1-Back,,,Wed May 27 2026 15:45:51 GMT-0500 (Central Daylight Time),308833.40000000596,039_o_m_n_a.png,I,space,1760,1,1,2063.4000000059605,306770.0,8101,VNB,A,0
1,test,5,1.0,1-Back,1.0,m,Wed May 27 2026 15:45:51 GMT-0500 (Central Daylight Time),314381.700000003,124_o_f_h_a.png,I,m,738,2,1,1762.1000000089407,312619.59999999404,8101,VNB,A,1
2,test,5,0.0,1-Back,1.0,m,Wed May 27 2026 15:45:51 GMT-0500 (Central Daylight Time),316131.299999997,109_y_m_d_a.png,I,m,724,3,1,1746.8999999910593,314384.40000000596,8101,VNB,A,2
2,test,5,0.0,1-Back,0.0,z,Wed May 27 2026 15:45:51 GMT-0500 (Central Daylight Time),318180.799999997,039_o_m_d_a.png,I,m,1022,4,1,2046.7999999970198,316134.0,8101,VNB,A,3
3,test,5,0.0,1-Back,1.0,m,Wed May 27 2026 15:45:51 GMT-0500 (Central Daylight Time),319963.40000000596,139_m_f_h_a.png,I,m,757,5,1,1779.9000000059605,318183.5,8101,VNB,A,4
4,test,5,0.0,1-Back,1.0,m,Wed May 27 2026 15:45:51 GMT-0500 (Central Daylight Time),321796.09999999404,071_y_f_n_a.png,I,m,813,6,1,1830.0999999940395,319966.0,8101,VNB,A,5
5,test,5,1.0,1-Back,1.0,z,Wed May 27 2026 15:45:51 GMT-0500 (Central Daylight Time),323878.5,124_o_f_n_a.png,I,z,1060,7,1,2079.7000000029802,321798.799999997,8101,VNB,A,6
6,test,5,0.0,1-Back,1.0,m,Wed May 27 2026 15:45:51 GMT-0500 (Central Daylight Time),325695.0,139_m_f_d_a.png,I,m,786,8,1,1813.5999999940395,323881.40000000596,8101,VNB,A,7
7,test,5,0.0,1-Back,1.0,m,Wed May 27 2026 15:45:51 GMT-0500 (Central Daylight Time),327644.299999997,109_y_m_h_a.png,I,m,930,9,1,1946.5999999940395,325697.700000003,8101,VNB,A,8
8,test,5,0.0,1-Back,1.0,m,Wed May 27 2026 15:45:51 GMT-0500 (Central Daylight Time),329493.90000000596,071_y_f_d_a.png,I,m,821,10,1,1846.800000011921,327647.09999999404,8101,VNB,A,9
9,test,5,0.0,1-Back,1.0,m,Wed May 27 2026 15:45:51 GMT-0500 (Central Daylight Time),331326.5,165_m_m_n_a.png,I,m,804,11,1,1830.0,329496.5,8101,VNB,A,10
10,test,5,1.0,1-Back,1.0,z,Wed May 27 2026 15:45:51 GMT-0500 (Central Daylight Time),333175.90000000596,139_m_f_n_a.png,I,z,826,12,1,1846.800000011921,331329.09999999404,8101,VNB,A,11
11,test,5,0.0,1-Back,1.0,m,Wed May 27 2026 15:45:51 GMT-0500 (Central Daylight Time),335025.200000003,039_o_m_h_a.png,I,m,819,13,1,1846.9000000059605,333178.299999997,8101,VNB,A,12
12,test,5,0.0,1-Back,1.0,z,Wed May 27 2026 15:45:51 GMT-0500 (Central Daylight Time),337574.59999999404,165_m_m_h_a.png,I,z,1528,14,1,2546.699999988079,335027.90000000596,8101,VNB,A,13
13,test,5,1.0,1-Back,1.0,m,Wed May 27 2026 15:45:51 GMT-0500 (Central Daylight Time),339257.200000003,124_o_f_d_a.png,I,m,650,15,1,1680.0,337577.200000003,8101,VNB,A,14
14,test,5,0.0,1-Back,1.0,m,Wed May 27 2026 15:45:51 GMT-0500 (Central Daylight Time),341206.799999997,109_y_m_n_a.png,I,m,928,16,1,1946.8999999910593,339259.90000000596,8101,VNB,A,15
15,test,5,0.0,1-Back,1.0,m,Wed May 27 2026 15:45:51 GMT-0500 (Central Daylight Time),343122.5,071_y_f_h_a.png,I,m,896,17,1,1913.0,341209.5,8101,VNB,A,16
16,test,5,0.0,1-Back,1.0,m,Wed May 27 2026 15:45:51 GMT-0500 (Central Daylight Time),344905.59999999404,165_m_m_d_a.png,I,m,757,18,1,1780.7999999970198,343124.799999997,8101,VNB,A,17
0,prac,1,0.0,2-Back,,,Wed May 27 2026 15:45:51 GMT-0500 (Central Daylight Time),344905.59999999404,139_m_f_n_a.png,I,space,4680,1,1,1780.7999999970198,343124.799999997,8101,VNB,A,0
0,prac,1,0.0,2-Back,,,Wed May 27 2026 15:45:51 GMT-0500 (Central Daylight Time),344905.59999999404,124_o_f_h_a.png,I,space,4680,2,1,1780.7999999970198,343124.799999997,8101,VNB,A,0
0,prac,1,0.0,2-Back,0.0,m,Wed May 27 2026 15:45:51 GMT-0500 (Central Daylight Time),470549.5,039_o_m_d_a.png,I,None,2004,3,1,2795.4000000059605,467754.09999999404,8101,VNB,A,1
0,prac,1,1.0,2-Back,0.0,z,Wed May 27 2026 15:45:51 GMT-0500 (Central Daylight Time),473365.09999999404,165_m_m_h_a.png,I,None,2015,4,1,2807.7999999970198,470557.299999997,8101,VNB,A,2
0,prac,1,0.0,2-Back,0.0,m,Wed May 27 2026 15:45:51 GMT-0500 (Central Daylight Time),475981.0,071_y_f_n_a.png,I,z,1806,5,1,2611.7000000029802,473369.299999997,8101,VNB,A,3
0,prac,1,1.0,2-Back,0.0,z,Wed May 27 2026 15:45:51 GMT-0500 (Central Daylight Time),478763.59999999404,039_o_m_h_a.png,I,None,2012,6,1,2778.699999988079,475984.90000000596,8101,VNB,A,4
1,prac,1,1.0,2-Back,1.0,z,Wed May 27 2026 15:45:51 GMT-0500 (Central Daylight Time),481229.299999997,109_y_m_n_a.png,I,z,1651,7,1,2461.7999999970198,478767.5,8101,VNB,A,5
2,prac,1,0.0,2-Back,1.0,m,Wed May 27 2026 15:45:51 GMT-0500 (Central Daylight Time),483845.40000000596,139_m_f_d_a.png,I,m,1806,8,1,2612.300000011921,481233.09999999404,8101,VNB,A,6
3,prac,1,0.0,2-Back,1.0,m,Wed May 27 2026 15:45:51 GMT-0500 (Central Daylight Time),486528.0,124_o_f_d_a.png,I,m,1846,9,1,2675.7999999970198,483852.200000003,8101,VNB,A,7
3,prac,1,0.0,2-Back,0.0,m,Wed May 27 2026 15:45:51 GMT-0500 (Central Daylight Time),489310.09999999404,165_m_m_h_a.png,I,None,2012,10,1,2778.0999999940395,486532.0,8101,VNB,A,8
3,prac,1,1.0,2-Back,0.0,z,Wed May 27 2026 15:45:51 GMT-0500 (Central Daylight Time),492109.40000000596,071_y_f_d_a.png,I,None,2006,11,1,2795.5,489313.90000000596,8101,VNB,A,9
4,prac,1,0.0,2-Back,1.0,m,Wed May 27 2026 15:45:51 GMT-0500 (Central Daylight Time),494658.59999999404,039_o_m_n_a.png,I,m,1745,12,1,2545.699999988079,492112.90000000596,8101,VNB,A,10
0,prac,2,0.0,2-Back,,,Wed May 27 2026 15:45:51 GMT-0500 (Central Daylight Time),494658.59999999404,139_m_f_n_a.png,I,a,9932,1,1,2545.699999988079,492112.90000000596,8101,VNB,A,0
0,prac,2,0.0,2-Back,,,Wed May 27 2026 15:45:51 GMT-0500 (Central Daylight Time),494658.59999999404,124_o_f_h_a.png,I,a,9932,2,1,2545.699999988079,492112.90000000596,8101,VNB,A,0
0,prac,2,0.0,2-Back,0.0,m,Wed May 27 2026 15:45:51 GMT-0500 (Central Daylight Time),512502.799999997,039_o_m_d_a.png,I,None,2003,3,1,2794.8999999910593,509707.90000000596,8101,VNB,A,1
0,prac,2,1.0,2-Back,0.0,z,Wed May 27 2026 15:45:51 GMT-0500 (Central Daylight Time),515285.299999997,165_m_m_h_a.png,I,None,2012,4,1,2778.8999999910593,512506.40000000596,8101,VNB,A,2
0,prac,2,0.0,2-Back,0.0,m,Wed May 27 2026 15:45:51 GMT-0500 (Central Daylight Time),518084.5,071_y_f_n_a.png,I,None,2003,5,1,2795.5999999940395,515288.90000000596,8101,VNB,A,3
0,prac,2,1.0,2-Back,0.0,z,Wed May 27 2026 15:45:51 GMT-0500 (Central Daylight Time),520883.799999997,039_o_m_h_a.png,I,None,2004,6,1,2795.2000000029802,518088.59999999404,8101,VNB,A,4
0,prac,2,1.0,2-Back,0.0,z,Wed May 27 2026 15:45:51 GMT-0500 (Central Daylight Time),521916.799999997,109_y_m_n_a.png,I,m,224,7,1,1026.7000000029802,520890.09999999404,8101,VNB,A,5
1,prac,2,0.0,2-Back,1.0,m,Wed May 27 2026 15:45:51 GMT-0500 (Central Daylight Time),524299.400000006,139_m_f_d_a.png,I,m,1583,8,1,2378.7000000029802,521920.700000003,8101,VNB,A,6
1,prac,2,0.0,2-Back,0.0,m,Wed May 27 2026 15:45:51 GMT-0500 (Central Daylight Time),526299.799999997,124_o_f_d_a.png,I,z,1170,9,1,1996.7999999970198,524303.0,8101,VNB,A,7
2,prac,2,0.0,2-Back,1.0,m,Wed May 27 2026 15:45:51 GMT-0500 (Central Daylight Time),528681.299999997,165_m_m_h_a.png,I,m,1601,10,1,2377.0999999940395,526304.200000003,8101,VNB,A,8
2,prac,2,1.0,2-Back,0.0,z,Wed May 27 2026 15:45:51 GMT-0500 (Central Daylight Time),531063.599999994,071_y_f_d_a.png,I,m,1570,11,1,2378.0,528685.599999994,8101,VNB,A,9
2,prac,2,0.0,2-Back,0.0,m,Wed May 27 2026 15:45:51 GMT-0500 (Central Daylight Time),533879.400000006,039_o_m_n_a.png,I,None,2018,12,1,2809.4000000059605,531070.0,8101,VNB,A,10
0,test,1,0.0,2-Back,,,Wed May 27 2026 15:45:51 GMT-0500 (Central Daylight Time),533879.400000006,109_y_m_h_a.png,I,space,8407,1,1,2809.4000000059605,531070.0,8101,VNB,A,0
0,test,1,0.0,2-Back,,,Wed May 27 2026 15:45:51 GMT-0500 (Central Daylight Time),533879.400000006,124_o_f_n_a.png,I,space,8407,2,1,2809.4000000059605,531070.0,8101,VNB,A,0
1,test,1,0.0,2-Back,1.0,z,Wed May 27 2026 15:45:51 GMT-0500 (Central Daylight Time),558255.400000006,039_o_m_h_a.png,I,z,1244,3,1,2263.800000011921,555991.599999994,8101,VNB,A,1
1,test,1,0.0,2-Back,0.0,m,Wed May 27 2026 15:45:51 GMT-0500 (Central Daylight Time),561287.700000003,139_m_f_d_a.png,I,None,2016,4,1,3030.0,558257.700000003,8101,VNB,A,2
2,test,1,1.0,2-Back,1.0,m,Wed May 27 2026 15:45:51 GMT-0500 (Central Daylight Time),564220.299999997,109_y_m_n_a.png,I,m,1914,5,1,2928.2999999970198,561292.0,8101,VNB,A,3
2,test,1,0.0,2-Back,0.0,z,Wed May 27 2026 15:45:51 GMT-0500 (Central Daylight Time),567252.400000006,071_y_f_d_a.png,I,None,2015,6,1,3029.300000011921,564223.099999994,8101,VNB,A,4
3,test,1,0.0,2-Back,1.0,m,Wed May 27 2026 15:45:51 GMT-0500 (Central Daylight Time),569801.5,165_m_m_h_a.png,I,m,1524,7,1,2547.0999999940395,567254.400000006,8101,VNB,A,5
4,test,1,1.0,2-Back,1.0,m,Wed May 27 2026 15:45:51 GMT-0500 (Central Daylight Time),572717.200000003,071_y_f_n_a.png,I,m,1896,8,1,2913.1000000089407,569804.099999994,8101,VNB,A,6
4,test,1,0.0,2-Back,0.0,z,Wed May 27 2026 15:45:51 GMT-0500 (Central Daylight Time),575616.599999994,124_o_f_h_a.png,I,m,1868,9,1,2896.699999988079,572719.900000006,8101,VNB,A,7
5,test,1,0.0,2-Back,1.0,m,Wed May 27 2026 15:45:51 GMT-0500 (Central Daylight Time),577965.799999997,039_o_m_d_a.png,I,m,1321,10,1,2346.7000000029802,575619.099999994,8101,VNB,A,8
5,test,1,1.0,2-Back,0.0,m,Wed May 27 2026 15:45:51 GMT-0500 (Central Daylight Time),580498.400000006,165_m_m_d_a.png,I,z,1499,11,1,2530.2000000029802,577968.200000003,8101,VNB,A,9
5,test,1,0.0,2-Back,0.0,m,Wed May 27 2026 15:45:51 GMT-0500 (Central Daylight Time),583530.700000003,139_m_f_n_a.png,I,None,2015,12,1,3029.7000000029802,580501.0,8101,VNB,A,10
6,test,1,0.0,2-Back,1.0,m,Wed May 27 2026 15:45:51 GMT-0500 (Central Daylight Time),585746.5,071_y_f_h_a.png,I,m,1199,13,1,2212.2000000029802,583534.299999997,8101,VNB,A,11
6,test,1,0.0,2-Back,0.0,z,Wed May 27 2026 15:45:51 GMT-0500 (Central Daylight Time),588563.200000003,165_m_m_n_a.png,I,m,1797,14,1,2814.2000000029802,585749.0,8101,VNB,A,12
7,test,1,0.0,2-Back,1.0,m,Wed May 27 2026 15:45:51 GMT-0500 (Central Daylight Time),591461.599999994,109_y_m_d_a.png,I,m,1879,15,1,2896.0,588565.599999994,8101,VNB,A,13
7,test,1,1.0,2-Back,0.0,m,Wed May 27 2026 15:45:51 GMT-0500 (Central Daylight Time),594495.099999994,139_m_f_h_a.png,I,None,2017,16,1,3031.0,591464.099999994,8101,VNB,A,14
7,test,1,0.0,2-Back,0.0,z,Wed May 27 2026 15:45:51 GMT-0500 (Central Daylight Time),597276.299999997,124_o_f_d_a.png,I,m,1763,17,1,2778.5,594497.799999997,8101,VNB,A,15
7,test,1,0.0,2-Back,0.0,m,Wed May 27 2026 15:45:51 GMT-0500 (Central Daylight Time),599592.299999997,039_o_m_n_a.png,I,z,1284,18,1,2313.2999999970198,597279.0,8101,VNB,A,16
0,test,2,0.0,2-Back,,,Wed May 27 2026 15:45:51 GMT-0500 (Central Daylight Time),599592.299999997,165_m_m_h_a.png,I,space,2169,1,1,2313.2999999970198,597279.0,8101,VNB,A,0
0,test,2,0.0,2-Back,,,Wed May 27 2026 15:45:51 GMT-0500 (Central Daylight Time),599592.299999997,071_y_f_n_a.png,I,space,2169,2,1,2313.2999999970198,597279.0,8101,VNB,A,0
1,test,2,1.0,2-Back,1.0,z,Wed May 27 2026 15:45:51 GMT-0500 (Central Daylight Time),609139.299999997,124_o_f_h_a.png,I,z,1265,3,1,2280.0,606859.299999997,8101,VNB,A,1
2,test,2,0.0,2-Back,1.0,m,Wed May 27 2026 15:45:51 GMT-0500 (Central Daylight Time),611788.400000006,039_o_m_d_a.png,I,m,1630,4,1,2646.4000000059605,609142.0,8101,VNB,A,2
3,test,2,0.0,2-Back,1.0,m,Wed May 27 2026 15:45:51 GMT-0500 (Central Daylight Time),614504.400000006,139_m_f_d_a.png,I,m,1693,5,1,2713.5,611790.900000006,8101,VNB,A,3
3,test,2,0.0,2-Back,0.0,m,Wed May 27 2026 15:45:51 GMT-0500 (Central Daylight Time),617236.700000003,109_y_m_h_a.png,I,z,1714,6,1,2729.6000000089407,614507.099999994,8101,VNB,A,4
3,test,2,0.0,2-Back,0.0,m,Wed May 27 2026 15:45:51 GMT-0500 (Central Daylight Time),620269.099999994,124_o_f_n_a.png,I,None,2016,7,1,3030.199999988079,617238.900000006,8101,VNB,A,5
3,test,2,1.0,2-Back,0.0,z,Wed May 27 2026 15:45:51 GMT-0500 (Central Daylight Time),623301.400000006,039_o_m_h_a.png,I,None,2016,8,1,3029.5,620271.900000006,8101,VNB,A,6
4,test,2,0.0,2-Back,1.0,m,Wed May 27 2026 15:45:51 GMT-0500 (Central Daylight Time),625400.900000006,071_y_f_d_a.png,I,m,1068,9,1,2097.2000000029802,623303.700000003,8101,VNB,A,7
5,test,2,0.0,2-Back,1.0,m,Wed May 27 2026 15:45:51 GMT-0500 (Central Daylight Time),628116.700000003,109_y_m_d_a.png,I,m,1696,10,1,2713.2000000029802,625403.5,8101,VNB,A,8
6,test,2,0.0,2-Back,1.0,m,Wed May 27 2026 15:45:51 GMT-0500 (Central Daylight Time),630765.599999994,165_m_m_n_a.png,I,m,1619,11,1,2646.199999988079,628119.400000006,8101,VNB,A,9
7,test,2,0.0,2-Back,1.0,m,Wed May 27 2026 15:45:51 GMT-0500 (Central Daylight Time),633048.599999994,139_m_f_h_a.png,I,m,1259,12,1,2280.5999999940395,630768.0,8101,VNB,A,10
7,test,2,1.0,2-Back,0.0,z,Wed May 27 2026 15:45:51 GMT-0500 (Central Daylight Time),636080.900000006,039_o_m_n_a.png,I,None,2016,13,1,3029.9000000059605,633051.0,8101,VNB,A,11
8,test,2,0.0,2-Back,1.0,m,Wed May 27 2026 15:45:51 GMT-0500 (Central Daylight Time),638396.799999997,124_o_f_d_a.png,I,m,1295,14,1,2313.2999999970198,636083.5,8101,VNB,A,12
8,test,2,0.0,2-Back,0.0,m,Wed May 27 2026 15:45:51 GMT-0500 (Central Daylight Time),640562.799999997,071_y_f_h_a.png,I,z,1140,15,1,2163.3999999910593,638399.400000006,8101,VNB,A,13
8,test,2,0.0,2-Back,0.0,z,Wed May 27 2026 15:45:51 GMT-0500 (Central Daylight Time),643262.099999994,165_m_m_d_a.png,I,m,1671,16,1,2696.699999988079,640565.400000006,8101,VNB,A,14
9,test,2,0.0,2-Back,1.0,m,Wed May 27 2026 15:45:51 GMT-0500 (Central Daylight Time),645461.099999994,109_y_m_n_a.png,I,m,1171,17,1,2196.5999999940395,643264.5,8101,VNB,A,15
10,test,2,1.0,2-Back,1.0,m,Wed May 27 2026 15:45:51 GMT-0500 (Central Daylight Time),647927.099999994,139_m_f_n_a.png,I,m,1444,18,1,2463.5999999940395,645463.5,8101,VNB,A,16
0,test,3,1.0,2-Back,,,Wed May 27 2026 15:45:51 GMT-0500 (Central Daylight Time),647927.099999994,039_o_m_n_a.png,I,space,5394,1,1,2463.5999999940395,645463.5,8101,VNB,A,0
0,test,3,1.0,2-Back,,,Wed May 27 2026 15:45:51 GMT-0500 (Central Daylight Time),647927.099999994,124_o_f_d_a.png,I,space,5394,2,1,2463.5999999940395,645463.5,8101,VNB,A,0
1,test,3,0.0,2-Back,1.0,m,Wed May 27 2026 15:45:51 GMT-0500 (Central Daylight Time),660524.299999997,071_y_f_h_a.png,I,m,1131,3,1,2147.8999999910593,658376.400000006,8101,VNB,A,1
2,test,3,0.0,2-Back,1.0,z,Wed May 27 2026 15:45:51 GMT-0500 (Central Daylight Time),663372.299999997,139_m_f_d_a.png,I,z,1829,4,1,2845.5,660526.799999997,8101,VNB,A,2
3,test,3,1.0,2-Back,1.0,m,Wed May 27 2026 15:45:51 GMT-0500 (Central Daylight Time),666087.799999997,109_y_m_n_a.png,I,m,1692,5,1,2713.0999999940395,663374.700000003,8101,VNB,A,3
3,test,3,0.0,2-Back,0.0,m,Wed May 27 2026 15:45:51 GMT-0500 (Central Daylight Time),669120.700000003,039_o_m_h_a.png,I,None,2016,6,1,3030.2999999970198,666090.400000006,8101,VNB,A,4
3,test,3,0.0,2-Back,0.0,z,Wed May 27 2026 15:45:51 GMT-0500 (Central Daylight Time),671486.400000006,071_y_f_n_a.png,I,m,1345,7,1,2363.1000000089407,669123.299999997,8101,VNB,A,5
3,test,3,1.0,2-Back,0.0,m,Wed May 27 2026 15:45:51 GMT-0500 (Central Daylight Time),674519.200000003,165_m_m_d_a.png,I,None,2016,8,1,3030.1000000089407,671489.099999994,8101,VNB,A,6
4,test,3,0.0,2-Back,1.0,m,Wed May 27 2026 15:45:51 GMT-0500 (Central Daylight Time),676634.799999997,109_y_m_d_a.png,I,m,1091,9,1,2113.0,674521.799999997,8101,VNB,A,7
4,test,3,0.0,2-Back,0.0,m,Wed May 27 2026 15:45:51 GMT-0500 (Central Daylight Time),679667.299999997,124_o_f_h_a.png,I,None,2015,10,1,3030.0,676637.299999997,8101,VNB,A,8
4,test,3,1.0,2-Back,0.0,m,Wed May 27 2026 15:45:51 GMT-0500 (Central Daylight Time),682699.599999994,139_m_f_n_a.png,I,None,2016,11,1,3029.2999999970198,679670.299999997,8101,VNB,A,9
5,test,3,1.0,2-Back,1.0,z,Wed May 27 2026 15:45:51 GMT-0500 (Central Daylight Time),685015.599999994,165_m_m_h_a.png,I,z,1286,12,1,2313.5999999940395,682702.0,8101,VNB,A,10
6,test,3,0.0,2-Back,1.0,m,Wed May 27 2026 15:45:51 GMT-0500 (Central Daylight Time),687581.599999994,071_y_f_d_a.png,I,m,1538,13,1,2563.5999999940395,685018.0,8101,VNB,A,11
6,test,3,0.0,2-Back,0.0,m,Wed May 27 2026 15:45:51 GMT-0500 (Central Daylight Time),690613.599999994,124_o_f_n_a.png,I,None,2013,14,1,3029.0999999940395,687584.5,8101,VNB,A,12
6,test,3,0.0,2-Back,0.0,z,Wed May 27 2026 15:45:51 GMT-0500 (Central Daylight Time),693079.799999997,039_o_m_d_a.png,I,m,1435,15,1,2461.7999999970198,690618.0,8101,VNB,A,13
6,test,3,1.0,2-Back,0.0,m,Wed May 27 2026 15:45:51 GMT-0500 (Central Daylight Time),696113.0,139_m_f_h_a.png,I,None,2017,16,1,3030.7999999970198,693082.200000003,8101,VNB,A,14
6,test,3,0.0,2-Back,0.0,m,Wed May 27 2026 15:45:51 GMT-0500 (Central Daylight Time),699144.700000003,165_m_m_n_a.png,I,None,2017,17,1,3028.9000000059605,696115.799999997,8101,VNB,A,15
7,test,3,0.0,2-Back,1.0,z,Wed May 27 2026 15:45:51 GMT-0500 (Central Daylight Time),701811.299999997,109_y_m_h_a.png,I,z,1649,18,1,2664.0999999940395,699147.200000003,8101,VNB,A,16
0,test,4,0.0,2-Back,,,Wed May 27 2026 15:45:51 GMT-0500 (Central Daylight Time),701811.299999997,139_m_f_n_a.png,I,space,1989,1,1,2664.0999999940395,699147.200000003,8101,VNB,A,0
0,test,4,0.0,2-Back,,,Wed May 27 2026 15:45:51 GMT-0500 (Central Daylight Time),701811.299999997,039_o_m_n_a.png,I,space,1989,2,1,2664.0999999940395,699147.200000003,8101,VNB,A,0
0,test,4,1.0,2-Back,0.0,m,Wed May 27 2026 15:45:51 GMT-0500 (Central Daylight Time),711921.599999994,109_y_m_h_a.png,I,None,2031,3,1,3044.2999999970198,708877.299999997,8101,VNB,A,1
0,test,4,1.0,2-Back,0.0,m,Wed May 27 2026 15:45:51 GMT-0500 (Central Daylight Time),714889.400000006,124_o_f_d_a.png,I,z,1934,4,1,2964.5,711924.900000006,8101,VNB,A,2
1,test,4,0.0,2-Back,1.0,z,Wed May 27 2026 15:45:51 GMT-0500 (Central Daylight Time),717838.700000003,039_o_m_h_a.png,I,z,1920,5,1,2946.7000000029802,714892.0,8101,VNB,A,3
1,test,4,0.0,2-Back,0.0,m,Wed May 27 2026 15:45:51 GMT-0500 (Central Daylight Time),720871.099999994,165_m_m_n_a.png,I,None,2016,6,1,3029.8999999910593,717841.200000003,8101,VNB,A,4
1,test,4,0.0,2-Back,0.0,m,Wed May 27 2026 15:45:51 GMT-0500 (Central Daylight Time),723903.200000003,139_m_f_d_a.png,I,None,2015,7,1,3029.7000000029802,720873.5,8101,VNB,A,5
1,test,4,0.0,2-Back,0.0,z,Wed May 27 2026 15:45:51 GMT-0500 (Central Daylight Time),726935.799999997,071_y_f_n_a.png,I,None,2016,8,1,3029.0,723906.799999997,8101,VNB,A,6
2,test,4,1.0,2-Back,1.0,m,Wed May 27 2026 15:45:51 GMT-0500 (Central Daylight Time),728018.799999997,124_o_f_h_a.png,I,m,67,9,1,1080.2999999970198,726938.5,8101,VNB,A,7
2,test,4,0.0,2-Back,0.0,m,Wed May 27 2026 15:45:51 GMT-0500 (Central Daylight Time),731051.200000003,165_m_m_h_a.png,I,None,2015,10,1,3030.2000000029802,728021.0,8101,VNB,A,8
2,test,4,0.0,2-Back,0.0,m,Wed May 27 2026 15:45:51 GMT-0500 (Central Daylight Time),733983.400000006,071_y_f_d_a.png,I,z,1901,11,1,2929.800000011921,731053.599999994,8101,VNB,A,9
3,test,4,0.0,2-Back,1.0,m,Wed May 27 2026 15:45:51 GMT-0500 (Central Daylight Time),736483.700000003,109_y_m_n_a.png,I,m,1482,12,1,2497.7000000029802,733986.0,8101,VNB,A,10
3,test,4,0.0,2-Back,0.0,z,Wed May 27 2026 15:45:51 GMT-0500 (Central Daylight Time),738632.099999994,039_o_m_d_a.png,I,m,1118,13,1,2145.5,736486.599999994,8101,VNB,A,11
4,test,4,1.0,2-Back,1.0,m,Wed May 27 2026 15:45:51 GMT-0500 (Central Daylight Time),740831.5,139_m_f_h_a.png,I,m,1177,14,1,2196.7000000029802,738634.799999997,8101,VNB,A,12
5,test,4,1.0,2-Back,1.0,m,Wed May 27 2026 15:45:51 GMT-0500 (Central Daylight Time),743114.0,071_y_f_h_a.png,I,m,1250,15,1,2279.5999999940395,740834.400000006,8101,VNB,A,13
6,test,4,0.0,2-Back,1.0,m,Wed May 27 2026 15:45:51 GMT-0500 (Central Daylight Time),745613.099999994,124_o_f_n_a.png,I,m,1471,16,1,2496.699999988079,743116.400000006,8101,VNB,A,14
7,test,4,0.0,2-Back,1.0,m,Wed May 27 2026 15:45:51 GMT-0500 (Central Daylight Time),748129.200000003,109_y_m_d_a.png,I,m,1483,17,1,2513.2999999970198,745615.900000006,8101,VNB,A,15
8,test,4,1.0,2-Back,1.0,m,Wed May 27 2026 15:45:51 GMT-0500 (Central Daylight Time),750529.299999997,165_m_m_d_a.png,I,m,1376,18,1,2397.5,748131.799999997,8101,VNB,A,16
0,test,5,1.0,2-Back,,,Wed May 27 2026 15:45:51 GMT-0500 (Central Daylight Time),750529.299999997,071_y_f_d_a.png,I,space,1536,1,1,2397.5,748131.799999997,8101,VNB,A,0
0,test,5,1.0,2-Back,,,Wed May 27 2026 15:45:51 GMT-0500 (Central Daylight Time),750529.299999997,124_o_f_h_a.png,I,space,1536,2,1,2397.5,748131.799999997,8101,VNB,A,0
0,test,5,1.0,2-Back,0.0,z,Wed May 27 2026 15:45:51 GMT-0500 (Central Daylight Time),760192.099999994,039_o_m_d_a.png,I,None,2016,3,1,3029.8999999910593,757162.200000003,8101,VNB,A,1
0,test,5,1.0,2-Back,0.0,m,Wed May 27 2026 15:45:51 GMT-0500 (Central Daylight Time),763224.599999994,139_m_f_n_a.png,I,None,2016,4,1,3029.8999999910593,760194.700000003,8101,VNB,A,2
0,test,5,0.0,2-Back,0.0,m,Wed May 27 2026 15:45:51 GMT-0500 (Central Daylight Time),766257.0,165_m_m_h_a.png,I,None,2016,5,1,3030.0,763227.0,8101,VNB,A,3
0,test,5,0.0,2-Back,0.0,z,Wed May 27 2026 15:45:51 GMT-0500 (Central Daylight Time),768872.599999994,071_y_f_n_a.png,I,m,1592,6,1,2613.0,766259.599999994,8101,VNB,A,4
1,test,5,0.0,2-Back,1.0,m,Wed May 27 2026 15:45:51 GMT-0500 (Central Daylight Time),771638.400000006,124_o_f_d_a.png,I,m,1737,7,1,2763.4000000059605,768875.0,8101,VNB,A,5
2,test,5,0.0,2-Back,1.0,m,Wed May 27 2026 15:45:51 GMT-0500 (Central Daylight Time),773988.0,039_o_m_h_a.png,I,m,1323,8,1,2347.0,771641.0,8101,VNB,A,6
2,test,5,1.0,2-Back,0.0,z,Wed May 27 2026 15:45:51 GMT-0500 (Central Daylight Time),776270.200000003,139_m_f_d_a.png,I,m,1253,9,1,2279.1000000089407,773991.099999994,8101,VNB,A,7
3,test,5,0.0,2-Back,1.0,m,Wed May 27 2026 15:45:51 GMT-0500 (Central Daylight Time),778369.900000006,109_y_m_n_a.png,I,m,1066,10,1,2097.300000011921,776272.599999994,8101,VNB,A,8
4,test,5,0.0,2-Back,1.0,m,Wed May 27 2026 15:45:51 GMT-0500 (Central Daylight Time),780852.200000003,165_m_m_n_a.png,I,m,1464,11,1,2479.6000000089407,778372.599999994,8101,VNB,A,9
5,test,5,0.0,2-Back,1.0,m,Wed May 27 2026 15:45:51 GMT-0500 (Central Daylight Time),783101.299999997,071_y_f_h_a.png,I,m,1229,12,1,2246.0999999940395,780855.200000003,8101,VNB,A,10
6,test,5,0.0,2-Back,1.0,m,Wed May 27 2026 15:45:51 GMT-0500 (Central Daylight Time),785284.0,109_y_m_d_a.png,I,m,1164,13,1,2180.2000000029802,783103.799999997,8101,VNB,A,11
6,test,5,1.0,2-Back,0.0,z,Wed May 27 2026 15:45:51 GMT-0500 (Central Daylight Time),788316.5,139_m_f_h_a.png,I,None,2015,14,1,3030.0,785286.5,8101,VNB,A,12
6,test,5,0.0,2-Back,0.0,m,Wed May 27 2026 15:45:51 GMT-0500 (Central Daylight Time),791348.799999997,039_o_m_n_a.png,I,None,2016,15,1,3030.0,788318.799999997,8101,VNB,A,13
6,test,5,0.0,2-Back,0.0,m,Wed May 27 2026 15:45:51 GMT-0500 (Central Daylight Time),794381.200000003,165_m_m_d_a.png,I,None,2015,16,1,3029.9000000059605,791351.299999997,8101,VNB,A,14
6,test,5,0.0,2-Back,0.0,z,Wed May 27 2026 15:45:51 GMT-0500 (Central Daylight Time),795931.099999994,124_o_f_n_a.png,I,m,524,17,1,1543.7999999970198,794387.299999997,8101,VNB,A,15
7,test,5,1.0,2-Back,1.0,m,Wed May 27 2026 15:45:51 GMT-0500 (Central Daylight Time),797863.599999994,109_y_m_h_a.png,I,m,910,18,1,1930.0999999940395,795933.5,8101,VNB,A,16
