acc_sum,block,block_c,condition,correct,correct_response,datetime,endtime,flanker,jitter,project,response,response_test_buffer_response,response_test_target_response,response_time,response_time_test_buffer_response,response_time_test_target_response,row_sel,session_number,start_end,starttime,subject_id,target,task,task_vers,time_test_buffer,time_test_buffer_response,time_test_constants,time_test_flanker,time_test_jitter,time_test_logger,time_test_target,time_test_target_response,time_test_variables,trial
1,prac,1,inc,1,z,Mon Mar 30 2026 09:00:53 GMT-0400 (Eastern Daylight Time),212236.39999997616,copper,900,I,z,,,908,,,2,1,3107.7999999523163,209128.60000002384,9071,cherry,NF,C,,,,,,,,,,1
2,prac,1,con,1,z,Mon Mar 30 2026 09:00:53 GMT-0400 (Eastern Daylight Time),215269.5,orange,1000,I,z,,,730,,,3,1,3022.8000000715256,212246.69999992847,9071,orange,NF,C,,,,,,,,,,2
3,prac,1,inc,1,m,Mon Mar 30 2026 09:00:53 GMT-0400 (Eastern Daylight Time),218069.29999995232,cherry,900,I,m,,,598,,,10,1,2788.399999976158,215280.89999997616,9071,copper,NF,C,,,,,,,,,,3
4,prac,1,inc,1,m,Mon Mar 30 2026 09:00:53 GMT-0400 (Eastern Daylight Time),221186.0,raisin,1100,I,m,,,702,,,12,1,3108.5,218077.5,9071,cobalt,NF,C,,,,,,,,,,4
5,prac,1,con,1,m,Mon Mar 30 2026 09:00:53 GMT-0400 (Eastern Daylight Time),224269.5,zinc,1000,I,m,,,773,,,15,1,3074.100000023842,221195.39999997616,9071,zinc,NF,C,,,,,,,,,,5
6,prac,1,inc,1,z,Mon Mar 30 2026 09:00:53 GMT-0400 (Eastern Daylight Time),227236.10000002384,lead,1100,I,z,,,551,,,8,1,2956.0,224280.10000002384,9071,plum,NF,C,,,,,,,,,,6
7,prac,1,inc,1,m,Mon Mar 30 2026 09:00:53 GMT-0400 (Eastern Daylight Time),230536.10000002384,plum,1100,I,m,,,895,,,16,1,3291.4000000953674,227244.69999992847,9071,lead,NF,C,,,,,,,,,,7
8,prac,1,con,1,m,Mon Mar 30 2026 09:00:53 GMT-0400 (Eastern Daylight Time),233386.0,gold,800,I,m,,,743,,,13,1,2841.3000000715256,230544.69999992847,9071,gold,NF,C,,,,,,,,,,8
9,prac,1,inc,1,z,Mon Mar 30 2026 09:00:53 GMT-0400 (Eastern Daylight Time),236119.29999995232,iron,900,I,z,,,529,,,6,1,2724.6999999284744,233394.60000002384,9071,pear,NF,C,,,,,,,,,,9
10,prac,1,con,1,z,Mon Mar 30 2026 09:00:53 GMT-0400 (Eastern Daylight Time),238886.0,banana,800,I,z,,,664,,,1,1,2756.0,236130.0,9071,banana,NF,C,,,,,,,,,,10
11,prac,1,con,1,m,Mon Mar 30 2026 09:00:53 GMT-0400 (Eastern Daylight Time),241719.39999997616,bronze,800,I,m,,,729,,,9,1,2823.100000023842,238896.29999995232,9071,bronze,NF,C,,,,,,,,,,11
12,prac,1,inc,1,z,Mon Mar 30 2026 09:00:53 GMT-0400 (Eastern Daylight Time),245069.29999995232,cobalt,1100,I,z,,,941,,,4,1,3341.6999999284744,241727.60000002384,9071,raisin,NF,C,,,,,,,,,,12
13,prac,1,con,1,z,Mon Mar 30 2026 09:00:53 GMT-0400 (Eastern Daylight Time),247886.0,lime,800,I,z,,,707,,,5,1,2808.100000023842,245077.89999997616,9071,lime,NF,C,,,,,,,,,,13
14,prac,1,inc,1,m,Mon Mar 30 2026 09:00:53 GMT-0400 (Eastern Daylight Time),250935.89999997616,pear,900,I,m,,,844,,,14,1,3038.7000000476837,247897.19999992847,9071,iron,NF,C,,,,,,,,,,14
15,prac,1,con,1,z,Mon Mar 30 2026 09:00:53 GMT-0400 (Eastern Daylight Time),254052.60000002384,kiwi,1000,I,z,,,815,,,7,1,3108.3000000715256,250944.29999995232,9071,kiwi,NF,C,,,,,,,,,,15
16,prac,1,con,1,m,Mon Mar 30 2026 09:00:53 GMT-0400 (Eastern Daylight Time),257185.89999997616,silver,1000,I,m,,,819,,,11,1,3124.0,254061.89999997616,9071,silver,NF,C,,,,,,,,,,16
1,test,1,con,1,m,Mon Mar 30 2026 09:00:53 GMT-0400 (Eastern Daylight Time),284985.89999997616,zinc,1100,I,m,m,None,710,511.0,199.0,116,1,2341.5,282644.39999997616,9071,zinc,NF,C,281135,281135,279309,280418,279310,281651,280935,280935,281651,1
2,test,1,inc,1,m,Mon Mar 30 2026 09:00:53 GMT-0400 (Eastern Daylight Time),287469.1999999285,raisin,1100,I,m,m,None,841,642.0,199.0,96,1,2473.7999999523163,284995.39999997616,9071,cobalt,NF,C,283485,283485,281660,282768,281661,284134,283285,283285,284134,2
3,test,1,inc,1,m,Mon Mar 30 2026 09:00:53 GMT-0400 (Eastern Daylight Time),289703.5,cherry,900,I,m,m,None,798,599.0,199.0,86,1,2223.399999976158,287480.10000002384,9071,silver,NF,C,285768,285768,284145,285051,284145,286369,285568,285568,286368,3
4,test,1,inc,1,m,Mon Mar 30 2026 09:00:53 GMT-0400 (Eastern Daylight Time),291969.10000002384,raisin,1100,I,m,m,None,620,420.0,200.0,72,1,2257.0,289712.10000002384,9071,bronze,NF,C,288202,288202,286377,287485,286378,288634,288001,288001,288634,4
5,test,1,inc,1,z,Mon Mar 30 2026 09:00:53 GMT-0400 (Eastern Daylight Time),294120.10000002384,iron,900,I,z,z,None,714,515.0,199.0,54,1,2141.4000000953674,291978.6999999285,9071,kiwi,NF,C,290268,290268,288644,289551,288644,290785,290068,290068,290785,5
6,test,1,inc,1,m,Mon Mar 30 2026 09:00:53 GMT-0400 (Eastern Daylight Time),296119.0,banana,800,I,m,m,None,664,465.0,199.0,77,1,1989.7000000476837,294129.2999999523,9071,copper,NF,C,292318,292318,290794,291601,290795,292784,292118,292118,292784,6
7,test,1,con,1,m,Mon Mar 30 2026 09:00:53 GMT-0400 (Eastern Daylight Time),298269.10000002384,gold,900,I,m,m,None,707,508.0,199.0,98,1,2141.600000023842,296127.5,9071,gold,NF,C,294418,294418,292793,293701,292793,294934,294218,294218,294934,7
8,test,1,inc,1,m,Mon Mar 30 2026 09:00:53 GMT-0400 (Eastern Daylight Time),300502.10000002384,orange,1000,I,m,m,None,697,498.0,199.0,79,1,2224.3000000715256,298277.7999999523,9071,copper,NF,C,296668,296668,294943,295951,294943,297167,296468,296468,297167,8
9,test,1,inc,1,z,Mon Mar 30 2026 09:00:53 GMT-0400 (Eastern Daylight Time),302735.89999997616,zinc,1000,I,z,z,None,688,488.0,200.0,55,1,2224.5,300511.39999997616,9071,kiwi,NF,C,298902,298902,297176,298184,297177,299401,298701,298701,299401,9
10,test,1,con,1,z,Mon Mar 30 2026 09:00:53 GMT-0400 (Eastern Daylight Time),304719.1999999285,plum,800,I,z,z,None,640,440.0,200.0,57,1,1973.6999999284744,302745.5,9071,plum,NF,C,300935,300935,299411,300218,299411,301384,300734,300734,301384,10
11,test,1,con,1,z,Mon Mar 30 2026 09:00:53 GMT-0400 (Eastern Daylight Time),306886.0,lime,800,I,z,z,None,832,633.0,199.0,33,1,2157.7000000476837,304728.2999999523,9071,lime,NF,C,302918,302918,301393,302201,301394,303551,302718,302718,303551,11
12,test,1,con,1,z,Mon Mar 30 2026 09:00:53 GMT-0400 (Eastern Daylight Time),309202.39999997616,cherry,1100,I,z,z,None,668,469.0,199.0,12,1,2305.2999999523163,306897.10000002384,9071,cherry,NF,C,305385,305385,303562,304668,303562,305867,305185,305185,305867,12
13,test,1,con,1,m,Mon Mar 30 2026 09:00:53 GMT-0400 (Eastern Daylight Time),311435.7999999523,gold,800,I,m,m,None,876,677.0,199.0,97,1,2216.6999999284744,309219.10000002384,9071,gold,NF,C,307418,307418,305884,306702,305885,308101,307218,307218,308101,13
14,test,1,con,1,m,Mon Mar 30 2026 09:00:53 GMT-0400 (Eastern Daylight Time),313619.1999999285,gold,1000,I,m,m,None,634,435.0,199.0,99,1,2173.399999976158,311445.7999999523,9071,gold,NF,C,309835,309835,308111,309118,308111,310284,309635,309635,310284,14
15,test,1,inc,1,z,Mon Mar 30 2026 09:00:53 GMT-0400 (Eastern Daylight Time),315902.5,lead,1100,I,z,z,None,640,441.0,199.0,64,1,2271.600000023842,313630.89999997616,9071,plum,NF,C,312118,312118,310296,311401,310296,312568,311918,311918,312567,15
16,test,1,inc,1,m,Mon Mar 30 2026 09:00:53 GMT-0400 (Eastern Daylight Time),318019.10000002384,cherry,900,I,m,m,None,670,470.0,200.0,70,1,2104.9000000953674,315914.1999999285,9071,bronze,NF,C,314201,314201,312579,313485,312580,314684,314001,314001,314684,16
17,test,1,inc,1,m,Mon Mar 30 2026 09:00:53 GMT-0400 (Eastern Daylight Time),320319.10000002384,plum,1100,I,m,m,None,656,457.0,199.0,112,1,2288.7000000476837,318030.39999997616,9071,iron,NF,C,316518,316518,314695,315801,314696,316984,316318,316318,316984,17
18,test,1,inc,1,z,Mon Mar 30 2026 09:00:53 GMT-0400 (Eastern Daylight Time),322568.89999997616,lead,1100,I,z,z,None,611,412.0,199.0,48,1,2240.5,320328.39999997616,9071,pear,NF,C,318818,318818,316993,318101,316994,319234,318618,318618,319234,18
19,test,1,inc,1,m,Mon Mar 30 2026 09:00:53 GMT-0400 (Eastern Daylight Time),324552.1999999285,lime,800,I,m,m,None,646,447.0,199.0,125,1,1974.5999999046326,322577.60000002384,9071,lead,NF,C,320768,320768,319243,320051,319243,321217,320568,320568,321217,19
20,test,1,con,1,m,Mon Mar 30 2026 09:00:53 GMT-0400 (Eastern Daylight Time),326502.39999997616,cobalt,800,I,m,m,None,600,400.0,200.0,89,1,1938.6000000238419,324563.7999999523,9071,cobalt,NF,C,322751,322751,321229,322034,321229,323168,322551,322551,323167,20
21,test,1,inc,1,m,Mon Mar 30 2026 09:00:53 GMT-0400 (Eastern Daylight Time),328635.6999999285,orange,1000,I,m,m,None,594,394.0,200.0,95,1,2124.399999976158,326511.2999999523,9071,cobalt,NF,C,324901,324901,323176,324184,323177,325301,324701,324701,325301,21
22,test,1,inc,1,m,Mon Mar 30 2026 09:00:53 GMT-0400 (Eastern Daylight Time),330769.10000002384,kiwi,1000,I,m,m,None,587,388.0,199.0,103,1,2124.3000000715256,328644.7999999523,9071,gold,NF,C,327035,327035,325310,326318,325310,327434,326834,326835,327434,22
23,test,1,inc,1,z,Mon Mar 30 2026 09:00:53 GMT-0400 (Eastern Daylight Time),332652.39999997616,bronze,800,I,z,z,None,542,343.0,199.0,13,1,1873.1000000238419,330779.2999999523,9071,cherry,NF,C,328968,328968,327444,328251,327445,329318,328768,328768,329317,23
24,test,1,inc,1,z,Mon Mar 30 2026 09:00:53 GMT-0400 (Eastern Daylight Time),334769.0,iron,900,I,z,z,None,672,472.0,200.0,62,1,2105.2000000476837,332663.7999999523,9071,plum,NF,C,330951,330951,329329,330235,329329,331434,330751,330751,331434,24
25,test,1,inc,1,z,Mon Mar 30 2026 09:00:53 GMT-0400 (Eastern Daylight Time),336802.39999997616,iron,900,I,z,z,None,586,387.0,199.0,46,1,2024.0,334778.39999997616,9071,pear,NF,C,333068,333068,331443,332351,331444,333468,332868,332868,333467,25
26,test,1,con,1,z,Mon Mar 30 2026 09:00:53 GMT-0400 (Eastern Daylight Time),338918.7999999523,cherry,1000,I,z,z,None,580,380.0,200.0,11,1,2105.2999999523163,336813.5,9071,cherry,NF,C,335201,335202,333479,334485,333479,335584,335001,335001,335584,26
27,test,1,inc,1,z,Mon Mar 30 2026 09:00:53 GMT-0400 (Eastern Daylight Time),341135.7999999523,cobalt,1100,I,z,z,None,572,373.0,199.0,24,1,2207.2999999523163,338928.5,9071,orange,NF,C,337418,337418,335594,336701,335594,337801,337218,337218,337801,27
28,test,1,inc,1,m,Mon Mar 30 2026 09:00:53 GMT-0400 (Eastern Daylight Time),343235.7999999523,pear,900,I,m,m,None,651,451.0,200.0,110,1,2091.600000023842,341144.1999999285,9071,iron,NF,C,339435,339435,337809,338718,337810,339901,339234,339234,339901,28
29,test,1,con,1,z,Mon Mar 30 2026 09:00:53 GMT-0400 (Eastern Daylight Time),345235.6999999285,cherry,800,I,z,z,None,650,451.0,199.0,9,1,1989.5,343246.1999999285,9071,cherry,NF,C,341435,341435,339911,340718,339912,341901,341234,341235,341901,29
30,test,1,con,1,z,Mon Mar 30 2026 09:00:53 GMT-0400 (Eastern Daylight Time),347285.6999999285,kiwi,800,I,z,z,None,699,500.0,199.0,49,1,2038.6999999284744,345247.0,9071,kiwi,NF,C,343435,343435,341912,342718,341912,343951,343235,343235,343951,30
31,test,1,inc,1,m,Mon Mar 30 2026 09:00:53 GMT-0400 (Eastern Daylight Time),349352.1999999285,cherry,900,I,m,m,None,629,429.0,200.0,94,1,2055.0999999046326,347297.10000002384,9071,cobalt,NF,C,345585,345585,343962,344868,343962,346017,345384,345384,346017,31
32,test,1,con,1,m,Mon Mar 30 2026 09:00:53 GMT-0400 (Eastern Daylight Time),351685.60000002384,bronze,1100,I,m,m,None,684,484.0,200.0,68,1,2322.600000023842,349363.0,9071,bronze,NF,C,347851,347851,346028,347134,346028,348351,347651,347651,348351,32
33,test,1,con,1,m,Mon Mar 30 2026 09:00:53 GMT-0400 (Eastern Daylight Time),353669.0,silver,800,I,m,m,None,632,433.0,199.0,81,1,1972.5,351696.5,9071,silver,NF,C,349885,349885,348362,349168,348362,350334,349685,349685,350334,33
34,test,1,inc,1,m,Mon Mar 30 2026 09:00:53 GMT-0400 (Eastern Daylight Time),355869.0,kiwi,1000,I,m,m,None,657,458.0,199.0,111,1,2191.0,353678.0,9071,iron,NF,C,352068,352068,350343,351351,350344,352534,351868,351868,352534,34
35,test,1,inc,1,m,Mon Mar 30 2026 09:00:53 GMT-0400 (Eastern Daylight Time),358235.6999999285,orange,1000,I,m,m,None,826,627.0,199.0,87,1,2355.5,355880.1999999285,9071,silver,NF,C,354268,354268,352545,353551,352546,354901,354068,354068,354901,35
36,test,1,con,1,z,Mon Mar 30 2026 09:00:53 GMT-0400 (Eastern Daylight Time),360335.6999999285,orange,800,I,z,z,None,754,555.0,199.0,17,1,2086.1999999284744,358249.5,9071,orange,NF,C,356434,356435,354915,355718,354915,357001,356235,356235,357001,36
37,test,1,inc,1,z,Mon Mar 30 2026 09:00:53 GMT-0400 (Eastern Daylight Time),362568.89999997616,cobalt,1100,I,z,z,None,595,395.0,200.0,16,1,2223.899999976158,360345.0,9071,cherry,NF,C,358835,358835,357010,358118,357010,359234,358634,358634,359234,37
38,test,1,con,1,z,Mon Mar 30 2026 09:00:53 GMT-0400 (Eastern Daylight Time),365135.6999999285,raisin,1100,I,z,z,None,921,722.0,199.0,28,1,2557.899999976158,362577.7999999523,9071,raisin,NF,C,361068,361068,359243,360351,359243,361801,360868,360868,361801,38
39,test,1,con,1,z,Mon Mar 30 2026 09:00:53 GMT-0400 (Eastern Daylight Time),367219.10000002384,banana,900,I,z,z,None,635,436.0,199.0,2,1,2074.600000023842,365144.5,9071,banana,NF,C,363435,363435,361810,362718,361810,363884,363235,363235,363884,39
40,test,1,inc,1,m,Mon Mar 30 2026 09:00:53 GMT-0400 (Eastern Daylight Time),369585.60000002384,plum,1100,I,m,m,None,720,521.0,199.0,104,1,2357.3000000715256,367228.2999999523,9071,gold,NF,C,365718,365718,363893,365001,363894,366251,365518,365518,366251,40
41,test,1,inc,1,z,Mon Mar 30 2026 09:00:53 GMT-0400 (Eastern Daylight Time),371669.10000002384,copper,900,I,z,z,None,633,433.0,200.0,22,1,2073.100000023842,369596.0,9071,orange,NF,C,367885,367885,366261,367168,366261,368334,367684,367684,368334,41
42,test,1,con,1,z,Mon Mar 30 2026 09:00:53 GMT-0400 (Eastern Daylight Time),373735.39999997616,plum,900,I,z,z,None,629,430.0,199.0,58,1,2056.0,371679.39999997616,9071,plum,NF,C,369968,369968,368344,369251,368345,370401,369768,369768,370400,42
43,test,1,inc,1,m,Mon Mar 30 2026 09:00:53 GMT-0400 (Eastern Daylight Time),375819.0,pear,900,I,m,m,None,642,443.0,199.0,118,1,2074.3000000715256,373744.6999999285,9071,zinc,NF,C,372034,372035,370410,371318,370410,372484,371834,371835,372484,43
44,test,1,con,1,m,Mon Mar 30 2026 09:00:53 GMT-0400 (Eastern Daylight Time),377768.89999997616,zinc,800,I,m,m,None,611,412.0,199.0,113,1,1941.2999999523163,375827.60000002384,9071,zinc,NF,C,374018,374018,372493,373301,372493,374434,373818,373818,374434,44
45,test,1,inc,1,z,Mon Mar 30 2026 09:00:53 GMT-0400 (Eastern Daylight Time),379785.6999999285,gold,800,I,z,z,None,678,479.0,199.0,37,1,2005.6999999284744,377780.0,9071,lime,NF,C,375968,375968,374445,375251,374445,376451,375768,375768,376451,45
46,test,1,con,1,z,Mon Mar 30 2026 09:00:53 GMT-0400 (Eastern Daylight Time),382452.2999999523,kiwi,1100,I,z,z,None,1017,817.0,200.0,52,1,2657.399999976158,379794.89999997616,9071,kiwi,NF,C,378285,378285,376460,377568,376460,379117,378084,378084,379117,46
47,test,1,inc,1,z,Mon Mar 30 2026 09:00:53 GMT-0400 (Eastern Daylight Time),384435.6999999285,bronze,800,I,z,z,None,635,435.0,200.0,21,1,1972.8999999761581,382462.7999999523,9071,orange,NF,C,380651,380651,379128,379935,379128,381101,380451,380451,381101,47
48,test,1,con,1,z,Mon Mar 30 2026 09:00:53 GMT-0400 (Eastern Daylight Time),386752.2999999523,lime,1000,I,z,z,None,771,572.0,199.0,35,1,2307.5,384444.7999999523,9071,lime,NF,C,382834,382835,381110,382118,381110,383417,382635,382635,383417,48
49,test,1,inc,1,m,Mon Mar 30 2026 09:00:53 GMT-0400 (Eastern Daylight Time),388886.0,pear,900,I,m,m,None,700,500.0,200.0,102,1,2123.399999976158,386762.60000002384,9071,gold,NF,C,385051,385051,383428,384334,383428,385551,384851,384851,385551,49
50,test,1,con,1,m,Mon Mar 30 2026 09:00:53 GMT-0400 (Eastern Daylight Time),390952.1999999285,bronze,800,I,m,m,None,730,530.0,200.0,65,1,2059.2999999523163,388892.89999997616,9071,bronze,NF,C,387085,387085,385558,386368,385558,387617,386884,386884,387617,50
51,test,1,con,1,m,Mon Mar 30 2026 09:00:53 GMT-0400 (Eastern Daylight Time),393135.6999999285,zinc,1000,I,m,m,None,639,439.0,200.0,115,1,2174.7999999523163,390960.89999997616,9071,zinc,NF,C,389351,389351,387626,388634,387626,389801,389151,389151,389801,51
52,test,1,con,1,m,Mon Mar 30 2026 09:00:53 GMT-0400 (Eastern Daylight Time),395286.10000002384,bronze,1000,I,m,m,None,616,416.0,200.0,67,1,2141.600000023842,393144.5,9071,bronze,NF,C,391535,391535,389810,390818,389810,391951,391334,391334,391951,52
53,test,1,con,1,m,Mon Mar 30 2026 09:00:53 GMT-0400 (Eastern Daylight Time),397285.0,bronze,900,I,m,m,None,565,365.0,200.0,66,1,1991.3999999761581,395293.60000002384,9071,bronze,NF,C,393585,393585,391959,392868,391959,393950,393384,393384,393950,53
54,test,1,con,1,z,Mon Mar 30 2026 09:00:53 GMT-0400 (Eastern Daylight Time),399286.10000002384,raisin,800,I,z,z,None,666,466.0,200.0,25,1,1996.8000000715256,397289.2999999523,9071,raisin,NF,C,395485,395485,393954,394768,393955,395951,395284,395284,395951,54
55,test,1,con,1,z,Mon Mar 30 2026 09:00:53 GMT-0400 (Eastern Daylight Time),401452.10000002384,kiwi,900,I,z,z,None,726,526.0,200.0,50,1,2156.9000000953674,399295.1999999285,9071,kiwi,NF,C,397584,397585,395960,396868,395961,398117,397384,397384,398117,55
56,test,1,inc,1,m,Mon Mar 30 2026 09:00:53 GMT-0400 (Eastern Daylight Time),403485.60000002384,lime,800,I,m,m,None,691,491.0,200.0,109,1,2024.5,401461.10000002384,9071,iron,NF,C,399651,399651,398126,398934,398126,400151,399451,399451,400151,56
57,test,1,con,1,z,Mon Mar 30 2026 09:00:53 GMT-0400 (Eastern Daylight Time),405502.2999999523,pear,800,I,z,z,None,673,473.0,200.0,41,1,2004.8999999761581,403497.39999997616,9071,pear,NF,C,401685,401685,400162,400968,400163,402167,401484,401484,402167,57
58,test,1,con,1,m,Mon Mar 30 2026 09:00:53 GMT-0400 (Eastern Daylight Time),407702.0,iron,1000,I,m,m,None,665,465.0,200.0,107,1,2190.399999976158,405511.60000002384,9071,iron,NF,C,403901,403901,402177,403184,402177,404367,403701,403701,404367,58
59,test,1,inc,1,z,Mon Mar 30 2026 09:00:53 GMT-0400 (Eastern Daylight Time),410035.6999999285,cobalt,1100,I,z,z,None,685,485.0,200.0,8,1,2323.899999976158,407711.7999999523,9071,banana,NF,C,406201,406201,404377,405484,404377,406701,406001,406001,406701,59
60,test,1,inc,1,z,Mon Mar 30 2026 09:00:53 GMT-0400 (Eastern Daylight Time),412135.39999997616,gold,800,I,z,z,None,764,564.0,200.0,61,1,2090.7999999523163,410044.60000002384,9071,plum,NF,C,408234,408235,406710,407518,406710,408801,408034,408034,408800,60
61,test,1,con,1,m,Mon Mar 30 2026 09:00:53 GMT-0400 (Eastern Daylight Time),414285.60000002384,copper,900,I,m,m,None,707,507.0,200.0,74,1,2141.5,412144.10000002384,9071,copper,NF,C,410434,410435,408809,409718,408809,410951,410234,410234,410951,61
62,test,1,inc,1,m,Mon Mar 30 2026 09:00:53 GMT-0400 (Eastern Daylight Time),416568.89999997616,pear,900,I,m,m,None,845,645.0,200.0,126,1,2272.2999999523163,414296.60000002384,9071,lead,NF,C,412585,412585,410962,411868,410962,413234,412384,412384,413234,62
62,test,1,inc,0,m,Mon Mar 30 2026 09:00:53 GMT-0400 (Eastern Daylight Time),418285.5,banana,800,I,z,z,None,373,174.0,199.0,85,1,1708.0,416577.5,9071,silver,NF,C,414768,414768,413243,414051,413243,414951,414568,414568,414951,63
63,test,1,con,1,m,Mon Mar 30 2026 09:00:53 GMT-0400 (Eastern Daylight Time),420886.0,lead,1100,I,m,m,None,965,765.0,200.0,124,1,2589.8000000715256,418296.1999999285,9071,lead,NF,C,416784,416785,414961,416068,414962,417551,416584,416584,417551,64
64,test,1,con,1,m,Mon Mar 30 2026 09:00:53 GMT-0400 (Eastern Daylight Time),423085.6999999285,lead,800,I,m,m,None,859,659.0,200.0,121,1,2189.399999976158,420896.2999999523,9071,lead,NF,C,419084,419084,417561,418368,417562,419751,418884,418884,419751,65
65,test,1,inc,1,m,Mon Mar 30 2026 09:00:53 GMT-0400 (Eastern Daylight Time),425535.6999999285,plum,1100,I,m,m,None,806,606.0,200.0,128,1,2439.0,423096.6999999285,9071,lead,NF,C,421584,421585,419762,420868,419762,422201,421384,421384,422201,66
66,test,1,con,1,m,Mon Mar 30 2026 09:00:53 GMT-0400 (Eastern Daylight Time),427618.89999997616,zinc,900,I,m,m,None,636,436.0,200.0,114,1,2072.5,425546.39999997616,9071,zinc,NF,C,423834,423834,422211,423118,422212,424284,423634,423634,424284,67
67,test,1,inc,1,z,Mon Mar 30 2026 09:00:53 GMT-0400 (Eastern Daylight Time),429769.39999997616,gold,800,I,z,z,None,810,611.0,199.0,53,1,2140.2000000476837,427629.1999999285,9071,kiwi,NF,C,425818,425818,424294,425101,424295,426434,425618,425618,426434,68
68,test,1,inc,1,z,Mon Mar 30 2026 09:00:53 GMT-0400 (Eastern Daylight Time),432885.60000002384,iron,900,I,z,z,None,1665,1466.0,199.0,38,1,3110.5,429775.10000002384,9071,lime,NF,C,428068,428068,426440,427351,426441,429551,427868,427868,429551,69
69,test,1,con,1,z,Mon Mar 30 2026 09:00:53 GMT-0400 (Eastern Daylight Time),435568.89999997616,raisin,1000,I,z,z,None,1138,938.0,200.0,27,1,2672.399999976158,432896.5,9071,raisin,NF,C,431284,431285,429562,430568,429562,432234,431084,431084,432234,70
70,test,1,con,1,z,Mon Mar 30 2026 09:00:53 GMT-0400 (Eastern Daylight Time),437652.1999999285,raisin,900,I,z,z,None,633,434.0,199.0,26,1,2073.5,435578.6999999285,9071,raisin,NF,C,433868,433868,432244,433151,432244,434317,433668,433668,434317,71
71,test,1,con,1,z,Mon Mar 30 2026 09:00:53 GMT-0400 (Eastern Daylight Time),439819.0,orange,1100,I,z,z,None,527,327.0,200.0,20,1,2156.5,437662.5,9071,orange,NF,C,436151,436151,434328,435434,434328,436484,435951,435951,436484,72
72,test,1,inc,1,z,Mon Mar 30 2026 09:00:53 GMT-0400 (Eastern Daylight Time),442152.10000002384,lead,1100,I,z,z,None,695,496.0,199.0,56,1,2321.4000000953674,439830.6999999285,9071,kiwi,NF,C,438318,438318,436496,437601,436496,438817,438118,438118,438817,73
73,test,1,con,1,m,Mon Mar 30 2026 09:00:53 GMT-0400 (Eastern Daylight Time),444652.1999999285,silver,1100,I,m,m,None,859,659.0,200.0,84,1,2491.2999999523163,442160.89999997616,9071,silver,NF,C,440651,440651,438826,439934,438826,441317,440451,440451,441317,74
74,test,1,inc,1,z,Mon Mar 30 2026 09:00:53 GMT-0400 (Eastern Daylight Time),446802.1999999285,copper,900,I,z,z,None,703,504.0,199.0,30,1,2139.1999999284744,444663.0,9071,raisin,NF,C,442951,442951,441328,442234,441328,443467,442751,442751,443467,75
75,test,1,con,1,m,Mon Mar 30 2026 09:00:53 GMT-0400 (Eastern Daylight Time),448985.5,silver,900,I,m,m,None,745,545.0,200.0,82,1,2174.5,446811.0,9071,silver,NF,C,445101,445101,443476,444384,443476,445651,444901,444901,445651,76
76,test,1,con,1,m,Mon Mar 30 2026 09:00:53 GMT-0400 (Eastern Daylight Time),450885.5,copper,800,I,m,m,None,549,350.0,199.0,73,1,1889.7000000476837,448995.7999999523,9071,copper,NF,C,447184,447184,445661,446468,445661,447551,446985,446985,447551,77
77,test,1,con,1,z,Mon Mar 30 2026 09:00:53 GMT-0400 (Eastern Daylight Time),453169.0,lime,1100,I,z,z,None,638,438.0,200.0,36,1,2274.0,450895.0,9071,lime,NF,C,449384,449384,447560,448668,447560,449834,449184,449184,449834,78
78,test,1,con,1,z,Mon Mar 30 2026 09:00:53 GMT-0400 (Eastern Daylight Time),455335.2999999523,pear,900,I,z,z,None,729,530.0,199.0,42,1,2155.899999976158,453179.39999997616,9071,pear,NF,C,451468,451468,449844,450750,449845,452000,451268,451268,452000,79
79,test,1,con,1,z,Mon Mar 30 2026 09:00:53 GMT-0400 (Eastern Daylight Time),457302.2999999523,orange,1000,I,z,z,None,432,232.0,200.0,19,1,1959.8999999761581,455342.39999997616,9071,orange,NF,C,453734,453735,452007,453018,452008,453967,453534,453534,453967,80
80,test,1,con,1,z,Mon Mar 30 2026 09:00:53 GMT-0400 (Eastern Daylight Time),459085.5,banana,800,I,z,z,None,441,241.0,200.0,1,1,1772.0,457313.5,9071,banana,NF,C,455501,455501,453979,454784,453979,455751,455301,455301,455751,81
81,test,1,inc,1,z,Mon Mar 30 2026 09:00:53 GMT-0400 (Eastern Daylight Time),461252.2999999523,zinc,1000,I,z,z,None,617,417.0,200.0,47,1,2154.399999976158,459097.89999997616,9071,pear,NF,C,457484,457485,455763,456768,455763,457917,457284,457284,457917,82
82,test,1,inc,1,m,Mon Mar 30 2026 09:00:53 GMT-0400 (Eastern Daylight Time),463102.1999999285,banana,800,I,m,m,None,506,307.0,199.0,69,1,1840.3999999761581,461261.7999999523,9071,bronze,NF,C,459451,459451,457927,458734,457927,459767,459251,459251,459767,83
83,test,1,con,1,z,Mon Mar 30 2026 09:00:53 GMT-0400 (Eastern Daylight Time),465468.6999999285,plum,1100,I,z,z,None,724,525.0,199.0,60,1,2358.2999999523163,463110.39999997616,9071,plum,NF,C,461601,461601,459775,460884,459776,462134,461401,461401,462134,84
84,test,1,inc,1,m,Mon Mar 30 2026 09:00:53 GMT-0400 (Eastern Daylight Time),467702.2999999523,kiwi,1000,I,m,m,None,682,483.0,199.0,119,1,2224.899999976158,465477.39999997616,9071,zinc,NF,C,463868,463868,462142,463151,462143,464367,463668,463668,464367,85
85,test,1,con,1,z,Mon Mar 30 2026 09:00:53 GMT-0400 (Eastern Daylight Time),470002.2999999523,lime,900,I,z,z,None,853,653.0,200.0,34,1,2290.899999976158,467711.39999997616,9071,lime,NF,C,466001,466001,464376,465284,464377,466667,465801,465801,466667,86
86,test,1,con,1,z,Mon Mar 30 2026 09:00:53 GMT-0400 (Eastern Daylight Time),472118.60000002384,pear,1000,I,z,z,None,580,381.0,199.0,43,1,2104.9000000953674,470013.6999999285,9071,pear,NF,C,468401,468401,466679,467684,466679,468784,468201,468201,468784,87
87,test,1,inc,1,z,Mon Mar 30 2026 09:00:53 GMT-0400 (Eastern Daylight Time),474135.1999999285,copper,900,I,z,z,None,579,380.0,199.0,6,1,2006.0,472129.1999999285,9071,banana,NF,C,470418,470418,468794,469701,468794,470800,470218,470218,470800,88
88,test,1,con,1,m,Mon Mar 30 2026 09:00:53 GMT-0400 (Eastern Daylight Time),476385.5,cobalt,1100,I,m,m,None,604,404.0,200.0,92,1,2241.0,474144.5,9071,cobalt,NF,C,472634,472634,470810,471918,470810,473051,472434,472434,473051,89
89,test,1,con,1,z,Mon Mar 30 2026 09:00:53 GMT-0400 (Eastern Daylight Time),478435.5,cherry,900,I,z,z,None,602,402.0,200.0,10,1,2039.6000000238419,476395.89999997616,9071,cherry,NF,C,474684,474684,473061,473968,473061,475101,474484,474484,475100,90
90,test,1,con,1,z,Mon Mar 30 2026 09:00:53 GMT-0400 (Eastern Daylight Time),480652.1999999285,kiwi,1000,I,z,z,None,676,476.0,200.0,51,1,2207.2999999523163,478444.89999997616,9071,kiwi,NF,C,476834,476834,475110,476117,475110,477317,476634,476634,477317,91
91,test,1,con,1,m,Mon Mar 30 2026 09:00:53 GMT-0400 (Eastern Daylight Time),482702.10000002384,iron,800,I,m,m,None,706,507.0,199.0,105,1,2040.5,480661.60000002384,9071,iron,NF,C,478851,478851,477327,478134,477327,479367,478651,478651,479367,92
92,test,1,inc,1,m,Mon Mar 30 2026 09:00:53 GMT-0400 (Eastern Daylight Time),485035.5,raisin,1100,I,m,m,None,692,493.0,199.0,88,1,2322.7000000476837,482712.7999999523,9071,silver,NF,C,481201,481201,479378,480484,479378,481701,481001,481001,481701,93
93,test,1,inc,1,m,Mon Mar 30 2026 09:00:53 GMT-0400 (Eastern Daylight Time),487085.5,banana,800,I,m,m,None,708,508.0,200.0,93,1,2038.0,485047.5,9071,cobalt,NF,C,483234,483234,481713,482518,481713,483751,483034,483034,483751,94
94,test,1,inc,1,z,Mon Mar 30 2026 09:00:53 GMT-0400 (Eastern Daylight Time),489769.2999999523,gold,800,I,z,z,None,1345,1145.0,200.0,45,1,2675.1999999284744,487094.10000002384,9071,pear,NF,C,485284,485284,483759,484568,483759,486434,485084,485084,486434,95
95,test,1,inc,1,z,Mon Mar 30 2026 09:00:53 GMT-0400 (Eastern Daylight Time),491735.1999999285,bronze,800,I,z,z,None,629,430.0,199.0,5,1,1960.7999999523163,489774.39999997616,9071,banana,NF,C,487968,487968,486439,487251,486440,488400,487768,487768,488400,96
96,test,1,con,1,m,Mon Mar 30 2026 09:00:53 GMT-0400 (Eastern Daylight Time),494085.60000002384,iron,1100,I,m,m,None,698,499.0,199.0,108,1,2340.3000000715256,491745.2999999523,9071,iron,NF,C,490235,490235,488410,489518,488411,490751,490035,490035,490751,97
97,test,1,inc,1,z,Mon Mar 30 2026 09:00:53 GMT-0400 (Eastern Daylight Time),496485.89999997616,cobalt,1100,I,z,z,None,766,566.0,200.0,32,1,2392.2999999523163,494093.60000002384,9071,raisin,NF,C,492584,492584,490759,491868,490759,493151,492384,492384,493151,98
98,test,1,inc,1,z,Mon Mar 30 2026 09:00:53 GMT-0400 (Eastern Daylight Time),498768.7999999523,silver,1000,I,z,z,None,738,538.0,200.0,23,1,2275.2999999523163,496493.5,9071,orange,NF,C,494884,494884,493159,494168,493159,495434,494684,494684,495434,99
99,test,1,con,1,z,Mon Mar 30 2026 09:00:53 GMT-0400 (Eastern Daylight Time),501152.10000002384,plum,1000,I,z,z,None,838,639.0,199.0,59,1,2374.2000000476837,498777.89999997616,9071,plum,NF,C,497168,497168,495443,496451,495443,497817,496968,496968,497817,100
100,test,1,con,1,m,Mon Mar 30 2026 09:00:53 GMT-0400 (Eastern Daylight Time),503302.0,lead,900,I,m,m,None,714,515.0,199.0,122,1,2139.600000023842,501162.39999997616,9071,lead,NF,C,499451,499451,497827,498734,497828,499967,499251,499251,499967,101
101,test,1,inc,1,m,Mon Mar 30 2026 09:00:53 GMT-0400 (Eastern Daylight Time),505368.6999999285,lime,800,I,m,m,None,728,529.0,199.0,117,1,2058.2999999523163,503310.39999997616,9071,zinc,NF,C,501501,501501,499975,500784,499976,502034,501301,501301,502034,102
102,test,1,inc,1,z,Mon Mar 30 2026 09:00:53 GMT-0400 (Eastern Daylight Time),507418.7999999523,bronze,800,I,z,z,None,709,510.0,199.0,29,1,2040.5,505378.2999999523,9071,raisin,NF,C,503568,503568,502043,502851,502044,504084,503368,503368,504084,103
103,test,1,inc,1,m,Mon Mar 30 2026 09:00:53 GMT-0400 (Eastern Daylight Time),509701.89999997616,orange,1000,I,m,m,None,747,548.0,199.0,71,1,2272.100000023842,507429.7999999523,9071,bronze,NF,C,505818,505818,504095,505101,504095,506367,505618,505618,506367,104
103,test,1,con,0,m,Mon Mar 30 2026 09:00:53 GMT-0400 (Eastern Daylight Time),512119.60000002384,iron,900,I,z,z,None,981,782.0,199.0,106,1,2404.2000000476837,509715.39999997616,9071,iron,NF,C,508001,508001,506380,507284,506381,508785,507801,507801,508785,105
104,test,1,con,1,z,Mon Mar 30 2026 09:00:53 GMT-0400 (Eastern Daylight Time),514568.60000002384,banana,1000,I,z,z,None,911,712.0,199.0,3,1,2439.600000023842,512129.0,9071,banana,NF,C,510518,510518,508794,509801,508794,511234,510318,510318,511234,106
105,test,1,inc,1,m,Mon Mar 30 2026 09:00:53 GMT-0400 (Eastern Daylight Time),516635.39999997616,lime,800,I,m,m,None,725,526.0,199.0,101,1,2055.399999976158,514580.0,9071,gold,NF,C,512768,512768,511245,512051,511245,513300,512567,512568,513300,107
106,test,1,inc,1,m,Mon Mar 30 2026 09:00:53 GMT-0400 (Eastern Daylight Time),519018.6999999285,raisin,1100,I,m,m,None,744,544.0,200.0,80,1,2375.1999999284744,516643.5,9071,copper,NF,C,515134,515134,513308,514418,513309,515684,514934,514934,515684,108
107,test,1,con,1,z,Mon Mar 30 2026 09:00:53 GMT-0400 (Eastern Daylight Time),521318.60000002384,banana,1100,I,z,z,None,663,464.0,199.0,4,1,2288.5,519030.10000002384,9071,banana,NF,C,517518,517518,515695,516801,515696,517984,517318,517318,517984,109
108,test,1,inc,1,m,Mon Mar 30 2026 09:00:53 GMT-0400 (Eastern Daylight Time),523702.10000002384,plum,1100,I,m,m,None,748,549.0,199.0,120,1,2375.2000000476837,521326.89999997616,9071,zinc,NF,C,519818,519818,517992,519101,517992,520367,519618,519618,520367,110
109,test,1,con,1,m,Mon Mar 30 2026 09:00:53 GMT-0400 (Eastern Daylight Time),526118.5,copper,1100,I,m,m,None,780,581.0,199.0,76,1,2408.5,523710.0,9071,copper,NF,C,522201,522201,520375,521484,520375,522784,522001,522001,522784,111
110,test,1,inc,1,z,Mon Mar 30 2026 09:00:53 GMT-0400 (Eastern Daylight Time),528185.3999999762,copper,900,I,z,z,None,627,428.0,199.0,14,1,2058.5,526126.8999999762,9071,cherry,NF,C,524417,524418,522792,523701,522792,524851,524217,524218,524850,112
111,test,1,inc,1,z,Mon Mar 30 2026 09:00:53 GMT-0400 (Eastern Daylight Time),530418.7999999523,zinc,1000,I,z,z,None,686,486.0,200.0,63,1,2225.399999976158,528193.3999999762,9071,plum,NF,C,526584,526584,524858,525868,524859,527084,526384,526384,527084,113
112,test,1,con,1,z,Mon Mar 30 2026 09:00:53 GMT-0400 (Eastern Daylight Time),532602.1999999285,orange,900,I,z,z,None,743,544.0,199.0,18,1,2174.399999976158,530427.7999999523,9071,orange,NF,C,528717,528718,527093,528001,527093,529267,528518,528518,529267,114
113,test,1,inc,1,z,Mon Mar 30 2026 09:00:53 GMT-0400 (Eastern Daylight Time),535018.7999999523,lead,1100,I,z,z,None,777,578.0,199.0,40,1,2407.399999976158,532611.3999999762,9071,lime,NF,C,531101,531101,529276,530384,529277,531684,530901,530901,531684,115
114,test,1,con,1,m,Mon Mar 30 2026 09:00:53 GMT-0400 (Eastern Daylight Time),537268.6999999285,cobalt,1000,I,m,m,None,699,500.0,199.0,91,1,2240.2999999523163,535028.3999999762,9071,cobalt,NF,C,533417,533418,531693,532701,531694,533934,533217,533218,533934,116
115,test,1,inc,1,z,Mon Mar 30 2026 09:00:53 GMT-0400 (Eastern Daylight Time),539602.1000000238,silver,1000,I,z,z,None,786,586.0,200.0,31,1,2323.8000000715256,537278.2999999523,9071,raisin,NF,C,535667,535668,533943,534951,533944,536267,535467,535467,536267,117
116,test,1,inc,1,z,Mon Mar 30 2026 09:00:53 GMT-0400 (Eastern Daylight Time),541935.3999999762,zinc,1000,I,z,z,None,788,589.0,199.0,39,1,2322.0,539613.3999999762,9071,lime,NF,C,538001,538001,536278,537284,536279,538601,537801,537801,538600,118
117,test,1,con,1,m,Mon Mar 30 2026 09:00:53 GMT-0400 (Eastern Daylight Time),544135.1999999285,cobalt,900,I,m,m,None,764,564.0,200.0,90,1,2188.5,541946.6999999285,9071,cobalt,NF,C,540234,540234,538612,539517,538612,540800,540034,540034,540800,119
118,test,1,inc,1,z,Mon Mar 30 2026 09:00:53 GMT-0400 (Eastern Daylight Time),546418.6999999285,silver,1000,I,z,z,None,737,537.0,200.0,7,1,2272.899999976158,544145.7999999523,9071,banana,NF,C,542534,542534,540811,541818,540811,543084,542334,542334,543084,120
119,test,1,con,1,m,Mon Mar 30 2026 09:00:53 GMT-0400 (Eastern Daylight Time),548802.1000000238,copper,1000,I,m,m,None,836,636.0,200.0,75,1,2372.8000000715256,546429.2999999523,9071,copper,NF,C,544818,544818,543094,544101,543095,545467,544617,544617,545467,121
120,test,1,con,1,z,Mon Mar 30 2026 09:00:53 GMT-0400 (Eastern Daylight Time),551168.6999999285,pear,1100,I,z,z,None,720,521.0,199.0,44,1,2357.5,548811.1999999285,9071,pear,NF,C,547301,547301,545476,546584,545476,547834,547101,547101,547834,122
121,test,1,inc,1,z,Mon Mar 30 2026 09:00:53 GMT-0400 (Eastern Daylight Time),553368.6000000238,silver,1000,I,z,z,None,662,462.0,200.0,15,1,2188.4000000953674,551180.1999999285,9071,cherry,NF,C,549567,549568,547845,548851,547845,550034,549367,549367,550034,123
122,test,1,con,1,m,Mon Mar 30 2026 09:00:53 GMT-0400 (Eastern Daylight Time),555668.5,lead,1000,I,m,m,None,750,550.0,200.0,123,1,2289.3000000715256,553379.1999999285,9071,lead,NF,C,551768,551768,550044,551051,550045,552334,551567,551567,552334,124
123,test,1,inc,1,m,Mon Mar 30 2026 09:00:53 GMT-0400 (Eastern Daylight Time),557818.7999999523,cherry,900,I,m,m,None,711,511.0,200.0,78,1,2141.2999999523163,555677.5,9071,copper,NF,C,553968,553968,552343,553251,552343,554484,553767,553767,554484,125
124,test,1,con,1,m,Mon Mar 30 2026 09:00:53 GMT-0400 (Eastern Daylight Time),560385.0,gold,1100,I,m,m,None,919,720.0,199.0,100,1,2555.399999976158,557829.6000000238,9071,gold,NF,C,556317,556318,554495,555601,554495,557050,556118,556118,557050,126
125,test,1,inc,1,m,Mon Mar 30 2026 09:00:53 GMT-0400 (Eastern Daylight Time),562702.0,kiwi,1000,I,m,m,None,774,574.0,200.0,127,1,2310.899999976158,560391.1000000238,9071,lead,NF,C,558784,558784,557056,558068,557056,559367,558584,558584,559367,127
126,test,1,con,1,m,Mon Mar 30 2026 09:00:53 GMT-0400 (Eastern Daylight Time),565001.8999999762,silver,1000,I,m,m,None,760,561.0,199.0,83,1,2289.2999999523163,562712.6000000238,9071,silver,NF,C,561101,561101,559378,560384,559378,561667,560901,560901,561667,128
