block_c,block_dur,condition,countdown,datetime,endtime,list,multichar_response,project,response,response_time,session_number,start_end,starttime,subject_id,task,task_vers,trial
,,,,Tue Nov 04 2025 12:20:58 GMT-0600 (Central Standard Time),,,,O,space,382,1,,,7231,WL,A,
prac,,0,,Tue Nov 04 2025 12:20:58 GMT-0600 (Central Standard Time),,NA,b,O,b,1141,1,,,7231,WL,A,1.0
prac,,0,,Tue Nov 04 2025 12:20:58 GMT-0600 (Central Standard Time),,NA,bo,O,o,313,1,,,7231,WL,A,1.0
prac,,0,,Tue Nov 04 2025 12:20:58 GMT-0600 (Central Standard Time),,NA,boo,O,o,163,1,,,7231,WL,A,1.0
prac,,0,,Tue Nov 04 2025 12:20:58 GMT-0600 (Central Standard Time),,NA,boos,O,s,594,1,,,7231,WL,A,1.0
prac,,0,,Tue Nov 04 2025 12:20:58 GMT-0600 (Central Standard Time),,NA,boost,O,t,340,1,,,7231,WL,A,1.0
prac,,0,,Tue Nov 04 2025 12:20:58 GMT-0600 (Central Standard Time),,NA,boostenter,O,enter,544,1,,,7231,WL,A,1.0
1,1.4170000553131104,learn,58582.99994468689,Tue Nov 04 2025 12:20:58 GMT-0600 (Central Standard Time),146454.80000001192,A,b,O,b,1412,1,1416.5,145038.30000001192,7231,WL,A,1.0
1,1.6660001277923584,learn,58333.99987220764,Tue Nov 04 2025 12:20:58 GMT-0600 (Central Standard Time),146704.40000003576,A,bo,O,o,244,1,1666.1000000238419,145038.30000001192,7231,WL,A,1.0
1,1.8500001430511475,learn,58149.99985694885,Tue Nov 04 2025 12:20:58 GMT-0600 (Central Standard Time),146888.30000001192,A,boo,O,o,170,1,1850.0,145038.30000001192,7231,WL,A,1.0
1,2.299999952316284,learn,57700.000047683716,Tue Nov 04 2025 12:20:58 GMT-0600 (Central Standard Time),147337.80000001192,A,book,O,k,428,1,2299.5,145038.30000001192,7231,WL,A,1.0
1,3.0320000648498535,learn,56967.99993515015,Tue Nov 04 2025 12:20:58 GMT-0600 (Central Standard Time),148070.20000004768,A,bookenter,O,enter,720,1,3031.900000035763,145038.30000001192,7231,WL,A,1.0
1,3.7339999675750732,learn,56266.00003242493,Tue Nov 04 2025 12:20:58 GMT-0600 (Central Standard Time),148771.70000004768,A,t,O,t,691,1,701.2000000476837,148070.5,7231,WL,A,2.0
1,4.0,learn,56000.0,Tue Nov 04 2025 12:20:58 GMT-0600 (Central Standard Time),149038.20000004768,A,tr,O,r,244,1,967.7000000476837,148070.5,7231,WL,A,2.0
1,4.2170000076293945,learn,55782.999992370605,Tue Nov 04 2025 12:20:58 GMT-0600 (Central Standard Time),149255.10000002384,A,tra,O,a,204,1,1184.6000000238419,148070.5,7231,WL,A,2.0
1,4.368000030517578,learn,55631.99996948242,Tue Nov 04 2025 12:20:58 GMT-0600 (Central Standard Time),149406.0,A,trai,O,i,136,1,1335.5,148070.5,7231,WL,A,2.0
1,4.466000080108643,learn,55533.99991989136,Tue Nov 04 2025 12:20:58 GMT-0600 (Central Standard Time),149503.5,A,train,O,n,83,1,1433.0,148070.5,7231,WL,A,2.0
1,6.730999946594238,learn,53269.00005340576,Tue Nov 04 2025 12:20:58 GMT-0600 (Central Standard Time),151768.90000003576,A,trainenter,O,enter,2256,1,3698.400000035763,148070.5,7231,WL,A,2.0
1,8.781000137329102,learn,51218.9998626709,Tue Nov 04 2025 12:20:58 GMT-0600 (Central Standard Time),153818.90000003576,A,r,O,r,2041,1,2049.699999988079,151769.20000004768,7231,WL,A,3.0
1,9.098000049591064,learn,50901.999950408936,Tue Nov 04 2025 12:20:58 GMT-0600 (Central Standard Time),154135.90000003576,A,ru,O,u,302,1,2366.699999988079,151769.20000004768,7231,WL,A,3.0
1,9.264000177383423,learn,50735.99982261658,Tue Nov 04 2025 12:20:58 GMT-0600 (Central Standard Time),154302.20000004768,A,rug,O,g,160,1,2533.0,151769.20000004768,7231,WL,A,3.0
1,10.246000051498413,learn,49753.99994850159,Tue Nov 04 2025 12:20:58 GMT-0600 (Central Standard Time),155283.70000004768,A,rugenter,O,enter,961,1,3514.5,151769.20000004768,7231,WL,A,3.0
1,11.146000146865845,learn,48853.999853134155,Tue Nov 04 2025 12:20:58 GMT-0600 (Central Standard Time),156183.60000002384,A,r,O,r,884,1,899.5,155284.10000002384,7231,WL,A,4.0
1,11.414000034332275,learn,48585.999965667725,Tue Nov 04 2025 12:20:58 GMT-0600 (Central Standard Time),156451.70000004768,A,ra,O,a,250,1,1167.6000000238419,155284.10000002384,7231,WL,A,4.0
1,11.69700002670288,learn,48302.99997329712,Tue Nov 04 2025 12:20:58 GMT-0600 (Central Standard Time),156734.70000004768,A,rat,O,t,274,1,1450.6000000238419,155284.10000002384,7231,WL,A,4.0
1,11.86300015449524,learn,48136.99984550476,Tue Nov 04 2025 12:20:58 GMT-0600 (Central Standard Time),156901.10000002384,A,ratt,O,t,154,1,1617.0,155284.10000002384,7231,WL,A,4.0
1,12.147000074386597,learn,47852.9999256134,Tue Nov 04 2025 12:20:58 GMT-0600 (Central Standard Time),157185.40000003576,A,rattl,O,l,266,1,1901.300000011921,155284.10000002384,7231,WL,A,4.0
1,12.263000011444092,learn,47736.99998855591,Tue Nov 04 2025 12:20:58 GMT-0600 (Central Standard Time),157301.5,A,rattle,O,e,104,1,2017.3999999761581,155284.10000002384,7231,WL,A,4.0
1,13.229000091552734,learn,46770.999908447266,Tue Nov 04 2025 12:20:58 GMT-0600 (Central Standard Time),158267.0,A,rattleenter,O,enter,953,1,2982.899999976158,155284.10000002384,7231,WL,A,4.0
1,29.723000049591064,learn,30276.999950408936,Tue Nov 04 2025 12:20:58 GMT-0600 (Central Standard Time),174760.80000001192,A,f,O,f,16486,1,16493.5,158267.30000001192,7231,WL,A,5.0
1,29.94099998474121,learn,30059.00001525879,Tue Nov 04 2025 12:20:58 GMT-0600 (Central Standard Time),174978.80000001192,A,fl,O,l,207,1,16711.5,158267.30000001192,7231,WL,A,5.0
1,30.19099998474121,learn,29809.00001525879,Tue Nov 04 2025 12:20:58 GMT-0600 (Central Standard Time),175229.0,A,flo,O,o,228,1,16961.69999998808,158267.30000001192,7231,WL,A,5.0
1,30.33899998664856,learn,29661.00001335144,Tue Nov 04 2025 12:20:58 GMT-0600 (Central Standard Time),175376.90000003576,A,flow,O,w,137,1,17109.600000023842,158267.30000001192,7231,WL,A,5.0
1,31.124000072479248,learn,28875.999927520752,Tue Nov 04 2025 12:20:58 GMT-0600 (Central Standard Time),176162.20000004768,A,flowe,O,e,778,1,17894.900000035763,158267.30000001192,7231,WL,A,5.0
1,31.390000104904175,learn,28609.999895095825,Tue Nov 04 2025 12:20:58 GMT-0600 (Central Standard Time),176428.10000002384,A,flower,O,r,245,1,18160.80000001192,158267.30000001192,7231,WL,A,5.0
1,31.85700011253357,learn,28142.99988746643,Tue Nov 04 2025 12:20:58 GMT-0600 (Central Standard Time),176894.80000001192,A,flowerenter,O,enter,451,1,18627.5,158267.30000001192,7231,WL,A,5.0
1,47.25100016593933,learn,12748.999834060669,Tue Nov 04 2025 12:20:58 GMT-0600 (Central Standard Time),192289.70000004768,A,enter,O,enter,15378,1,15394.700000047684,176895.0,7231,WL,A,6.0
1,50.51699995994568,learn,9483.000040054321,Tue Nov 04 2025 12:20:58 GMT-0600 (Central Standard Time),195555.40000003576,A,enter,O,enter,3255,1,3265.300000011921,192290.10000002384,7231,WL,A,7.0
1,51.56700015068054,learn,8432.999849319458,Tue Nov 04 2025 12:20:58 GMT-0600 (Central Standard Time),196605.10000002384,A,enter,O,enter,1037,1,1049.300000011921,195555.80000001192,7231,WL,A,8.0
1,52.48300004005432,learn,7516.999959945679,Tue Nov 04 2025 12:20:58 GMT-0600 (Central Standard Time),197521.70000004768,A,enter,O,enter,894,1,916.3000000119209,196605.40000003576,7231,WL,A,9.0
1,53.26699995994568,learn,6733.000040054321,Tue Nov 04 2025 12:20:58 GMT-0600 (Central Standard Time),198305.0,A,enter,O,enter,775,1,782.8999999761581,197522.10000002384,7231,WL,A,10.0
1,53.782999992370605,learn,6217.0000076293945,Tue Nov 04 2025 12:20:58 GMT-0600 (Central Standard Time),198821.60000002384,A,enter,O,enter,504,1,516.3000000119209,198305.30000001192,7231,WL,A,11.0
1,54.348999977111816,learn,5651.000022888184,Tue Nov 04 2025 12:20:58 GMT-0600 (Central Standard Time),199387.20000004768,A,enter,O,enter,548,1,565.4000000357628,198821.80000001192,7231,WL,A,12.0
1,54.932000160217285,learn,5067.999839782715,Tue Nov 04 2025 12:20:58 GMT-0600 (Central Standard Time),199970.10000002384,A,enter,O,enter,566,1,582.5,199387.60000002384,7231,WL,A,13.0
1,55.88199996948242,learn,4118.000030517578,Tue Nov 04 2025 12:20:58 GMT-0600 (Central Standard Time),200920.30000001192,A,enter,O,enter,935,1,949.8999999761581,199970.40000003576,7231,WL,A,14.0
1,56.598999977111816,learn,3401.0000228881836,Tue Nov 04 2025 12:20:58 GMT-0600 (Central Standard Time),201637.10000002384,A,enter,O,enter,706,1,716.6000000238419,200920.5,7231,WL,A,15.0
2,1.2819998264312744,learn,58718.000173568726,Tue Nov 04 2025 12:20:58 GMT-0600 (Central Standard Time),274697.0,A,b,O,b,1277,1,1282.199999988079,273414.8000000119,7231,WL,A,1.0
2,1.5329999923706055,learn,58467.000007629395,Tue Nov 04 2025 12:20:58 GMT-0600 (Central Standard Time),274947.3000000119,A,bo,O,o,230,1,1532.5,273414.8000000119,7231,WL,A,1.0
2,1.6989998817443848,learn,58301.000118255615,Tue Nov 04 2025 12:20:58 GMT-0600 (Central Standard Time),275113.40000003576,A,boo,O,o,143,1,1698.6000000238419,273414.8000000119,7231,WL,A,1.0
2,1.9169998168945312,learn,58083.00018310547,Tue Nov 04 2025 12:20:58 GMT-0600 (Central Standard Time),275331.3000000119,A,book,O,k,206,1,1916.5,273414.8000000119,7231,WL,A,1.0
2,3.2319998741149902,learn,56768.00012588501,Tue Nov 04 2025 12:20:58 GMT-0600 (Central Standard Time),276646.7000000477,A,bookenter,O,enter,1303,1,3231.900000035763,273414.8000000119,7231,WL,A,1.0
2,4.015999794006348,learn,55984.00020599365,Tue Nov 04 2025 12:20:58 GMT-0600 (Central Standard Time),277430.7000000477,A,t,O,t,773,1,783.8000000119209,276646.90000003576,7231,WL,A,2.0
2,4.247999906539917,learn,55752.00009346008,Tue Nov 04 2025 12:20:58 GMT-0600 (Central Standard Time),277662.60000002384,A,tr,O,r,219,1,1015.6999999880791,276646.90000003576,7231,WL,A,2.0
2,4.46399998664856,learn,55536.00001335144,Tue Nov 04 2025 12:20:58 GMT-0600 (Central Standard Time),277878.8000000119,A,tra,O,a,202,1,1231.8999999761581,276646.90000003576,7231,WL,A,2.0
2,4.630999803543091,learn,55369.00019645691,Tue Nov 04 2025 12:20:58 GMT-0600 (Central Standard Time),278045.8000000119,A,trai,O,i,147,1,1398.8999999761581,276646.90000003576,7231,WL,A,2.0
2,4.71399998664856,learn,55286.00001335144,Tue Nov 04 2025 12:20:58 GMT-0600 (Central Standard Time),278128.60000002384,A,train,O,n,76,1,1481.699999988079,276646.90000003576,7231,WL,A,2.0
2,5.296999931335449,learn,54703.00006866455,Tue Nov 04 2025 12:20:58 GMT-0600 (Central Standard Time),278711.90000003576,A,trainenter,O,enter,569,1,2065.0,276646.90000003576,7231,WL,A,2.0
2,6.479999780654907,learn,53520.00021934509,Tue Nov 04 2025 12:20:58 GMT-0600 (Central Standard Time),279895.2000000477,A,f,O,f,1177,1,1183.1000000238419,278712.10000002384,7231,WL,A,3.0
2,6.646999835968018,learn,53353.00016403198,Tue Nov 04 2025 12:20:58 GMT-0600 (Central Standard Time),280062.0,A,fi,O,i,161,1,1349.8999999761581,278712.10000002384,7231,WL,A,3.0
2,6.796000003814697,learn,53203.9999961853,Tue Nov 04 2025 12:20:58 GMT-0600 (Central Standard Time),280211.0,A,fin,O,n,139,1,1498.8999999761581,278712.10000002384,7231,WL,A,3.0
2,6.913999795913696,learn,53086.000204086304,Tue Nov 04 2025 12:20:58 GMT-0600 (Central Standard Time),280328.90000003576,A,fing,O,g,102,1,1616.800000011921,278712.10000002384,7231,WL,A,3.0
2,7.079999923706055,learn,52920.000076293945,Tue Nov 04 2025 12:20:58 GMT-0600 (Central Standard Time),280494.7000000477,A,finge,O,e,152,1,1782.6000000238419,278712.10000002384,7231,WL,A,3.0
2,7.161999940872192,learn,52838.00005912781,Tue Nov 04 2025 12:20:58 GMT-0600 (Central Standard Time),280577.3000000119,A,finger,O,r,74,1,1865.199999988079,278712.10000002384,7231,WL,A,3.0
2,7.453999996185303,learn,52546.0000038147,Tue Nov 04 2025 12:20:58 GMT-0600 (Central Standard Time),280868.7000000477,A,fingerenter,O,enter,264,1,2156.600000023842,278712.10000002384,7231,WL,A,3.0
2,8.23199987411499,learn,51768.00012588501,Tue Nov 04 2025 12:20:58 GMT-0600 (Central Standard Time),281646.5,A,l,O,l,766,1,777.5,280869.0,7231,WL,A,4.0
2,8.446999788284302,learn,51553.0002117157,Tue Nov 04 2025 12:20:58 GMT-0600 (Central Standard Time),281861.60000002384,A,lo,O,o,194,1,992.6000000238419,280869.0,7231,WL,A,4.0
2,8.546000003814697,learn,51453.9999961853,Tue Nov 04 2025 12:20:58 GMT-0600 (Central Standard Time),281960.90000003576,A,log,O,g,83,1,1091.9000000357628,280869.0,7231,WL,A,4.0
2,8.845999956130981,learn,51154.00004386902,Tue Nov 04 2025 12:20:58 GMT-0600 (Central Standard Time),282260.90000003576,A,logenter,O,enter,279,1,1391.9000000357628,280869.0,7231,WL,A,4.0
2,9.312999963760376,learn,50687.000036239624,Tue Nov 04 2025 12:20:58 GMT-0600 (Central Standard Time),282727.7000000477,A,g,O,g,452,1,466.60000002384186,282261.10000002384,7231,WL,A,5.0
2,9.446999788284302,learn,50553.0002117157,Tue Nov 04 2025 12:20:58 GMT-0600 (Central Standard Time),282862.10000002384,A,go,O,o,113,1,601.0,282261.10000002384,7231,WL,A,5.0
2,9.680999994277954,learn,50319.000005722046,Tue Nov 04 2025 12:20:58 GMT-0600 (Central Standard Time),283095.7000000477,A,gol,O,l,218,1,834.6000000238419,282261.10000002384,7231,WL,A,5.0
2,9.829999923706055,learn,50170.000076293945,Tue Nov 04 2025 12:20:58 GMT-0600 (Central Standard Time),283245.0,A,gold,O,d,131,1,983.8999999761581,282261.10000002384,7231,WL,A,5.0
2,11.228999853134155,learn,48771.000146865845,Tue Nov 04 2025 12:20:58 GMT-0600 (Central Standard Time),284643.3000000119,A,goldenter,O,enter,1387,1,2382.199999988079,282261.10000002384,7231,WL,A,5.0
2,17.894999980926514,learn,42105.000019073486,Tue Nov 04 2025 12:20:58 GMT-0600 (Central Standard Time),291310.10000002384,A,f,O,f,6664,1,6666.600000023842,284643.5,7231,WL,A,6.0
2,18.0939998626709,learn,41906.0001373291,Tue Nov 04 2025 12:20:58 GMT-0600 (Central Standard Time),291508.90000003576,A,fl,O,l,179,1,6865.400000035763,284643.5,7231,WL,A,6.0
2,18.292999982833862,learn,41707.00001716614,Tue Nov 04 2025 12:20:58 GMT-0600 (Central Standard Time),291707.8000000119,A,flo,O,o,180,1,7064.300000011921,284643.5,7231,WL,A,6.0
2,18.425999879837036,learn,41574.000120162964,Tue Nov 04 2025 12:20:58 GMT-0600 (Central Standard Time),291841.2000000477,A,flow,O,w,117,1,7197.700000047684,284643.5,7231,WL,A,6.0
2,18.65999984741211,learn,41340.00015258789,Tue Nov 04 2025 12:20:58 GMT-0600 (Central Standard Time),292075.10000002384,A,flowe,O,e,216,1,7431.600000023842,284643.5,7231,WL,A,6.0
2,18.80999994277954,learn,41190.00005722046,Tue Nov 04 2025 12:20:58 GMT-0600 (Central Standard Time),292225.10000002384,A,flower,O,r,133,1,7581.600000023842,284643.5,7231,WL,A,6.0
2,20.143999814987183,learn,39856.00018501282,Tue Nov 04 2025 12:20:58 GMT-0600 (Central Standard Time),293558.90000003576,A,flowerenter,O,enter,1321,1,8915.400000035763,284643.5,7231,WL,A,6.0
2,27.556999921798706,learn,32443.000078201294,Tue Nov 04 2025 12:20:58 GMT-0600 (Central Standard Time),300971.90000003576,A,f,O,f,7403,1,7412.800000011921,293559.10000002384,7231,WL,A,7.0
2,27.70699977874756,learn,32293.00022125244,Tue Nov 04 2025 12:20:58 GMT-0600 (Central Standard Time),301121.8000000119,A,fi,O,i,127,1,7562.699999988079,293559.10000002384,7231,WL,A,7.0
2,27.822999954223633,learn,32177.000045776367,Tue Nov 04 2025 12:20:58 GMT-0600 (Central Standard Time),301238.3000000119,A,fin,O,n,102,1,7679.199999988079,293559.10000002384,7231,WL,A,7.0
2,27.85599994659424,learn,32144.00005340576,Tue Nov 04 2025 12:20:58 GMT-0600 (Central Standard Time),301271.0,A,fing,O,g,23,1,7711.899999976158,293559.10000002384,7231,WL,A,7.0
2,28.039999961853027,learn,31960.000038146973,Tue Nov 04 2025 12:20:58 GMT-0600 (Central Standard Time),301454.90000003576,A,finge,O,e,171,1,7895.800000011921,293559.10000002384,7231,WL,A,7.0
2,28.155999898910522,learn,31844.000101089478,Tue Nov 04 2025 12:20:58 GMT-0600 (Central Standard Time),301571.5,A,finger,O,r,96,1,8012.399999976158,293559.10000002384,7231,WL,A,7.0
2,28.388999938964844,learn,31611.000061035156,Tue Nov 04 2025 12:20:58 GMT-0600 (Central Standard Time),301803.7000000477,A,fingerenter,O,enter,219,1,8244.600000023842,293559.10000002384,7231,WL,A,7.0
2,33.288999795913696,learn,26711.000204086304,Tue Nov 04 2025 12:20:58 GMT-0600 (Central Standard Time),306703.8000000119,A,r,O,r,4895,1,4899.899999976158,301803.90000003576,7231,WL,A,8.0
2,33.48899984359741,learn,26511.000156402588,Tue Nov 04 2025 12:20:58 GMT-0600 (Central Standard Time),306904.0,A,ra,O,a,183,1,5100.099999964237,301803.90000003576,7231,WL,A,8.0
2,33.72199988365173,learn,26278.000116348267,Tue Nov 04 2025 12:20:58 GMT-0600 (Central Standard Time),307137.10000002384,A,rat,O,t,218,1,5333.199999988079,301803.90000003576,7231,WL,A,8.0
2,33.888999938964844,learn,26111.000061035156,Tue Nov 04 2025 12:20:58 GMT-0600 (Central Standard Time),307304.3000000119,A,ratt,O,t,157,1,5500.399999976158,301803.90000003576,7231,WL,A,8.0
2,34.1029999256134,learn,25897.000074386597,Tue Nov 04 2025 12:20:58 GMT-0600 (Central Standard Time),307518.5,A,rattl,O,l,199,1,5714.599999964237,301803.90000003576,7231,WL,A,8.0
2,34.2039999961853,learn,25796.000003814697,Tue Nov 04 2025 12:20:58 GMT-0600 (Central Standard Time),307619.60000002384,A,rattle,O,e,92,1,5815.699999988079,301803.90000003576,7231,WL,A,8.0
2,34.437999963760376,learn,25562.000036239624,Tue Nov 04 2025 12:20:58 GMT-0600 (Central Standard Time),307853.10000002384,A,rattleenter,O,enter,219,1,6049.199999988079,301803.90000003576,7231,WL,A,8.0
2,35.936999797821045,learn,24063.000202178955,Tue Nov 04 2025 12:20:58 GMT-0600 (Central Standard Time),309352.60000002384,A,r,O,r,1478,1,1499.1000000238419,307853.5,7231,WL,A,9.0
2,36.08799982070923,learn,23912.00017929077,Tue Nov 04 2025 12:20:58 GMT-0600 (Central Standard Time),309503.0,A,ru,O,u,142,1,1649.5,307853.5,7231,WL,A,9.0
2,36.33699989318848,learn,23663.000106811523,Tue Nov 04 2025 12:20:58 GMT-0600 (Central Standard Time),309751.90000003576,A,run,O,n,239,1,1898.4000000357628,307853.5,7231,WL,A,9.0
2,36.75399994850159,learn,23246.000051498413,Tue Nov 04 2025 12:20:58 GMT-0600 (Central Standard Time),310169.3000000119,A,runenter,O,enter,408,1,2315.800000011921,307853.5,7231,WL,A,9.0
2,39.15399980545044,learn,20846.00019454956,Tue Nov 04 2025 12:20:58 GMT-0600 (Central Standard Time),312569.40000003576,A,r,O,r,2384,1,2399.900000035763,310169.5,7231,WL,A,10.0
2,39.36899995803833,learn,20631.00004196167,Tue Nov 04 2025 12:20:58 GMT-0600 (Central Standard Time),312784.2000000477,A,ru,O,u,199,1,2614.7000000476837,310169.5,7231,WL,A,10.0
2,39.519999980926514,learn,20480.000019073486,Tue Nov 04 2025 12:20:58 GMT-0600 (Central Standard Time),312934.8000000119,A,rug,O,g,144,1,2765.300000011921,310169.5,7231,WL,A,10.0
2,39.901999950408936,learn,20098.000049591064,Tue Nov 04 2025 12:20:58 GMT-0600 (Central Standard Time),313316.8000000119,A,rugenter,O,enter,360,1,3147.300000011921,310169.5,7231,WL,A,10.0
2,52.633999824523926,learn,7366.000175476074,Tue Nov 04 2025 12:20:58 GMT-0600 (Central Standard Time),326049.3000000119,A,g,O,g,12727,1,12732.199999988079,313317.10000002384,7231,WL,A,11.0
2,52.81499981880188,learn,7185.00018119812,Tue Nov 04 2025 12:20:58 GMT-0600 (Central Standard Time),326229.7000000477,A,go,O,o,164,1,12912.600000023842,313317.10000002384,7231,WL,A,11.0
2,53.031999826431274,learn,6968.000173568726,Tue Nov 04 2025 12:20:58 GMT-0600 (Central Standard Time),326446.8000000119,A,gol,O,l,209,1,13129.699999988079,313317.10000002384,7231,WL,A,11.0
2,53.19799995422363,learn,6802.000045776367,Tue Nov 04 2025 12:20:58 GMT-0600 (Central Standard Time),326613.5,A,gold,O,d,143,1,13296.399999976158,313317.10000002384,7231,WL,A,11.0
2,53.431999921798706,learn,6568.000078201294,Tue Nov 04 2025 12:20:58 GMT-0600 (Central Standard Time),326847.60000002384,A,goldenter,O,enter,223,1,13530.5,313317.10000002384,7231,WL,A,11.0
2,57.430999994277954,learn,2569.000005722046,Tue Nov 04 2025 12:20:58 GMT-0600 (Central Standard Time),330845.90000003576,A,b,O,b,3979,1,3998.100000023842,326847.8000000119,7231,WL,A,12.0
2,57.62999987602234,learn,2370.000123977661,Tue Nov 04 2025 12:20:58 GMT-0600 (Central Standard Time),331045.40000003576,A,bu,O,u,186,1,4197.600000023842,326847.8000000119,7231,WL,A,12.0
2,57.930999994277954,learn,2069.000005722046,Tue Nov 04 2025 12:20:58 GMT-0600 (Central Standard Time),331346.0,A,but,O,t,284,1,4498.199999988079,326847.8000000119,7231,WL,A,12.0
2,58.08199977874756,learn,1918.0002212524414,Tue Nov 04 2025 12:20:58 GMT-0600 (Central Standard Time),331497.5,A,butt,O,t,142,1,4649.699999988079,326847.8000000119,7231,WL,A,12.0
2,58.246999979019165,learn,1753.000020980835,Tue Nov 04 2025 12:20:58 GMT-0600 (Central Standard Time),331662.0,A,butto,O,o,151,1,4814.199999988079,326847.8000000119,7231,WL,A,12.0
2,58.39699983596802,learn,1603.0001640319824,Tue Nov 04 2025 12:20:58 GMT-0600 (Central Standard Time),331812.2000000477,A,button,O,n,133,1,4964.400000035763,326847.8000000119,7231,WL,A,12.0
2,59.1969997882843,learn,803.0002117156982,Tue Nov 04 2025 12:20:58 GMT-0600 (Central Standard Time),332611.7000000477,A,buttonenter,O,enter,781,1,5763.900000035763,326847.8000000119,7231,WL,A,12.0
2,60.01300001144409,learn,-13.000011444091797,Tue Nov 04 2025 12:20:58 GMT-0600 (Central Standard Time),333428.0,A,None,O,None,811,1,816.0999999642372,332611.90000003576,7231,WL,A,13.0
3,2.865999937057495,learn,57134.000062942505,Tue Nov 04 2025 12:20:58 GMT-0600 (Central Standard Time),405138.5,A,m,O,m,2858,1,2865.7999999523163,402272.7000000477,7231,WL,A,1.0
3,3.0160000324249268,learn,56983.99996757507,Tue Nov 04 2025 12:20:58 GMT-0600 (Central Standard Time),405288.60000002384,A,me,O,e,145,1,3015.899999976158,402272.7000000477,7231,WL,A,1.0
3,3.1670000553131104,learn,56832.99994468689,Tue Nov 04 2025 12:20:58 GMT-0600 (Central Standard Time),405439.3000000119,A,mea,O,a,136,1,3166.599999964237,402272.7000000477,7231,WL,A,1.0
3,3.433000087738037,learn,56566.99991226196,Tue Nov 04 2025 12:20:58 GMT-0600 (Central Standard Time),405706.0,A,mead,O,d,250,1,3433.2999999523163,402272.7000000477,7231,WL,A,1.0
3,3.684000015258789,learn,56315.99998474121,Tue Nov 04 2025 12:20:58 GMT-0600 (Central Standard Time),405956.10000002384,A,meado,O,o,232,1,3683.399999976158,402272.7000000477,7231,WL,A,1.0
3,3.933000087738037,learn,56066.99991226196,Tue Nov 04 2025 12:20:58 GMT-0600 (Central Standard Time),406205.2000000477,A,meadow,O,w,228,1,3932.5,402272.7000000477,7231,WL,A,1.0
3,4.565999984741211,learn,55434.00001525879,Tue Nov 04 2025 12:20:58 GMT-0600 (Central Standard Time),406838.40000003576,A,meadowenter,O,enter,628,1,4565.699999988079,402272.7000000477,7231,WL,A,1.0
3,5.183000087738037,learn,54816.99991226196,Tue Nov 04 2025 12:20:58 GMT-0600 (Central Standard Time),407455.0,A,h,O,h,603,1,616.3999999761581,406838.60000002384,7231,WL,A,2.0
3,5.2820000648498535,learn,54717.99993515015,Tue Nov 04 2025 12:20:58 GMT-0600 (Central Standard Time),407554.40000003576,A,ha,O,a,91,1,715.8000000119209,406838.60000002384,7231,WL,A,2.0
3,5.497999906539917,learn,54502.00009346008,Tue Nov 04 2025 12:20:58 GMT-0600 (Central Standard Time),407770.8000000119,A,har,O,r,206,1,932.1999999880791,406838.60000002384,7231,WL,A,2.0
3,6.04800009727478,learn,53951.99990272522,Tue Nov 04 2025 12:20:58 GMT-0600 (Central Standard Time),408320.7000000477,A,harp,O,p,529,1,1482.1000000238419,406838.60000002384,7231,WL,A,2.0
3,6.615000009536743,learn,53384.99999046326,Tue Nov 04 2025 12:20:58 GMT-0600 (Central Standard Time),408887.7000000477,A,harpenter,O,enter,560,1,2049.100000023842,406838.60000002384,7231,WL,A,2.0
3,7.183000087738037,learn,52816.99991226196,Tue Nov 04 2025 12:20:58 GMT-0600 (Central Standard Time),409455.40000003576,A,s,O,s,546,1,567.4000000357628,408888.0,7231,WL,A,3.0
3,7.414999961853027,learn,52585.00003814697,Tue Nov 04 2025 12:20:58 GMT-0600 (Central Standard Time),409687.90000003576,A,sa,O,a,216,1,799.9000000357628,408888.0,7231,WL,A,3.0
3,7.765000104904175,learn,52234.999895095825,Tue Nov 04 2025 12:20:58 GMT-0600 (Central Standard Time),410037.10000002384,A,sal,O,l,329,1,1149.1000000238419,408888.0,7231,WL,A,3.0
3,7.947999954223633,learn,52052.00004577637,Tue Nov 04 2025 12:20:58 GMT-0600 (Central Standard Time),410220.0,A,salt,O,t,163,1,1332.0,408888.0,7231,WL,A,3.0
3,8.282000064849854,learn,51717.99993515015,Tue Nov 04 2025 12:20:58 GMT-0600 (Central Standard Time),410554.0,A,saltenter,O,enter,316,1,1666.0,408888.0,7231,WL,A,3.0
3,9.996999979019165,learn,50003.000020980835,Tue Nov 04 2025 12:20:58 GMT-0600 (Central Standard Time),412269.7000000477,A,c,O,c,1703,1,1715.5,410554.2000000477,7231,WL,A,4.0
3,10.564000129699707,learn,49435.99987030029,Tue Nov 04 2025 12:20:58 GMT-0600 (Central Standard Time),412836.60000002384,A,ch,O,h,556,1,2282.399999976158,410554.2000000477,7231,WL,A,4.0
3,10.77999997138977,learn,49220.00002861023,Tue Nov 04 2025 12:20:58 GMT-0600 (Central Standard Time),413052.7000000477,A,chi,O,i,204,1,2498.5,410554.2000000477,7231,WL,A,4.0
3,11.049000024795532,learn,48950.99997520447,Tue Nov 04 2025 12:20:58 GMT-0600 (Central Standard Time),413321.2000000477,A,chim,O,m,243,1,2767.0,410554.2000000477,7231,WL,A,4.0
3,11.29699993133545,learn,48703.00006866455,Tue Nov 04 2025 12:20:58 GMT-0600 (Central Standard Time),413569.5,A,chimn,O,n,231,1,3015.2999999523163,410554.2000000477,7231,WL,A,4.0
3,11.463000059127808,learn,48536.99994087219,Tue Nov 04 2025 12:20:58 GMT-0600 (Central Standard Time),413735.60000002384,A,chimne,O,e,151,1,3181.399999976158,410554.2000000477,7231,WL,A,4.0
3,11.781000137329102,learn,48218.9998626709,Tue Nov 04 2025 12:20:58 GMT-0600 (Central Standard Time),414053.5,A,chimney,O,y,296,1,3499.2999999523163,410554.2000000477,7231,WL,A,4.0
3,12.796000003814697,learn,47203.9999961853,Tue Nov 04 2025 12:20:58 GMT-0600 (Central Standard Time),415068.5,A,chimneyenter,O,enter,1003,1,4514.299999952316,410554.2000000477,7231,WL,A,4.0
3,13.180000066757202,learn,46819.9999332428,Tue Nov 04 2025 12:20:58 GMT-0600 (Central Standard Time),415452.0,A,g,O,g,365,1,383.19999998807907,415068.8000000119,7231,WL,A,5.0
3,13.345999956130981,learn,46654.00004386902,Tue Nov 04 2025 12:20:58 GMT-0600 (Central Standard Time),415618.40000003576,A,go,O,o,155,1,549.6000000238419,415068.8000000119,7231,WL,A,5.0
3,13.579999923706055,learn,46420.000076293945,Tue Nov 04 2025 12:20:58 GMT-0600 (Central Standard Time),415852.10000002384,A,gol,O,l,214,1,783.3000000119209,415068.8000000119,7231,WL,A,5.0
3,14.180000066757202,learn,45819.9999332428,Tue Nov 04 2025 12:20:58 GMT-0600 (Central Standard Time),416452.60000002384,A,gold,O,d,580,1,1383.800000011921,415068.8000000119,7231,WL,A,5.0
3,14.730000019073486,learn,45269.999980926514,Tue Nov 04 2025 12:20:58 GMT-0600 (Central Standard Time),417002.2000000477,A,goldenter,O,enter,532,1,1933.4000000357628,415068.8000000119,7231,WL,A,5.0
3,15.847000122070312,learn,44152.99987792969,Tue Nov 04 2025 12:20:58 GMT-0600 (Central Standard Time),418119.40000003576,A,f,O,f,1103,1,1117.0,417002.40000003576,7231,WL,A,6.0
3,16.013000011444092,learn,43986.99998855591,Tue Nov 04 2025 12:20:58 GMT-0600 (Central Standard Time),418286.2000000477,A,fi,O,i,152,1,1283.800000011921,417002.40000003576,7231,WL,A,6.0
3,16.111999988555908,learn,43888.00001144409,Tue Nov 04 2025 12:20:58 GMT-0600 (Central Standard Time),418384.90000003576,A,fin,O,n,85,1,1382.5,417002.40000003576,7231,WL,A,6.0
3,16.194000005722046,learn,43805.999994277954,Tue Nov 04 2025 12:20:58 GMT-0600 (Central Standard Time),418466.7000000477,A,fing,O,g,73,1,1464.300000011921,417002.40000003576,7231,WL,A,6.0
3,16.361999988555908,learn,43638.00001144409,Tue Nov 04 2025 12:20:58 GMT-0600 (Central Standard Time),418634.3000000119,A,finge,O,e,158,1,1631.8999999761581,417002.40000003576,7231,WL,A,6.0
3,16.463000059127808,learn,43536.99994087219,Tue Nov 04 2025 12:20:58 GMT-0600 (Central Standard Time),418735.8000000119,A,finger,O,r,85,1,1733.3999999761581,417002.40000003576,7231,WL,A,6.0
3,16.67900013923645,learn,43320.99986076355,Tue Nov 04 2025 12:20:58 GMT-0600 (Central Standard Time),418951.5,A,fingerenter,O,enter,200,1,1949.0999999642372,417002.40000003576,7231,WL,A,6.0
3,18.694999933242798,learn,41305.0000667572,Tue Nov 04 2025 12:20:58 GMT-0600 (Central Standard Time),420967.8000000119,A,f,O,f,1998,1,2016.0999999642372,418951.7000000477,7231,WL,A,7.0
3,18.776999950408936,learn,41223.000049591064,Tue Nov 04 2025 12:20:58 GMT-0600 (Central Standard Time),421049.90000003576,A,fl,O,l,69,1,2098.199999988079,418951.7000000477,7231,WL,A,7.0
3,18.99399995803833,learn,41006.00004196167,Tue Nov 04 2025 12:20:58 GMT-0600 (Central Standard Time),421266.8000000119,A,flo,O,o,207,1,2315.099999964237,418951.7000000477,7231,WL,A,7.0
3,19.094000101089478,learn,40905.99989891052,Tue Nov 04 2025 12:20:58 GMT-0600 (Central Standard Time),421366.5,A,flow,O,w,74,1,2414.7999999523163,418951.7000000477,7231,WL,A,7.0
3,19.311000108718872,learn,40688.99989128113,Tue Nov 04 2025 12:20:58 GMT-0600 (Central Standard Time),421583.40000003576,A,flowe,O,e,200,1,2631.699999988079,418951.7000000477,7231,WL,A,7.0
3,19.493000030517578,learn,40506.99996948242,Tue Nov 04 2025 12:20:58 GMT-0600 (Central Standard Time),421766.2000000477,A,flower,O,r,162,1,2814.5,418951.7000000477,7231,WL,A,7.0
3,20.30999994277954,learn,39690.00005722046,Tue Nov 04 2025 12:20:58 GMT-0600 (Central Standard Time),422582.90000003576,A,flowerenter,O,enter,810,1,3631.199999988079,418951.7000000477,7231,WL,A,7.0
3,21.628000020980835,learn,38371.999979019165,Tue Nov 04 2025 12:20:58 GMT-0600 (Central Standard Time),423901.0,A,b,O,b,1306,1,1317.8999999761581,422583.10000002384,7231,WL,A,8.0
3,21.74399995803833,learn,38256.00004196167,Tue Nov 04 2025 12:20:58 GMT-0600 (Central Standard Time),424016.2000000477,A,bu,O,u,97,1,1433.1000000238419,422583.10000002384,7231,WL,A,8.0
3,21.95900011062622,learn,38040.99988937378,Tue Nov 04 2025 12:20:58 GMT-0600 (Central Standard Time),424231.5,A,but,O,t,209,1,1648.3999999761581,422583.10000002384,7231,WL,A,8.0
3,22.10800004005432,learn,37891.99995994568,Tue Nov 04 2025 12:20:58 GMT-0600 (Central Standard Time),424380.90000003576,A,butt,O,t,138,1,1797.800000011921,422583.10000002384,7231,WL,A,8.0
3,22.30999994277954,learn,37690.00005722046,Tue Nov 04 2025 12:20:58 GMT-0600 (Central Standard Time),424583.2000000477,A,butto,O,o,198,1,2000.1000000238419,422583.10000002384,7231,WL,A,8.0
3,22.39400005340576,learn,37605.99994659424,Tue Nov 04 2025 12:20:58 GMT-0600 (Central Standard Time),424666.8000000119,A,button,O,n,73,1,2083.699999988079,422583.10000002384,7231,WL,A,8.0
3,22.759999990463257,learn,37240.00000953674,Tue Nov 04 2025 12:20:58 GMT-0600 (Central Standard Time),425032.5,A,buttonenter,O,enter,348,1,2449.399999976158,422583.10000002384,7231,WL,A,8.0
3,24.05900001525879,learn,35940.99998474121,Tue Nov 04 2025 12:20:58 GMT-0600 (Central Standard Time),426332.0,A,g,O,g,1280,1,1299.2999999523163,425032.7000000477,7231,WL,A,9.0
3,24.191999912261963,learn,35808.00008773804,Tue Nov 04 2025 12:20:58 GMT-0600 (Central Standard Time),426464.7000000477,A,go,O,o,114,1,1432.0,425032.7000000477,7231,WL,A,9.0
3,24.39300012588501,learn,35606.99987411499,Tue Nov 04 2025 12:20:58 GMT-0600 (Central Standard Time),426665.90000003576,A,gol,O,l,192,1,1633.199999988079,425032.7000000477,7231,WL,A,9.0
3,24.526000022888184,learn,35473.99997711182,Tue Nov 04 2025 12:20:58 GMT-0600 (Central Standard Time),426798.3000000119,A,gold,O,d,124,1,1765.5999999642372,425032.7000000477,7231,WL,A,9.0
3,24.7260000705719,learn,35273.9999294281,Tue Nov 04 2025 12:20:58 GMT-0600 (Central Standard Time),426998.90000003576,A,goldenter,O,enter,194,1,1966.199999988079,425032.7000000477,7231,WL,A,9.0
3,27.20799994468689,learn,32792.00005531311,Tue Nov 04 2025 12:20:58 GMT-0600 (Central Standard Time),429481.0,A,t,O,t,2466,1,2481.7999999523163,426999.2000000477,7231,WL,A,10.0
3,27.44099998474121,learn,32559.00001525879,Tue Nov 04 2025 12:20:58 GMT-0600 (Central Standard Time),429713.90000003576,A,tr,O,r,215,1,2714.699999988079,426999.2000000477,7231,WL,A,10.0
3,27.64300012588501,learn,32356.99987411499,Tue Nov 04 2025 12:20:58 GMT-0600 (Central Standard Time),429915.3000000119,A,tra,O,a,190,1,2916.099999964237,426999.2000000477,7231,WL,A,10.0
3,27.758000135421753,learn,32241.999864578247,Tue Nov 04 2025 12:20:58 GMT-0600 (Central Standard Time),430030.8000000119,A,trai,O,i,109,1,3031.599999964237,426999.2000000477,7231,WL,A,10.0
3,27.83999991416931,learn,32160.00008583069,Tue Nov 04 2025 12:20:58 GMT-0600 (Central Standard Time),430112.40000003576,A,train,O,n,75,1,3113.199999988079,426999.2000000477,7231,WL,A,10.0
3,28.223000049591064,learn,31776.999950408936,Tue Nov 04 2025 12:20:58 GMT-0600 (Central Standard Time),430495.90000003576,A,trainenter,O,enter,377,1,3496.699999988079,426999.2000000477,7231,WL,A,10.0
3,36.73799991607666,learn,23262.00008392334,Tue Nov 04 2025 12:20:58 GMT-0600 (Central Standard Time),439010.8000000119,A,s,O,s,8498,1,8514.599999964237,430496.2000000477,7231,WL,A,11.0
3,36.954999923706055,learn,23045.000076293945,Tue Nov 04 2025 12:20:58 GMT-0600 (Central Standard Time),439227.60000002384,A,sa,O,a,205,1,8731.399999976158,430496.2000000477,7231,WL,A,11.0
3,37.1560001373291,learn,22843.9998626709,Tue Nov 04 2025 12:20:58 GMT-0600 (Central Standard Time),439428.5,A,sal,O,l,185,1,8932.299999952316,430496.2000000477,7231,WL,A,11.0
3,37.342000007629395,learn,22657.999992370605,Tue Nov 04 2025 12:20:58 GMT-0600 (Central Standard Time),439614.5,A,salt,O,t,162,1,9118.299999952316,430496.2000000477,7231,WL,A,11.0
3,37.520999908447266,learn,22479.000091552734,Tue Nov 04 2025 12:20:58 GMT-0600 (Central Standard Time),439793.3000000119,A,saltenter,O,enter,168,1,9297.099999964237,430496.2000000477,7231,WL,A,11.0
3,42.170000076293945,learn,17829.999923706055,Tue Nov 04 2025 12:20:58 GMT-0600 (Central Standard Time),444443.10000002384,A,b,O,b,4641,1,4649.600000023842,439793.5,7231,WL,A,12.0
3,42.354000091552734,learn,17645.999908447266,Tue Nov 04 2025 12:20:58 GMT-0600 (Central Standard Time),444626.40000003576,A,bu,O,u,173,1,4832.900000035763,439793.5,7231,WL,A,12.0
3,42.53800010681152,learn,17461.999893188477,Tue Nov 04 2025 12:20:58 GMT-0600 (Central Standard Time),444810.2000000477,A,but,O,t,172,1,5016.700000047684,439793.5,7231,WL,A,12.0
3,42.687000036239624,learn,17312.999963760376,Tue Nov 04 2025 12:20:58 GMT-0600 (Central Standard Time),444959.5,A,butt,O,t,135,1,5166.0,439793.5,7231,WL,A,12.0
3,42.8529999256134,learn,17147.000074386597,Tue Nov 04 2025 12:20:58 GMT-0600 (Central Standard Time),445125.7000000477,A,butto,O,o,153,1,5332.200000047684,439793.5,7231,WL,A,12.0
3,42.97099995613098,learn,17029.00004386902,Tue Nov 04 2025 12:20:58 GMT-0600 (Central Standard Time),445243.3000000119,A,button,O,n,98,1,5449.800000011921,439793.5,7231,WL,A,12.0
3,43.37000012397766,learn,16629.99987602234,Tue Nov 04 2025 12:20:58 GMT-0600 (Central Standard Time),445642.5,A,buttonenter,O,enter,387,1,5849.0,439793.5,7231,WL,A,12.0
3,45.90300011634827,learn,14096.999883651733,Tue Nov 04 2025 12:20:58 GMT-0600 (Central Standard Time),448176.0,A,k,O,k,2517,1,2533.0,445643.0,7231,WL,A,13.0
3,46.03500008583069,learn,13964.999914169312,Tue Nov 04 2025 12:20:58 GMT-0600 (Central Standard Time),448307.8000000119,A,ke,O,e,119,1,2664.800000011921,445643.0,7231,WL,A,13.0
3,46.235000133514404,learn,13764.999866485596,Tue Nov 04 2025 12:20:58 GMT-0600 (Central Standard Time),448507.60000002384,A,key,O,y,188,1,2864.600000023842,445643.0,7231,WL,A,13.0
3,46.53500008583069,learn,13464.999914169312,Tue Nov 04 2025 12:20:58 GMT-0600 (Central Standard Time),448807.7000000477,A,keyenter,O,enter,291,1,3164.7000000476837,445643.0,7231,WL,A,13.0
3,58.48300004005432,learn,1516.9999599456787,Tue Nov 04 2025 12:20:58 GMT-0600 (Central Standard Time),460755.3000000119,A,l,O,l,11939,1,11947.399999976158,448807.90000003576,7231,WL,A,14.0
3,58.71399998664856,learn,1286.0000133514404,Tue Nov 04 2025 12:20:58 GMT-0600 (Central Standard Time),460986.90000003576,A,lo,O,o,214,1,12179.0,448807.90000003576,7231,WL,A,14.0
3,58.89800000190735,learn,1101.9999980926514,Tue Nov 04 2025 12:20:58 GMT-0600 (Central Standard Time),461171.2000000477,A,log,O,g,168,1,12363.300000011921,448807.90000003576,7231,WL,A,14.0
3,59.11500000953674,learn,884.9999904632568,Tue Nov 04 2025 12:20:58 GMT-0600 (Central Standard Time),461387.3000000119,A,logenter,O,enter,204,1,12579.399999976158,448807.90000003576,7231,WL,A,14.0
3,60.013999938964844,learn,-13.99993896484375,Tue Nov 04 2025 12:20:58 GMT-0600 (Central Standard Time),462287.10000002384,A,None,O,None,895,1,899.5,461387.60000002384,7231,WL,A,15.0
4,0.9170000553131104,learn,59082.99994468689,Tue Nov 04 2025 12:20:58 GMT-0600 (Central Standard Time),534647.0,A,a,O,a,911,1,916.5999999642372,533730.4000000358,7231,WL,A,1.0
4,1.1340000629425049,learn,58865.999937057495,Tue Nov 04 2025 12:20:58 GMT-0600 (Central Standard Time),534863.7000000477,A,ap,O,p,193,1,1133.300000011921,533730.4000000358,7231,WL,A,1.0
4,1.3350000381469727,learn,58664.99996185303,Tue Nov 04 2025 12:20:58 GMT-0600 (Central Standard Time),535064.7000000477,A,app,O,p,185,1,1334.300000011921,533730.4000000358,7231,WL,A,1.0
4,1.565999984741211,learn,58434.00001525879,Tue Nov 04 2025 12:20:58 GMT-0600 (Central Standard Time),535296.0,A,appl,O,l,225,1,1565.5999999642372,533730.4000000358,7231,WL,A,1.0
4,1.7009999752044678,learn,58299.00002479553,Tue Nov 04 2025 12:20:58 GMT-0600 (Central Standard Time),535431.0,A,apple,O,e,122,1,1700.5999999642372,533730.4000000358,7231,WL,A,1.0
4,2.316999912261963,learn,57683.00008773804,Tue Nov 04 2025 12:20:58 GMT-0600 (Central Standard Time),536047.0,A,appleenter,O,enter,602,1,2316.599999964237,533730.4000000358,7231,WL,A,1.0
4,2.750999927520752,learn,57249.00007247925,Tue Nov 04 2025 12:20:58 GMT-0600 (Central Standard Time),536480.5,A,g,O,g,427,1,433.19999998807907,536047.3000000119,7231,WL,A,2.0
4,3.1659998893737793,learn,56834.00011062622,Tue Nov 04 2025 12:20:58 GMT-0600 (Central Standard Time),536896.1000000238,A,go,O,o,399,1,848.8000000119209,536047.3000000119,7231,WL,A,2.0
4,3.3499999046325684,learn,56650.00009536743,Tue Nov 04 2025 12:20:58 GMT-0600 (Central Standard Time),537080.2000000477,A,goo,O,o,177,1,1032.9000000357628,536047.3000000119,7231,WL,A,2.0
4,3.617000102996826,learn,56382.999897003174,Tue Nov 04 2025 12:20:58 GMT-0600 (Central Standard Time),537346.8000000119,A,gook,O,k,246,1,1299.5,536047.3000000119,7231,WL,A,2.0
4,4.384000062942505,learn,55615.999937057495,Tue Nov 04 2025 12:20:58 GMT-0600 (Central Standard Time),538114.3000000119,A,goo,O,backspace,757,1,2067.0,536047.3000000119,7231,WL,A,2.0
4,4.598999977111816,learn,55401.00002288818,Tue Nov 04 2025 12:20:58 GMT-0600 (Central Standard Time),538328.9000000358,A,go,O,backspace,204,1,2281.600000023842,536047.3000000119,7231,WL,A,2.0
4,4.7829999923706055,learn,55217.000007629395,Tue Nov 04 2025 12:20:58 GMT-0600 (Central Standard Time),538513.5,A,g,O,backspace,168,1,2466.199999988079,536047.3000000119,7231,WL,A,2.0
4,4.934000015258789,learn,55065.99998474121,Tue Nov 04 2025 12:20:58 GMT-0600 (Central Standard Time),538664.2000000477,A,,O,backspace,141,1,2616.900000035763,536047.3000000119,7231,WL,A,2.0
4,5.117000102996826,learn,54882.999897003174,Tue Nov 04 2025 12:20:58 GMT-0600 (Central Standard Time),538847.2000000477,A,b,O,b,158,1,2799.900000035763,536047.3000000119,7231,WL,A,2.0
4,5.415999889373779,learn,54584.00011062622,Tue Nov 04 2025 12:20:58 GMT-0600 (Central Standard Time),539146.0,A,bo,O,o,288,1,3098.699999988079,536047.3000000119,7231,WL,A,2.0
4,5.648999929428101,learn,54351.0000705719,Tue Nov 04 2025 12:20:58 GMT-0600 (Central Standard Time),539379.4000000358,A,boo,O,o,222,1,3332.100000023842,536047.3000000119,7231,WL,A,2.0
4,5.917999982833862,learn,54082.00001716614,Tue Nov 04 2025 12:20:58 GMT-0600 (Central Standard Time),539648.5,A,book,O,k,262,1,3601.199999988079,536047.3000000119,7231,WL,A,2.0
4,6.66700005531311,learn,53332.99994468689,Tue Nov 04 2025 12:20:58 GMT-0600 (Central Standard Time),540396.6000000238,A,bookenter,O,enter,727,1,4349.300000011921,536047.3000000119,7231,WL,A,2.0
4,7.114000082015991,learn,52885.99991798401,Tue Nov 04 2025 12:20:58 GMT-0600 (Central Standard Time),540844.3000000119,A,f,O,f,429,1,447.5999999642372,540396.7000000477,7231,WL,A,3.0
4,7.265000104904175,learn,52734.999895095825,Tue Nov 04 2025 12:20:58 GMT-0600 (Central Standard Time),540995.1000000238,A,fi,O,i,141,1,598.3999999761581,540396.7000000477,7231,WL,A,3.0
4,7.367000102996826,learn,52632.999897003174,Tue Nov 04 2025 12:20:58 GMT-0600 (Central Standard Time),541097.0,A,fin,O,n,96,1,700.2999999523163,540396.7000000477,7231,WL,A,3.0
4,7.482000112533569,learn,52517.99988746643,Tue Nov 04 2025 12:20:58 GMT-0600 (Central Standard Time),541211.6000000238,A,fing,O,g,102,1,814.8999999761581,540396.7000000477,7231,WL,A,3.0
4,7.681999921798706,learn,52318.000078201294,Tue Nov 04 2025 12:20:58 GMT-0600 (Central Standard Time),541412.4000000358,A,finge,O,e,181,1,1015.6999999880791,540396.7000000477,7231,WL,A,3.0
4,7.766999959945679,learn,52233.00004005432,Tue Nov 04 2025 12:20:58 GMT-0600 (Central Standard Time),541497.1000000238,A,finger,O,r,67,1,1100.3999999761581,540396.7000000477,7231,WL,A,3.0
4,8.515000104904175,learn,51484.999895095825,Tue Nov 04 2025 12:20:58 GMT-0600 (Central Standard Time),542245.0,A,fingerenter,O,enter,728,1,1848.2999999523163,540396.7000000477,7231,WL,A,3.0
4,10.164999961853027,learn,49835.00003814697,Tue Nov 04 2025 12:20:58 GMT-0600 (Central Standard Time),543895.4000000358,A,f,O,f,1636,1,1650.1000000238419,542245.3000000119,7231,WL,A,4.0
4,10.33400011062622,learn,49665.99988937378,Tue Nov 04 2025 12:20:58 GMT-0600 (Central Standard Time),544064.1000000238,A,fl,O,l,144,1,1818.800000011921,542245.3000000119,7231,WL,A,4.0
4,10.532000064849854,learn,49467.99993515015,Tue Nov 04 2025 12:20:58 GMT-0600 (Central Standard Time),544261.6000000238,A,flo,O,o,182,1,2016.300000011921,542245.3000000119,7231,WL,A,4.0
4,10.630000114440918,learn,49369.99988555908,Tue Nov 04 2025 12:20:58 GMT-0600 (Central Standard Time),544360.2000000477,A,flow,O,w,82,1,2114.900000035763,542245.3000000119,7231,WL,A,4.0
4,10.749000072479248,learn,49250.99992752075,Tue Nov 04 2025 12:20:58 GMT-0600 (Central Standard Time),544479.5,A,flowe,O,e,105,1,2234.199999988079,542245.3000000119,7231,WL,A,4.0
4,10.930999994277954,learn,49069.000005722046,Tue Nov 04 2025 12:20:58 GMT-0600 (Central Standard Time),544660.7000000477,A,flower,O,r,159,1,2415.400000035763,542245.3000000119,7231,WL,A,4.0
4,11.680000066757202,learn,48319.9999332428,Tue Nov 04 2025 12:20:58 GMT-0600 (Central Standard Time),545410.4000000358,A,flowerenter,O,enter,739,1,3165.100000023842,542245.3000000119,7231,WL,A,4.0
4,13.263000011444092,learn,46736.99998855591,Tue Nov 04 2025 12:20:58 GMT-0600 (Central Standard Time),546992.8000000119,A,r,O,r,1575,1,1582.199999988079,545410.6000000238,7231,WL,A,5.0
4,13.598000049591064,learn,46401.999950408936,Tue Nov 04 2025 12:20:58 GMT-0600 (Central Standard Time),547328.0,A,ru,O,u,311,1,1917.3999999761581,545410.6000000238,7231,WL,A,5.0
4,13.763000011444092,learn,46236.99998855591,Tue Nov 04 2025 12:20:58 GMT-0600 (Central Standard Time),547493.4000000358,A,rug,O,g,154,1,2082.800000011921,545410.6000000238,7231,WL,A,5.0
4,14.345999956130981,learn,45654.00004386902,Tue Nov 04 2025 12:20:58 GMT-0600 (Central Standard Time),548076.4000000358,A,rugenter,O,enter,561,1,2665.800000011921,545410.6000000238,7231,WL,A,5.0
4,14.845999956130981,learn,45154.00004386902,Tue Nov 04 2025 12:20:58 GMT-0600 (Central Standard Time),548575.8000000119,A,r,O,r,486,1,499.0999999642372,548076.7000000477,7231,WL,A,6.0
4,15.082000017166138,learn,44917.99998283386,Tue Nov 04 2025 12:20:58 GMT-0600 (Central Standard Time),548812.4000000358,A,ra,O,a,211,1,735.6999999880791,548076.7000000477,7231,WL,A,6.0
4,15.345999956130981,learn,44654.00004386902,Tue Nov 04 2025 12:20:58 GMT-0600 (Central Standard Time),549076.0,A,rat,O,t,252,1,999.2999999523163,548076.7000000477,7231,WL,A,6.0
4,15.513999938964844,learn,44486.000061035156,Tue Nov 04 2025 12:20:58 GMT-0600 (Central Standard Time),549244.2000000477,A,ratt,O,t,149,1,1167.5,548076.7000000477,7231,WL,A,6.0
4,15.796000003814697,learn,44203.9999961853,Tue Nov 04 2025 12:20:58 GMT-0600 (Central Standard Time),549525.8000000119,A,rattl,O,l,260,1,1449.0999999642372,548076.7000000477,7231,WL,A,6.0
4,15.930000066757202,learn,44069.9999332428,Tue Nov 04 2025 12:20:58 GMT-0600 (Central Standard Time),549660.0,A,rattle,O,e,123,1,1583.2999999523163,548076.7000000477,7231,WL,A,6.0
4,17.82800006866455,learn,42171.99993133545,Tue Nov 04 2025 12:20:58 GMT-0600 (Central Standard Time),551558.0,A,rattleenter,O,enter,1882,1,3481.2999999523163,548076.7000000477,7231,WL,A,6.0
4,19.84500002861023,learn,40154.99997138977,Tue Nov 04 2025 12:20:58 GMT-0600 (Central Standard Time),553575.4000000358,A,l,O,l,2014,1,2017.1000000238419,551558.3000000119,7231,WL,A,7.0
4,20.045000076293945,learn,39954.999923706055,Tue Nov 04 2025 12:20:58 GMT-0600 (Central Standard Time),553775.1000000238,A,lo,O,o,192,1,2216.800000011921,551558.3000000119,7231,WL,A,7.0
4,20.194000005722046,learn,39805.999994277954,Tue Nov 04 2025 12:20:58 GMT-0600 (Central Standard Time),553924.6000000238,A,log,O,g,129,1,2366.300000011921,551558.3000000119,7231,WL,A,7.0
4,20.528000116348267,learn,39471.99988365173,Tue Nov 04 2025 12:20:58 GMT-0600 (Central Standard Time),554258.0,A,logenter,O,enter,315,1,2699.699999988079,551558.3000000119,7231,WL,A,7.0
4,20.944000005722046,learn,39055.999994277954,Tue Nov 04 2025 12:20:58 GMT-0600 (Central Standard Time),554674.1000000238,A,k,O,k,400,1,415.89999997615814,554258.2000000477,7231,WL,A,8.0
4,21.061000108718872,learn,38938.99989128113,Tue Nov 04 2025 12:20:58 GMT-0600 (Central Standard Time),554790.7000000477,A,ke,O,e,108,1,532.5,554258.2000000477,7231,WL,A,8.0
4,21.776999950408936,learn,38223.000049591064,Tue Nov 04 2025 12:20:58 GMT-0600 (Central Standard Time),555507.4000000358,A,key,O,y,708,1,1249.199999988079,554258.2000000477,7231,WL,A,8.0
4,22.276000022888184,learn,37723.99997711182,Tue Nov 04 2025 12:20:58 GMT-0600 (Central Standard Time),556006.5,A,keyenter,O,enter,485,1,1748.2999999523163,554258.2000000477,7231,WL,A,8.0
4,23.028000116348267,learn,36971.99988365173,Tue Nov 04 2025 12:20:58 GMT-0600 (Central Standard Time),556758.3000000119,A,h,O,h,731,1,751.5,556006.8000000119,7231,WL,A,9.0
4,23.14400005340576,learn,36855.99994659424,Tue Nov 04 2025 12:20:58 GMT-0600 (Central Standard Time),556873.9000000358,A,ha,O,a,106,1,867.1000000238419,556006.8000000119,7231,WL,A,9.0
4,23.375999927520752,learn,36624.00007247925,Tue Nov 04 2025 12:20:58 GMT-0600 (Central Standard Time),557106.2000000477,A,har,O,r,222,1,1099.4000000357628,556006.8000000119,7231,WL,A,9.0
4,24.158999919891357,learn,35841.00008010864,Tue Nov 04 2025 12:20:58 GMT-0600 (Central Standard Time),557889.4000000358,A,harp,O,p,773,1,1882.6000000238419,556006.8000000119,7231,WL,A,9.0
4,25.210000038146973,learn,34789.99996185303,Tue Nov 04 2025 12:20:58 GMT-0600 (Central Standard Time),558939.9000000358,A,harpenter,O,enter,1040,1,2933.100000023842,556006.8000000119,7231,WL,A,9.0
4,26.677000045776367,learn,33322.99995422363,Tue Nov 04 2025 12:20:58 GMT-0600 (Central Standard Time),560406.6000000238,A,b,O,b,1445,1,1466.3999999761581,558940.2000000477,7231,WL,A,10.0
4,26.842999935150146,learn,33157.00006484985,Tue Nov 04 2025 12:20:58 GMT-0600 (Central Standard Time),560573.2000000477,A,bu,O,u,144,1,1633.0,558940.2000000477,7231,WL,A,10.0
4,27.125,learn,32875.0,Tue Nov 04 2025 12:20:58 GMT-0600 (Central Standard Time),560855.4000000358,A,but,O,t,265,1,1915.199999988079,558940.2000000477,7231,WL,A,10.0
4,27.30900001525879,learn,32690.99998474121,Tue Nov 04 2025 12:20:58 GMT-0600 (Central Standard Time),561039.4000000358,A,butt,O,t,161,1,2099.199999988079,558940.2000000477,7231,WL,A,10.0
4,27.49399995803833,learn,32506.00004196167,Tue Nov 04 2025 12:20:58 GMT-0600 (Central Standard Time),561223.7000000477,A,butto,O,o,179,1,2283.5,558940.2000000477,7231,WL,A,10.0
4,27.575999975204468,learn,32424.000024795532,Tue Nov 04 2025 12:20:58 GMT-0600 (Central Standard Time),561305.7000000477,A,button,O,n,74,1,2365.5,558940.2000000477,7231,WL,A,10.0
4,28.641000032424927,learn,31358.999967575073,Tue Nov 04 2025 12:20:58 GMT-0600 (Central Standard Time),562370.8000000119,A,buttonenter,O,enter,1046,1,3430.599999964237,558940.2000000477,7231,WL,A,10.0
4,39.22200012207031,learn,20777.999877929688,Tue Nov 04 2025 12:20:58 GMT-0600 (Central Standard Time),572952.3000000119,A,s,O,s,10574,1,10581.300000011921,562371.0,7231,WL,A,11.0
4,39.454999923706055,learn,20545.000076293945,Tue Nov 04 2025 12:20:58 GMT-0600 (Central Standard Time),573184.8000000119,A,sa,O,a,210,1,10813.800000011921,562371.0,7231,WL,A,11.0
4,39.67199993133545,learn,20328.00006866455,Tue Nov 04 2025 12:20:58 GMT-0600 (Central Standard Time),573401.9000000358,A,sal,O,l,201,1,11030.900000035763,562371.0,7231,WL,A,11.0
4,39.82299995422363,learn,20177.000045776367,Tue Nov 04 2025 12:20:58 GMT-0600 (Central Standard Time),573553.3000000119,A,sale,O,e,146,1,11182.300000011921,562371.0,7231,WL,A,11.0
4,40.437999963760376,learn,19562.000036239624,Tue Nov 04 2025 12:20:58 GMT-0600 (Central Standard Time),574168.0,A,sal,O,backspace,598,1,11797.0,562371.0,7231,WL,A,11.0
4,40.57100009918213,learn,19428.99990081787,Tue Nov 04 2025 12:20:58 GMT-0600 (Central Standard Time),574301.2000000477,A,salt,O,t,111,1,11930.200000047684,562371.0,7231,WL,A,11.0
4,40.9210000038147,learn,19078.999996185303,Tue Nov 04 2025 12:20:58 GMT-0600 (Central Standard Time),574651.3000000119,A,saltenter,O,enter,332,1,12280.300000011921,562371.0,7231,WL,A,11.0
4,43.4210000038147,learn,16578.999996185303,Tue Nov 04 2025 12:20:58 GMT-0600 (Central Standard Time),577151.2000000477,A,g,O,g,2495,1,2499.600000023842,574651.6000000238,7231,WL,A,12.0
4,43.5699999332428,learn,16430.000066757202,Tue Nov 04 2025 12:20:58 GMT-0600 (Central Standard Time),577300.4000000358,A,go,O,o,128,1,2648.800000011921,574651.6000000238,7231,WL,A,12.0
4,43.770999908447266,learn,16229.000091552734,Tue Nov 04 2025 12:20:58 GMT-0600 (Central Standard Time),577500.9000000358,A,gol,O,l,187,1,2849.300000011921,574651.6000000238,7231,WL,A,12.0
4,43.920000076293945,learn,16079.999923706055,Tue Nov 04 2025 12:20:58 GMT-0600 (Central Standard Time),577650.5,A,gold,O,d,131,1,2998.899999976158,574651.6000000238,7231,WL,A,12.0
4,44.15899991989136,learn,15841.000080108643,Tue Nov 04 2025 12:20:58 GMT-0600 (Central Standard Time),577889.0,A,goldenter,O,enter,233,1,3237.399999976158,574651.6000000238,7231,WL,A,12.0
4,46.18600010871887,learn,13813.999891281128,Tue Nov 04 2025 12:20:58 GMT-0600 (Central Standard Time),579915.9000000358,A,k,O,k,2018,1,2026.699999988079,577889.2000000477,7231,WL,A,13.0
4,46.38700008392334,learn,13612.99991607666,Tue Nov 04 2025 12:20:58 GMT-0600 (Central Standard Time),580116.6000000238,A,ke,O,e,181,1,2227.399999976158,577889.2000000477,7231,WL,A,13.0
4,46.65300011634827,learn,13346.999883651733,Tue Nov 04 2025 12:20:58 GMT-0600 (Central Standard Time),580383.6000000238,A,key,O,y,245,1,2494.399999976158,577889.2000000477,7231,WL,A,13.0
4,47.25200009346008,learn,12747.999906539917,Tue Nov 04 2025 12:20:58 GMT-0600 (Central Standard Time),580981.6000000238,A,keyenter,O,enter,575,1,3092.399999976158,577889.2000000477,7231,WL,A,13.0
4,47.918999910354614,learn,12081.000089645386,Tue Nov 04 2025 12:20:58 GMT-0600 (Central Standard Time),581648.6000000238,A,l,O,l,653,1,666.8000000119209,580981.8000000119,7231,WL,A,14.0
4,48.151999950408936,learn,11848.000049591064,Tue Nov 04 2025 12:20:58 GMT-0600 (Central Standard Time),581882.1000000238,A,lo,O,o,215,1,900.3000000119209,580981.8000000119,7231,WL,A,14.0
4,48.234999895095825,learn,11765.000104904175,Tue Nov 04 2025 12:20:58 GMT-0600 (Central Standard Time),581965.0,A,log,O,g,69,1,983.1999999880791,580981.8000000119,7231,WL,A,14.0
4,49.63499999046326,learn,10365.000009536743,Tue Nov 04 2025 12:20:58 GMT-0600 (Central Standard Time),583365.1000000238,A,logenter,O,enter,1382,1,2383.300000011921,580981.8000000119,7231,WL,A,14.0
4,57.26600003242493,learn,2733.9999675750732,Tue Nov 04 2025 12:20:58 GMT-0600 (Central Standard Time),590996.3000000119,A,t,O,t,7613,1,7630.899999976158,583365.4000000358,7231,WL,A,15.0
4,57.48200011253357,learn,2517.9998874664307,Tue Nov 04 2025 12:20:58 GMT-0600 (Central Standard Time),591212.6000000238,A,tr,O,r,197,1,7847.199999988079,583365.4000000358,7231,WL,A,15.0
4,57.75,learn,2250.0,Tue Nov 04 2025 12:20:58 GMT-0600 (Central Standard Time),591480.4000000358,A,tra,O,a,252,1,8115.0,583365.4000000358,7231,WL,A,15.0
4,57.91599988937378,learn,2084.0001106262207,Tue Nov 04 2025 12:20:58 GMT-0600 (Central Standard Time),591645.6000000238,A,trai,O,i,160,1,8280.199999988079,583365.4000000358,7231,WL,A,15.0
4,58.01600003242493,learn,1983.9999675750732,Tue Nov 04 2025 12:20:58 GMT-0600 (Central Standard Time),591745.6000000238,A,train,O,n,92,1,8380.199999988079,583365.4000000358,7231,WL,A,15.0
4,58.83200001716614,learn,1167.9999828338623,Tue Nov 04 2025 12:20:58 GMT-0600 (Central Standard Time),592562.3000000119,A,trainenter,O,enter,800,1,9196.899999976158,583365.4000000358,7231,WL,A,15.0
5,1.315000057220459,learn,60000.0,Tue Nov 04 2025 12:20:58 GMT-0600 (Central Standard Time),667120.8000000119,A,b,O,b,1301,1,1315.800000011921,665805.0,7231,WL,A,1.0
5,1.5169999599456787,learn,60000.0,Tue Nov 04 2025 12:20:58 GMT-0600 (Central Standard Time),667322.3000000119,A,bo,O,o,193,1,1517.300000011921,665805.0,7231,WL,A,1.0
5,1.7159998416900635,learn,60000.0,Tue Nov 04 2025 12:20:58 GMT-0600 (Central Standard Time),667521.3000000119,A,boo,O,o,183,1,1716.300000011921,665805.0,7231,WL,A,1.0
5,1.8989999294281006,learn,60000.0,Tue Nov 04 2025 12:20:58 GMT-0600 (Central Standard Time),667704.5,A,book,O,k,173,1,1899.5,665805.0,7231,WL,A,1.0
5,2.9659998416900635,learn,60000.0,Tue Nov 04 2025 12:20:58 GMT-0600 (Central Standard Time),668771.1000000238,A,bookenter,O,enter,1057,1,2966.100000023842,665805.0,7231,WL,A,1.0
5,4.264999866485596,learn,60000.0,Tue Nov 04 2025 12:20:58 GMT-0600 (Central Standard Time),670070.7000000477,A,f,O,f,1286,1,1299.300000011921,668771.4000000358,7231,WL,A,2.0
5,4.431999921798706,learn,60000.0,Tue Nov 04 2025 12:20:58 GMT-0600 (Central Standard Time),670237.6000000238,A,fi,O,i,141,1,1466.199999988079,668771.4000000358,7231,WL,A,2.0
5,4.5329999923706055,learn,60000.0,Tue Nov 04 2025 12:20:58 GMT-0600 (Central Standard Time),670338.2000000477,A,fin,O,n,90,1,1566.800000011921,668771.4000000358,7231,WL,A,2.0
5,4.615000009536743,learn,60000.0,Tue Nov 04 2025 12:20:58 GMT-0600 (Central Standard Time),670420.7000000477,A,fing,O,g,67,1,1649.300000011921,668771.4000000358,7231,WL,A,2.0
5,4.749000072479248,learn,60000.0,Tue Nov 04 2025 12:20:58 GMT-0600 (Central Standard Time),670554.7000000477,A,finge,O,e,126,1,1783.300000011921,668771.4000000358,7231,WL,A,2.0
5,4.865999937057495,learn,60000.0,Tue Nov 04 2025 12:20:58 GMT-0600 (Central Standard Time),670671.3000000119,A,finger,O,r,109,1,1899.8999999761581,668771.4000000358,7231,WL,A,2.0
5,5.73199987411499,learn,60000.0,Tue Nov 04 2025 12:20:58 GMT-0600 (Central Standard Time),671537.1000000238,A,fingerenter,O,enter,846,1,2765.699999988079,668771.4000000358,7231,WL,A,2.0
5,6.648000001907349,learn,60000.0,Tue Nov 04 2025 12:20:58 GMT-0600 (Central Standard Time),672453.5,A,f,O,f,910,1,916.1999999880791,671537.3000000119,7231,WL,A,3.0
5,6.863999843597412,learn,60000.0,Tue Nov 04 2025 12:20:58 GMT-0600 (Central Standard Time),672669.8000000119,A,fl,O,l,197,1,1132.5,671537.3000000119,7231,WL,A,3.0
5,7.065000057220459,learn,60000.0,Tue Nov 04 2025 12:20:58 GMT-0600 (Central Standard Time),672869.9000000358,A,flo,O,o,178,1,1332.6000000238419,671537.3000000119,7231,WL,A,3.0
5,7.197000026702881,learn,60000.0,Tue Nov 04 2025 12:20:58 GMT-0600 (Central Standard Time),673002.9000000358,A,flow,O,w,122,1,1465.6000000238419,671537.3000000119,7231,WL,A,3.0
5,7.2829999923706055,learn,60000.0,Tue Nov 04 2025 12:20:58 GMT-0600 (Central Standard Time),673088.6000000238,A,flowe,O,e,74,1,1551.300000011921,671537.3000000119,7231,WL,A,3.0
5,7.447999954223633,learn,60000.0,Tue Nov 04 2025 12:20:58 GMT-0600 (Central Standard Time),673253.1000000238,A,flower,O,r,143,1,1715.800000011921,671537.3000000119,7231,WL,A,3.0
5,9.04699993133545,learn,60000.0,Tue Nov 04 2025 12:20:58 GMT-0600 (Central Standard Time),674852.6000000238,A,flowerenter,O,enter,1577,1,3315.300000011921,671537.3000000119,7231,WL,A,3.0
5,10.480000019073486,learn,60000.0,Tue Nov 04 2025 12:20:58 GMT-0600 (Central Standard Time),676285.6000000238,A,m,O,m,1413,1,1432.699999988079,674852.9000000358,7231,WL,A,4.0
5,10.812999963760376,learn,60000.0,Tue Nov 04 2025 12:20:58 GMT-0600 (Central Standard Time),676618.5,A,me,O,e,312,1,1765.5999999642372,674852.9000000358,7231,WL,A,4.0
5,11.065000057220459,learn,60000.0,Tue Nov 04 2025 12:20:58 GMT-0600 (Central Standard Time),676870.4000000358,A,mea,O,a,233,1,2017.5,674852.9000000358,7231,WL,A,4.0
5,11.330999851226807,learn,60000.0,Tue Nov 04 2025 12:20:58 GMT-0600 (Central Standard Time),677136.4000000358,A,mead,O,d,249,1,2283.5,674852.9000000358,7231,WL,A,4.0
5,11.595999956130981,learn,60000.0,Tue Nov 04 2025 12:20:58 GMT-0600 (Central Standard Time),677401.4000000358,A,meado,O,o,253,1,2548.5,674852.9000000358,7231,WL,A,4.0
5,11.744999885559082,learn,60000.0,Tue Nov 04 2025 12:20:58 GMT-0600 (Central Standard Time),677550.8000000119,A,meadow,O,w,132,1,2697.899999976158,674852.9000000358,7231,WL,A,4.0
5,13.128999948501587,learn,60000.0,Tue Nov 04 2025 12:20:58 GMT-0600 (Central Standard Time),678934.9000000358,A,meadowenter,O,enter,1380,1,4082.0,674852.9000000358,7231,WL,A,4.0
5,14.128999948501587,learn,60000.0,Tue Nov 04 2025 12:20:58 GMT-0600 (Central Standard Time),679934.2000000477,A,c,O,c,986,1,999.1000000238419,678935.1000000238,7231,WL,A,5.0
5,14.444999933242798,learn,60000.0,Tue Nov 04 2025 12:20:58 GMT-0600 (Central Standard Time),680250.4000000358,A,ch,O,h,298,1,1315.300000011921,678935.1000000238,7231,WL,A,5.0
5,14.711999893188477,learn,60000.0,Tue Nov 04 2025 12:20:58 GMT-0600 (Central Standard Time),680517.7000000477,A,chi,O,i,242,1,1582.6000000238419,678935.1000000238,7231,WL,A,5.0
5,14.944999933242798,learn,60000.0,Tue Nov 04 2025 12:20:58 GMT-0600 (Central Standard Time),680750.5,A,chim,O,m,225,1,1815.3999999761581,678935.1000000238,7231,WL,A,5.0
5,15.19599986076355,learn,60000.0,Tue Nov 04 2025 12:20:58 GMT-0600 (Central Standard Time),681001.1000000238,A,chimn,O,n,233,1,2066.0,678935.1000000238,7231,WL,A,5.0
5,15.34500002861023,learn,60000.0,Tue Nov 04 2025 12:20:58 GMT-0600 (Central Standard Time),681150.5,A,chimne,O,e,135,1,2215.399999976158,678935.1000000238,7231,WL,A,5.0
5,15.6489999294281,learn,60000.0,Tue Nov 04 2025 12:20:58 GMT-0600 (Central Standard Time),681455.1000000238,A,chimney,O,y,285,1,2520.0,678935.1000000238,7231,WL,A,5.0
5,16.361000061035156,learn,60000.0,Tue Nov 04 2025 12:20:58 GMT-0600 (Central Standard Time),682166.4000000358,A,chimneyenter,O,enter,704,1,3231.300000011921,678935.1000000238,7231,WL,A,5.0
5,16.680000066757202,learn,60000.0,Tue Nov 04 2025 12:20:58 GMT-0600 (Central Standard Time),682485.0,A,a,O,a,299,1,318.39999997615814,682166.6000000238,7231,WL,A,6.0
5,17.027999877929688,learn,60000.0,Tue Nov 04 2025 12:20:58 GMT-0600 (Central Standard Time),682833.2000000477,A,ap,O,p,339,1,666.6000000238419,682166.6000000238,7231,WL,A,6.0
5,17.210999965667725,learn,60000.0,Tue Nov 04 2025 12:20:58 GMT-0600 (Central Standard Time),683016.5,A,app,O,p,171,1,849.8999999761581,682166.6000000238,7231,WL,A,6.0
5,17.444999933242798,learn,60000.0,Tue Nov 04 2025 12:20:58 GMT-0600 (Central Standard Time),683250.1000000238,A,appl,O,l,211,1,1083.5,682166.6000000238,7231,WL,A,6.0
5,17.59500002861023,learn,60000.0,Tue Nov 04 2025 12:20:58 GMT-0600 (Central Standard Time),683400.8000000119,A,apple,O,e,143,1,1234.199999988079,682166.6000000238,7231,WL,A,6.0
5,19.01099991798401,learn,60000.0,Tue Nov 04 2025 12:20:58 GMT-0600 (Central Standard Time),684816.2000000477,A,appleenter,O,enter,1399,1,2649.600000023842,682166.6000000238,7231,WL,A,6.0
5,20.543999910354614,learn,60000.0,Tue Nov 04 2025 12:20:58 GMT-0600 (Central Standard Time),686349.4000000358,A,l,O,l,1513,1,1532.9000000357628,684816.5,7231,WL,A,7.0
5,20.759999990463257,learn,60000.0,Tue Nov 04 2025 12:20:58 GMT-0600 (Central Standard Time),686565.9000000358,A,lo,O,o,200,1,1749.4000000357628,684816.5,7231,WL,A,7.0
5,20.878000020980835,learn,60000.0,Tue Nov 04 2025 12:20:58 GMT-0600 (Central Standard Time),686683.9000000358,A,log,O,g,96,1,1867.4000000357628,684816.5,7231,WL,A,7.0
5,21.14199995994568,learn,60000.0,Tue Nov 04 2025 12:20:58 GMT-0600 (Central Standard Time),686947.9000000358,A,logenter,O,enter,246,1,2131.400000035763,684816.5,7231,WL,A,7.0
5,21.64299988746643,learn,60000.0,Tue Nov 04 2025 12:20:58 GMT-0600 (Central Standard Time),687448.1000000238,A,g,O,g,485,1,500.0,686948.1000000238,7231,WL,A,8.0
5,21.842999935150146,learn,60000.0,Tue Nov 04 2025 12:20:58 GMT-0600 (Central Standard Time),687648.3000000119,A,go,O,o,182,1,700.1999999880791,686948.1000000238,7231,WL,A,8.0
5,22.092999935150146,learn,60000.0,Tue Nov 04 2025 12:20:58 GMT-0600 (Central Standard Time),687898.5,A,gol,O,l,227,1,950.3999999761581,686948.1000000238,7231,WL,A,8.0
5,22.24399995803833,learn,60000.0,Tue Nov 04 2025 12:20:58 GMT-0600 (Central Standard Time),688049.5,A,gold,O,d,134,1,1101.3999999761581,686948.1000000238,7231,WL,A,8.0
5,22.609999895095825,learn,60000.0,Tue Nov 04 2025 12:20:58 GMT-0600 (Central Standard Time),688415.2000000477,A,goldenter,O,enter,359,1,1467.1000000238419,686948.1000000238,7231,WL,A,8.0
5,23.024999856948853,learn,60000.0,Tue Nov 04 2025 12:20:58 GMT-0600 (Central Standard Time),688830.8000000119,A,k,O,k,408,1,415.0999999642372,688415.7000000477,7231,WL,A,9.0
5,23.192999839782715,learn,60000.0,Tue Nov 04 2025 12:20:58 GMT-0600 (Central Standard Time),688998.7000000477,A,ke,O,e,148,1,583.0,688415.7000000477,7231,WL,A,9.0
5,23.39299988746643,learn,60000.0,Tue Nov 04 2025 12:20:58 GMT-0600 (Central Standard Time),689198.2000000477,A,key,O,y,188,1,782.5,688415.7000000477,7231,WL,A,9.0
5,23.741999864578247,learn,60000.0,Tue Nov 04 2025 12:20:58 GMT-0600 (Central Standard Time),689547.8000000119,A,keyenter,O,enter,330,1,1132.0999999642372,688415.7000000477,7231,WL,A,9.0
5,27.907999992370605,learn,60000.0,Tue Nov 04 2025 12:20:58 GMT-0600 (Central Standard Time),693713.1000000238,A,h,O,h,4151,1,4165.100000023842,689548.0,7231,WL,A,10.0
5,27.990999937057495,learn,60000.0,Tue Nov 04 2025 12:20:58 GMT-0600 (Central Standard Time),693796.0,A,ha,O,a,70,1,4248.0,689548.0,7231,WL,A,10.0
5,28.54200005531311,learn,60000.0,Tue Nov 04 2025 12:20:58 GMT-0600 (Central Standard Time),694347.0,A,har,O,r,532,1,4799.0,689548.0,7231,WL,A,10.0
5,28.924999952316284,learn,60000.0,Tue Nov 04 2025 12:20:58 GMT-0600 (Central Standard Time),694729.9000000358,A,harp,O,p,366,1,5181.900000035763,689548.0,7231,WL,A,10.0
5,29.973999977111816,learn,60000.0,Tue Nov 04 2025 12:20:58 GMT-0600 (Central Standard Time),695779.6000000238,A,harpenter,O,enter,1031,1,6231.600000023842,689548.0,7231,WL,A,10.0
5,41.835999965667725,learn,60000.0,Tue Nov 04 2025 12:20:58 GMT-0600 (Central Standard Time),707641.5,A,b,O,b,11855,1,11861.699999988079,695779.8000000119,7231,WL,A,11.0
5,42.03699994087219,learn,60000.0,Tue Nov 04 2025 12:20:58 GMT-0600 (Central Standard Time),707842.1000000238,A,bu,O,u,191,1,12062.300000011921,695779.8000000119,7231,WL,A,11.0
5,42.28699994087219,learn,60000.0,Tue Nov 04 2025 12:20:58 GMT-0600 (Central Standard Time),708092.4000000358,A,but,O,t,238,1,12312.600000023842,695779.8000000119,7231,WL,A,11.0
5,42.45199990272522,learn,60000.0,Tue Nov 04 2025 12:20:58 GMT-0600 (Central Standard Time),708257.8000000119,A,butt,O,t,157,1,12478.0,695779.8000000119,7231,WL,A,11.0
5,42.63699984550476,learn,60000.0,Tue Nov 04 2025 12:20:58 GMT-0600 (Central Standard Time),708442.4000000358,A,butto,O,o,167,1,12662.600000023842,695779.8000000119,7231,WL,A,11.0
5,42.734999895095825,learn,60000.0,Tue Nov 04 2025 12:20:58 GMT-0600 (Central Standard Time),708540.7000000477,A,button,O,n,78,1,12760.900000035763,695779.8000000119,7231,WL,A,11.0
5,43.4689998626709,learn,60000.0,Tue Nov 04 2025 12:20:58 GMT-0600 (Central Standard Time),709274.2000000477,A,buttonenter,O,enter,726,1,13494.400000035763,695779.8000000119,7231,WL,A,11.0
5,54.96499991416931,learn,60000.0,Tue Nov 04 2025 12:20:58 GMT-0600 (Central Standard Time),720771.0,A,l,O,l,11479,1,11496.599999964237,709274.4000000358,7231,WL,A,12.0
5,55.200000047683716,learn,60000.0,Tue Nov 04 2025 12:20:58 GMT-0600 (Central Standard Time),721005.2000000477,A,lo,O,o,214,1,11730.800000011921,709274.4000000358,7231,WL,A,12.0
5,55.34999990463257,learn,60000.0,Tue Nov 04 2025 12:20:58 GMT-0600 (Central Standard Time),721155.2000000477,A,log,O,g,131,1,11880.800000011921,709274.4000000358,7231,WL,A,12.0
5,55.532999992370605,learn,60000.0,Tue Nov 04 2025 12:20:58 GMT-0600 (Central Standard Time),721338.0,A,logenter,O,enter,174,1,12063.599999964237,709274.4000000358,7231,WL,A,12.0
5,58.56500005722046,learn,60000.0,Tue Nov 04 2025 12:20:58 GMT-0600 (Central Standard Time),724370.2000000477,A,f,O,f,3024,1,3031.900000035763,721338.3000000119,7231,WL,A,13.0
5,58.71499991416931,learn,60000.0,Tue Nov 04 2025 12:20:58 GMT-0600 (Central Standard Time),724520.8000000119,A,fi,O,i,145,1,3182.5,721338.3000000119,7231,WL,A,13.0
5,58.81399989128113,learn,60000.0,Tue Nov 04 2025 12:20:58 GMT-0600 (Central Standard Time),724619.7000000477,A,fin,O,n,80,1,3281.400000035763,721338.3000000119,7231,WL,A,13.0
5,58.86500000953674,learn,60000.0,Tue Nov 04 2025 12:20:58 GMT-0600 (Central Standard Time),724670.1000000238,A,fing,O,g,43,1,3331.800000011921,721338.3000000119,7231,WL,A,13.0
5,58.99799990653992,learn,60000.0,Tue Nov 04 2025 12:20:58 GMT-0600 (Central Standard Time),724804.0,A,finge,O,e,124,1,3465.699999988079,721338.3000000119,7231,WL,A,13.0
5,59.13199996948242,learn,60000.0,Tue Nov 04 2025 12:20:58 GMT-0600 (Central Standard Time),724937.0,A,finger,O,r,118,1,3598.699999988079,721338.3000000119,7231,WL,A,13.0
5,59.31399989128113,learn,60000.0,Tue Nov 04 2025 12:20:58 GMT-0600 (Central Standard Time),725119.3000000119,A,fingerenter,O,enter,166,1,3781.0,721338.3000000119,7231,WL,A,13.0
5,63.02999997138977,learn,60000.0,Tue Nov 04 2025 12:20:58 GMT-0600 (Central Standard Time),728835.1000000238,A,s,O,s,3697,1,3715.5,725119.6000000238,7231,WL,A,14.0
6,0.7660000324249268,distr,59233.99996757507,Tue Nov 04 2025 12:20:58 GMT-0600 (Central Standard Time),808776.3000000119,B,p,O,p,748,1,765.8000000119209,808010.5,7231,WL,A,1.0
6,1.1000001430511475,distr,58899.99985694885,Tue Nov 04 2025 12:20:58 GMT-0600 (Central Standard Time),809110.9000000358,B,po,O,o,323,1,1100.4000000357628,808010.5,7231,WL,A,1.0
6,1.2990000247955322,distr,58700.99997520447,Tue Nov 04 2025 12:20:58 GMT-0600 (Central Standard Time),809310.0,B,poo,O,o,185,1,1299.5,808010.5,7231,WL,A,1.0
6,1.5160000324249268,distr,58483.99996757507,Tue Nov 04 2025 12:20:58 GMT-0600 (Central Standard Time),809527.1000000238,B,pool,O,l,210,1,1516.6000000238419,808010.5,7231,WL,A,1.0
6,2.1660001277923584,distr,57833.99987220764,Tue Nov 04 2025 12:20:58 GMT-0600 (Central Standard Time),810176.4000000358,B,poolenter,O,enter,641,1,2165.900000035763,808010.5,7231,WL,A,1.0
6,2.684000015258789,distr,57315.99998474121,Tue Nov 04 2025 12:20:58 GMT-0600 (Central Standard Time),810695.1000000238,B,s,O,s,505,1,518.3999999761581,810176.7000000477,7231,WL,A,2.0
6,2.9650001525878906,distr,57034.99984741211,Tue Nov 04 2025 12:20:58 GMT-0600 (Central Standard Time),810976.0,B,se,O,e,274,1,799.2999999523163,810176.7000000477,7231,WL,A,2.0
6,3.131999969482422,distr,56868.00003051758,Tue Nov 04 2025 12:20:58 GMT-0600 (Central Standard Time),811142.6000000238,B,see,O,e,158,1,965.8999999761581,810176.7000000477,7231,WL,A,2.0
6,3.5320000648498535,distr,56467.99993515015,Tue Nov 04 2025 12:20:58 GMT-0600 (Central Standard Time),811542.8000000119,B,seed,O,d,395,1,1366.0999999642372,810176.7000000477,7231,WL,A,2.0
6,4.748000144958496,distr,55251.999855041504,Tue Nov 04 2025 12:20:58 GMT-0600 (Central Standard Time),812758.6000000238,B,seedenter,O,enter,1201,1,2581.899999976158,810176.7000000477,7231,WL,A,2.0
6,5.3480000495910645,distr,54651.999950408936,Tue Nov 04 2025 12:20:58 GMT-0600 (Central Standard Time),813359.1000000238,B,b,O,b,595,1,600.1999999880791,812758.9000000358,7231,WL,A,3.0
6,5.614000082015991,distr,54385.99991798401,Tue Nov 04 2025 12:20:58 GMT-0600 (Central Standard Time),813624.4000000358,B,be,O,e,256,1,865.5,812758.9000000358,7231,WL,A,3.0
6,5.765000104904175,distr,54234.999895095825,Tue Nov 04 2025 12:20:58 GMT-0600 (Central Standard Time),813775.6000000238,B,bea,O,a,146,1,1016.6999999880791,812758.9000000358,7231,WL,A,3.0
6,5.982000112533569,distr,54017.99988746643,Tue Nov 04 2025 12:20:58 GMT-0600 (Central Standard Time),813993.0,B,beac,O,c,203,1,1234.0999999642372,812758.9000000358,7231,WL,A,3.0
6,6.5320000648498535,distr,53467.99993515015,Tue Nov 04 2025 12:20:58 GMT-0600 (Central Standard Time),814542.8000000119,B,bea,O,backspace,546,1,1783.8999999761581,812758.9000000358,7231,WL,A,3.0
6,6.746999979019165,distr,53253.000020980835,Tue Nov 04 2025 12:20:58 GMT-0600 (Central Standard Time),814757.9000000358,B,be,O,backspace,210,1,1999.0,812758.9000000358,7231,WL,A,3.0
6,6.930999994277954,distr,53069.000005722046,Tue Nov 04 2025 12:20:58 GMT-0600 (Central Standard Time),814942.0,B,b,O,backspace,164,1,2183.099999964237,812758.9000000358,7231,WL,A,3.0
6,7.079999923706055,distr,52920.000076293945,Tue Nov 04 2025 12:20:58 GMT-0600 (Central Standard Time),815090.6000000238,B,,O,backspace,141,1,2331.699999988079,812758.9000000358,7231,WL,A,3.0
6,7.664999961853027,distr,52335.00003814697,Tue Nov 04 2025 12:20:58 GMT-0600 (Central Standard Time),815675.1000000238,B,p,O,p,574,1,2916.199999988079,812758.9000000358,7231,WL,A,3.0
6,7.8470001220703125,distr,52152.99987792969,Tue Nov 04 2025 12:20:58 GMT-0600 (Central Standard Time),815857.7000000477,B,pe,O,e,165,1,3098.800000011921,812758.9000000358,7231,WL,A,3.0
6,7.947000026702881,distr,52052.99997329712,Tue Nov 04 2025 12:20:58 GMT-0600 (Central Standard Time),815958.0,B,pea,O,a,80,1,3199.099999964237,812758.9000000358,7231,WL,A,3.0
6,8.52999997138977,distr,51470.00002861023,Tue Nov 04 2025 12:20:58 GMT-0600 (Central Standard Time),816541.1000000238,B,peac,O,c,565,1,3782.199999988079,812758.9000000358,7231,WL,A,3.0
6,8.69700002670288,distr,51302.99997329712,Tue Nov 04 2025 12:20:58 GMT-0600 (Central Standard Time),816707.2000000477,B,peach,O,h,149,1,3948.300000011921,812758.9000000358,7231,WL,A,3.0
6,9.628999948501587,distr,50371.00005149841,Tue Nov 04 2025 12:20:58 GMT-0600 (Central Standard Time),817639.6000000238,B,peachenter,O,enter,925,1,4880.699999988079,812758.9000000358,7231,WL,A,3.0
6,13.229000091552734,distr,46770.999908447266,Tue Nov 04 2025 12:20:58 GMT-0600 (Central Standard Time),821240.0,B,b,O,b,3588,1,3600.199999988079,817639.8000000119,7231,WL,A,4.0
6,13.396000146865845,distr,46603.999853134155,Tue Nov 04 2025 12:20:58 GMT-0600 (Central Standard Time),821406.7000000477,B,bo,O,o,147,1,3766.900000035763,817639.8000000119,7231,WL,A,4.0
6,13.611999988555908,distr,46388.00001144409,Tue Nov 04 2025 12:20:58 GMT-0600 (Central Standard Time),821622.5,B,bot,O,t,203,1,3982.699999988079,817639.8000000119,7231,WL,A,4.0
6,13.779000043869019,distr,46220.99995613098,Tue Nov 04 2025 12:20:58 GMT-0600 (Central Standard Time),821790.1000000238,B,bott,O,t,153,1,4150.300000011921,817639.8000000119,7231,WL,A,4.0
6,13.980999946594238,distr,46019.00005340576,Tue Nov 04 2025 12:20:58 GMT-0600 (Central Standard Time),821991.4000000358,B,bottl,O,l,195,1,4351.600000023842,817639.8000000119,7231,WL,A,4.0
6,14.144999980926514,distr,45855.000019073486,Tue Nov 04 2025 12:20:58 GMT-0600 (Central Standard Time),822156.0,B,bottle,O,e,144,1,4516.199999988079,817639.8000000119,7231,WL,A,4.0
6,15.245000123977661,distr,44754.99987602234,Tue Nov 04 2025 12:20:58 GMT-0600 (Central Standard Time),823255.2000000477,B,bottleenter,O,enter,1084,1,5615.400000035763,817639.8000000119,7231,WL,A,4.0
6,16.028000116348267,distr,43971.99988365173,Tue Nov 04 2025 12:20:58 GMT-0600 (Central Standard Time),824038.8000000119,B,p,O,p,778,1,783.3000000119209,823255.5,7231,WL,A,5.0
6,16.32800006866455,distr,43671.99993133545,Tue Nov 04 2025 12:20:58 GMT-0600 (Central Standard Time),824338.9000000358,B,po,O,o,282,1,1083.4000000357628,823255.5,7231,WL,A,5.0
6,16.51099991798401,distr,43489.00008201599,Tue Nov 04 2025 12:20:58 GMT-0600 (Central Standard Time),824521.5,B,poo,O,o,173,1,1266.0,823255.5,7231,WL,A,5.0
6,16.76200008392334,distr,43237.99991607666,Tue Nov 04 2025 12:20:58 GMT-0600 (Central Standard Time),824772.8000000119,B,pool,O,l,240,1,1517.300000011921,823255.5,7231,WL,A,5.0
6,17.894999980926514,distr,42105.000019073486,Tue Nov 04 2025 12:20:58 GMT-0600 (Central Standard Time),825905.9000000358,B,poo,O,backspace,1126,1,2650.400000035763,823255.5,7231,WL,A,5.0
6,19.460000038146973,distr,40539.99996185303,Tue Nov 04 2025 12:20:58 GMT-0600 (Central Standard Time),827470.9000000358,B,pool,O,l,1560,1,4215.400000035763,823255.5,7231,WL,A,5.0
6,19.99399995803833,distr,40006.00004196167,Tue Nov 04 2025 12:20:58 GMT-0600 (Central Standard Time),828004.4000000358,B,poolenter,O,enter,522,1,4748.900000035763,823255.5,7231,WL,A,5.0
6,60.013999938964844,distr,-13.99993896484375,Tue Nov 04 2025 12:20:58 GMT-0600 (Central Standard Time),868024.4000000358,B,None,O,None,40015,1,40019.69999998808,828004.7000000477,7231,WL,A,6.0
7,4.766999959945679,immed,55233.00004005432,Tue Nov 04 2025 12:20:58 GMT-0600 (Central Standard Time),888585.3000000119,A,f,O,f,4751,1,4765.899999976158,883819.4000000358,7231,WL,A,1.0
7,4.915999889373779,immed,55084.00011062622,Tue Nov 04 2025 12:20:58 GMT-0600 (Central Standard Time),888734.8000000119,A,fi,O,i,144,1,4915.399999976158,883819.4000000358,7231,WL,A,1.0
7,5.0320000648498535,immed,54967.99993515015,Tue Nov 04 2025 12:20:58 GMT-0600 (Central Standard Time),888850.5,A,fin,O,n,97,1,5031.099999964237,883819.4000000358,7231,WL,A,1.0
7,5.080999851226807,immed,54919.00014877319,Tue Nov 04 2025 12:20:58 GMT-0600 (Central Standard Time),888900.2000000477,A,fing,O,g,29,1,5080.800000011921,883819.4000000358,7231,WL,A,1.0
7,5.230999946594238,immed,54769.00005340576,Tue Nov 04 2025 12:20:58 GMT-0600 (Central Standard Time),889049.3000000119,A,finge,O,e,133,1,5229.899999976158,883819.4000000358,7231,WL,A,1.0
7,5.3480000495910645,immed,54651.999950408936,Tue Nov 04 2025 12:20:58 GMT-0600 (Central Standard Time),889167.1000000238,A,finger,O,r,98,1,5347.699999988079,883819.4000000358,7231,WL,A,1.0
7,6.266000032424927,immed,53733.99996757507,Tue Nov 04 2025 12:20:58 GMT-0600 (Central Standard Time),890084.5,A,fingerenter,O,enter,908,1,6265.099999964237,883819.4000000358,7231,WL,A,1.0
7,7.047999858856201,immed,52952.0001411438,Tue Nov 04 2025 12:20:58 GMT-0600 (Central Standard Time),890866.7000000477,A,m,O,m,773,1,781.7000000476837,890085.0,7231,WL,A,2.0
7,7.2159998416900635,immed,52784.00015830994,Tue Nov 04 2025 12:20:58 GMT-0600 (Central Standard Time),891034.3000000119,A,me,O,e,156,1,949.3000000119209,890085.0,7231,WL,A,2.0
7,7.3480000495910645,immed,52651.999950408936,Tue Nov 04 2025 12:20:58 GMT-0600 (Central Standard Time),891167.0,A,mea,O,a,128,1,1082.0,890085.0,7231,WL,A,2.0
7,7.615000009536743,immed,52384.99999046326,Tue Nov 04 2025 12:20:58 GMT-0600 (Central Standard Time),891434.1000000238,A,mead,O,d,259,1,1349.1000000238419,890085.0,7231,WL,A,2.0
7,7.881999969482422,immed,52118.00003051758,Tue Nov 04 2025 12:20:58 GMT-0600 (Central Standard Time),891700.7000000477,A,meado,O,o,249,1,1615.7000000476837,890085.0,7231,WL,A,2.0
7,8.04699993133545,immed,51953.00006866455,Tue Nov 04 2025 12:20:58 GMT-0600 (Central Standard Time),891866.0,A,meadow,O,w,158,1,1781.0,890085.0,7231,WL,A,2.0
7,8.547999858856201,immed,51452.0001411438,Tue Nov 04 2025 12:20:58 GMT-0600 (Central Standard Time),892366.8000000119,A,meadowenter,O,enter,487,1,2281.800000011921,890085.0,7231,WL,A,2.0
7,10.865000009536743,immed,49134.99999046326,Tue Nov 04 2025 12:20:58 GMT-0600 (Central Standard Time),894683.3000000119,A,g,O,g,2308,1,2316.300000011921,892367.0,7231,WL,A,3.0
7,10.978999853134155,immed,49021.000146865845,Tue Nov 04 2025 12:20:58 GMT-0600 (Central Standard Time),894798.0,A,go,O,o,102,1,2431.0,892367.0,7231,WL,A,3.0
7,11.19700002670288,immed,48802.99997329712,Tue Nov 04 2025 12:20:58 GMT-0600 (Central Standard Time),895016.2000000477,A,gol,O,l,205,1,2649.2000000476837,892367.0,7231,WL,A,3.0
7,11.346999883651733,immed,48653.00011634827,Tue Nov 04 2025 12:20:58 GMT-0600 (Central Standard Time),895165.9000000358,A,gold,O,d,135,1,2798.900000035763,892367.0,7231,WL,A,3.0
7,11.579999923706055,immed,48420.000076293945,Tue Nov 04 2025 12:20:58 GMT-0600 (Central Standard Time),895399.0,A,goldenter,O,enter,218,1,3032.0,892367.0,7231,WL,A,3.0
7,11.929999828338623,immed,48070.00017166138,Tue Nov 04 2025 12:20:58 GMT-0600 (Central Standard Time),895748.4000000358,A,l,O,l,337,1,349.19999998807907,895399.2000000477,7231,WL,A,4.0
7,12.182999849319458,immed,47817.00015068054,Tue Nov 04 2025 12:20:58 GMT-0600 (Central Standard Time),896001.8000000119,A,lo,O,o,245,1,602.5999999642372,895399.2000000477,7231,WL,A,4.0
7,12.38100004196167,immed,47618.99995803833,Tue Nov 04 2025 12:20:58 GMT-0600 (Central Standard Time),896199.5,A,log,O,g,174,1,800.2999999523163,895399.2000000477,7231,WL,A,4.0
7,12.896999835968018,immed,47103.00016403198,Tue Nov 04 2025 12:20:58 GMT-0600 (Central Standard Time),896715.5,A,logenter,O,enter,498,1,1316.2999999523163,895399.2000000477,7231,WL,A,4.0
7,15.34500002861023,immed,44654.99997138977,Tue Nov 04 2025 12:20:58 GMT-0600 (Central Standard Time),899164.3000000119,A,r,O,r,2438,1,2448.599999964237,896715.7000000477,7231,WL,A,5.0
7,15.544999837875366,immed,44455.000162124634,Tue Nov 04 2025 12:20:58 GMT-0600 (Central Standard Time),899364.0,A,ra,O,a,180,1,2648.2999999523163,896715.7000000477,7231,WL,A,5.0
7,15.812999963760376,immed,44187.000036239624,Tue Nov 04 2025 12:20:58 GMT-0600 (Central Standard Time),899631.9000000358,A,rat,O,t,253,1,2916.199999988079,896715.7000000477,7231,WL,A,5.0
7,15.977999925613403,immed,44022.0000743866,Tue Nov 04 2025 12:20:58 GMT-0600 (Central Standard Time),899797.3000000119,A,ratt,O,t,153,1,3081.599999964237,896715.7000000477,7231,WL,A,5.0
7,16.544999837875366,immed,43455.000162124634,Tue Nov 04 2025 12:20:58 GMT-0600 (Central Standard Time),900363.4000000358,A,rattl,O,l,549,1,3647.699999988079,896715.7000000477,7231,WL,A,5.0
7,16.66100001335144,immed,43338.99998664856,Tue Nov 04 2025 12:20:58 GMT-0600 (Central Standard Time),900479.7000000477,A,rattle,O,e,103,1,3764.0,896715.7000000477,7231,WL,A,5.0
7,17.543999910354614,immed,42456.000089645386,Tue Nov 04 2025 12:20:58 GMT-0600 (Central Standard Time),901362.6000000238,A,rattleenter,O,enter,867,1,4646.899999976158,896715.7000000477,7231,WL,A,5.0
7,19.32699990272522,immed,40673.00009727478,Tue Nov 04 2025 12:20:58 GMT-0600 (Central Standard Time),903146.1000000238,A,b,O,b,1766,1,1783.199999988079,901362.9000000358,7231,WL,A,6.0
7,19.509999990463257,immed,40490.00000953674,Tue Nov 04 2025 12:20:58 GMT-0600 (Central Standard Time),903328.9000000358,A,bu,O,u,167,1,1966.0,901362.9000000358,7231,WL,A,6.0
7,19.727999925613403,immed,40272.0000743866,Tue Nov 04 2025 12:20:58 GMT-0600 (Central Standard Time),903546.7000000477,A,but,O,t,206,1,2183.800000011921,901362.9000000358,7231,WL,A,6.0
7,19.927000045776367,immed,40072.99995422363,Tue Nov 04 2025 12:20:58 GMT-0600 (Central Standard Time),903745.8000000119,A,butt,O,t,189,1,2382.899999976158,901362.9000000358,7231,WL,A,6.0
7,20.14299988746643,immed,39857.00011253357,Tue Nov 04 2025 12:20:58 GMT-0600 (Central Standard Time),903962.0,A,butto,O,o,207,1,2599.099999964237,901362.9000000358,7231,WL,A,6.0
7,20.310999870300293,immed,39689.00012969971,Tue Nov 04 2025 12:20:58 GMT-0600 (Central Standard Time),904129.8000000119,A,button,O,n,159,1,2766.899999976158,901362.9000000358,7231,WL,A,6.0
7,21.991999864578247,immed,38008.00013542175,Tue Nov 04 2025 12:20:58 GMT-0600 (Central Standard Time),905811.3000000119,A,buttonenter,O,enter,1672,1,4448.399999976158,901362.9000000358,7231,WL,A,6.0
7,23.461999893188477,immed,36538.00010681152,Tue Nov 04 2025 12:20:58 GMT-0600 (Central Standard Time),907280.8000000119,A,m,O,m,1453,1,1469.300000011921,905811.5,7231,WL,A,7.0
7,23.542999982833862,immed,36457.00001716614,Tue Nov 04 2025 12:20:58 GMT-0600 (Central Standard Time),907361.8000000119,A,me,O,e,73,1,1550.300000011921,905811.5,7231,WL,A,7.0
7,23.658999919891357,immed,36341.00008010864,Tue Nov 04 2025 12:20:58 GMT-0600 (Central Standard Time),907477.6000000238,A,mea,O,a,110,1,1666.1000000238419,905811.5,7231,WL,A,7.0
7,23.875,immed,36125.0,Tue Nov 04 2025 12:20:58 GMT-0600 (Central Standard Time),907694.0,A,mead,O,d,204,1,1882.5,905811.5,7231,WL,A,7.0
7,24.05999994277954,immed,35940.00005722046,Tue Nov 04 2025 12:20:58 GMT-0600 (Central Standard Time),907878.7000000477,A,meado,O,o,173,1,2067.2000000476837,905811.5,7231,WL,A,7.0
7,24.157999992370605,immed,35842.000007629395,Tue Nov 04 2025 12:20:58 GMT-0600 (Central Standard Time),907977.3000000119,A,meadow,O,w,91,1,2165.800000011921,905811.5,7231,WL,A,7.0
7,24.442999839782715,immed,35557.000160217285,Tue Nov 04 2025 12:20:58 GMT-0600 (Central Standard Time),908261.8000000119,A,meadowenter,O,enter,262,1,2450.300000011921,905811.5,7231,WL,A,7.0
7,26.792999982833862,immed,33207.00001716614,Tue Nov 04 2025 12:20:58 GMT-0600 (Central Standard Time),910611.5,A,f,O,f,2340,1,2349.5,908262.0,7231,WL,A,8.0
7,27.14299988746643,immed,32857.00011253357,Tue Nov 04 2025 12:20:58 GMT-0600 (Central Standard Time),910962.0,A,fl,O,l,343,1,2700.0,908262.0,7231,WL,A,8.0
7,27.37399983406067,immed,32626.00016593933,Tue Nov 04 2025 12:20:58 GMT-0600 (Central Standard Time),911193.3000000119,A,flo,O,o,221,1,2931.300000011921,908262.0,7231,WL,A,8.0
7,27.875999927520752,immed,32124.000072479248,Tue Nov 04 2025 12:20:58 GMT-0600 (Central Standard Time),911694.9000000358,A,flow,O,w,496,1,3432.900000035763,908262.0,7231,WL,A,8.0
7,27.97599983215332,immed,32024.00016784668,Tue Nov 04 2025 12:20:58 GMT-0600 (Central Standard Time),911794.4000000358,A,flowe,O,e,89,1,3532.400000035763,908262.0,7231,WL,A,8.0
7,28.125999927520752,immed,31874.000072479248,Tue Nov 04 2025 12:20:58 GMT-0600 (Central Standard Time),911944.5,A,flower,O,r,129,1,3682.5,908262.0,7231,WL,A,8.0
7,28.47499990463257,immed,31525.00009536743,Tue Nov 04 2025 12:20:58 GMT-0600 (Central Standard Time),912293.8000000119,A,flowerenter,O,enter,336,1,4031.800000011921,908262.0,7231,WL,A,8.0
7,28.859999895095825,immed,31140.000104904175,Tue Nov 04 2025 12:20:58 GMT-0600 (Central Standard Time),912678.5,A,b,O,b,373,1,384.5,912294.0,7231,WL,A,9.0
7,29.0239999294281,immed,30976.0000705719,Tue Nov 04 2025 12:20:58 GMT-0600 (Central Standard Time),912842.6000000238,A,bo,O,o,146,1,548.6000000238419,912294.0,7231,WL,A,9.0
7,29.20799994468689,immed,30792.00005531311,Tue Nov 04 2025 12:20:58 GMT-0600 (Central Standard Time),913027.0,A,boo,O,o,167,1,733.0,912294.0,7231,WL,A,9.0
7,29.407999992370605,immed,30592.000007629395,Tue Nov 04 2025 12:20:58 GMT-0600 (Central Standard Time),913226.8000000119,A,book,O,k,182,1,932.8000000119209,912294.0,7231,WL,A,9.0
7,29.990999937057495,immed,30009.000062942505,Tue Nov 04 2025 12:20:58 GMT-0600 (Central Standard Time),913809.8000000119,A,bookenter,O,enter,565,1,1515.800000011921,912294.0,7231,WL,A,9.0
7,35.10699987411499,immed,24893.00012588501,Tue Nov 04 2025 12:20:58 GMT-0600 (Central Standard Time),918925.6000000238,A,g,O,g,5097,1,5115.600000023842,913810.0,7231,WL,A,10.0
7,35.23899984359741,immed,24761.000156402588,Tue Nov 04 2025 12:20:58 GMT-0600 (Central Standard Time),919057.7000000477,A,go,O,o,124,1,5247.700000047684,913810.0,7231,WL,A,10.0
7,35.45599985122681,immed,24544.000148773193,Tue Nov 04 2025 12:20:58 GMT-0600 (Central Standard Time),919275.4000000358,A,gol,O,l,205,1,5465.400000035763,913810.0,7231,WL,A,10.0
7,35.58999991416931,immed,24410.00008583069,Tue Nov 04 2025 12:20:58 GMT-0600 (Central Standard Time),919408.9000000358,A,gold,O,d,126,1,5598.900000035763,913810.0,7231,WL,A,10.0
7,35.85599994659424,immed,24144.00005340576,Tue Nov 04 2025 12:20:58 GMT-0600 (Central Standard Time),919674.9000000358,A,goldenter,O,enter,248,1,5864.900000035763,913810.0,7231,WL,A,10.0
7,36.473999977111816,immed,23526.000022888184,Tue Nov 04 2025 12:20:58 GMT-0600 (Central Standard Time),920292.9000000358,A,l,O,l,599,1,617.6999999880791,919675.2000000477,7231,WL,A,11.0
7,36.67199993133545,immed,23328.00006866455,Tue Nov 04 2025 12:20:58 GMT-0600 (Central Standard Time),920490.5,A,lo,O,o,188,1,815.2999999523163,919675.2000000477,7231,WL,A,11.0
7,36.82200002670288,immed,23177.99997329712,Tue Nov 04 2025 12:20:58 GMT-0600 (Central Standard Time),920641.2000000477,A,log,O,g,143,1,966.0,919675.2000000477,7231,WL,A,11.0
7,37.32099986076355,immed,22679.00013923645,Tue Nov 04 2025 12:20:58 GMT-0600 (Central Standard Time),921139.7000000477,A,logenter,O,enter,481,1,1464.5,919675.2000000477,7231,WL,A,11.0
7,40.98899984359741,immed,19011.000156402588,Tue Nov 04 2025 12:20:58 GMT-0600 (Central Standard Time),924807.8000000119,A,k,O,k,3664,1,3667.899999976158,921139.9000000358,7231,WL,A,12.0
7,41.17199993133545,immed,18828.00006866455,Tue Nov 04 2025 12:20:58 GMT-0600 (Central Standard Time),924990.8000000119,A,ke,O,e,162,1,3850.899999976158,921139.9000000358,7231,WL,A,12.0
7,41.353999853134155,immed,18646.000146865845,Tue Nov 04 2025 12:20:58 GMT-0600 (Central Standard Time),925173.2000000477,A,key,O,y,169,1,4033.300000011921,921139.9000000358,7231,WL,A,12.0
7,41.73799991607666,immed,18262.00008392334,Tue Nov 04 2025 12:20:58 GMT-0600 (Central Standard Time),925556.8000000119,A,keyenter,O,enter,371,1,4416.899999976158,921139.9000000358,7231,WL,A,12.0
7,42.388999938964844,immed,17611.000061035156,Tue Nov 04 2025 12:20:58 GMT-0600 (Central Standard Time),926207.9000000358,A,s,O,s,637,1,651.0,925556.9000000358,7231,WL,A,13.0
7,42.65499997138977,immed,17345.00002861023,Tue Nov 04 2025 12:20:58 GMT-0600 (Central Standard Time),926473.5,A,sa,O,a,247,1,916.5999999642372,925556.9000000358,7231,WL,A,13.0
7,42.83699989318848,immed,17163.000106811523,Tue Nov 04 2025 12:20:58 GMT-0600 (Central Standard Time),926656.0,A,sal,O,l,176,1,1099.0999999642372,925556.9000000358,7231,WL,A,13.0
7,43.11999988555908,immed,16880.000114440918,Tue Nov 04 2025 12:20:58 GMT-0600 (Central Standard Time),926939.1000000238,A,salt,O,t,262,1,1382.199999988079,925556.9000000358,7231,WL,A,13.0
7,43.38599991798401,immed,16614.00008201599,Tue Nov 04 2025 12:20:58 GMT-0600 (Central Standard Time),927204.3000000119,A,saltenter,O,enter,244,1,1647.3999999761581,925556.9000000358,7231,WL,A,13.0
7,54.01699995994568,immed,5983.000040054321,Tue Nov 04 2025 12:20:58 GMT-0600 (Central Standard Time),937835.5,A,r,O,r,10621,1,10630.899999976158,927204.6000000238,7231,WL,A,14.0
7,54.18299984931946,immed,5817.000150680542,Tue Nov 04 2025 12:20:58 GMT-0600 (Central Standard Time),938001.9000000358,A,ru,O,u,156,1,10797.300000011921,927204.6000000238,7231,WL,A,14.0
7,54.70099997520447,immed,5299.000024795532,Tue Nov 04 2025 12:20:58 GMT-0600 (Central Standard Time),938519.8000000119,A,rug,O,g,512,1,11315.199999988079,927204.6000000238,7231,WL,A,14.0
7,54.91700005531311,immed,5082.99994468689,Tue Nov 04 2025 12:20:58 GMT-0600 (Central Standard Time),938736.2000000477,A,rugenter,O,enter,203,1,11531.600000023842,927204.6000000238,7231,WL,A,14.0
7,58.79900002479553,immed,1200.9999752044678,Tue Nov 04 2025 12:20:58 GMT-0600 (Central Standard Time),942617.9000000358,A,t,O,t,3865,1,3881.5,938736.4000000358,7231,WL,A,15.0
7,59.08200001716614,immed,917.9999828338623,Tue Nov 04 2025 12:20:58 GMT-0600 (Central Standard Time),942900.6000000238,A,tr,O,r,264,1,4164.199999988079,938736.4000000358,7231,WL,A,15.0
7,59.29900002479553,immed,700.9999752044678,Tue Nov 04 2025 12:20:58 GMT-0600 (Central Standard Time),943117.7000000477,A,tra,O,a,192,1,4381.300000011921,938736.4000000358,7231,WL,A,15.0
7,59.865999937057495,immed,134.00006294250488,Tue Nov 04 2025 12:20:58 GMT-0600 (Central Standard Time),943684.3000000119,A,trai,O,i,547,1,4947.899999976158,938736.4000000358,7231,WL,A,15.0
7,60.01300001144409,immed,-13.000011444091797,Tue Nov 04 2025 12:20:58 GMT-0600 (Central Standard Time),943832.2000000477,A,traiNone,O,None,142,1,5095.800000011921,938736.4000000358,7231,WL,A,15.0
