acc_sum,block,block_c,change,condition,correct,correct_response,datetime,endtime,face,project,response,response_time,row_sel,session_number,start_end,starttime,subject_id,task,task_vers,trial
0,prac,1,,1-Back,,,Fri Mar 13 2026 08:45:56 GMT-0500 (Central Daylight Time),,093_m_f_n_a.png,I,space,14121,1,2,,,8080,NNB,C,0
1,prac,1,0.0,1-Back,1.0,m,Fri Mar 13 2026 08:45:56 GMT-0500 (Central Daylight Time),240352.39999997616,098_y_f_n_a.png,I,m,680,2,2,1553.699999988079,238798.69999998808,8080,NNB,C,1
2,prac,1,1.0,1-Back,1.0,z,Fri Mar 13 2026 08:45:56 GMT-0500 (Central Daylight Time),242001.79999995232,098_y_f_n_a.png,I,z,868,3,2,1645.3999999761581,240356.39999997616,8080,NNB,C,2
3,prac,1,0.0,1-Back,1.0,m,Fri Mar 13 2026 08:45:56 GMT-0500 (Central Daylight Time),243518.0,059_o_m_n_a.png,I,m,628,4,2,1505.300000011921,242012.69999998808,8080,NNB,C,3
4,prac,1,0.0,1-Back,1.0,m,Fri Mar 13 2026 08:45:56 GMT-0500 (Central Daylight Time),245034.29999995232,092_m_m_n_a.png,I,m,660,5,2,1512.5999999642372,243521.69999998808,8080,NNB,C,4
5,prac,1,1.0,1-Back,1.0,z,Fri Mar 13 2026 08:45:56 GMT-0500 (Central Daylight Time),246433.89999997616,092_m_m_n_a.png,I,z,614,6,2,1390.300000011921,245043.59999996424,8080,NNB,C,5
6,prac,1,0.0,1-Back,1.0,m,Fri Mar 13 2026 08:45:56 GMT-0500 (Central Daylight Time),248083.29999995232,130_o_f_n_a.png,I,m,776,7,2,1645.5999999642372,246437.69999998808,8080,NNB,C,6
7,prac,1,0.0,1-Back,1.0,m,Fri Mar 13 2026 08:45:56 GMT-0500 (Central Daylight Time),249566.29999995232,082_m_m_n_a.png,I,m,607,8,2,1474.199999988079,248092.09999996424,8080,NNB,C,7
8,prac,1,0.0,1-Back,1.0,m,Fri Mar 13 2026 08:45:56 GMT-0500 (Central Daylight Time),251065.69999998808,093_m_f_n_a.png,I,m,727,9,2,1495.5,249570.19999998808,8080,NNB,C,8
9,prac,1,1.0,1-Back,1.0,z,Fri Mar 13 2026 08:45:56 GMT-0500 (Central Daylight Time),252448.39999997616,093_m_f_n_a.png,I,z,597,10,2,1372.300000011921,251076.09999996424,8080,NNB,C,9
10,prac,1,0.0,1-Back,1.0,m,Fri Mar 13 2026 08:45:56 GMT-0500 (Central Daylight Time),253814.59999996424,059_o_m_n_a.png,I,m,589,11,2,1362.5,252452.09999996424,8080,NNB,C,10
11,prac,1,0.0,1-Back,1.0,m,Fri Mar 13 2026 08:45:56 GMT-0500 (Central Daylight Time),255247.69999998808,028_y_f_n_a.png,I,m,551,12,2,1417.1000000238419,253830.59999996424,8080,NNB,C,11
0,test,1,0.0,1-Back,,,Fri Mar 13 2026 08:45:56 GMT-0500 (Central Daylight Time),255247.69999998808,098_y_f_n_a.png,I,space,13730,1,2,1417.1000000238419,253830.59999996424,8080,NNB,C,0
1,test,1,0.0,1-Back,1.0,m,Fri Mar 13 2026 08:45:56 GMT-0500 (Central Daylight Time),278840.2999999523,006_m_f_n_a.png,I,m,484,2,2,1505.3999999761581,277334.89999997616,8080,NNB,C,1
2,test,1,0.0,1-Back,1.0,m,Fri Mar 13 2026 08:45:56 GMT-0500 (Central Daylight Time),280373.09999996424,028_y_f_n_a.png,I,m,504,3,2,1530.0,278843.09999996424,8080,NNB,C,2
3,test,1,1.0,1-Back,1.0,z,Fri Mar 13 2026 08:45:56 GMT-0500 (Central Daylight Time),281939.2999999523,028_y_f_n_a.png,I,z,539,4,2,1557.5999999642372,280381.6999999881,8080,NNB,C,3
4,test,1,0.0,1-Back,1.0,m,Fri Mar 13 2026 08:45:56 GMT-0500 (Central Daylight Time),283638.59999996424,006_m_f_n_a.png,I,m,669,5,2,1696.699999988079,281941.89999997616,8080,NNB,C,4
5,test,1,0.0,1-Back,1.0,m,Fri Mar 13 2026 08:45:56 GMT-0500 (Central Daylight Time),285171.6999999881,059_o_m_n_a.png,I,m,506,6,2,1526.1000000238419,283645.59999996424,8080,NNB,C,5
6,test,1,1.0,1-Back,1.0,z,Fri Mar 13 2026 08:45:56 GMT-0500 (Central Daylight Time),286637.7999999523,059_o_m_n_a.png,I,z,445,7,2,1463.699999988079,285174.09999996424,8080,NNB,C,6
7,test,1,0.0,1-Back,1.0,m,Fri Mar 13 2026 08:45:56 GMT-0500 (Central Daylight Time),288187.5,092_m_m_n_a.png,I,m,531,8,2,1544.1000000238419,286643.39999997616,8080,NNB,C,7
8,test,1,0.0,1-Back,1.0,m,Fri Mar 13 2026 08:45:56 GMT-0500 (Central Daylight Time),289720.2999999523,130_o_f_n_a.png,I,m,502,9,2,1530.2999999523163,288190.0,8080,NNB,C,8
9,test,1,0.0,1-Back,1.0,m,Fri Mar 13 2026 08:45:56 GMT-0500 (Central Daylight Time),291203.2999999523,092_m_m_n_a.png,I,m,456,10,2,1478.699999988079,289724.59999996424,8080,NNB,C,9
10,test,1,0.0,1-Back,1.0,m,Fri Mar 13 2026 08:45:56 GMT-0500 (Central Daylight Time),292719.2999999523,057_y_m_n_a.png,I,m,494,11,2,1513.5,291205.7999999523,8080,NNB,C,10
11,test,1,1.0,1-Back,1.0,z,Fri Mar 13 2026 08:45:56 GMT-0500 (Central Daylight Time),294201.89999997616,057_y_m_n_a.png,I,z,458,12,2,1474.699999988079,292727.1999999881,8080,NNB,C,11
12,test,1,0.0,1-Back,1.0,m,Fri Mar 13 2026 08:45:56 GMT-0500 (Central Daylight Time),295735.09999996424,030_o_f_n_a.png,I,m,502,13,2,1530.5999999642372,294204.5,8080,NNB,C,12
13,test,1,1.0,1-Back,1.0,z,Fri Mar 13 2026 08:45:56 GMT-0500 (Central Daylight Time),297401.59999996424,030_o_f_n_a.png,I,z,649,14,2,1659.0999999642372,295742.5,8080,NNB,C,13
14,test,1,0.0,1-Back,1.0,m,Fri Mar 13 2026 08:45:56 GMT-0500 (Central Daylight Time),299033.89999997616,031_y_m_n_a.png,I,m,599,15,2,1630.0,297403.89999997616,8080,NNB,C,14
14,test,1,0.0,1-Back,0.0,m,Fri Mar 13 2026 08:45:56 GMT-0500 (Central Daylight Time),300566.89999997616,093_m_f_n_a.png,I,z,511,16,2,1525.6000000238419,299041.2999999523,8080,NNB,C,15
15,test,1,0.0,1-Back,1.0,m,Fri Mar 13 2026 08:45:56 GMT-0500 (Central Daylight Time),302399.39999997616,146_o_m_n_a.png,I,m,810,17,2,1830.0,300569.39999997616,8080,NNB,C,16
16,test,1,0.0,1-Back,1.0,m,Fri Mar 13 2026 08:45:56 GMT-0500 (Central Daylight Time),304032.6999999881,093_m_f_n_a.png,I,m,609,18,2,1626.5,302406.1999999881,8080,NNB,C,17
0,test,2,0.0,1-Back,,,Fri Mar 13 2026 08:45:56 GMT-0500 (Central Daylight Time),304032.6999999881,092_m_m_n_a.png,I,space,3720,1,2,1626.5,302406.1999999881,8080,NNB,C,0
0,test,2,0.0,1-Back,0.0,m,Fri Mar 13 2026 08:45:56 GMT-0500 (Central Daylight Time),311596.89999997616,006_m_f_n_a.png,I,z,788,2,2,1809.199999988079,309787.6999999881,8080,NNB,C,1
0,test,2,1.0,1-Back,0.0,z,Fri Mar 13 2026 08:45:56 GMT-0500 (Central Daylight Time),313212.7999999523,006_m_f_n_a.png,I,m,596,3,2,1613.5,311599.2999999523,8080,NNB,C,2
1,test,2,0.0,1-Back,1.0,m,Fri Mar 13 2026 08:45:56 GMT-0500 (Central Daylight Time),315179.7999999523,092_m_m_n_a.png,I,m,949,4,2,1960.8999999761581,313218.89999997616,8080,NNB,C,3
2,test,2,0.0,1-Back,1.0,m,Fri Mar 13 2026 08:45:56 GMT-0500 (Central Daylight Time),317328.2999999523,057_y_m_n_a.png,I,m,1117,5,2,2145.399999976158,315182.89999997616,8080,NNB,C,4
3,test,2,0.0,1-Back,1.0,m,Fri Mar 13 2026 08:45:56 GMT-0500 (Central Daylight Time),319177.59999996424,098_y_f_n_a.png,I,m,817,6,2,1841.699999988079,317335.89999997616,8080,NNB,C,5
4,test,2,1.0,1-Back,1.0,z,Fri Mar 13 2026 08:45:56 GMT-0500 (Central Daylight Time),320910.1999999881,098_y_f_n_a.png,I,z,711,7,2,1730.1000000238419,319180.09999996424,8080,NNB,C,6
5,test,2,0.0,1-Back,1.0,m,Fri Mar 13 2026 08:45:56 GMT-0500 (Central Daylight Time),322510.0,057_y_m_n_a.png,I,m,578,8,2,1592.9000000357628,320917.09999996424,8080,NNB,C,7
6,test,2,0.0,1-Back,1.0,m,Fri Mar 13 2026 08:45:56 GMT-0500 (Central Daylight Time),324289.39999997616,030_o_f_n_a.png,I,m,706,9,2,1776.8999999761581,322512.5,8080,NNB,C,8
7,test,2,0.0,1-Back,1.0,m,Fri Mar 13 2026 08:45:56 GMT-0500 (Central Daylight Time),326008.89999997616,082_m_m_n_a.png,I,m,684,10,2,1713.699999988079,324295.1999999881,8080,NNB,C,9
8,test,2,1.0,1-Back,1.0,z,Fri Mar 13 2026 08:45:56 GMT-0500 (Central Daylight Time),327475.09999996424,082_m_m_n_a.png,I,z,440,11,2,1463.5999999642372,326011.5,8080,NNB,C,10
9,test,2,0.0,1-Back,1.0,m,Fri Mar 13 2026 08:45:56 GMT-0500 (Central Daylight Time),329191.2999999523,030_o_f_n_a.png,I,m,686,12,2,1712.0999999642372,327479.1999999881,8080,NNB,C,11
10,test,2,0.0,1-Back,1.0,m,Fri Mar 13 2026 08:45:56 GMT-0500 (Central Daylight Time),330774.0,130_o_f_n_a.png,I,m,554,13,2,1580.2000000476837,329193.7999999523,8080,NNB,C,12
11,test,2,0.0,1-Back,1.0,m,Fri Mar 13 2026 08:45:56 GMT-0500 (Central Daylight Time),332440.1999999881,059_o_m_n_a.png,I,m,634,14,2,1659.199999988079,330781.0,8080,NNB,C,13
12,test,2,0.0,1-Back,1.0,m,Fri Mar 13 2026 08:45:56 GMT-0500 (Central Daylight Time),334122.89999997616,146_o_m_n_a.png,I,m,657,15,2,1680.1000000238419,332442.7999999523,8080,NNB,C,14
13,test,2,1.0,1-Back,1.0,z,Fri Mar 13 2026 08:45:56 GMT-0500 (Central Daylight Time),335540.1999999881,146_o_m_n_a.png,I,z,398,16,2,1412.0,334128.1999999881,8080,NNB,C,15
14,test,2,0.0,1-Back,1.0,m,Fri Mar 13 2026 08:45:56 GMT-0500 (Central Daylight Time),337055.39999997616,031_y_m_n_a.png,I,m,494,17,2,1512.1000000238419,335543.2999999523,8080,NNB,C,16
14,test,2,1.0,1-Back,0.0,z,Fri Mar 13 2026 08:45:56 GMT-0500 (Central Daylight Time),339139.0,031_y_m_n_a.png,I,m,1065,18,2,2077.300000011921,337061.6999999881,8080,NNB,C,17
0,test,3,1.0,1-Back,,,Fri Mar 13 2026 08:45:56 GMT-0500 (Central Daylight Time),339139.0,028_y_f_n_a.png,I,space,4518,1,2,2077.300000011921,337061.6999999881,8080,NNB,C,0
1,test,3,0.0,1-Back,1.0,m,Fri Mar 13 2026 08:45:56 GMT-0500 (Central Daylight Time),347418.7999999523,146_o_m_n_a.png,I,m,624,1,2,1646.5,345772.2999999523,8080,NNB,C,1
2,test,3,1.0,1-Back,1.0,z,Fri Mar 13 2026 08:45:56 GMT-0500 (Central Daylight Time),349018.2999999523,146_o_m_n_a.png,I,z,572,1,2,1596.699999988079,347421.59999996424,8080,NNB,C,2
3,test,3,0.0,1-Back,1.0,m,Fri Mar 13 2026 08:45:56 GMT-0500 (Central Daylight Time),350834.2999999523,093_m_f_n_a.png,I,m,791,1,2,1810.0,349024.2999999523,8080,NNB,C,3
3,test,3,1.0,1-Back,0.0,z,Fri Mar 13 2026 08:45:56 GMT-0500 (Central Daylight Time),353466.6999999881,093_m_f_n_a.png,I,m,1614,1,2,2629.900000035763,350836.7999999523,8080,NNB,C,4
4,test,3,0.0,1-Back,1.0,m,Fri Mar 13 2026 08:45:56 GMT-0500 (Central Daylight Time),355266.0,030_o_f_n_a.png,I,m,781,1,2,1793.0,353473.0,8080,NNB,C,5
5,test,3,0.0,1-Back,1.0,m,Fri Mar 13 2026 08:45:56 GMT-0500 (Central Daylight Time),356982.59999996424,057_y_m_n_a.png,I,m,695,1,2,1714.199999988079,355268.39999997616,8080,NNB,C,6
6,test,3,0.0,1-Back,1.0,m,Fri Mar 13 2026 08:45:56 GMT-0500 (Central Daylight Time),358765.2999999523,030_o_f_n_a.png,I,m,763,1,2,1776.5,356988.7999999523,8080,NNB,C,7
7,test,3,0.0,1-Back,1.0,m,Fri Mar 13 2026 08:45:56 GMT-0500 (Central Daylight Time),360414.89999997616,031_y_m_n_a.png,I,m,619,1,2,1647.199999988079,358767.6999999881,8080,NNB,C,8
8,test,3,1.0,1-Back,1.0,z,Fri Mar 13 2026 08:45:56 GMT-0500 (Central Daylight Time),361997.6999999881,031_y_m_n_a.png,I,z,555,1,2,1575.300000011921,360422.39999997616,8080,NNB,C,9
9,test,3,0.0,1-Back,1.0,m,Fri Mar 13 2026 08:45:56 GMT-0500 (Central Daylight Time),363580.5,006_m_f_n_a.png,I,m,555,1,2,1580.4000000357628,362000.09999996424,8080,NNB,C,10
10,test,3,0.0,1-Back,1.0,m,Fri Mar 13 2026 08:45:56 GMT-0500 (Central Daylight Time),365280.0,098_y_f_n_a.png,I,m,669,1,2,1693.2000000476837,363586.7999999523,8080,NNB,C,11
11,test,3,1.0,1-Back,1.0,z,Fri Mar 13 2026 08:45:56 GMT-0500 (Central Daylight Time),366796.09999996424,098_y_f_n_a.png,I,z,488,1,2,1513.300000011921,365282.7999999523,8080,NNB,C,12
12,test,3,0.0,1-Back,1.0,m,Fri Mar 13 2026 08:45:56 GMT-0500 (Central Daylight Time),368462.1999999881,006_m_f_n_a.png,I,m,636,1,2,1660.4000000357628,366801.7999999523,8080,NNB,C,13
13,test,3,0.0,1-Back,1.0,m,Fri Mar 13 2026 08:45:56 GMT-0500 (Central Daylight Time),370028.5,092_m_m_n_a.png,I,m,538,1,2,1563.5,368465.0,8080,NNB,C,14
14,test,3,1.0,1-Back,1.0,z,Fri Mar 13 2026 08:45:56 GMT-0500 (Central Daylight Time),371622.5,092_m_m_n_a.png,I,z,500,1,2,1588.4000000357628,370034.09999996424,8080,NNB,C,15
15,test,3,0.0,1-Back,1.0,m,Fri Mar 13 2026 08:45:56 GMT-0500 (Central Daylight Time),373144.0,130_o_f_n_a.png,I,m,510,1,2,1518.1000000238419,371625.89999997616,8080,NNB,C,16
16,test,3,1.0,1-Back,1.0,z,Fri Mar 13 2026 08:45:56 GMT-0500 (Central Daylight Time),374793.6999999881,130_o_f_n_a.png,I,z,617,1,2,1643.699999988079,373150.0,8080,NNB,C,17
0,test,4,1.0,1-Back,,,Fri Mar 13 2026 08:45:56 GMT-0500 (Central Daylight Time),374793.6999999881,093_m_f_n_a.png,I,space,1991,1,2,1643.699999988079,373150.0,8080,NNB,C,0
1,test,4,0.0,1-Back,1.0,m,Fri Mar 13 2026 08:45:56 GMT-0500 (Central Daylight Time),380358.5,146_o_m_n_a.png,I,m,460,2,2,1477.0,378881.5,8080,NNB,C,1
2,test,4,0.0,1-Back,1.0,m,Fri Mar 13 2026 08:45:56 GMT-0500 (Central Daylight Time),381891.1999999881,093_m_f_n_a.png,I,m,506,3,2,1530.300000011921,380360.89999997616,8080,NNB,C,2
3,test,4,0.0,1-Back,1.0,m,Fri Mar 13 2026 08:45:56 GMT-0500 (Central Daylight Time),383507.5,030_o_f_n_a.png,I,m,589,4,2,1609.2000000476837,381898.2999999523,8080,NNB,C,3
4,test,4,1.0,1-Back,1.0,z,Fri Mar 13 2026 08:45:56 GMT-0500 (Central Daylight Time),385190.1999999881,030_o_f_n_a.png,I,z,654,5,2,1680.199999988079,383510.0,8080,NNB,C,4
5,test,4,0.0,1-Back,1.0,m,Fri Mar 13 2026 08:45:56 GMT-0500 (Central Daylight Time),386757.59999996424,098_y_f_n_a.png,I,m,538,6,2,1560.5999999642372,385197.0,8080,NNB,C,5
6,test,4,0.0,1-Back,1.0,m,Fri Mar 13 2026 08:45:56 GMT-0500 (Central Daylight Time),388322.7999999523,057_y_m_n_a.png,I,m,538,7,2,1562.5999999642372,386760.1999999881,8080,NNB,C,6
7,test,4,1.0,1-Back,1.0,z,Fri Mar 13 2026 08:45:56 GMT-0500 (Central Daylight Time),390089.0,057_y_m_n_a.png,I,z,734,8,2,1761.300000011921,388327.6999999881,8080,NNB,C,7
8,test,4,0.0,1-Back,1.0,m,Fri Mar 13 2026 08:45:56 GMT-0500 (Central Daylight Time),391654.7999999523,098_y_f_n_a.png,I,m,536,9,2,1562.8999999761581,390091.89999997616,8080,NNB,C,8
9,test,4,0.0,1-Back,1.0,m,Fri Mar 13 2026 08:45:56 GMT-0500 (Central Daylight Time),393204.39999997616,082_m_m_n_a.png,I,m,528,10,2,1543.1000000238419,391661.2999999523,8080,NNB,C,9
10,test,4,1.0,1-Back,1.0,z,Fri Mar 13 2026 08:45:56 GMT-0500 (Central Daylight Time),394837.39999997616,082_m_m_n_a.png,I,z,605,11,2,1630.300000011921,393207.09999996424,8080,NNB,C,10
11,test,4,0.0,1-Back,1.0,m,Fri Mar 13 2026 08:45:56 GMT-0500 (Central Daylight Time),396403.2999999523,130_o_f_n_a.png,I,m,540,12,2,1560.5,394842.7999999523,8080,NNB,C,11
12,test,4,0.0,1-Back,1.0,m,Fri Mar 13 2026 08:45:56 GMT-0500 (Central Daylight Time),397936.39999997616,059_o_m_n_a.png,I,m,502,13,2,1530.5,396405.89999997616,8080,NNB,C,12
13,test,4,0.0,1-Back,1.0,m,Fri Mar 13 2026 08:45:56 GMT-0500 (Central Daylight Time),399619.0,130_o_f_n_a.png,I,m,664,14,2,1673.7000000476837,397945.2999999523,8080,NNB,C,13
14,test,4,0.0,1-Back,1.0,m,Fri Mar 13 2026 08:45:56 GMT-0500 (Central Daylight Time),401185.5,028_y_f_n_a.png,I,m,533,15,2,1564.0,399621.5,8080,NNB,C,14
15,test,4,1.0,1-Back,1.0,z,Fri Mar 13 2026 08:45:56 GMT-0500 (Central Daylight Time),402635.0,028_y_f_n_a.png,I,z,423,16,2,1443.4000000357628,401191.59999996424,8080,NNB,C,15
16,test,4,0.0,1-Back,1.0,m,Fri Mar 13 2026 08:45:56 GMT-0500 (Central Daylight Time),404217.89999997616,006_m_f_n_a.png,I,m,567,17,2,1580.3999999761581,402637.5,8080,NNB,C,16
17,test,4,1.0,1-Back,1.0,z,Fri Mar 13 2026 08:45:56 GMT-0500 (Central Daylight Time),405883.7999999523,006_m_f_n_a.png,I,z,648,18,2,1660.7999999523163,404223.0,8080,NNB,C,17
0,test,5,1.0,1-Back,,,Fri Mar 13 2026 08:45:56 GMT-0500 (Central Daylight Time),405883.7999999523,059_o_m_n_a.png,I,space,2109,1,2,1660.7999999523163,404223.0,8080,NNB,C,0
1,test,5,1.0,1-Back,1.0,z,Fri Mar 13 2026 08:45:56 GMT-0500 (Central Daylight Time),411532.1999999881,059_o_m_n_a.png,I,z,489,2,2,1510.4000000357628,410021.7999999523,8080,NNB,C,1
2,test,5,0.0,1-Back,1.0,m,Fri Mar 13 2026 08:45:56 GMT-0500 (Central Daylight Time),412964.89999997616,098_y_f_n_a.png,I,m,411,3,2,1430.1000000238419,411534.7999999523,8080,NNB,C,2
3,test,5,0.0,1-Back,1.0,m,Fri Mar 13 2026 08:45:56 GMT-0500 (Central Daylight Time),414547.59999996424,057_y_m_n_a.png,I,m,556,4,2,1576.0999999642372,412971.5,8080,NNB,C,3
4,test,5,0.0,1-Back,1.0,m,Fri Mar 13 2026 08:45:56 GMT-0500 (Central Daylight Time),416197.1999999881,098_y_f_n_a.png,I,m,622,5,2,1646.9000000357628,414550.2999999523,8080,NNB,C,4
5,test,5,0.0,1-Back,1.0,m,Fri Mar 13 2026 08:45:56 GMT-0500 (Central Daylight Time),417930.39999997616,092_m_m_n_a.png,I,m,716,6,2,1726.800000011921,416203.59999996424,8080,NNB,C,5
6,test,5,1.0,1-Back,1.0,z,Fri Mar 13 2026 08:45:56 GMT-0500 (Central Daylight Time),419579.7999999523,092_m_m_n_a.png,I,z,622,7,2,1647.0999999642372,417932.6999999881,8080,NNB,C,6
7,test,5,0.0,1-Back,1.0,m,Fri Mar 13 2026 08:45:56 GMT-0500 (Central Daylight Time),421145.6999999881,028_y_f_n_a.png,I,m,548,8,2,1559.199999988079,419586.5,8080,NNB,C,7
8,test,5,0.0,1-Back,1.0,m,Fri Mar 13 2026 08:45:56 GMT-0500 (Central Daylight Time),422728.59999996424,031_y_m_n_a.png,I,m,551,9,2,1580.5,421148.09999996424,8080,NNB,C,8
9,test,5,0.0,1-Back,1.0,m,Fri Mar 13 2026 08:45:56 GMT-0500 (Central Daylight Time),424261.5,028_y_f_n_a.png,I,m,512,10,2,1526.800000011921,422734.6999999881,8080,NNB,C,9
10,test,5,0.0,1-Back,1.0,m,Fri Mar 13 2026 08:45:56 GMT-0500 (Central Daylight Time),425960.7999999523,130_o_f_n_a.png,I,m,676,11,2,1696.699999988079,424264.09999996424,8080,NNB,C,10
11,test,5,1.0,1-Back,1.0,z,Fri Mar 13 2026 08:45:56 GMT-0500 (Central Daylight Time),427460.39999997616,130_o_f_n_a.png,I,z,472,12,2,1492.8999999761581,425967.5,8080,NNB,C,11
12,test,5,0.0,1-Back,1.0,m,Fri Mar 13 2026 08:45:56 GMT-0500 (Central Daylight Time),429026.39999997616,146_o_m_n_a.png,I,m,549,13,2,1563.3999999761581,427463.0,8080,NNB,C,12
13,test,5,0.0,1-Back,1.0,m,Fri Mar 13 2026 08:45:56 GMT-0500 (Central Daylight Time),430726.0,093_m_f_n_a.png,I,m,679,14,2,1694.4000000357628,429031.59999996424,8080,NNB,C,13
14,test,5,1.0,1-Back,1.0,z,Fri Mar 13 2026 08:45:56 GMT-0500 (Central Daylight Time),432175.6999999881,093_m_f_n_a.png,I,z,427,15,2,1447.1000000238419,430728.59999996424,8080,NNB,C,14
15,test,5,0.0,1-Back,1.0,m,Fri Mar 13 2026 08:45:56 GMT-0500 (Central Daylight Time),433674.89999997616,146_o_m_n_a.png,I,m,482,16,2,1493.300000011921,432181.59999996424,8080,NNB,C,15
16,test,5,0.0,1-Back,1.0,m,Fri Mar 13 2026 08:45:56 GMT-0500 (Central Daylight Time),435191.2999999523,006_m_f_n_a.png,I,m,493,17,2,1514.199999988079,433677.09999996424,8080,NNB,C,16
17,test,5,0.0,1-Back,1.0,m,Fri Mar 13 2026 08:45:56 GMT-0500 (Central Daylight Time),436741.0,082_m_m_n_a.png,I,m,530,18,2,1542.9000000357628,435198.09999996424,8080,NNB,C,17
0,prac,1,0.0,2-Back,,,Fri Mar 13 2026 08:45:56 GMT-0500 (Central Daylight Time),436741.0,031_y_m_n_a.png,I,space,13976,1,2,1542.9000000357628,435198.09999996424,8080,NNB,C,0
0,prac,1,0.0,2-Back,,,Fri Mar 13 2026 08:45:56 GMT-0500 (Central Daylight Time),436741.0,006_m_f_n_a.png,I,space,13976,2,2,1542.9000000357628,435198.09999996424,8080,NNB,C,0
1,prac,1,1.0,2-Back,1.0,m,Fri Mar 13 2026 08:45:56 GMT-0500 (Central Daylight Time),560768.8999999762,146_o_m_n_a.png,I,m,685,3,2,1529.0,559239.8999999762,8080,NNB,C,1
2,prac,1,0.0,2-Back,1.0,m,Fri Mar 13 2026 08:45:56 GMT-0500 (Central Daylight Time),562418.5,130_o_f_n_a.png,I,m,756,4,2,1641.6000000238419,560776.8999999762,8080,NNB,C,2
3,prac,1,0.0,2-Back,1.0,z,Fri Mar 13 2026 08:45:56 GMT-0500 (Central Daylight Time),563968.8999999762,146_o_m_n_a.png,I,z,788,5,2,1546.800000011921,562422.0999999642,8080,NNB,C,3
3,prac,1,1.0,2-Back,0.0,z,Fri Mar 13 2026 08:45:56 GMT-0500 (Central Daylight Time),565500.5999999642,130_o_f_n_a.png,I,m,743,6,2,1522.5,563978.0999999642,8080,NNB,C,4
4,prac,1,0.0,2-Back,1.0,m,Fri Mar 13 2026 08:45:56 GMT-0500 (Central Daylight Time),567183.5,082_m_m_n_a.png,I,m,814,7,2,1679.300000011921,565504.1999999881,8080,NNB,C,5
5,prac,1,0.0,2-Back,1.0,m,Fri Mar 13 2026 08:45:56 GMT-0500 (Central Daylight Time),568866.3999999762,059_o_m_n_a.png,I,m,799,8,2,1674.0,567192.3999999762,8080,NNB,C,6
6,prac,1,0.0,2-Back,1.0,m,Fri Mar 13 2026 08:45:56 GMT-0500 (Central Daylight Time),570416.8999999762,028_y_f_n_a.png,I,m,706,9,2,1547.1000000238419,568869.7999999523,8080,NNB,C,7
7,prac,1,1.0,2-Back,1.0,z,Fri Mar 13 2026 08:45:56 GMT-0500 (Central Daylight Time),571815.2999999523,059_o_m_n_a.png,I,z,607,10,2,1389.5,570425.7999999523,8080,NNB,C,8
8,prac,1,0.0,2-Back,1.0,m,Fri Mar 13 2026 08:45:56 GMT-0500 (Central Daylight Time),573331.5999999642,098_y_f_n_a.png,I,m,665,11,2,1512.8999999761581,571818.6999999881,8080,NNB,C,9
9,prac,1,0.0,2-Back,1.0,m,Fri Mar 13 2026 08:45:56 GMT-0500 (Central Daylight Time),575230.8999999762,082_m_m_n_a.png,I,m,1115,12,2,1888.3999999761581,573342.5,8080,NNB,C,10
0,test,1,0.0,2-Back,,,Fri Mar 13 2026 08:45:56 GMT-0500 (Central Daylight Time),575230.8999999762,057_y_m_n_a.png,I,space,7544,1,2,1888.3999999761581,573342.5,8080,NNB,C,0
0,test,1,0.0,2-Back,,,Fri Mar 13 2026 08:45:56 GMT-0500 (Central Daylight Time),575230.8999999762,057_y_m_n_a.png,I,space,7544,2,2,1888.3999999761581,573342.5,8080,NNB,C,0
1,test,1,0.0,2-Back,1.0,m,Fri Mar 13 2026 08:45:56 GMT-0500 (Central Daylight Time),599073.5,130_o_f_n_a.png,I,m,800,3,2,1830.1000000238419,597243.3999999762,8080,NNB,C,1
2,test,1,0.0,2-Back,1.0,m,Fri Mar 13 2026 08:45:56 GMT-0500 (Central Daylight Time),600623.0,092_m_m_n_a.png,I,m,528,4,2,1542.1000000238419,599080.8999999762,8080,NNB,C,2
2,test,1,1.0,2-Back,0.0,z,Fri Mar 13 2026 08:45:56 GMT-0500 (Central Daylight Time),602189.1999999881,130_o_f_n_a.png,I,m,547,5,2,1563.6000000238419,600625.5999999642,8080,NNB,C,3
3,test,1,0.0,2-Back,1.0,m,Fri Mar 13 2026 08:45:56 GMT-0500 (Central Daylight Time),603788.7999999523,098_y_f_n_a.png,I,m,579,6,2,1594.7999999523163,602194.0,8080,NNB,C,4
3,test,1,0.0,2-Back,0.0,m,Fri Mar 13 2026 08:45:56 GMT-0500 (Central Daylight Time),605238.2999999523,092_m_m_n_a.png,I,z,428,7,2,1447.0999999642372,603791.1999999881,8080,NNB,C,5
4,test,1,1.0,2-Back,1.0,z,Fri Mar 13 2026 08:45:56 GMT-0500 (Central Daylight Time),606837.7999999523,098_y_f_n_a.png,I,z,570,8,2,1593.0999999642372,605244.6999999881,8080,NNB,C,6
5,test,1,0.0,2-Back,1.0,m,Fri Mar 13 2026 08:45:56 GMT-0500 (Central Daylight Time),608487.2999999523,031_y_m_n_a.png,I,m,628,9,2,1647.0,606840.2999999523,8080,NNB,C,7
6,test,1,0.0,2-Back,1.0,m,Fri Mar 13 2026 08:45:56 GMT-0500 (Central Daylight Time),611086.1999999881,030_o_f_n_a.png,I,m,1570,10,2,2592.600000023842,608493.5999999642,8080,NNB,C,8
7,test,1,1.0,2-Back,1.0,z,Fri Mar 13 2026 08:45:56 GMT-0500 (Central Daylight Time),613135.6999999881,031_y_m_n_a.png,I,z,1019,11,2,2047.199999988079,611088.5,8080,NNB,C,9
8,test,1,0.0,2-Back,1.0,m,Fri Mar 13 2026 08:45:56 GMT-0500 (Central Daylight Time),614951.8999999762,006_m_f_n_a.png,I,m,794,12,2,1810.0,613141.8999999762,8080,NNB,C,10
9,test,1,0.0,2-Back,1.0,m,Fri Mar 13 2026 08:45:56 GMT-0500 (Central Daylight Time),617417.6999999881,006_m_f_n_a.png,I,m,1442,13,2,2463.5,614954.1999999881,8080,NNB,C,11
10,test,1,0.0,2-Back,1.0,m,Fri Mar 13 2026 08:45:56 GMT-0500 (Central Daylight Time),619700.2999999523,146_o_m_n_a.png,I,m,1256,14,2,2274.5,617425.7999999523,8080,NNB,C,12
11,test,1,0.0,2-Back,1.0,m,Fri Mar 13 2026 08:45:56 GMT-0500 (Central Daylight Time),621383.2999999523,030_o_f_n_a.png,I,m,653,15,2,1680.5999999642372,619702.6999999881,8080,NNB,C,13
12,test,1,1.0,2-Back,1.0,z,Fri Mar 13 2026 08:45:56 GMT-0500 (Central Daylight Time),623015.8999999762,146_o_m_n_a.png,I,z,601,16,2,1626.3999999761581,621389.5,8080,NNB,C,14
13,test,1,0.0,2-Back,1.0,m,Fri Mar 13 2026 08:45:56 GMT-0500 (Central Daylight Time),624665.5,093_m_f_n_a.png,I,m,625,17,2,1647.1000000238419,623018.3999999762,8080,NNB,C,15
14,test,1,0.0,2-Back,1.0,m,Fri Mar 13 2026 08:45:56 GMT-0500 (Central Daylight Time),626815.0,082_m_m_n_a.png,I,m,1119,18,2,2145.7000000476837,624669.2999999523,8080,NNB,C,16
0,test,2,0.0,2-Back,,,Fri Mar 13 2026 08:45:56 GMT-0500 (Central Daylight Time),626815.0,082_m_m_n_a.png,I,space,2561,1,2,2145.7000000476837,624669.2999999523,8080,NNB,C,0
0,test,2,0.0,2-Back,,,Fri Mar 13 2026 08:45:56 GMT-0500 (Central Daylight Time),626815.0,028_y_f_n_a.png,I,space,2561,2,2,2145.7000000476837,624669.2999999523,8080,NNB,C,0
1,test,2,1.0,2-Back,1.0,z,Fri Mar 13 2026 08:45:56 GMT-0500 (Central Daylight Time),636245.2999999523,082_m_m_n_a.png,I,z,688,3,2,1714.3999999761581,634530.8999999762,8080,NNB,C,1
2,test,2,0.0,2-Back,1.0,m,Fri Mar 13 2026 08:45:56 GMT-0500 (Central Daylight Time),637944.5999999642,093_m_f_n_a.png,I,m,676,4,2,1693.5,636251.0999999642,8080,NNB,C,2
2,test,2,0.0,2-Back,0.0,m,Fri Mar 13 2026 08:45:56 GMT-0500 (Central Daylight Time),640127.1999999881,028_y_f_n_a.png,I,z,1161,5,2,2180.300000011921,637946.8999999762,8080,NNB,C,3
3,test,2,0.0,2-Back,1.0,m,Fri Mar 13 2026 08:45:56 GMT-0500 (Central Daylight Time),641976.6999999881,146_o_m_n_a.png,I,m,816,6,2,1842.300000011921,640134.3999999762,8080,NNB,C,4
4,test,2,0.0,2-Back,1.0,m,Fri Mar 13 2026 08:45:56 GMT-0500 (Central Daylight Time),643659.5999999642,098_y_f_n_a.png,I,m,664,7,2,1680.3999999761581,641979.1999999881,8080,NNB,C,5
5,test,2,1.0,2-Back,1.0,z,Fri Mar 13 2026 08:45:56 GMT-0500 (Central Daylight Time),645508.8999999762,146_o_m_n_a.png,I,z,822,8,2,1844.1000000238419,643664.7999999523,8080,NNB,C,6
6,test,2,0.0,2-Back,1.0,m,Fri Mar 13 2026 08:45:56 GMT-0500 (Central Daylight Time),647191.6999999881,031_y_m_n_a.png,I,m,661,9,2,1680.4000000357628,645511.2999999523,8080,NNB,C,7
7,test,2,0.0,2-Back,1.0,m,Fri Mar 13 2026 08:45:56 GMT-0500 (Central Daylight Time),649341.0,031_y_m_n_a.png,I,m,1122,10,2,2142.600000023842,647198.3999999762,8080,NNB,C,8
7,test,2,0.0,2-Back,0.0,m,Fri Mar 13 2026 08:45:56 GMT-0500 (Central Daylight Time),651540.3999999762,006_m_f_n_a.png,I,z,1172,11,2,2197.0,649343.3999999762,8080,NNB,C,9
8,test,2,0.0,2-Back,1.0,m,Fri Mar 13 2026 08:45:56 GMT-0500 (Central Daylight Time),653623.0,028_y_f_n_a.png,I,m,1061,12,2,2075.5,651547.5,8080,NNB,C,10
9,test,2,1.0,2-Back,1.0,z,Fri Mar 13 2026 08:45:56 GMT-0500 (Central Daylight Time),655522.3999999762,006_m_f_n_a.png,I,z,882,13,2,1897.0,653625.3999999762,8080,NNB,C,11
10,test,2,0.0,2-Back,1.0,m,Fri Mar 13 2026 08:45:56 GMT-0500 (Central Daylight Time),657221.8999999762,059_o_m_n_a.png,I,m,679,14,2,1694.0,655527.8999999762,8080,NNB,C,12
11,test,2,0.0,2-Back,1.0,m,Fri Mar 13 2026 08:45:56 GMT-0500 (Central Daylight Time),659238.0999999642,059_o_m_n_a.png,I,m,996,15,2,2013.800000011921,657224.2999999523,8080,NNB,C,13
12,test,2,0.0,2-Back,1.0,m,Fri Mar 13 2026 08:45:56 GMT-0500 (Central Daylight Time),661087.3999999762,030_o_f_n_a.png,I,m,818,16,2,1843.3999999761581,659244.0,8080,NNB,C,14
13,test,2,0.0,2-Back,1.0,m,Fri Mar 13 2026 08:45:56 GMT-0500 (Central Daylight Time),662836.3999999762,092_m_m_n_a.png,I,m,729,17,2,1746.6000000238419,661089.7999999523,8080,NNB,C,15
14,test,2,1.0,2-Back,1.0,z,Fri Mar 13 2026 08:45:56 GMT-0500 (Central Daylight Time),664419.7999999523,030_o_f_n_a.png,I,z,557,18,2,1576.199999988079,662843.5999999642,8080,NNB,C,16
0,test,3,1.0,2-Back,,,Fri Mar 13 2026 08:45:56 GMT-0500 (Central Daylight Time),664419.7999999523,057_y_m_n_a.png,I,space,2430,1,2,1576.199999988079,662843.5999999642,8080,NNB,C,0
0,test,3,1.0,2-Back,,,Fri Mar 13 2026 08:45:56 GMT-0500 (Central Daylight Time),664419.7999999523,057_y_m_n_a.png,I,space,2430,2,2,1576.199999988079,662843.5999999642,8080,NNB,C,0
1,test,3,0.0,2-Back,1.0,m,Fri Mar 13 2026 08:45:56 GMT-0500 (Central Daylight Time),673901.0999999642,030_o_f_n_a.png,I,m,889,3,2,1914.8999999761581,671986.1999999881,8080,NNB,C,1
2,test,3,0.0,2-Back,1.0,m,Fri Mar 13 2026 08:45:56 GMT-0500 (Central Daylight Time),675549.5999999642,082_m_m_n_a.png,I,m,630,4,2,1643.5,673906.0999999642,8080,NNB,C,2
3,test,3,1.0,2-Back,1.0,z,Fri Mar 13 2026 08:45:56 GMT-0500 (Central Daylight Time),677365.6999999881,030_o_f_n_a.png,I,z,796,5,2,1813.5,675552.1999999881,8080,NNB,C,3
4,test,3,0.0,2-Back,1.0,m,Fri Mar 13 2026 08:45:56 GMT-0500 (Central Daylight Time),679015.3999999762,031_y_m_n_a.png,I,m,619,6,2,1642.8999999761581,677372.5,8080,NNB,C,4
4,test,3,0.0,2-Back,0.0,m,Fri Mar 13 2026 08:45:56 GMT-0500 (Central Daylight Time),680964.5999999642,082_m_m_n_a.png,I,z,921,7,2,1946.5,679018.0999999642,8080,NNB,C,5
4,test,3,1.0,2-Back,0.0,z,Fri Mar 13 2026 08:45:56 GMT-0500 (Central Daylight Time),682563.8999999762,031_y_m_n_a.png,I,m,573,8,2,1593.1000000238419,680970.7999999523,8080,NNB,C,6
5,test,3,0.0,2-Back,1.0,m,Fri Mar 13 2026 08:45:56 GMT-0500 (Central Daylight Time),684263.5999999642,028_y_f_n_a.png,I,m,676,9,2,1697.3999999761581,682566.1999999881,8080,NNB,C,7
6,test,3,0.0,2-Back,1.0,m,Fri Mar 13 2026 08:45:56 GMT-0500 (Central Daylight Time),686096.0999999642,092_m_m_n_a.png,I,m,810,10,2,1827.300000011921,684268.7999999523,8080,NNB,C,8
6,test,3,1.0,2-Back,0.0,z,Fri Mar 13 2026 08:45:56 GMT-0500 (Central Daylight Time),688012.7999999523,028_y_f_n_a.png,I,m,897,11,2,1914.199999988079,686098.5999999642,8080,NNB,C,9
7,test,3,1.0,2-Back,1.0,z,Fri Mar 13 2026 08:45:56 GMT-0500 (Central Daylight Time),689628.2999999523,092_m_m_n_a.png,I,z,589,12,2,1607.199999988079,688021.0999999642,8080,NNB,C,10
7,test,3,0.0,2-Back,0.0,m,Fri Mar 13 2026 08:45:56 GMT-0500 (Central Daylight Time),691777.5,030_o_f_n_a.png,I,z,1124,13,2,2146.800000011921,689630.6999999881,8080,NNB,C,11
8,test,3,0.0,2-Back,1.0,m,Fri Mar 13 2026 08:45:56 GMT-0500 (Central Daylight Time),693544.0999999642,093_m_f_n_a.png,I,m,735,14,2,1760.3999999761581,691783.6999999881,8080,NNB,C,12
9,test,3,0.0,2-Back,1.0,m,Fri Mar 13 2026 08:45:56 GMT-0500 (Central Daylight Time),695293.3999999762,146_o_m_n_a.png,I,m,721,15,2,1746.8999999761581,693546.5,8080,NNB,C,13
10,test,3,1.0,2-Back,1.0,z,Fri Mar 13 2026 08:45:56 GMT-0500 (Central Daylight Time),696992.6999999881,093_m_f_n_a.png,I,z,667,16,2,1693.1000000238419,695299.5999999642,8080,NNB,C,14
11,test,3,0.0,2-Back,1.0,m,Fri Mar 13 2026 08:45:56 GMT-0500 (Central Daylight Time),698642.2999999523,130_o_f_n_a.png,I,m,625,17,2,1647.199999988079,696995.0999999642,8080,NNB,C,15
12,test,3,0.0,2-Back,1.0,m,Fri Mar 13 2026 08:45:56 GMT-0500 (Central Daylight Time),700291.8999999762,130_o_f_n_a.png,I,m,623,18,2,1643.5,698648.3999999762,8080,NNB,C,16
0,test,4,0.0,2-Back,,,Fri Mar 13 2026 08:45:56 GMT-0500 (Central Daylight Time),700291.8999999762,059_o_m_n_a.png,I,space,2285,1,2,1643.5,698648.3999999762,8080,NNB,C,0
0,test,4,0.0,2-Back,,,Fri Mar 13 2026 08:45:56 GMT-0500 (Central Daylight Time),700291.8999999762,098_y_f_n_a.png,I,space,2285,2,2,1643.5,698648.3999999762,8080,NNB,C,0
1,test,4,1.0,2-Back,1.0,z,Fri Mar 13 2026 08:45:56 GMT-0500 (Central Daylight Time),709555.5999999642,059_o_m_n_a.png,I,z,731,3,2,1747.0999999642372,707808.5,8080,NNB,C,1
2,test,4,1.0,2-Back,1.0,z,Fri Mar 13 2026 08:45:56 GMT-0500 (Central Daylight Time),711388.1999999881,098_y_f_n_a.png,I,z,806,4,2,1825.800000011921,709562.3999999762,8080,NNB,C,2
3,test,4,0.0,2-Back,1.0,m,Fri Mar 13 2026 08:45:56 GMT-0500 (Central Daylight Time),713187.5999999642,030_o_f_n_a.png,I,m,773,5,2,1797.300000011921,711390.2999999523,8080,NNB,C,3
3,test,4,0.0,2-Back,0.0,m,Fri Mar 13 2026 08:45:56 GMT-0500 (Central Daylight Time),714970.3999999762,030_o_f_n_a.png,I,z,766,6,2,1778.6000000238419,713191.7999999523,8080,NNB,C,4
4,test,4,0.0,2-Back,1.0,m,Fri Mar 13 2026 08:45:56 GMT-0500 (Central Daylight Time),716886.6999999881,006_m_f_n_a.png,I,m,887,7,2,1914.0,714972.6999999881,8080,NNB,C,5
5,test,4,0.0,2-Back,1.0,m,Fri Mar 13 2026 08:45:56 GMT-0500 (Central Daylight Time),718602.6999999881,031_y_m_n_a.png,I,m,691,8,2,1711.800000011921,716890.8999999762,8080,NNB,C,6
6,test,4,1.0,2-Back,1.0,z,Fri Mar 13 2026 08:45:56 GMT-0500 (Central Daylight Time),720052.1999999881,006_m_f_n_a.png,I,z,431,9,2,1447.4000000357628,718604.7999999523,8080,NNB,C,7
7,test,4,0.0,2-Back,1.0,m,Fri Mar 13 2026 08:45:56 GMT-0500 (Central Daylight Time),721601.7999999523,092_m_m_n_a.png,I,m,533,10,2,1543.699999988079,720058.0999999642,8080,NNB,C,8
8,test,4,0.0,2-Back,1.0,m,Fri Mar 13 2026 08:45:56 GMT-0500 (Central Daylight Time),723369.2999999523,031_y_m_n_a.png,I,m,743,11,2,1765.2999999523163,721604.0,8080,NNB,C,9
9,test,4,0.0,2-Back,1.0,m,Fri Mar 13 2026 08:45:56 GMT-0500 (Central Daylight Time),725253.0,130_o_f_n_a.png,I,m,851,12,2,1878.2000000476837,723374.7999999523,8080,NNB,C,10
10,test,4,0.0,2-Back,1.0,m,Fri Mar 13 2026 08:45:56 GMT-0500 (Central Daylight Time),726933.2999999523,057_y_m_n_a.png,I,m,663,13,2,1678.199999988079,725255.0999999642,8080,NNB,C,11
11,test,4,1.0,2-Back,1.0,z,Fri Mar 13 2026 08:45:56 GMT-0500 (Central Daylight Time),728767.3999999762,130_o_f_n_a.png,I,z,812,14,2,1827.8999999761581,726939.5,8080,NNB,C,12
11,test,4,1.0,2-Back,0.0,z,Fri Mar 13 2026 08:45:56 GMT-0500 (Central Daylight Time),730532.1999999881,057_y_m_n_a.png,I,m,747,15,2,1762.699999988079,728769.5,8080,NNB,C,13
12,test,4,0.0,2-Back,1.0,m,Fri Mar 13 2026 08:45:56 GMT-0500 (Central Daylight Time),732431.5999999642,082_m_m_n_a.png,I,m,869,16,2,1893.199999988079,730538.3999999762,8080,NNB,C,14
13,test,4,0.0,2-Back,1.0,m,Fri Mar 13 2026 08:45:56 GMT-0500 (Central Daylight Time),734097.7999999523,093_m_f_n_a.png,I,m,641,17,2,1663.5999999642372,732434.1999999881,8080,NNB,C,15
14,test,4,1.0,2-Back,1.0,z,Fri Mar 13 2026 08:45:56 GMT-0500 (Central Daylight Time),736013.8999999762,082_m_m_n_a.png,I,z,895,18,2,1909.699999988079,734104.1999999881,8080,NNB,C,16
0,test,5,1.0,2-Back,,,Fri Mar 13 2026 08:45:56 GMT-0500 (Central Daylight Time),736013.8999999762,057_y_m_n_a.png,I,space,1900,1,2,1909.699999988079,734104.1999999881,8080,NNB,C,0
0,test,5,1.0,2-Back,,,Fri Mar 13 2026 08:45:56 GMT-0500 (Central Daylight Time),736013.8999999762,093_m_f_n_a.png,I,space,1900,2,2,1909.699999988079,734104.1999999881,8080,NNB,C,0
1,test,5,1.0,2-Back,1.0,z,Fri Mar 13 2026 08:45:56 GMT-0500 (Central Daylight Time),744477.6999999881,057_y_m_n_a.png,I,z,471,3,2,1496.9000000357628,742980.7999999523,8080,NNB,C,1
2,test,5,1.0,2-Back,1.0,z,Fri Mar 13 2026 08:45:56 GMT-0500 (Central Daylight Time),746077.3999999762,093_m_f_n_a.png,I,z,570,4,2,1592.199999988079,744485.1999999881,8080,NNB,C,2
3,test,5,0.0,2-Back,1.0,m,Fri Mar 13 2026 08:45:56 GMT-0500 (Central Daylight Time),747776.8999999762,130_o_f_n_a.png,I,m,675,5,2,1697.0,746079.8999999762,8080,NNB,C,3
3,test,5,0.0,2-Back,0.0,m,Fri Mar 13 2026 08:45:56 GMT-0500 (Central Daylight Time),749659.5,057_y_m_n_a.png,I,z,863,6,2,1877.7000000476837,747781.7999999523,8080,NNB,C,4
4,test,5,0.0,2-Back,1.0,m,Fri Mar 13 2026 08:45:56 GMT-0500 (Central Daylight Time),751409.0999999642,028_y_f_n_a.png,I,m,717,7,2,1747.3999999761581,749661.6999999881,8080,NNB,C,5
4,test,5,0.0,2-Back,0.0,m,Fri Mar 13 2026 08:45:56 GMT-0500 (Central Daylight Time),753325.0,130_o_f_n_a.png,I,z,895,8,2,1909.800000011921,751415.1999999881,8080,NNB,C,6
5,test,5,1.0,2-Back,1.0,z,Fri Mar 13 2026 08:45:56 GMT-0500 (Central Daylight Time),755358.0999999642,028_y_f_n_a.png,I,z,1003,9,2,2030.699999988079,753327.3999999762,8080,NNB,C,7
6,test,5,0.0,2-Back,1.0,m,Fri Mar 13 2026 08:45:56 GMT-0500 (Central Daylight Time),756957.5,146_o_m_n_a.png,I,m,572,10,2,1593.300000011921,755364.1999999881,8080,NNB,C,8
7,test,5,0.0,2-Back,1.0,m,Fri Mar 13 2026 08:45:56 GMT-0500 (Central Daylight Time),758640.0999999642,006_m_f_n_a.png,I,m,652,11,2,1680.300000011921,756959.7999999523,8080,NNB,C,9
8,test,5,0.0,2-Back,1.0,m,Fri Mar 13 2026 08:45:56 GMT-0500 (Central Daylight Time),760422.6999999881,092_m_m_n_a.png,I,m,753,12,2,1778.1000000238419,758644.5999999642,8080,NNB,C,10
9,test,5,0.0,2-Back,1.0,m,Fri Mar 13 2026 08:45:56 GMT-0500 (Central Daylight Time),762339.1999999881,146_o_m_n_a.png,I,m,889,13,2,1914.199999988079,760425.0,8080,NNB,C,11
10,test,5,1.0,2-Back,1.0,z,Fri Mar 13 2026 08:45:56 GMT-0500 (Central Daylight Time),764255.1999999881,092_m_m_n_a.png,I,z,887,14,2,1909.199999988079,762346.0,8080,NNB,C,12
11,test,5,0.0,2-Back,1.0,m,Fri Mar 13 2026 08:45:56 GMT-0500 (Central Daylight Time),766071.2999999523,098_y_f_n_a.png,I,m,794,15,2,1813.699999988079,764257.5999999642,8080,NNB,C,13
12,test,5,0.0,2-Back,1.0,m,Fri Mar 13 2026 08:45:56 GMT-0500 (Central Daylight Time),767987.3999999762,059_o_m_n_a.png,I,m,890,16,2,1912.5,766074.8999999762,8080,NNB,C,14
12,test,5,0.0,2-Back,0.0,m,Fri Mar 13 2026 08:45:56 GMT-0500 (Central Daylight Time),769786.5999999642,006_m_f_n_a.png,I,z,782,17,2,1796.5,767990.0999999642,8080,NNB,C,15
13,test,5,1.0,2-Back,1.0,z,Fri Mar 13 2026 08:45:56 GMT-0500 (Central Daylight Time),771886.0,059_o_m_n_a.png,I,z,1079,18,2,2094.900000035763,769791.0999999642,8080,NNB,C,16
