block_c,block_dur,condition,countdown,datetime,endtime,list,multichar_response,project,response,response_time,session_number,start_end,starttime,subject_id,task,task_vers,trial
,,,,Fri May 15 2026 10:28:34 GMT-0400 (Eastern Daylight Time),,,,I,space,1433,2,,,9057,WL,C,
prac,,0,,Fri May 15 2026 10:28:34 GMT-0400 (Eastern Daylight Time),,NA,b,I,b,1642,2,,,9057,WL,C,1.0
prac,,0,,Fri May 15 2026 10:28:34 GMT-0400 (Eastern Daylight Time),,NA,bo,I,o,427,2,,,9057,WL,C,1.0
prac,,0,,Fri May 15 2026 10:28:34 GMT-0400 (Eastern Daylight Time),,NA,boo,I,o,136,2,,,9057,WL,C,1.0
prac,,0,,Fri May 15 2026 10:28:34 GMT-0400 (Eastern Daylight Time),,NA,boos,I,s,137,2,,,9057,WL,C,1.0
prac,,0,,Fri May 15 2026 10:28:34 GMT-0400 (Eastern Daylight Time),,NA,boost,I,t,219,2,,,9057,WL,C,1.0
prac,,0,,Fri May 15 2026 10:28:34 GMT-0400 (Eastern Daylight Time),,NA,boostenter,I,enter,242,2,,,9057,WL,C,1.0
1,1.1329998970031738,learn,58867.000102996826,Fri May 15 2026 10:28:34 GMT-0400 (Eastern Daylight Time),136819.10000014305,A,t,I,t,1110,2,1132.7000000476837,135686.40000009537,9057,WL,C,1.0
1,1.248999834060669,learn,58751.00016593933,Fri May 15 2026 10:28:34 GMT-0400 (Eastern Daylight Time),136935.10000014305,A,to,I,o,102,2,1248.7000000476837,135686.40000009537,9057,WL,C,1.0
1,2.0,learn,58000.0,Fri May 15 2026 10:28:34 GMT-0400 (Eastern Daylight Time),137685.40000009537,A,tow,I,w,714,2,1999.0,135686.40000009537,9057,WL,C,1.0
1,2.1659998893737793,learn,57834.00011062622,Fri May 15 2026 10:28:34 GMT-0400 (Eastern Daylight Time),137852.20000004768,A,towe,I,e,149,2,2165.7999999523163,135686.40000009537,9057,WL,C,1.0
1,2.3329999446868896,learn,57667.00005531311,Fri May 15 2026 10:28:34 GMT-0400 (Eastern Daylight Time),138018.40000009537,A,tower,I,r,142,2,2332.0,135686.40000009537,9057,WL,C,1.0
1,2.6659998893737793,learn,57334.00011062622,Fri May 15 2026 10:28:34 GMT-0400 (Eastern Daylight Time),138351.60000014305,A,towerenter,I,enter,315,2,2665.2000000476837,135686.40000009537,9057,WL,C,1.0
1,3.115999937057495,learn,56884.000062942505,Fri May 15 2026 10:28:34 GMT-0400 (Eastern Daylight Time),138802.10000014305,A,w,I,w,430,2,449.90000009536743,138352.20000004768,9057,WL,C,2.0
1,3.2330000400543213,learn,56766.99995994568,Fri May 15 2026 10:28:34 GMT-0400 (Eastern Daylight Time),138918.60000014305,A,wh,I,h,105,2,566.4000000953674,138352.20000004768,9057,WL,C,2.0
1,3.315999984741211,learn,56684.00001525879,Fri May 15 2026 10:28:34 GMT-0400 (Eastern Daylight Time),139001.70000004768,A,whe,I,e,57,2,649.5,138352.20000004768,9057,WL,C,2.0
1,3.5,learn,56500.0,Fri May 15 2026 10:28:34 GMT-0400 (Eastern Daylight Time),139185.30000019073,A,whea,I,a,161,2,833.1000001430511,138352.20000004768,9057,WL,C,2.0
1,3.75,learn,56250.0,Fri May 15 2026 10:28:34 GMT-0400 (Eastern Daylight Time),139435.40000009537,A,wheat,I,t,233,2,1083.2000000476837,138352.20000004768,9057,WL,C,2.0
1,4.132999897003174,learn,55867.000102996826,Fri May 15 2026 10:28:34 GMT-0400 (Eastern Daylight Time),139818.30000019073,A,wheatenter,I,enter,368,2,1466.1000001430511,138352.20000004768,9057,WL,C,2.0
1,5.632999897003174,learn,54367.000102996826,Fri May 15 2026 10:28:34 GMT-0400 (Eastern Daylight Time),141318.60000014305,A,q,I,q,1491,2,1499.7000000476837,139818.90000009537,9057,WL,C,3.0
1,5.75,learn,54250.0,Fri May 15 2026 10:28:34 GMT-0400 (Eastern Daylight Time),141435.40000009537,A,qu,I,u,98,2,1616.5,139818.90000009537,9057,WL,C,3.0
1,5.8999998569488525,learn,54100.00014305115,Fri May 15 2026 10:28:34 GMT-0400 (Eastern Daylight Time),141585.40000009537,A,que,I,e,128,2,1766.5,139818.90000009537,9057,WL,C,3.0
1,6.0329999923706055,learn,53967.000007629395,Fri May 15 2026 10:28:34 GMT-0400 (Eastern Daylight Time),141718.70000004768,A,quee,I,e,122,2,1899.7999999523163,139818.90000009537,9057,WL,C,3.0
1,6.615999937057495,learn,53384.000062942505,Fri May 15 2026 10:28:34 GMT-0400 (Eastern Daylight Time),142302.20000004768,A,queen,I,n,563,2,2483.2999999523163,139818.90000009537,9057,WL,C,3.0
1,7.148999929428101,learn,52851.0000705719,Fri May 15 2026 10:28:34 GMT-0400 (Eastern Daylight Time),142834.90000009537,A,queenenter,I,enter,508,2,3016.0,139818.90000009537,9057,WL,C,3.0
1,7.633999824523926,learn,52366.000175476074,Fri May 15 2026 10:28:34 GMT-0400 (Eastern Daylight Time),143319.40000009537,A,s,I,s,474,2,484.0,142835.40000009537,9057,WL,C,4.0
1,7.7159998416900635,learn,52284.00015830994,Fri May 15 2026 10:28:34 GMT-0400 (Eastern Daylight Time),143402.20000004768,A,su,I,u,72,2,566.7999999523163,142835.40000009537,9057,WL,C,4.0
1,7.915999889373779,learn,52084.00011062622,Fri May 15 2026 10:28:34 GMT-0400 (Eastern Daylight Time),143602.10000014305,A,sug,I,g,175,2,766.7000000476837,142835.40000009537,9057,WL,C,4.0
1,8.149999856948853,learn,51850.00014305115,Fri May 15 2026 10:28:34 GMT-0400 (Eastern Daylight Time),143835.30000019073,A,suga,I,a,216,2,999.9000000953674,142835.40000009537,9057,WL,C,4.0
1,8.365999937057495,learn,51634.000062942505,Fri May 15 2026 10:28:34 GMT-0400 (Eastern Daylight Time),144052.10000014305,A,sugar,I,r,181,2,1216.7000000476837,142835.40000009537,9057,WL,C,4.0
1,8.598999977111816,learn,51401.00002288818,Fri May 15 2026 10:28:34 GMT-0400 (Eastern Daylight Time),144284.90000009537,A,sugarenter,I,enter,212,2,1449.5,142835.40000009537,9057,WL,C,4.0
1,8.91599988937378,learn,51084.00011062622,Fri May 15 2026 10:28:34 GMT-0400 (Eastern Daylight Time),144602.10000014305,A,c,I,c,306,2,316.7999999523163,144285.30000019073,9057,WL,C,5.0
1,9.032999992370605,learn,50967.000007629395,Fri May 15 2026 10:28:34 GMT-0400 (Eastern Daylight Time),144718.70000004768,A,co,I,o,98,2,433.39999985694885,144285.30000019073,9057,WL,C,5.0
1,9.182999849319458,learn,50817.00015068054,Fri May 15 2026 10:28:34 GMT-0400 (Eastern Daylight Time),144868.70000004768,A,cor,I,r,113,2,583.3999998569489,144285.30000019073,9057,WL,C,5.0
1,9.5,learn,50500.0,Fri May 15 2026 10:28:34 GMT-0400 (Eastern Daylight Time),145185.40000009537,A,corb,I,b,286,2,900.0999999046326,144285.30000019073,9057,WL,C,5.0
1,10.315999984741211,learn,49684.00001525879,Fri May 15 2026 10:28:34 GMT-0400 (Eastern Daylight Time),146002.10000014305,A,cor,I,backspace,794,2,1716.7999999523163,144285.30000019073,9057,WL,C,5.0
1,10.715999841690063,learn,49284.00015830994,Fri May 15 2026 10:28:34 GMT-0400 (Eastern Daylight Time),146402.0,A,corn,I,n,375,2,2116.699999809265,144285.30000019073,9057,WL,C,5.0
1,11.682999849319458,learn,48317.00015068054,Fri May 15 2026 10:28:34 GMT-0400 (Eastern Daylight Time),147368.30000019073,A,cornenter,I,enter,952,2,3083.0,144285.30000019073,9057,WL,C,5.0
1,13.233000040054321,learn,46766.99995994568,Fri May 15 2026 10:28:34 GMT-0400 (Eastern Daylight Time),148918.40000009537,A,f,I,f,1542,2,1549.5999999046326,147368.80000019073,9057,WL,C,6.0
1,13.349999904632568,learn,46650.00009536743,Fri May 15 2026 10:28:34 GMT-0400 (Eastern Daylight Time),149035.30000019073,A,fl,I,l,100,2,1666.5,147368.80000019073,9057,WL,C,6.0
1,13.516000032424927,learn,46483.99996757507,Fri May 15 2026 10:28:34 GMT-0400 (Eastern Daylight Time),149202.10000014305,A,fla,I,a,135,2,1833.2999999523163,147368.80000019073,9057,WL,C,6.0
1,13.815999984741211,learn,46184.00001525879,Fri May 15 2026 10:28:34 GMT-0400 (Eastern Daylight Time),149501.70000004768,A,flag,I,g,268,2,2132.899999856949,147368.80000019073,9057,WL,C,6.0
1,14.016000032424927,learn,45983.99996757507,Fri May 15 2026 10:28:34 GMT-0400 (Eastern Daylight Time),149701.60000014305,A,flagenter,I,enter,174,2,2332.7999999523163,147368.80000019073,9057,WL,C,6.0
1,14.365999937057495,learn,45634.000062942505,Fri May 15 2026 10:28:34 GMT-0400 (Eastern Daylight Time),150052.10000014305,A,c,I,c,329,2,350.0,149702.10000014305,9057,WL,C,7.0
1,14.565999984741211,learn,45434.00001525879,Fri May 15 2026 10:28:34 GMT-0400 (Eastern Daylight Time),150252.0,A,ca,I,a,180,2,549.8999998569489,149702.10000014305,9057,WL,C,7.0
1,14.815999984741211,learn,45184.00001525879,Fri May 15 2026 10:28:34 GMT-0400 (Eastern Daylight Time),150502.10000014305,A,cat,I,t,224,2,800.0,149702.10000014305,9057,WL,C,7.0
1,14.948999881744385,learn,45051.000118255615,Fri May 15 2026 10:28:34 GMT-0400 (Eastern Daylight Time),150634.90000009537,A,catt,I,t,116,2,932.7999999523163,149702.10000014305,9057,WL,C,7.0
1,15.1489999294281,learn,44851.0000705719,Fri May 15 2026 10:28:34 GMT-0400 (Eastern Daylight Time),150834.70000004768,A,cattl,I,l,175,2,1132.5999999046326,149702.10000014305,9057,WL,C,7.0
1,15.266000032424927,learn,44733.99996757507,Fri May 15 2026 10:28:34 GMT-0400 (Eastern Daylight Time),150951.20000004768,A,cattle,I,e,107,2,1249.0999999046326,149702.10000014305,9057,WL,C,7.0
1,15.848999977111816,learn,44151.00002288818,Fri May 15 2026 10:28:34 GMT-0400 (Eastern Daylight Time),151535.0,A,cattleenter,I,enter,566,2,1832.8999998569489,149702.10000014305,9057,WL,C,7.0
1,17.23300004005432,learn,42766.99995994568,Fri May 15 2026 10:28:34 GMT-0400 (Eastern Daylight Time),152918.80000019073,A,b,I,b,1359,2,1383.4000000953674,151535.40000009537,9057,WL,C,8.0
1,17.81599998474121,learn,42184.00001525879,Fri May 15 2026 10:28:34 GMT-0400 (Eastern Daylight Time),153502.10000014305,A,bo,I,o,555,2,1966.7000000476837,151535.40000009537,9057,WL,C,8.0
1,18.115999937057495,learn,41884.000062942505,Fri May 15 2026 10:28:34 GMT-0400 (Eastern Daylight Time),153802.10000014305,A,boy,I,y,285,2,2266.7000000476837,151535.40000009537,9057,WL,C,8.0
1,18.448999881744385,learn,41551.000118255615,Fri May 15 2026 10:28:34 GMT-0400 (Eastern Daylight Time),154134.90000009537,A,boyenter,I,enter,321,2,2599.5,151535.40000009537,9057,WL,C,8.0
1,23.016000032424927,learn,36983.99996757507,Fri May 15 2026 10:28:34 GMT-0400 (Eastern Daylight Time),158702.0,A,s,I,s,4552,2,4566.699999809265,154135.30000019073,9057,WL,C,9.0
1,23.08299994468689,learn,36917.00005531311,Fri May 15 2026 10:28:34 GMT-0400 (Eastern Daylight Time),158768.80000019073,A,sh,I,h,44,2,4633.5,154135.30000019073,9057,WL,C,9.0
1,23.31599998474121,learn,36684.00001525879,Fri May 15 2026 10:28:34 GMT-0400 (Eastern Daylight Time),159002.10000014305,A,sho,I,o,209,2,4866.799999952316,154135.30000019073,9057,WL,C,9.0
1,23.41599988937378,learn,36584.00011062622,Fri May 15 2026 10:28:34 GMT-0400 (Eastern Daylight Time),159101.80000019073,A,shor,I,r,80,2,4966.5,154135.30000019073,9057,WL,C,9.0
1,23.56599998474121,learn,36434.00001525879,Fri May 15 2026 10:28:34 GMT-0400 (Eastern Daylight Time),159252.10000014305,A,shore,I,e,124,2,5116.799999952316,154135.30000019073,9057,WL,C,9.0
1,23.782999992370605,learn,36217.000007629395,Fri May 15 2026 10:28:34 GMT-0400 (Eastern Daylight Time),159468.30000019073,A,shoreenter,I,enter,189,2,5333.0,154135.30000019073,9057,WL,C,9.0
1,26.516000032424927,learn,33483.99996757507,Fri May 15 2026 10:28:34 GMT-0400 (Eastern Daylight Time),162202.10000014305,A,b,I,b,2723,2,2733.4000000953674,159468.70000004768,9057,WL,C,10.0
1,26.83299994468689,learn,33167.00005531311,Fri May 15 2026 10:28:34 GMT-0400 (Eastern Daylight Time),162518.60000014305,A,bo,I,o,306,2,3049.9000000953674,159468.70000004768,9057,WL,C,10.0
1,27.032999992370605,learn,32967.000007629395,Fri May 15 2026 10:28:34 GMT-0400 (Eastern Daylight Time),162718.70000004768,A,bod,I,d,182,2,3250.0,159468.70000004768,9057,WL,C,10.0
1,27.266000032424927,learn,32733.999967575073,Fri May 15 2026 10:28:34 GMT-0400 (Eastern Daylight Time),162951.90000009537,A,body,I,y,221,2,3483.2000000476837,159468.70000004768,9057,WL,C,10.0
1,27.549000024795532,learn,32450.999975204468,Fri May 15 2026 10:28:34 GMT-0400 (Eastern Daylight Time),163234.90000009537,A,bodyenter,I,enter,259,2,3766.2000000476837,159468.70000004768,9057,WL,C,10.0
1,27.98300004005432,learn,32016.99995994568,Fri May 15 2026 10:28:34 GMT-0400 (Eastern Daylight Time),163668.70000004768,A,d,I,d,412,2,433.39999985694885,163235.30000019073,9057,WL,C,11.0
1,28.09999990463257,learn,31900.00009536743,Fri May 15 2026 10:28:34 GMT-0400 (Eastern Daylight Time),163785.40000009537,A,do,I,o,102,2,550.0999999046326,163235.30000019073,9057,WL,C,11.0
1,28.200000047683716,learn,31799.999952316284,Fri May 15 2026 10:28:34 GMT-0400 (Eastern Daylight Time),163885.40000009537,A,doc,I,c,83,2,650.0999999046326,163235.30000019073,9057,WL,C,11.0
1,28.399999856948853,learn,31600.000143051147,Fri May 15 2026 10:28:34 GMT-0400 (Eastern Daylight Time),164085.5,A,doct,I,t,165,2,850.1999998092651,163235.30000019073,9057,WL,C,11.0
1,28.49899983406067,learn,31501.00016593933,Fri May 15 2026 10:28:34 GMT-0400 (Eastern Daylight Time),164184.90000009537,A,docto,I,o,76,2,949.5999999046326,163235.30000019073,9057,WL,C,11.0
1,28.59999990463257,learn,31400.00009536743,Fri May 15 2026 10:28:34 GMT-0400 (Eastern Daylight Time),164285.40000009537,A,doctor,I,r,83,2,1050.0999999046326,163235.30000019073,9057,WL,C,11.0
1,28.882999897003174,learn,31117.000102996826,Fri May 15 2026 10:28:34 GMT-0400 (Eastern Daylight Time),164569.20000004768,A,doctorenter,I,enter,268,2,1333.8999998569489,163235.30000019073,9057,WL,C,11.0
1,29.882999897003174,learn,30117.000102996826,Fri May 15 2026 10:28:34 GMT-0400 (Eastern Daylight Time),165568.60000014305,A,n,I,n,981,2,999.1000001430511,164569.5,9057,WL,C,12.0
1,30.032999992370605,learn,29967.000007629395,Fri May 15 2026 10:28:34 GMT-0400 (Eastern Daylight Time),165718.80000019073,A,na,I,a,124,2,1149.3000001907349,164569.5,9057,WL,C,12.0
1,30.149999856948853,learn,29850.000143051147,Fri May 15 2026 10:28:34 GMT-0400 (Eastern Daylight Time),165835.40000009537,A,nai,I,i,99,2,1265.9000000953674,164569.5,9057,WL,C,12.0
1,30.33299994468689,learn,29667.00005531311,Fri May 15 2026 10:28:34 GMT-0400 (Eastern Daylight Time),166018.70000004768,A,nail,I,l,162,2,1449.2000000476837,164569.5,9057,WL,C,12.0
1,31.032999992370605,learn,28967.000007629395,Fri May 15 2026 10:28:34 GMT-0400 (Eastern Daylight Time),166718.30000019073,A,nailenter,I,enter,680,2,2148.800000190735,164569.5,9057,WL,C,12.0
1,60.01699995994568,learn,-16.99995994567871,Fri May 15 2026 10:28:34 GMT-0400 (Eastern Daylight Time),195702.30000019073,A,None,I,None,28976,2,28983.700000047684,166718.60000014305,9057,WL,C,13.0
2,4.4670000076293945,learn,55532.999992370605,Fri May 15 2026 10:28:34 GMT-0400 (Eastern Daylight Time),272035.60000014305,A,t,I,t,4444,2,4466.299999952316,267569.30000019073,9057,WL,C,1.0
2,4.565999984741211,learn,55434.00001525879,Fri May 15 2026 10:28:34 GMT-0400 (Eastern Daylight Time),272135.10000014305,A,to,I,o,88,2,4565.799999952316,267569.30000019073,9057,WL,C,1.0
2,4.766000032424927,learn,55233.99996757507,Fri May 15 2026 10:28:34 GMT-0400 (Eastern Daylight Time),272335.30000019073,A,tow,I,w,173,2,4766.0,267569.30000019073,9057,WL,C,1.0
2,4.950000047683716,learn,55049.999952316284,Fri May 15 2026 10:28:34 GMT-0400 (Eastern Daylight Time),272518.90000009537,A,towe,I,e,156,2,4949.599999904633,267569.30000019073,9057,WL,C,1.0
2,5.08299994468689,learn,54917.00005531311,Fri May 15 2026 10:28:34 GMT-0400 (Eastern Daylight Time),272652.0,A,tower,I,r,106,2,5082.699999809265,267569.30000019073,9057,WL,C,1.0
2,5.416000127792358,learn,54583.99987220764,Fri May 15 2026 10:28:34 GMT-0400 (Eastern Daylight Time),272985.0,A,towerenter,I,enter,311,2,5415.699999809265,267569.30000019073,9057,WL,C,1.0
2,5.900000095367432,learn,54099.99990463257,Fri May 15 2026 10:28:34 GMT-0400 (Eastern Daylight Time),273468.80000019073,A,w,I,w,470,2,483.5,272985.30000019073,9057,WL,C,2.0
2,6.049999952316284,learn,53950.000047683716,Fri May 15 2026 10:28:34 GMT-0400 (Eastern Daylight Time),273618.80000019073,A,wh,I,h,126,2,633.5,272985.30000019073,9057,WL,C,2.0
2,6.150000095367432,learn,53849.99990463257,Fri May 15 2026 10:28:34 GMT-0400 (Eastern Daylight Time),273718.7000000477,A,whe,I,e,90,2,733.3999998569489,272985.30000019073,9057,WL,C,2.0
2,6.33299994468689,learn,53667.00005531311,Fri May 15 2026 10:28:34 GMT-0400 (Eastern Daylight Time),273902.10000014305,A,whea,I,a,157,2,916.7999999523163,272985.30000019073,9057,WL,C,2.0
2,6.58299994468689,learn,53417.00005531311,Fri May 15 2026 10:28:34 GMT-0400 (Eastern Daylight Time),274152.10000014305,A,wheat,I,t,228,2,1166.7999999523163,272985.30000019073,9057,WL,C,2.0
2,7.049999952316284,learn,52950.000047683716,Fri May 15 2026 10:28:34 GMT-0400 (Eastern Daylight Time),274618.40000009537,A,wheatenter,I,enter,453,2,1633.0999999046326,272985.30000019073,9057,WL,C,2.0
2,7.8500001430511475,learn,52149.99985694885,Fri May 15 2026 10:28:34 GMT-0400 (Eastern Daylight Time),275418.80000019073,A,s,I,s,788,2,800.1000001430511,274618.7000000477,9057,WL,C,3.0
2,7.9670000076293945,learn,52032.999992370605,Fri May 15 2026 10:28:34 GMT-0400 (Eastern Daylight Time),275535.5,A,su,I,u,97,2,916.7999999523163,274618.7000000477,9057,WL,C,3.0
2,8.200000047683716,learn,51799.999952316284,Fri May 15 2026 10:28:34 GMT-0400 (Eastern Daylight Time),275768.90000009537,A,sug,I,g,219,2,1150.2000000476837,274618.7000000477,9057,WL,C,3.0
2,8.450000047683716,learn,51549.999952316284,Fri May 15 2026 10:28:34 GMT-0400 (Eastern Daylight Time),276018.80000019073,A,suga,I,a,227,2,1400.1000001430511,274618.7000000477,9057,WL,C,3.0
2,8.650000095367432,learn,51349.99990463257,Fri May 15 2026 10:28:34 GMT-0400 (Eastern Daylight Time),276218.80000019073,A,sugar,I,r,185,2,1600.1000001430511,274618.7000000477,9057,WL,C,3.0
2,8.865999937057495,learn,51134.000062942505,Fri May 15 2026 10:28:34 GMT-0400 (Eastern Daylight Time),276435.0,A,sugarenter,I,enter,191,2,1816.2999999523163,274618.7000000477,9057,WL,C,3.0
2,9.233000040054321,learn,50766.99995994568,Fri May 15 2026 10:28:34 GMT-0400 (Eastern Daylight Time),276802.10000014305,A,c,I,c,348,2,366.7000000476837,276435.40000009537,9057,WL,C,4.0
2,9.350000143051147,learn,50649.99985694885,Fri May 15 2026 10:28:34 GMT-0400 (Eastern Daylight Time),276918.80000019073,A,co,I,o,88,2,483.40000009536743,276435.40000009537,9057,WL,C,4.0
2,9.483000040054321,learn,50516.99995994568,Fri May 15 2026 10:28:34 GMT-0400 (Eastern Daylight Time),277052.0,A,cor,I,r,106,2,616.5999999046326,276435.40000009537,9057,WL,C,4.0
2,9.867000102996826,learn,50132.999897003174,Fri May 15 2026 10:28:34 GMT-0400 (Eastern Daylight Time),277435.5,A,corb,I,b,358,2,1000.0999999046326,276435.40000009537,9057,WL,C,4.0
2,10.683000087738037,learn,49316.99991226196,Fri May 15 2026 10:28:34 GMT-0400 (Eastern Daylight Time),278252.2000000477,A,cor,I,backspace,801,2,1816.7999999523163,276435.40000009537,9057,WL,C,4.0
2,11.150000095367432,learn,48849.99990463257,Fri May 15 2026 10:28:34 GMT-0400 (Eastern Daylight Time),278718.80000019073,A,corn,I,n,446,2,2283.4000000953674,276435.40000009537,9057,WL,C,4.0
2,11.58299994468689,learn,48417.00005531311,Fri May 15 2026 10:28:34 GMT-0400 (Eastern Daylight Time),279151.60000014305,A,cornenter,I,enter,412,2,2716.2000000476837,276435.40000009537,9057,WL,C,4.0
2,13.33299994468689,learn,46667.00005531311,Fri May 15 2026 10:28:34 GMT-0400 (Eastern Daylight Time),280902.10000014305,A,f,I,f,1728,2,1750.1000001430511,279152.0,9057,WL,C,5.0
2,13.41700005531311,learn,46582.99994468689,Fri May 15 2026 10:28:34 GMT-0400 (Eastern Daylight Time),280985.5,A,fl,I,l,70,2,1833.5,279152.0,9057,WL,C,5.0
2,13.549999952316284,learn,46450.000047683716,Fri May 15 2026 10:28:34 GMT-0400 (Eastern Daylight Time),281118.80000019073,A,fla,I,a,113,2,1966.8000001907349,279152.0,9057,WL,C,5.0
2,13.817000150680542,learn,46182.99984931946,Fri May 15 2026 10:28:34 GMT-0400 (Eastern Daylight Time),281385.5,A,flag,I,g,243,2,2233.5,279152.0,9057,WL,C,5.0
2,13.983000040054321,learn,46016.99995994568,Fri May 15 2026 10:28:34 GMT-0400 (Eastern Daylight Time),281551.7000000477,A,flagenter,I,enter,146,2,2399.7000000476837,279152.0,9057,WL,C,5.0
2,14.41700005531311,learn,45582.99994468689,Fri May 15 2026 10:28:34 GMT-0400 (Eastern Daylight Time),281985.5,A,b,I,b,415,2,433.39999985694885,281552.10000014305,9057,WL,C,6.0
2,14.549999952316284,learn,45450.000047683716,Fri May 15 2026 10:28:34 GMT-0400 (Eastern Daylight Time),282118.90000009537,A,bo,I,o,104,2,566.7999999523163,281552.10000014305,9057,WL,C,6.0
2,14.983000040054321,learn,45016.99995994568,Fri May 15 2026 10:28:34 GMT-0400 (Eastern Daylight Time),282552.0,A,bod,I,d,422,2,999.8999998569489,281552.10000014305,9057,WL,C,6.0
2,15.117000102996826,learn,44882.999897003174,Fri May 15 2026 10:28:34 GMT-0400 (Eastern Daylight Time),282685.5,A,body,I,y,116,2,1133.3999998569489,281552.10000014305,9057,WL,C,6.0
2,15.766000032424927,learn,44233.99996757507,Fri May 15 2026 10:28:34 GMT-0400 (Eastern Daylight Time),283335.0,A,bodyenter,I,enter,639,2,1782.8999998569489,281552.10000014305,9057,WL,C,6.0
2,18.01699995994568,learn,41983.00004005432,Fri May 15 2026 10:28:34 GMT-0400 (Eastern Daylight Time),285585.60000014305,A,s,I,s,2232,2,2250.2999999523163,283335.30000019073,9057,WL,C,7.0
2,18.133000135421753,learn,41866.99986457825,Fri May 15 2026 10:28:34 GMT-0400 (Eastern Daylight Time),285702.2000000477,A,sh,I,h,88,2,2366.899999856949,283335.30000019073,9057,WL,C,7.0
2,18.383000135421753,learn,41616.99986457825,Fri May 15 2026 10:28:34 GMT-0400 (Eastern Daylight Time),285952.30000019073,A,sho,I,o,232,2,2617.0,283335.30000019073,9057,WL,C,7.0
2,18.5,learn,41500.0,Fri May 15 2026 10:28:34 GMT-0400 (Eastern Daylight Time),286068.7000000477,A,shor,I,r,92,2,2733.399999856949,283335.30000019073,9057,WL,C,7.0
2,18.683000087738037,learn,41316.99991226196,Fri May 15 2026 10:28:34 GMT-0400 (Eastern Daylight Time),286252.10000014305,A,shore,I,e,165,2,2916.7999999523163,283335.30000019073,9057,WL,C,7.0
2,19.750999927520752,learn,40249.00007247925,Fri May 15 2026 10:28:34 GMT-0400 (Eastern Daylight Time),287319.30000019073,A,shoreenter,I,enter,1047,2,3984.0,283335.30000019073,9057,WL,C,7.0
2,20.067000150680542,learn,39932.99984931946,Fri May 15 2026 10:28:34 GMT-0400 (Eastern Daylight Time),287635.40000009537,A,c,I,c,296,2,315.59999990463257,287319.80000019073,9057,WL,C,8.0
2,20.25,learn,39750.0,Fri May 15 2026 10:28:34 GMT-0400 (Eastern Daylight Time),287818.90000009537,A,ca,I,a,169,2,499.09999990463257,287319.80000019073,9057,WL,C,8.0
2,20.48300004005432,learn,39516.99995994568,Fri May 15 2026 10:28:34 GMT-0400 (Eastern Daylight Time),288052.10000014305,A,cat,I,t,208,2,732.2999999523163,287319.80000019073,9057,WL,C,8.0
2,20.617000102996826,learn,39382.999897003174,Fri May 15 2026 10:28:34 GMT-0400 (Eastern Daylight Time),288185.5,A,catt,I,t,120,2,865.6999998092651,287319.80000019073,9057,WL,C,8.0
2,20.76699995994568,learn,39233.00004005432,Fri May 15 2026 10:28:34 GMT-0400 (Eastern Daylight Time),288335.5,A,cattl,I,l,121,2,1015.6999998092651,287319.80000019073,9057,WL,C,8.0
2,20.950000047683716,learn,39049.999952316284,Fri May 15 2026 10:28:34 GMT-0400 (Eastern Daylight Time),288518.80000019073,A,cattle,I,e,162,2,1199.0,287319.80000019073,9057,WL,C,8.0
2,21.65000009536743,learn,38349.99990463257,Fri May 15 2026 10:28:34 GMT-0400 (Eastern Daylight Time),289218.30000019073,A,cattleenter,I,enter,678,2,1898.5,287319.80000019073,9057,WL,C,8.0
2,29.65000009536743,learn,30349.99990463257,Fri May 15 2026 10:28:34 GMT-0400 (Eastern Daylight Time),297218.90000009537,A,d,I,d,7981,2,8000.200000047684,289218.7000000477,9057,WL,C,9.0
2,30.16600012779236,learn,29833.99987220764,Fri May 15 2026 10:28:34 GMT-0400 (Eastern Daylight Time),297735.10000014305,A,do,I,o,504,2,8516.400000095367,289218.7000000477,9057,WL,C,9.0
2,30.317000150680542,learn,29682.999849319458,Fri May 15 2026 10:28:34 GMT-0400 (Eastern Daylight Time),297885.40000009537,A,doc,I,c,133,2,8666.700000047684,289218.7000000477,9057,WL,C,9.0
2,30.549999952316284,learn,29450.000047683716,Fri May 15 2026 10:28:34 GMT-0400 (Eastern Daylight Time),298118.7000000477,A,doct,I,t,221,2,8900.0,289218.7000000477,9057,WL,C,9.0
2,30.66700005531311,learn,29332.99994468689,Fri May 15 2026 10:28:34 GMT-0400 (Eastern Daylight Time),298235.40000009537,A,docto,I,o,101,2,9016.700000047684,289218.7000000477,9057,WL,C,9.0
2,30.817000150680542,learn,29182.999849319458,Fri May 15 2026 10:28:34 GMT-0400 (Eastern Daylight Time),298385.5,A,doctor,I,r,129,2,9166.799999952316,289218.7000000477,9057,WL,C,9.0
2,31.266000032424927,learn,28733.999967575073,Fri May 15 2026 10:28:34 GMT-0400 (Eastern Daylight Time),298835.0,A,doctorenter,I,enter,417,2,9616.299999952316,289218.7000000477,9057,WL,C,9.0
2,34.08299994468689,learn,25917.00005531311,Fri May 15 2026 10:28:34 GMT-0400 (Eastern Daylight Time),301652.2000000477,A,h,I,h,2796,2,2816.899999856949,298835.30000019073,9057,WL,C,10.0
2,34.299999952316284,learn,25700.000047683716,Fri May 15 2026 10:28:34 GMT-0400 (Eastern Daylight Time),301868.90000009537,A,ho,I,o,197,2,3033.5999999046326,298835.30000019073,9057,WL,C,10.0
2,35.68300008773804,learn,24316.999912261963,Fri May 15 2026 10:28:34 GMT-0400 (Eastern Daylight Time),303252.10000014305,A,hon,I,n,1349,2,4416.799999952316,298835.30000019073,9057,WL,C,10.0
2,36.717000007629395,learn,23282.999992370605,Fri May 15 2026 10:28:34 GMT-0400 (Eastern Daylight Time),304285.40000009537,A,ho,I,backspace,1013,2,5450.099999904633,298835.30000019073,9057,WL,C,10.0
2,37.31700015068054,learn,22682.999849319458,Fri May 15 2026 10:28:34 GMT-0400 (Eastern Daylight Time),304885.40000009537,A,hom,I,m,574,2,6050.099999904633,298835.30000019073,9057,WL,C,10.0
2,37.60000014305115,learn,22399.999856948853,Fri May 15 2026 10:28:34 GMT-0400 (Eastern Daylight Time),305168.80000019073,A,home,I,e,263,2,6333.5,298835.30000019073,9057,WL,C,10.0
2,38.10000014305115,learn,21899.999856948853,Fri May 15 2026 10:28:34 GMT-0400 (Eastern Daylight Time),305668.40000009537,A,homeenter,I,enter,474,2,6833.099999904633,298835.30000019073,9057,WL,C,10.0
2,39.717000007629395,learn,20282.999992370605,Fri May 15 2026 10:28:34 GMT-0400 (Eastern Daylight Time),307285.60000014305,A,b,I,b,1594,2,1616.9000000953674,305668.7000000477,9057,WL,C,11.0
2,40.23300004005432,learn,19766.99995994568,Fri May 15 2026 10:28:34 GMT-0400 (Eastern Daylight Time),307802.2000000477,A,bo,I,o,503,2,2133.5,305668.7000000477,9057,WL,C,11.0
2,40.56599998474121,learn,19434.00001525879,Fri May 15 2026 10:28:34 GMT-0400 (Eastern Daylight Time),308135.2000000477,A,boy,I,y,320,2,2466.5,305668.7000000477,9057,WL,C,11.0
2,40.83299994468689,learn,19167.00005531311,Fri May 15 2026 10:28:34 GMT-0400 (Eastern Daylight Time),308401.60000014305,A,boyenter,I,enter,244,2,2732.9000000953674,305668.7000000477,9057,WL,C,11.0
2,43.60000014305115,learn,16399.999856948853,Fri May 15 2026 10:28:34 GMT-0400 (Eastern Daylight Time),311168.80000019073,A,t,I,t,2749,2,2766.800000190735,308402.0,9057,WL,C,12.0
2,43.700000047683716,learn,16299.999952316284,Fri May 15 2026 10:28:34 GMT-0400 (Eastern Daylight Time),311268.90000009537,A,to,I,o,74,2,2866.9000000953674,308402.0,9057,WL,C,12.0
2,43.950000047683716,learn,16049.999952316284,Fri May 15 2026 10:28:34 GMT-0400 (Eastern Daylight Time),311518.80000019073,A,tow,I,w,222,2,3116.800000190735,308402.0,9057,WL,C,12.0
2,44.117000102996826,learn,15882.999897003174,Fri May 15 2026 10:28:34 GMT-0400 (Eastern Daylight Time),311685.60000014305,A,towe,I,e,132,2,3283.600000143051,308402.0,9057,WL,C,12.0
2,44.26699995994568,learn,15733.000040054321,Fri May 15 2026 10:28:34 GMT-0400 (Eastern Daylight Time),311835.5,A,tower,I,r,134,2,3433.5,308402.0,9057,WL,C,12.0
2,44.66600012779236,learn,15333.999872207642,Fri May 15 2026 10:28:34 GMT-0400 (Eastern Daylight Time),312235.0,A,towerenter,I,enter,385,2,3833.0,308402.0,9057,WL,C,12.0
2,48.41700005531311,learn,11582.99994468689,Fri May 15 2026 10:28:34 GMT-0400 (Eastern Daylight Time),315985.60000014305,A,s,I,s,3731,2,3750.2000000476837,312235.40000009537,9057,WL,C,13.0
2,48.56599998474121,learn,11434.000015258789,Fri May 15 2026 10:28:34 GMT-0400 (Eastern Daylight Time),316135.30000019073,A,sh,I,h,138,2,3899.9000000953674,312235.40000009537,9057,WL,C,13.0
2,48.615999937057495,learn,11384.000062942505,Fri May 15 2026 10:28:34 GMT-0400 (Eastern Daylight Time),316184.90000009537,A,she,I,e,27,2,3949.5,312235.40000009537,9057,WL,C,13.0
2,48.83299994468689,learn,11167.00005531311,Fri May 15 2026 10:28:34 GMT-0400 (Eastern Daylight Time),316402.2000000477,A,shea,I,a,199,2,4166.799999952316,312235.40000009537,9057,WL,C,13.0
2,49.08299994468689,learn,10917.00005531311,Fri May 15 2026 10:28:34 GMT-0400 (Eastern Daylight Time),316652.2000000477,A,sheat,I,t,233,2,4416.799999952316,312235.40000009537,9057,WL,C,13.0
2,49.75099992752075,learn,10249.000072479248,Fri May 15 2026 10:28:34 GMT-0400 (Eastern Daylight Time),317319.40000009537,A,sheatenter,I,enter,656,2,5084.0,312235.40000009537,9057,WL,C,13.0
2,54.18300008773804,learn,5816.999912261963,Fri May 15 2026 10:28:34 GMT-0400 (Eastern Daylight Time),321751.90000009537,A,w,I,w,4424,2,4432.200000047684,317319.7000000477,9057,WL,C,14.0
2,54.35000014305115,learn,5649.9998569488525,Fri May 15 2026 10:28:34 GMT-0400 (Eastern Daylight Time),321918.80000019073,A,wh,I,h,149,2,4599.100000143051,317319.7000000477,9057,WL,C,14.0
2,54.450000047683716,learn,5549.999952316284,Fri May 15 2026 10:28:34 GMT-0400 (Eastern Daylight Time),322018.80000019073,A,whe,I,e,78,2,4699.100000143051,317319.7000000477,9057,WL,C,14.0
2,54.65000009536743,learn,5349.999904632568,Fri May 15 2026 10:28:34 GMT-0400 (Eastern Daylight Time),322218.80000019073,A,whea,I,a,175,2,4899.100000143051,317319.7000000477,9057,WL,C,14.0
2,55.08299994468689,learn,4917.00005531311,Fri May 15 2026 10:28:34 GMT-0400 (Eastern Daylight Time),322652.2000000477,A,wheat,I,t,417,2,5332.5,317319.7000000477,9057,WL,C,14.0
2,55.700000047683716,learn,4299.999952316284,Fri May 15 2026 10:28:34 GMT-0400 (Eastern Daylight Time),323268.40000009537,A,wheatenter,I,enter,591,2,5948.700000047684,317319.7000000477,9057,WL,C,14.0
2,60.01699995994568,learn,-16.99995994567871,Fri May 15 2026 10:28:34 GMT-0400 (Eastern Daylight Time),327585.60000014305,A,None,I,None,4309,2,4316.5,323269.10000014305,9057,WL,C,15.0
3,2.2340002059936523,learn,57765.99979400635,Fri May 15 2026 10:28:34 GMT-0400 (Eastern Daylight Time),399135.7000000477,A,c,I,c,2215,2,2232.899999856949,396902.80000019073,9057,WL,C,1.0
3,2.9840002059936523,learn,57015.99979400635,Fri May 15 2026 10:28:34 GMT-0400 (Eastern Daylight Time),399885.5,A,ca,I,a,730,2,2982.699999809265,396902.80000019073,9057,WL,C,1.0
3,3.2170000076293945,learn,56782.999992370605,Fri May 15 2026 10:28:34 GMT-0400 (Eastern Daylight Time),400118.90000009537,A,cam,I,m,205,2,3216.0999999046326,396902.80000019073,9057,WL,C,1.0
3,3.8340001106262207,learn,56165.99988937378,Fri May 15 2026 10:28:34 GMT-0400 (Eastern Daylight Time),400735.60000014305,A,camp,I,p,598,2,3832.7999999523163,396902.80000019073,9057,WL,C,1.0
3,4.4670000076293945,learn,55532.999992370605,Fri May 15 2026 10:28:34 GMT-0400 (Eastern Daylight Time),401368.40000009537,A,campenter,I,enter,618,2,4465.599999904633,396902.80000019073,9057,WL,C,1.0
3,5.384000062942505,learn,54615.999937057495,Fri May 15 2026 10:28:34 GMT-0400 (Eastern Daylight Time),402285.60000014305,A,h,I,h,903,2,916.7999999523163,401368.80000019073,9057,WL,C,2.0
3,5.5340001583099365,learn,54465.99984169006,Fri May 15 2026 10:28:34 GMT-0400 (Eastern Daylight Time),402435.60000014305,A,ho,I,o,125,2,1066.7999999523163,401368.80000019073,9057,WL,C,2.0
3,5.767000198364258,learn,54232.99980163574,Fri May 15 2026 10:28:34 GMT-0400 (Eastern Daylight Time),402668.90000009537,A,hom,I,m,214,2,1300.0999999046326,401368.80000019073,9057,WL,C,2.0
3,6.067000150680542,learn,53932.99984931946,Fri May 15 2026 10:28:34 GMT-0400 (Eastern Daylight Time),402969.0,A,home,I,e,287,2,1600.1999998092651,401368.80000019073,9057,WL,C,2.0
3,6.618000030517578,learn,53381.99996948242,Fri May 15 2026 10:28:34 GMT-0400 (Eastern Daylight Time),403519.30000019073,A,homeenter,I,enter,532,2,2150.5,401368.80000019073,9057,WL,C,2.0
3,9.400000095367432,learn,50599.99990463257,Fri May 15 2026 10:28:34 GMT-0400 (Eastern Daylight Time),406302.30000019073,A,s,I,s,2768,2,2782.600000143051,403519.7000000477,9057,WL,C,3.0
3,9.517000198364258,learn,50482.99980163574,Fri May 15 2026 10:28:34 GMT-0400 (Eastern Daylight Time),406418.7000000477,A,sh,I,h,94,2,2899.0,403519.7000000477,9057,WL,C,3.0
3,10.017000198364258,learn,49982.99980163574,Fri May 15 2026 10:28:34 GMT-0400 (Eastern Daylight Time),406918.90000009537,A,sho,I,o,465,2,3399.2000000476837,403519.7000000477,9057,WL,C,3.0
3,10.400000095367432,learn,49599.99990463257,Fri May 15 2026 10:28:34 GMT-0400 (Eastern Daylight Time),407302.2000000477,A,shor,I,r,358,2,3782.5,403519.7000000477,9057,WL,C,3.0
3,10.567000150680542,learn,49432.99984931946,Fri May 15 2026 10:28:34 GMT-0400 (Eastern Daylight Time),407468.90000009537,A,shore,I,e,149,2,3949.2000000476837,403519.7000000477,9057,WL,C,3.0
3,11.017000198364258,learn,48982.99980163574,Fri May 15 2026 10:28:34 GMT-0400 (Eastern Daylight Time),407918.40000009537,A,shoreenter,I,enter,422,2,4398.700000047684,403519.7000000477,9057,WL,C,3.0
3,13.950000047683716,learn,46049.999952316284,Fri May 15 2026 10:28:34 GMT-0400 (Eastern Daylight Time),410852.30000019073,A,f,I,f,2912,2,2933.5,407918.80000019073,9057,WL,C,4.0
3,14.08400011062622,learn,45915.99988937378,Fri May 15 2026 10:28:34 GMT-0400 (Eastern Daylight Time),410985.60000014305,A,fl,I,l,118,2,3066.7999999523163,407918.80000019073,9057,WL,C,4.0
3,14.25,learn,45750.0,Fri May 15 2026 10:28:34 GMT-0400 (Eastern Daylight Time),411152.2000000477,A,fla,I,a,136,2,3233.399999856949,407918.80000019073,9057,WL,C,4.0
3,14.651000022888184,learn,45348.99997711182,Fri May 15 2026 10:28:34 GMT-0400 (Eastern Daylight Time),411552.40000009537,A,flag,I,g,380,2,3633.5999999046326,407918.80000019073,9057,WL,C,4.0
3,14.91700005531311,learn,45082.99994468689,Fri May 15 2026 10:28:34 GMT-0400 (Eastern Daylight Time),411818.5,A,flagenter,I,enter,252,2,3899.699999809265,407918.80000019073,9057,WL,C,4.0
3,15.900000095367432,learn,44099.99990463257,Fri May 15 2026 10:28:34 GMT-0400 (Eastern Daylight Time),412802.2000000477,A,l,I,l,964,2,983.3999998569489,411818.80000019073,9057,WL,C,5.0
3,16.017000198364258,learn,43982.99980163574,Fri May 15 2026 10:28:34 GMT-0400 (Eastern Daylight Time),412918.90000009537,A,le,I,e,106,2,1100.0999999046326,411818.80000019073,9057,WL,C,5.0
3,16.217000007629395,learn,43782.999992370605,Fri May 15 2026 10:28:34 GMT-0400 (Eastern Daylight Time),413118.90000009537,A,let,I,t,181,2,1300.0999999046326,411818.80000019073,9057,WL,C,5.0
3,16.350000143051147,learn,43649.99985694885,Fri May 15 2026 10:28:34 GMT-0400 (Eastern Daylight Time),413252.2000000477,A,lett,I,t,100,2,1433.3999998569489,411818.80000019073,9057,WL,C,5.0
3,16.800000190734863,learn,43199.99980926514,Fri May 15 2026 10:28:34 GMT-0400 (Eastern Daylight Time),413702.30000019073,A,lette,I,e,413,2,1883.5,411818.80000019073,9057,WL,C,5.0
3,17.032999992370605,learn,42967.000007629395,Fri May 15 2026 10:28:34 GMT-0400 (Eastern Daylight Time),413935.10000014305,A,letter,I,r,212,2,2116.2999999523163,411818.80000019073,9057,WL,C,5.0
3,17.367000102996826,learn,42632.999897003174,Fri May 15 2026 10:28:34 GMT-0400 (Eastern Daylight Time),414268.5,A,letterenter,I,enter,320,2,2449.699999809265,411818.80000019073,9057,WL,C,5.0
3,18.41700005531311,learn,41582.99994468689,Fri May 15 2026 10:28:34 GMT-0400 (Eastern Daylight Time),415318.90000009537,A,h,I,h,1026,2,1050.0999999046326,414268.80000019073,9057,WL,C,6.0
3,18.534000158309937,learn,41465.99984169006,Fri May 15 2026 10:28:34 GMT-0400 (Eastern Daylight Time),415435.7000000477,A,ho,I,o,102,2,1166.8999998569489,414268.80000019073,9057,WL,C,6.0
3,19.217000007629395,learn,40782.999992370605,Fri May 15 2026 10:28:34 GMT-0400 (Eastern Daylight Time),416119.0,A,hom,I,m,646,2,1850.1999998092651,414268.80000019073,9057,WL,C,6.0
3,19.43400001525879,learn,40565.99998474121,Fri May 15 2026 10:28:34 GMT-0400 (Eastern Daylight Time),416335.5,A,home,I,e,197,2,2066.699999809265,414268.80000019073,9057,WL,C,6.0
3,19.83300018310547,learn,40166.99981689453,Fri May 15 2026 10:28:34 GMT-0400 (Eastern Daylight Time),416735.10000014305,A,homeenter,I,enter,379,2,2466.2999999523163,414268.80000019073,9057,WL,C,6.0
3,20.91700005531311,learn,39082.99994468689,Fri May 15 2026 10:28:34 GMT-0400 (Eastern Daylight Time),417818.90000009537,A,b,I,b,1073,2,1083.4000000953674,416735.5,9057,WL,C,7.0
3,21.034000158309937,learn,38965.99984169006,Fri May 15 2026 10:28:34 GMT-0400 (Eastern Daylight Time),417935.5,A,bo,I,o,97,2,1200.0,416735.5,9057,WL,C,7.0
3,21.3510000705719,learn,38648.9999294281,Fri May 15 2026 10:28:34 GMT-0400 (Eastern Daylight Time),418252.30000019073,A,boy,I,y,289,2,1516.8000001907349,416735.5,9057,WL,C,7.0
3,21.66700005531311,learn,38332.99994468689,Fri May 15 2026 10:28:34 GMT-0400 (Eastern Daylight Time),418568.30000019073,A,boyenter,I,enter,302,2,1832.8000001907349,416735.5,9057,WL,C,7.0
3,22.217000007629395,learn,37782.999992370605,Fri May 15 2026 10:28:34 GMT-0400 (Eastern Daylight Time),419118.80000019073,A,b,I,b,534,2,550.1000001430511,418568.7000000477,9057,WL,C,8.0
3,22.350000143051147,learn,37649.99985694885,Fri May 15 2026 10:28:34 GMT-0400 (Eastern Daylight Time),419252.2000000477,A,bo,I,o,108,2,683.5,418568.7000000477,9057,WL,C,8.0
3,22.784000158309937,learn,37215.99984169006,Fri May 15 2026 10:28:34 GMT-0400 (Eastern Daylight Time),419685.5,A,bod,I,d,406,2,1116.7999999523163,418568.7000000477,9057,WL,C,8.0
3,22.93400001525879,learn,37065.99998474121,Fri May 15 2026 10:28:34 GMT-0400 (Eastern Daylight Time),419835.60000014305,A,body,I,y,135,2,1266.9000000953674,418568.7000000477,9057,WL,C,8.0
3,23.567000150680542,learn,36432.99984931946,Fri May 15 2026 10:28:34 GMT-0400 (Eastern Daylight Time),420468.40000009537,A,bodyenter,I,enter,597,2,1899.7000000476837,418568.7000000477,9057,WL,C,8.0
3,24.65000009536743,learn,35349.99990463257,Fri May 15 2026 10:28:34 GMT-0400 (Eastern Daylight Time),421552.2000000477,A,c,I,c,1067,2,1083.3999998569489,420468.80000019073,9057,WL,C,9.0
3,24.850000143051147,learn,35149.99985694885,Fri May 15 2026 10:28:34 GMT-0400 (Eastern Daylight Time),421752.2000000477,A,cq,I,q,188,2,1283.3999998569489,420468.80000019073,9057,WL,C,9.0
3,25.08400011062622,learn,34915.99988937378,Fri May 15 2026 10:28:34 GMT-0400 (Eastern Daylight Time),421985.5,A,cqt,I,t,212,2,1516.6999998092651,420468.80000019073,9057,WL,C,9.0
3,25.234000205993652,learn,34765.99979400635,Fri May 15 2026 10:28:34 GMT-0400 (Eastern Daylight Time),422135.30000019073,A,cqtt,I,t,130,2,1666.5,420468.80000019073,9057,WL,C,9.0
3,25.551000118255615,learn,34448.999881744385,Fri May 15 2026 10:28:34 GMT-0400 (Eastern Daylight Time),422452.30000019073,A,cqttl,I,l,284,2,1983.5,420468.80000019073,9057,WL,C,9.0
3,25.734000205993652,learn,34265.99979400635,Fri May 15 2026 10:28:34 GMT-0400 (Eastern Daylight Time),422635.60000014305,A,cqttle,I,e,165,2,2166.7999999523163,420468.80000019073,9057,WL,C,9.0
3,26.0,learn,34000.0,Fri May 15 2026 10:28:34 GMT-0400 (Eastern Daylight Time),422901.80000019073,A,cqttleenter,I,enter,238,2,2433.0,420468.80000019073,9057,WL,C,9.0
3,27.567000150680542,learn,32432.999849319458,Fri May 15 2026 10:28:34 GMT-0400 (Eastern Daylight Time),424468.90000009537,A,q,I,q,1545,2,1566.7999999523163,422902.10000014305,9057,WL,C,10.0
3,27.66700005531311,learn,32332.99994468689,Fri May 15 2026 10:28:34 GMT-0400 (Eastern Daylight Time),424568.7000000477,A,qu,I,u,87,2,1666.5999999046326,422902.10000014305,9057,WL,C,10.0
3,27.933000087738037,learn,32066.999912261963,Fri May 15 2026 10:28:34 GMT-0400 (Eastern Daylight Time),424835.2000000477,A,que,I,e,242,2,1933.0999999046326,422902.10000014305,9057,WL,C,10.0
3,28.08400011062622,learn,31915.99988937378,Fri May 15 2026 10:28:34 GMT-0400 (Eastern Daylight Time),424985.60000014305,A,quee,I,e,139,2,2083.5,422902.10000014305,9057,WL,C,10.0
3,28.317000150680542,learn,31682.999849319458,Fri May 15 2026 10:28:34 GMT-0400 (Eastern Daylight Time),425218.90000009537,A,queen,I,n,202,2,2316.7999999523163,422902.10000014305,9057,WL,C,10.0
3,29.567000150680542,learn,30432.999849319458,Fri May 15 2026 10:28:34 GMT-0400 (Eastern Daylight Time),426468.5,A,queenenter,I,enter,1221,2,3566.399999856949,422902.10000014305,9057,WL,C,10.0
3,32.26700019836426,learn,27732.999801635742,Fri May 15 2026 10:28:34 GMT-0400 (Eastern Daylight Time),429168.7000000477,A,d,I,d,2684,2,2699.899999856949,426468.80000019073,9057,WL,C,11.0
3,32.367000102996826,learn,27632.999897003174,Fri May 15 2026 10:28:34 GMT-0400 (Eastern Daylight Time),429268.90000009537,A,do,I,o,72,2,2800.0999999046326,426468.80000019073,9057,WL,C,11.0
3,32.450000047683716,learn,27549.999952316284,Fri May 15 2026 10:28:34 GMT-0400 (Eastern Daylight Time),429352.2000000477,A,doc,I,c,71,2,2883.399999856949,426468.80000019073,9057,WL,C,11.0
3,32.68400001525879,learn,27315.99998474121,Fri May 15 2026 10:28:34 GMT-0400 (Eastern Daylight Time),429585.60000014305,A,doct,I,t,203,2,3116.7999999523163,426468.80000019073,9057,WL,C,11.0
3,32.78400015830994,learn,27215.999841690063,Fri May 15 2026 10:28:34 GMT-0400 (Eastern Daylight Time),429685.60000014305,A,docto,I,o,73,2,3216.7999999523163,426468.80000019073,9057,WL,C,11.0
3,32.85000014305115,learn,27149.999856948853,Fri May 15 2026 10:28:34 GMT-0400 (Eastern Daylight Time),429751.90000009537,A,doctor,I,r,55,2,3283.0999999046326,426468.80000019073,9057,WL,C,11.0
3,33.200000047683716,learn,26799.999952316284,Fri May 15 2026 10:28:34 GMT-0400 (Eastern Daylight Time),430101.7000000477,A,doctorenter,I,enter,316,2,3632.899999856949,426468.80000019073,9057,WL,C,11.0
3,37.617000102996826,learn,22382.999897003174,Fri May 15 2026 10:28:34 GMT-0400 (Eastern Daylight Time),434519.0,A,n,I,n,4395,2,4416.899999856949,430102.10000014305,9057,WL,C,12.0
3,37.76700019836426,learn,22232.999801635742,Fri May 15 2026 10:28:34 GMT-0400 (Eastern Daylight Time),434668.90000009537,A,na,I,a,132,2,4566.799999952316,430102.10000014305,9057,WL,C,12.0
3,38.032999992370605,learn,21967.000007629395,Fri May 15 2026 10:28:34 GMT-0400 (Eastern Daylight Time),434935.2000000477,A,nai,I,i,250,2,4833.099999904633,430102.10000014305,9057,WL,C,12.0
3,38.30000019073486,learn,21699.999809265137,Fri May 15 2026 10:28:34 GMT-0400 (Eastern Daylight Time),435202.30000019073,A,nail,I,l,236,2,5100.200000047684,430102.10000014305,9057,WL,C,12.0
3,38.967000007629395,learn,21032.999992370605,Fri May 15 2026 10:28:34 GMT-0400 (Eastern Daylight Time),435868.40000009537,A,nailenter,I,enter,650,2,5766.299999952316,430102.10000014305,9057,WL,C,12.0
3,41.884000062942505,learn,18115.999937057495,Fri May 15 2026 10:28:34 GMT-0400 (Eastern Daylight Time),438785.5,A,s,I,s,2899,2,2916.699999809265,435868.80000019073,9057,WL,C,13.0
3,41.967000007629395,learn,18032.999992370605,Fri May 15 2026 10:28:34 GMT-0400 (Eastern Daylight Time),438868.90000009537,A,su,I,u,59,2,3000.0999999046326,435868.80000019073,9057,WL,C,13.0
3,42.15000009536743,learn,17849.99990463257,Fri May 15 2026 10:28:34 GMT-0400 (Eastern Daylight Time),439052.2000000477,A,sug,I,g,159,2,3183.399999856949,435868.80000019073,9057,WL,C,13.0
3,42.41700005531311,learn,17582.99994468689,Fri May 15 2026 10:28:34 GMT-0400 (Eastern Daylight Time),439318.90000009537,A,suga,I,a,233,2,3450.0999999046326,435868.80000019073,9057,WL,C,13.0
3,42.634000062942505,learn,17365.999937057495,Fri May 15 2026 10:28:34 GMT-0400 (Eastern Daylight Time),439535.60000014305,A,sugar,I,r,197,2,3666.7999999523163,435868.80000019073,9057,WL,C,13.0
3,43.200000047683716,learn,16799.999952316284,Fri May 15 2026 10:28:34 GMT-0400 (Eastern Daylight Time),440101.80000019073,A,sugarenter,I,enter,531,2,4233.0,435868.80000019073,9057,WL,C,13.0
3,50.151000022888184,learn,9848.999977111816,Fri May 15 2026 10:28:34 GMT-0400 (Eastern Daylight Time),447052.40000009537,A,t,I,t,6937,2,6950.299999952316,440102.10000014305,9057,WL,C,14.0
3,50.26700019836426,learn,9732.999801635742,Fri May 15 2026 10:28:34 GMT-0400 (Eastern Daylight Time),447168.90000009537,A,to,I,o,95,2,7066.799999952316,440102.10000014305,9057,WL,C,14.0
3,50.41700005531311,learn,9582.99994468689,Fri May 15 2026 10:28:34 GMT-0400 (Eastern Daylight Time),447318.90000009537,A,tow,I,w,131,2,7216.799999952316,440102.10000014305,9057,WL,C,14.0
3,50.60000014305115,learn,9399.999856948853,Fri May 15 2026 10:28:34 GMT-0400 (Eastern Daylight Time),447502.30000019073,A,towe,I,e,167,2,7400.200000047684,440102.10000014305,9057,WL,C,14.0
3,50.75,learn,9250.0,Fri May 15 2026 10:28:34 GMT-0400 (Eastern Daylight Time),447651.90000009537,A,tower,I,r,127,2,7549.799999952316,440102.10000014305,9057,WL,C,14.0
3,50.93300008773804,learn,9066.999912261963,Fri May 15 2026 10:28:34 GMT-0400 (Eastern Daylight Time),447835.10000014305,A,towerenter,I,enter,170,2,7733.0,440102.10000014305,9057,WL,C,14.0
3,52.51700019836426,learn,7482.999801635742,Fri May 15 2026 10:28:34 GMT-0400 (Eastern Daylight Time),449418.80000019073,A,w,I,w,1574,2,1583.4000000953674,447835.40000009537,9057,WL,C,15.0
3,52.617000102996826,learn,7382.999897003174,Fri May 15 2026 10:28:34 GMT-0400 (Eastern Daylight Time),449518.90000009537,A,wh,I,h,81,2,1683.5,447835.40000009537,9057,WL,C,15.0
3,52.700000047683716,learn,7299.999952316284,Fri May 15 2026 10:28:34 GMT-0400 (Eastern Daylight Time),449602.30000019073,A,whe,I,e,61,2,1766.9000000953674,447835.40000009537,9057,WL,C,15.0
3,52.884000062942505,learn,7115.999937057495,Fri May 15 2026 10:28:34 GMT-0400 (Eastern Daylight Time),449785.60000014305,A,whea,I,a,161,2,1950.2000000476837,447835.40000009537,9057,WL,C,15.0
3,53.117000102996826,learn,6882.999897003174,Fri May 15 2026 10:28:34 GMT-0400 (Eastern Daylight Time),450019.30000019073,A,wheat,I,t,210,2,2183.9000000953674,447835.40000009537,9057,WL,C,15.0
3,53.31700015068054,learn,6682.999849319458,Fri May 15 2026 10:28:34 GMT-0400 (Eastern Daylight Time),450218.5,A,wheatenter,I,enter,184,2,2383.0999999046326,447835.40000009537,9057,WL,C,15.0
4,1.4500000476837158,learn,58549.999952316284,Fri May 15 2026 10:28:34 GMT-0400 (Eastern Daylight Time),521035.80000019073,A,s,I,s,1436,2,1449.6000001430511,519586.2000000477,9057,WL,C,1.0
4,1.5830001831054688,learn,58416.99981689453,Fri May 15 2026 10:28:34 GMT-0400 (Eastern Daylight Time),521169.0,A,su,I,u,108,2,1582.7999999523163,519586.2000000477,9057,WL,C,1.0
4,1.815999984741211,learn,58184.00001525879,Fri May 15 2026 10:28:34 GMT-0400 (Eastern Daylight Time),521402.2000000477,A,sug,I,g,219,2,1816.0,519586.2000000477,9057,WL,C,1.0
4,1.9670000076293945,learn,58032.999992370605,Fri May 15 2026 10:28:34 GMT-0400 (Eastern Daylight Time),521552.40000009537,A,suga,I,a,131,2,1966.2000000476837,519586.2000000477,9057,WL,C,1.0
4,2.2170000076293945,learn,57782.999992370605,Fri May 15 2026 10:28:34 GMT-0400 (Eastern Daylight Time),521802.30000019073,A,sugar,I,r,225,2,2216.100000143051,519586.2000000477,9057,WL,C,1.0
4,2.5490000247955322,learn,57450.99997520447,Fri May 15 2026 10:28:34 GMT-0400 (Eastern Daylight Time),522135.10000014305,A,sugarenter,I,enter,320,2,2548.9000000953674,519586.2000000477,9057,WL,C,1.0
4,3.117000102996826,learn,56882.999897003174,Fri May 15 2026 10:28:34 GMT-0400 (Eastern Daylight Time),522702.30000019073,A,w,I,w,552,2,566.9000000953674,522135.40000009537,9057,WL,C,2.0
4,3.267000198364258,learn,56732.99980163574,Fri May 15 2026 10:28:34 GMT-0400 (Eastern Daylight Time),522852.30000019073,A,wh,I,h,125,2,716.9000000953674,522135.40000009537,9057,WL,C,2.0
4,3.4160001277923584,learn,56583.99987220764,Fri May 15 2026 10:28:34 GMT-0400 (Eastern Daylight Time),523002.2000000477,A,whe,I,e,133,2,866.7999999523163,522135.40000009537,9057,WL,C,2.0
4,3.616000175476074,learn,56383.999824523926,Fri May 15 2026 10:28:34 GMT-0400 (Eastern Daylight Time),523202.2000000477,A,whea,I,a,168,2,1066.7999999523163,522135.40000009537,9057,WL,C,2.0
4,3.867000102996826,learn,56132.999897003174,Fri May 15 2026 10:28:34 GMT-0400 (Eastern Daylight Time),523452.40000009537,A,wheat,I,t,233,2,1317.0,522135.40000009537,9057,WL,C,2.0
4,4.433000087738037,learn,55566.99991226196,Fri May 15 2026 10:28:34 GMT-0400 (Eastern Daylight Time),524018.60000014305,A,wheatenter,I,enter,543,2,1883.2000000476837,522135.40000009537,9057,WL,C,2.0
4,5.183000087738037,learn,54816.99991226196,Fri May 15 2026 10:28:34 GMT-0400 (Eastern Daylight Time),524769.0,A,c,I,c,733,2,750.0999999046326,524018.90000009537,9057,WL,C,3.0
4,5.317000150680542,learn,54682.99984931946,Fri May 15 2026 10:28:34 GMT-0400 (Eastern Daylight Time),524902.3000001907,A,co,I,o,106,2,883.4000000953674,524018.90000009537,9057,WL,C,3.0
4,5.817000150680542,learn,54182.99984931946,Fri May 15 2026 10:28:34 GMT-0400 (Eastern Daylight Time),525402.4000000954,A,cor,I,r,486,2,1383.5,524018.90000009537,9057,WL,C,3.0
4,6.200000047683716,learn,53799.999952316284,Fri May 15 2026 10:28:34 GMT-0400 (Eastern Daylight Time),525785.600000143,A,corn,I,n,370,2,1766.7000000476837,524018.90000009537,9057,WL,C,3.0
4,6.766000032424927,learn,53233.99996757507,Fri May 15 2026 10:28:34 GMT-0400 (Eastern Daylight Time),526351.9000000954,A,cornenter,I,enter,544,2,2333.0,524018.90000009537,9057,WL,C,3.0
4,7.233000040054321,learn,52766.99995994568,Fri May 15 2026 10:28:34 GMT-0400 (Eastern Daylight Time),526819.0,A,c,I,c,448,2,466.7999999523163,526352.2000000477,9057,WL,C,4.0
4,7.450000047683716,learn,52549.999952316284,Fri May 15 2026 10:28:34 GMT-0400 (Eastern Daylight Time),527035.7000000477,A,ca,I,a,200,2,683.5,526352.2000000477,9057,WL,C,4.0
4,7.91700005531311,learn,52082.99994468689,Fri May 15 2026 10:28:34 GMT-0400 (Eastern Daylight Time),527502.3000001907,A,cat,I,t,449,2,1150.1000001430511,526352.2000000477,9057,WL,C,4.0
4,8.083000183105469,learn,51916.99981689453,Fri May 15 2026 10:28:34 GMT-0400 (Eastern Daylight Time),527669.0,A,catt,I,t,140,2,1316.7999999523163,526352.2000000477,9057,WL,C,4.0
4,8.282999992370605,learn,51717.000007629395,Fri May 15 2026 10:28:34 GMT-0400 (Eastern Daylight Time),527868.9000000954,A,cattl,I,l,181,2,1516.7000000476837,526352.2000000477,9057,WL,C,4.0
4,8.600000143051147,learn,51399.99985694885,Fri May 15 2026 10:28:34 GMT-0400 (Eastern Daylight Time),528185.600000143,A,cattle,I,e,303,2,1833.4000000953674,526352.2000000477,9057,WL,C,4.0
4,9.315999984741211,learn,50684.00001525879,Fri May 15 2026 10:28:34 GMT-0400 (Eastern Daylight Time),528902.0,A,cattleenter,I,enter,706,2,2549.7999999523163,526352.2000000477,9057,WL,C,4.0
4,11.032999992370605,learn,48967.000007629395,Fri May 15 2026 10:28:34 GMT-0400 (Eastern Daylight Time),530618.8000001907,A,f,I,f,1705,2,1716.5,528902.3000001907,9057,WL,C,5.0
4,11.150000095367432,learn,48849.99990463257,Fri May 15 2026 10:28:34 GMT-0400 (Eastern Daylight Time),530735.600000143,A,fl,I,l,97,2,1833.2999999523163,528902.3000001907,9057,WL,C,5.0
4,11.300000190734863,learn,48699.99980926514,Fri May 15 2026 10:28:34 GMT-0400 (Eastern Daylight Time),530885.600000143,A,fla,I,a,115,2,1983.2999999523163,528902.3000001907,9057,WL,C,5.0
4,11.583000183105469,learn,48416.99981689453,Fri May 15 2026 10:28:34 GMT-0400 (Eastern Daylight Time),531169.100000143,A,flag,I,g,263,2,2266.7999999523163,528902.3000001907,9057,WL,C,5.0
4,12.534000158309937,learn,47465.99984169006,Fri May 15 2026 10:28:34 GMT-0400 (Eastern Daylight Time),532119.600000143,A,flagenter,I,enter,939,2,3217.2999999523163,528902.3000001907,9057,WL,C,5.0
4,13.333000183105469,learn,46666.99981689453,Fri May 15 2026 10:28:34 GMT-0400 (Eastern Daylight Time),532919.0,A,t,I,t,791,2,799.0999999046326,532119.9000000954,9057,WL,C,6.0
4,13.483000040054321,learn,46516.99995994568,Fri May 15 2026 10:28:34 GMT-0400 (Eastern Daylight Time),533068.9000000954,A,to,I,o,129,2,949.0,532119.9000000954,9057,WL,C,6.0
4,13.782999992370605,learn,46217.000007629395,Fri May 15 2026 10:28:34 GMT-0400 (Eastern Daylight Time),533368.8000001907,A,tow,I,w,287,2,1248.9000000953674,532119.9000000954,9057,WL,C,6.0
4,13.966000080108643,learn,46033.99991989136,Fri May 15 2026 10:28:34 GMT-0400 (Eastern Daylight Time),533552.100000143,A,towe,I,e,162,2,1432.2000000476837,532119.9000000954,9057,WL,C,6.0
4,14.133000135421753,learn,45866.99986457825,Fri May 15 2026 10:28:34 GMT-0400 (Eastern Daylight Time),533719.0,A,tower,I,r,146,2,1599.0999999046326,532119.9000000954,9057,WL,C,6.0
4,14.749000072479248,learn,45250.99992752075,Fri May 15 2026 10:28:34 GMT-0400 (Eastern Daylight Time),534335.2000000477,A,towerenter,I,enter,598,2,2215.2999999523163,532119.9000000954,9057,WL,C,6.0
4,17.282999992370605,learn,42717.000007629395,Fri May 15 2026 10:28:34 GMT-0400 (Eastern Daylight Time),536869.100000143,A,q,I,q,2512,2,2533.600000143051,534335.5,9057,WL,C,7.0
4,17.366000175476074,learn,42633.999824523926,Fri May 15 2026 10:28:34 GMT-0400 (Eastern Daylight Time),536952.100000143,A,qu,I,u,73,2,2616.600000143051,534335.5,9057,WL,C,7.0
4,17.58300018310547,learn,42416.99981689453,Fri May 15 2026 10:28:34 GMT-0400 (Eastern Daylight Time),537169.0,A,que,I,e,196,2,2833.5,534335.5,9057,WL,C,7.0
4,17.73300004005432,learn,42266.99995994568,Fri May 15 2026 10:28:34 GMT-0400 (Eastern Daylight Time),537318.9000000954,A,quee,I,e,131,2,2983.4000000953674,534335.5,9057,WL,C,7.0
4,18.16600012779236,learn,41833.99987220764,Fri May 15 2026 10:28:34 GMT-0400 (Eastern Daylight Time),537752.2000000477,A,queen,I,n,421,2,3416.7000000476837,534335.5,9057,WL,C,7.0
4,20.716000080108643,learn,39283.99991989136,Fri May 15 2026 10:28:34 GMT-0400 (Eastern Daylight Time),540301.8000001907,A,queenenter,I,enter,2532,2,5966.300000190735,534335.5,9057,WL,C,7.0
4,21.717000007629395,learn,38282.999992370605,Fri May 15 2026 10:28:34 GMT-0400 (Eastern Daylight Time),541302.3000001907,A,h,I,h,977,2,1000.1000001430511,540302.2000000477,9057,WL,C,8.0
4,21.850000143051147,learn,38149.99985694885,Fri May 15 2026 10:28:34 GMT-0400 (Eastern Daylight Time),541435.7000000477,A,ho,I,o,118,2,1133.5,540302.2000000477,9057,WL,C,8.0
4,23.017000198364258,learn,36982.99980163574,Fri May 15 2026 10:28:34 GMT-0400 (Eastern Daylight Time),542602.3000001907,A,hom,I,m,1143,2,2300.100000143051,540302.2000000477,9057,WL,C,8.0
4,23.300000190734863,learn,36699.99980926514,Fri May 15 2026 10:28:34 GMT-0400 (Eastern Daylight Time),542885.7000000477,A,home,I,e,256,2,2583.5,540302.2000000477,9057,WL,C,8.0
4,23.716000080108643,learn,36283.99991989136,Fri May 15 2026 10:28:34 GMT-0400 (Eastern Daylight Time),543302.0,A,homeenter,I,enter,407,2,2999.7999999523163,540302.2000000477,9057,WL,C,8.0
4,25.217000007629395,learn,34782.999992370605,Fri May 15 2026 10:28:34 GMT-0400 (Eastern Daylight Time),544802.4000000954,A,b,I,b,1481,2,1500.0,543302.4000000954,9057,WL,C,9.0
4,25.73300004005432,learn,34266.99995994568,Fri May 15 2026 10:28:34 GMT-0400 (Eastern Daylight Time),545318.9000000954,A,bo,I,o,504,2,2016.5,543302.4000000954,9057,WL,C,9.0
4,26.532999992370605,learn,33467.000007629395,Fri May 15 2026 10:28:34 GMT-0400 (Eastern Daylight Time),546119.0,A,boy,I,y,773,2,2816.5999999046326,543302.4000000954,9057,WL,C,9.0
4,27.383000135421753,learn,32616.999864578247,Fri May 15 2026 10:28:34 GMT-0400 (Eastern Daylight Time),546968.4000000954,A,boyenter,I,enter,835,2,3666.0,543302.4000000954,9057,WL,C,9.0
4,28.267000198364258,learn,31732.999801635742,Fri May 15 2026 10:28:34 GMT-0400 (Eastern Daylight Time),547852.3000001907,A,d,I,d,872,2,883.5,546968.8000001907,9057,WL,C,10.0
4,28.383000135421753,learn,31616.999864578247,Fri May 15 2026 10:28:34 GMT-0400 (Eastern Daylight Time),547969.0,A,do,I,o,96,2,1000.1999998092651,546968.8000001907,9057,WL,C,10.0
4,28.532999992370605,learn,31467.000007629395,Fri May 15 2026 10:28:34 GMT-0400 (Eastern Daylight Time),548119.0,A,doc,I,c,122,2,1150.1999998092651,546968.8000001907,9057,WL,C,10.0
4,28.73300004005432,learn,31266.99995994568,Fri May 15 2026 10:28:34 GMT-0400 (Eastern Daylight Time),548319.0,A,doct,I,t,171,2,1350.1999998092651,546968.8000001907,9057,WL,C,10.0
4,28.83300018310547,learn,31166.99981689453,Fri May 15 2026 10:28:34 GMT-0400 (Eastern Daylight Time),548419.0,A,docto,I,o,75,2,1450.1999998092651,546968.8000001907,9057,WL,C,10.0
4,28.966000080108643,learn,31033.999919891357,Fri May 15 2026 10:28:34 GMT-0400 (Eastern Daylight Time),548552.2000000477,A,doctor,I,r,112,2,1583.3999998569489,546968.8000001907,9057,WL,C,10.0
4,29.516000032424927,learn,30483.999967575073,Fri May 15 2026 10:28:34 GMT-0400 (Eastern Daylight Time),549101.9000000954,A,doctorenter,I,enter,522,2,2133.0999999046326,546968.8000001907,9057,WL,C,10.0
4,34.23300004005432,learn,25766.99995994568,Fri May 15 2026 10:28:34 GMT-0400 (Eastern Daylight Time),553818.600000143,A,n,I,n,4706,2,4716.400000095367,549102.2000000477,9057,WL,C,11.0
4,34.35000014305115,learn,25649.999856948853,Fri May 15 2026 10:28:34 GMT-0400 (Eastern Daylight Time),553935.600000143,A,na,I,a,101,2,4833.400000095367,549102.2000000477,9057,WL,C,11.0
4,34.66700005531311,learn,25332.99994468689,Fri May 15 2026 10:28:34 GMT-0400 (Eastern Daylight Time),554252.3000001907,A,nai,I,i,300,2,5150.100000143051,549102.2000000477,9057,WL,C,11.0
4,34.90000009536743,learn,25099.99990463257,Fri May 15 2026 10:28:34 GMT-0400 (Eastern Daylight Time),554485.7000000477,A,nail,I,l,209,2,5383.5,549102.2000000477,9057,WL,C,11.0
4,36.53400015830994,learn,23465.999841690063,Fri May 15 2026 10:28:34 GMT-0400 (Eastern Daylight Time),556119.600000143,A,nailenter,I,enter,1620,2,7017.400000095367,549102.2000000477,9057,WL,C,11.0
4,39.66700005531311,learn,20332.99994468689,Fri May 15 2026 10:28:34 GMT-0400 (Eastern Daylight Time),559252.3000001907,A,b,I,b,3112,2,3132.4000000953674,556119.9000000954,9057,WL,C,12.0
4,40.23300004005432,learn,19766.99995994568,Fri May 15 2026 10:28:34 GMT-0400 (Eastern Daylight Time),559819.0,A,bo,I,o,552,2,3699.0999999046326,556119.9000000954,9057,WL,C,12.0
4,40.53200006484985,learn,19467.999935150146,Fri May 15 2026 10:28:34 GMT-0400 (Eastern Daylight Time),560118.2000000477,A,bod,I,d,286,2,3998.2999999523163,556119.9000000954,9057,WL,C,12.0
4,40.782999992370605,learn,19217.000007629395,Fri May 15 2026 10:28:34 GMT-0400 (Eastern Daylight Time),560369.0,A,body,I,y,233,2,4249.099999904633,556119.9000000954,9057,WL,C,12.0
4,41.64900016784668,learn,18350.99983215332,Fri May 15 2026 10:28:34 GMT-0400 (Eastern Daylight Time),561235.2000000477,A,bodyenter,I,enter,844,2,5115.299999952316,556119.9000000954,9057,WL,C,12.0
4,60.01700019836426,learn,-17.000198364257812,Fri May 15 2026 10:28:34 GMT-0400 (Eastern Daylight Time),579602.600000143,A,None,I,None,18360,2,18367.10000014305,561235.5,9057,WL,C,13.0
5,1.1670000553131104,learn,60000.0,Fri May 15 2026 10:28:34 GMT-0400 (Eastern Daylight Time),652402.7000000477,A,t,I,t,1147,2,1166.7000000476837,651236.0,9057,WL,C,1.0
5,1.2669999599456787,learn,60000.0,Fri May 15 2026 10:28:34 GMT-0400 (Eastern Daylight Time),652502.5,A,to,I,o,72,2,1266.5,651236.0,9057,WL,C,1.0
5,2.0,learn,60000.0,Fri May 15 2026 10:28:34 GMT-0400 (Eastern Daylight Time),653235.8000001907,A,tow,I,w,711,2,1999.8000001907349,651236.0,9057,WL,C,1.0
5,2.1670000553131104,learn,60000.0,Fri May 15 2026 10:28:34 GMT-0400 (Eastern Daylight Time),653402.5,A,towe,I,e,150,2,2166.5,651236.0,9057,WL,C,1.0
5,2.3329999446868896,learn,60000.0,Fri May 15 2026 10:28:34 GMT-0400 (Eastern Daylight Time),653569.100000143,A,tower,I,r,135,2,2333.100000143051,651236.0,9057,WL,C,1.0
5,2.683000087738037,learn,60000.0,Fri May 15 2026 10:28:34 GMT-0400 (Eastern Daylight Time),653918.600000143,A,towerenter,I,enter,331,2,2682.600000143051,651236.0,9057,WL,C,1.0
5,3.200000047683716,learn,60000.0,Fri May 15 2026 10:28:34 GMT-0400 (Eastern Daylight Time),654435.7000000477,A,f,I,f,497,2,516.7000000476837,653919.0,9057,WL,C,2.0
5,3.300999879837036,learn,60000.0,Fri May 15 2026 10:28:34 GMT-0400 (Eastern Daylight Time),654536.8000001907,A,fl,I,l,87,2,617.8000001907349,653919.0,9057,WL,C,2.0
5,3.433000087738037,learn,60000.0,Fri May 15 2026 10:28:34 GMT-0400 (Eastern Daylight Time),654669.100000143,A,fla,I,a,107,2,750.1000001430511,653919.0,9057,WL,C,2.0
5,3.7829999923706055,learn,60000.0,Fri May 15 2026 10:28:34 GMT-0400 (Eastern Daylight Time),655019.100000143,A,flag,I,g,335,2,1100.1000001430511,653919.0,9057,WL,C,2.0
5,4.415999889373779,learn,60000.0,Fri May 15 2026 10:28:34 GMT-0400 (Eastern Daylight Time),655651.8000001907,A,flagenter,I,enter,609,2,1732.8000001907349,653919.0,9057,WL,C,2.0
5,5.299999952316284,learn,60000.0,Fri May 15 2026 10:28:34 GMT-0400 (Eastern Daylight Time),656535.5,A,q,I,q,876,2,883.3999998569489,655652.100000143,9057,WL,C,3.0
5,5.45199990272522,learn,60000.0,Fri May 15 2026 10:28:34 GMT-0400 (Eastern Daylight Time),656687.600000143,A,qu,I,u,122,2,1035.5,655652.100000143,9057,WL,C,3.0
5,5.700000047683716,learn,60000.0,Fri May 15 2026 10:28:34 GMT-0400 (Eastern Daylight Time),656935.3000001907,A,que,I,e,236,2,1283.2000000476837,655652.100000143,9057,WL,C,3.0
5,5.865999937057495,learn,60000.0,Fri May 15 2026 10:28:34 GMT-0400 (Eastern Daylight Time),657101.7000000477,A,quee,I,e,148,2,1449.5999999046326,655652.100000143,9057,WL,C,3.0
5,6.233000040054321,learn,60000.0,Fri May 15 2026 10:28:34 GMT-0400 (Eastern Daylight Time),657468.7000000477,A,queen,I,n,353,2,1816.5999999046326,655652.100000143,9057,WL,C,3.0
5,7.382999897003174,learn,60000.0,Fri May 15 2026 10:28:34 GMT-0400 (Eastern Daylight Time),658618.7000000477,A,queenenter,I,enter,1134,2,2966.5999999046326,655652.100000143,9057,WL,C,3.0
5,8.799999952316284,learn,60000.0,Fri May 15 2026 10:28:34 GMT-0400 (Eastern Daylight Time),660035.3000001907,A,c,I,c,1397,2,1416.3000001907349,658619.0,9057,WL,C,4.0
5,9.0,learn,60000.0,Fri May 15 2026 10:28:34 GMT-0400 (Eastern Daylight Time),660235.7000000477,A,ca,I,a,187,2,1616.7000000476837,658619.0,9057,WL,C,4.0
5,9.16700005531311,learn,60000.0,Fri May 15 2026 10:28:34 GMT-0400 (Eastern Daylight Time),660402.4000000954,A,can,I,n,144,2,1783.4000000953674,658619.0,9057,WL,C,4.0
5,10.200000047683716,learn,60000.0,Fri May 15 2026 10:28:34 GMT-0400 (Eastern Daylight Time),661435.8000001907,A,ca,I,backspace,1020,2,2816.800000190735,658619.0,9057,WL,C,4.0
5,11.08299994468689,learn,60000.0,Fri May 15 2026 10:28:34 GMT-0400 (Eastern Daylight Time),662319.0,A,cam,I,m,864,2,3700.0,658619.0,9057,WL,C,4.0
5,11.599999904632568,learn,60000.0,Fri May 15 2026 10:28:34 GMT-0400 (Eastern Daylight Time),662835.8000001907,A,camp,I,p,493,2,4216.800000190735,658619.0,9057,WL,C,4.0
5,12.183000087738037,learn,60000.0,Fri May 15 2026 10:28:34 GMT-0400 (Eastern Daylight Time),663418.600000143,A,campenter,I,enter,568,2,4799.600000143051,658619.0,9057,WL,C,4.0
5,12.91599988937378,learn,60000.0,Fri May 15 2026 10:28:34 GMT-0400 (Eastern Daylight Time),664152.2000000477,A,h,I,h,725,2,733.2999999523163,663418.9000000954,9057,WL,C,5.0
5,13.5,learn,60000.0,Fri May 15 2026 10:28:34 GMT-0400 (Eastern Daylight Time),664735.9000000954,A,ho,I,o,565,2,1317.0,663418.9000000954,9057,WL,C,5.0
5,13.75,learn,60000.0,Fri May 15 2026 10:28:34 GMT-0400 (Eastern Daylight Time),664985.5,A,hom,I,m,236,2,1566.5999999046326,663418.9000000954,9057,WL,C,5.0
5,14.016999959945679,learn,60000.0,Fri May 15 2026 10:28:34 GMT-0400 (Eastern Daylight Time),665252.4000000954,A,home,I,e,244,2,1833.5,663418.9000000954,9057,WL,C,5.0
5,15.150000095367432,learn,60000.0,Fri May 15 2026 10:28:34 GMT-0400 (Eastern Daylight Time),666385.3000001907,A,homeenter,I,enter,1109,2,2966.4000000953674,663418.9000000954,9057,WL,C,5.0
5,16.09999990463257,learn,60000.0,Fri May 15 2026 10:28:34 GMT-0400 (Eastern Daylight Time),667335.5,A,b,I,b,942,2,949.8999998569489,666385.600000143,9057,WL,C,6.0
5,16.66700005531311,learn,60000.0,Fri May 15 2026 10:28:34 GMT-0400 (Eastern Daylight Time),667902.5,A,bo,I,o,548,2,1516.8999998569489,666385.600000143,9057,WL,C,6.0
5,17.032999992370605,learn,60000.0,Fri May 15 2026 10:28:34 GMT-0400 (Eastern Daylight Time),668269.100000143,A,boy,I,y,351,2,1883.5,666385.600000143,9057,WL,C,6.0
5,17.91599988937378,learn,60000.0,Fri May 15 2026 10:28:34 GMT-0400 (Eastern Daylight Time),669152.0,A,boyenter,I,enter,861,2,2766.399999856949,666385.600000143,9057,WL,C,6.0
5,19.683000087738037,learn,60000.0,Fri May 15 2026 10:28:34 GMT-0400 (Eastern Daylight Time),670919.0,A,c,I,c,1744,2,1766.6999998092651,669152.3000001907,9057,WL,C,7.0
5,19.882999897003174,learn,60000.0,Fri May 15 2026 10:28:34 GMT-0400 (Eastern Daylight Time),671119.0,A,ca,I,a,171,2,1966.6999998092651,669152.3000001907,9057,WL,C,7.0
5,20.08299994468689,learn,60000.0,Fri May 15 2026 10:28:34 GMT-0400 (Eastern Daylight Time),671319.100000143,A,cat,I,t,191,2,2166.7999999523163,669152.3000001907,9057,WL,C,7.0
5,20.25,learn,60000.0,Fri May 15 2026 10:28:34 GMT-0400 (Eastern Daylight Time),671485.8000001907,A,catt,I,t,139,2,2333.5,669152.3000001907,9057,WL,C,7.0
5,20.40000009536743,learn,60000.0,Fri May 15 2026 10:28:34 GMT-0400 (Eastern Daylight Time),671635.600000143,A,cattl,I,l,128,2,2483.2999999523163,669152.3000001907,9057,WL,C,7.0
5,20.632999897003174,learn,60000.0,Fri May 15 2026 10:28:34 GMT-0400 (Eastern Daylight Time),671869.100000143,A,cattle,I,e,217,2,2716.7999999523163,669152.3000001907,9057,WL,C,7.0
5,21.266000032424927,learn,60000.0,Fri May 15 2026 10:28:34 GMT-0400 (Eastern Daylight Time),672502.0,A,cattleenter,I,enter,607,2,3349.699999809265,669152.3000001907,9057,WL,C,7.0
5,21.75,learn,60000.0,Fri May 15 2026 10:28:34 GMT-0400 (Eastern Daylight Time),672985.7000000477,A,w,I,w,474,2,483.39999985694885,672502.3000001907,9057,WL,C,8.0
5,21.882999897003174,learn,60000.0,Fri May 15 2026 10:28:34 GMT-0400 (Eastern Daylight Time),673119.100000143,A,wh,I,h,116,2,616.7999999523163,672502.3000001907,9057,WL,C,8.0
5,21.948999881744385,learn,60000.0,Fri May 15 2026 10:28:34 GMT-0400 (Eastern Daylight Time),673185.2000000477,A,whe,I,e,35,2,682.8999998569489,672502.3000001907,9057,WL,C,8.0
5,22.132999897003174,learn,60000.0,Fri May 15 2026 10:28:34 GMT-0400 (Eastern Daylight Time),673369.0,A,whea,I,a,173,2,866.6999998092651,672502.3000001907,9057,WL,C,8.0
5,22.34999990463257,learn,60000.0,Fri May 15 2026 10:28:34 GMT-0400 (Eastern Daylight Time),673585.8000001907,A,wheat,I,t,195,2,1083.5,672502.3000001907,9057,WL,C,8.0
5,23.115999937057495,learn,60000.0,Fri May 15 2026 10:28:34 GMT-0400 (Eastern Daylight Time),674352.100000143,A,wheatenter,I,enter,744,2,1849.7999999523163,672502.3000001907,9057,WL,C,8.0
5,24.316999912261963,learn,60000.0,Fri May 15 2026 10:28:34 GMT-0400 (Eastern Daylight Time),675552.4000000954,A,s,I,s,1183,2,1200.0,674352.4000000954,9057,WL,C,9.0
5,24.41700005531311,learn,60000.0,Fri May 15 2026 10:28:34 GMT-0400 (Eastern Daylight Time),675652.5,A,su,I,u,72,2,1300.0999999046326,674352.4000000954,9057,WL,C,9.0
5,24.66700005531311,learn,60000.0,Fri May 15 2026 10:28:34 GMT-0400 (Eastern Daylight Time),675902.5,A,sug,I,g,230,2,1550.0999999046326,674352.4000000954,9057,WL,C,9.0
5,24.933000087738037,learn,60000.0,Fri May 15 2026 10:28:34 GMT-0400 (Eastern Daylight Time),676169.0,A,suga,I,a,248,2,1816.5999999046326,674352.4000000954,9057,WL,C,9.0
5,25.217000007629395,learn,60000.0,Fri May 15 2026 10:28:34 GMT-0400 (Eastern Daylight Time),676452.4000000954,A,sugar,I,r,260,2,2100.0,674352.4000000954,9057,WL,C,9.0
5,25.83299994468689,learn,60000.0,Fri May 15 2026 10:28:34 GMT-0400 (Eastern Daylight Time),677068.600000143,A,sugarenter,I,enter,600,2,2716.2000000476837,674352.4000000954,9057,WL,C,9.0
5,26.58299994468689,learn,60000.0,Fri May 15 2026 10:28:34 GMT-0400 (Eastern Daylight Time),677819.100000143,A,c,I,c,739,2,750.2000000476837,677068.9000000954,9057,WL,C,10.0
5,26.700000047683716,learn,60000.0,Fri May 15 2026 10:28:34 GMT-0400 (Eastern Daylight Time),677935.7000000477,A,co,I,o,98,2,866.7999999523163,677068.9000000954,9057,WL,C,10.0
5,26.882999897003174,learn,60000.0,Fri May 15 2026 10:28:34 GMT-0400 (Eastern Daylight Time),678119.100000143,A,cor,I,r,149,2,1050.2000000476837,677068.9000000954,9057,WL,C,10.0
5,27.382999897003174,learn,60000.0,Fri May 15 2026 10:28:34 GMT-0400 (Eastern Daylight Time),678618.9000000954,A,corn,I,n,484,2,1550.0,677068.9000000954,9057,WL,C,10.0
5,27.933000087738037,learn,60000.0,Fri May 15 2026 10:28:34 GMT-0400 (Eastern Daylight Time),679168.600000143,A,cornenter,I,enter,529,2,2099.7000000476837,677068.9000000954,9057,WL,C,10.0
5,28.58299994468689,learn,60000.0,Fri May 15 2026 10:28:34 GMT-0400 (Eastern Daylight Time),679819.100000143,A,b,I,b,638,2,650.1000001430511,679169.0,9057,WL,C,11.0
5,28.700000047683716,learn,60000.0,Fri May 15 2026 10:28:34 GMT-0400 (Eastern Daylight Time),679935.7000000477,A,bo,I,o,97,2,766.7000000476837,679169.0,9057,WL,C,11.0
5,29.09999990463257,learn,60000.0,Fri May 15 2026 10:28:34 GMT-0400 (Eastern Daylight Time),680335.8000001907,A,bod,I,d,380,2,1166.8000001907349,679169.0,9057,WL,C,11.0
5,29.23300004005432,learn,60000.0,Fri May 15 2026 10:28:34 GMT-0400 (Eastern Daylight Time),680469.100000143,A,body,I,y,108,2,1300.1000001430511,679169.0,9057,WL,C,11.0
5,29.75,learn,60000.0,Fri May 15 2026 10:28:34 GMT-0400 (Eastern Daylight Time),680985.3000001907,A,bodyenter,I,enter,494,2,1816.3000001907349,679169.0,9057,WL,C,11.0
5,30.40000009536743,learn,60000.0,Fri May 15 2026 10:28:34 GMT-0400 (Eastern Daylight Time),681635.7000000477,A,n,I,n,630,2,649.8999998569489,680985.8000001907,9057,WL,C,12.0
5,30.58299994468689,learn,60000.0,Fri May 15 2026 10:28:34 GMT-0400 (Eastern Daylight Time),681819.100000143,A,na,I,a,170,2,833.2999999523163,680985.8000001907,9057,WL,C,12.0
5,30.73300004005432,learn,60000.0,Fri May 15 2026 10:28:34 GMT-0400 (Eastern Daylight Time),681969.100000143,A,nai,I,i,128,2,983.2999999523163,680985.8000001907,9057,WL,C,12.0
5,30.950000047683716,learn,60000.0,Fri May 15 2026 10:28:34 GMT-0400 (Eastern Daylight Time),682185.7000000477,A,nail,I,l,199,2,1199.8999998569489,680985.8000001907,9057,WL,C,12.0
5,31.348999977111816,learn,60000.0,Fri May 15 2026 10:28:34 GMT-0400 (Eastern Daylight Time),682585.100000143,A,nailenter,I,enter,386,2,1599.2999999523163,680985.8000001907,9057,WL,C,12.0
5,31.73300004005432,learn,60000.0,Fri May 15 2026 10:28:34 GMT-0400 (Eastern Daylight Time),682969.100000143,A,l,I,l,375,2,383.7000000476837,682585.4000000954,9057,WL,C,13.0
5,31.91700005531311,learn,60000.0,Fri May 15 2026 10:28:34 GMT-0400 (Eastern Daylight Time),683152.4000000954,A,le,I,e,163,2,567.0,682585.4000000954,9057,WL,C,13.0
5,32.09999990463257,learn,60000.0,Fri May 15 2026 10:28:34 GMT-0400 (Eastern Daylight Time),683335.4000000954,A,let,I,t,172,2,750.0,682585.4000000954,9057,WL,C,13.0
5,32.25,learn,60000.0,Fri May 15 2026 10:28:34 GMT-0400 (Eastern Daylight Time),683485.8000001907,A,lett,I,t,124,2,900.4000000953674,682585.4000000954,9057,WL,C,13.0
5,32.467000007629395,learn,60000.0,Fri May 15 2026 10:28:34 GMT-0400 (Eastern Daylight Time),683702.600000143,A,lette,I,e,191,2,1117.2000000476837,682585.4000000954,9057,WL,C,13.0
5,32.59999990463257,learn,60000.0,Fri May 15 2026 10:28:34 GMT-0400 (Eastern Daylight Time),683835.7000000477,A,letter,I,r,107,2,1250.2999999523163,682585.4000000954,9057,WL,C,13.0
5,33.34999990463257,learn,60000.0,Fri May 15 2026 10:28:34 GMT-0400 (Eastern Daylight Time),684585.3000001907,A,letterenter,I,enter,728,2,1999.9000000953674,682585.4000000954,9057,WL,C,13.0
5,93.36700010299683,learn,60000.0,Fri May 15 2026 10:28:34 GMT-0400 (Eastern Daylight Time),744602.600000143,A,None,I,None,60010,2,60017.0,684585.600000143,9057,WL,C,14.0
6,1.5499999523162842,distr,58450.000047683716,Fri May 15 2026 10:28:34 GMT-0400 (Eastern Daylight Time),822686.100000143,B,n,I,n,1534,2,1549.7999999523163,821136.3000001907,9057,WL,C,1.0
6,1.6339998245239258,distr,58366.000175476074,Fri May 15 2026 10:28:34 GMT-0400 (Eastern Daylight Time),822769.3000001907,B,ne,I,e,63,2,1633.0,821136.3000001907,9057,WL,C,1.0
6,1.7999999523162842,distr,58200.000047683716,Fri May 15 2026 10:28:34 GMT-0400 (Eastern Daylight Time),822935.5,B,nea,I,a,147,2,1799.1999998092651,821136.3000001907,9057,WL,C,1.0
6,2.066999912261963,distr,57933.00008773804,Fri May 15 2026 10:28:34 GMT-0400 (Eastern Daylight Time),823202.5,B,neat,I,t,238,2,2066.199999809265,821136.3000001907,9057,WL,C,1.0
6,2.566999912261963,distr,57433.00008773804,Fri May 15 2026 10:28:34 GMT-0400 (Eastern Daylight Time),823702.3000001907,B,neatenter,I,enter,490,2,2566.0,821136.3000001907,9057,WL,C,1.0
6,8.899999856948853,distr,51100.00014305115,Fri May 15 2026 10:28:34 GMT-0400 (Eastern Daylight Time),830035.9000000954,B,m,I,m,6314,2,6333.299999952316,823702.600000143,9057,WL,C,2.0
6,9.066999912261963,distr,50933.00008773804,Fri May 15 2026 10:28:34 GMT-0400 (Eastern Daylight Time),830202.5,B,me,I,e,154,2,6499.899999856949,823702.600000143,9057,WL,C,2.0
6,9.266999959945679,distr,50733.00004005432,Fri May 15 2026 10:28:34 GMT-0400 (Eastern Daylight Time),830402.600000143,B,mea,I,a,170,2,6700.0,823702.600000143,9057,WL,C,2.0
6,9.549999952316284,distr,50450.000047683716,Fri May 15 2026 10:28:34 GMT-0400 (Eastern Daylight Time),830685.9000000954,B,meat,I,t,267,2,6983.299999952316,823702.600000143,9057,WL,C,2.0
6,10.782999992370605,distr,49217.000007629395,Fri May 15 2026 10:28:34 GMT-0400 (Eastern Daylight Time),831918.7000000477,B,meatenter,I,enter,1213,2,8216.099999904633,823702.600000143,9057,WL,C,2.0
6,11.549999952316284,distr,48450.000047683716,Fri May 15 2026 10:28:34 GMT-0400 (Eastern Daylight Time),832685.9000000954,B,h,I,h,753,2,766.9000000953674,831919.0,9057,WL,C,3.0
6,11.816999912261963,distr,48183.00008773804,Fri May 15 2026 10:28:34 GMT-0400 (Eastern Daylight Time),832952.4000000954,B,ho,I,o,253,2,1033.4000000953674,831919.0,9057,WL,C,3.0
6,11.967000007629395,distr,48032.999992370605,Fri May 15 2026 10:28:34 GMT-0400 (Eastern Daylight Time),833102.5,B,hot,I,t,124,2,1183.5,831919.0,9057,WL,C,3.0
6,12.182999849319458,distr,47817.00015068054,Fri May 15 2026 10:28:34 GMT-0400 (Eastern Daylight Time),833319.2000000477,B,hote,I,e,180,2,1400.2000000476837,831919.0,9057,WL,C,3.0
6,12.532999992370605,distr,47467.000007629395,Fri May 15 2026 10:28:34 GMT-0400 (Eastern Daylight Time),833669.2000000477,B,hotel,I,l,326,2,1750.2000000476837,831919.0,9057,WL,C,3.0
6,14.132999897003174,distr,45867.000102996826,Fri May 15 2026 10:28:34 GMT-0400 (Eastern Daylight Time),835268.7000000477,B,hotelenter,I,enter,1575,2,3349.7000000476837,831919.0,9057,WL,C,3.0
6,15.482999801635742,distr,44517.00019836426,Fri May 15 2026 10:28:34 GMT-0400 (Eastern Daylight Time),836619.2000000477,B,f,I,f,1340,2,1350.0999999046326,835269.100000143,9057,WL,C,4.0
6,15.599999904632568,distr,44400.00009536743,Fri May 15 2026 10:28:34 GMT-0400 (Eastern Daylight Time),836735.8000001907,B,fo,I,o,96,2,1466.7000000476837,835269.100000143,9057,WL,C,4.0
6,15.717000007629395,distr,44282.999992370605,Fri May 15 2026 10:28:34 GMT-0400 (Eastern Daylight Time),836852.7000000477,B,for,I,r,83,2,1583.5999999046326,835269.100000143,9057,WL,C,4.0
6,15.866999864578247,distr,44133.00013542175,Fri May 15 2026 10:28:34 GMT-0400 (Eastern Daylight Time),837002.600000143,B,fore,I,e,128,2,1733.5,835269.100000143,9057,WL,C,4.0
6,16.032999992370605,distr,43967.000007629395,Fri May 15 2026 10:28:34 GMT-0400 (Eastern Daylight Time),837169.2000000477,B,fores,I,s,136,2,1900.0999999046326,835269.100000143,9057,WL,C,4.0
6,16.316999912261963,distr,43683.00008773804,Fri May 15 2026 10:28:34 GMT-0400 (Eastern Daylight Time),837452.5,B,forest,I,t,268,2,2183.399999856949,835269.100000143,9057,WL,C,4.0
6,16.882999897003174,distr,43117.000102996826,Fri May 15 2026 10:28:34 GMT-0400 (Eastern Daylight Time),838018.8000001907,B,forestenter,I,enter,543,2,2749.7000000476837,835269.100000143,9057,WL,C,4.0
6,20.717000007629395,distr,39282.999992370605,Fri May 15 2026 10:28:34 GMT-0400 (Eastern Daylight Time),841852.5,B,s,I,s,3822,2,3833.399999856949,838019.100000143,9057,WL,C,5.0
6,21.032999992370605,distr,38967.000007629395,Fri May 15 2026 10:28:34 GMT-0400 (Eastern Daylight Time),842169.100000143,B,sk,I,k,304,2,4150.0,838019.100000143,9057,WL,C,5.0
6,21.467000007629395,distr,38532.999992370605,Fri May 15 2026 10:28:34 GMT-0400 (Eastern Daylight Time),842602.5,B,sky,I,y,419,2,4583.399999856949,838019.100000143,9057,WL,C,5.0
6,21.782999992370605,distr,38217.000007629395,Fri May 15 2026 10:28:34 GMT-0400 (Eastern Daylight Time),842918.7000000477,B,skyenter,I,enter,290,2,4899.599999904633,838019.100000143,9057,WL,C,5.0
6,22.382999897003174,distr,37617.000102996826,Fri May 15 2026 10:28:34 GMT-0400 (Eastern Daylight Time),843519.2000000477,B,b,I,b,584,2,600.2000000476837,842919.0,9057,WL,C,6.0
6,22.649999856948853,distr,37350.00014305115,Fri May 15 2026 10:28:34 GMT-0400 (Eastern Daylight Time),843785.9000000954,B,bu,I,u,252,2,866.9000000953674,842919.0,9057,WL,C,6.0
6,22.83299994468689,distr,37167.00005531311,Fri May 15 2026 10:28:34 GMT-0400 (Eastern Daylight Time),843969.3000001907,B,but,I,t,164,2,1050.3000001907349,842919.0,9057,WL,C,6.0
6,22.982999801635742,distr,37017.00019836426,Fri May 15 2026 10:28:34 GMT-0400 (Eastern Daylight Time),844119.2000000477,B,butt,I,t,129,2,1200.2000000476837,842919.0,9057,WL,C,6.0
6,23.217000007629395,distr,36782.999992370605,Fri May 15 2026 10:28:34 GMT-0400 (Eastern Daylight Time),844352.600000143,B,butte,I,e,215,2,1433.6000001430511,842919.0,9057,WL,C,6.0
6,23.400999784469604,distr,36599.000215530396,Fri May 15 2026 10:28:34 GMT-0400 (Eastern Daylight Time),844536.8000001907,B,butter,I,r,172,2,1617.8000001907349,842919.0,9057,WL,C,6.0
6,23.799999952316284,distr,36200.000047683716,Fri May 15 2026 10:28:34 GMT-0400 (Eastern Daylight Time),844935.3000001907,B,butterenter,I,enter,388,2,2016.3000001907349,842919.0,9057,WL,C,6.0
6,27.866999864578247,distr,32133.000135421753,Fri May 15 2026 10:28:34 GMT-0400 (Eastern Daylight Time),849002.5,B,c,I,c,4057,2,4066.899999856949,844935.600000143,9057,WL,C,7.0
6,27.949999809265137,distr,32050.000190734863,Fri May 15 2026 10:28:34 GMT-0400 (Eastern Daylight Time),849085.9000000954,B,ch,I,h,63,2,4150.299999952316,844935.600000143,9057,WL,C,7.0
6,28.116999864578247,distr,31883.000135421753,Fri May 15 2026 10:28:34 GMT-0400 (Eastern Daylight Time),849252.5,B,chr,I,r,142,2,4316.899999856949,844935.600000143,9057,WL,C,7.0
6,28.467000007629395,distr,31532.999992370605,Fri May 15 2026 10:28:34 GMT-0400 (Eastern Daylight Time),849602.5,B,chri,I,i,319,2,4666.899999856949,844935.600000143,9057,WL,C,7.0
6,28.58399987220764,distr,31416.00012779236,Fri May 15 2026 10:28:34 GMT-0400 (Eastern Daylight Time),849719.3000001907,B,chris,I,s,106,2,4783.700000047684,844935.600000143,9057,WL,C,7.0
6,28.816999912261963,distr,31183.000087738037,Fri May 15 2026 10:28:34 GMT-0400 (Eastern Daylight Time),849952.7000000477,B,christ,I,t,206,2,5017.099999904633,844935.600000143,9057,WL,C,7.0
6,29.199999809265137,distr,30800.000190734863,Fri May 15 2026 10:28:34 GMT-0400 (Eastern Daylight Time),850335.9000000954,B,christm,I,m,365,2,5400.299999952316,844935.600000143,9057,WL,C,7.0
6,29.783999919891357,distr,30216.000080108643,Fri May 15 2026 10:28:34 GMT-0400 (Eastern Daylight Time),850919.4000000954,B,christma,I,a,574,2,5983.799999952316,844935.600000143,9057,WL,C,7.0
6,29.967000007629395,distr,30032.999992370605,Fri May 15 2026 10:28:34 GMT-0400 (Eastern Daylight Time),851102.600000143,B,christmas,I,s,165,2,6167.0,844935.600000143,9057,WL,C,7.0
6,30.515999794006348,distr,29484.000205993652,Fri May 15 2026 10:28:34 GMT-0400 (Eastern Daylight Time),851652.100000143,B,christmasenter,I,enter,520,2,6716.5,844935.600000143,9057,WL,C,7.0
6,31.366999864578247,distr,28633.000135421753,Fri May 15 2026 10:28:34 GMT-0400 (Eastern Daylight Time),852502.5,B,w,I,w,828,2,850.0999999046326,851652.4000000954,9057,WL,C,8.0
6,31.467000007629395,distr,28532.999992370605,Fri May 15 2026 10:28:34 GMT-0400 (Eastern Daylight Time),852602.5,B,wi,I,i,85,2,950.0999999046326,851652.4000000954,9057,WL,C,8.0
6,31.782999992370605,distr,28217.000007629395,Fri May 15 2026 10:28:34 GMT-0400 (Eastern Daylight Time),852919.2000000477,B,win,I,n,290,2,1266.7999999523163,851652.4000000954,9057,WL,C,8.0
6,32.217000007629395,distr,27782.999992370605,Fri May 15 2026 10:28:34 GMT-0400 (Eastern Daylight Time),853352.4000000954,B,wint,I,t,417,2,1700.0,851652.4000000954,9057,WL,C,8.0
6,32.43299984931946,distr,27567.000150680542,Fri May 15 2026 10:28:34 GMT-0400 (Eastern Daylight Time),853569.2000000477,B,winte,I,e,197,2,1916.7999999523163,851652.4000000954,9057,WL,C,8.0
6,32.59999990463257,distr,27400.00009536743,Fri May 15 2026 10:28:34 GMT-0400 (Eastern Daylight Time),853735.600000143,B,winter,I,r,146,2,2083.2000000476837,851652.4000000954,9057,WL,C,8.0
6,33.282999992370605,distr,26717.000007629395,Fri May 15 2026 10:28:34 GMT-0400 (Eastern Daylight Time),854418.8000001907,B,winterenter,I,enter,652,2,2766.4000000953674,851652.4000000954,9057,WL,C,8.0
6,44.34999990463257,distr,15650.000095367432,Fri May 15 2026 10:28:34 GMT-0400 (Eastern Daylight Time),865485.8000001907,B,t,I,t,11053,2,11066.600000143051,854419.2000000477,9057,WL,C,9.0
6,44.5,distr,15500.0,Fri May 15 2026 10:28:34 GMT-0400 (Eastern Daylight Time),865635.8000001907,B,to,I,o,127,2,11216.600000143051,854419.2000000477,9057,WL,C,9.0
6,44.64999985694885,distr,15350.000143051147,Fri May 15 2026 10:28:34 GMT-0400 (Eastern Daylight Time),865785.8000001907,B,too,I,o,137,2,11366.600000143051,854419.2000000477,9057,WL,C,9.0
6,44.799999952316284,distr,15200.000047683716,Fri May 15 2026 10:28:34 GMT-0400 (Eastern Daylight Time),865935.8000001907,B,tool,I,l,132,2,11516.600000143051,854419.2000000477,9057,WL,C,9.0
6,45.615999937057495,distr,14384.000062942505,Fri May 15 2026 10:28:34 GMT-0400 (Eastern Daylight Time),866752.2000000477,B,toolenter,I,enter,797,2,12333.0,854419.2000000477,9057,WL,C,9.0
6,60.01699995994568,distr,-16.99995994567871,Fri May 15 2026 10:28:34 GMT-0400 (Eastern Daylight Time),881152.8000001907,B,None,I,None,14393,2,14400.200000047684,866752.600000143,9057,WL,C,10.0
7,1.2000000476837158,immed,58799.999952316284,Fri May 15 2026 10:28:34 GMT-0400 (Eastern Daylight Time),893652.600000143,A,t,I,t,1177,2,1199.6000001430511,892453.0,9057,WL,C,1.0
7,1.315999984741211,immed,58684.00001525879,Fri May 15 2026 10:28:34 GMT-0400 (Eastern Daylight Time),893769.2000000477,A,to,I,o,105,2,1316.2000000476837,892453.0,9057,WL,C,1.0
7,1.6329998970031738,immed,58367.000102996826,Fri May 15 2026 10:28:34 GMT-0400 (Eastern Daylight Time),894085.8000001907,A,tow,I,w,283,2,1632.8000001907349,892453.0,9057,WL,C,1.0
7,1.7999999523162842,immed,58200.000047683716,Fri May 15 2026 10:28:34 GMT-0400 (Eastern Daylight Time),894252.5,A,towe,I,e,152,2,1799.5,892453.0,9057,WL,C,1.0
7,1.9500000476837158,immed,58049.999952316284,Fri May 15 2026 10:28:34 GMT-0400 (Eastern Daylight Time),894402.600000143,A,tower,I,r,126,2,1949.6000001430511,892453.0,9057,WL,C,1.0
7,2.5329999923706055,immed,57467.000007629395,Fri May 15 2026 10:28:34 GMT-0400 (Eastern Daylight Time),894985.4000000954,A,towerenter,I,enter,569,2,2532.4000000953674,892453.0,9057,WL,C,1.0
7,3.4000000953674316,immed,56599.99990463257,Fri May 15 2026 10:28:34 GMT-0400 (Eastern Daylight Time),895852.600000143,A,f,I,f,854,2,866.7999999523163,894985.8000001907,9057,WL,C,2.0
7,3.5329999923706055,immed,56467.000007629395,Fri May 15 2026 10:28:34 GMT-0400 (Eastern Daylight Time),895985.9000000954,A,fl,I,l,112,2,1000.0999999046326,894985.8000001907,9057,WL,C,2.0
7,3.683000087738037,immed,56316.99991226196,Fri May 15 2026 10:28:34 GMT-0400 (Eastern Daylight Time),896135.600000143,A,fla,I,a,138,2,1149.7999999523163,894985.8000001907,9057,WL,C,2.0
7,4.08299994468689,immed,55917.00005531311,Fri May 15 2026 10:28:34 GMT-0400 (Eastern Daylight Time),896535.600000143,A,flag,I,g,380,2,1549.7999999523163,894985.8000001907,9057,WL,C,2.0
7,4.33299994468689,immed,55667.00005531311,Fri May 15 2026 10:28:34 GMT-0400 (Eastern Daylight Time),896785.5,A,flagenter,I,enter,229,2,1799.6999998092651,894985.8000001907,9057,WL,C,2.0
7,5.233000040054321,immed,54766.99995994568,Fri May 15 2026 10:28:34 GMT-0400 (Eastern Daylight Time),897686.0,A,q,I,q,878,2,900.1999998092651,896785.8000001907,9057,WL,C,3.0
7,5.365999937057495,immed,54634.000062942505,Fri May 15 2026 10:28:34 GMT-0400 (Eastern Daylight Time),897819.3000001907,A,qu,I,u,117,2,1033.5,896785.8000001907,9057,WL,C,3.0
7,5.549999952316284,immed,54450.000047683716,Fri May 15 2026 10:28:34 GMT-0400 (Eastern Daylight Time),898002.600000143,A,que,I,e,152,2,1216.7999999523163,896785.8000001907,9057,WL,C,3.0
7,5.700000047683716,immed,54299.999952316284,Fri May 15 2026 10:28:34 GMT-0400 (Eastern Daylight Time),898152.4000000954,A,quee,I,e,128,2,1366.5999999046326,896785.8000001907,9057,WL,C,3.0
7,6.0329999923706055,immed,53967.000007629395,Fri May 15 2026 10:28:34 GMT-0400 (Eastern Daylight Time),898485.8000001907,A,queen,I,n,300,2,1700.0,896785.8000001907,9057,WL,C,3.0
7,6.483000040054321,immed,53516.99995994568,Fri May 15 2026 10:28:34 GMT-0400 (Eastern Daylight Time),898935.4000000954,A,queenenter,I,enter,437,2,2149.5999999046326,896785.8000001907,9057,WL,C,3.0
7,7.266999959945679,immed,52733.00004005432,Fri May 15 2026 10:28:34 GMT-0400 (Eastern Daylight Time),899719.3000001907,A,s,I,s,761,2,783.6000001430511,898935.7000000477,9057,WL,C,4.0
7,7.349999904632568,immed,52650.00009536743,Fri May 15 2026 10:28:34 GMT-0400 (Eastern Daylight Time),899802.3000001907,A,sh,I,h,67,2,866.6000001430511,898935.7000000477,9057,WL,C,4.0
7,7.865999937057495,immed,52134.000062942505,Fri May 15 2026 10:28:34 GMT-0400 (Eastern Daylight Time),900319.3000001907,A,sho,I,o,495,2,1383.6000001430511,898935.7000000477,9057,WL,C,4.0
7,8.066999912261963,immed,51933.00008773804,Fri May 15 2026 10:28:34 GMT-0400 (Eastern Daylight Time),900519.2000000477,A,shor,I,r,171,2,1583.5,898935.7000000477,9057,WL,C,4.0
7,8.216000080108643,immed,51783.99991989136,Fri May 15 2026 10:28:34 GMT-0400 (Eastern Daylight Time),900669.2000000477,A,shore,I,e,134,2,1733.5,898935.7000000477,9057,WL,C,4.0
7,8.433000087738037,immed,51566.99991226196,Fri May 15 2026 10:28:34 GMT-0400 (Eastern Daylight Time),900885.5,A,shoreenter,I,enter,191,2,1949.7999999523163,898935.7000000477,9057,WL,C,4.0
7,9.233000040054321,immed,50766.99995994568,Fri May 15 2026 10:28:34 GMT-0400 (Eastern Daylight Time),901685.9000000954,A,b,I,b,778,2,800.0999999046326,900885.8000001907,9057,WL,C,5.0
7,9.816999912261963,immed,50183.00008773804,Fri May 15 2026 10:28:34 GMT-0400 (Eastern Daylight Time),902269.3000001907,A,bo,I,o,565,2,1383.5,900885.8000001907,9057,WL,C,5.0
7,10.08299994468689,immed,49917.00005531311,Fri May 15 2026 10:28:34 GMT-0400 (Eastern Daylight Time),902535.600000143,A,boy,I,y,255,2,1649.7999999523163,900885.8000001907,9057,WL,C,5.0
7,10.433000087738037,immed,49566.99991226196,Fri May 15 2026 10:28:34 GMT-0400 (Eastern Daylight Time),902885.5,A,boyenter,I,enter,323,2,1999.6999998092651,900885.8000001907,9057,WL,C,5.0
7,10.882999897003174,immed,49117.000102996826,Fri May 15 2026 10:28:34 GMT-0400 (Eastern Daylight Time),903335.600000143,A,h,I,h,443,2,449.7999999523163,902885.8000001907,9057,WL,C,6.0
7,11.016000032424927,immed,48983.99996757507,Fri May 15 2026 10:28:34 GMT-0400 (Eastern Daylight Time),903469.0,A,ho,I,o,117,2,583.1999998092651,902885.8000001907,9057,WL,C,6.0
7,11.365999937057495,immed,48634.000062942505,Fri May 15 2026 10:28:34 GMT-0400 (Eastern Daylight Time),903819.2000000477,A,hom,I,m,326,2,933.3999998569489,902885.8000001907,9057,WL,C,6.0
7,11.683000087738037,immed,48316.99991226196,Fri May 15 2026 10:28:34 GMT-0400 (Eastern Daylight Time),904135.600000143,A,home,I,e,306,2,1249.7999999523163,902885.8000001907,9057,WL,C,6.0
7,11.983000040054321,immed,48016.99995994568,Fri May 15 2026 10:28:34 GMT-0400 (Eastern Daylight Time),904435.4000000954,A,homeenter,I,enter,275,2,1549.5999999046326,902885.8000001907,9057,WL,C,6.0
7,12.782999992370605,immed,47217.000007629395,Fri May 15 2026 10:28:34 GMT-0400 (Eastern Daylight Time),905235.9000000954,A,d,I,d,781,2,800.2000000476837,904435.7000000477,9057,WL,C,7.0
7,12.900000095367432,immed,47099.99990463257,Fri May 15 2026 10:28:34 GMT-0400 (Eastern Daylight Time),905352.5,A,do,I,o,106,2,916.7999999523163,904435.7000000477,9057,WL,C,7.0
7,13.115999937057495,immed,46884.000062942505,Fri May 15 2026 10:28:34 GMT-0400 (Eastern Daylight Time),905569.2000000477,A,doc,I,c,195,2,1133.5,904435.7000000477,9057,WL,C,7.0
7,13.33299994468689,immed,46667.00005531311,Fri May 15 2026 10:28:34 GMT-0400 (Eastern Daylight Time),905786.0,A,doct,I,t,203,2,1350.2999999523163,904435.7000000477,9057,WL,C,7.0
7,13.450000047683716,immed,46549.999952316284,Fri May 15 2026 10:28:34 GMT-0400 (Eastern Daylight Time),905902.600000143,A,docto,I,o,98,2,1466.9000000953674,904435.7000000477,9057,WL,C,7.0
7,13.599999904632568,immed,46400.00009536743,Fri May 15 2026 10:28:34 GMT-0400 (Eastern Daylight Time),906052.600000143,A,doctor,I,r,127,2,1616.9000000953674,904435.7000000477,9057,WL,C,7.0
7,13.933000087738037,immed,46066.99991226196,Fri May 15 2026 10:28:34 GMT-0400 (Eastern Daylight Time),906385.5,A,doctorenter,I,enter,302,2,1949.7999999523163,904435.7000000477,9057,WL,C,7.0
7,15.0,immed,45000.0,Fri May 15 2026 10:28:34 GMT-0400 (Eastern Daylight Time),907452.600000143,A,n,I,n,1054,2,1066.7999999523163,906385.8000001907,9057,WL,C,8.0
7,15.150000095367432,immed,44849.99990463257,Fri May 15 2026 10:28:34 GMT-0400 (Eastern Daylight Time),907602.600000143,A,na,I,a,127,2,1216.7999999523163,906385.8000001907,9057,WL,C,8.0
7,15.382999897003174,immed,44617.000102996826,Fri May 15 2026 10:28:34 GMT-0400 (Eastern Daylight Time),907835.9000000954,A,nai,I,i,209,2,1450.0999999046326,906385.8000001907,9057,WL,C,8.0
7,15.599999904632568,immed,44400.00009536743,Fri May 15 2026 10:28:34 GMT-0400 (Eastern Daylight Time),908052.600000143,A,nail,I,l,193,2,1666.7999999523163,906385.8000001907,9057,WL,C,8.0
7,16.23300004005432,immed,43766.99995994568,Fri May 15 2026 10:28:34 GMT-0400 (Eastern Daylight Time),908685.4000000954,A,nailenter,I,enter,616,2,2299.5999999046326,906385.8000001907,9057,WL,C,8.0
7,24.08299994468689,immed,35917.00005531311,Fri May 15 2026 10:28:34 GMT-0400 (Eastern Daylight Time),916535.9000000954,A,l,I,l,7842,2,7850.200000047684,908685.7000000477,9057,WL,C,9.0
7,24.23300004005432,immed,35766.99995994568,Fri May 15 2026 10:28:34 GMT-0400 (Eastern Daylight Time),916686.0,A,le,I,e,135,2,8000.299999952316,908685.7000000477,9057,WL,C,9.0
7,24.450000047683716,immed,35549.999952316284,Fri May 15 2026 10:28:34 GMT-0400 (Eastern Daylight Time),916902.600000143,A,let,I,t,183,2,8216.900000095367,908685.7000000477,9057,WL,C,9.0
7,24.566999912261963,immed,35433.00008773804,Fri May 15 2026 10:28:34 GMT-0400 (Eastern Daylight Time),917019.3000001907,A,lett,I,t,91,2,8333.600000143051,908685.7000000477,9057,WL,C,9.0
7,24.75,immed,35250.0,Fri May 15 2026 10:28:34 GMT-0400 (Eastern Daylight Time),917202.600000143,A,lette,I,e,153,2,8516.900000095367,908685.7000000477,9057,WL,C,9.0
7,24.90000009536743,immed,35099.99990463257,Fri May 15 2026 10:28:34 GMT-0400 (Eastern Daylight Time),917352.5,A,letter,I,r,128,2,8666.799999952316,908685.7000000477,9057,WL,C,9.0
7,25.26699995994568,immed,34733.00004005432,Fri May 15 2026 10:28:34 GMT-0400 (Eastern Daylight Time),917719.8000001907,A,letterenter,I,enter,347,2,9034.100000143051,908685.7000000477,9057,WL,C,9.0
7,27.26699995994568,immed,32733.00004005432,Fri May 15 2026 10:28:34 GMT-0400 (Eastern Daylight Time),919719.3000001907,A,w,I,w,1976,2,1999.1000001430511,917720.2000000477,9057,WL,C,10.0
7,27.366999864578247,immed,32633.000135421753,Fri May 15 2026 10:28:34 GMT-0400 (Eastern Daylight Time),919819.3000001907,A,wh,I,h,83,2,2099.100000143051,917720.2000000477,9057,WL,C,10.0
7,27.450000047683716,immed,32549.999952316284,Fri May 15 2026 10:28:34 GMT-0400 (Eastern Daylight Time),919902.7000000477,A,whe,I,e,66,2,2182.5,917720.2000000477,9057,WL,C,10.0
7,27.632999897003174,immed,32367.000102996826,Fri May 15 2026 10:28:34 GMT-0400 (Eastern Daylight Time),920085.9000000954,A,whea,I,a,157,2,2365.7000000476837,917720.2000000477,9057,WL,C,10.0
7,27.84999990463257,immed,32150.00009536743,Fri May 15 2026 10:28:34 GMT-0400 (Eastern Daylight Time),920302.7000000477,A,wheat,I,t,190,2,2582.5,917720.2000000477,9057,WL,C,10.0
7,28.198999881744385,immed,31801.000118255615,Fri May 15 2026 10:28:34 GMT-0400 (Eastern Daylight Time),920652.100000143,A,wheatenter,I,enter,331,2,2931.9000000953674,917720.2000000477,9057,WL,C,10.0
7,29.23300004005432,immed,30766.99995994568,Fri May 15 2026 10:28:34 GMT-0400 (Eastern Daylight Time),921686.100000143,A,c,I,c,1011,2,1033.7999999523163,920652.3000001907,9057,WL,C,11.0
7,29.382999897003174,immed,30617.000102996826,Fri May 15 2026 10:28:34 GMT-0400 (Eastern Daylight Time),921836.0,A,co,I,o,136,2,1183.6999998092651,920652.3000001907,9057,WL,C,11.0
7,29.549999952316284,immed,30450.000047683716,Fri May 15 2026 10:28:34 GMT-0400 (Eastern Daylight Time),922002.600000143,A,cor,I,r,137,2,1350.2999999523163,920652.3000001907,9057,WL,C,11.0
7,29.98300004005432,immed,30016.99995994568,Fri May 15 2026 10:28:34 GMT-0400 (Eastern Daylight Time),922436.0,A,corn,I,n,410,2,1783.6999998092651,920652.3000001907,9057,WL,C,11.0
7,30.450000047683716,immed,29549.999952316284,Fri May 15 2026 10:28:34 GMT-0400 (Eastern Daylight Time),922902.4000000954,A,cornenter,I,enter,457,2,2250.0999999046326,920652.3000001907,9057,WL,C,11.0
7,30.866999864578247,immed,29133.000135421753,Fri May 15 2026 10:28:34 GMT-0400 (Eastern Daylight Time),923319.3000001907,A,s,I,s,410,2,416.60000014305115,922902.7000000477,9057,WL,C,12.0
7,31.0,immed,29000.0,Fri May 15 2026 10:28:34 GMT-0400 (Eastern Daylight Time),923452.600000143,A,su,I,u,117,2,549.9000000953674,922902.7000000477,9057,WL,C,12.0
7,31.217000007629395,immed,28782.999992370605,Fri May 15 2026 10:28:34 GMT-0400 (Eastern Daylight Time),923669.3000001907,A,sug,I,g,192,2,766.6000001430511,922902.7000000477,9057,WL,C,12.0
7,31.467000007629395,immed,28532.999992370605,Fri May 15 2026 10:28:34 GMT-0400 (Eastern Daylight Time),923919.3000001907,A,suga,I,a,232,2,1016.6000001430511,922902.7000000477,9057,WL,C,12.0
7,31.683000087738037,immed,28316.999912261963,Fri May 15 2026 10:28:34 GMT-0400 (Eastern Daylight Time),924135.600000143,A,sugar,I,r,203,2,1232.9000000953674,922902.7000000477,9057,WL,C,12.0
7,32.098999977111816,immed,27901.000022888184,Fri May 15 2026 10:28:34 GMT-0400 (Eastern Daylight Time),924552.2000000477,A,sugarenter,I,enter,395,2,1649.5,922902.7000000477,9057,WL,C,12.0
7,33.75,immed,26250.0,Fri May 15 2026 10:28:34 GMT-0400 (Eastern Daylight Time),926202.600000143,A,c,I,c,1640,2,1650.1000001430511,924552.5,9057,WL,C,13.0
7,33.967000007629395,immed,26032.999992370605,Fri May 15 2026 10:28:34 GMT-0400 (Eastern Daylight Time),926419.3000001907,A,ca,I,a,194,2,1866.8000001907349,924552.5,9057,WL,C,13.0
7,34.23300004005432,immed,25766.99995994568,Fri May 15 2026 10:28:34 GMT-0400 (Eastern Daylight Time),926686.0,A,cat,I,t,249,2,2133.5,924552.5,9057,WL,C,13.0
7,34.40000009536743,immed,25599.99990463257,Fri May 15 2026 10:28:34 GMT-0400 (Eastern Daylight Time),926852.7000000477,A,catt,I,t,142,2,2300.2000000476837,924552.5,9057,WL,C,13.0
7,34.615999937057495,immed,25384.000062942505,Fri May 15 2026 10:28:34 GMT-0400 (Eastern Daylight Time),927069.2000000477,A,cattl,I,l,191,2,2516.7000000476837,924552.5,9057,WL,C,13.0
7,34.799999952316284,immed,25200.000047683716,Fri May 15 2026 10:28:34 GMT-0400 (Eastern Daylight Time),927252.600000143,A,cattle,I,e,160,2,2700.100000143051,924552.5,9057,WL,C,13.0
7,35.115999937057495,immed,24884.000062942505,Fri May 15 2026 10:28:34 GMT-0400 (Eastern Daylight Time),927568.8000001907,A,cattleenter,I,enter,296,2,3016.300000190735,924552.5,9057,WL,C,13.0
7,40.66700005531311,immed,19332.99994468689,Fri May 15 2026 10:28:34 GMT-0400 (Eastern Daylight Time),933119.3000001907,A,b,I,b,5535,2,5550.200000047684,927569.100000143,9057,WL,C,14.0
7,40.81699991226196,immed,19183.000087738037,Fri May 15 2026 10:28:34 GMT-0400 (Eastern Daylight Time),933269.3000001907,A,bo,I,o,125,2,5700.200000047684,927569.100000143,9057,WL,C,14.0
7,41.132999897003174,immed,18867.000102996826,Fri May 15 2026 10:28:34 GMT-0400 (Eastern Daylight Time),933585.9000000954,A,bod,I,d,297,2,6016.799999952316,927569.100000143,9057,WL,C,14.0
7,41.41700005531311,immed,18582.99994468689,Fri May 15 2026 10:28:34 GMT-0400 (Eastern Daylight Time),933869.4000000954,A,body,I,y,267,2,6300.299999952316,927569.100000143,9057,WL,C,14.0
7,41.76600003242493,immed,18233.999967575073,Fri May 15 2026 10:28:34 GMT-0400 (Eastern Daylight Time),934218.9000000954,A,bodyenter,I,enter,335,2,6649.799999952316,927569.100000143,9057,WL,C,14.0
7,46.75,immed,13250.0,Fri May 15 2026 10:28:34 GMT-0400 (Eastern Daylight Time),939202.7000000477,A,c,I,c,4965,2,4983.399999856949,934219.3000001907,9057,WL,C,15.0
7,46.967000007629395,immed,13032.999992370605,Fri May 15 2026 10:28:34 GMT-0400 (Eastern Daylight Time),939419.2000000477,A,ca,I,a,203,2,5199.899999856949,934219.3000001907,9057,WL,C,15.0
7,47.217000007629395,immed,12782.999992370605,Fri May 15 2026 10:28:34 GMT-0400 (Eastern Daylight Time),939669.3000001907,A,can,I,n,217,2,5450.0,934219.3000001907,9057,WL,C,15.0
7,48.26699995994568,immed,11733.000040054321,Fri May 15 2026 10:28:34 GMT-0400 (Eastern Daylight Time),940719.3000001907,A,ca,I,backspace,1032,2,6500.0,934219.3000001907,9057,WL,C,15.0
7,48.73300004005432,immed,11266.999959945679,Fri May 15 2026 10:28:34 GMT-0400 (Eastern Daylight Time),941186.0,A,cam,I,m,446,2,6966.699999809265,934219.3000001907,9057,WL,C,15.0
7,49.299999952316284,immed,10700.000047683716,Fri May 15 2026 10:28:34 GMT-0400 (Eastern Daylight Time),941752.5,A,camp,I,p,556,2,7533.199999809265,934219.3000001907,9057,WL,C,15.0
7,49.96600008010864,immed,10033.999919891357,Fri May 15 2026 10:28:34 GMT-0400 (Eastern Daylight Time),942418.8000001907,A,campenter,I,enter,644,2,8199.5,934219.3000001907,9057,WL,C,15.0
