acc_sum,block,block_c,condition,correct,correct_response,datetime,endtime,flanker,jitter,project,response,response_test_buffer_response,response_test_target_response,response_time,response_time_test_buffer_response,response_time_test_target_response,row_sel,session_number,start_end,starttime,subject_id,target,task,task_vers,time_test_buffer,time_test_buffer_response,time_test_constants,time_test_flanker,time_test_jitter,time_test_logger,time_test_target,time_test_target_response,time_test_variables,trial
1,prac,1,con,1,z,Mon Jun 22 2026 13:22:17 GMT-0500 (Central Daylight Time),98737.5,elated,800,I,z,,,1534,,,9,1,3644.399999999907,95093.1000000001,8119,elated,AF,B,,,,,,,,,,1
2,prac,1,inc,1,z,Mon Jun 22 2026 13:22:17 GMT-0500 (Central Daylight Time),102087.0,napkin,1100,I,z,,,937,,,12,1,3343.5999999999767,98743.40000000002,8119,friend,AF,B,,,,,,,,,,2
3,prac,1,inc,1,m,Mon Jun 22 2026 13:22:17 GMT-0500 (Central Daylight Time),104952.19999999995,kind,900,I,m,,,652,,,2,1,2860.399999999907,102091.80000000005,8119,rock,AF,B,,,,,,,,,,3
4,prac,1,inc,1,z,Mon Jun 22 2026 13:22:17 GMT-0500 (Central Daylight Time),108068.90000000014,film,900,I,z,,,915,,,14,1,3111.3000000000466,104957.6000000001,8119,hate,AF,B,,,,,,,,,,4
5,prac,1,con,1,m,Mon Jun 22 2026 13:22:17 GMT-0500 (Central Daylight Time),112183.30000000005,remote,1000,I,m,,,1803,,,7,1,4109.699999999953,108073.6000000001,8119,remote,AF,B,,,,,,,,,,5
6,prac,1,con,1,z,Mon Jun 22 2026 13:22:17 GMT-0500 (Central Daylight Time),115382.19999999995,love,1000,I,z,,,887,,,11,1,3193.7999999998137,112188.40000000014,8119,love,AF,B,,,,,,,,,,6
7,prac,1,con,1,m,Mon Jun 22 2026 13:22:17 GMT-0500 (Central Daylight Time),118481.5,bell,1000,I,m,,,785,,,3,1,3093.899999999907,115387.6000000001,8119,bell,AF,B,,,,,,,,,,7
8,prac,1,con,1,z,Mon Jun 22 2026 13:22:17 GMT-0500 (Central Daylight Time),121547.0,rage,1000,I,z,,,770,,,15,1,3060.8000000000466,118486.19999999995,8119,rage,AF,B,,,,,,,,,,8
9,prac,1,inc,1,m,Mon Jun 22 2026 13:22:17 GMT-0500 (Central Daylight Time),124762.69999999995,brutal,1100,I,m,,,816,,,8,1,3210.5,121552.19999999995,8119,window,AF,B,,,,,,,,,,9
10,prac,1,con,1,z,Mon Jun 22 2026 13:22:17 GMT-0500 (Central Daylight Time),127745.5,brutal,800,I,z,,,875,,,13,1,2977.399999999907,124768.1000000001,8119,brutal,AF,B,,,,,,,,,,10
11,prac,1,inc,1,m,Mon Jun 22 2026 13:22:17 GMT-0500 (Central Daylight Time),130794.1000000001,elated,900,I,m,,,849,,,6,1,3043.4000000001397,127750.69999999995,8119,napkin,AF,B,,,,,,,,,,11
12,prac,1,inc,1,z,Mon Jun 22 2026 13:22:17 GMT-0500 (Central Daylight Time),134443.0,window,1100,I,z,,,1241,,,16,1,3643.6999999999534,130799.30000000005,8119,temper,AF,B,,,,,,,,,,12
13,prac,1,con,1,m,Mon Jun 22 2026 13:22:17 GMT-0500 (Central Daylight Time),137375.80000000005,jacket,800,I,m,,,821,,,5,1,2927.3000000000466,134448.5,8119,jacket,AF,B,,,,,,,,,,13
14,prac,1,inc,1,z,Mon Jun 22 2026 13:22:17 GMT-0500 (Central Daylight Time),140774.40000000014,rock,900,I,z,,,1195,,,10,1,3393.8000000000466,137380.6000000001,8119,kind,AF,B,,,,,,,,,,14
14,prac,1,con,0,m,Mon Jun 22 2026 13:22:17 GMT-0500 (Central Daylight Time),144289.80000000005,step,800,I,z,,,1420,,,1,1,3510.399999999907,140779.40000000014,8119,step,AF,B,,,,,,,,,,15
15,prac,1,inc,1,m,Mon Jun 22 2026 13:22:17 GMT-0500 (Central Daylight Time),147755.30000000005,hate,1100,I,m,,,1057,,,4,1,3460.899999999907,144294.40000000014,8119,film,AF,B,,,,,,,,,,16
1,test,1,con,1,z,Mon Jun 22 2026 13:22:17 GMT-0500 (Central Daylight Time),172414.30000000005,brutal,900,I,z,z,None,706,506.0,200.0,34,1,2145.6999999999534,170268.6000000001,8119,brutal,AF,B,168140,168140,166511,167424,166511,168656,167940,167940,168656,1
2,test,1,con,1,m,Mon Jun 22 2026 13:22:17 GMT-0500 (Central Daylight Time),174614.0,window,1000,I,m,m,None,666,466.0,200.0,123,1,2194.0,172420.0,8119,window,AF,B,170389,170389,168662,169673,168662,170856,170189,170189,170856,2
3,test,1,inc,1,m,Mon Jun 22 2026 13:22:17 GMT-0500 (Central Daylight Time),176929.5,hate,1100,I,m,m,None,677,477.0,200.0,80,1,2311.1999999999534,174618.30000000005,8119,rock,AF,B,172689,172689,170860,171972,170861,173172,172489,172489,173172,3
4,test,1,con,1,m,Mon Jun 22 2026 13:22:17 GMT-0500 (Central Daylight Time),178912.19999999995,rock,800,I,m,m,None,645,445.0,200.0,73,1,1977.6999999999534,176934.5,8119,rock,AF,B,174705,174705,173177,173988,173177,175154,174505,174505,175154,4
5,test,1,inc,1,m,Mon Jun 22 2026 13:22:17 GMT-0500 (Central Daylight Time),180911.69999999995,rage,800,I,m,m,None,662,463.0,199.0,85,1,1994.7999999998137,178916.90000000014,8119,bell,AF,B,176687,176687,175159,175971,175159,177154,176488,176488,177154,5
6,test,1,inc,1,z,Mon Jun 22 2026 13:22:17 GMT-0500 (Central Daylight Time),183077.69999999995,step,800,I,z,z,None,822,623.0,199.0,45,1,2161.5,180916.19999999995,8119,hate,AF,B,178687,178687,177158,177970,177158,179320,178487,178487,179320,6
7,test,1,inc,1,z,Mon Jun 22 2026 13:22:17 GMT-0500 (Central Daylight Time),185477.30000000005,napkin,900,I,z,z,None,949,750.0,199.0,38,1,2394.3000000000466,183083.0,8119,brutal,AF,B,180953,180953,179325,180236,179326,181719,180753,180753,181719,7
8,test,1,inc,1,m,Mon Jun 22 2026 13:22:17 GMT-0500 (Central Daylight Time),187809.5,friend,1100,I,m,m,None,686,486.0,200.0,104,1,2327.899999999907,185481.6000000001,8119,jacket,AF,B,183552,183552,181724,182835,181724,184052,183352,183352,184051,8
9,test,1,inc,1,z,Mon Jun 22 2026 13:22:17 GMT-0500 (Central Daylight Time),190075.30000000005,jacket,800,I,z,z,None,924,725.0,199.0,5,1,2261.100000000093,187814.19999999995,8119,elated,AF,B,185585,185585,184056,184868,184057,186317,185385,185385,186317,9
10,test,1,inc,1,z,Mon Jun 22 2026 13:22:17 GMT-0500 (Central Daylight Time),192408.40000000014,film,1100,I,z,z,None,694,495.0,199.0,24,1,2328.3000000000466,190080.1000000001,8119,love,AF,B,188150,188151,186322,187434,186322,188650,187951,187951,188650,10
11,test,1,con,1,m,Mon Jun 22 2026 13:22:17 GMT-0500 (Central Daylight Time),194674.5,film,1000,I,m,m,None,728,528.0,200.0,91,1,2261.399999999907,192413.1000000001,8119,film,AF,B,190383,190383,188655,189667,188656,190917,190183,190183,190916,11
12,test,1,inc,1,m,Mon Jun 22 2026 13:22:17 GMT-0500 (Central Daylight Time),197023.30000000005,brutal,900,I,m,m,None,913,713.0,200.0,110,1,2343.8000000000466,194679.5,8119,napkin,AF,B,192549,192549,190922,191833,190922,193265,192349,192349,193265,12
13,test,1,inc,1,z,Mon Jun 22 2026 13:22:17 GMT-0500 (Central Daylight Time),199305.69999999995,remote,1000,I,z,z,None,744,544.0,200.0,39,1,2278.0999999998603,197027.6000000001,8119,brutal,AF,B,194998,194998,193270,194282,193270,195548,194798,194798,195548,13
14,test,1,inc,1,z,Mon Jun 22 2026 13:22:17 GMT-0500 (Central Daylight Time),201522.1000000001,jacket,800,I,z,z,None,877,677.0,200.0,37,1,2210.8000000000466,199311.30000000005,8119,brutal,AF,B,197081,197081,195553,196365,195554,197764,196881,196881,197764,14
15,test,1,inc,1,m,Mon Jun 22 2026 13:22:17 GMT-0500 (Central Daylight Time),204154.30000000005,temper,1000,I,m,m,None,1093,893.0,200.0,119,1,2627.8000000000466,201526.5,8119,remote,AF,B,199497,199497,197769,198780,197769,200396,199297,199297,200396,15
16,test,1,inc,1,m,Mon Jun 22 2026 13:22:17 GMT-0500 (Central Daylight Time),206387.0,love,1000,I,m,m,None,684,484.0,200.0,87,1,2227.0,204160.0,8119,bell,AF,B,202130,202130,200402,201413,200402,202629,201929,201929,202629,16
17,test,1,con,1,z,Mon Jun 22 2026 13:22:17 GMT-0500 (Central Daylight Time),208719.6000000001,rage,900,I,z,z,None,888,688.0,200.0,50,1,2327.0,206392.6000000001,8119,rage,AF,B,204262,204262,202635,203546,202635,204962,204062,204062,204962,17
18,test,1,con,1,m,Mon Jun 22 2026 13:22:17 GMT-0500 (Central Daylight Time),211052.19999999995,napkin,900,I,m,m,None,882,682.0,200.0,106,1,2328.1999999999534,208724.0,8119,napkin,AF,B,206596,206596,204966,205878,204966,207294,206395,206395,207294,18
19,test,1,inc,1,z,Mon Jun 22 2026 13:22:17 GMT-0500 (Central Daylight Time),213251.6000000001,rock,900,I,z,z,None,758,558.0,200.0,54,1,2193.600000000093,211058.0,8119,rage,AF,B,208928,208928,207300,208211,207300,209494,208728,208728,209494,19
20,test,1,inc,1,m,Mon Jun 22 2026 13:22:17 GMT-0500 (Central Daylight Time),215417.5,elated,800,I,m,m,None,803,603.0,200.0,101,1,2161.3000000000466,213256.19999999995,8119,jacket,AF,B,211043,211043,209498,210339,209499,211660,210843,210843,211660,20
21,test,1,con,1,z,Mon Jun 22 2026 13:22:17 GMT-0500 (Central Daylight Time),217650.40000000014,rage,1000,I,z,z,None,693,494.0,199.0,51,1,2228.0,215422.40000000014,8119,rage,AF,B,213392,213392,211664,212676,211665,213893,213193,213193,213892,21
22,test,1,con,1,m,Mon Jun 22 2026 13:22:17 GMT-0500 (Central Daylight Time),220049.5,rock,1100,I,m,m,None,760,560.0,200.0,76,1,2393.0,217656.5,8119,rock,AF,B,215726,215726,213899,215009,213899,216292,215525,215525,216292,22
23,test,1,con,1,m,Mon Jun 22 2026 13:22:17 GMT-0500 (Central Daylight Time),222382.0,napkin,1100,I,m,m,None,697,497.0,200.0,108,1,2327.1999999999534,220054.80000000005,8119,napkin,AF,B,218124,218125,216297,217408,216297,218624,217924,217924,218624,23
24,test,1,inc,1,z,Mon Jun 22 2026 13:22:17 GMT-0500 (Central Daylight Time),224714.69999999995,bell,1000,I,z,z,None,785,585.0,200.0,47,1,2326.2999999998137,222388.40000000014,8119,hate,AF,B,220357,220357,218630,219641,218631,220957,220157,220157,220957,24
25,test,1,con,1,m,Mon Jun 22 2026 13:22:17 GMT-0500 (Central Daylight Time),226780.69999999995,film,900,I,m,m,None,624,425.0,199.0,90,1,2061.5999999998603,224719.1000000001,8119,film,AF,B,222590,222590,220961,221873,220961,223023,222390,222390,223023,25
26,test,1,inc,1,m,Mon Jun 22 2026 13:22:17 GMT-0500 (Central Daylight Time),229129.90000000014,brutal,900,I,m,m,None,901,702.0,199.0,118,1,2344.9000000001397,226785.0,8119,remote,AF,B,224656,224656,223027,223939,223027,225372,224456,224456,225372,26
27,test,1,inc,1,m,Mon Jun 22 2026 13:22:17 GMT-0500 (Central Daylight Time),231245.80000000005,kind,900,I,m,m,None,680,480.0,200.0,86,1,2111.3000000000466,229134.5,8119,bell,AF,B,227006,227006,225377,226289,225377,227488,226806,226806,227488,27
28,test,1,inc,1,m,Mon Jun 22 2026 13:22:17 GMT-0500 (Central Daylight Time),233645.19999999995,hate,1100,I,m,m,None,757,557.0,200.0,72,1,2394.2999999998137,231250.90000000014,8119,step,AF,B,229321,229321,227493,228605,227493,229887,229121,229121,229887,28
29,test,1,con,1,z,Mon Jun 22 2026 13:22:17 GMT-0500 (Central Daylight Time),235711.19999999995,love,900,I,z,z,None,622,422.0,200.0,18,1,2060.0999999998603,233651.1000000001,8119,love,AF,B,231520,231520,229893,230803,229893,231953,231320,231320,231953,29
30,test,1,inc,1,z,Mon Jun 22 2026 13:22:17 GMT-0500 (Central Daylight Time),237860.40000000014,jacket,800,I,z,z,None,816,616.0,200.0,61,1,2144.7000000001863,235715.69999999995,8119,temper,AF,B,233486,233486,231958,232771,231958,234102,233286,233286,234102,30
31,test,1,con,1,m,Mon Jun 22 2026 13:22:17 GMT-0500 (Central Daylight Time),240310.0,step,800,I,m,m,None,1106,907.0,199.0,65,1,2442.1999999999534,237867.80000000005,8119,step,AF,B,235636,235636,234110,234919,234110,236552,235436,235436,236552,31
32,test,1,con,1,m,Mon Jun 22 2026 13:22:17 GMT-0500 (Central Daylight Time),242558.90000000014,rock,1000,I,m,m,None,713,513.0,200.0,75,1,2244.600000000093,240314.30000000005,8119,rock,AF,B,238285,238285,236556,237568,236557,238801,238085,238085,238801,32
33,test,1,inc,1,z,Mon Jun 22 2026 13:22:17 GMT-0500 (Central Daylight Time),244541.6000000001,step,800,I,z,z,None,647,448.0,199.0,21,1,1976.5,242565.1000000001,8119,love,AF,B,240334,240334,238807,239618,238808,240784,240135,240135,240784,33
34,test,1,inc,1,z,Mon Jun 22 2026 13:22:17 GMT-0500 (Central Daylight Time),246924.40000000014,step,800,I,z,z,None,1048,849.0,199.0,13,1,2378.100000000093,244546.30000000005,8119,kind,AF,B,242317,242317,240788,241600,240789,243167,242117,242117,243166,34
35,test,1,inc,1,z,Mon Jun 22 2026 13:22:17 GMT-0500 (Central Daylight Time),249357.19999999995,window,1100,I,z,z,None,792,592.0,200.0,8,1,2428.2999999998137,246928.90000000014,8119,elated,AF,B,244999,244999,243171,244283,243171,245599,244799,244799,245599,35
36,test,1,con,1,z,Mon Jun 22 2026 13:22:17 GMT-0500 (Central Daylight Time),251872.80000000005,temper,900,I,z,z,None,1070,870.0,200.0,58,1,2511.6999999999534,249361.1000000001,8119,temper,AF,B,247232,247232,245603,246516,245603,248115,247032,247032,248115,36
37,test,1,inc,1,m,Mon Jun 22 2026 13:22:17 GMT-0500 (Central Daylight Time),253988.80000000005,love,1000,I,m,m,None,574,374.0,200.0,79,1,2111.5,251877.30000000005,8119,rock,AF,B,249848,249848,248119,249132,248120,250231,249648,249648,250231,37
38,test,1,inc,1,z,Mon Jun 22 2026 13:22:17 GMT-0500 (Central Daylight Time),256422.6000000001,window,1100,I,z,z,None,798,598.0,200.0,40,1,2429.8000000000466,253992.80000000005,8119,brutal,AF,B,252064,252064,250235,251347,250235,252665,251864,251864,252664,38
39,test,1,con,1,z,Mon Jun 22 2026 13:22:17 GMT-0500 (Central Daylight Time),258787.30000000005,love,1100,I,z,z,None,724,525.0,199.0,20,1,2360.6999999999534,256426.6000000001,8119,love,AF,B,254497,254497,252669,253780,252669,255029,254297,254297,255029,39
40,test,1,inc,1,m,Mon Jun 22 2026 13:22:17 GMT-0500 (Central Daylight Time),260986.69999999995,love,1000,I,m,m,None,652,452.0,200.0,95,1,2193.6999999999534,258793.0,8119,film,AF,B,256762,256762,255035,256047,255035,257229,256562,256562,257229,40
41,test,1,con,1,m,Mon Jun 22 2026 13:22:17 GMT-0500 (Central Daylight Time),263219.40000000014,bell,900,I,m,m,None,783,584.0,199.0,82,1,2228.4000000001397,260991.0,8119,bell,AF,B,258862,258862,257233,258146,257233,259462,258662,258662,259461,41
42,test,1,con,1,m,Mon Jun 22 2026 13:22:17 GMT-0500 (Central Daylight Time),265236.6000000001,bell,800,I,m,m,None,675,475.0,200.0,81,1,2012.8000000000466,263223.80000000005,8119,bell,AF,B,260995,260995,259466,260278,259466,261479,260794,260794,261479,42
43,test,1,con,1,z,Mon Jun 22 2026 13:22:17 GMT-0500 (Central Daylight Time),267301.19999999995,love,800,I,z,z,None,724,524.0,200.0,17,1,2060.399999999907,265240.80000000005,8119,love,AF,B,263010,263010,261483,262295,261483,263543,262810,262810,263543,43
44,test,1,con,1,m,Mon Jun 22 2026 13:22:17 GMT-0500 (Central Daylight Time),269467.1000000001,bell,1000,I,m,m,None,617,418.0,199.0,83,1,2161.5,267305.6000000001,8119,bell,AF,B,265276,265276,263548,264560,263548,265709,265076,265077,265709,44
45,test,1,con,1,z,Mon Jun 22 2026 13:22:17 GMT-0500 (Central Daylight Time),271616.5,kind,800,I,z,z,None,804,604.0,200.0,9,1,2145.3000000000466,269471.19999999995,8119,kind,AF,B,267242,267242,265713,266526,265714,267859,267042,267042,267859,45
46,test,1,con,1,z,Mon Jun 22 2026 13:22:17 GMT-0500 (Central Daylight Time),274032.30000000005,brutal,1100,I,z,z,None,777,578.0,199.0,36,1,2411.3000000000466,271621.0,8119,brutal,AF,B,269692,269692,267863,268975,267863,270274,269492,269492,270274,46
47,test,1,inc,1,z,Mon Jun 22 2026 13:22:17 GMT-0500 (Central Daylight Time),276215.30000000005,napkin,900,I,z,z,None,738,538.0,200.0,62,1,2177.600000000093,274037.69999999995,8119,temper,AF,B,271908,271908,270280,271191,270280,272457,271708,271708,272457,47
48,test,1,inc,1,m,Mon Jun 22 2026 13:22:17 GMT-0500 (Central Daylight Time),278347.69999999995,kind,900,I,m,m,None,682,482.0,200.0,78,1,2127.1999999999534,276220.5,8119,rock,AF,B,274092,274092,272463,273374,272463,274590,273891,273891,274590,48
49,test,1,con,1,z,Mon Jun 22 2026 13:22:17 GMT-0500 (Central Daylight Time),280913.69999999995,temper,1100,I,z,z,None,926,727.0,199.0,60,1,2561.6999999999534,278352.0,8119,temper,AF,B,276423,276423,274594,275707,274594,277156,276223,276223,277156,49
50,test,1,inc,1,z,Mon Jun 22 2026 13:22:17 GMT-0500 (Central Daylight Time),283196.40000000014,bell,1000,I,z,z,None,741,542.0,199.0,15,1,2277.7000000001863,280918.69999999995,8119,kind,AF,B,278889,278889,277161,278172,277161,279439,278689,278689,279438,50
51,test,1,con,1,z,Mon Jun 22 2026 13:22:17 GMT-0500 (Central Daylight Time),285728.69999999995,elated,1100,I,z,z,None,771,561.0,210.0,4,1,2528.1999999999534,283200.5,8119,elated,AF,B,281405,281405,279443,280555,279443,281971,281194,281194,281971,51
52,test,1,con,1,m,Mon Jun 22 2026 13:22:17 GMT-0500 (Central Daylight Time),288194.90000000014,step,1100,I,m,m,None,818,619.0,199.0,68,1,2462.0,285732.90000000014,8119,step,AF,B,283804,283804,281975,283088,281975,284437,283604,283604,284437,52
53,test,1,inc,1,m,Mon Jun 22 2026 13:22:17 GMT-0500 (Central Daylight Time),290327.69999999995,kind,900,I,m,m,None,696,497.0,199.0,94,1,2128.7999999998137,288198.90000000014,8119,film,AF,B,286070,286070,284441,285353,284441,286570,285870,285870,286570,53
54,test,1,inc,1,z,Mon Jun 22 2026 13:22:17 GMT-0500 (Central Daylight Time),292609.90000000014,rock,900,I,z,z,None,834,635.0,199.0,46,1,2278.2000000001863,290331.69999999995,8119,hate,AF,B,288203,288203,286574,287486,286574,288852,288003,288003,288852,54
55,test,1,con,1,z,Mon Jun 22 2026 13:22:17 GMT-0500 (Central Daylight Time),294925.90000000014,temper,1000,I,z,z,None,781,581.0,200.0,59,1,2311.7000000001863,292614.19999999995,8119,temper,AF,B,290585,290585,288856,289869,288856,291168,290385,290385,291168,55
56,test,1,inc,1,m,Mon Jun 22 2026 13:22:17 GMT-0500 (Central Daylight Time),297192.19999999995,hate,1100,I,m,m,None,630,430.0,200.0,96,1,2261.399999999907,294930.80000000005,8119,film,AF,B,293001,293001,291173,292284,291173,293434,292801,292801,293434,56
57,test,1,con,1,m,Mon Jun 22 2026 13:22:17 GMT-0500 (Central Daylight Time),299308.19999999995,jacket,800,I,m,m,None,776,576.0,200.0,97,1,2111.7999999998137,297196.40000000014,8119,jacket,AF,B,294967,294967,293438,294250,293439,295550,294767,294767,295550,57
58,test,1,con,1,z,Mon Jun 22 2026 13:22:17 GMT-0500 (Central Daylight Time),301407.19999999995,elated,800,I,z,z,None,754,554.0,200.0,1,1,2094.5999999998603,299312.6000000001,8119,elated,AF,B,297083,297084,295555,296366,295555,297649,296883,296883,297649,58
59,test,1,con,1,z,Mon Jun 22 2026 13:22:17 GMT-0500 (Central Daylight Time),303889.80000000005,brutal,800,I,z,z,None,1134,935.0,199.0,33,1,2478.600000000093,301411.19999999995,8119,brutal,AF,B,299183,299183,297653,298466,297653,300132,298983,298983,300132,59
59,test,1,con,0,m,Mon Jun 22 2026 13:22:17 GMT-0500 (Central Daylight Time),306239.5,remote,1000,I,z,z,None,806,606.0,200.0,115,1,2345.399999999907,303894.1000000001,8119,remote,AF,B,301865,301865,300136,301149,300136,302482,301665,301665,302482,60
60,test,1,inc,1,z,Mon Jun 22 2026 13:22:17 GMT-0500 (Central Daylight Time),308804.80000000005,jacket,800,I,z,z,None,1232,1032.0,200.0,29,1,2561.0,306243.80000000005,8119,friend,AF,B,304014,304014,302486,303298,302486,305047,303814,303814,305047,61
61,test,1,inc,1,m,Mon Jun 22 2026 13:22:17 GMT-0500 (Central Daylight Time),310871.0,rage,800,I,m,m,None,721,522.0,199.0,69,1,2062.0999999998603,308808.90000000014,8119,step,AF,B,306580,306580,305051,305863,305051,307113,306381,306381,307113,62
62,test,1,con,1,m,Mon Jun 22 2026 13:22:17 GMT-0500 (Central Daylight Time),312953.6000000001,window,900,I,m,m,None,636,436.0,200.0,122,1,2078.4000000001397,310875.19999999995,8119,window,AF,B,308746,308746,307117,308030,307117,309196,308546,308546,309196,63
63,test,1,inc,1,m,Mon Jun 22 2026 13:22:17 GMT-0500 (Central Daylight Time),315420.80000000005,friend,1100,I,m,m,None,825,626.0,199.0,128,1,2462.8000000000466,312958.0,8119,window,AF,B,311029,311029,309200,310312,309200,311663,310829,310829,311663,64
64,test,1,con,1,m,Mon Jun 22 2026 13:22:17 GMT-0500 (Central Daylight Time),317852.1000000001,jacket,1100,I,m,m,None,782,583.0,199.0,100,1,2427.0,315425.1000000001,8119,jacket,AF,B,313495,313495,311667,312778,311667,314094,313295,313295,314094,65
65,test,1,inc,1,m,Mon Jun 22 2026 13:22:17 GMT-0500 (Central Daylight Time),320051.30000000005,love,1000,I,m,m,None,659,459.0,200.0,71,1,2194.100000000093,317857.19999999995,8119,step,AF,B,315827,315827,314099,315111,314099,316293,315627,315627,316293,66
66,test,1,inc,1,m,Mon Jun 22 2026 13:22:17 GMT-0500 (Central Daylight Time),322167.19999999995,elated,800,I,m,m,None,771,571.0,200.0,125,1,2111.399999999907,320055.80000000005,8119,window,AF,B,317826,317827,316298,317110,316298,318409,317626,317626,318409,67
67,test,1,con,1,m,Mon Jun 22 2026 13:22:17 GMT-0500 (Central Daylight Time),324183.5,rock,900,I,m,m,None,572,372.0,200.0,74,1,2011.5,322172.0,8119,rock,AF,B,320042,320042,318414,319326,318415,320426,319842,319842,320426,68
68,test,1,con,1,m,Mon Jun 22 2026 13:22:17 GMT-0500 (Central Daylight Time),326566.0,bell,1100,I,m,m,None,738,539.0,199.0,84,1,2378.6999999999534,324187.30000000005,8119,bell,AF,B,322259,322259,320429,321542,320430,322808,322059,322059,322808,69
69,test,1,inc,1,m,Mon Jun 22 2026 13:22:17 GMT-0500 (Central Daylight Time),328681.90000000014,kind,900,I,m,m,None,684,485.0,199.0,70,1,2110.5,326571.40000000014,8119,step,AF,B,324425,324425,322813,323724,322814,324924,324225,324225,324924,70
70,test,1,con,1,z,Mon Jun 22 2026 13:22:17 GMT-0500 (Central Daylight Time),330814.69999999995,rage,800,I,z,z,None,797,597.0,200.0,49,1,2128.6999999999534,328686.0,8119,rage,AF,B,326457,326457,324928,325741,324928,327057,326257,326257,327057,71
71,test,1,inc,1,z,Mon Jun 22 2026 13:22:17 GMT-0500 (Central Daylight Time),333180.69999999995,window,1100,I,z,z,None,683,483.0,200.0,32,1,2361.399999999907,330819.30000000005,8119,friend,AF,B,328923,328923,327061,328215,327062,329423,328723,328723,329423,72
72,test,1,con,1,z,Mon Jun 22 2026 13:22:17 GMT-0500 (Central Daylight Time),335879.69999999995,kind,1100,I,z,z,None,1062,862.0,200.0,12,1,2695.0999999998603,333184.6000000001,8119,kind,AF,B,331256,331256,329427,330539,329427,332122,331056,331056,332122,73
73,test,1,inc,1,m,Mon Jun 22 2026 13:22:17 GMT-0500 (Central Daylight Time),337979.1000000001,rage,800,I,m,m,None,751,551.0,200.0,93,1,2095.1999999999534,335883.90000000014,8119,film,AF,B,333655,333655,332126,332940,332126,334221,333455,333455,334221,74
74,test,1,con,1,z,Mon Jun 22 2026 13:22:17 GMT-0500 (Central Daylight Time),340245.1000000001,elated,900,I,z,z,None,825,625.0,200.0,2,1,2261.4000000001397,337983.69999999995,8119,elated,AF,B,335854,335854,334226,335138,334226,336487,335654,335654,336487,75
75,test,1,inc,1,m,Mon Jun 22 2026 13:22:17 GMT-0500 (Central Daylight Time),342577.6000000001,hate,1100,I,m,m,None,686,486.0,200.0,88,1,2328.4000000001397,340249.19999999995,8119,bell,AF,B,338320,338320,336491,337604,336492,338820,338120,338120,338820,76
76,test,1,inc,1,m,Mon Jun 22 2026 13:22:17 GMT-0500 (Central Daylight Time),345127.0,friend,1100,I,m,m,None,904,705.0,199.0,120,1,2544.6999999999534,342582.30000000005,8119,remote,AF,B,340653,340653,338824,339936,338825,341369,340453,340453,341369,77
77,test,1,con,1,m,Mon Jun 22 2026 13:22:17 GMT-0500 (Central Daylight Time),347676.0,film,800,I,m,m,None,1208,1008.0,200.0,89,1,2544.399999999907,345131.6000000001,8119,film,AF,B,342902,342902,341374,342186,341374,343918,342702,342702,343918,78
78,test,1,inc,1,m,Mon Jun 22 2026 13:22:17 GMT-0500 (Central Daylight Time),349892.0,brutal,900,I,m,m,None,767,567.0,200.0,102,1,2211.5,347680.5,8119,jacket,AF,B,345551,345551,343923,344835,343923,346134,345351,345351,346134,79
79,test,1,inc,1,m,Mon Jun 22 2026 13:22:17 GMT-0500 (Central Daylight Time),352191.19999999995,brutal,900,I,m,m,None,863,663.0,200.0,126,1,2295.0,349896.19999999995,8119,window,AF,B,347767,347767,346138,347051,346139,348433,347567,347567,348433,80
80,test,1,inc,1,z,Mon Jun 22 2026 13:22:17 GMT-0500 (Central Daylight Time),354507.40000000014,remote,1000,I,z,z,None,775,575.0,200.0,7,1,2311.5,352195.90000000014,8119,elated,AF,B,350166,350167,348438,349451,348438,350749,349966,349966,350749,81
81,test,1,inc,1,z,Mon Jun 22 2026 13:22:17 GMT-0500 (Central Daylight Time),356823.30000000005,rock,900,I,z,z,None,764,564.0,200.0,14,1,2310.899999999907,354512.40000000014,8119,kind,AF,B,352499,352499,350754,351793,350755,353065,352299,352299,353065,82
82,test,1,con,1,m,Mon Jun 22 2026 13:22:17 GMT-0500 (Central Daylight Time),359039.1000000001,step,1000,I,m,m,None,670,470.0,200.0,67,1,2211.3000000000466,356827.80000000005,8119,step,AF,B,354799,354800,353070,354082,353070,355281,354598,354599,355281,83
83,test,1,con,1,z,Mon Jun 22 2026 13:22:17 GMT-0500 (Central Daylight Time),361138.6000000001,temper,800,I,z,z,None,752,552.0,200.0,57,1,2095.3000000000466,359043.30000000005,8119,temper,AF,B,356814,356814,355285,356098,355286,357381,356614,356614,357381,84
84,test,1,con,1,z,Mon Jun 22 2026 13:22:17 GMT-0500 (Central Daylight Time),363204.5,hate,800,I,z,z,None,732,533.0,199.0,41,1,2061.399999999907,361143.1000000001,8119,hate,AF,B,358897,358897,357385,358197,357385,359447,358698,358698,359447,85
85,test,1,inc,1,m,Mon Jun 22 2026 13:22:17 GMT-0500 (Central Daylight Time),365353.80000000005,elated,800,I,m,m,None,801,602.0,199.0,109,1,2144.399999999907,363209.40000000014,8119,napkin,AF,B,360980,360980,359451,360263,359452,361596,360780,360780,361596,86
86,test,1,inc,1,m,Mon Jun 22 2026 13:22:17 GMT-0500 (Central Daylight Time),367553.5,temper,1000,I,m,m,None,661,462.0,199.0,103,1,2195.3000000000466,365358.19999999995,8119,jacket,AF,B,363329,363329,361600,362612,361601,363796,363129,363129,363796,87
87,test,1,inc,1,z,Mon Jun 22 2026 13:22:17 GMT-0500 (Central Daylight Time),369952.30000000005,napkin,900,I,z,z,None,954,754.0,200.0,6,1,2394.8000000000466,367557.5,8119,elated,AF,B,365428,365428,363800,364712,363800,366194,365228,365228,366194,88
88,test,1,con,1,z,Mon Jun 22 2026 13:22:17 GMT-0500 (Central Daylight Time),372251.69999999995,hate,1000,I,z,z,None,749,534.0,215.0,43,1,2295.1999999999534,369956.5,8119,hate,AF,B,367944,367944,366199,367211,366199,368494,367729,367729,368494,89
89,test,1,con,1,m,Mon Jun 22 2026 13:22:17 GMT-0500 (Central Daylight Time),374401.40000000014,jacket,900,I,m,m,None,711,511.0,200.0,98,1,2145.600000000093,372255.80000000005,8119,jacket,AF,B,370127,370127,368498,369411,368498,370643,369927,369927,370643,90
90,test,1,con,1,z,Mon Jun 22 2026 13:22:17 GMT-0500 (Central Daylight Time),376583.80000000005,friend,900,I,z,z,None,746,546.0,200.0,26,1,2178.100000000093,374405.69999999995,8119,friend,AF,B,372276,372276,370648,371560,370648,372826,372076,372076,372826,91
91,test,1,con,1,m,Mon Jun 22 2026 13:22:17 GMT-0500 (Central Daylight Time),379332.90000000014,remote,1100,I,m,m,None,1122,907.0,215.0,116,1,2744.9000000001397,376588.0,8119,remote,AF,B,374659,374659,372830,373942,372830,375575,374444,374444,375575,92
92,test,1,con,1,z,Mon Jun 22 2026 13:22:17 GMT-0500 (Central Daylight Time),381532.0,kind,900,I,z,z,None,758,558.0,200.0,10,1,2194.899999999907,379337.1000000001,8119,kind,AF,B,377208,377208,375579,376492,375579,377774,377008,377008,377774,93
93,test,1,inc,1,z,Mon Jun 22 2026 13:22:17 GMT-0500 (Central Daylight Time),383898.19999999995,window,1100,I,z,z,None,720,520.0,200.0,64,1,2361.6999999999534,381536.5,8119,temper,AF,B,379607,379607,377779,378891,377779,380140,379407,379407,380140,94
94,test,1,inc,1,m,Mon Jun 22 2026 13:22:17 GMT-0500 (Central Daylight Time),386030.5,temper,1000,I,m,m,None,612,397.0,215.0,127,1,2128.3000000000466,383902.19999999995,8119,window,AF,B,381873,381873,380144,381157,380144,382273,381658,381658,382273,95
95,test,1,con,1,m,Mon Jun 22 2026 13:22:17 GMT-0500 (Central Daylight Time),388713.0,remote,900,I,m,m,None,1244,1043.0,201.0,114,1,2677.6999999999534,386035.30000000005,8119,remote,AF,B,383907,383907,382277,383189,382278,384955,383706,383706,384955,96
96,test,1,inc,1,z,Mon Jun 22 2026 13:22:17 GMT-0500 (Central Daylight Time),391029.1000000001,bell,1000,I,z,z,None,783,583.0,200.0,23,1,2311.4000000001397,388717.69999999995,8119,love,AF,B,386688,386688,384960,385972,384960,387271,386488,386488,387271,97
97,test,1,con,1,z,Mon Jun 22 2026 13:22:17 GMT-0500 (Central Daylight Time),393545.0,rage,1100,I,z,z,None,893,678.0,215.0,52,1,2512.0,391033.0,8119,rage,AF,B,389104,389104,387275,388388,387275,389787,388889,388889,389787,98
98,test,1,inc,1,m,Mon Jun 22 2026 13:22:17 GMT-0500 (Central Daylight Time),395844.30000000005,temper,1000,I,m,m,None,750,550.0,200.0,111,1,2294.899999999907,393549.40000000014,8119,napkin,AF,B,391520,391520,389791,390804,389792,392086,391320,391320,392086,99
99,test,1,inc,1,z,Mon Jun 22 2026 13:22:17 GMT-0500 (Central Daylight Time),397877.19999999995,step,800,I,z,z,None,684,484.0,200.0,53,1,2028.5,395848.69999999995,8119,rage,AF,B,393619,393619,392091,392903,392091,394119,393419,393419,394119,100
100,test,1,inc,1,m,Mon Jun 22 2026 13:22:17 GMT-0500 (Central Daylight Time),400209.5,friend,1100,I,m,m,None,686,486.0,200.0,112,1,2328.5999999998603,397880.90000000014,8119,napkin,AF,B,395952,395952,394123,395236,394123,396452,395752,395752,396452,101
101,test,1,con,1,z,Mon Jun 22 2026 13:22:17 GMT-0500 (Central Daylight Time),402508.90000000014,love,1000,I,z,z,None,757,557.0,200.0,19,1,2294.5,400214.40000000014,8119,love,AF,B,398185,398185,396456,397468,396457,398751,397985,397985,398751,102
102,test,1,con,1,z,Mon Jun 22 2026 13:22:17 GMT-0500 (Central Daylight Time),404841.40000000014,hate,1100,I,z,z,None,686,486.0,200.0,44,1,2327.8000000000466,402513.6000000001,8119,hate,AF,B,400584,400584,398756,399868,398756,401083,400384,400384,401083,103
103,test,1,inc,1,m,Mon Jun 22 2026 13:22:17 GMT-0500 (Central Daylight Time),406941.1000000001,rage,800,I,m,m,None,757,558.0,199.0,77,1,2095.600000000093,404845.5,8119,rock,AF,B,402616,402617,401088,401900,401088,403183,402417,402417,403183,104
104,test,1,con,1,m,Mon Jun 22 2026 13:22:17 GMT-0500 (Central Daylight Time),409023.5,window,800,I,m,m,None,747,547.0,200.0,121,1,2078.8000000000466,406944.69999999995,8119,window,AF,B,404716,404716,403187,403999,403187,405266,404516,404516,405266,105
105,test,1,con,1,z,Mon Jun 22 2026 13:22:17 GMT-0500 (Central Daylight Time),411256.1000000001,elated,1000,I,z,z,None,687,487.0,200.0,3,1,2228.6999999999534,409027.40000000014,8119,elated,AF,B,406999,406999,405269,406282,405270,407498,406799,406799,407498,106
106,test,1,inc,1,z,Mon Jun 22 2026 13:22:17 GMT-0500 (Central Daylight Time),413555.40000000014,film,1100,I,z,z,None,651,451.0,200.0,48,1,2294.5,411260.90000000014,8119,hate,AF,B,409331,409331,407503,408615,407503,409797,409131,409131,409797,107
107,test,1,inc,1,z,Mon Jun 22 2026 13:22:17 GMT-0500 (Central Daylight Time),415788.40000000014,film,1100,I,z,z,None,584,384.0,200.0,16,1,2227.9000000001397,413560.5,8119,kind,AF,B,411630,411630,409803,410914,409803,412030,411430,411430,412030,108
108,test,1,inc,1,z,Mon Jun 22 2026 13:22:17 GMT-0500 (Central Daylight Time),418020.90000000014,remote,1000,I,z,z,None,692,492.0,200.0,63,1,2228.5,415792.40000000014,8119,temper,AF,B,413763,413763,412034,413046,412035,414263,413563,413563,414263,109
108,test,1,con,0,m,Mon Jun 22 2026 13:22:17 GMT-0500 (Central Daylight Time),420203.30000000005,step,900,I,z,z,None,741,542.0,199.0,66,1,2177.3000000000466,418026.0,8119,step,AF,B,415896,415896,414268,415179,414268,416445,415696,415696,416445,110
109,test,1,con,1,z,Mon Jun 22 2026 13:22:17 GMT-0500 (Central Daylight Time),422519.19999999995,hate,900,I,z,z,None,871,672.0,199.0,42,1,2311.0,420208.19999999995,8119,hate,AF,B,418078,418078,416450,417362,416451,418761,417879,417879,418761,111
110,test,1,con,1,m,Mon Jun 22 2026 13:22:17 GMT-0500 (Central Daylight Time),424752.1000000001,window,1100,I,m,m,None,589,389.0,200.0,124,1,2228.600000000093,422523.5,8119,window,AF,B,420594,420594,418766,419878,418766,420994,420394,420394,420994,112
111,test,1,con,1,z,Mon Jun 22 2026 13:22:17 GMT-0500 (Central Daylight Time),426951.30000000005,friend,1000,I,z,z,None,670,461.0,209.0,27,1,2195.3000000000466,424756.0,8119,friend,AF,B,422729,422729,420998,422010,420998,423193,422520,422520,423193,113
112,test,1,con,1,m,Mon Jun 22 2026 13:22:17 GMT-0500 (Central Daylight Time),429933.40000000014,film,1100,I,m,m,None,1347,1148.0,199.0,92,1,2977.9000000001397,426955.5,8119,film,AF,B,425026,425026,423198,424310,423198,426176,424827,424827,426175,114
113,test,1,inc,1,z,Mon Jun 22 2026 13:22:17 GMT-0500 (Central Daylight Time),432149.69999999995,film,1100,I,z,z,None,574,374.0,200.0,56,1,2212.0999999998603,429937.6000000001,8119,rage,AF,B,428009,428009,426180,427292,426180,428392,427808,427808,428392,115
114,test,1,inc,1,z,Mon Jun 22 2026 13:22:17 GMT-0500 (Central Daylight Time),434282.1000000001,napkin,900,I,z,z,None,693,493.0,200.0,30,1,2128.5,432153.6000000001,8119,friend,AF,B,430025,430025,428396,429308,428396,430524,429825,429825,430524,116
115,test,1,con,1,m,Mon Jun 22 2026 13:22:17 GMT-0500 (Central Daylight Time),436281.5,napkin,800,I,m,m,None,659,460.0,199.0,105,1,1994.8999999999069,434286.6000000001,8119,napkin,AF,B,432058,432058,430529,431341,430529,432524,431858,431858,432524,117
116,test,1,inc,1,z,Mon Jun 22 2026 13:22:17 GMT-0500 (Central Daylight Time),438397.40000000014,rock,900,I,z,z,None,680,481.0,199.0,22,1,2111.8000000000466,436285.6000000001,8119,love,AF,B,434157,434157,432528,433440,432528,434639,433957,433957,434639,118
117,test,1,con,1,z,Mon Jun 22 2026 13:22:17 GMT-0500 (Central Daylight Time),440613.6000000001,friend,800,I,z,z,None,873,673.0,200.0,25,1,2212.1999999999534,438401.40000000014,8119,friend,AF,B,436173,436173,434643,435456,434644,436856,435973,435973,436856,119
118,test,1,con,1,z,Mon Jun 22 2026 13:22:17 GMT-0500 (Central Daylight Time),442979.80000000005,brutal,1000,I,z,z,None,825,626.0,199.0,35,1,2362.0,440617.80000000005,8119,brutal,AF,B,438589,438589,436860,437872,436860,439222,438389,438389,439222,120
119,test,1,inc,1,z,Mon Jun 22 2026 13:22:17 GMT-0500 (Central Daylight Time),445212.19999999995,bell,1000,I,z,z,None,682,483.0,199.0,55,1,2228.5,442983.69999999995,8119,rage,AF,B,440955,440955,439226,440238,439226,441454,440755,440755,441454,121
120,test,1,con,1,m,Mon Jun 22 2026 13:22:17 GMT-0500 (Central Daylight Time),447394.69999999995,jacket,1000,I,m,m,None,642,443.0,199.0,99,1,2178.0999999998603,445216.6000000001,8119,jacket,AF,B,443187,443187,441459,442471,441459,443637,442988,442988,443637,122
121,test,1,con,1,z,Mon Jun 22 2026 13:22:17 GMT-0500 (Central Daylight Time),449983.6000000001,kind,1000,I,z,z,None,1051,852.0,199.0,11,1,2583.4000000001397,447400.19999999995,8119,kind,AF,B,445370,445370,443642,444654,443642,446226,445170,445170,446226,123
122,test,1,con,1,m,Mon Jun 22 2026 13:22:17 GMT-0500 (Central Daylight Time),452126.6000000001,napkin,1000,I,m,m,None,612,413.0,199.0,107,1,2138.8000000000466,449987.80000000005,8119,napkin,AF,B,447953,447953,446230,447236,446230,448369,447753,447753,448369,124
123,test,1,con,1,m,Mon Jun 22 2026 13:22:17 GMT-0500 (Central Daylight Time),454559.19999999995,remote,800,I,m,m,None,1112,913.0,199.0,113,1,2428.399999999907,452130.80000000005,8119,remote,AF,B,449885,449885,448373,449185,448373,450801,449686,449686,450801,125
124,test,1,inc,1,m,Mon Jun 22 2026 13:22:17 GMT-0500 (Central Daylight Time),456908.90000000014,elated,800,I,m,m,None,1009,809.0,200.0,117,1,2345.8000000000466,454563.1000000001,8119,remote,AF,B,452334,452334,450805,451618,450805,453151,452134,452134,453151,126
125,test,1,inc,1,z,Mon Jun 22 2026 13:22:17 GMT-0500 (Central Daylight Time),459057.90000000014,remote,1000,I,z,z,None,602,403.0,199.0,31,1,2144.9000000001397,456913.0,8119,friend,AF,B,454884,454884,453155,454167,453155,455300,454683,454684,455300,127
126,test,1,con,1,z,Mon Jun 22 2026 13:22:17 GMT-0500 (Central Daylight Time),461390.30000000005,friend,1100,I,z,z,None,697,498.0,199.0,28,1,2328.600000000093,459061.69999999995,8119,friend,AF,B,457133,457133,455304,456416,455304,457632,456934,456934,457632,128
