acc_sum,block,block_c,change,condition,correct,correct_response,datetime,endtime,face,project,response,response_time,row_sel,session_number,start_end,starttime,subject_id,task,task_vers,trial
0,prac,1,,1-Back,,,Tue Feb 24 2026 14:30:52 GMT-0600 (Central Standard Time),,124_o_f_d_a.png,O,space,3327,1,1,,,7746,VNB,A,0
1,prac,1,0.0,1-Back,1.0,m,Tue Feb 24 2026 14:30:52 GMT-0600 (Central Standard Time),150569.19999999972,071_y_f_n_a.png,O,m,1458,2,1,2255.5,148313.69999999972,7746,VNB,A,1
2,prac,1,0.0,1-Back,1.0,m,Tue Feb 24 2026 14:30:52 GMT-0600 (Central Standard Time),152717.49999999953,165_m_m_h_a.png,O,m,1355,3,1,2140.5999999996275,150576.8999999999,7746,VNB,A,2
3,prac,1,0.0,1-Back,1.0,m,Tue Feb 24 2026 14:30:52 GMT-0600 (Central Standard Time),154650.1000000001,109_y_m_d_a.png,O,m,1131,4,1,1925.0,152725.1000000001,7746,VNB,A,3
4,prac,1,0.0,1-Back,1.0,m,Tue Feb 24 2026 14:30:52 GMT-0600 (Central Standard Time),157232.69999999972,124_o_f_n_a.png,O,m,1745,5,1,2571.2999999998137,154661.3999999999,7746,VNB,A,4
5,prac,1,1.0,1-Back,1.0,z,Tue Feb 24 2026 14:30:52 GMT-0600 (Central Standard Time),159200.69999999972,109_y_m_n_a.png,O,z,1175,6,1,1960.0999999996275,157240.6000000001,7746,VNB,A,5
6,prac,1,0.0,1-Back,1.0,m,Tue Feb 24 2026 14:30:52 GMT-0600 (Central Standard Time),161179.99999999953,039_o_m_h_a.png,O,m,1180,7,1,1971.199999999255,159208.80000000028,7746,VNB,A,6
6,prac,1,0.0,1-Back,0.0,m,Tue Feb 24 2026 14:30:52 GMT-0600 (Central Standard Time),163147.80000000028,139_m_f_d_a.png,O,z,1161,8,1,1962.4000000003725,161185.3999999999,7746,VNB,A,7
7,prac,1,1.0,1-Back,1.0,z,Tue Feb 24 2026 14:30:52 GMT-0600 (Central Standard Time),165364.3999999999,071_y_f_d_a.png,O,z,1409,9,1,2207.9000000003725,163156.49999999953,7746,VNB,A,8
8,prac,1,0.0,1-Back,1.0,m,Tue Feb 24 2026 14:30:52 GMT-0600 (Central Standard Time),167764.8999999999,165_m_m_n_a.png,O,m,1604,10,1,2391.7999999998137,165373.1000000001,7746,VNB,A,9
9,prac,1,0.0,1-Back,1.0,m,Tue Feb 24 2026 14:30:52 GMT-0600 (Central Standard Time),170178.49999999953,124_o_f_h_a.png,O,m,1607,11,1,2406.0999999996275,167772.3999999999,7746,VNB,A,10
9,prac,1,0.0,1-Back,0.0,m,Tue Feb 24 2026 14:30:52 GMT-0600 (Central Standard Time),172961.19999999972,109_y_m_d_a.png,O,None,2007,12,1,2774.2000000001863,170186.99999999953,7746,VNB,A,11
0,test,1,0.0,1-Back,,,Tue Feb 24 2026 14:30:52 GMT-0600 (Central Standard Time),172961.19999999972,071_y_f_d_a.png,O,space,3633,1,1,2774.2000000001863,170186.99999999953,7746,VNB,A,0
1,test,1,0.0,1-Back,1.0,m,Tue Feb 24 2026 14:30:52 GMT-0600 (Central Standard Time),194970.19999999972,139_m_f_n_a.png,O,m,1813,2,1,2819.899999999441,192150.30000000028,7746,VNB,A,1
2,test,1,0.0,1-Back,1.0,m,Tue Feb 24 2026 14:30:52 GMT-0600 (Central Standard Time),197336.99999999953,039_o_m_h_a.png,O,m,1342,3,1,2361.0999999996275,194975.8999999999,7746,VNB,A,2
3,test,1,1.0,1-Back,1.0,z,Tue Feb 24 2026 14:30:52 GMT-0600 (Central Standard Time),199586.19999999972,165_m_m_h_a.png,O,z,1223,4,1,2244.0999999996275,197342.1000000001,7746,VNB,A,3
4,test,1,0.0,1-Back,1.0,m,Tue Feb 24 2026 14:30:52 GMT-0600 (Central Standard Time),201784.6000000001,124_o_f_n_a.png,O,m,1174,5,1,2192.4000000003725,199592.19999999972,7746,VNB,A,4
5,test,1,0.0,1-Back,1.0,m,Tue Feb 24 2026 14:30:52 GMT-0600 (Central Standard Time),203866.6000000001,109_y_m_d_a.png,O,m,1055,6,1,2075.2999999998137,201791.30000000028,7746,VNB,A,5
6,test,1,1.0,1-Back,1.0,z,Tue Feb 24 2026 14:30:52 GMT-0600 (Central Standard Time),206266.80000000028,139_m_f_d_a.png,O,z,1381,7,1,2393.600000000559,203873.19999999972,7746,VNB,A,6
7,test,1,0.0,1-Back,1.0,m,Tue Feb 24 2026 14:30:52 GMT-0600 (Central Standard Time),208316.49999999953,071_y_f_h_a.png,O,m,1021,8,1,2045.199999999255,206271.30000000028,7746,VNB,A,7
7,test,1,0.0,1-Back,0.0,m,Tue Feb 24 2026 14:30:52 GMT-0600 (Central Standard Time),210614.99999999953,039_o_m_n_a.png,O,z,1277,9,1,2291.399999999441,208323.6000000001,7746,VNB,A,8
8,test,1,0.0,1-Back,1.0,m,Tue Feb 24 2026 14:30:52 GMT-0600 (Central Standard Time),213197.6000000001,109_y_m_h_a.png,O,m,1561,10,1,2574.2000000001863,210623.3999999999,7746,VNB,A,9
9,test,1,0.0,1-Back,1.0,m,Tue Feb 24 2026 14:30:52 GMT-0600 (Central Standard Time),216113.8999999999,039_o_m_d_a.png,O,m,1890,11,1,2909.7000000001863,213204.19999999972,7746,VNB,A,10
10,test,1,1.0,1-Back,1.0,z,Tue Feb 24 2026 14:30:52 GMT-0600 (Central Standard Time),218481.30000000028,124_o_f_d_a.png,O,z,1343,12,1,2358.4000000003725,216122.8999999999,7746,VNB,A,11
11,test,1,0.0,1-Back,1.0,m,Tue Feb 24 2026 14:30:52 GMT-0600 (Central Standard Time),220660.3999999999,165_m_m_n_a.png,O,m,1158,13,1,2173.7999999998137,218486.6000000001,7746,VNB,A,12
12,test,1,1.0,1-Back,1.0,z,Tue Feb 24 2026 14:30:52 GMT-0600 (Central Standard Time),222959.49999999953,071_y_f_n_a.png,O,z,1264,14,1,2296.5,220662.99999999953,7746,VNB,A,13
13,test,1,0.0,1-Back,1.0,m,Tue Feb 24 2026 14:30:52 GMT-0600 (Central Standard Time),224878.49999999953,139_m_f_h_a.png,O,m,890,15,1,1915.199999999255,222963.30000000028,7746,VNB,A,14
13,test,1,0.0,1-Back,0.0,m,Tue Feb 24 2026 14:30:52 GMT-0600 (Central Standard Time),227110.19999999972,165_m_m_d_a.png,O,z,1201,16,1,2228.0999999996275,224882.1000000001,7746,VNB,A,15
14,test,1,0.0,1-Back,1.0,m,Tue Feb 24 2026 14:30:52 GMT-0600 (Central Standard Time),229342.1000000001,109_y_m_n_a.png,O,m,1201,17,1,2225.600000000559,227116.49999999953,7746,VNB,A,16
15,test,1,0.0,1-Back,1.0,m,Tue Feb 24 2026 14:30:52 GMT-0600 (Central Standard Time),231992.30000000028,124_o_f_h_a.png,O,m,1617,18,1,2643.100000000559,229349.19999999972,7746,VNB,A,17
0,test,2,0.0,1-Back,,,Tue Feb 24 2026 14:30:52 GMT-0600 (Central Standard Time),231992.30000000028,109_y_m_n_a.png,O,space,3514,1,1,2643.100000000559,229349.19999999972,7746,VNB,A,0
0,test,2,0.0,1-Back,0.0,m,Tue Feb 24 2026 14:30:52 GMT-0600 (Central Standard Time),240557.30000000028,071_y_f_h_a.png,O,None,2017,2,1,3025.300000000745,237531.99999999953,7746,VNB,A,1
1,test,2,1.0,1-Back,1.0,m,Tue Feb 24 2026 14:30:52 GMT-0600 (Central Standard Time),242886.99999999953,039_o_m_n_a.png,O,m,1307,3,1,2322.0,240564.99999999953,7746,VNB,A,2
1,test,2,0.0,1-Back,0.0,m,Tue Feb 24 2026 14:30:52 GMT-0600 (Central Standard Time),245771.1000000001,139_m_f_d_a.png,O,z,1864,4,1,2880.7999999998137,242890.30000000028,7746,VNB,A,3
1,test,2,0.0,1-Back,0.0,z,Tue Feb 24 2026 14:30:52 GMT-0600 (Central Standard Time),248737.49999999953,165_m_m_d_a.png,O,m,1935,5,1,2960.399999999441,245777.1000000001,7746,VNB,A,4
2,test,2,0.0,1-Back,1.0,m,Tue Feb 24 2026 14:30:52 GMT-0600 (Central Standard Time),250868.99999999953,109_y_m_h_a.png,O,m,1104,6,1,2124.2999999998137,248744.69999999972,7746,VNB,A,5
3,test,2,1.0,1-Back,1.0,z,Tue Feb 24 2026 14:30:52 GMT-0600 (Central Standard Time),252752.6000000001,124_o_f_h_a.png,O,z,866,7,1,1879.7999999998137,250872.80000000028,7746,VNB,A,6
4,test,2,0.0,1-Back,1.0,m,Tue Feb 24 2026 14:30:52 GMT-0600 (Central Standard Time),254784.19999999972,139_m_f_n_a.png,O,m,1001,8,1,2022.8999999994412,252761.30000000028,7746,VNB,A,7
4,test,2,0.0,1-Back,0.0,m,Tue Feb 24 2026 14:30:52 GMT-0600 (Central Standard Time),256916.99999999953,071_y_f_d_a.png,O,z,1105,9,1,2129.5999999996275,254787.3999999999,7746,VNB,A,8
4,test,2,0.0,1-Back,0.0,m,Tue Feb 24 2026 14:30:52 GMT-0600 (Central Standard Time),259950.1000000001,165_m_m_n_a.png,O,None,2017,10,1,3026.0,256924.1000000001,7746,VNB,A,9
5,test,2,1.0,1-Back,1.0,m,Tue Feb 24 2026 14:30:52 GMT-0600 (Central Standard Time),261917.80000000028,139_m_f_h_a.png,O,m,937,11,1,1959.4000000003725,259958.3999999999,7746,VNB,A,10
6,test,2,0.0,1-Back,1.0,z,Tue Feb 24 2026 14:30:52 GMT-0600 (Central Standard Time),264013.8999999999,039_o_m_h_a.png,O,z,1076,12,1,2090.9000000003725,261922.99999999953,7746,VNB,A,11
7,test,2,0.0,1-Back,1.0,m,Tue Feb 24 2026 14:30:52 GMT-0600 (Central Standard Time),266131.49999999953,109_y_m_d_a.png,O,m,1099,13,1,2110.899999999441,264020.6000000001,7746,VNB,A,12
8,test,2,0.0,1-Back,1.0,m,Tue Feb 24 2026 14:30:52 GMT-0600 (Central Standard Time),268747.3000000003,124_o_f_n_a.png,O,m,1598,14,1,2607.2000000001863,266140.1000000001,7746,VNB,A,13
9,test,2,0.0,1-Back,1.0,z,Tue Feb 24 2026 14:30:52 GMT-0600 (Central Standard Time),270781.3999999999,071_y_f_n_a.png,O,z,1016,15,1,2028.2999999998137,268753.1000000001,7746,VNB,A,14
10,test,2,1.0,1-Back,1.0,m,Tue Feb 24 2026 14:30:52 GMT-0600 (Central Standard Time),272846.3999999999,165_m_m_h_a.png,O,m,1036,16,1,2059.0999999996275,270787.3000000003,7746,VNB,A,15
11,test,2,0.0,1-Back,1.0,m,Tue Feb 24 2026 14:30:52 GMT-0600 (Central Standard Time),275260.8000000003,124_o_f_d_a.png,O,m,1395,17,1,2408.2000000001863,272852.6000000001,7746,VNB,A,16
12,test,2,1.0,1-Back,1.0,z,Tue Feb 24 2026 14:30:52 GMT-0600 (Central Standard Time),277710.6000000001,039_o_m_d_a.png,O,z,1419,18,1,2443.2000000001863,275267.3999999999,7746,VNB,A,17
0,test,3,1.0,1-Back,,,Tue Feb 24 2026 14:30:52 GMT-0600 (Central Standard Time),277710.6000000001,124_o_f_h_a.png,O,space,2506,1,1,2443.2000000001863,275267.3999999999,7746,VNB,A,0
1,test,3,0.0,1-Back,1.0,m,Tue Feb 24 2026 14:30:52 GMT-0600 (Central Standard Time),284690.8999999999,139_m_f_d_a.png,O,m,1388,2,1,2408.7999999998137,282282.1000000001,7746,VNB,A,1
2,test,3,1.0,1-Back,1.0,m,Tue Feb 24 2026 14:30:52 GMT-0600 (Central Standard Time),287624.3000000003,165_m_m_n_a.png,O,m,1908,3,1,2927.0,284697.3000000003,7746,VNB,A,2
3,test,3,0.0,1-Back,1.0,z,Tue Feb 24 2026 14:30:52 GMT-0600 (Central Standard Time),289659.1999999997,124_o_f_n_a.png,O,z,1018,4,1,2031.5,287627.6999999997,7746,VNB,A,3
4,test,3,1.0,1-Back,1.0,m,Tue Feb 24 2026 14:30:52 GMT-0600 (Central Standard Time),292041.3999999999,039_o_m_d_a.png,O,m,1360,5,1,2376.5999999996275,289664.8000000003,7746,VNB,A,4
5,test,3,0.0,1-Back,1.0,m,Tue Feb 24 2026 14:30:52 GMT-0600 (Central Standard Time),294472.99999999953,071_y_f_h_a.png,O,m,1410,6,1,2426.0,292046.99999999953,7746,VNB,A,5
6,test,3,0.0,1-Back,1.0,z,Tue Feb 24 2026 14:30:52 GMT-0600 (Central Standard Time),296587.8000000003,109_y_m_h_a.png,O,z,1086,7,1,2107.100000000559,294480.6999999997,7746,VNB,A,6
7,test,3,0.0,1-Back,1.0,m,Tue Feb 24 2026 14:30:52 GMT-0600 (Central Standard Time),298854.8999999999,139_m_f_n_a.png,O,m,1236,8,1,2261.2999999998137,296593.6000000001,7746,VNB,A,7
8,test,3,0.0,1-Back,1.0,m,Tue Feb 24 2026 14:30:52 GMT-0600 (Central Standard Time),301168.8999999999,071_y_f_d_a.png,O,m,1291,9,1,2306.2999999998137,298862.6000000001,7746,VNB,A,8
9,test,3,1.0,1-Back,1.0,m,Tue Feb 24 2026 14:30:52 GMT-0600 (Central Standard Time),303921.1999999997,039_o_m_n_a.png,O,m,1718,10,1,2746.2999999998137,301174.8999999999,7746,VNB,A,9
10,test,3,0.0,1-Back,1.0,m,Tue Feb 24 2026 14:30:52 GMT-0600 (Central Standard Time),306151.49999999953,165_m_m_h_a.png,O,m,1209,11,1,2222.699999999255,303928.8000000003,7746,VNB,A,10
11,test,3,0.0,1-Back,1.0,z,Tue Feb 24 2026 14:30:52 GMT-0600 (Central Standard Time),308151.8000000003,139_m_f_h_a.png,O,z,969,12,1,1992.300000000745,306159.49999999953,7746,VNB,A,11
12,test,3,1.0,1-Back,1.0,m,Tue Feb 24 2026 14:30:52 GMT-0600 (Central Standard Time),310202.49999999953,124_o_f_d_a.png,O,m,1025,13,1,2045.2999999998137,308157.1999999997,7746,VNB,A,12
13,test,3,0.0,1-Back,1.0,z,Tue Feb 24 2026 14:30:52 GMT-0600 (Central Standard Time),312450.1000000001,165_m_m_d_a.png,O,z,1232,14,1,2240.7999999998137,310209.3000000003,7746,VNB,A,13
14,test,3,0.0,1-Back,1.0,m,Tue Feb 24 2026 14:30:52 GMT-0600 (Central Standard Time),314649.1999999997,109_y_m_n_a.png,O,m,1182,15,1,2194.399999999441,312454.8000000003,7746,VNB,A,14
15,test,3,1.0,1-Back,1.0,m,Tue Feb 24 2026 14:30:52 GMT-0600 (Central Standard Time),316947.6999999997,039_o_m_h_a.png,O,m,1280,16,1,2292.399999999441,314655.3000000003,7746,VNB,A,15
16,test,3,0.0,1-Back,1.0,m,Tue Feb 24 2026 14:30:52 GMT-0600 (Central Standard Time),319197.1999999997,109_y_m_d_a.png,O,m,1221,17,1,2243.0,316954.1999999997,7746,VNB,A,16
17,test,3,1.0,1-Back,1.0,m,Tue Feb 24 2026 14:30:52 GMT-0600 (Central Standard Time),321397.1000000001,071_y_f_n_a.png,O,m,1170,18,1,2196.100000000559,319200.99999999953,7746,VNB,A,17
0,test,4,1.0,1-Back,,,Tue Feb 24 2026 14:30:52 GMT-0600 (Central Standard Time),321397.1000000001,165_m_m_d_a.png,O,space,3972,1,1,2196.100000000559,319200.99999999953,7746,VNB,A,0
0,test,4,0.0,1-Back,0.0,z,Tue Feb 24 2026 14:30:52 GMT-0600 (Central Standard Time),330427.49999999953,039_o_m_d_a.png,O,None,2015,2,1,3023.199999999255,327404.3000000003,7746,VNB,A,1
1,test,4,0.0,1-Back,1.0,m,Tue Feb 24 2026 14:30:52 GMT-0600 (Central Standard Time),333327.1999999997,109_y_m_h_a.png,O,m,1869,3,1,2892.2999999998137,330434.8999999999,7746,VNB,A,2
2,test,4,0.0,1-Back,1.0,m,Tue Feb 24 2026 14:30:52 GMT-0600 (Central Standard Time),335875.3000000003,139_m_f_n_a.png,O,m,1530,4,1,2540.4000000003725,333334.8999999999,7746,VNB,A,3
3,test,4,1.0,1-Back,1.0,m,Tue Feb 24 2026 14:30:52 GMT-0600 (Central Standard Time),338274.3000000003,124_o_f_h_a.png,O,m,1373,5,1,2393.600000000559,335880.6999999997,7746,VNB,A,4
4,test,4,0.0,1-Back,1.0,m,Tue Feb 24 2026 14:30:52 GMT-0600 (Central Standard Time),340257.99999999953,165_m_m_n_a.png,O,m,965,6,1,1974.7999999998137,338283.1999999997,7746,VNB,A,5
5,test,4,0.0,1-Back,1.0,m,Tue Feb 24 2026 14:30:52 GMT-0600 (Central Standard Time),342457.3000000003,109_y_m_d_a.png,O,m,1168,7,1,2187.9000000003725,340269.3999999999,7746,VNB,A,6
6,test,4,1.0,1-Back,1.0,z,Tue Feb 24 2026 14:30:52 GMT-0600 (Central Standard Time),344638.6000000001,071_y_f_d_a.png,O,z,1160,8,1,2171.0,342467.6000000001,7746,VNB,A,7
7,test,4,0.0,1-Back,1.0,m,Tue Feb 24 2026 14:30:52 GMT-0600 (Central Standard Time),347039.1999999997,139_m_f_h_a.png,O,m,1370,9,1,2393.2999999998137,344645.8999999999,7746,VNB,A,8
8,test,4,0.0,1-Back,1.0,z,Tue Feb 24 2026 14:30:52 GMT-0600 (Central Standard Time),349453.99999999953,039_o_m_h_a.png,O,z,1392,10,1,2407.899999999441,347046.1000000001,7746,VNB,A,9
9,test,4,1.0,1-Back,1.0,m,Tue Feb 24 2026 14:30:52 GMT-0600 (Central Standard Time),351536.6999999997,124_o_f_n_a.png,O,m,1059,11,1,2073.899999999441,349462.8000000003,7746,VNB,A,10
9,test,4,0.0,1-Back,0.0,m,Tue Feb 24 2026 14:30:52 GMT-0600 (Central Standard Time),353904.1000000001,139_m_f_d_a.png,O,z,1336,12,1,2359.7000000001863,351544.3999999999,7746,VNB,A,11
9,test,4,0.0,1-Back,0.0,m,Tue Feb 24 2026 14:30:52 GMT-0600 (Central Standard Time),356720.49999999953,071_y_f_n_a.png,O,z,1784,13,1,2810.5999999996275,353909.8999999999,7746,VNB,A,12
10,test,4,0.0,1-Back,1.0,m,Tue Feb 24 2026 14:30:52 GMT-0600 (Central Standard Time),359584.1000000001,124_o_f_d_a.png,O,m,1842,14,1,2855.100000000559,356728.99999999953,7746,VNB,A,13
11,test,4,0.0,1-Back,1.0,m,Tue Feb 24 2026 14:30:52 GMT-0600 (Central Standard Time),361884.6999999997,071_y_f_h_a.png,O,m,1271,15,1,2293.0999999996275,359591.6000000001,7746,VNB,A,14
12,test,4,1.0,1-Back,1.0,z,Tue Feb 24 2026 14:30:52 GMT-0600 (Central Standard Time),364250.6999999997,165_m_m_h_a.png,O,z,1349,16,1,2359.2999999998137,361891.3999999999,7746,VNB,A,15
13,test,4,0.0,1-Back,1.0,m,Tue Feb 24 2026 14:30:52 GMT-0600 (Central Standard Time),366715.6999999997,039_o_m_n_a.png,O,m,1445,17,1,2458.5,364257.1999999997,7746,VNB,A,16
14,test,4,1.0,1-Back,1.0,z,Tue Feb 24 2026 14:30:52 GMT-0600 (Central Standard Time),369165.3000000003,109_y_m_n_a.png,O,z,1419,18,1,2446.7000000001863,366718.6000000001,7746,VNB,A,17
0,test,5,1.0,1-Back,,,Tue Feb 24 2026 14:30:52 GMT-0600 (Central Standard Time),369165.3000000003,039_o_m_n_a.png,O,space,3196,1,1,2446.7000000001863,366718.6000000001,7746,VNB,A,0
1,test,5,1.0,1-Back,1.0,m,Tue Feb 24 2026 14:30:52 GMT-0600 (Central Standard Time),376628.3000000003,124_o_f_h_a.png,O,m,1219,2,1,2239.2000000001863,374389.1000000001,7746,VNB,A,1
2,test,5,0.0,1-Back,1.0,m,Tue Feb 24 2026 14:30:52 GMT-0600 (Central Standard Time),378660.8000000003,109_y_m_d_a.png,O,m,1012,3,1,2026.0,376634.8000000003,7746,VNB,A,2
3,test,5,0.0,1-Back,1.0,z,Tue Feb 24 2026 14:30:52 GMT-0600 (Central Standard Time),381611.8000000003,039_o_m_d_a.png,O,z,1923,4,1,2947.7000000001863,378664.1000000001,7746,VNB,A,3
4,test,5,0.0,1-Back,1.0,m,Tue Feb 24 2026 14:30:52 GMT-0600 (Central Standard Time),383743.6999999997,139_m_f_h_a.png,O,m,1102,5,1,2123.0,381620.6999999997,7746,VNB,A,4
5,test,5,0.0,1-Back,1.0,m,Tue Feb 24 2026 14:30:52 GMT-0600 (Central Standard Time),385791.6000000001,071_y_f_n_a.png,O,m,1025,6,1,2045.2000000001863,383746.3999999999,7746,VNB,A,5
6,test,5,1.0,1-Back,1.0,z,Tue Feb 24 2026 14:30:52 GMT-0600 (Central Standard Time),388008.49999999953,124_o_f_n_a.png,O,z,1191,7,1,2211.199999999255,385797.3000000003,7746,VNB,A,6
7,test,5,0.0,1-Back,1.0,m,Tue Feb 24 2026 14:30:52 GMT-0600 (Central Standard Time),390508.1000000001,139_m_f_d_a.png,O,m,1481,8,1,2493.7000000001863,388014.3999999999,7746,VNB,A,7
8,test,5,0.0,1-Back,1.0,m,Tue Feb 24 2026 14:30:52 GMT-0600 (Central Standard Time),392525.1999999997,109_y_m_h_a.png,O,m,996,9,1,2011.2999999998137,390513.8999999999,7746,VNB,A,8
9,test,5,0.0,1-Back,1.0,m,Tue Feb 24 2026 14:30:52 GMT-0600 (Central Standard Time),395059.1999999997,071_y_f_d_a.png,O,m,1519,10,1,2530.2000000001863,392528.99999999953,7746,VNB,A,9
10,test,5,0.0,1-Back,1.0,m,Tue Feb 24 2026 14:30:52 GMT-0600 (Central Standard Time),397206.1000000001,165_m_m_n_a.png,O,m,1125,11,1,2141.2000000001863,395064.8999999999,7746,VNB,A,10
11,test,5,1.0,1-Back,1.0,z,Tue Feb 24 2026 14:30:52 GMT-0600 (Central Standard Time),399122.1999999997,139_m_f_n_a.png,O,z,888,12,1,1910.7000000001863,397211.49999999953,7746,VNB,A,11
12,test,5,0.0,1-Back,1.0,m,Tue Feb 24 2026 14:30:52 GMT-0600 (Central Standard Time),401670.6999999997,039_o_m_h_a.png,O,m,1524,13,1,2544.0999999996275,399126.6000000001,7746,VNB,A,12
13,test,5,0.0,1-Back,1.0,z,Tue Feb 24 2026 14:30:52 GMT-0600 (Central Standard Time),403836.6000000001,165_m_m_h_a.png,O,z,1137,14,1,2162.2999999998137,401674.3000000003,7746,VNB,A,13
14,test,5,1.0,1-Back,1.0,m,Tue Feb 24 2026 14:30:52 GMT-0600 (Central Standard Time),406036.6000000001,124_o_f_d_a.png,O,m,1181,15,1,2194.9000000003725,403841.6999999997,7746,VNB,A,14
15,test,5,0.0,1-Back,1.0,m,Tue Feb 24 2026 14:30:52 GMT-0600 (Central Standard Time),408302.49999999953,109_y_m_n_a.png,O,m,1244,16,1,2260.0,406042.49999999953,7746,VNB,A,15
16,test,5,0.0,1-Back,1.0,m,Tue Feb 24 2026 14:30:52 GMT-0600 (Central Standard Time),410569.99999999953,071_y_f_h_a.png,O,m,1249,17,1,2262.7999999998137,408307.1999999997,7746,VNB,A,16
16,test,5,0.0,1-Back,0.0,m,Tue Feb 24 2026 14:30:52 GMT-0600 (Central Standard Time),412851.3999999999,165_m_m_d_a.png,O,z,1250,18,1,2275.5,410575.8999999999,7746,VNB,A,17
0,prac,1,0.0,2-Back,,,Tue Feb 24 2026 14:30:52 GMT-0600 (Central Standard Time),412851.3999999999,139_m_f_n_a.png,O,space,3028,1,1,2275.5,410575.8999999999,7746,VNB,A,0
0,prac,1,0.0,2-Back,,,Tue Feb 24 2026 14:30:52 GMT-0600 (Central Standard Time),412851.3999999999,124_o_f_h_a.png,O,space,3028,2,1,2275.5,410575.8999999999,7746,VNB,A,0
0,prac,1,0.0,2-Back,0.0,m,Tue Feb 24 2026 14:30:52 GMT-0600 (Central Standard Time),531648.3000000003,039_o_m_d_a.png,O,None,2002,3,1,2788.300000000745,528859.9999999995,7746,VNB,A,1
1,prac,1,1.0,2-Back,1.0,z,Tue Feb 24 2026 14:30:52 GMT-0600 (Central Standard Time),534245.6999999997,165_m_m_h_a.png,O,z,1784,4,1,2590.2000000001863,531655.4999999995,7746,VNB,A,2
2,prac,1,0.0,2-Back,1.0,m,Tue Feb 24 2026 14:30:52 GMT-0600 (Central Standard Time),536363.6000000001,071_y_f_n_a.png,O,m,1299,5,1,2107.7000000001863,534255.8999999999,7746,VNB,A,3
3,prac,1,1.0,2-Back,1.0,z,Tue Feb 24 2026 14:30:52 GMT-0600 (Central Standard Time),538326.3999999999,039_o_m_h_a.png,O,z,1155,6,1,1955.0,536371.3999999999,7746,VNB,A,4
3,prac,1,1.0,2-Back,0.0,z,Tue Feb 24 2026 14:30:52 GMT-0600 (Central Standard Time),540433.1999999997,109_y_m_n_a.png,O,m,1267,7,1,2103.0,538330.1999999997,7746,VNB,A,5
4,prac,1,0.0,2-Back,1.0,m,Tue Feb 24 2026 14:30:52 GMT-0600 (Central Standard Time),543026.6000000001,139_m_f_d_a.png,O,m,1780,8,1,2586.4000000003725,540440.1999999997,7746,VNB,A,6
5,prac,1,0.0,2-Back,1.0,m,Tue Feb 24 2026 14:30:52 GMT-0600 (Central Standard Time),545262.3999999999,124_o_f_d_a.png,O,m,1420,9,1,2225.9000000003725,543036.4999999995,7746,VNB,A,7
6,prac,1,0.0,2-Back,1.0,m,Tue Feb 24 2026 14:30:52 GMT-0600 (Central Standard Time),547807.9999999995,165_m_m_h_a.png,O,m,1754,10,1,2535.7999999998137,545272.1999999997,7746,VNB,A,8
7,prac,1,1.0,2-Back,1.0,z,Tue Feb 24 2026 14:30:52 GMT-0600 (Central Standard Time),550592.3999999999,071_y_f_d_a.png,O,z,1979,11,1,2775.4000000003725,547816.9999999995,7746,VNB,A,9
8,prac,1,0.0,2-Back,1.0,m,Tue Feb 24 2026 14:30:52 GMT-0600 (Central Standard Time),553124.6000000001,039_o_m_n_a.png,O,m,1728,12,1,2526.9000000003725,550597.6999999997,7746,VNB,A,10
0,test,1,0.0,2-Back,,,Tue Feb 24 2026 14:30:52 GMT-0600 (Central Standard Time),553124.6000000001,109_y_m_h_a.png,O,space,4322,1,1,2526.9000000003725,550597.6999999997,7746,VNB,A,0
0,test,1,0.0,2-Back,,,Tue Feb 24 2026 14:30:52 GMT-0600 (Central Standard Time),553124.6000000001,124_o_f_n_a.png,O,space,4322,2,1,2526.9000000003725,550597.6999999997,7746,VNB,A,0
1,test,1,0.0,2-Back,1.0,z,Tue Feb 24 2026 14:30:52 GMT-0600 (Central Standard Time),577165.6000000001,039_o_m_h_a.png,O,z,754,3,1,1774.5,575391.1000000001,7746,VNB,A,1
2,test,1,0.0,2-Back,1.0,m,Tue Feb 24 2026 14:30:52 GMT-0600 (Central Standard Time),579997.8000000003,139_m_f_d_a.png,O,m,1804,4,1,2825.5,577172.3000000003,7746,VNB,A,2
2,test,1,1.0,2-Back,0.0,m,Tue Feb 24 2026 14:30:52 GMT-0600 (Central Standard Time),582763.4999999995,109_y_m_n_a.png,O,z,1747,5,1,2758.2999999998137,580005.1999999997,7746,VNB,A,3
3,test,1,0.0,2-Back,1.0,z,Tue Feb 24 2026 14:30:52 GMT-0600 (Central Standard Time),585463.4999999995,071_y_f_d_a.png,O,z,1678,6,1,2691.5,582771.9999999995,7746,VNB,A,4
4,test,1,0.0,2-Back,1.0,m,Tue Feb 24 2026 14:30:52 GMT-0600 (Central Standard Time),588462.1999999997,165_m_m_h_a.png,O,m,1970,7,1,2991.899999999441,585470.3000000003,7746,VNB,A,5
4,test,1,1.0,2-Back,0.0,m,Tue Feb 24 2026 14:30:52 GMT-0600 (Central Standard Time),591044.1999999997,071_y_f_n_a.png,O,z,1562,8,1,2574.399999999441,588469.8000000003,7746,VNB,A,6
5,test,1,0.0,2-Back,1.0,z,Tue Feb 24 2026 14:30:52 GMT-0600 (Central Standard Time),593393.8999999999,124_o_f_h_a.png,O,z,1318,9,1,2345.7000000001863,591048.1999999997,7746,VNB,A,7
6,test,1,0.0,2-Back,1.0,m,Tue Feb 24 2026 14:30:52 GMT-0600 (Central Standard Time),595962.3000000003,039_o_m_d_a.png,O,m,1550,10,1,2562.9000000003725,593399.3999999999,7746,VNB,A,8
6,test,1,1.0,2-Back,0.0,m,Tue Feb 24 2026 14:30:52 GMT-0600 (Central Standard Time),598992.6999999997,165_m_m_d_a.png,O,None,2017,11,1,3021.899999999441,595970.8000000003,7746,VNB,A,9
7,test,1,0.0,2-Back,1.0,m,Tue Feb 24 2026 14:30:52 GMT-0600 (Central Standard Time),601607.3999999999,139_m_f_n_a.png,O,m,1593,12,1,2608.0999999996275,598999.3000000003,7746,VNB,A,10
8,test,1,0.0,2-Back,1.0,m,Tue Feb 24 2026 14:30:52 GMT-0600 (Central Standard Time),604105.8000000003,071_y_f_h_a.png,O,m,1472,13,1,2492.4000000003725,601613.3999999999,7746,VNB,A,11
9,test,1,0.0,2-Back,1.0,z,Tue Feb 24 2026 14:30:52 GMT-0600 (Central Standard Time),606455.6000000001,165_m_m_n_a.png,O,z,1326,14,1,2344.7000000001863,604110.8999999999,7746,VNB,A,12
10,test,1,0.0,2-Back,1.0,m,Tue Feb 24 2026 14:30:52 GMT-0600 (Central Standard Time),608488.8000000003,109_y_m_d_a.png,O,m,1009,15,1,2028.5,606460.3000000003,7746,VNB,A,13
10,test,1,1.0,2-Back,0.0,m,Tue Feb 24 2026 14:30:52 GMT-0600 (Central Standard Time),611021.6000000001,139_m_f_h_a.png,O,z,1503,16,1,2530.100000000559,608491.4999999995,7746,VNB,A,14
11,test,1,0.0,2-Back,1.0,z,Tue Feb 24 2026 14:30:52 GMT-0600 (Central Standard Time),613853.6999999997,124_o_f_d_a.png,O,z,1801,17,1,2826.5,611027.1999999997,7746,VNB,A,15
12,test,1,0.0,2-Back,1.0,m,Tue Feb 24 2026 14:30:52 GMT-0600 (Central Standard Time),616204.3999999999,039_o_m_n_a.png,O,m,1323,18,1,2345.5,613858.8999999999,7746,VNB,A,16
0,test,2,0.0,2-Back,,,Tue Feb 24 2026 14:30:52 GMT-0600 (Central Standard Time),616204.3999999999,165_m_m_h_a.png,O,space,2251,1,1,2345.5,613858.8999999999,7746,VNB,A,0
0,test,2,0.0,2-Back,,,Tue Feb 24 2026 14:30:52 GMT-0600 (Central Standard Time),616204.3999999999,071_y_f_n_a.png,O,space,2251,2,1,2345.5,613858.8999999999,7746,VNB,A,0
1,test,2,1.0,2-Back,1.0,z,Tue Feb 24 2026 14:30:52 GMT-0600 (Central Standard Time),625050.8000000003,124_o_f_h_a.png,O,z,475,3,1,1491.300000000745,623559.4999999995,7746,VNB,A,1
2,test,2,0.0,2-Back,1.0,m,Tue Feb 24 2026 14:30:52 GMT-0600 (Central Standard Time),627516.6999999997,039_o_m_d_a.png,O,m,1438,4,1,2459.2000000001863,625057.4999999995,7746,VNB,A,2
2,test,2,0.0,2-Back,0.0,m,Tue Feb 24 2026 14:30:52 GMT-0600 (Central Standard Time),629948.1999999997,139_m_f_d_a.png,O,z,1403,5,1,2425.0,627523.1999999997,7746,VNB,A,3
3,test,2,0.0,2-Back,1.0,m,Tue Feb 24 2026 14:30:52 GMT-0600 (Central Standard Time),632396.8999999999,109_y_m_h_a.png,O,m,1419,6,1,2445.9000000003725,629950.9999999995,7746,VNB,A,4
3,test,2,0.0,2-Back,0.0,m,Tue Feb 24 2026 14:30:52 GMT-0600 (Central Standard Time),634863.6000000001,124_o_f_n_a.png,O,z,1435,7,1,2461.2999999998137,632402.3000000003,7746,VNB,A,5
4,test,2,1.0,2-Back,1.0,z,Tue Feb 24 2026 14:30:52 GMT-0600 (Central Standard Time),637179.8999999999,039_o_m_h_a.png,O,z,1297,8,1,2309.2999999998137,634870.6000000001,7746,VNB,A,6
5,test,2,0.0,2-Back,1.0,m,Tue Feb 24 2026 14:30:52 GMT-0600 (Central Standard Time),639895.1999999997,071_y_f_d_a.png,O,m,1693,9,1,2709.899999999441,637185.3000000003,7746,VNB,A,7
6,test,2,0.0,2-Back,1.0,m,Tue Feb 24 2026 14:30:52 GMT-0600 (Central Standard Time),642277.8999999999,109_y_m_d_a.png,O,m,1361,10,1,2376.7000000001863,639901.1999999997,7746,VNB,A,8
7,test,2,0.0,2-Back,1.0,m,Tue Feb 24 2026 14:30:52 GMT-0600 (Central Standard Time),644978.8999999999,165_m_m_n_a.png,O,m,1684,11,1,2693.2999999998137,642285.6000000001,7746,VNB,A,9
8,test,2,0.0,2-Back,1.0,m,Tue Feb 24 2026 14:30:52 GMT-0600 (Central Standard Time),647527.1999999997,139_m_f_h_a.png,O,m,1519,12,1,2545.0999999996275,644982.1000000001,7746,VNB,A,10
9,test,2,1.0,2-Back,1.0,z,Tue Feb 24 2026 14:30:52 GMT-0600 (Central Standard Time),649807.6000000001,039_o_m_n_a.png,O,z,1255,13,1,2276.5,647531.1000000001,7746,VNB,A,11
10,test,2,0.0,2-Back,1.0,m,Tue Feb 24 2026 14:30:52 GMT-0600 (Central Standard Time),652574.8000000003,124_o_f_d_a.png,O,m,1742,14,1,2761.600000000559,649813.1999999997,7746,VNB,A,12
11,test,2,0.0,2-Back,1.0,m,Tue Feb 24 2026 14:30:52 GMT-0600 (Central Standard Time),655525.1999999997,071_y_f_h_a.png,O,m,1920,15,1,2944.2999999998137,652580.8999999999,7746,VNB,A,13
12,test,2,0.0,2-Back,1.0,z,Tue Feb 24 2026 14:30:52 GMT-0600 (Central Standard Time),658207.8999999999,165_m_m_d_a.png,O,z,1653,16,1,2675.7000000001863,655532.1999999997,7746,VNB,A,14
12,test,2,0.0,2-Back,0.0,m,Tue Feb 24 2026 14:30:52 GMT-0600 (Central Standard Time),661239.1000000001,109_y_m_n_a.png,O,None,2015,17,1,3024.7999999998137,658214.3000000003,7746,VNB,A,15
13,test,2,1.0,2-Back,1.0,m,Tue Feb 24 2026 14:30:52 GMT-0600 (Central Standard Time),663804.1000000001,139_m_f_n_a.png,O,m,1546,18,1,2561.7000000001863,661242.3999999999,7746,VNB,A,16
0,test,3,1.0,2-Back,,,Tue Feb 24 2026 14:30:52 GMT-0600 (Central Standard Time),663804.1000000001,039_o_m_n_a.png,O,space,5982,1,1,2561.7000000001863,661242.3999999999,7746,VNB,A,0
0,test,3,1.0,2-Back,,,Tue Feb 24 2026 14:30:52 GMT-0600 (Central Standard Time),663804.1000000001,124_o_f_d_a.png,O,space,5982,2,1,2561.7000000001863,661242.3999999999,7746,VNB,A,0
1,test,3,0.0,2-Back,1.0,m,Tue Feb 24 2026 14:30:52 GMT-0600 (Central Standard Time),676900.8000000003,071_y_f_h_a.png,O,m,1053,3,1,2077.7000000001863,674823.1000000001,7746,VNB,A,1
2,test,3,0.0,2-Back,1.0,z,Tue Feb 24 2026 14:30:52 GMT-0600 (Central Standard Time),679349.9999999995,139_m_f_d_a.png,O,z,1426,4,1,2442.0999999996275,676907.8999999999,7746,VNB,A,2
3,test,3,1.0,2-Back,1.0,m,Tue Feb 24 2026 14:30:52 GMT-0600 (Central Standard Time),681782.6000000001,109_y_m_n_a.png,O,m,1402,5,1,2427.2999999998137,679355.3000000003,7746,VNB,A,3
4,test,3,0.0,2-Back,1.0,m,Tue Feb 24 2026 14:30:52 GMT-0600 (Central Standard Time),684381.6000000001,039_o_m_h_a.png,O,m,1570,6,1,2591.9000000003725,681789.6999999997,7746,VNB,A,4
5,test,3,0.0,2-Back,1.0,z,Tue Feb 24 2026 14:30:52 GMT-0600 (Central Standard Time),687113.6000000001,071_y_f_n_a.png,O,z,1699,7,1,2723.0,684390.6000000001,7746,VNB,A,5
6,test,3,1.0,2-Back,1.0,m,Tue Feb 24 2026 14:30:52 GMT-0600 (Central Standard Time),689664.6000000001,165_m_m_d_a.png,O,m,1527,8,1,2543.9000000003725,687120.6999999997,7746,VNB,A,6
7,test,3,0.0,2-Back,1.0,m,Tue Feb 24 2026 14:30:52 GMT-0600 (Central Standard Time),691728.6999999997,109_y_m_d_a.png,O,m,1042,9,1,2056.5,689672.1999999997,7746,VNB,A,7
7,test,3,0.0,2-Back,0.0,m,Tue Feb 24 2026 14:30:52 GMT-0600 (Central Standard Time),694760.9999999995,124_o_f_h_a.png,O,None,2014,10,1,3024.5999999996275,691736.3999999999,7746,VNB,A,8
8,test,3,1.0,2-Back,1.0,m,Tue Feb 24 2026 14:30:52 GMT-0600 (Central Standard Time),697127.3999999999,139_m_f_n_a.png,O,m,1342,11,1,2360.2000000001863,694767.1999999997,7746,VNB,A,9
9,test,3,1.0,2-Back,1.0,z,Tue Feb 24 2026 14:30:52 GMT-0600 (Central Standard Time),699376.1000000001,165_m_m_h_a.png,O,z,1225,12,1,2243.2000000001863,697132.8999999999,7746,VNB,A,10
10,test,3,0.0,2-Back,1.0,m,Tue Feb 24 2026 14:30:52 GMT-0600 (Central Standard Time),701792.1999999997,071_y_f_d_a.png,O,m,1385,13,1,2407.5999999996275,699384.6000000001,7746,VNB,A,11
10,test,3,0.0,2-Back,0.0,m,Tue Feb 24 2026 14:30:52 GMT-0600 (Central Standard Time),704775.1999999997,124_o_f_n_a.png,O,z,1953,14,1,2975.899999999441,701799.3000000003,7746,VNB,A,12
11,test,3,0.0,2-Back,1.0,z,Tue Feb 24 2026 14:30:52 GMT-0600 (Central Standard Time),707773.6000000001,039_o_m_d_a.png,O,z,1969,15,1,2994.2000000001863,704779.3999999999,7746,VNB,A,13
12,test,3,1.0,2-Back,1.0,m,Tue Feb 24 2026 14:30:52 GMT-0600 (Central Standard Time),710206.1999999997,139_m_f_h_a.png,O,m,1402,16,1,2425.899999999441,707780.3000000003,7746,VNB,A,14
13,test,3,0.0,2-Back,1.0,m,Tue Feb 24 2026 14:30:52 GMT-0600 (Central Standard Time),712806.1999999997,165_m_m_n_a.png,O,m,1570,17,1,2593.2999999998137,710212.8999999999,7746,VNB,A,15
14,test,3,0.0,2-Back,1.0,z,Tue Feb 24 2026 14:30:52 GMT-0600 (Central Standard Time),715087.6000000001,109_y_m_h_a.png,O,z,1259,18,1,2274.600000000559,712812.9999999995,7746,VNB,A,16
0,test,4,0.0,2-Back,,,Tue Feb 24 2026 14:30:52 GMT-0600 (Central Standard Time),715087.6000000001,139_m_f_n_a.png,O,space,2994,1,1,2274.600000000559,712812.9999999995,7746,VNB,A,0
0,test,4,0.0,2-Back,,,Tue Feb 24 2026 14:30:52 GMT-0600 (Central Standard Time),715087.6000000001,039_o_m_n_a.png,O,space,2994,2,1,2274.600000000559,712812.9999999995,7746,VNB,A,0
1,test,4,1.0,2-Back,1.0,m,Tue Feb 24 2026 14:30:52 GMT-0600 (Central Standard Time),725518.6000000001,109_y_m_h_a.png,O,m,1336,3,1,2356.7999999998137,723161.8000000003,7746,VNB,A,1
2,test,4,1.0,2-Back,1.0,m,Tue Feb 24 2026 14:30:52 GMT-0600 (Central Standard Time),727867.6999999997,124_o_f_d_a.png,O,m,1324,4,1,2341.7000000001863,725525.9999999995,7746,VNB,A,2
3,test,4,0.0,2-Back,1.0,z,Tue Feb 24 2026 14:30:52 GMT-0600 (Central Standard Time),730632.1000000001,039_o_m_h_a.png,O,z,1740,5,1,2758.100000000559,727873.9999999995,7746,VNB,A,3
3,test,4,0.0,2-Back,0.0,m,Tue Feb 24 2026 14:30:52 GMT-0600 (Central Standard Time),733567.3999999999,165_m_m_n_a.png,O,z,1903,6,1,2931.7000000001863,730635.6999999997,7746,VNB,A,4
4,test,4,0.0,2-Back,1.0,m,Tue Feb 24 2026 14:30:52 GMT-0600 (Central Standard Time),736431.6999999997,139_m_f_d_a.png,O,m,1844,7,1,2858.7000000001863,733572.9999999995,7746,VNB,A,5
5,test,4,0.0,2-Back,1.0,z,Tue Feb 24 2026 14:30:52 GMT-0600 (Central Standard Time),738930.4999999995,071_y_f_n_a.png,O,z,1480,8,1,2490.399999999441,736440.1000000001,7746,VNB,A,6
6,test,4,1.0,2-Back,1.0,m,Tue Feb 24 2026 14:30:52 GMT-0600 (Central Standard Time),741230.8000000003,124_o_f_h_a.png,O,m,1271,9,1,2292.300000000745,738938.4999999995,7746,VNB,A,7
7,test,4,0.0,2-Back,1.0,m,Tue Feb 24 2026 14:30:52 GMT-0600 (Central Standard Time),743862.6000000001,165_m_m_h_a.png,O,m,1611,10,1,2625.7000000001863,741236.8999999999,7746,VNB,A,8
8,test,4,0.0,2-Back,1.0,m,Tue Feb 24 2026 14:30:52 GMT-0600 (Central Standard Time),746162.1999999997,071_y_f_d_a.png,O,m,1274,11,1,2293.7000000001863,743868.4999999995,7746,VNB,A,9
9,test,4,0.0,2-Back,1.0,m,Tue Feb 24 2026 14:30:52 GMT-0600 (Central Standard Time),748993.8999999999,109_y_m_n_a.png,O,m,1807,12,1,2826.5,746167.3999999999,7746,VNB,A,10
9,test,4,0.0,2-Back,0.0,z,Tue Feb 24 2026 14:30:52 GMT-0600 (Central Standard Time),752026.9999999995,039_o_m_d_a.png,O,None,2008,13,1,3029.399999999441,748997.6000000001,7746,VNB,A,11
10,test,4,1.0,2-Back,1.0,m,Tue Feb 24 2026 14:30:52 GMT-0600 (Central Standard Time),754976.6999999997,139_m_f_h_a.png,O,m,1917,14,1,2944.5999999996275,752032.1000000001,7746,VNB,A,12
11,test,4,1.0,2-Back,1.0,m,Tue Feb 24 2026 14:30:52 GMT-0600 (Central Standard Time),757392.3000000003,071_y_f_h_a.png,O,m,1393,15,1,2410.7000000001863,754981.6000000001,7746,VNB,A,13
12,test,4,0.0,2-Back,1.0,m,Tue Feb 24 2026 14:30:52 GMT-0600 (Central Standard Time),759940.1999999997,124_o_f_n_a.png,O,m,1530,16,1,2545.7000000001863,757394.4999999995,7746,VNB,A,14
13,test,4,0.0,2-Back,1.0,m,Tue Feb 24 2026 14:30:52 GMT-0600 (Central Standard Time),762307.8000000003,109_y_m_d_a.png,O,m,1334,17,1,2363.5,759944.3000000003,7746,VNB,A,15
14,test,4,1.0,2-Back,1.0,m,Tue Feb 24 2026 14:30:52 GMT-0600 (Central Standard Time),765139.3999999999,165_m_m_d_a.png,O,m,1816,18,1,2828.2999999998137,762311.1000000001,7746,VNB,A,16
0,test,5,1.0,2-Back,,,Tue Feb 24 2026 14:30:52 GMT-0600 (Central Standard Time),765139.3999999999,071_y_f_d_a.png,O,space,1669,1,1,2828.2999999998137,762311.1000000001,7746,VNB,A,0
0,test,5,1.0,2-Back,,,Tue Feb 24 2026 14:30:52 GMT-0600 (Central Standard Time),765139.3999999999,124_o_f_h_a.png,O,space,1669,2,1,2828.2999999998137,762311.1000000001,7746,VNB,A,0
1,test,5,1.0,2-Back,1.0,z,Tue Feb 24 2026 14:30:52 GMT-0600 (Central Standard Time),773584.1999999997,039_o_m_d_a.png,O,z,638,3,1,1667.5999999996275,771916.6000000001,7746,VNB,A,1
2,test,5,1.0,2-Back,1.0,m,Tue Feb 24 2026 14:30:52 GMT-0600 (Central Standard Time),776003.4999999995,139_m_f_n_a.png,O,m,1390,4,1,2417.0,773586.4999999995,7746,VNB,A,2
3,test,5,0.0,2-Back,1.0,m,Tue Feb 24 2026 14:30:52 GMT-0600 (Central Standard Time),778651.3000000003,165_m_m_h_a.png,O,m,1631,5,1,2641.4000000003725,776009.8999999999,7746,VNB,A,3
4,test,5,0.0,2-Back,1.0,z,Tue Feb 24 2026 14:30:52 GMT-0600 (Central Standard Time),780968.1000000001,071_y_f_n_a.png,O,z,1285,6,1,2311.2000000001863,778656.8999999999,7746,VNB,A,4
5,test,5,0.0,2-Back,1.0,m,Tue Feb 24 2026 14:30:52 GMT-0600 (Central Standard Time),783017.3999999999,124_o_f_d_a.png,O,m,1033,7,1,2042.0,780975.3999999999,7746,VNB,A,5
6,test,5,0.0,2-Back,1.0,m,Tue Feb 24 2026 14:30:52 GMT-0600 (Central Standard Time),785966.9999999995,039_o_m_h_a.png,O,m,1920,8,1,2943.0999999996275,783023.8999999999,7746,VNB,A,6
7,test,5,1.0,2-Back,1.0,z,Tue Feb 24 2026 14:30:52 GMT-0600 (Central Standard Time),788650.3000000003,139_m_f_d_a.png,O,z,1651,9,1,2677.600000000559,785972.6999999997,7746,VNB,A,7
8,test,5,0.0,2-Back,1.0,m,Tue Feb 24 2026 14:30:52 GMT-0600 (Central Standard Time),791048.9999999995,109_y_m_n_a.png,O,m,1385,10,1,2393.199999999255,788655.8000000003,7746,VNB,A,8
9,test,5,0.0,2-Back,1.0,m,Tue Feb 24 2026 14:30:52 GMT-0600 (Central Standard Time),793415.1000000001,165_m_m_n_a.png,O,m,1345,11,1,2360.0,791055.1000000001,7746,VNB,A,9
10,test,5,0.0,2-Back,1.0,m,Tue Feb 24 2026 14:30:52 GMT-0600 (Central Standard Time),795897.3000000003,071_y_f_h_a.png,O,m,1450,12,1,2475.600000000559,793421.6999999997,7746,VNB,A,10
11,test,5,0.0,2-Back,1.0,m,Tue Feb 24 2026 14:30:52 GMT-0600 (Central Standard Time),798413.8999999999,109_y_m_d_a.png,O,m,1497,13,1,2510.4000000003725,795903.4999999995,7746,VNB,A,11
12,test,5,1.0,2-Back,1.0,z,Tue Feb 24 2026 14:30:52 GMT-0600 (Central Standard Time),800460.8000000003,139_m_f_h_a.png,O,z,1028,14,1,2040.2000000001863,798420.6000000001,7746,VNB,A,12
13,test,5,0.0,2-Back,1.0,m,Tue Feb 24 2026 14:30:52 GMT-0600 (Central Standard Time),803360.9999999995,039_o_m_n_a.png,O,m,1867,15,1,2892.5999999996275,800468.3999999999,7746,VNB,A,13
14,test,5,0.0,2-Back,1.0,m,Tue Feb 24 2026 14:30:52 GMT-0600 (Central Standard Time),806243.1000000001,165_m_m_d_a.png,O,m,1853,16,1,2875.9000000003725,803367.1999999997,7746,VNB,A,14
15,test,5,0.0,2-Back,1.0,z,Tue Feb 24 2026 14:30:52 GMT-0600 (Central Standard Time),808724.6000000001,124_o_f_n_a.png,O,z,1459,17,1,2474.2999999998137,806250.3000000003,7746,VNB,A,15
16,test,5,1.0,2-Back,1.0,m,Tue Feb 24 2026 14:30:52 GMT-0600 (Central Standard Time),811024.1999999997,109_y_m_h_a.png,O,m,1276,18,1,2292.0999999996275,808732.1000000001,7746,VNB,A,16
