acc_sum,block,block_c,condition,correct,correct_response,datetime,endtime,flanker,jitter,project,response,response_test_buffer_response,response_test_target_response,response_time,response_time_test_buffer_response,response_time_test_target_response,row_sel,session_number,start_end,starttime,subject_id,target,task,task_vers,time_test_buffer,time_test_buffer_response,time_test_constants,time_test_flanker,time_test_jitter,time_test_logger,time_test_target,time_test_target_response,time_test_variables,trial
0,prac,1,inc,0,z,Mon Jan 12 2026 11:50:37 GMT-0600 (Central Standard Time),136460.59999990463,rock,900,O,m,,,1356,,,10,1,3562.5999999046326,132898.0,7726,kind,AF,C,,,,,,,,,,1
0,prac,1,con,0,z,Mon Jan 12 2026 11:50:37 GMT-0600 (Central Standard Time),141358.59999990463,elated,800,O,None,,,1815,,,9,1,4894.5,136464.09999990463,7726,elated,AF,C,,,,,,,,,,2
0,prac,1,inc,0,z,Mon Jan 12 2026 11:50:37 GMT-0600 (Central Standard Time),145126.09999990463,window,1100,O,m,,,1387,,,16,1,3760.699999809265,141365.40000009537,7726,temper,AF,C,,,,,,,,,,3
0,prac,1,con,0,z,Mon Jan 12 2026 11:50:37 GMT-0600 (Central Standard Time),150188.29999995232,rage,1000,O,None,,,1801,,,15,1,5057.599999904633,145130.70000004768,7726,rage,AF,C,,,,,,,,,,4
1,prac,1,con,1,z,Mon Jan 12 2026 11:50:37 GMT-0600 (Central Standard Time),153206.70000004768,love,1000,O,z,,,713,,,11,1,3015.100000143051,150191.59999990463,7726,love,AF,C,,,,,,,,,,5
2,prac,1,inc,1,m,Mon Jan 12 2026 11:50:37 GMT-0600 (Central Standard Time),156122.79999995232,kind,900,O,m,,,724,,,2,1,2912.7000000476837,153210.09999990463,7726,rock,AF,C,,,,,,,,,,6
3,prac,1,inc,1,z,Mon Jan 12 2026 11:50:37 GMT-0600 (Central Standard Time),159602.59999990463,napkin,1100,O,z,,,1082,,,12,1,3474.5999999046326,156128.0,7726,friend,AF,C,,,,,,,,,,7
4,prac,1,inc,1,m,Mon Jan 12 2026 11:50:37 GMT-0600 (Central Standard Time),162602.40000009537,brutal,1100,O,m,,,583,,,8,1,2996.5,159605.90000009537,7726,window,AF,C,,,,,,,,,,8
5,prac,1,con,1,m,Mon Jan 12 2026 11:50:37 GMT-0600 (Central Standard Time),165267.59999990463,jacket,800,O,m,,,562,,,5,1,2661.5999999046326,162606.0,7726,jacket,AF,C,,,,,,,,,,9
6,prac,1,con,1,m,Mon Jan 12 2026 11:50:37 GMT-0600 (Central Standard Time),168067.5,remote,1000,O,m,,,489,,,7,1,2796.5999999046326,165270.90000009537,7726,remote,AF,C,,,,,,,,,,10
7,prac,1,inc,1,m,Mon Jan 12 2026 11:50:37 GMT-0600 (Central Standard Time),170899.59999990463,elated,900,O,m,,,638,,,6,1,2828.199999809265,168071.40000009537,7726,napkin,AF,C,,,,,,,,,,11
8,prac,1,con,1,m,Mon Jan 12 2026 11:50:37 GMT-0600 (Central Standard Time),173752.0,step,800,O,m,,,763,,,1,1,2848.5999999046326,170903.40000009537,7726,step,AF,C,,,,,,,,,,12
9,prac,1,con,1,z,Mon Jan 12 2026 11:50:37 GMT-0600 (Central Standard Time),176366.90000009537,brutal,800,O,z,,,523,,,13,1,2611.4000000953674,173755.5,7726,brutal,AF,C,,,,,,,,,,13
10,prac,1,inc,1,m,Mon Jan 12 2026 11:50:37 GMT-0600 (Central Standard Time),179446.59999990463,hate,1100,O,m,,,692,,,4,1,3074.7999999523163,176371.79999995232,7726,film,AF,C,,,,,,,,,,14
11,prac,1,inc,1,z,Mon Jan 12 2026 11:50:37 GMT-0600 (Central Standard Time),182378.70000004768,film,900,O,z,,,732,,,14,1,2927.600000143051,179451.09999990463,7726,hate,AF,C,,,,,,,,,,15
12,prac,1,con,1,m,Mon Jan 12 2026 11:50:37 GMT-0600 (Central Standard Time),185078.0,bell,1000,O,m,,,395,,,3,1,2693.7999999523163,182384.20000004768,7726,bell,AF,C,,,,,,,,,,16
1,test,1,con,1,z,Mon Jan 12 2026 11:50:37 GMT-0600 (Central Standard Time),201573.20000004768,rage,900,O,z,z,None,1166,966.0,200.0,50,1,2611.0,198962.20000004768,7726,rage,AF,C,197642,197642,196013,196925,196014,198624,197441,197441,198624,1
2,test,1,con,1,m,Mon Jan 12 2026 11:50:37 GMT-0600 (Central Standard Time),203624.40000009537,film,1000,O,m,m,None,501,302.0,199.0,91,1,2044.8000001907349,201579.59999990463,7726,film,AF,C,200357,200357,198631,199641,198631,200675,200157,200157,200675,2
3,test,1,con,1,m,Mon Jan 12 2026 11:50:37 GMT-0600 (Central Standard Time),205554.90000009537,jacket,1000,O,m,m,None,391,191.0,200.0,99,1,1924.7000000476837,203630.20000004768,7726,jacket,AF,C,202407,202407,200681,201691,200682,202606,202207,202207,202606,3
3,test,1,inc,0,z,Mon Jan 12 2026 11:50:37 GMT-0600 (Central Standard Time),207771.29999995232,film,1100,O,m,m,None,565,351.0,214.0,48,1,2212.399999856949,205558.90000009537,7726,hate,AF,C,204456,204456,202610,203724,202610,204822,204241,204241,204822,4
4,test,1,con,1,m,Mon Jan 12 2026 11:50:37 GMT-0600 (Central Standard Time),209769.59999990463,step,900,O,m,m,None,551,352.0,199.0,66,1,1993.0999999046326,207776.5,7726,step,AF,C,206455,206455,204828,205742,204828,206821,206255,206255,206821,5
5,test,1,con,1,z,Mon Jan 12 2026 11:50:37 GMT-0600 (Central Standard Time),211637.29999995232,brutal,900,O,z,z,None,431,232.0,199.0,34,1,1862.0,209775.29999995232,7726,brutal,AF,C,208455,208455,206826,207738,206827,208688,208255,208255,208688,6
5,test,1,inc,0,z,Mon Jan 12 2026 11:50:37 GMT-0600 (Central Standard Time),213304.70000004768,jacket,800,O,m,m,None,338,123.0,215.0,29,1,1660.9000000953674,211643.79999995232,7726,friend,AF,C,210221,210221,208695,209503,208695,210356,210005,210005,210356,7
6,test,1,con,1,z,Mon Jan 12 2026 11:50:37 GMT-0600 (Central Standard Time),215368.0,love,1100,O,z,z,None,428,228.0,200.0,20,1,2058.5,213309.5,7726,love,AF,C,212187,212187,210361,211471,210361,212419,211986,211986,212419,8
7,test,1,con,1,m,Mon Jan 12 2026 11:50:37 GMT-0600 (Central Standard Time),217152.29999995232,step,800,O,m,m,None,447,247.0,200.0,65,1,1777.7000000476837,215374.59999990463,7726,step,AF,C,213952,213952,212426,213237,212426,214204,213752,213752,214203,9
8,test,1,con,1,m,Mon Jan 12 2026 11:50:37 GMT-0600 (Central Standard Time),218983.70000004768,rock,900,O,m,m,None,394,195.0,199.0,74,1,1825.0,217158.70000004768,7726,rock,AF,C,215836,215836,214210,215119,214210,216035,215636,215636,216035,10
9,test,1,con,1,m,Mon Jan 12 2026 11:50:37 GMT-0600 (Central Standard Time),220700.70000004768,film,800,O,m,m,None,382,183.0,199.0,89,1,1709.5,218991.20000004768,7726,film,AF,C,217568,217568,216042,216852,216043,217752,217369,217369,217752,11
10,test,1,inc,1,m,Mon Jan 12 2026 11:50:37 GMT-0600 (Central Standard Time),222899.09999990463,hate,1100,O,m,m,None,558,359.0,199.0,96,1,2193.199999809265,220705.90000009537,7726,film,AF,C,219584,219584,217757,218867,217757,219950,219385,219385,219950,12
11,test,1,inc,1,m,Mon Jan 12 2026 11:50:37 GMT-0600 (Central Standard Time),224748.90000009537,rage,800,O,m,m,None,505,305.0,200.0,93,1,1841.1000001430511,222907.79999995232,7726,film,AF,C,221486,221486,219959,220768,219959,221800,221285,221285,221800,13
12,test,1,inc,1,m,Mon Jan 12 2026 11:50:37 GMT-0600 (Central Standard Time),226980.90000009537,temper,1000,O,m,m,None,699,496.0,203.0,111,1,2228.100000143051,224752.79999995232,7726,napkin,AF,C,223535,223535,221804,222816,221804,224032,223332,223332,224032,14
13,test,1,inc,1,m,Mon Jan 12 2026 11:50:37 GMT-0600 (Central Standard Time),228830.20000004768,brutal,900,O,m,m,None,412,213.0,199.0,110,1,1842.7999999523163,226987.40000009537,7726,napkin,AF,C,225665,225665,224038,224949,224039,225881,225466,225466,225881,15
14,test,1,inc,1,z,Mon Jan 12 2026 11:50:37 GMT-0600 (Central Standard Time),231096.5,window,1100,O,z,z,None,627,428.0,199.0,8,1,2262.5,228834.0,7726,elated,AF,C,227715,227715,225885,226999,225885,228148,227515,227515,228147,16
15,test,1,inc,1,m,Mon Jan 12 2026 11:50:37 GMT-0600 (Central Standard Time),233030.0,rage,800,O,m,m,None,590,390.0,200.0,69,1,1930.4000000953674,231099.59999990463,7726,step,AF,C,229681,229681,228151,228966,228151,230081,229481,229481,230081,17
16,test,1,con,1,m,Mon Jan 12 2026 11:50:37 GMT-0600 (Central Standard Time),235162.0,remote,900,O,m,m,None,691,477.0,214.0,114,1,2126.0999999046326,233035.90000009537,7726,remote,AF,C,231730,231730,230087,230998,230087,232213,231515,231515,232213,18
17,test,1,inc,1,z,Mon Jan 12 2026 11:50:37 GMT-0600 (Central Standard Time),237494.29999995232,bell,1000,O,z,z,None,795,596.0,199.0,47,1,2327.7000000476837,235166.59999990463,7726,hate,AF,C,233946,233946,232218,233232,232218,234545,233746,233746,234545,19
18,test,1,inc,1,m,Mon Jan 12 2026 11:50:37 GMT-0600 (Central Standard Time),239677.09999990463,friend,1100,O,m,m,None,547,347.0,200.0,104,1,2179.5,237497.59999990463,7726,jacket,AF,C,236379,236379,234549,235662,234549,236728,236179,236179,236728,20
19,test,1,inc,1,z,Mon Jan 12 2026 11:50:37 GMT-0600 (Central Standard Time),241741.70000004768,rock,900,O,z,z,None,620,420.0,200.0,14,1,2060.5,239681.20000004768,7726,kind,AF,C,238362,238362,236732,237646,236733,238793,238162,238162,238793,21
20,test,1,con,1,m,Mon Jan 12 2026 11:50:37 GMT-0600 (Central Standard Time),243592.29999995232,film,900,O,m,m,None,403,188.0,215.0,90,1,1847.0999999046326,241745.20000004768,7726,film,AF,C,240443,240443,238796,239712,238796,240643,240228,240228,240643,22
21,test,1,inc,1,z,Mon Jan 12 2026 11:50:37 GMT-0600 (Central Standard Time),245724.90000009537,napkin,900,O,z,z,None,690,489.0,201.0,30,1,2126.9000000953674,243598.0,7726,friend,AF,C,242278,242278,240649,241561,240649,242776,242077,242077,242776,23
22,test,1,inc,1,z,Mon Jan 12 2026 11:50:37 GMT-0600 (Central Standard Time),248091.0,remote,1000,O,z,z,None,824,621.0,203.0,39,1,2360.2000000476837,245730.79999995232,7726,brutal,AF,C,244513,244513,242782,243794,242782,245142,244309,244309,245142,24
23,test,1,con,1,m,Mon Jan 12 2026 11:50:37 GMT-0600 (Central Standard Time),249990.40000009537,jacket,800,O,m,m,None,576,377.0,199.0,97,1,1896.7000000476837,248093.70000004768,7726,jacket,AF,C,246661,246661,245145,245959,245145,247041,246461,246461,247041,25
23,test,1,inc,0,m,Mon Jan 12 2026 11:50:37 GMT-0600 (Central Standard Time),252522.40000009537,friend,1100,O,z,z,None,891,690.0,201.0,120,1,2528.800000190735,249993.59999990463,7726,remote,AF,C,248877,248877,247045,248159,247045,249573,248675,248675,249573,26
24,test,1,con,1,z,Mon Jan 12 2026 11:50:37 GMT-0600 (Central Standard Time),254606.29999995232,elated,1100,O,z,z,None,450,250.0,200.0,4,1,2080.0,252526.29999995232,7726,elated,AF,C,251407,251407,249577,250690,249578,251657,251207,251207,251657,27
25,test,1,inc,1,m,Mon Jan 12 2026 11:50:37 GMT-0600 (Central Standard Time),256554.59999990463,elated,800,O,m,m,None,623,407.0,216.0,101,1,1944.5,254610.09999990463,7726,jacket,AF,C,253191,253191,251661,252473,251661,253606,252975,252975,253606,28
26,test,1,con,1,z,Mon Jan 12 2026 11:50:37 GMT-0600 (Central Standard Time),258804.70000004768,kind,1100,O,z,z,None,606,406.0,200.0,12,1,2247.2999999523163,256557.40000009537,7726,kind,AF,C,255440,255440,253608,254724,253609,255856,255240,255240,255856,29
27,test,1,inc,1,m,Mon Jan 12 2026 11:50:37 GMT-0600 (Central Standard Time),260869.90000009537,kind,900,O,m,m,None,629,430.0,199.0,86,1,2062.2000000476837,258807.70000004768,7726,bell,AF,C,257489,257489,255859,256773,255859,257921,257289,257289,257921,30
28,test,1,con,1,z,Mon Jan 12 2026 11:50:37 GMT-0600 (Central Standard Time),263719.59999990463,temper,1100,O,z,z,None,1211,997.0,214.0,60,1,2847.199999809265,260872.40000009537,7726,temper,AF,C,259770,259770,257923,259038,257924,260771,259556,259556,260771,31
29,test,1,inc,1,z,Mon Jan 12 2026 11:50:37 GMT-0600 (Central Standard Time),265885.7000000477,rock,900,O,z,z,None,732,532.0,200.0,22,1,2161.600000143051,263724.09999990463,7726,love,AF,C,262404,262404,260775,261689,260775,262937,262204,262204,262937,32
30,test,1,inc,1,m,Mon Jan 12 2026 11:50:37 GMT-0600 (Central Standard Time),267851.7999999523,kind,900,O,m,m,None,531,317.0,214.0,94,1,1962.8999998569489,265888.90000009537,7726,film,AF,C,264586,264586,262940,263853,262940,264903,264371,264371,264903,33
31,test,1,inc,1,z,Mon Jan 12 2026 11:50:37 GMT-0600 (Central Standard Time),269983.7999999523,napkin,900,O,z,z,None,694,493.0,201.0,62,1,2129.399999856949,267854.40000009537,7726,temper,AF,C,266537,266537,264905,265820,264906,267035,266335,266335,267035,34
32,test,1,inc,1,m,Mon Jan 12 2026 11:50:37 GMT-0600 (Central Standard Time),271982.7000000477,brutal,900,O,m,m,None,563,363.0,200.0,126,1,1994.2999999523163,269988.40000009537,7726,window,AF,C,268668,268668,267039,267953,267040,269034,268468,268468,269034,35
32,test,1,inc,0,m,Mon Jan 12 2026 11:50:37 GMT-0600 (Central Standard Time),274234.0,temper,1000,O,z,z,None,702,502.0,200.0,119,1,2247.2999999523163,271986.7000000477,7726,remote,AF,C,270768,270768,269038,270051,269038,271285,270567,270567,271285,36
32,test,1,con,0,z,Mon Jan 12 2026 11:50:37 GMT-0600 (Central Standard Time),276083.40000009537,kind,900,O,m,m,None,400,200.0,200.0,10,1,1844.9000000953674,274238.5,7726,kind,AF,C,272918,272918,271290,272200,271290,273134,272717,272717,273134,37
33,test,1,inc,1,m,Mon Jan 12 2026 11:50:37 GMT-0600 (Central Standard Time),278080.7000000477,brutal,900,O,m,m,None,560,359.0,201.0,102,1,1994.2000000476837,276086.5,7726,jacket,AF,C,274768,274768,273138,274051,273138,275132,274567,274567,275132,38
34,test,1,inc,1,z,Mon Jan 12 2026 11:50:37 GMT-0600 (Central Standard Time),280230.09999990463,remote,1000,O,z,z,None,604,405.0,199.0,63,1,2146.5,278083.59999990463,7726,temper,AF,C,276865,276865,275135,276149,275135,277281,276665,276665,277281,39
35,test,1,con,1,z,Mon Jan 12 2026 11:50:37 GMT-0600 (Central Standard Time),282463.2000000477,kind,1000,O,z,z,None,687,487.0,200.0,11,1,2228.9000000953674,280234.2999999523,7726,kind,AF,C,279016,279016,277285,278300,277286,279514,278815,278815,279514,40
35,test,1,inc,0,z,Mon Jan 12 2026 11:50:37 GMT-0600 (Central Standard Time),284913.5,remote,1000,O,m,m,None,911,709.0,202.0,31,1,2445.9000000953674,282467.59999990463,7726,friend,AF,C,281249,281249,279519,280532,279519,281965,281047,281047,281965,41
36,test,1,inc,1,m,Mon Jan 12 2026 11:50:37 GMT-0600 (Central Standard Time),287328.7999999523,temper,1000,O,m,m,None,877,662.0,215.0,103,1,2411.899999856949,284916.90000009537,7726,jacket,AF,C,283713,283713,281968,282982,281968,284380,283498,283498,284380,42
37,test,1,inc,1,m,Mon Jan 12 2026 11:50:37 GMT-0600 (Central Standard Time),289578.09999990463,temper,1000,O,m,m,None,709,509.0,200.0,127,1,2246.5,287331.59999990463,7726,window,AF,C,286113,286113,284383,285397,284383,286629,285913,285913,286629,43
38,test,1,con,1,m,Mon Jan 12 2026 11:50:37 GMT-0600 (Central Standard Time),291594.5,film,1100,O,m,m,None,394,195.0,199.0,92,1,2012.2999999523163,289582.2000000477,7726,film,AF,C,288445,288445,286633,287744,286633,288646,288245,288245,288646,44
39,test,1,con,1,z,Mon Jan 12 2026 11:50:37 GMT-0600 (Central Standard Time),294242.2000000477,brutal,1000,O,z,z,None,1122,908.0,214.0,35,1,2643.9000000953674,291598.2999999523,7726,brutal,AF,C,290378,290378,288649,289662,288649,291293,290164,290164,291293,45
40,test,1,con,1,m,Mon Jan 12 2026 11:50:37 GMT-0600 (Central Standard Time),295943.7999999523,rock,800,O,m,m,None,355,154.0,201.0,73,1,1697.7000000476837,294246.09999990463,7726,rock,AF,C,292828,292828,291297,292112,291297,292995,292627,292627,292995,46
41,test,1,con,1,m,Mon Jan 12 2026 11:50:37 GMT-0600 (Central Standard Time),297808.90000009537,window,800,O,m,m,None,524,310.0,214.0,121,1,1860.7000000476837,295948.2000000477,7726,window,AF,C,294544,294544,292999,293823,292999,294860,294330,294330,294860,47
42,test,1,inc,1,z,Mon Jan 12 2026 11:50:37 GMT-0600 (Central Standard Time),299890.59999990463,rock,900,O,z,z,None,640,424.0,216.0,46,1,2078.399999856949,297812.2000000477,7726,hate,AF,C,296510,296510,294863,295776,294863,296942,296294,296294,296942,48
43,test,1,con,1,z,Mon Jan 12 2026 11:50:37 GMT-0600 (Central Standard Time),301907.40000009537,hate,900,O,z,z,None,566,351.0,215.0,42,1,2012.9000000953674,299894.5,7726,hate,AF,C,298591,298591,296946,297859,296946,298958,298376,298376,298958,49
44,test,1,inc,1,z,Mon Jan 12 2026 11:50:37 GMT-0600 (Central Standard Time),303791.0,step,800,O,z,z,None,556,357.0,199.0,53,1,1880.9000000953674,301910.09999990463,7726,rage,AF,C,300475,300475,298961,299774,298961,300842,300275,300275,300842,50
45,test,1,con,1,z,Mon Jan 12 2026 11:50:37 GMT-0600 (Central Standard Time),305556.90000009537,elated,800,O,z,z,None,434,234.0,200.0,1,1,1763.2000000476837,303793.7000000477,7726,elated,AF,C,302374,302374,300845,301658,300845,302608,302174,302174,302608,51
46,test,1,inc,1,z,Mon Jan 12 2026 11:50:37 GMT-0600 (Central Standard Time),307638.5,remote,1000,O,z,z,None,536,337.0,199.0,7,1,2078.5,305560.0,7726,elated,AF,C,304341,304341,302611,303625,302611,304690,304142,304142,304690,52
47,test,1,con,1,m,Mon Jan 12 2026 11:50:37 GMT-0600 (Central Standard Time),309438.0,bell,800,O,m,m,None,464,265.0,199.0,81,1,1796.7000000476837,307641.2999999523,7726,bell,AF,C,306224,306224,304692,305506,304693,306489,306024,306024,306489,53
48,test,1,inc,1,z,Mon Jan 12 2026 11:50:37 GMT-0600 (Central Standard Time),311453.7000000477,step,800,O,z,z,None,669,455.0,214.0,13,1,2012.7000000476837,309441.0,7726,kind,AF,C,308040,308040,306492,307306,306492,308505,307826,307826,308505,54
49,test,1,con,1,m,Mon Jan 12 2026 11:50:37 GMT-0600 (Central Standard Time),313654.40000009537,step,1000,O,m,m,None,656,440.0,216.0,67,1,2196.7000000476837,311457.7000000477,7726,step,AF,C,310255,310256,308509,309523,308509,310706,310039,310039,310705,55
50,test,1,inc,1,z,Mon Jan 12 2026 11:50:37 GMT-0600 (Central Standard Time),315886.40000009537,window,1100,O,z,z,None,584,384.0,200.0,64,1,2228.4000000953674,313658.0,7726,temper,AF,C,312538,312538,310709,311822,310709,312938,312338,312338,312937,56
51,test,1,con,1,z,Mon Jan 12 2026 11:50:37 GMT-0600 (Central Standard Time),317935.90000009537,brutal,1100,O,z,z,None,410,211.0,199.0,36,1,2044.4000000953674,315891.5,7726,brutal,AF,C,314771,314771,312943,314056,312943,314987,314571,314571,314987,57
52,test,1,inc,1,m,Mon Jan 12 2026 11:50:37 GMT-0600 (Central Standard Time),320069.2999999523,love,1000,O,m,m,None,583,383.0,200.0,79,1,2129.5999999046326,317939.7000000477,7726,rock,AF,C,316721,316721,314991,316004,314991,317120,316520,316520,317120,58
53,test,1,con,1,m,Mon Jan 12 2026 11:50:37 GMT-0600 (Central Standard Time),322085.2999999523,window,1000,O,m,m,None,473,274.0,199.0,123,1,2013.2999999523163,320072.0,7726,window,AF,C,318854,318854,317123,318136,317123,319136,318654,318654,319136,59
54,test,1,con,1,z,Mon Jan 12 2026 11:50:37 GMT-0600 (Central Standard Time),323933.2999999523,love,900,O,z,z,None,413,199.0,214.0,18,1,1844.5,322088.7999999523,7726,love,AF,C,320785,320785,319140,320052,319140,320984,320570,320570,320984,60
55,test,1,inc,1,m,Mon Jan 12 2026 11:50:37 GMT-0600 (Central Standard Time),326068.40000009537,love,1000,O,m,m,None,593,393.0,200.0,95,1,2129.100000143051,323939.2999999523,7726,film,AF,C,322718,322718,320990,322003,320991,323119,322518,322518,323119,61
56,test,1,con,1,z,Mon Jan 12 2026 11:50:37 GMT-0600 (Central Standard Time),328216.40000009537,love,1000,O,z,z,None,603,402.0,201.0,19,1,2142.300000190735,326074.09999990463,7726,love,AF,C,324852,324852,323125,324135,323125,325267,324651,324651,325267,62
57,test,1,inc,1,m,Mon Jan 12 2026 11:50:37 GMT-0600 (Central Standard Time),330348.7000000477,love,1000,O,m,m,None,606,407.0,199.0,87,1,2128.0,328220.7000000477,7726,bell,AF,C,326985,326985,325272,326283,325272,327400,326785,326785,327400,63
58,test,1,inc,1,m,Mon Jan 12 2026 11:50:37 GMT-0600 (Central Standard Time),332530.09999990463,hate,1100,O,m,m,None,534,334.0,200.0,88,1,2176.199999809265,330353.90000009537,7726,bell,AF,C,329232,329232,327405,328515,327405,329581,329032,329032,329581,64
59,test,1,inc,1,z,Mon Jan 12 2026 11:50:37 GMT-0600 (Central Standard Time),334629.90000009537,film,1100,O,z,z,None,454,239.0,215.0,16,1,2096.300000190735,332533.59999990463,7726,kind,AF,C,331432,331432,329585,330700,329585,331681,331216,331216,331681,65
60,test,1,con,1,m,Mon Jan 12 2026 11:50:37 GMT-0600 (Central Standard Time),336698.90000009537,jacket,1100,O,m,m,None,429,229.0,200.0,100,1,2064.2000000476837,334634.7000000477,7726,jacket,AF,C,333514,333514,331686,332800,331686,333750,333314,333314,333750,66
61,test,1,con,1,m,Mon Jan 12 2026 11:50:37 GMT-0600 (Central Standard Time),338595.40000009537,jacket,900,O,m,m,None,457,258.0,199.0,98,1,1890.8000001907349,336704.59999990463,7726,jacket,AF,C,335381,335381,333756,334666,333756,335646,335181,335181,335646,67
62,test,1,con,1,z,Mon Jan 12 2026 11:50:37 GMT-0600 (Central Standard Time),340362.2999999523,hate,800,O,z,z,None,426,223.0,203.0,41,1,1761.0,338601.2999999523,7726,hate,AF,C,337183,337183,335652,336463,335653,337413,336979,336979,337413,68
63,test,1,con,1,z,Mon Jan 12 2026 11:50:37 GMT-0600 (Central Standard Time),342110.09999990463,love,800,O,z,z,None,419,205.0,214.0,17,1,1743.6999998092651,340366.40000009537,7726,love,AF,C,338945,338945,337417,338229,337418,339161,338731,338731,339161,69
64,test,1,con,1,z,Mon Jan 12 2026 11:50:37 GMT-0600 (Central Standard Time),344277.5,temper,1000,O,z,z,None,623,420.0,203.0,59,1,2163.2999999523163,342114.2000000477,7726,temper,AF,C,340898,340898,339165,340179,339165,341329,340695,340695,341329,70
65,test,1,inc,1,z,Mon Jan 12 2026 11:50:37 GMT-0600 (Central Standard Time),346443.0,window,1100,O,z,z,None,540,341.0,199.0,32,1,2161.0999999046326,344281.90000009537,7726,friend,AF,C,343146,343146,341333,342445,341333,343494,342946,342946,343494,71
66,test,1,con,1,m,Mon Jan 12 2026 11:50:37 GMT-0600 (Central Standard Time),348429.0,rock,1100,O,m,m,None,335,135.0,200.0,76,1,1980.5,346448.5,7726,rock,AF,C,345328,345328,343500,344612,343500,345480,345127,345127,345480,72
67,test,1,con,1,z,Mon Jan 12 2026 11:50:37 GMT-0600 (Central Standard Time),350141.90000009537,kind,800,O,z,z,None,386,173.0,213.0,9,1,1709.1000001430511,348432.7999999523,7726,kind,AF,C,347009,347009,345484,346294,345484,347193,346796,346796,347193,73
67,test,1,inc,0,m,Mon Jan 12 2026 11:50:37 GMT-0600 (Central Standard Time),352424.7999999523,elated,800,O,z,z,None,944,743.0,201.0,117,1,2278.0999999046326,350146.7000000477,7726,remote,AF,C,348728,348728,347198,348010,347198,349476,348527,348527,349476,74
68,test,1,con,1,z,Mon Jan 12 2026 11:50:37 GMT-0600 (Central Standard Time),354656.90000009537,rage,1000,O,z,z,None,684,484.0,200.0,51,1,2227.7000000476837,352429.2000000477,7726,rage,AF,C,351210,351210,349480,350493,349480,351708,351009,351009,351708,75
69,test,1,con,1,m,Mon Jan 12 2026 11:50:37 GMT-0600 (Central Standard Time),356590.59999990463,napkin,1000,O,m,m,None,397,197.0,200.0,107,1,1929.6999998092651,354660.90000009537,7726,napkin,AF,C,353442,353442,351712,352725,351712,353642,353241,353241,353642,76
70,test,1,con,1,m,Mon Jan 12 2026 11:50:37 GMT-0600 (Central Standard Time),358555.5,bell,1000,O,m,m,None,425,225.0,200.0,83,1,1961.0,356594.5,7726,bell,AF,C,355374,355374,353646,354658,353646,355607,355174,355174,355607,77
71,test,1,con,1,z,Mon Jan 12 2026 11:50:37 GMT-0600 (Central Standard Time),360254.7999999523,rage,800,O,z,z,None,362,163.0,199.0,49,1,1696.0999999046326,358558.7000000477,7726,rage,AF,C,357140,357140,355610,356424,355610,357306,356941,356941,357306,78
72,test,1,con,1,m,Mon Jan 12 2026 11:50:37 GMT-0600 (Central Standard Time),362286.7000000477,rock,1000,O,m,m,None,503,304.0,199.0,75,1,2027.4000000953674,360259.2999999523,7726,rock,AF,C,359022,359022,357310,358322,357311,359338,358823,358823,359338,79
73,test,1,inc,1,m,Mon Jan 12 2026 11:50:37 GMT-0600 (Central Standard Time),364504.2000000477,hate,1100,O,m,m,None,585,369.0,216.0,80,1,2214.600000143051,362289.59999990463,7726,rock,AF,C,361173,361173,359341,360456,359341,361555,360957,360957,361555,80
74,test,1,con,1,m,Mon Jan 12 2026 11:50:37 GMT-0600 (Central Standard Time),366337.7999999523,window,900,O,m,m,None,384,185.0,199.0,122,1,1829.7000000476837,364508.09999990463,7726,window,AF,C,363189,363189,361559,362474,361559,363389,362989,362989,363389,81
75,test,1,inc,1,z,Mon Jan 12 2026 11:50:37 GMT-0600 (Central Standard Time),368537.09999990463,bell,1000,O,z,z,None,661,462.0,199.0,55,1,2194.2999999523163,366342.7999999523,7726,rage,AF,C,365121,365121,363394,364404,363394,365588,364921,364921,365588,82
76,test,1,con,1,z,Mon Jan 12 2026 11:50:37 GMT-0600 (Central Standard Time),370402.0,temper,900,O,z,z,None,425,226.0,199.0,58,1,1862.0999999046326,368539.90000009537,7726,temper,AF,C,367220,367220,365591,366504,365591,367453,367020,367020,367453,83
77,test,1,inc,1,m,Mon Jan 12 2026 11:50:37 GMT-0600 (Central Standard Time),372235.5,elated,800,O,m,m,None,490,275.0,215.0,125,1,1829.2999999523163,370406.2000000477,7726,window,AF,C,369004,369004,367457,368271,367457,369287,368788,368788,369286,84
78,test,1,con,1,z,Mon Jan 12 2026 11:50:37 GMT-0600 (Central Standard Time),374100.0,elated,900,O,z,z,None,445,231.0,214.0,2,1,1859.7000000476837,372240.2999999523,7726,elated,AF,C,370919,370919,369291,370204,369292,371151,370705,370705,371151,85
79,test,1,con,1,z,Mon Jan 12 2026 11:50:37 GMT-0600 (Central Standard Time),376233.2999999523,hate,1000,O,z,z,None,594,394.0,200.0,43,1,2130.7000000476837,374102.59999990463,7726,hate,AF,C,372885,372885,371154,372169,371154,373284,372685,372685,373284,86
80,test,1,inc,1,z,Mon Jan 12 2026 11:50:37 GMT-0600 (Central Standard Time),378366.90000009537,bell,1000,O,z,z,None,595,395.0,200.0,15,1,2130.300000190735,376236.59999990463,7726,kind,AF,C,375019,375019,373288,374302,373288,375418,374818,374818,375418,87
81,test,1,con,1,z,Mon Jan 12 2026 11:50:37 GMT-0600 (Central Standard Time),380349.5,friend,900,O,z,z,None,537,325.0,212.0,26,1,1978.5999999046326,378370.90000009537,7726,friend,AF,C,377066,377066,375422,376333,375422,377401,376854,376854,377400,88
82,test,1,con,1,z,Mon Jan 12 2026 11:50:37 GMT-0600 (Central Standard Time),382498.0,friend,800,O,z,z,None,807,608.0,199.0,25,1,2145.0,380353.0,7726,friend,AF,C,378934,378934,377404,378218,377404,379549,378734,378734,379549,89
83,test,1,inc,1,z,Mon Jan 12 2026 11:50:37 GMT-0600 (Central Standard Time),384714.2000000477,bell,1000,O,z,z,None,666,467.0,199.0,23,1,2213.100000143051,382501.09999990463,7726,love,AF,C,381283,381283,379552,380566,379552,381765,381083,381083,381765,90
84,test,1,inc,1,z,Mon Jan 12 2026 11:50:37 GMT-0600 (Central Standard Time),386762.7999999523,napkin,900,O,z,z,None,606,403.0,203.0,6,1,2043.8999998569489,384718.90000009537,7726,elated,AF,C,383403,383403,381770,382682,381770,383814,383199,383199,383814,91
85,test,1,inc,1,z,Mon Jan 12 2026 11:50:37 GMT-0600 (Central Standard Time),388629.0,step,800,O,z,z,None,545,346.0,199.0,45,1,1862.0999999046326,386766.90000009537,7726,hate,AF,C,385332,385332,383818,384631,383818,385680,385133,385133,385680,92
86,test,1,inc,1,m,Mon Jan 12 2026 11:50:37 GMT-0600 (Central Standard Time),390531.09999990463,rage,800,O,m,m,None,569,366.0,203.0,77,1,1899.1999998092651,388631.90000009537,7726,rock,AF,C,387216,387216,385683,386497,385683,387582,387013,387013,387582,93
86,test,1,con,0,z,Mon Jan 12 2026 11:50:37 GMT-0600 (Central Standard Time),392661.2999999523,rage,1100,O,m,m,None,498,299.0,199.0,52,1,2126.7999999523163,390534.5,7726,rage,AF,C,389412,389412,387586,388697,387586,389712,389213,389213,389712,94
87,test,1,inc,1,z,Mon Jan 12 2026 11:50:37 GMT-0600 (Central Standard Time),394710.7000000477,jacket,800,O,z,z,None,713,510.0,203.0,61,1,2046.1000001430511,392664.59999990463,7726,temper,AF,C,391249,391249,389716,390530,389716,391762,391046,391046,391762,95
88,test,1,con,1,m,Mon Jan 12 2026 11:50:37 GMT-0600 (Central Standard Time),396827.90000009537,step,1100,O,m,m,None,469,266.0,203.0,68,1,2113.2000000476837,394714.7000000477,7726,step,AF,C,393597,393597,391766,392881,391766,393879,393394,393394,393879,96
89,test,1,con,1,z,Mon Jan 12 2026 11:50:37 GMT-0600 (Central Standard Time),398860.0,hate,1100,O,z,z,None,407,207.0,200.0,44,1,2027.9000000953674,396832.09999990463,7726,hate,AF,C,395695,395695,393883,394994,393883,395911,395495,395495,395911,97
90,test,1,inc,1,m,Mon Jan 12 2026 11:50:37 GMT-0600 (Central Standard Time),400908.7000000477,love,1000,O,m,m,None,531,332.0,199.0,71,1,2045.4000000953674,398863.2999999523,7726,step,AF,C,397627,397627,395914,396927,395915,397960,397428,397428,397960,98
91,test,1,con,1,m,Mon Jan 12 2026 11:50:37 GMT-0600 (Central Standard Time),402875.0,bell,900,O,m,m,None,541,341.0,200.0,82,1,1963.7000000476837,400911.2999999523,7726,bell,AF,C,399577,399577,397962,398876,397963,399926,399377,399377,399926,99
92,test,1,con,1,m,Mon Jan 12 2026 11:50:37 GMT-0600 (Central Standard Time),404925.2999999523,bell,1100,O,m,m,None,431,232.0,199.0,84,1,2046.3999998569489,402878.90000009537,7726,bell,AF,C,401743,401743,399930,401041,399930,401976,401543,401543,401976,100
93,test,1,inc,1,z,Mon Jan 12 2026 11:50:37 GMT-0600 (Central Standard Time),406860.09999990463,jacket,800,O,z,z,None,584,385.0,199.0,37,1,1930.1999998092651,404929.90000009537,7726,brutal,AF,C,403509,403509,401981,402794,401981,403911,403309,403309,403911,101
94,test,1,inc,1,m,Mon Jan 12 2026 11:50:37 GMT-0600 (Central Standard Time),409107.7999999523,friend,1100,O,m,m,None,609,410.0,199.0,112,1,2244.0999999046326,406863.7000000477,7726,napkin,AF,C,405741,405741,403915,405025,403915,406159,405542,405542,406159,102
95,test,1,con,1,z,Mon Jan 12 2026 11:50:37 GMT-0600 (Central Standard Time),411089.09999990463,friend,1000,O,z,z,None,443,244.0,199.0,27,1,1977.6999998092651,409111.40000009537,7726,friend,AF,C,407890,407890,406162,407174,406163,408140,407691,407691,408140,103
96,test,1,con,1,m,Mon Jan 12 2026 11:50:37 GMT-0600 (Central Standard Time),413755.0,remote,1100,O,m,m,None,1025,825.0,200.0,116,1,2662.5999999046326,411092.40000009537,7726,remote,AF,C,409974,409974,408143,409257,408144,410806,409774,409774,410806,104
97,test,1,con,1,z,Mon Jan 12 2026 11:50:37 GMT-0600 (Central Standard Time),415588.2000000477,brutal,800,O,z,z,None,499,300.0,199.0,33,1,1829.0,413759.2000000477,7726,brutal,AF,C,412339,412339,410810,411627,410811,412639,412140,412140,412639,105
98,test,1,inc,1,m,Mon Jan 12 2026 11:50:37 GMT-0600 (Central Standard Time),417520.7999999523,rage,800,O,m,m,None,586,385.0,201.0,85,1,1928.5,415592.2999999523,7726,bell,AF,C,414173,414173,412643,413457,412644,414572,413972,413972,414572,106
99,test,1,con,1,m,Mon Jan 12 2026 11:50:37 GMT-0600 (Central Standard Time),419620.09999990463,napkin,1100,O,m,m,None,461,256.0,205.0,108,1,2095.2999999523163,417524.7999999523,7726,napkin,AF,C,416408,416408,414576,415689,414576,416671,416203,416203,416671,107
100,test,1,inc,1,z,Mon Jan 12 2026 11:50:37 GMT-0600 (Central Standard Time),421485.5,jacket,800,O,z,z,None,531,332.0,199.0,5,1,1861.0,419624.5,7726,elated,AF,C,418204,418204,416676,417489,416676,418537,418004,418004,418537,108
100,test,1,con,0,m,Mon Jan 12 2026 11:50:37 GMT-0600 (Central Standard Time),423717.59999990463,remote,800,O,z,z,None,898,699.0,199.0,113,1,2229.0,421488.59999990463,7726,remote,AF,C,420068,420068,418540,419354,418540,420769,419869,419869,420769,109
101,test,1,inc,1,m,Mon Jan 12 2026 11:50:37 GMT-0600 (Central Standard Time),425933.90000009537,hate,1100,O,m,m,None,581,380.0,201.0,72,1,2213.7000000476837,423720.2000000477,7726,step,AF,C,422603,422603,420771,421886,420772,422985,422402,422402,422985,110
102,test,1,inc,1,z,Mon Jan 12 2026 11:50:37 GMT-0600 (Central Standard Time),427750.5,step,800,O,z,z,None,486,272.0,214.0,21,1,1810.9000000953674,425939.59999990463,7726,love,AF,C,424518,424518,422991,423801,422991,424802,424304,424304,424802,111
103,test,1,inc,1,z,Mon Jan 12 2026 11:50:37 GMT-0600 (Central Standard Time),429949.59999990463,film,1100,O,z,z,None,572,372.0,200.0,24,1,2195.0,427754.59999990463,7726,love,AF,C,426618,426618,424806,425917,424806,427001,426418,426418,427001,112
104,test,1,inc,1,m,Mon Jan 12 2026 11:50:37 GMT-0600 (Central Standard Time),432085.2000000477,kind,900,O,m,m,None,686,486.0,200.0,70,1,2132.2999999523163,429952.90000009537,7726,step,AF,C,428634,428634,427004,427917,427004,429136,428434,428434,429136,113
105,test,1,inc,1,z,Mon Jan 12 2026 11:50:37 GMT-0600 (Central Standard Time),434349.0,film,1100,O,z,z,None,645,431.0,214.0,56,1,2261.0999999046326,432087.90000009537,7726,rage,AF,C,430967,430967,429139,430249,429139,431400,430752,430752,431400,114
106,test,1,inc,1,z,Mon Jan 12 2026 11:50:37 GMT-0600 (Central Standard Time),436265.2999999523,rock,900,O,z,z,None,470,269.0,201.0,54,1,1911.5999999046326,434353.7000000477,7726,rage,AF,C,433033,433033,431405,432316,431405,433316,432832,432832,433316,115
107,test,1,con,1,z,Mon Jan 12 2026 11:50:37 GMT-0600 (Central Standard Time),438221.7999999523,elated,1000,O,z,z,None,422,220.0,202.0,3,1,1951.0999999046326,436270.7000000477,7726,elated,AF,C,435035,435035,433322,434331,433322,435273,434833,434833,435273,116
107,test,1,inc,0,m,Mon Jan 12 2026 11:50:37 GMT-0600 (Central Standard Time),440296.7999999523,brutal,900,O,z,z,None,661,461.0,200.0,118,1,2069.7000000476837,438227.09999990463,7726,remote,AF,C,436882,436882,435278,436180,435278,437348,436681,436681,437348,117
108,test,1,inc,1,m,Mon Jan 12 2026 11:50:37 GMT-0600 (Central Standard Time),442513.0,friend,1100,O,m,m,None,578,379.0,199.0,128,1,2211.0999999046326,440301.90000009537,7726,window,AF,C,439180,439180,437353,438464,437353,439564,438981,438981,439564,118
109,test,1,inc,1,m,Mon Jan 12 2026 11:50:37 GMT-0600 (Central Standard Time),444361.2999999523,elated,800,O,m,m,None,509,310.0,199.0,109,1,1842.5,442518.7999999523,7726,napkin,AF,C,441097,441097,439570,440380,439570,441412,440897,440897,441412,119
110,test,1,con,1,m,Mon Jan 12 2026 11:50:37 GMT-0600 (Central Standard Time),446095.2000000477,napkin,800,O,m,m,None,402,188.0,214.0,105,1,1729.5,444365.7000000477,7726,napkin,AF,C,442946,442946,441417,442229,441417,443146,442731,442731,443146,120
111,test,1,con,1,z,Mon Jan 12 2026 11:50:37 GMT-0600 (Central Standard Time),447894.5,temper,800,O,z,z,None,454,255.0,199.0,57,1,1794.7000000476837,446099.7999999523,7726,temper,AF,C,444680,444680,443151,443965,443151,444946,444480,444480,444946,121
112,test,1,con,1,m,Mon Jan 12 2026 11:50:37 GMT-0600 (Central Standard Time),449994.09999990463,window,1100,O,m,m,None,460,261.0,199.0,124,1,2096.5999999046326,447897.5,7726,window,AF,C,446778,446778,444949,446064,444949,447045,446579,446579,447045,122
113,test,1,con,1,z,Mon Jan 12 2026 11:50:37 GMT-0600 (Central Standard Time),452077.09999990463,friend,1100,O,z,z,None,439,240.0,199.0,28,1,2076.5999999046326,450000.5,7726,friend,AF,C,448878,448878,447052,448163,447052,449128,448678,448678,449128,123
113,test,1,con,0,m,Mon Jan 12 2026 11:50:37 GMT-0600 (Central Standard Time),454425.7000000477,remote,1000,O,z,z,None,825,611.0,214.0,115,1,2342.4000000953674,452083.2999999523,7726,remote,AF,C,450860,450860,449134,450143,449135,451477,450646,450646,451477,124
113,test,1,inc,0,z,Mon Jan 12 2026 11:50:37 GMT-0600 (Central Standard Time),456825.2000000477,window,1100,O,m,m,None,760,559.0,201.0,40,1,2394.100000143051,454431.09999990463,7726,brutal,AF,C,453312,453312,451482,452593,451482,453876,453110,453110,453876,125
114,test,1,inc,1,m,Mon Jan 12 2026 11:50:37 GMT-0600 (Central Standard Time),458923.7000000477,kind,900,O,m,m,None,647,433.0,214.0,78,1,2093.9000000953674,456829.7999999523,7726,rock,AF,C,455526,455526,453881,454794,453881,455975,455311,455311,455975,126
115,test,1,con,1,m,Mon Jan 12 2026 11:50:37 GMT-0600 (Central Standard Time),460873.0,napkin,900,O,m,m,None,502,302.0,200.0,106,1,1944.5999999046326,458928.40000009537,7726,napkin,AF,C,457608,457609,455979,456892,455980,457924,457408,457408,457924,127
116,test,1,inc,1,z,Mon Jan 12 2026 11:50:37 GMT-0600 (Central Standard Time),462939.59999990463,napkin,900,O,z,z,None,633,434.0,199.0,38,1,2059.5,460880.09999990463,7726,brutal,AF,C,459541,459541,457931,458835,457931,459991,459341,459341,459991,128
