acc_sum,block,block_c,change,condition,correct,correct_response,datetime,endtime,face,project,response,response_time,row_sel,session_number,start_end,starttime,subject_id,task,task_vers,trial
0,prac,1,,1-Back,,,Tue May 12 2026 13:53:54 GMT-0500 (Central Daylight Time),,097_m_f_n_a.png,I,space,2800,1,2,,,8098,NNB,B,0
1,prac,1,0.0,1-Back,1.0,m,Tue May 12 2026 13:53:54 GMT-0500 (Central Daylight Time),97951.90000009537,152_y_f_n_a.png,I,m,1219,2,2,1987.0,95964.90000009537,8098,NNB,B,1
2,prac,1,1.0,1-Back,1.0,z,Tue May 12 2026 13:53:54 GMT-0500 (Central Daylight Time),100717.70000004768,152_y_f_n_a.png,I,z,1985,3,2,2757.899999976158,97959.80000007153,8098,NNB,B,2
3,prac,1,0.0,1-Back,1.0,m,Tue May 12 2026 13:53:54 GMT-0500 (Central Daylight Time),103083.40000009537,176_o_m_n_a.png,I,m,1488,4,2,2356.0,100727.40000009537,8098,NNB,B,3
4,prac,1,0.0,1-Back,1.0,m,Tue May 12 2026 13:53:54 GMT-0500 (Central Daylight Time),105482.70000004768,126_m_m_n_a.png,I,m,1543,5,2,2391.899999976158,103090.80000007153,8098,NNB,B,4
5,prac,1,1.0,1-Back,1.0,z,Tue May 12 2026 13:53:54 GMT-0500 (Central Daylight Time),107932.30000007153,126_m_m_n_a.png,I,z,1662,6,2,2443.3000000715256,105489.0,8098,NNB,B,5
6,prac,1,0.0,1-Back,1.0,m,Tue May 12 2026 13:53:54 GMT-0500 (Central Daylight Time),109898.20000004768,086_o_f_n_a.png,I,m,1087,7,2,1957.8999999761581,107940.30000007153,8098,NNB,B,6
7,prac,1,0.0,1-Back,1.0,m,Tue May 12 2026 13:53:54 GMT-0500 (Central Daylight Time),111897.60000002384,178_m_m_n_a.png,I,m,1136,8,2,1991.7999999523163,109905.80000007153,8098,NNB,B,7
8,prac,1,0.0,1-Back,1.0,m,Tue May 12 2026 13:53:54 GMT-0500 (Central Daylight Time),113680.20000004768,097_m_f_n_a.png,I,m,998,9,2,1774.1000000238419,111906.10000002384,8098,NNB,B,8
9,prac,1,1.0,1-Back,1.0,z,Tue May 12 2026 13:53:54 GMT-0500 (Central Daylight Time),115513.10000002384,097_m_f_n_a.png,I,z,1058,10,2,1826.6000000238419,113686.5,8098,NNB,B,9
10,prac,1,0.0,1-Back,1.0,m,Tue May 12 2026 13:53:54 GMT-0500 (Central Daylight Time),117379.10000002384,176_o_m_n_a.png,I,m,1080,11,2,1859.2999999523163,115519.80000007153,8098,NNB,B,10
11,prac,1,0.0,1-Back,1.0,m,Tue May 12 2026 13:53:54 GMT-0500 (Central Daylight Time),119278.60000002384,173_y_f_n_a.png,I,m,1043,12,2,1892.1000000238419,117386.5,8098,NNB,B,11
0,test,1,0.0,1-Back,,,Tue May 12 2026 13:53:54 GMT-0500 (Central Daylight Time),119278.60000002384,152_y_f_n_a.png,I,space,2523,1,2,1892.1000000238419,117386.5,8098,NNB,B,0
1,test,1,0.0,1-Back,1.0,m,Tue May 12 2026 13:53:54 GMT-0500 (Central Daylight Time),131724.70000004768,029_m_f_n_a.png,I,m,971,2,2,1995.2999999523163,129729.40000009537,8098,NNB,B,1
2,test,1,0.0,1-Back,1.0,m,Tue May 12 2026 13:53:54 GMT-0500 (Central Daylight Time),133607.40000009537,173_y_f_n_a.png,I,m,851,3,2,1880.0,131727.40000009537,8098,NNB,B,2
3,test,1,1.0,1-Back,1.0,z,Tue May 12 2026 13:53:54 GMT-0500 (Central Daylight Time),135673.20000004768,173_y_f_n_a.png,I,z,1033,4,2,2063.0,133610.20000004768,8098,NNB,B,3
4,test,1,0.0,1-Back,1.0,m,Tue May 12 2026 13:53:54 GMT-0500 (Central Daylight Time),137806.0,029_m_f_n_a.png,I,m,1103,5,2,2130.0999999046326,135675.90000009537,8098,NNB,B,4
5,test,1,0.0,1-Back,1.0,m,Tue May 12 2026 13:53:54 GMT-0500 (Central Daylight Time),139732.30000007153,176_o_m_n_a.png,I,m,794,6,2,1923.6000000238419,137808.70000004768,8098,NNB,B,5
6,test,1,1.0,1-Back,1.0,z,Tue May 12 2026 13:53:54 GMT-0500 (Central Daylight Time),141554.90000009537,176_o_m_n_a.png,I,z,814,7,2,1819.6000000238419,139735.30000007153,8098,NNB,B,6
7,test,1,0.0,1-Back,1.0,m,Tue May 12 2026 13:53:54 GMT-0500 (Central Daylight Time),143504.10000002384,126_m_m_n_a.png,I,m,918,8,2,1946.6999999284744,141557.40000009537,8098,NNB,B,7
8,test,1,0.0,1-Back,1.0,m,Tue May 12 2026 13:53:54 GMT-0500 (Central Daylight Time),146120.20000004768,086_o_f_n_a.png,I,m,1583,9,2,2613.600000023842,143506.60000002384,8098,NNB,B,8
9,test,1,0.0,1-Back,1.0,m,Tue May 12 2026 13:53:54 GMT-0500 (Central Daylight Time),147986.20000004768,126_m_m_n_a.png,I,m,838,10,2,1863.1000000238419,146123.10000002384,8098,NNB,B,9
10,test,1,0.0,1-Back,1.0,m,Tue May 12 2026 13:53:54 GMT-0500 (Central Daylight Time),149902.10000002384,153_y_m_n_a.png,I,m,886,11,2,1913.2999999523163,147988.80000007153,8098,NNB,B,10
11,test,1,1.0,1-Back,1.0,z,Tue May 12 2026 13:53:54 GMT-0500 (Central Daylight Time),151801.70000004768,153_y_m_n_a.png,I,z,873,12,2,1896.7000000476837,149905.0,8098,NNB,B,11
12,test,1,0.0,1-Back,1.0,m,Tue May 12 2026 13:53:54 GMT-0500 (Central Daylight Time),153684.20000004768,110_o_f_n_a.png,I,m,862,13,2,1879.8999999761581,151804.30000007153,8098,NNB,B,12
12,test,1,1.0,1-Back,0.0,z,Tue May 12 2026 13:53:54 GMT-0500 (Central Daylight Time),155383.80000007153,110_o_f_n_a.png,I,m,676,14,2,1697.1000000238419,153686.70000004768,8098,NNB,B,13
13,test,1,0.0,1-Back,1.0,m,Tue May 12 2026 13:53:54 GMT-0500 (Central Daylight Time),157816.30000007153,013_y_m_n_a.png,I,m,1399,15,2,2430.100000023842,155386.20000004768,8098,NNB,B,14
14,test,1,0.0,1-Back,1.0,m,Tue May 12 2026 13:53:54 GMT-0500 (Central Daylight Time),159832.5,097_m_f_n_a.png,I,m,983,16,2,2013.5,157819.0,8098,NNB,B,15
15,test,1,0.0,1-Back,1.0,m,Tue May 12 2026 13:53:54 GMT-0500 (Central Daylight Time),161682.80000007153,065_o_m_n_a.png,I,m,832,17,2,1847.6000000238419,159835.20000004768,8098,NNB,B,16
16,test,1,0.0,1-Back,1.0,m,Tue May 12 2026 13:53:54 GMT-0500 (Central Daylight Time),163748.10000002384,097_m_f_n_a.png,I,m,1047,18,2,2062.2999999523163,161685.80000007153,8098,NNB,B,17
0,test,2,0.0,1-Back,,,Tue May 12 2026 13:53:54 GMT-0500 (Central Daylight Time),163748.10000002384,126_m_m_n_a.png,I,space,2853,1,2,2062.2999999523163,161685.80000007153,8098,NNB,B,0
1,test,2,0.0,1-Back,1.0,m,Tue May 12 2026 13:53:54 GMT-0500 (Central Daylight Time),170678.90000009537,029_m_f_n_a.png,I,m,1018,2,2,2044.8000000715256,168634.10000002384,8098,NNB,B,1
2,test,2,1.0,1-Back,1.0,z,Tue May 12 2026 13:53:54 GMT-0500 (Central Daylight Time),172461.80000007153,029_m_f_n_a.png,I,z,760,3,2,1780.3999999761581,170681.40000009537,8098,NNB,B,2
3,test,2,0.0,1-Back,1.0,m,Tue May 12 2026 13:53:54 GMT-0500 (Central Daylight Time),174461.30000007153,126_m_m_n_a.png,I,m,979,4,2,1996.5,172464.80000007153,8098,NNB,B,3
4,test,2,0.0,1-Back,1.0,m,Tue May 12 2026 13:53:54 GMT-0500 (Central Daylight Time),176510.80000007153,153_y_m_n_a.png,I,m,1018,5,2,2046.5,174464.30000007153,8098,NNB,B,4
5,test,2,0.0,1-Back,1.0,m,Tue May 12 2026 13:53:54 GMT-0500 (Central Daylight Time),178376.80000007153,152_y_f_n_a.png,I,m,842,6,2,1863.3999999761581,176513.40000009537,8098,NNB,B,5
6,test,2,1.0,1-Back,1.0,z,Tue May 12 2026 13:53:54 GMT-0500 (Central Daylight Time),180276.0,152_y_f_n_a.png,I,z,880,7,2,1896.6999999284744,178379.30000007153,8098,NNB,B,6
7,test,2,0.0,1-Back,1.0,m,Tue May 12 2026 13:53:54 GMT-0500 (Central Daylight Time),182142.0,153_y_m_n_a.png,I,m,844,8,2,1863.2999999523163,180278.70000004768,8098,NNB,B,7
8,test,2,0.0,1-Back,1.0,m,Tue May 12 2026 13:53:54 GMT-0500 (Central Daylight Time),184024.80000007153,110_o_f_n_a.png,I,m,865,9,2,1880.1000000238419,182144.70000004768,8098,NNB,B,8
9,test,2,0.0,1-Back,1.0,m,Tue May 12 2026 13:53:54 GMT-0500 (Central Daylight Time),185907.40000009537,178_m_m_n_a.png,I,m,862,10,2,1880.1000000238419,184027.30000007153,8098,NNB,B,9
10,test,2,1.0,1-Back,1.0,z,Tue May 12 2026 13:53:54 GMT-0500 (Central Daylight Time),188056.80000007153,178_m_m_n_a.png,I,z,1113,11,2,2146.600000023842,185910.20000004768,8098,NNB,B,10
11,test,2,0.0,1-Back,1.0,m,Tue May 12 2026 13:53:54 GMT-0500 (Central Daylight Time),189889.30000007153,110_o_f_n_a.png,I,m,813,12,2,1830.1000000238419,188059.20000004768,8098,NNB,B,11
12,test,2,0.0,1-Back,1.0,m,Tue May 12 2026 13:53:54 GMT-0500 (Central Daylight Time),191805.90000009537,086_o_f_n_a.png,I,m,887,13,2,1914.2000000476837,189891.70000004768,8098,NNB,B,12
13,test,2,0.0,1-Back,1.0,m,Tue May 12 2026 13:53:54 GMT-0500 (Central Daylight Time),193672.0,176_o_m_n_a.png,I,m,843,14,2,1863.5,191808.5,8098,NNB,B,13
14,test,2,0.0,1-Back,1.0,m,Tue May 12 2026 13:53:54 GMT-0500 (Central Daylight Time),195537.70000004768,065_o_m_n_a.png,I,m,847,15,2,1863.1000000238419,193674.60000002384,8098,NNB,B,14
15,test,2,1.0,1-Back,1.0,z,Tue May 12 2026 13:53:54 GMT-0500 (Central Daylight Time),197354.0,065_o_m_n_a.png,I,z,790,16,2,1813.7999999523163,195540.20000004768,8098,NNB,B,15
16,test,2,0.0,1-Back,1.0,m,Tue May 12 2026 13:53:54 GMT-0500 (Central Daylight Time),199204.60000002384,013_y_m_n_a.png,I,m,829,17,2,1848.0,197356.60000002384,8098,NNB,B,16
17,test,2,1.0,1-Back,1.0,z,Tue May 12 2026 13:53:54 GMT-0500 (Central Daylight Time),201086.20000004768,013_y_m_n_a.png,I,z,860,18,2,1879.0,199207.20000004768,8098,NNB,B,17
0,test,3,1.0,1-Back,,,Tue May 12 2026 13:53:54 GMT-0500 (Central Daylight Time),201086.20000004768,173_y_f_n_a.png,I,space,1361,1,2,1879.0,199207.20000004768,8098,NNB,B,0
1,test,3,0.0,1-Back,1.0,m,Tue May 12 2026 13:53:54 GMT-0500 (Central Daylight Time),206534.5,065_o_m_n_a.png,I,m,978,1,2,1995.8999999761581,204538.60000002384,8098,NNB,B,1
2,test,3,1.0,1-Back,1.0,z,Tue May 12 2026 13:53:54 GMT-0500 (Central Daylight Time),208350.80000007153,065_o_m_n_a.png,I,z,785,1,2,1813.3999999761581,206537.40000009537,8098,NNB,B,2
3,test,3,0.0,1-Back,1.0,m,Tue May 12 2026 13:53:54 GMT-0500 (Central Daylight Time),210116.80000007153,097_m_f_n_a.png,I,m,747,1,2,1763.6000000238419,208353.20000004768,8098,NNB,B,3
4,test,3,1.0,1-Back,1.0,z,Tue May 12 2026 13:53:54 GMT-0500 (Central Daylight Time),211832.70000004768,097_m_f_n_a.png,I,z,699,1,2,1713.0,210119.70000004768,8098,NNB,B,4
5,test,3,0.0,1-Back,1.0,m,Tue May 12 2026 13:53:54 GMT-0500 (Central Daylight Time),213598.80000007153,110_o_f_n_a.png,I,m,744,1,2,1763.8000000715256,211835.0,8098,NNB,B,5
6,test,3,0.0,1-Back,1.0,m,Tue May 12 2026 13:53:54 GMT-0500 (Central Daylight Time),215381.70000004768,153_y_m_n_a.png,I,m,761,1,2,1780.1000000238419,213601.60000002384,8098,NNB,B,6
7,test,3,0.0,1-Back,1.0,m,Tue May 12 2026 13:53:54 GMT-0500 (Central Daylight Time),217414.40000009537,110_o_f_n_a.png,I,m,1003,1,2,2030.2000000476837,215384.20000004768,8098,NNB,B,7
8,test,3,0.0,1-Back,1.0,m,Tue May 12 2026 13:53:54 GMT-0500 (Central Daylight Time),219197.40000009537,013_y_m_n_a.png,I,m,754,1,2,1780.4000000953674,217417.0,8098,NNB,B,8
9,test,3,1.0,1-Back,1.0,z,Tue May 12 2026 13:53:54 GMT-0500 (Central Daylight Time),220963.20000004768,013_y_m_n_a.png,I,z,747,1,2,1763.2000000476837,219200.0,8098,NNB,B,9
10,test,3,0.0,1-Back,1.0,m,Tue May 12 2026 13:53:54 GMT-0500 (Central Daylight Time),222763.80000007153,029_m_f_n_a.png,I,m,780,1,2,1798.0,220965.80000007153,8098,NNB,B,10
11,test,3,0.0,1-Back,1.0,m,Tue May 12 2026 13:53:54 GMT-0500 (Central Daylight Time),224561.90000009537,152_y_f_n_a.png,I,m,781,1,2,1795.1000000238419,222766.80000007153,8098,NNB,B,11
12,test,3,1.0,1-Back,1.0,z,Tue May 12 2026 13:53:54 GMT-0500 (Central Daylight Time),226328.30000007153,152_y_f_n_a.png,I,z,733,1,2,1763.8999999761581,224564.40000009537,8098,NNB,B,12
13,test,3,0.0,1-Back,1.0,m,Tue May 12 2026 13:53:54 GMT-0500 (Central Daylight Time),228311.0,029_m_f_n_a.png,I,m,952,1,2,1980.5,226330.5,8098,NNB,B,13
14,test,3,0.0,1-Back,1.0,m,Tue May 12 2026 13:53:54 GMT-0500 (Central Daylight Time),230143.70000004768,126_m_m_n_a.png,I,m,800,1,2,1829.7000000476837,228314.0,8098,NNB,B,14
15,test,3,1.0,1-Back,1.0,z,Tue May 12 2026 13:53:54 GMT-0500 (Central Daylight Time),232093.30000007153,126_m_m_n_a.png,I,z,920,1,2,1947.1000000238419,230146.20000004768,8098,NNB,B,15
16,test,3,0.0,1-Back,1.0,m,Tue May 12 2026 13:53:54 GMT-0500 (Central Daylight Time),233983.40000009537,086_o_f_n_a.png,I,m,873,1,2,1887.5,232095.90000009537,8098,NNB,B,16
17,test,3,1.0,1-Back,1.0,z,Tue May 12 2026 13:53:54 GMT-0500 (Central Daylight Time),235758.60000002384,086_o_f_n_a.png,I,z,760,1,2,1771.7999999523163,233986.80000007153,8098,NNB,B,17
0,test,4,1.0,1-Back,,,Tue May 12 2026 13:53:54 GMT-0500 (Central Daylight Time),235758.60000002384,097_m_f_n_a.png,I,space,1417,1,2,1771.7999999523163,233986.80000007153,8098,NNB,B,0
1,test,4,0.0,1-Back,1.0,m,Tue May 12 2026 13:53:54 GMT-0500 (Central Daylight Time),240940.30000007153,065_o_m_n_a.png,I,m,638,2,2,1662.1000000238419,239278.20000004768,8098,NNB,B,1
2,test,4,0.0,1-Back,1.0,m,Tue May 12 2026 13:53:54 GMT-0500 (Central Daylight Time),242873.0,097_m_f_n_a.png,I,m,915,3,2,1930.2999999523163,240942.70000004768,8098,NNB,B,2
3,test,4,0.0,1-Back,1.0,m,Tue May 12 2026 13:53:54 GMT-0500 (Central Daylight Time),244639.30000007153,110_o_f_n_a.png,I,m,735,4,2,1764.0,242875.30000007153,8098,NNB,B,3
4,test,4,1.0,1-Back,1.0,z,Tue May 12 2026 13:53:54 GMT-0500 (Central Daylight Time),246605.40000009537,110_o_f_n_a.png,I,z,937,5,2,1963.6000000238419,244641.80000007153,8098,NNB,B,4
5,test,4,0.0,1-Back,1.0,m,Tue May 12 2026 13:53:54 GMT-0500 (Central Daylight Time),248454.80000007153,152_y_f_n_a.png,I,m,827,6,2,1847.0,246607.80000007153,8098,NNB,B,5
6,test,4,0.0,1-Back,1.0,m,Tue May 12 2026 13:53:54 GMT-0500 (Central Daylight Time),250220.90000009537,153_y_m_n_a.png,I,m,746,7,2,1763.7000000476837,248457.20000004768,8098,NNB,B,6
7,test,4,1.0,1-Back,1.0,z,Tue May 12 2026 13:53:54 GMT-0500 (Central Daylight Time),252070.30000007153,153_y_m_n_a.png,I,z,828,8,2,1846.8999999761581,250223.40000009537,8098,NNB,B,7
8,test,4,0.0,1-Back,1.0,m,Tue May 12 2026 13:53:54 GMT-0500 (Central Daylight Time),253953.10000002384,152_y_f_n_a.png,I,m,858,9,2,1880.2999999523163,252072.80000007153,8098,NNB,B,8
9,test,4,0.0,1-Back,1.0,m,Tue May 12 2026 13:53:54 GMT-0500 (Central Daylight Time),255719.10000002384,178_m_m_n_a.png,I,m,743,10,2,1763.6000000238419,253955.5,8098,NNB,B,9
10,test,4,1.0,1-Back,1.0,z,Tue May 12 2026 13:53:54 GMT-0500 (Central Daylight Time),257584.80000007153,178_m_m_n_a.png,I,z,832,11,2,1863.1000000238419,255721.70000004768,8098,NNB,B,10
11,test,4,0.0,1-Back,1.0,m,Tue May 12 2026 13:53:54 GMT-0500 (Central Daylight Time),259368.0,086_o_f_n_a.png,I,m,750,12,2,1780.3999999761581,257587.60000002384,8098,NNB,B,11
12,test,4,0.0,1-Back,1.0,m,Tue May 12 2026 13:53:54 GMT-0500 (Central Daylight Time),261517.20000004768,176_o_m_n_a.png,I,m,1121,13,2,2146.399999976158,259370.80000007153,8098,NNB,B,12
13,test,4,0.0,1-Back,1.0,m,Tue May 12 2026 13:53:54 GMT-0500 (Central Daylight Time),263983.0,086_o_f_n_a.png,I,m,1443,14,2,2462.899999976158,261520.10000002384,8098,NNB,B,13
14,test,4,0.0,1-Back,1.0,m,Tue May 12 2026 13:53:54 GMT-0500 (Central Daylight Time),265815.5,173_y_f_n_a.png,I,m,800,15,2,1830.0999999046326,263985.40000009537,8098,NNB,B,14
15,test,4,1.0,1-Back,1.0,z,Tue May 12 2026 13:53:54 GMT-0500 (Central Daylight Time),267632.2000000477,173_y_f_n_a.png,I,z,792,16,2,1814.0,265818.2000000477,8098,NNB,B,15
16,test,4,0.0,1-Back,1.0,m,Tue May 12 2026 13:53:54 GMT-0500 (Central Daylight Time),269564.7000000477,029_m_f_n_a.png,I,m,912,17,2,1930.0,267634.7000000477,8098,NNB,B,16
17,test,4,1.0,1-Back,1.0,z,Tue May 12 2026 13:53:54 GMT-0500 (Central Daylight Time),271414.3000000715,029_m_f_n_a.png,I,z,820,18,2,1847.1000000238419,269567.2000000477,8098,NNB,B,17
0,test,5,1.0,1-Back,,,Tue May 12 2026 13:53:54 GMT-0500 (Central Daylight Time),271414.3000000715,176_o_m_n_a.png,I,space,1298,1,2,1847.1000000238419,269567.2000000477,8098,NNB,B,0
1,test,5,1.0,1-Back,1.0,z,Tue May 12 2026 13:53:54 GMT-0500 (Central Daylight Time),276779.2000000477,176_o_m_n_a.png,I,z,1030,2,2,2045.2999999523163,274733.90000009537,8098,NNB,B,1
2,test,5,0.0,1-Back,1.0,m,Tue May 12 2026 13:53:54 GMT-0500 (Central Daylight Time),278611.90000009537,152_y_f_n_a.png,I,m,812,3,2,1830.3000000715256,276781.60000002384,8098,NNB,B,2
3,test,5,0.0,1-Back,1.0,m,Tue May 12 2026 13:53:54 GMT-0500 (Central Daylight Time),280611.2000000477,153_y_m_n_a.png,I,m,979,4,2,1996.7999999523163,278614.40000009537,8098,NNB,B,3
4,test,5,0.0,1-Back,1.0,m,Tue May 12 2026 13:53:54 GMT-0500 (Central Daylight Time),282860.8000000715,152_y_f_n_a.png,I,m,1221,5,2,2246.2000000476837,280614.60000002384,8098,NNB,B,4
5,test,5,0.0,1-Back,1.0,m,Tue May 12 2026 13:53:54 GMT-0500 (Central Daylight Time),284643.40000009537,126_m_m_n_a.png,I,m,755,6,2,1780.3000000715256,282863.10000002384,8098,NNB,B,5
6,test,5,1.0,1-Back,1.0,z,Tue May 12 2026 13:53:54 GMT-0500 (Central Daylight Time),286475.90000009537,126_m_m_n_a.png,I,z,813,7,2,1830.2000000476837,284645.7000000477,8098,NNB,B,6
7,test,5,0.0,1-Back,1.0,m,Tue May 12 2026 13:53:54 GMT-0500 (Central Daylight Time),288259.10000002384,173_y_f_n_a.png,I,m,756,8,2,1780.2999999523163,286478.8000000715,8098,NNB,B,7
8,test,5,0.0,1-Back,1.0,m,Tue May 12 2026 13:53:54 GMT-0500 (Central Daylight Time),290424.8000000715,013_y_m_n_a.png,I,m,1150,9,2,2163.3000000715256,288261.5,8098,NNB,B,8
9,test,5,0.0,1-Back,1.0,m,Tue May 12 2026 13:53:54 GMT-0500 (Central Daylight Time),293191.7000000477,173_y_f_n_a.png,I,m,1744,10,2,2764.2000000476837,290427.5,8098,NNB,B,9
10,test,5,0.0,1-Back,1.0,m,Tue May 12 2026 13:53:54 GMT-0500 (Central Daylight Time),294940.2000000477,086_o_f_n_a.png,I,m,722,11,2,1745.6000000238419,293194.60000002384,8098,NNB,B,10
11,test,5,1.0,1-Back,1.0,z,Tue May 12 2026 13:53:54 GMT-0500 (Central Daylight Time),296673.10000002384,086_o_f_n_a.png,I,z,708,12,2,1729.6999999284744,294943.40000009537,8098,NNB,B,11
12,test,5,0.0,1-Back,1.0,m,Tue May 12 2026 13:53:54 GMT-0500 (Central Daylight Time),298605.7000000477,065_o_m_n_a.png,I,m,902,13,2,1929.8999999761581,296675.8000000715,8098,NNB,B,12
13,test,5,0.0,1-Back,1.0,m,Tue May 12 2026 13:53:54 GMT-0500 (Central Daylight Time),300305.2000000477,097_m_f_n_a.png,I,m,675,14,2,1697.1000000238419,298608.10000002384,8098,NNB,B,13
14,test,5,1.0,1-Back,1.0,z,Tue May 12 2026 13:53:54 GMT-0500 (Central Daylight Time),302054.60000002384,097_m_f_n_a.png,I,z,718,15,2,1746.8999999761581,300307.7000000477,8098,NNB,B,14
15,test,5,0.0,1-Back,1.0,m,Tue May 12 2026 13:53:54 GMT-0500 (Central Daylight Time),303937.5,065_o_m_n_a.png,I,m,850,16,2,1880.5999999046326,302056.90000009537,8098,NNB,B,15
16,test,5,0.0,1-Back,1.0,m,Tue May 12 2026 13:53:54 GMT-0500 (Central Daylight Time),305853.5,029_m_f_n_a.png,I,m,895,17,2,1913.5999999046326,303939.90000009537,8098,NNB,B,16
17,test,5,0.0,1-Back,1.0,m,Tue May 12 2026 13:53:54 GMT-0500 (Central Daylight Time),307669.3000000715,178_m_m_n_a.png,I,m,794,18,2,1812.3999999761581,305856.90000009537,8098,NNB,B,17
0,prac,1,0.0,2-Back,,,Tue May 12 2026 13:53:54 GMT-0500 (Central Daylight Time),307669.3000000715,013_y_m_n_a.png,I,space,3401,1,2,1812.3999999761581,305856.90000009537,8098,NNB,B,0
0,prac,1,0.0,2-Back,,,Tue May 12 2026 13:53:54 GMT-0500 (Central Daylight Time),307669.3000000715,029_m_f_n_a.png,I,space,3401,2,2,1812.3999999761581,305856.90000009537,8098,NNB,B,0
0,prac,1,1.0,2-Back,0.0,m,Tue May 12 2026 13:53:54 GMT-0500 (Central Daylight Time),433313.60000002384,065_o_m_n_a.png,I,None,2010,3,2,2857.2999999523163,430456.3000000715,8098,NNB,B,1
1,prac,1,0.0,2-Back,1.0,m,Tue May 12 2026 13:53:54 GMT-0500 (Central Daylight Time),435779.2000000477,086_o_f_n_a.png,I,m,1584,4,2,2458.2000000476837,433321.0,8098,NNB,B,2
2,prac,1,0.0,2-Back,1.0,z,Tue May 12 2026 13:53:54 GMT-0500 (Central Daylight Time),437961.90000009537,065_o_m_n_a.png,I,z,1398,5,2,2175.5,435786.40000009537,8098,NNB,B,3
3,prac,1,1.0,2-Back,1.0,z,Tue May 12 2026 13:53:54 GMT-0500 (Central Daylight Time),440094.90000009537,086_o_f_n_a.png,I,z,1342,6,2,2125.7000000476837,437969.2000000477,8098,NNB,B,4
4,prac,1,0.0,2-Back,1.0,m,Tue May 12 2026 13:53:54 GMT-0500 (Central Daylight Time),442194.0,178_m_m_n_a.png,I,m,1236,7,2,2092.6999999284744,440101.3000000715,8098,NNB,B,5
5,prac,1,0.0,2-Back,1.0,m,Tue May 12 2026 13:53:54 GMT-0500 (Central Daylight Time),444059.90000009537,176_o_m_n_a.png,I,m,1005,8,2,1857.2000000476837,442202.7000000477,8098,NNB,B,6
5,prac,1,0.0,2-Back,0.0,m,Tue May 12 2026 13:53:54 GMT-0500 (Central Daylight Time),446292.5,173_y_f_n_a.png,I,z,1378,9,2,2225.2999999523163,444067.2000000477,8098,NNB,B,7
6,prac,1,1.0,2-Back,1.0,z,Tue May 12 2026 13:53:54 GMT-0500 (Central Daylight Time),448342.10000002384,176_o_m_n_a.png,I,z,1267,10,2,2040.1999999284744,446301.90000009537,8098,NNB,B,8
6,prac,1,0.0,2-Back,0.0,m,Tue May 12 2026 13:53:54 GMT-0500 (Central Daylight Time),450541.5,152_y_f_n_a.png,I,z,1343,11,2,2191.6999999284744,448349.8000000715,8098,NNB,B,9
6,prac,1,0.0,2-Back,0.0,m,Tue May 12 2026 13:53:54 GMT-0500 (Central Daylight Time),452457.5,178_m_m_n_a.png,I,z,1139,12,2,1909.3999999761581,450548.10000002384,8098,NNB,B,10
0,prac,2,0.0,2-Back,,,Tue May 12 2026 13:53:54 GMT-0500 (Central Daylight Time),452457.5,013_y_m_n_a.png,I,a,8628,1,2,1909.3999999761581,450548.10000002384,8098,NNB,B,0
0,prac,2,0.0,2-Back,,,Tue May 12 2026 13:53:54 GMT-0500 (Central Daylight Time),452457.5,029_m_f_n_a.png,I,a,8628,2,2,1909.3999999761581,450548.10000002384,8098,NNB,B,0
1,prac,2,1.0,2-Back,1.0,m,Tue May 12 2026 13:53:54 GMT-0500 (Central Daylight Time),468869.10000002384,065_o_m_n_a.png,I,m,1678,3,2,2540.600000023842,466328.5,8098,NNB,B,1
2,prac,2,0.0,2-Back,1.0,m,Tue May 12 2026 13:53:54 GMT-0500 (Central Daylight Time),471134.8000000715,086_o_f_n_a.png,I,m,1389,4,2,2258.600000023842,468876.2000000477,8098,NNB,B,2
3,prac,2,0.0,2-Back,1.0,z,Tue May 12 2026 13:53:54 GMT-0500 (Central Daylight Time),473517.40000009537,065_o_m_n_a.png,I,z,1595,5,2,2375.7000000476837,471141.7000000477,8098,NNB,B,3
4,prac,2,1.0,2-Back,1.0,z,Tue May 12 2026 13:53:54 GMT-0500 (Central Daylight Time),475533.5,086_o_f_n_a.png,I,z,1236,6,2,2008.6999999284744,473524.8000000715,8098,NNB,B,4
5,prac,2,0.0,2-Back,1.0,m,Tue May 12 2026 13:53:54 GMT-0500 (Central Daylight Time),478032.8000000715,178_m_m_n_a.png,I,m,1715,7,2,2492.100000023842,475540.7000000477,8098,NNB,B,5
6,prac,2,0.0,2-Back,1.0,m,Tue May 12 2026 13:53:54 GMT-0500 (Central Daylight Time),480115.5,176_o_m_n_a.png,I,m,1221,8,2,2075.2999999523163,478040.2000000477,8098,NNB,B,6
7,prac,2,0.0,2-Back,1.0,m,Tue May 12 2026 13:53:54 GMT-0500 (Central Daylight Time),482198.60000002384,173_y_f_n_a.png,I,m,1225,9,2,2075.399999976158,480123.2000000477,8098,NNB,B,7
7,prac,2,1.0,2-Back,0.0,z,Tue May 12 2026 13:53:54 GMT-0500 (Central Daylight Time),484097.5,176_o_m_n_a.png,I,m,1113,10,2,1890.1999999284744,482207.3000000715,8098,NNB,B,8
8,prac,2,0.0,2-Back,1.0,m,Tue May 12 2026 13:53:54 GMT-0500 (Central Daylight Time),486063.60000002384,152_y_f_n_a.png,I,m,1114,11,2,1957.6000000238419,484106.0,8098,NNB,B,9
8,prac,2,0.0,2-Back,0.0,m,Tue May 12 2026 13:53:54 GMT-0500 (Central Daylight Time),488229.5,178_m_m_n_a.png,I,z,1377,12,2,2157.7999999523163,486071.7000000477,8098,NNB,B,10
0,test,1,0.0,2-Back,,,Tue May 12 2026 13:53:54 GMT-0500 (Central Daylight Time),488229.5,153_y_m_n_a.png,I,space,1736,1,2,2157.7999999523163,486071.7000000477,8098,NNB,B,0
0,test,1,0.0,2-Back,,,Tue May 12 2026 13:53:54 GMT-0500 (Central Daylight Time),488229.5,153_y_m_n_a.png,I,space,1736,2,2,2157.7999999523163,486071.7000000477,8098,NNB,B,0
1,test,1,0.0,2-Back,1.0,m,Tue May 12 2026 13:53:54 GMT-0500 (Central Daylight Time),504857.8000000715,086_o_f_n_a.png,I,m,1407,3,2,2428.2000000476837,502429.60000002384,8098,NNB,B,1
2,test,1,0.0,2-Back,1.0,m,Tue May 12 2026 13:53:54 GMT-0500 (Central Daylight Time),506923.7000000477,126_m_m_n_a.png,I,m,1047,4,2,2063.5,504860.2000000477,8098,NNB,B,2
3,test,1,1.0,2-Back,1.0,z,Tue May 12 2026 13:53:54 GMT-0500 (Central Daylight Time),509073.0,086_o_f_n_a.png,I,z,1125,5,2,2146.7999999523163,506926.2000000477,8098,NNB,B,3
4,test,1,0.0,2-Back,1.0,m,Tue May 12 2026 13:53:54 GMT-0500 (Central Daylight Time),511505.60000002384,152_y_f_n_a.png,I,m,1407,6,2,2430.100000023842,509075.5,8098,NNB,B,4
4,test,1,0.0,2-Back,0.0,m,Tue May 12 2026 13:53:54 GMT-0500 (Central Daylight Time),513937.90000009537,126_m_m_n_a.png,I,z,1415,7,2,2429.600000023842,511508.3000000715,8098,NNB,B,5
5,test,1,1.0,2-Back,1.0,z,Tue May 12 2026 13:53:54 GMT-0500 (Central Daylight Time),516899.40000009537,152_y_f_n_a.png,I,z,1797,8,2,2959.100000023842,513940.3000000715,8098,NNB,B,6
6,test,1,0.0,2-Back,1.0,m,Tue May 12 2026 13:53:54 GMT-0500 (Central Daylight Time),519320.0,013_y_m_n_a.png,I,m,1385,9,2,2416.399999976158,516903.60000002384,8098,NNB,B,7
7,test,1,0.0,2-Back,1.0,m,Tue May 12 2026 13:53:54 GMT-0500 (Central Daylight Time),521535.7000000477,110_o_f_n_a.png,I,m,1192,10,2,2213.5,519322.2000000477,8098,NNB,B,8
8,test,1,1.0,2-Back,1.0,z,Tue May 12 2026 13:53:54 GMT-0500 (Central Daylight Time),523819.40000009537,013_y_m_n_a.png,I,z,1264,11,2,2281.3000000715256,521538.10000002384,8098,NNB,B,9
9,test,1,0.0,2-Back,1.0,m,Tue May 12 2026 13:53:54 GMT-0500 (Central Daylight Time),526184.5,029_m_f_n_a.png,I,m,1334,12,2,2362.5,523822.0,8098,NNB,B,10
10,test,1,0.0,2-Back,1.0,m,Tue May 12 2026 13:53:54 GMT-0500 (Central Daylight Time),528433.2000000477,029_m_f_n_a.png,I,m,1232,13,2,2246.100000023842,526187.1000000238,8098,NNB,B,11
10,test,1,0.0,2-Back,0.0,m,Tue May 12 2026 13:53:54 GMT-0500 (Central Daylight Time),531199.5,065_o_m_n_a.png,I,z,1735,14,2,2763.899999976158,528435.6000000238,8098,NNB,B,12
10,test,1,0.0,2-Back,0.0,m,Tue May 12 2026 13:53:54 GMT-0500 (Central Daylight Time),533298.8000000715,110_o_f_n_a.png,I,z,1073,15,2,2096.899999976158,531201.9000000954,8098,NNB,B,13
11,test,1,1.0,2-Back,1.0,z,Tue May 12 2026 13:53:54 GMT-0500 (Central Daylight Time),536114.7000000477,065_o_m_n_a.png,I,z,1789,16,2,2813.2999999523163,533301.4000000954,8098,NNB,B,14
12,test,1,0.0,2-Back,1.0,m,Tue May 12 2026 13:53:54 GMT-0500 (Central Daylight Time),538297.0,097_m_f_n_a.png,I,m,1165,17,2,2179.899999976158,536117.1000000238,8098,NNB,B,15
12,test,1,0.0,2-Back,0.0,m,Tue May 12 2026 13:53:54 GMT-0500 (Central Daylight Time),540696.1000000238,178_m_m_n_a.png,I,z,1366,18,2,2396.6999999284744,538299.4000000954,8098,NNB,B,16
0,test,2,0.0,2-Back,,,Tue May 12 2026 13:53:54 GMT-0500 (Central Daylight Time),540696.1000000238,178_m_m_n_a.png,I,space,1609,1,2,2396.6999999284744,538299.4000000954,8098,NNB,B,0
0,test,2,0.0,2-Back,,,Tue May 12 2026 13:53:54 GMT-0500 (Central Daylight Time),540696.1000000238,173_y_f_n_a.png,I,space,1609,2,2,2396.6999999284744,538299.4000000954,8098,NNB,B,0
1,test,2,1.0,2-Back,1.0,z,Tue May 12 2026 13:53:54 GMT-0500 (Central Daylight Time),549943.2000000477,178_m_m_n_a.png,I,z,1484,3,2,2511.899999976158,547431.3000000715,8098,NNB,B,1
2,test,2,0.0,2-Back,1.0,m,Tue May 12 2026 13:53:54 GMT-0500 (Central Daylight Time),552076.2000000477,097_m_f_n_a.png,I,m,1105,4,2,2130.5,549945.7000000477,8098,NNB,B,2
2,test,2,0.0,2-Back,0.0,m,Tue May 12 2026 13:53:54 GMT-0500 (Central Daylight Time),554341.7000000477,173_y_f_n_a.png,I,z,1243,5,2,2263.0,552078.7000000477,8098,NNB,B,3
2,test,2,0.0,2-Back,0.0,m,Tue May 12 2026 13:53:54 GMT-0500 (Central Daylight Time),557375.8000000715,065_o_m_n_a.png,I,None,2017,6,2,3031.600000023842,554344.2000000477,8098,NNB,B,4
3,test,2,0.0,2-Back,1.0,m,Tue May 12 2026 13:53:54 GMT-0500 (Central Daylight Time),559357.3000000715,152_y_f_n_a.png,I,m,962,7,2,1976.6000000238419,557380.7000000477,8098,NNB,B,5
4,test,2,1.0,2-Back,1.0,z,Tue May 12 2026 13:53:54 GMT-0500 (Central Daylight Time),561456.7000000477,065_o_m_n_a.png,I,z,1082,8,2,2097.0,559359.7000000477,8098,NNB,B,6
4,test,2,0.0,2-Back,0.0,m,Tue May 12 2026 13:53:54 GMT-0500 (Central Daylight Time),563756.0,013_y_m_n_a.png,I,z,1279,9,2,2296.899999976158,561459.1000000238,8098,NNB,B,7
4,test,2,0.0,2-Back,0.0,m,Tue May 12 2026 13:53:54 GMT-0500 (Central Daylight Time),566288.2000000477,013_y_m_n_a.png,I,z,1499,10,2,2529.7999999523163,563758.4000000954,8098,NNB,B,8
5,test,2,0.0,2-Back,1.0,m,Tue May 12 2026 13:53:54 GMT-0500 (Central Daylight Time),568320.7000000477,029_m_f_n_a.png,I,m,1016,11,2,2030.2000000476837,566290.5,8098,NNB,B,9
6,test,2,0.0,2-Back,1.0,m,Tue May 12 2026 13:53:54 GMT-0500 (Central Daylight Time),570337.2000000477,173_y_f_n_a.png,I,m,983,12,2,2014.0,568323.2000000477,8098,NNB,B,10
6,test,2,1.0,2-Back,0.0,z,Tue May 12 2026 13:53:54 GMT-0500 (Central Daylight Time),572736.9000000954,029_m_f_n_a.png,I,m,1367,13,2,2397.100000023842,570339.8000000715,8098,NNB,B,11
7,test,2,0.0,2-Back,1.0,m,Tue May 12 2026 13:53:54 GMT-0500 (Central Daylight Time),574719.2000000477,176_o_m_n_a.png,I,m,960,14,2,1980.2000000476837,572739.0,8098,NNB,B,12
8,test,2,0.0,2-Back,1.0,m,Tue May 12 2026 13:53:54 GMT-0500 (Central Daylight Time),577551.4000000954,176_o_m_n_a.png,I,m,1809,15,2,2829.9000000953674,574721.5,8098,NNB,B,13
9,test,2,0.0,2-Back,1.0,m,Tue May 12 2026 13:53:54 GMT-0500 (Central Daylight Time),580002.0,110_o_f_n_a.png,I,m,1425,16,2,2447.7999999523163,577554.2000000477,8098,NNB,B,14
10,test,2,0.0,2-Back,1.0,m,Tue May 12 2026 13:53:54 GMT-0500 (Central Daylight Time),582316.7000000477,126_m_m_n_a.png,I,m,1287,17,2,2312.2000000476837,580004.5,8098,NNB,B,15
11,test,2,1.0,2-Back,1.0,z,Tue May 12 2026 13:53:54 GMT-0500 (Central Daylight Time),584465.8000000715,110_o_f_n_a.png,I,z,1132,18,2,2146.600000023842,582319.2000000477,8098,NNB,B,16
0,test,3,1.0,2-Back,,,Tue May 12 2026 13:53:54 GMT-0500 (Central Daylight Time),584465.8000000715,153_y_m_n_a.png,I,space,1343,1,2,2146.600000023842,582319.2000000477,8098,NNB,B,0
0,test,3,1.0,2-Back,,,Tue May 12 2026 13:53:54 GMT-0500 (Central Daylight Time),584465.8000000715,153_y_m_n_a.png,I,space,1343,2,2,2146.600000023842,582319.2000000477,8098,NNB,B,0
1,test,3,0.0,2-Back,1.0,m,Tue May 12 2026 13:53:54 GMT-0500 (Central Daylight Time),592980.0,110_o_f_n_a.png,I,m,1005,3,2,2028.8999999761581,590951.1000000238,8098,NNB,B,1
2,test,3,0.0,2-Back,1.0,m,Tue May 12 2026 13:53:54 GMT-0500 (Central Daylight Time),594962.7000000477,178_m_m_n_a.png,I,m,963,4,2,1980.2000000476837,592982.5,8098,NNB,B,2
3,test,3,1.0,2-Back,1.0,z,Tue May 12 2026 13:53:54 GMT-0500 (Central Daylight Time),596928.9000000954,110_o_f_n_a.png,I,z,942,5,2,1963.5,594965.4000000954,8098,NNB,B,3
4,test,3,0.0,2-Back,1.0,m,Tue May 12 2026 13:53:54 GMT-0500 (Central Daylight Time),598961.5,013_y_m_n_a.png,I,m,1007,6,2,2030.2999999523163,596931.2000000477,8098,NNB,B,4
4,test,3,0.0,2-Back,0.0,m,Tue May 12 2026 13:53:54 GMT-0500 (Central Daylight Time),601195.2000000477,178_m_m_n_a.png,I,z,1215,7,2,2231.2000000476837,598964.0,8098,NNB,B,5
5,test,3,1.0,2-Back,1.0,z,Tue May 12 2026 13:53:54 GMT-0500 (Central Daylight Time),603510.5,013_y_m_n_a.png,I,z,1286,8,2,2312.5999999046326,601197.9000000954,8098,NNB,B,6
6,test,3,0.0,2-Back,1.0,m,Tue May 12 2026 13:53:54 GMT-0500 (Central Daylight Time),606010.6000000238,173_y_f_n_a.png,I,m,1474,9,2,2497.6999999284744,603512.9000000954,8098,NNB,B,7
7,test,3,0.0,2-Back,1.0,m,Tue May 12 2026 13:53:54 GMT-0500 (Central Daylight Time),608008.9000000954,126_m_m_n_a.png,I,m,967,10,2,1995.7000000476837,606013.2000000477,8098,NNB,B,8
8,test,3,1.0,2-Back,1.0,z,Tue May 12 2026 13:53:54 GMT-0500 (Central Daylight Time),610257.7000000477,173_y_f_n_a.png,I,z,1230,11,2,2246.399999976158,608011.3000000715,8098,NNB,B,9
8,test,3,1.0,2-Back,0.0,z,Tue May 12 2026 13:53:54 GMT-0500 (Central Daylight Time),612357.3000000715,126_m_m_n_a.png,I,m,1077,12,2,2097.2000000476837,610260.1000000238,8098,NNB,B,10
9,test,3,0.0,2-Back,1.0,m,Tue May 12 2026 13:53:54 GMT-0500 (Central Daylight Time),615106.2000000477,110_o_f_n_a.png,I,m,1731,13,2,2746.5,612359.7000000477,8098,NNB,B,11
10,test,3,0.0,2-Back,1.0,m,Tue May 12 2026 13:53:54 GMT-0500 (Central Daylight Time),616956.0,097_m_f_n_a.png,I,m,821,14,2,1847.3999999761581,615108.6000000238,8098,NNB,B,12
10,test,3,0.0,2-Back,0.0,m,Tue May 12 2026 13:53:54 GMT-0500 (Central Daylight Time),619988.4000000954,065_o_m_n_a.png,I,None,2015,15,2,3030.0,616958.4000000954,8098,NNB,B,13
11,test,3,1.0,2-Back,1.0,z,Tue May 12 2026 13:53:54 GMT-0500 (Central Daylight Time),622087.9000000954,097_m_f_n_a.png,I,z,1068,16,2,2095.3000000715256,619992.6000000238,8098,NNB,B,14
12,test,3,0.0,2-Back,1.0,m,Tue May 12 2026 13:53:54 GMT-0500 (Central Daylight Time),624103.7000000477,086_o_f_n_a.png,I,m,993,17,2,2013.1000000238419,622090.6000000238,8098,NNB,B,15
13,test,3,0.0,2-Back,1.0,m,Tue May 12 2026 13:53:54 GMT-0500 (Central Daylight Time),627085.7000000477,086_o_f_n_a.png,I,m,1960,18,2,2979.399999976158,624106.3000000715,8098,NNB,B,16
0,test,4,0.0,2-Back,,,Tue May 12 2026 13:53:54 GMT-0500 (Central Daylight Time),627085.7000000477,176_o_m_n_a.png,I,space,1123,1,2,2979.399999976158,624106.3000000715,8098,NNB,B,0
0,test,4,0.0,2-Back,,,Tue May 12 2026 13:53:54 GMT-0500 (Central Daylight Time),627085.7000000477,152_y_f_n_a.png,I,space,1123,2,2,2979.399999976158,624106.3000000715,8098,NNB,B,0
1,test,4,1.0,2-Back,1.0,z,Tue May 12 2026 13:53:54 GMT-0500 (Central Daylight Time),635983.2000000477,176_o_m_n_a.png,I,z,1535,3,2,2561.600000023842,633421.6000000238,8098,NNB,B,1
2,test,4,1.0,2-Back,1.0,z,Tue May 12 2026 13:53:54 GMT-0500 (Central Daylight Time),638099.4000000954,152_y_f_n_a.png,I,z,1089,4,2,2113.7000000476837,635985.7000000477,8098,NNB,B,2
3,test,4,0.0,2-Back,1.0,m,Tue May 12 2026 13:53:54 GMT-0500 (Central Daylight Time),640231.9000000954,110_o_f_n_a.png,I,m,1109,5,2,2129.9000000953674,638102.0,8098,NNB,B,3
4,test,4,0.0,2-Back,1.0,m,Tue May 12 2026 13:53:54 GMT-0500 (Central Daylight Time),642714.3000000715,110_o_f_n_a.png,I,m,1464,6,2,2479.7000000476837,640234.6000000238,8098,NNB,B,4
5,test,4,0.0,2-Back,1.0,m,Tue May 12 2026 13:53:54 GMT-0500 (Central Daylight Time),645197.0,029_m_f_n_a.png,I,m,1454,7,2,2480.399999976158,642716.6000000238,8098,NNB,B,5
6,test,4,0.0,2-Back,1.0,m,Tue May 12 2026 13:53:54 GMT-0500 (Central Daylight Time),647862.8000000715,013_y_m_n_a.png,I,m,1643,8,2,2663.3000000715256,645199.5,8098,NNB,B,6
7,test,4,1.0,2-Back,1.0,z,Tue May 12 2026 13:53:54 GMT-0500 (Central Daylight Time),650045.7000000477,029_m_f_n_a.png,I,z,1153,9,2,2180.2999999523163,647865.4000000954,8098,NNB,B,7
8,test,4,0.0,2-Back,1.0,m,Tue May 12 2026 13:53:54 GMT-0500 (Central Daylight Time),652044.9000000954,126_m_m_n_a.png,I,m,979,10,2,1996.6000000238419,650048.3000000715,8098,NNB,B,8
8,test,4,0.0,2-Back,0.0,m,Tue May 12 2026 13:53:54 GMT-0500 (Central Daylight Time),654161.0,013_y_m_n_a.png,I,z,1084,11,2,2113.5999999046326,652047.4000000954,8098,NNB,B,9
9,test,4,0.0,2-Back,1.0,m,Tue May 12 2026 13:53:54 GMT-0500 (Central Daylight Time),656310.1000000238,086_o_f_n_a.png,I,m,1127,12,2,2146.6999999284744,654163.4000000954,8098,NNB,B,10
10,test,4,0.0,2-Back,1.0,m,Tue May 12 2026 13:53:54 GMT-0500 (Central Daylight Time),658461.6000000238,153_y_m_n_a.png,I,m,1130,13,2,2148.899999976158,656312.7000000477,8098,NNB,B,11
11,test,4,1.0,2-Back,1.0,z,Tue May 12 2026 13:53:54 GMT-0500 (Central Daylight Time),660725.7000000477,086_o_f_n_a.png,I,z,1245,14,2,2261.5,658464.2000000477,8098,NNB,B,12
11,test,4,1.0,2-Back,0.0,z,Tue May 12 2026 13:53:54 GMT-0500 (Central Daylight Time),663558.0,153_y_m_n_a.png,I,m,1803,15,2,2829.899999976158,660728.1000000238,8098,NNB,B,13
12,test,4,0.0,2-Back,1.0,m,Tue May 12 2026 13:53:54 GMT-0500 (Central Daylight Time),665607.4000000954,178_m_m_n_a.png,I,m,1018,16,2,2047.0,663560.4000000954,8098,NNB,B,14
13,test,4,0.0,2-Back,1.0,m,Tue May 12 2026 13:53:54 GMT-0500 (Central Daylight Time),667423.5,097_m_f_n_a.png,I,m,793,17,2,1813.7999999523163,665609.7000000477,8098,NNB,B,15
14,test,4,1.0,2-Back,1.0,z,Tue May 12 2026 13:53:54 GMT-0500 (Central Daylight Time),670389.1000000238,178_m_m_n_a.png,I,z,1937,18,2,2963.1999999284744,667425.9000000954,8098,NNB,B,16
0,test,5,1.0,2-Back,,,Tue May 12 2026 13:53:54 GMT-0500 (Central Daylight Time),670389.1000000238,153_y_m_n_a.png,I,space,1219,1,2,2963.1999999284744,667425.9000000954,8098,NNB,B,0
0,test,5,1.0,2-Back,,,Tue May 12 2026 13:53:54 GMT-0500 (Central Daylight Time),670389.1000000238,097_m_f_n_a.png,I,space,1219,2,2,2963.1999999284744,667425.9000000954,8098,NNB,B,0
1,test,5,1.0,2-Back,1.0,z,Tue May 12 2026 13:53:54 GMT-0500 (Central Daylight Time),678736.7000000477,153_y_m_n_a.png,I,z,1042,3,2,2062.100000023842,676674.6000000238,8098,NNB,B,1
2,test,5,1.0,2-Back,1.0,z,Tue May 12 2026 13:53:54 GMT-0500 (Central Daylight Time),680819.0,097_m_f_n_a.png,I,z,1065,4,2,2079.899999976158,678739.1000000238,8098,NNB,B,2
3,test,5,0.0,2-Back,1.0,m,Tue May 12 2026 13:53:54 GMT-0500 (Central Daylight Time),683068.5,086_o_f_n_a.png,I,m,1189,5,2,2247.0,680821.5,8098,NNB,B,3
3,test,5,0.0,2-Back,0.0,m,Tue May 12 2026 13:53:54 GMT-0500 (Central Daylight Time),685601.0,153_y_m_n_a.png,I,z,1508,6,2,2529.7999999523163,683071.2000000477,8098,NNB,B,4
4,test,5,0.0,2-Back,1.0,m,Tue May 12 2026 13:53:54 GMT-0500 (Central Daylight Time),687833.5,173_y_f_n_a.png,I,m,1215,7,2,2229.899999976158,685603.6000000238,8098,NNB,B,5
4,test,5,0.0,2-Back,0.0,m,Tue May 12 2026 13:53:54 GMT-0500 (Central Daylight Time),689868.0,086_o_f_n_a.png,I,z,1007,8,2,2031.5,687836.5,8098,NNB,B,6
5,test,5,1.0,2-Back,1.0,z,Tue May 12 2026 13:53:54 GMT-0500 (Central Daylight Time),692332.5,173_y_f_n_a.png,I,z,1438,9,2,2462.0,689870.5,8098,NNB,B,7
5,test,5,0.0,2-Back,0.0,m,Tue May 12 2026 13:53:54 GMT-0500 (Central Daylight Time),694881.6000000238,065_o_m_n_a.png,I,z,1524,10,2,2546.7999999523163,692334.8000000715,8098,NNB,B,8
6,test,5,0.0,2-Back,1.0,m,Tue May 12 2026 13:53:54 GMT-0500 (Central Daylight Time),697280.9000000954,029_m_f_n_a.png,I,m,1367,11,2,2396.9000000953674,694884.0,8098,NNB,B,9
7,test,5,0.0,2-Back,1.0,m,Tue May 12 2026 13:53:54 GMT-0500 (Central Daylight Time),699731.1000000238,126_m_m_n_a.png,I,m,1431,12,2,2447.899999976158,697283.2000000477,8098,NNB,B,10
8,test,5,0.0,2-Back,1.0,m,Tue May 12 2026 13:53:54 GMT-0500 (Central Daylight Time),702362.3000000715,065_o_m_n_a.png,I,m,1614,13,2,2628.7000000476837,699733.6000000238,8098,NNB,B,11
9,test,5,1.0,2-Back,1.0,z,Tue May 12 2026 13:53:54 GMT-0500 (Central Daylight Time),704928.6000000238,126_m_m_n_a.png,I,z,1542,14,2,2563.899999976158,702364.7000000477,8098,NNB,B,12
10,test,5,0.0,2-Back,1.0,m,Tue May 12 2026 13:53:54 GMT-0500 (Central Daylight Time),706894.4000000954,152_y_f_n_a.png,I,m,944,15,2,1963.3000000715256,704931.1000000238,8098,NNB,B,13
11,test,5,0.0,2-Back,1.0,m,Tue May 12 2026 13:53:54 GMT-0500 (Central Daylight Time),708860.6000000238,176_o_m_n_a.png,I,m,946,16,2,1963.6999999284744,706896.9000000954,8098,NNB,B,14
12,test,5,0.0,2-Back,1.0,m,Tue May 12 2026 13:53:54 GMT-0500 (Central Daylight Time),710809.8000000715,029_m_f_n_a.png,I,m,924,17,2,1946.8000000715256,708863.0,8098,NNB,B,15
13,test,5,1.0,2-Back,1.0,z,Tue May 12 2026 13:53:54 GMT-0500 (Central Daylight Time),712859.3000000715,176_o_m_n_a.png,I,z,1030,18,2,2047.0,710812.3000000715,8098,NNB,B,16
