acc_sum,block,block_c,change,condition,correct,correct_response,datetime,endtime,face,project,response,response_time,row_sel,session_number,start_end,starttime,subject_id,task,task_vers,trial
0,prac,1,,1-Back,,,Thu Jul 31 2025 13:50:54 GMT-0500 (Central Daylight Time),,124_o_f_d_a.png,I,space,1805,1,2,,,8046,VNB,A,0
0,prac,1,0.0,1-Back,0,m,Thu Jul 31 2025 13:50:54 GMT-0500 (Central Daylight Time),92392.09999999963,071_y_f_n_a.png,I,z,676,2,2,1473.6999999997206,90918.3999999999,8046,VNB,A,1
0,prac,1,0.0,1-Back,0,m,Thu Jul 31 2025 13:50:54 GMT-0500 (Central Daylight Time),95207.79999999981,165_m_m_h_a.png,I,None,2013,3,2,2807.7999999998137,92400.0,8046,VNB,A,2
1,prac,1,0.0,1-Back,1,m,Thu Jul 31 2025 13:50:54 GMT-0500 (Central Daylight Time),96873.8999999999,109_y_m_d_a.png,I,m,858,4,2,1657.6000000000931,95216.29999999981,8046,VNB,A,3
2,prac,1,0.0,1-Back,1,m,Thu Jul 31 2025 13:50:54 GMT-0500 (Central Daylight Time),98789.8999999999,124_o_f_n_a.png,I,m,1070,5,2,1908.3999999999069,96881.5,8046,VNB,A,4
3,prac,1,1.0,1-Back,1,z,Thu Jul 31 2025 13:50:54 GMT-0500 (Central Daylight Time),100289.69999999972,109_y_m_n_a.png,I,z,684,6,2,1492.1999999997206,98797.5,8046,VNB,A,5
4,prac,1,0.0,1-Back,1,m,Thu Jul 31 2025 13:50:54 GMT-0500 (Central Daylight Time),101805.8999999999,039_o_m_h_a.png,I,m,704,7,2,1508.3999999999069,100297.5,8046,VNB,A,6
5,prac,1,0.0,1-Back,1,m,Thu Jul 31 2025 13:50:54 GMT-0500 (Central Daylight Time),103455.19999999972,139_m_f_d_a.png,I,m,830,8,2,1641.3999999999069,101813.79999999981,8046,VNB,A,7
5,prac,1,1.0,1-Back,0,z,Thu Jul 31 2025 13:50:54 GMT-0500 (Central Daylight Time),105770.8999999999,071_y_f_d_a.png,I,m,1504,9,2,2307.899999999907,103463.0,8046,VNB,A,8
6,prac,1,0.0,1-Back,1,m,Thu Jul 31 2025 13:50:54 GMT-0500 (Central Daylight Time),108103.79999999981,165_m_m_n_a.png,I,m,1542,10,2,2324.100000000093,105779.69999999972,8046,VNB,A,9
6,prac,1,0.0,1-Back,0,m,Thu Jul 31 2025 13:50:54 GMT-0500 (Central Daylight Time),109736.59999999963,124_o_f_h_a.png,I,z,813,11,2,1624.6999999997206,108111.8999999999,8046,VNB,A,10
7,prac,1,0.0,1-Back,1,m,Thu Jul 31 2025 13:50:54 GMT-0500 (Central Daylight Time),111319.19999999972,109_y_m_d_a.png,I,m,801,12,2,1574.7999999998137,109744.3999999999,8046,VNB,A,11
0,test,1,0.0,1-Back,,,Thu Jul 31 2025 13:50:54 GMT-0500 (Central Daylight Time),111319.19999999972,071_y_f_d_a.png,I,space,4109,1,2,1574.7999999998137,109744.3999999999,8046,VNB,A,0
1,test,1,0.0,1-Back,1,m,Thu Jul 31 2025 13:50:54 GMT-0500 (Central Daylight Time),123482.09999999963,139_m_f_n_a.png,I,m,841,2,2,1857.6999999997206,121624.3999999999,8046,VNB,A,1
2,test,1,0.0,1-Back,1,m,Thu Jul 31 2025 13:50:54 GMT-0500 (Central Daylight Time),125281.79999999981,039_o_m_h_a.png,I,m,783,3,2,1793.2000000001863,123488.59999999963,8046,VNB,A,2
3,test,1,1.0,1-Back,1,z,Thu Jul 31 2025 13:50:54 GMT-0500 (Central Daylight Time),127131.0,165_m_m_h_a.png,I,z,824,4,2,1842.5,125288.5,8046,VNB,A,3
4,test,1,0.0,1-Back,1,m,Thu Jul 31 2025 13:50:54 GMT-0500 (Central Daylight Time),128780.3999999999,124_o_f_n_a.png,I,m,622,5,2,1643.1000000000931,127137.29999999981,8046,VNB,A,4
5,test,1,0.0,1-Back,1,m,Thu Jul 31 2025 13:50:54 GMT-0500 (Central Daylight Time),130763.3999999999,109_y_m_d_a.png,I,m,959,6,2,1975.2000000001863,128788.19999999972,8046,VNB,A,5
6,test,1,1.0,1-Back,1,z,Thu Jul 31 2025 13:50:54 GMT-0500 (Central Daylight Time),132729.2999999998,139_m_f_d_a.png,I,z,800,7,2,1822.1000000000931,130907.19999999972,8046,VNB,A,6
7,test,1,0.0,1-Back,1,m,Thu Jul 31 2025 13:50:54 GMT-0500 (Central Daylight Time),134611.7999999998,071_y_f_h_a.png,I,m,864,8,2,1876.3999999999069,132735.3999999999,8046,VNB,A,7
8,test,1,0.0,1-Back,1,m,Thu Jul 31 2025 13:50:54 GMT-0500 (Central Daylight Time),136978.0,039_o_m_n_a.png,I,m,1341,9,2,2359.9000000003725,134618.09999999963,8046,VNB,A,8
9,test,1,0.0,1-Back,1,m,Thu Jul 31 2025 13:50:54 GMT-0500 (Central Daylight Time),138794.09999999963,109_y_m_h_a.png,I,m,800,10,2,1809.1999999997206,136984.8999999999,8046,VNB,A,9
10,test,1,0.0,1-Back,1,m,Thu Jul 31 2025 13:50:54 GMT-0500 (Central Daylight Time),140526.7999999998,039_o_m_d_a.png,I,m,703,11,2,1726.2000000001863,138800.59999999963,8046,VNB,A,10
11,test,1,1.0,1-Back,1,z,Thu Jul 31 2025 13:50:54 GMT-0500 (Central Daylight Time),142209.5,124_o_f_d_a.png,I,z,651,12,2,1676.3000000002794,140533.19999999972,8046,VNB,A,11
12,test,1,0.0,1-Back,1,m,Thu Jul 31 2025 13:50:54 GMT-0500 (Central Daylight Time),143959.09999999963,165_m_m_n_a.png,I,m,728,13,2,1743.3999999999069,142215.69999999972,8046,VNB,A,12
13,test,1,1.0,1-Back,1,z,Thu Jul 31 2025 13:50:54 GMT-0500 (Central Daylight Time),145908.3999999999,071_y_f_n_a.png,I,z,922,14,2,1942.8999999999069,143965.5,8046,VNB,A,13
14,test,1,0.0,1-Back,1,m,Thu Jul 31 2025 13:50:54 GMT-0500 (Central Daylight Time),147491.09999999963,139_m_f_h_a.png,I,m,565,15,2,1576.0999999996275,145915.0,8046,VNB,A,14
15,test,1,0.0,1-Back,1,m,Thu Jul 31 2025 13:50:54 GMT-0500 (Central Daylight Time),149124.09999999963,165_m_m_d_a.png,I,m,614,16,2,1626.7999999998137,147497.2999999998,8046,VNB,A,15
16,test,1,0.0,1-Back,1,m,Thu Jul 31 2025 13:50:54 GMT-0500 (Central Daylight Time),150956.8999999999,109_y_m_n_a.png,I,m,813,17,2,1826.1000000000931,149130.7999999998,8046,VNB,A,16
17,test,1,0.0,1-Back,1,m,Thu Jul 31 2025 13:50:54 GMT-0500 (Central Daylight Time),152656.19999999972,124_o_f_h_a.png,I,m,677,18,2,1692.0,150964.19999999972,8046,VNB,A,17
0,test,2,0.0,1-Back,,,Thu Jul 31 2025 13:50:54 GMT-0500 (Central Daylight Time),152656.19999999972,109_y_m_n_a.png,I,space,1813,1,2,1692.0,150964.19999999972,8046,VNB,A,0
1,test,2,0.0,1-Back,1,m,Thu Jul 31 2025 13:50:54 GMT-0500 (Central Daylight Time),159237.3999999999,071_y_f_h_a.png,I,m,1721,2,2,2742.8000000002794,156494.59999999963,8046,VNB,A,1
1,test,2,1.0,1-Back,0,m,Thu Jul 31 2025 13:50:54 GMT-0500 (Central Daylight Time),160953.7999999998,039_o_m_n_a.png,I,z,692,3,2,1710.3999999999069,159243.3999999999,8046,VNB,A,2
2,test,2,0.0,1-Back,1,m,Thu Jul 31 2025 13:50:54 GMT-0500 (Central Daylight Time),163003.0,139_m_f_d_a.png,I,m,1024,4,2,2041.6000000000931,160961.3999999999,8046,VNB,A,3
3,test,2,0.0,1-Back,1,z,Thu Jul 31 2025 13:50:54 GMT-0500 (Central Daylight Time),165135.59999999963,165_m_m_d_a.png,I,z,1102,5,2,2125.899999999907,163009.69999999972,8046,VNB,A,4
4,test,2,0.0,1-Back,1,m,Thu Jul 31 2025 13:50:54 GMT-0500 (Central Daylight Time),166801.8999999999,109_y_m_h_a.png,I,m,634,6,2,1659.8000000002794,165142.09999999963,8046,VNB,A,5
5,test,2,1.0,1-Back,1,z,Thu Jul 31 2025 13:50:54 GMT-0500 (Central Daylight Time),168451.2999999998,124_o_f_h_a.png,I,z,624,7,2,1642.8999999999069,166808.3999999999,8046,VNB,A,6
6,test,2,0.0,1-Back,1,m,Thu Jul 31 2025 13:50:54 GMT-0500 (Central Daylight Time),170167.3999999999,139_m_f_n_a.png,I,m,693,8,2,1708.8999999999069,168458.5,8046,VNB,A,7
7,test,2,0.0,1-Back,1,m,Thu Jul 31 2025 13:50:54 GMT-0500 (Central Daylight Time),172033.5,071_y_f_d_a.png,I,m,833,9,2,1859.5,170174.0,8046,VNB,A,8
8,test,2,0.0,1-Back,1,m,Thu Jul 31 2025 13:50:54 GMT-0500 (Central Daylight Time),174050.0,165_m_m_n_a.png,I,m,1000,10,2,2010.0,172040.0,8046,VNB,A,9
9,test,2,1.0,1-Back,1,m,Thu Jul 31 2025 13:50:54 GMT-0500 (Central Daylight Time),175949.0,139_m_f_h_a.png,I,m,880,11,2,1892.6000000000931,174056.3999999999,8046,VNB,A,10
10,test,2,0.0,1-Back,1,z,Thu Jul 31 2025 13:50:54 GMT-0500 (Central Daylight Time),177648.3999999999,039_o_m_h_a.png,I,z,676,12,2,1693.1000000000931,175955.2999999998,8046,VNB,A,11
11,test,2,0.0,1-Back,1,m,Thu Jul 31 2025 13:50:54 GMT-0500 (Central Daylight Time),179281.09999999963,109_y_m_d_a.png,I,m,601,13,2,1626.2999999998137,177654.7999999998,8046,VNB,A,12
12,test,2,0.0,1-Back,1,m,Thu Jul 31 2025 13:50:54 GMT-0500 (Central Daylight Time),181630.59999999963,124_o_f_n_a.png,I,m,1320,14,2,2342.5999999996275,179288.0,8046,VNB,A,13
13,test,2,0.0,1-Back,1,z,Thu Jul 31 2025 13:50:54 GMT-0500 (Central Daylight Time),183296.59999999963,071_y_f_n_a.png,I,z,635,15,2,1657.5,181639.09999999963,8046,VNB,A,14
14,test,2,1.0,1-Back,1,m,Thu Jul 31 2025 13:50:54 GMT-0500 (Central Daylight Time),184979.5,165_m_m_h_a.png,I,m,657,16,2,1676.2000000001863,183303.2999999998,8046,VNB,A,15
15,test,2,0.0,1-Back,1,m,Thu Jul 31 2025 13:50:54 GMT-0500 (Central Daylight Time),186712.19999999972,124_o_f_d_a.png,I,m,702,17,2,1726.2999999998137,184985.8999999999,8046,VNB,A,16
16,test,2,1.0,1-Back,1,z,Thu Jul 31 2025 13:50:54 GMT-0500 (Central Daylight Time),188311.69999999972,039_o_m_d_a.png,I,z,569,18,2,1593.0,186718.69999999972,8046,VNB,A,17
0,test,3,1.0,1-Back,,,Thu Jul 31 2025 13:50:54 GMT-0500 (Central Daylight Time),188311.69999999972,124_o_f_h_a.png,I,space,1970,1,2,1593.0,186718.69999999972,8046,VNB,A,0
1,test,3,0.0,1-Back,1,m,Thu Jul 31 2025 13:50:54 GMT-0500 (Central Daylight Time),193976.69999999972,139_m_f_d_a.png,I,m,602,2,2,1625.8999999999069,192350.7999999998,8046,VNB,A,1
1,test,3,1.0,1-Back,0,m,Thu Jul 31 2025 13:50:54 GMT-0500 (Central Daylight Time),195909.5,165_m_m_n_a.png,I,z,905,3,2,1926.3000000002794,193983.19999999972,8046,VNB,A,2
2,test,3,0.0,1-Back,1,z,Thu Jul 31 2025 13:50:54 GMT-0500 (Central Daylight Time),197975.3999999999,124_o_f_n_a.png,I,z,1036,4,2,2059.399999999907,195916.0,8046,VNB,A,3
3,test,3,1.0,1-Back,1,m,Thu Jul 31 2025 13:50:54 GMT-0500 (Central Daylight Time),199641.59999999963,039_o_m_d_a.png,I,m,634,5,2,1659.3999999999069,197982.19999999972,8046,VNB,A,4
4,test,3,0.0,1-Back,1,m,Thu Jul 31 2025 13:50:54 GMT-0500 (Central Daylight Time),201641.09999999963,071_y_f_h_a.png,I,m,968,6,2,1993.0,199648.09999999963,8046,VNB,A,5
5,test,3,0.0,1-Back,1,z,Thu Jul 31 2025 13:50:54 GMT-0500 (Central Daylight Time),203457.0,109_y_m_h_a.png,I,z,785,7,2,1808.7000000001863,201648.2999999998,8046,VNB,A,6
6,test,3,0.0,1-Back,1,m,Thu Jul 31 2025 13:50:54 GMT-0500 (Central Daylight Time),205272.8999999999,139_m_f_n_a.png,I,m,784,8,2,1808.8000000002794,203464.09999999963,8046,VNB,A,7
7,test,3,0.0,1-Back,1,m,Thu Jul 31 2025 13:50:54 GMT-0500 (Central Daylight Time),207089.0,071_y_f_d_a.png,I,m,792,9,2,1809.7000000001863,205279.2999999998,8046,VNB,A,8
8,test,3,1.0,1-Back,1,m,Thu Jul 31 2025 13:50:54 GMT-0500 (Central Daylight Time),209421.59999999963,039_o_m_n_a.png,I,m,1303,10,2,2326.399999999907,207095.19999999972,8046,VNB,A,9
8,test,3,0.0,1-Back,0,m,Thu Jul 31 2025 13:50:54 GMT-0500 (Central Daylight Time),211254.3999999999,165_m_m_h_a.png,I,z,811,11,2,1825.2000000001863,209429.19999999972,8046,VNB,A,10
9,test,3,0.0,1-Back,1,z,Thu Jul 31 2025 13:50:54 GMT-0500 (Central Daylight Time),213403.8999999999,139_m_f_h_a.png,I,z,1123,12,2,2142.8000000002794,211261.09999999963,8046,VNB,A,11
10,test,3,1.0,1-Back,1,m,Thu Jul 31 2025 13:50:54 GMT-0500 (Central Daylight Time),215020.09999999963,124_o_f_d_a.png,I,m,590,13,2,1609.7999999998137,213410.2999999998,8046,VNB,A,12
11,test,3,0.0,1-Back,1,z,Thu Jul 31 2025 13:50:54 GMT-0500 (Central Daylight Time),216602.8999999999,165_m_m_d_a.png,I,z,565,14,2,1576.3999999999069,215026.5,8046,VNB,A,13
12,test,3,0.0,1-Back,1,m,Thu Jul 31 2025 13:50:54 GMT-0500 (Central Daylight Time),218318.8999999999,109_y_m_n_a.png,I,m,694,15,2,1709.5,216609.3999999999,8046,VNB,A,14
12,test,3,1.0,1-Back,0,m,Thu Jul 31 2025 13:50:54 GMT-0500 (Central Daylight Time),220051.7999999998,039_o_m_h_a.png,I,z,714,16,2,1726.3999999999069,218325.3999999999,8046,VNB,A,15
13,test,3,0.0,1-Back,1,m,Thu Jul 31 2025 13:50:54 GMT-0500 (Central Daylight Time),221801.5,109_y_m_d_a.png,I,m,725,17,2,1743.2000000001863,220058.2999999998,8046,VNB,A,16
14,test,3,1.0,1-Back,1,m,Thu Jul 31 2025 13:50:54 GMT-0500 (Central Daylight Time),223584.09999999963,071_y_f_n_a.png,I,m,760,18,2,1775.3999999999069,221808.69999999972,8046,VNB,A,17
0,test,4,1.0,1-Back,,,Thu Jul 31 2025 13:50:54 GMT-0500 (Central Daylight Time),223584.09999999963,165_m_m_d_a.png,I,space,1817,1,2,1775.3999999999069,221808.69999999972,8046,VNB,A,0
1,test,4,0.0,1-Back,1,z,Thu Jul 31 2025 13:50:54 GMT-0500 (Central Daylight Time),229781.8999999999,039_o_m_d_a.png,I,z,1329,2,2,2341.2000000001863,227440.69999999972,8046,VNB,A,1
2,test,4,0.0,1-Back,1,m,Thu Jul 31 2025 13:50:54 GMT-0500 (Central Daylight Time),231464.7999999998,109_y_m_h_a.png,I,m,651,3,2,1675.8999999999069,229788.8999999999,8046,VNB,A,2
3,test,4,0.0,1-Back,1,m,Thu Jul 31 2025 13:50:54 GMT-0500 (Central Daylight Time),233247.5,139_m_f_n_a.png,I,m,752,4,2,1775.9000000003725,231471.59999999963,8046,VNB,A,3
4,test,4,1.0,1-Back,1,m,Thu Jul 31 2025 13:50:54 GMT-0500 (Central Daylight Time),235097.19999999972,124_o_f_h_a.png,I,m,826,5,2,1843.1000000000931,233254.09999999963,8046,VNB,A,4
5,test,4,0.0,1-Back,1,m,Thu Jul 31 2025 13:50:54 GMT-0500 (Central Daylight Time),237363.09999999963,165_m_m_n_a.png,I,m,1240,6,2,2258.899999999907,235104.19999999972,8046,VNB,A,5
6,test,4,0.0,1-Back,1,m,Thu Jul 31 2025 13:50:54 GMT-0500 (Central Daylight Time),239179.09999999963,109_y_m_d_a.png,I,m,790,7,2,1809.0999999996275,237370.0,8046,VNB,A,6
7,test,4,1.0,1-Back,1,z,Thu Jul 31 2025 13:50:54 GMT-0500 (Central Daylight Time),240762.09999999963,071_y_f_d_a.png,I,z,566,8,2,1576.5,239185.59999999963,8046,VNB,A,7
8,test,4,0.0,1-Back,1,m,Thu Jul 31 2025 13:50:54 GMT-0500 (Central Daylight Time),242561.5,139_m_f_h_a.png,I,m,775,9,2,1792.5,240769.0,8046,VNB,A,8
9,test,4,0.0,1-Back,1,z,Thu Jul 31 2025 13:50:54 GMT-0500 (Central Daylight Time),244294.2999999998,039_o_m_h_a.png,I,z,704,10,2,1725.7000000001863,242568.59999999963,8046,VNB,A,9
10,test,4,1.0,1-Back,1,m,Thu Jul 31 2025 13:50:54 GMT-0500 (Central Daylight Time),245893.69999999972,124_o_f_n_a.png,I,m,579,11,2,1592.1999999997206,244301.5,8046,VNB,A,10
11,test,4,0.0,1-Back,1,m,Thu Jul 31 2025 13:50:54 GMT-0500 (Central Daylight Time),247843.0,139_m_f_d_a.png,I,m,932,12,2,1942.5,245900.5,8046,VNB,A,11
12,test,4,0.0,1-Back,1,m,Thu Jul 31 2025 13:50:54 GMT-0500 (Central Daylight Time),249575.8999999999,071_y_f_n_a.png,I,m,710,13,2,1725.6000000000931,247850.2999999998,8046,VNB,A,12
13,test,4,0.0,1-Back,1,m,Thu Jul 31 2025 13:50:54 GMT-0500 (Central Daylight Time),251275.2999999998,124_o_f_d_a.png,I,m,682,14,2,1692.7999999998137,249582.5,8046,VNB,A,13
14,test,4,0.0,1-Back,1,m,Thu Jul 31 2025 13:50:54 GMT-0500 (Central Daylight Time),253374.69999999972,071_y_f_h_a.png,I,m,1078,15,2,2092.7999999998137,251281.8999999999,8046,VNB,A,14
15,test,4,1.0,1-Back,1,z,Thu Jul 31 2025 13:50:54 GMT-0500 (Central Daylight Time),255024.0,165_m_m_h_a.png,I,z,627,16,2,1642.9000000003725,253381.09999999963,8046,VNB,A,15
16,test,4,0.0,1-Back,1,m,Thu Jul 31 2025 13:50:54 GMT-0500 (Central Daylight Time),256640.09999999963,039_o_m_n_a.png,I,m,585,17,2,1609.6999999997206,255030.3999999999,8046,VNB,A,16
16,test,4,1.0,1-Back,0,z,Thu Jul 31 2025 13:50:54 GMT-0500 (Central Daylight Time),258556.3999999999,109_y_m_n_a.png,I,m,897,18,2,1909.3000000002794,256647.09999999963,8046,VNB,A,17
0,test,5,1.0,1-Back,,,Thu Jul 31 2025 13:50:54 GMT-0500 (Central Daylight Time),258556.3999999999,039_o_m_n_a.png,I,space,2485,1,2,1909.3000000002794,256647.09999999963,8046,VNB,A,0
1,test,5,1.0,1-Back,1,m,Thu Jul 31 2025 13:50:54 GMT-0500 (Central Daylight Time),264737.8999999999,124_o_f_h_a.png,I,m,650,2,2,1659.3999999999069,263078.5,8046,VNB,A,1
2,test,5,0.0,1-Back,1,m,Thu Jul 31 2025 13:50:54 GMT-0500 (Central Daylight Time),266520.3999999999,109_y_m_d_a.png,I,m,760,3,2,1776.1000000000931,264744.2999999998,8046,VNB,A,2
3,test,5,0.0,1-Back,1,z,Thu Jul 31 2025 13:50:54 GMT-0500 (Central Daylight Time),268186.5,039_o_m_d_a.png,I,z,649,4,2,1659.2000000001863,266527.2999999998,8046,VNB,A,3
4,test,5,0.0,1-Back,1,m,Thu Jul 31 2025 13:50:54 GMT-0500 (Central Daylight Time),270119.2999999998,139_m_f_h_a.png,I,m,911,5,2,1925.5,268193.7999999998,8046,VNB,A,4
5,test,5,0.0,1-Back,1,m,Thu Jul 31 2025 13:50:54 GMT-0500 (Central Daylight Time),271885.3999999999,071_y_f_n_a.png,I,m,746,6,2,1759.6000000000931,270125.7999999998,8046,VNB,A,5
6,test,5,1.0,1-Back,1,z,Thu Jul 31 2025 13:50:54 GMT-0500 (Central Daylight Time),273768.3999999999,124_o_f_n_a.png,I,z,852,7,2,1876.0,271892.3999999999,8046,VNB,A,6
7,test,5,0.0,1-Back,1,m,Thu Jul 31 2025 13:50:54 GMT-0500 (Central Daylight Time),275584.2999999998,139_m_f_d_a.png,I,m,793,8,2,1809.6000000000931,273774.6999999997,8046,VNB,A,7
8,test,5,0.0,1-Back,1,m,Thu Jul 31 2025 13:50:54 GMT-0500 (Central Daylight Time),277233.8999999999,109_y_m_h_a.png,I,m,625,9,2,1643.0,275590.8999999999,8046,VNB,A,8
9,test,5,0.0,1-Back,1,m,Thu Jul 31 2025 13:50:54 GMT-0500 (Central Daylight Time),279033.3999999999,071_y_f_d_a.png,I,m,768,10,2,1792.7000000001863,277240.6999999997,8046,VNB,A,9
10,test,5,0.0,1-Back,1,m,Thu Jul 31 2025 13:50:54 GMT-0500 (Central Daylight Time),281099.2999999998,165_m_m_n_a.png,I,m,1040,11,2,2059.7999999998137,279039.5,8046,VNB,A,10
11,test,5,1.0,1-Back,1,z,Thu Jul 31 2025 13:50:54 GMT-0500 (Central Daylight Time),282998.6999999997,139_m_f_n_a.png,I,z,877,12,2,1892.1000000000931,281106.5999999996,8046,VNB,A,11
12,test,5,0.0,1-Back,1,m,Thu Jul 31 2025 13:50:54 GMT-0500 (Central Daylight Time),284781.3999999999,039_o_m_h_a.png,I,m,763,13,2,1776.1000000000931,283005.2999999998,8046,VNB,A,12
13,test,5,0.0,1-Back,1,z,Thu Jul 31 2025 13:50:54 GMT-0500 (Central Daylight Time),286514.2999999998,165_m_m_h_a.png,I,z,708,14,2,1726.1000000000931,284788.1999999997,8046,VNB,A,13
14,test,5,1.0,1-Back,1,m,Thu Jul 31 2025 13:50:54 GMT-0500 (Central Daylight Time),288113.7999999998,124_o_f_d_a.png,I,m,567,15,2,1592.6000000000931,286521.1999999997,8046,VNB,A,14
15,test,5,0.0,1-Back,1,m,Thu Jul 31 2025 13:50:54 GMT-0500 (Central Daylight Time),289779.8999999999,109_y_m_n_a.png,I,m,648,16,2,1659.3999999999069,288120.5,8046,VNB,A,15
16,test,5,0.0,1-Back,1,m,Thu Jul 31 2025 13:50:54 GMT-0500 (Central Daylight Time),291396.0,071_y_f_h_a.png,I,m,598,17,2,1609.7000000001863,289786.2999999998,8046,VNB,A,16
17,test,5,0.0,1-Back,1,m,Thu Jul 31 2025 13:50:54 GMT-0500 (Central Daylight Time),293028.7999999998,165_m_m_d_a.png,I,m,613,18,2,1626.0,291402.7999999998,8046,VNB,A,17
0,prac,1,0.0,2-Back,,,Thu Jul 31 2025 13:50:54 GMT-0500 (Central Daylight Time),293028.7999999998,139_m_f_n_a.png,I,space,1772,1,2,1626.0,291402.7999999998,8046,VNB,A,0
0,prac,1,0.0,2-Back,,,Thu Jul 31 2025 13:50:54 GMT-0500 (Central Daylight Time),293028.7999999998,124_o_f_h_a.png,I,space,1772,2,2,1626.0,291402.7999999998,8046,VNB,A,0
1,prac,1,0.0,2-Back,1,m,Thu Jul 31 2025 13:50:54 GMT-0500 (Central Daylight Time),358558.2999999998,039_o_m_d_a.png,I,m,975,3,2,1774.2999999998137,356784.0,8046,VNB,A,1
2,prac,1,1.0,2-Back,1,z,Thu Jul 31 2025 13:50:54 GMT-0500 (Central Daylight Time),360174.39999999944,165_m_m_h_a.png,I,z,800,4,2,1609.0999999996275,358565.2999999998,8046,VNB,A,2
3,prac,1,0.0,2-Back,1,m,Thu Jul 31 2025 13:50:54 GMT-0500 (Central Daylight Time),361823.7999999998,071_y_f_n_a.png,I,m,832,5,2,1641.5,360182.2999999998,8046,VNB,A,3
4,prac,1,1.0,2-Back,1,z,Thu Jul 31 2025 13:50:54 GMT-0500 (Central Daylight Time),363390.0999999996,039_o_m_h_a.png,I,z,778,6,2,1558.5,361831.5999999996,8046,VNB,A,4
5,prac,1,1.0,2-Back,1,z,Thu Jul 31 2025 13:50:54 GMT-0500 (Central Daylight Time),365589.5,109_y_m_n_a.png,I,z,1385,7,2,2191.2999999998137,363398.2000000002,8046,VNB,A,5
6,prac,1,0.0,2-Back,1,m,Thu Jul 31 2025 13:50:54 GMT-0500 (Central Daylight Time),367172.2999999998,139_m_f_d_a.png,I,m,778,8,2,1575.2000000001863,365597.0999999996,8046,VNB,A,6
7,prac,1,0.0,2-Back,1,m,Thu Jul 31 2025 13:50:54 GMT-0500 (Central Daylight Time),369305.0,124_o_f_d_a.png,I,m,1299,9,2,2124.9000000003725,367180.0999999996,8046,VNB,A,7
8,prac,1,0.0,2-Back,1,m,Thu Jul 31 2025 13:50:54 GMT-0500 (Central Daylight Time),371021.0999999996,165_m_m_h_a.png,I,m,929,10,2,1708.2000000001863,369312.89999999944,8046,VNB,A,8
9,prac,1,1.0,2-Back,1,z,Thu Jul 31 2025 13:50:54 GMT-0500 (Central Daylight Time),372570.5,071_y_f_d_a.png,I,z,747,11,2,1541.2999999998137,371029.2000000002,8046,VNB,A,9
10,prac,1,0.0,2-Back,1,m,Thu Jul 31 2025 13:50:54 GMT-0500 (Central Daylight Time),374253.2999999998,039_o_m_n_a.png,I,m,878,12,2,1675.0999999996275,372578.2000000002,8046,VNB,A,10
0,test,1,0.0,2-Back,,,Thu Jul 31 2025 13:50:54 GMT-0500 (Central Daylight Time),374253.2999999998,109_y_m_h_a.png,I,space,3327,1,2,1675.0999999996275,372578.2000000002,8046,VNB,A,0
0,test,1,0.0,2-Back,,,Thu Jul 31 2025 13:50:54 GMT-0500 (Central Daylight Time),374253.2999999998,124_o_f_n_a.png,I,space,3327,2,2,1675.0999999996275,372578.2000000002,8046,VNB,A,0
1,test,1,0.0,2-Back,1,z,Thu Jul 31 2025 13:50:54 GMT-0500 (Central Daylight Time),390051.89999999944,039_o_m_h_a.png,I,z,710,3,2,1729.699999999255,388322.2000000002,8046,VNB,A,1
2,test,1,0.0,2-Back,1,m,Thu Jul 31 2025 13:50:54 GMT-0500 (Central Daylight Time),391914.39999999944,139_m_f_d_a.png,I,m,849,4,2,1855.3999999994412,390059.0,8046,VNB,A,2
3,test,1,1.0,2-Back,1,m,Thu Jul 31 2025 13:50:54 GMT-0500 (Central Daylight Time),393997.0,109_y_m_n_a.png,I,m,1063,5,2,2075.600000000559,391921.39999999944,8046,VNB,A,3
3,test,1,0.0,2-Back,0,z,Thu Jul 31 2025 13:50:54 GMT-0500 (Central Daylight Time),395963.0,071_y_f_d_a.png,I,m,947,6,2,1959.4000000003725,394003.5999999996,8046,VNB,A,4
4,test,1,0.0,2-Back,1,m,Thu Jul 31 2025 13:50:54 GMT-0500 (Central Daylight Time),398479.0,165_m_m_h_a.png,I,m,1486,7,2,2509.2999999998137,395969.7000000002,8046,VNB,A,5
5,test,1,1.0,2-Back,1,m,Thu Jul 31 2025 13:50:54 GMT-0500 (Central Daylight Time),401094.7999999998,071_y_f_n_a.png,I,m,1586,8,2,2608.9000000003725,398485.89999999944,8046,VNB,A,6
6,test,1,0.0,2-Back,1,z,Thu Jul 31 2025 13:50:54 GMT-0500 (Central Daylight Time),402894.2999999998,124_o_f_h_a.png,I,z,771,9,2,1792.5,401101.7999999998,8046,VNB,A,7
7,test,1,0.0,2-Back,1,m,Thu Jul 31 2025 13:50:54 GMT-0500 (Central Daylight Time),405460.0999999996,039_o_m_d_a.png,I,m,1539,10,2,2558.899999999441,402901.2000000002,8046,VNB,A,8
8,test,1,1.0,2-Back,1,m,Thu Jul 31 2025 13:50:54 GMT-0500 (Central Daylight Time),407809.2999999998,165_m_m_d_a.png,I,m,1325,11,2,2342.2000000001863,405467.0999999996,8046,VNB,A,9
9,test,1,0.0,2-Back,1,m,Thu Jul 31 2025 13:50:54 GMT-0500 (Central Daylight Time),410441.7999999998,139_m_f_n_a.png,I,m,1600,12,2,2625.5,407816.2999999998,8046,VNB,A,10
10,test,1,0.0,2-Back,1,m,Thu Jul 31 2025 13:50:54 GMT-0500 (Central Daylight Time),412458.0,071_y_f_h_a.png,I,m,992,13,2,2009.2999999998137,410448.7000000002,8046,VNB,A,11
10,test,1,0.0,2-Back,0,z,Thu Jul 31 2025 13:50:54 GMT-0500 (Central Daylight Time),415173.7000000002,165_m_m_n_a.png,I,m,1642,14,2,2708.9000000003725,412464.7999999998,8046,VNB,A,12
10,test,1,0.0,2-Back,0,m,Thu Jul 31 2025 13:50:54 GMT-0500 (Central Daylight Time),418206.0999999996,109_y_m_d_a.png,I,None,2016,15,2,3024.899999999441,415181.2000000002,8046,VNB,A,13
11,test,1,1.0,2-Back,1,m,Thu Jul 31 2025 13:50:54 GMT-0500 (Central Daylight Time),420238.7999999998,139_m_f_h_a.png,I,m,1003,16,2,2025.4000000003725,418213.39999999944,8046,VNB,A,14
11,test,1,0.0,2-Back,0,z,Thu Jul 31 2025 13:50:54 GMT-0500 (Central Daylight Time),422521.5,124_o_f_d_a.png,I,m,1250,17,2,2276.100000000559,420245.39999999944,8046,VNB,A,15
12,test,1,0.0,2-Back,1,m,Thu Jul 31 2025 13:50:54 GMT-0500 (Central Daylight Time),424304.0999999996,039_o_m_n_a.png,I,m,759,18,2,1776.0,422528.0999999996,8046,VNB,A,16
0,test,2,0.0,2-Back,,,Thu Jul 31 2025 13:50:54 GMT-0500 (Central Daylight Time),424304.0999999996,165_m_m_h_a.png,I,space,1249,1,2,1776.0,422528.0999999996,8046,VNB,A,0
0,test,2,0.0,2-Back,,,Thu Jul 31 2025 13:50:54 GMT-0500 (Central Daylight Time),424304.0999999996,071_y_f_n_a.png,I,space,1249,2,2,1776.0,422528.0999999996,8046,VNB,A,0
1,test,2,1.0,2-Back,1,z,Thu Jul 31 2025 13:50:54 GMT-0500 (Central Daylight Time),432668.5,124_o_f_h_a.png,I,z,989,3,2,2009.6000000005588,430658.89999999944,8046,VNB,A,1
2,test,2,0.0,2-Back,1,m,Thu Jul 31 2025 13:50:54 GMT-0500 (Central Daylight Time),434817.5999999996,039_o_m_d_a.png,I,m,1132,4,2,2141.7999999998137,432675.7999999998,8046,VNB,A,2
3,test,2,0.0,2-Back,1,m,Thu Jul 31 2025 13:50:54 GMT-0500 (Central Daylight Time),436947.0999999996,139_m_f_d_a.png,I,m,1113,5,2,2122.5999999996275,434824.5,8046,VNB,A,3
4,test,2,0.0,2-Back,1,m,Thu Jul 31 2025 13:50:54 GMT-0500 (Central Daylight Time),439166.2999999998,109_y_m_h_a.png,I,m,1194,6,2,2212.9000000003725,436953.39999999944,8046,VNB,A,4
5,test,2,0.0,2-Back,1,m,Thu Jul 31 2025 13:50:54 GMT-0500 (Central Daylight Time),441832.0,124_o_f_n_a.png,I,m,1634,7,2,2659.100000000559,439172.89999999944,8046,VNB,A,5
6,test,2,1.0,2-Back,1,z,Thu Jul 31 2025 13:50:54 GMT-0500 (Central Daylight Time),443381.5999999996,039_o_m_h_a.png,I,z,529,8,2,1542.7000000001863,441838.89999999944,8046,VNB,A,6
7,test,2,0.0,2-Back,1,m,Thu Jul 31 2025 13:50:54 GMT-0500 (Central Daylight Time),445347.7999999998,071_y_f_d_a.png,I,m,940,9,2,1958.4000000003725,443389.39999999944,8046,VNB,A,7
8,test,2,0.0,2-Back,1,m,Thu Jul 31 2025 13:50:54 GMT-0500 (Central Daylight Time),447480.39999999944,109_y_m_d_a.png,I,m,1110,10,2,2125.399999999441,445355.0,8046,VNB,A,8
9,test,2,0.0,2-Back,1,m,Thu Jul 31 2025 13:50:54 GMT-0500 (Central Daylight Time),450296.2000000002,165_m_m_n_a.png,I,m,1785,11,2,2808.800000000745,447487.39999999944,8046,VNB,A,9
10,test,2,0.0,2-Back,1,m,Thu Jul 31 2025 13:50:54 GMT-0500 (Central Daylight Time),452661.89999999944,139_m_f_h_a.png,I,m,1337,12,2,2358.899999999441,450303.0,8046,VNB,A,10
11,test,2,1.0,2-Back,1,z,Thu Jul 31 2025 13:50:54 GMT-0500 (Central Daylight Time),454678.0,039_o_m_n_a.png,I,z,987,13,2,2009.5,452668.5,8046,VNB,A,11
12,test,2,0.0,2-Back,1,m,Thu Jul 31 2025 13:50:54 GMT-0500 (Central Daylight Time),456727.2999999998,124_o_f_d_a.png,I,m,1028,14,2,2042.2999999998137,454685.0,8046,VNB,A,12
12,test,2,0.0,2-Back,0,m,Thu Jul 31 2025 13:50:54 GMT-0500 (Central Daylight Time),459759.89999999944,071_y_f_h_a.png,I,None,2016,15,2,3026.0999999996275,456733.7999999998,8046,VNB,A,13
12,test,2,0.0,2-Back,0,z,Thu Jul 31 2025 13:50:54 GMT-0500 (Central Daylight Time),461542.39999999944,165_m_m_d_a.png,I,m,762,16,2,1776.0999999996275,459766.2999999998,8046,VNB,A,14
13,test,2,0.0,2-Back,1,m,Thu Jul 31 2025 13:50:54 GMT-0500 (Central Daylight Time),463908.5,109_y_m_n_a.png,I,m,1347,17,2,2359.2000000001863,461549.2999999998,8046,VNB,A,15
13,test,2,1.0,2-Back,0,m,Thu Jul 31 2025 13:50:54 GMT-0500 (Central Daylight Time),466057.89999999944,139_m_f_n_a.png,I,z,1125,18,2,2142.5999999996275,463915.2999999998,8046,VNB,A,16
0,test,3,1.0,2-Back,,,Thu Jul 31 2025 13:50:54 GMT-0500 (Central Daylight Time),466057.89999999944,039_o_m_n_a.png,I,space,1048,1,2,2142.5999999996275,463915.2999999998,8046,VNB,A,0
0,test,3,1.0,2-Back,,,Thu Jul 31 2025 13:50:54 GMT-0500 (Central Daylight Time),466057.89999999944,124_o_f_d_a.png,I,space,1048,2,2,2142.5999999996275,463915.2999999998,8046,VNB,A,0
1,test,3,0.0,2-Back,1,m,Thu Jul 31 2025 13:50:54 GMT-0500 (Central Daylight Time),473888.7000000002,071_y_f_h_a.png,I,m,702,3,2,1726.300000000745,472162.39999999944,8046,VNB,A,1
2,test,3,0.0,2-Back,1,z,Thu Jul 31 2025 13:50:54 GMT-0500 (Central Daylight Time),475721.7999999998,139_m_f_d_a.png,I,z,817,4,2,1826.2999999998137,473895.5,8046,VNB,A,2
3,test,3,1.0,2-Back,1,m,Thu Jul 31 2025 13:50:54 GMT-0500 (Central Daylight Time),477570.7999999998,109_y_m_n_a.png,I,m,832,5,2,1841.5999999996275,475729.2000000002,8046,VNB,A,3
4,test,3,0.0,2-Back,1,m,Thu Jul 31 2025 13:50:54 GMT-0500 (Central Daylight Time),479853.39999999944,039_o_m_h_a.png,I,m,1263,6,2,2275.399999999441,477578.0,8046,VNB,A,4
5,test,3,0.0,2-Back,1,z,Thu Jul 31 2025 13:50:54 GMT-0500 (Central Daylight Time),481786.2000000002,071_y_f_n_a.png,I,z,908,7,2,1925.6000000005588,479860.5999999996,8046,VNB,A,5
6,test,3,1.0,2-Back,1,m,Thu Jul 31 2025 13:50:54 GMT-0500 (Central Daylight Time),483619.0,165_m_m_d_a.png,I,m,807,8,2,1826.2000000001863,481792.7999999998,8046,VNB,A,6
7,test,3,0.0,2-Back,1,m,Thu Jul 31 2025 13:50:54 GMT-0500 (Central Daylight Time),486184.89999999944,109_y_m_d_a.png,I,m,1542,9,2,2558.5999999996275,483626.2999999998,8046,VNB,A,7
8,test,3,0.0,2-Back,1,m,Thu Jul 31 2025 13:50:54 GMT-0500 (Central Daylight Time),488567.39999999944,124_o_f_h_a.png,I,m,1361,10,2,2375.2999999998137,486192.0999999996,8046,VNB,A,8
8,test,3,1.0,2-Back,0,m,Thu Jul 31 2025 13:50:54 GMT-0500 (Central Daylight Time),490466.7999999998,139_m_f_n_a.png,I,z,882,11,2,1892.5,488574.2999999998,8046,VNB,A,9
9,test,3,1.0,2-Back,1,z,Thu Jul 31 2025 13:50:54 GMT-0500 (Central Daylight Time),492232.89999999944,165_m_m_h_a.png,I,z,734,12,2,1759.2999999998137,490473.5999999996,8046,VNB,A,10
10,test,3,0.0,2-Back,1,m,Thu Jul 31 2025 13:50:54 GMT-0500 (Central Daylight Time),494248.7999999998,071_y_f_d_a.png,I,m,993,13,2,2008.7999999998137,492240.0,8046,VNB,A,11
11,test,3,0.0,2-Back,1,m,Thu Jul 31 2025 13:50:54 GMT-0500 (Central Daylight Time),496181.7000000002,124_o_f_n_a.png,I,m,904,14,2,1925.7000000001863,494256.0,8046,VNB,A,12
12,test,3,0.0,2-Back,1,z,Thu Jul 31 2025 13:50:54 GMT-0500 (Central Daylight Time),498397.5999999996,039_o_m_d_a.png,I,z,1196,15,2,2207.2999999998137,496190.2999999998,8046,VNB,A,13
13,test,3,1.0,2-Back,1,m,Thu Jul 31 2025 13:50:54 GMT-0500 (Central Daylight Time),500930.2999999998,139_m_f_h_a.png,I,m,1516,16,2,2525.9000000003725,498404.39999999944,8046,VNB,A,14
13,test,3,0.0,2-Back,0,m,Thu Jul 31 2025 13:50:54 GMT-0500 (Central Daylight Time),503029.5,165_m_m_n_a.png,I,z,1071,17,2,2092.2000000001863,500937.2999999998,8046,VNB,A,15
13,test,3,0.0,2-Back,0,z,Thu Jul 31 2025 13:50:54 GMT-0500 (Central Daylight Time),505162.2000000002,109_y_m_h_a.png,I,m,1107,18,2,2125.9000000003725,503036.2999999998,8046,VNB,A,16
0,test,4,0.0,2-Back,,,Thu Jul 31 2025 13:50:54 GMT-0500 (Central Daylight Time),505162.2000000002,139_m_f_n_a.png,I,space,1263,1,2,2125.9000000003725,503036.2999999998,8046,VNB,A,0
0,test,4,0.0,2-Back,,,Thu Jul 31 2025 13:50:54 GMT-0500 (Central Daylight Time),505162.2000000002,039_o_m_n_a.png,I,space,1263,2,2,2125.9000000003725,503036.2999999998,8046,VNB,A,0
0,test,4,1.0,2-Back,0,m,Thu Jul 31 2025 13:50:54 GMT-0500 (Central Daylight Time),513143.0999999996,109_y_m_h_a.png,I,z,628,3,2,1641.5999999996275,511501.5,8046,VNB,A,1
1,test,4,1.0,2-Back,1,m,Thu Jul 31 2025 13:50:54 GMT-0500 (Central Daylight Time),515058.89999999944,124_o_f_d_a.png,I,m,898,4,2,1909.0999999996275,513149.7999999998,8046,VNB,A,2
2,test,4,0.0,2-Back,1,z,Thu Jul 31 2025 13:50:54 GMT-0500 (Central Daylight Time),517175.0999999996,039_o_m_h_a.png,I,z,1094,5,2,2108.0999999996275,515067.0,8046,VNB,A,3
3,test,4,0.0,2-Back,1,m,Thu Jul 31 2025 13:50:54 GMT-0500 (Central Daylight Time),519124.39999999944,165_m_m_n_a.png,I,m,930,6,2,1942.2999999998137,517182.0999999996,8046,VNB,A,4
4,test,4,0.0,2-Back,1,m,Thu Jul 31 2025 13:50:54 GMT-0500 (Central Daylight Time),521540.2999999998,139_m_f_d_a.png,I,m,1397,7,2,2409.0999999996275,519131.2000000002,8046,VNB,A,5
5,test,4,0.0,2-Back,1,z,Thu Jul 31 2025 13:50:54 GMT-0500 (Central Daylight Time),523872.89999999944,071_y_f_n_a.png,I,z,1301,8,2,2325.5,521547.39999999944,8046,VNB,A,6
6,test,4,1.0,2-Back,1,m,Thu Jul 31 2025 13:50:54 GMT-0500 (Central Daylight Time),525772.2999999998,124_o_f_h_a.png,I,m,880,9,2,1891.7000000001863,523880.5999999996,8046,VNB,A,7
7,test,4,0.0,2-Back,1,m,Thu Jul 31 2025 13:50:54 GMT-0500 (Central Daylight Time),528005.0999999996,165_m_m_h_a.png,I,m,1213,10,2,2226.399999999441,525778.7000000002,8046,VNB,A,8
8,test,4,0.0,2-Back,1,m,Thu Jul 31 2025 13:50:54 GMT-0500 (Central Daylight Time),529721.2000000002,071_y_f_d_a.png,I,m,683,11,2,1709.1000000005588,528012.0999999996,8046,VNB,A,9
9,test,4,0.0,2-Back,1,m,Thu Jul 31 2025 13:50:54 GMT-0500 (Central Daylight Time),531420.5999999996,109_y_m_n_a.png,I,m,671,12,2,1692.5999999996275,529728.0,8046,VNB,A,10
10,test,4,0.0,2-Back,1,z,Thu Jul 31 2025 13:50:54 GMT-0500 (Central Daylight Time),533919.7999999998,039_o_m_d_a.png,I,z,1477,13,2,2491.7000000001863,531428.0999999996,8046,VNB,A,11
11,test,4,1.0,2-Back,1,m,Thu Jul 31 2025 13:50:54 GMT-0500 (Central Daylight Time),536518.8999999994,139_m_f_h_a.png,I,m,1569,14,2,2592.5,533926.3999999994,8046,VNB,A,12
12,test,4,1.0,2-Back,1,m,Thu Jul 31 2025 13:50:54 GMT-0500 (Central Daylight Time),538668.2999999998,071_y_f_h_a.png,I,m,1121,15,2,2142.0,536526.2999999998,8046,VNB,A,13
13,test,4,0.0,2-Back,1,m,Thu Jul 31 2025 13:50:54 GMT-0500 (Central Daylight Time),540501.0,124_o_f_n_a.png,I,m,805,16,2,1825.6000000005588,538675.3999999994,8046,VNB,A,14
13,test,4,0.0,2-Back,0,m,Thu Jul 31 2025 13:50:54 GMT-0500 (Central Daylight Time),543533.5,109_y_m_d_a.png,I,None,2015,17,2,3025.600000000559,540507.8999999994,8046,VNB,A,15
14,test,4,1.0,2-Back,1,m,Thu Jul 31 2025 13:50:54 GMT-0500 (Central Daylight Time),545666.0,165_m_m_d_a.png,I,m,1116,18,2,2125.2999999998137,543540.7000000002,8046,VNB,A,16
0,test,5,1.0,2-Back,,,Thu Jul 31 2025 13:50:54 GMT-0500 (Central Daylight Time),545666.0,071_y_f_d_a.png,I,space,1264,1,2,2125.2999999998137,543540.7000000002,8046,VNB,A,0
0,test,5,1.0,2-Back,,,Thu Jul 31 2025 13:50:54 GMT-0500 (Central Daylight Time),545666.0,124_o_f_h_a.png,I,space,1264,2,2,2125.2999999998137,543540.7000000002,8046,VNB,A,0
0,test,5,1.0,2-Back,0,z,Thu Jul 31 2025 13:50:54 GMT-0500 (Central Daylight Time),554789.0,039_o_m_d_a.png,I,m,1742,3,2,2751.7999999998137,552037.2000000002,8046,VNB,A,1
1,test,5,1.0,2-Back,1,m,Thu Jul 31 2025 13:50:54 GMT-0500 (Central Daylight Time),556812.7000000002,139_m_f_n_a.png,I,m,989,4,2,2016.300000000745,554796.3999999994,8046,VNB,A,2
2,test,5,0.0,2-Back,1,m,Thu Jul 31 2025 13:50:54 GMT-0500 (Central Daylight Time),558845.2999999998,165_m_m_h_a.png,I,m,1004,5,2,2025.5999999996275,556819.7000000002,8046,VNB,A,3
3,test,5,0.0,2-Back,1,z,Thu Jul 31 2025 13:50:54 GMT-0500 (Central Daylight Time),561394.3999999994,071_y_f_n_a.png,I,z,1524,6,2,2542.0,558852.3999999994,8046,VNB,A,4
4,test,5,0.0,2-Back,1,m,Thu Jul 31 2025 13:50:54 GMT-0500 (Central Daylight Time),563993.7000000002,124_o_f_d_a.png,I,m,1583,7,2,2592.7000000001863,561401.0,8046,VNB,A,5
5,test,5,0.0,2-Back,1,m,Thu Jul 31 2025 13:50:54 GMT-0500 (Central Daylight Time),565926.5,039_o_m_h_a.png,I,m,912,8,2,1925.9000000003725,564000.5999999996,8046,VNB,A,6
5,test,5,1.0,2-Back,0,z,Thu Jul 31 2025 13:50:54 GMT-0500 (Central Daylight Time),568425.5999999996,139_m_f_d_a.png,I,m,1467,9,2,2492.0,565933.5999999996,8046,VNB,A,7
5,test,5,0.0,2-Back,0,m,Thu Jul 31 2025 13:50:54 GMT-0500 (Central Daylight Time),570025.0,109_y_m_n_a.png,I,z,576,10,2,1591.1000000005588,568433.8999999994,8046,VNB,A,8
5,test,5,0.0,2-Back,0,m,Thu Jul 31 2025 13:50:54 GMT-0500 (Central Daylight Time),572207.5999999996,165_m_m_n_a.png,I,z,1160,11,2,2175.399999999441,570032.2000000002,8046,VNB,A,9
6,test,5,0.0,2-Back,1,m,Thu Jul 31 2025 13:50:54 GMT-0500 (Central Daylight Time),574274.0,071_y_f_h_a.png,I,m,1050,12,2,2059.2999999998137,572214.7000000002,8046,VNB,A,10
7,test,5,0.0,2-Back,1,m,Thu Jul 31 2025 13:50:54 GMT-0500 (Central Daylight Time),576089.7999999998,109_y_m_d_a.png,I,m,800,13,2,1808.4000000003725,574281.3999999994,8046,VNB,A,11
8,test,5,1.0,2-Back,1,z,Thu Jul 31 2025 13:50:54 GMT-0500 (Central Daylight Time),578489.0999999996,139_m_f_h_a.png,I,z,1375,14,2,2391.5,576097.5999999996,8046,VNB,A,12
9,test,5,0.0,2-Back,1,m,Thu Jul 31 2025 13:50:54 GMT-0500 (Central Daylight Time),580805.0999999996,039_o_m_n_a.png,I,m,1288,15,2,2309.2000000001863,578495.8999999994,8046,VNB,A,13
10,test,5,0.0,2-Back,1,m,Thu Jul 31 2025 13:50:54 GMT-0500 (Central Daylight Time),582854.3999999994,165_m_m_d_a.png,I,m,1019,16,2,2042.2999999998137,580812.0999999996,8046,VNB,A,14
10,test,5,0.0,2-Back,0,z,Thu Jul 31 2025 13:50:54 GMT-0500 (Central Daylight Time),585020.3999999994,124_o_f_n_a.png,I,m,1146,17,2,2158.7999999998137,582861.5999999996,8046,VNB,A,15
11,test,5,1.0,2-Back,1,m,Thu Jul 31 2025 13:50:54 GMT-0500 (Central Daylight Time),587436.2999999998,109_y_m_h_a.png,I,m,1397,18,2,2408.7999999998137,585027.5,8046,VNB,A,16
