Q,Q1,Q2,Q3,Q4,acc_sum,block,block_c,correct,correct_response,datetime,endtime,project,response,response_time,row_sel,session_number,squiggle1,squiggle1x,squiggle1y,squiggle2,squiggle2x,squiggle2y,squiggle3,squiggle3x,squiggle3y,squiggle4,squiggle4x,squiggle4y,start_end,starttime,subject_id,target_congruent,task,task_vers,testsquiggle,testsquigglex,testsquiggley,time_practice_delay,time_practice_fixation,time_practice_stimuli,time_practice_study,time_test_delay,time_test_fixation,time_test_stimuli,time_test_study,trial
1,1,0,0,0,0,prac,1,0,z,Fri Jun 20 2025 16:24:04 GMT-0500 (Central Daylight Time),128095.30000000447,O,None,2013,1,1,66.bmp,-120,-120,67.bmp,120,-120,68.bmp,-120,120,69.bmp,120,120,10797.5,117297.80000000447,7167,yes,SM,C,66.bmp,-120,-120,118153,112137,120155,114152,,,,,1
3,0,0,1,0,1,prac,1,1,m,Fri Jun 20 2025 16:24:04 GMT-0500 (Central Daylight Time),138342.5,O,m,1443,2,1,70.bmp,-120,-120,71.bmp,120,-120,72.bmp,-120,120,73.bmp,120,120,10242.89999999851,128099.60000000149,7167,no,SM,C,73.bmp,-120,120,128949,122939,130965,124948,,,,,2
4,0,0,0,1,1,prac,1,0,m,Fri Jun 20 2025 16:24:04 GMT-0500 (Central Daylight Time),149170.6000000015,O,None,2018,3,1,74.bmp,-120,-120,75.bmp,120,-120,76.bmp,-120,120,77.bmp,120,120,10824.29999999702,138346.30000000447,7167,no,SM,C,74.bmp,120,120,139212,133186,141226,135197,,,,,3
2,0,1,0,0,1,prac,1,0,z,Fri Jun 20 2025 16:24:04 GMT-0500 (Central Daylight Time),159367.6000000015,O,m,1382,4,1,78.bmp,-120,-120,79.bmp,120,-120,80.bmp,-120,120,81.bmp,120,120,10191.79999999702,149175.80000000447,7167,yes,SM,C,79.bmp,120,-120,150041,144015,152058,146027,,,,,4
3,0,0,1,0,1,prac,1,0,z,Fri Jun 20 2025 16:24:04 GMT-0500 (Central Daylight Time),170197.40000000596,O,None,2015,5,1,82.bmp,-120,-120,83.bmp,120,-120,84.bmp,-120,120,85.bmp,120,120,10824.60000000149,159372.80000000447,7167,yes,SM,C,84.bmp,-120,120,160239,154212,162256,156224,,,,,5
1,1,0,0,0,2,prac,1,1,m,Fri Jun 20 2025 16:24:04 GMT-0500 (Central Daylight Time),180460.20000000298,O,m,1444,6,1,86.bmp,-120,-120,87.bmp,120,-120,88.bmp,-120,120,89.bmp,120,120,10257.39999999851,170202.80000000447,7167,no,SM,C,89.bmp,-120,-120,171068,165042,173084,167053,,,,,6
2,0,1,0,0,2,prac,1,0,m,Fri Jun 20 2025 16:24:04 GMT-0500 (Central Daylight Time),191290.30000000447,O,None,2013,7,1,90.bmp,-120,-120,91.bmp,120,-120,92.bmp,-120,120,93.bmp,120,120,10825.0,180465.30000000447,7167,no,SM,C,90.bmp,120,-120,181332,175305,183350,177317,,,,,7
4,0,0,0,1,2,prac,1,0,z,Fri Jun 20 2025 16:24:04 GMT-0500 (Central Daylight Time),201821.80000000447,O,m,1708,8,1,94.bmp,-120,-120,95.bmp,120,-120,96.bmp,-120,120,97.bmp,120,120,10526.5,191295.30000000447,7167,yes,SM,C,97.bmp,120,120,192161,186135,194179,188147,,,,,8
1,1,0,0,0,0,prac,2,0,z,Fri Jun 20 2025 16:24:04 GMT-0500 (Central Daylight Time),216849.6000000015,O,None,2016,1,1,66.bmp,-120,-120,67.bmp,120,-120,68.bmp,-120,120,69.bmp,120,120,10826.89999999851,206022.70000000298,7167,yes,SM,C,66.bmp,-120,-120,206890,200862,208906,202876,,,,,1
3,0,0,1,0,1,prac,2,1,m,Fri Jun 20 2025 16:24:04 GMT-0500 (Central Daylight Time),227213.80000000447,O,m,1535,2,1,70.bmp,-120,-120,71.bmp,120,-120,72.bmp,-120,120,73.bmp,120,120,10359.60000000149,216854.20000000298,7167,no,SM,C,73.bmp,-120,120,217721,211693,219737,213706,,,,,2
4,0,0,0,1,1,prac,2,0,m,Fri Jun 20 2025 16:24:04 GMT-0500 (Central Daylight Time),237611.20000000298,O,z,1572,3,1,74.bmp,-120,-120,75.bmp,120,-120,76.bmp,-120,120,77.bmp,120,120,10393.29999999702,227217.90000000596,7167,no,SM,C,74.bmp,120,120,228083,222057,230100,224069,,,,,3
2,0,1,0,0,1,prac,2,0,z,Fri Jun 20 2025 16:24:04 GMT-0500 (Central Daylight Time),248006.1000000015,O,m,1565,4,1,78.bmp,-120,-120,79.bmp,120,-120,80.bmp,-120,120,81.bmp,120,120,10389.89999999851,237616.20000000298,7167,yes,SM,C,79.bmp,120,-120,238482,232455,240498,234465,,,,,4
3,0,0,1,0,2,prac,2,1,z,Fri Jun 20 2025 16:24:04 GMT-0500 (Central Daylight Time),258269.6000000015,O,z,1434,5,1,82.bmp,-120,-120,83.bmp,120,-120,84.bmp,-120,120,85.bmp,120,120,10258.79999999702,248010.80000000447,7167,yes,SM,C,84.bmp,-120,120,248876,242850,250894,244862,,,,,5
1,1,0,0,0,2,prac,2,0,m,Fri Jun 20 2025 16:24:04 GMT-0500 (Central Daylight Time),268433.700000003,O,z,1334,6,1,86.bmp,-120,-120,87.bmp,120,-120,88.bmp,-120,120,89.bmp,120,120,10158.39999999851,258275.30000000447,7167,no,SM,C,89.bmp,-120,-120,259141,253115,261155,255125,,,,,6
2,0,1,0,0,3,prac,2,1,m,Fri Jun 20 2025 16:24:04 GMT-0500 (Central Daylight Time),278496.1000000015,O,m,1234,7,1,90.bmp,-120,-120,91.bmp,120,-120,92.bmp,-120,120,93.bmp,120,120,10058.39999999851,268437.700000003,7167,no,SM,C,90.bmp,120,-120,269304,263277,271321,265288,,,,,7
4,0,0,0,1,3,prac,2,0,z,Fri Jun 20 2025 16:24:04 GMT-0500 (Central Daylight Time),289311.6000000015,O,None,2014,8,1,94.bmp,-120,-120,95.bmp,120,-120,96.bmp,-120,120,97.bmp,120,120,10812.79999999702,278498.80000000447,7167,yes,SM,C,97.bmp,120,120,279369,273338,281384,275354,,,,,8
1,1,0,0,0,1,prac,3,1,z,Fri Jun 20 2025 16:24:04 GMT-0500 (Central Daylight Time),304605.30000000447,O,z,1268,1,1,66.bmp,-120,-120,67.bmp,120,-120,68.bmp,-120,120,69.bmp,120,120,10091.80000000447,294513.5,7167,yes,SM,C,66.bmp,-120,-120,295378,289353,297396,291364,,,,,1
3,0,0,1,0,2,prac,3,1,m,Fri Jun 20 2025 16:24:04 GMT-0500 (Central Daylight Time),314702.6000000015,O,m,1274,2,1,70.bmp,-120,-120,71.bmp,120,-120,72.bmp,-120,120,73.bmp,120,120,10092.5,304610.1000000015,7167,no,SM,C,73.bmp,-120,120,305475,299450,307494,301460,,,,,2
4,0,0,0,1,3,prac,3,1,m,Fri Jun 20 2025 16:24:04 GMT-0500 (Central Daylight Time),325313.700000003,O,m,1784,3,1,74.bmp,-120,-120,75.bmp,120,-120,76.bmp,-120,120,77.bmp,120,120,10606.29999999702,314707.40000000596,7167,no,SM,C,74.bmp,120,120,315573,309547,317588,311557,,,,,3
2,0,1,0,0,4,prac,3,1,z,Fri Jun 20 2025 16:24:04 GMT-0500 (Central Daylight Time),335561.6000000015,O,z,1422,4,1,78.bmp,-120,-120,79.bmp,120,-120,80.bmp,-120,120,81.bmp,120,120,10243.69999999553,325317.90000000596,7167,yes,SM,C,79.bmp,120,-120,326187,320157,328202,322171,,,,,4
3,0,0,1,0,5,prac,3,1,z,Fri Jun 20 2025 16:24:04 GMT-0500 (Central Daylight Time),345626.90000000596,O,z,1264,5,1,82.bmp,-120,-120,83.bmp,120,-120,84.bmp,-120,120,85.bmp,120,120,10061.90000000596,335565.0,7167,yes,SM,C,84.bmp,-120,120,336433,330404,338449,332417,,,,,5
1,1,0,0,0,6,prac,3,1,m,Fri Jun 20 2025 16:24:04 GMT-0500 (Central Daylight Time),355804.40000000596,O,m,1359,6,1,86.bmp,-120,-120,87.bmp,120,-120,88.bmp,-120,120,89.bmp,120,120,10174.40000000596,345630.0,7167,no,SM,C,89.bmp,-120,-120,346496,340469,348512,342482,,,,,6
2,0,1,0,0,6,prac,3,0,m,Fri Jun 20 2025 16:24:04 GMT-0500 (Central Daylight Time),366184.5,O,z,1558,7,1,90.bmp,-120,-120,91.bmp,120,-120,92.bmp,-120,120,93.bmp,120,120,10376.09999999404,355808.40000000596,7167,no,SM,C,90.bmp,120,-120,356676,350648,358691,352660,,,,,7
4,0,0,0,1,6,prac,3,0,z,Fri Jun 20 2025 16:24:04 GMT-0500 (Central Daylight Time),376998.200000003,O,None,2001,8,1,94.bmp,-120,-120,95.bmp,120,-120,96.bmp,-120,120,97.bmp,120,120,10808.89999999851,366189.30000000447,7167,yes,SM,C,97.bmp,120,120,367056,361029,369072,363042,,,,,8
4,0,0,0,1,1,test,1,1,m,Fri Jun 20 2025 16:24:04 GMT-0500 (Central Daylight Time),394943.30000000447,O,m,1600,1,1,98.bmp,-120,-120,99.bmp,120,-120,100.bmp,-120,120,93.bmp,120,120,9661.39999999851,385281.90000000596,7167,yes,SM,C,100.bmp,120,120,367056,361029,369072,363042,386151.0,380121.0,388167.0,382135.0,1
2,0,1,0,0,1,test,1,0,m,Fri Jun 20 2025 16:24:04 GMT-0500 (Central Daylight Time),405005.90000000596,O,None,2015,2,1,51.bmp,-120,-120,52.bmp,120,-120,53.bmp,-120,120,54.bmp,120,120,10056.80000000447,394949.1000000015,7167,yes,SM,C,53.bmp,120,-120,367056,361029,369072,363042,395813.0,389788.0,397830.0,391798.0,2
1,1,0,0,0,2,test,1,1,z,Fri Jun 20 2025 16:24:04 GMT-0500 (Central Daylight Time),414502.6000000015,O,z,1441,3,1,55.bmp,-120,-120,56.bmp,120,-120,57.bmp,-120,120,58.bmp,120,120,9490.5,405012.1000000015,7167,yes,SM,C,55.bmp,-120,-120,367056,361029,369072,363042,405877.0,399851.0,407895.0,401863.0,3
3,0,0,1,0,3,test,1,1,m,Fri Jun 20 2025 16:24:04 GMT-0500 (Central Daylight Time),424200.1000000015,O,m,1634,4,1,59.bmp,-120,-120,60.bmp,120,-120,61.bmp,-120,120,62.bmp,120,120,9691.0,414509.1000000015,7167,yes,SM,C,59.bmp,-120,120,367056,361029,369072,363042,415374.0,409349.0,417390.0,411359.0,4
2,0,1,0,0,4,test,1,1,z,Fri Jun 20 2025 16:24:04 GMT-0500 (Central Daylight Time),433947.40000000596,O,z,1696,5,1,63.bmp,-120,-120,64.bmp,120,-120,65.bmp,-120,120,66.bmp,120,120,9741.30000000447,424206.1000000015,7167,yes,SM,C,64.bmp,120,-120,367056,361029,369072,363042,425071.0,419045.0,427088.0,421056.0,5
3,0,0,1,0,4,test,1,0,z,Fri Jun 20 2025 16:24:04 GMT-0500 (Central Daylight Time),443577.90000000596,O,m,1567,6,1,67.bmp,-120,-120,68.bmp,120,-120,69.bmp,-120,120,70.bmp,120,120,9626.20000000298,433951.700000003,7167,yes,SM,C,69.bmp,-120,120,367056,361029,369072,363042,434817.0,428791.0,436835.0,430803.0,6
4,0,0,0,1,5,test,1,1,z,Fri Jun 20 2025 16:24:04 GMT-0500 (Central Daylight Time),452724.1000000015,O,z,1087,7,1,71.bmp,-120,-120,72.bmp,120,-120,73.bmp,-120,120,74.bmp,120,120,9142.89999999851,443581.200000003,7167,yes,SM,C,74.bmp,120,120,367056,361029,369072,363042,444449.0,438420.0,446464.0,440433.0,7
2,0,1,0,0,6,test,1,1,m,Fri Jun 20 2025 16:24:04 GMT-0500 (Central Daylight Time),461957.700000003,O,m,1183,8,1,75.bmp,-120,-120,76.bmp,120,-120,77.bmp,-120,120,78.bmp,120,120,9230.0,452727.700000003,7167,yes,SM,C,75.bmp,120,-120,367056,361029,369072,363042,453596.0,447567.0,455613.0,449581.0,8
3,0,0,1,0,7,test,1,1,m,Fri Jun 20 2025 16:24:04 GMT-0500 (Central Daylight Time),471534.5,O,m,1525,9,1,79.bmp,-120,-120,80.bmp,120,-120,81.bmp,-120,120,82.bmp,120,120,9572.79999999702,461961.700000003,7167,yes,SM,C,80.bmp,-120,120,367056,361029,369072,363042,462826.0,456801.0,464843.0,458811.0,9
4,0,0,0,1,8,test,1,1,z,Fri Jun 20 2025 16:24:04 GMT-0500 (Central Daylight Time),481497.30000000447,O,z,1921,10,1,87.bmp,-120,-120,88.bmp,120,-120,89.bmp,-120,120,90.bmp,120,120,9959.20000000298,471538.1000000015,7167,yes,SM,C,90.bmp,120,120,367056,361029,369072,363042,472406.0,466377.0,474407.0,468390.0,10
3,0,0,1,0,9,test,1,1,z,Fri Jun 20 2025 16:24:04 GMT-0500 (Central Daylight Time),490912.80000000447,O,z,1366,11,1,83.bmp,-120,-120,84.bmp,120,-120,85.bmp,-120,120,86.bmp,120,120,9411.30000000447,481501.5,7167,yes,SM,C,85.bmp,-120,120,367056,361029,369072,363042,482370.0,476341.0,484386.0,478355.0,11
2,0,1,0,0,9,test,1,0,m,Fri Jun 20 2025 16:24:04 GMT-0500 (Central Daylight Time),500975.6000000015,O,None,2015,12,1,91.bmp,-120,-120,92.bmp,120,-120,93.bmp,-120,120,94.bmp,120,120,10059.29999999702,490916.30000000447,7167,yes,SM,C,91.bmp,120,-120,367056,361029,369072,363042,491784.0,485755.0,493799.0,487767.0,12
3,0,0,1,0,10,test,1,1,m,Fri Jun 20 2025 16:24:04 GMT-0500 (Central Daylight Time),510524.6000000015,O,m,1508,13,1,95.bmp,-120,-120,96.bmp,120,-120,97.bmp,-120,120,98.bmp,120,120,9545.79999999702,500978.80000000447,7167,yes,SM,C,96.bmp,-120,120,367056,361029,369072,363042,501830.0,495818.0,503845.0,497828.0,13
1,1,0,0,0,11,test,1,1,z,Fri Jun 20 2025 16:24:04 GMT-0500 (Central Daylight Time),520069.5,O,z,1486,14,1,99.bmp,-120,-120,100.bmp,120,-120,54.bmp,-120,120,51.bmp,120,120,9540.5,510529.0,7167,yes,SM,C,99.bmp,-120,-120,367056,361029,369072,363042,511395.0,505368.0,513410.0,507378.0,14
4,0,0,0,1,12,test,1,1,m,Fri Jun 20 2025 16:24:04 GMT-0500 (Central Daylight Time),529499.400000006,O,m,1379,15,1,60.bmp,-120,-120,61.bmp,120,-120,62.bmp,-120,120,63.bmp,120,120,9425.70000000298,520073.700000003,7167,yes,SM,C,61.bmp,120,120,367056,361029,369072,363042,520941.0,514913.0,522959.0,516925.0,15
1,1,0,0,0,13,test,1,1,m,Fri Jun 20 2025 16:24:04 GMT-0500 (Central Daylight Time),538830.3000000045,O,m,1268,16,1,52.bmp,-120,-120,53.bmp,120,-120,54.bmp,-120,120,55.bmp,120,120,9327.20000000298,529503.1000000015,7167,yes,SM,C,55.bmp,-120,-120,367056,361029,369072,363042,530371.0,524342.0,532387.0,526357.0,16
3,0,0,1,0,14,test,1,1,m,Fri Jun 20 2025 16:24:04 GMT-0500 (Central Daylight Time),548012.0,O,m,1133,17,1,72.bmp,-120,-120,73.bmp,120,-120,74.bmp,-120,120,75.bmp,120,120,9178.19999999553,538833.8000000045,7167,yes,SM,C,72.bmp,-120,120,367056,361029,369072,363042,539701.0,533673.0,541718.0,535686.0,17
1,1,0,0,0,15,test,1,1,z,Fri Jun 20 2025 16:24:04 GMT-0500 (Central Daylight Time),557974.400000006,O,z,1902,18,1,56.bmp,-120,-120,57.bmp,120,-120,58.bmp,-120,120,59.bmp,120,120,9958.0,548016.400000006,7167,yes,SM,C,56.bmp,-120,-120,367056,361029,369072,363042,548882.0,542856.0,550898.0,544867.0,18
2,0,1,0,0,16,test,1,1,z,Fri Jun 20 2025 16:24:04 GMT-0500 (Central Daylight Time),567337.6000000015,O,z,1306,19,1,76.bmp,-120,-120,77.bmp,120,-120,78.bmp,-120,120,79.bmp,120,120,9359.79999999702,557977.8000000045,7167,yes,SM,C,77.bmp,120,-120,367056,361029,369072,363042,558845.0,552817.0,560862.0,554831.0,19
3,0,0,1,0,17,test,1,1,z,Fri Jun 20 2025 16:24:04 GMT-0500 (Central Daylight Time),576585.8000000045,O,z,1199,20,1,80.bmp,-120,-120,81.bmp,120,-120,82.bmp,-120,120,83.bmp,120,120,9244.80000000447,567341.0,7167,yes,SM,C,82.bmp,-120,120,367056,361029,369072,363042,568209.0,562180.0,570226.0,564195.0,20
1,1,0,0,0,18,test,1,1,m,Fri Jun 20 2025 16:24:04 GMT-0500 (Central Daylight Time),585799.3000000045,O,m,1151,21,1,64.bmp,-120,-120,65.bmp,120,-120,66.bmp,-120,120,67.bmp,120,120,9210.10000000149,576589.200000003,7167,yes,SM,C,66.bmp,-120,-120,367056,361029,369072,363042,577455.0,571428.0,579472.0,573440.0,21
4,0,0,0,1,18,test,1,0,z,Fri Jun 20 2025 16:24:04 GMT-0500 (Central Daylight Time),595245.3000000045,O,m,1386,22,1,68.bmp,-120,-120,69.bmp,120,-120,70.bmp,-120,120,71.bmp,120,120,9441.89999999851,585803.400000006,7167,yes,SM,C,71.bmp,120,120,367056,361029,369072,363042,586670.0,580643.0,588686.0,582656.0,22
1,1,0,0,0,19,test,1,1,m,Fri Jun 20 2025 16:24:04 GMT-0500 (Central Daylight Time),604626.400000006,O,m,1323,23,1,84.bmp,-120,-120,85.bmp,120,-120,86.bmp,-120,120,87.bmp,120,120,9377.30000000447,595249.1000000015,7167,yes,SM,C,87.bmp,-120,-120,367056,361029,369072,363042,596117.0,590088.0,598133.0,592101.0,23
2,0,1,0,0,20,test,1,1,z,Fri Jun 20 2025 16:24:04 GMT-0500 (Central Daylight Time),614189.200000003,O,z,1504,24,1,92.bmp,-120,-120,93.bmp,120,-120,94.bmp,-120,120,95.bmp,120,120,9560.29999999702,604628.900000006,7167,yes,SM,C,93.bmp,120,-120,367056,361029,369072,363042,605497.0,599468.0,607512.0,601482.0,24
4,0,0,0,1,20,test,1,0,m,Fri Jun 20 2025 16:24:04 GMT-0500 (Central Daylight Time),624252.900000006,O,None,2016,25,1,96.bmp,-120,-120,97.bmp,120,-120,98.bmp,-120,120,99.bmp,120,120,10060.0,614192.900000006,7167,yes,SM,C,98.bmp,120,120,367056,361029,369072,363042,615060.0,609032.0,617076.0,611045.0,25
1,1,0,0,0,20,test,1,0,z,Fri Jun 20 2025 16:24:04 GMT-0500 (Central Daylight Time),633383.8000000045,O,m,1067,26,1,88.bmp,-120,-120,89.bmp,120,-120,90.bmp,-120,120,91.bmp,120,120,9127.60000000149,624256.200000003,7167,yes,SM,C,88.bmp,-120,-120,367056,361029,369072,363042,625124.0,619095.0,627140.0,621109.0,26
4,0,0,0,1,21,test,1,1,z,Fri Jun 20 2025 16:24:04 GMT-0500 (Central Daylight Time),643229.3000000045,O,z,1784,27,1,100.bmp,-120,-120,61.bmp,120,-120,51.bmp,-120,120,52.bmp,120,120,9841.5,633387.8000000045,7167,yes,SM,C,52.bmp,120,120,367056,361029,369072,363042,634256.0,628227.0,636271.0,630239.0,27
3,0,0,1,0,21,test,1,0,m,Fri Jun 20 2025 16:24:04 GMT-0500 (Central Daylight Time),652827.200000003,O,z,1551,28,1,53.bmp,-120,-120,54.bmp,120,-120,55.bmp,-120,120,56.bmp,120,120,9593.79999999702,643233.400000006,7167,yes,SM,C,53.bmp,-120,120,367056,361029,369072,363042,644101.0,638073.0,646115.0,640085.0,28
2,0,1,0,0,22,test,1,1,z,Fri Jun 20 2025 16:24:04 GMT-0500 (Central Daylight Time),662173.1000000015,O,z,1301,29,1,57.bmp,-120,-120,58.bmp,120,-120,59.bmp,-120,120,60.bmp,120,120,9341.5,652831.6000000015,7167,yes,SM,C,58.bmp,120,-120,367056,361029,369072,363042,653682.0,647671.0,655699.0,649680.0,29
3,0,0,1,0,23,test,1,1,z,Fri Jun 20 2025 16:24:04 GMT-0500 (Central Daylight Time),671688.200000003,O,z,1449,30,1,61.bmp,-120,-120,62.bmp,120,-120,63.bmp,-120,120,64.bmp,120,120,9511.89999999851,662176.3000000045,7167,yes,SM,C,63.bmp,-120,120,367056,361029,369072,363042,663046.0,657016.0,665062.0,659030.0,30
1,1,0,0,0,24,test,1,1,z,Fri Jun 20 2025 16:24:04 GMT-0500 (Central Daylight Time),681033.200000003,O,z,1298,31,1,65.bmp,-120,-120,66.bmp,120,-120,67.bmp,-120,120,68.bmp,120,120,9341.10000000149,671692.1000000015,7167,yes,SM,C,65.bmp,-120,-120,367056,361029,369072,363042,672559.0,666532.0,674574.0,668544.0,31
2,0,1,0,0,25,test,1,1,m,Fri Jun 20 2025 16:24:04 GMT-0500 (Central Daylight Time),690466.700000003,O,m,1385,32,1,69.bmp,-120,-120,70.bmp,120,-120,71.bmp,-120,120,72.bmp,120,120,9431.39999999851,681035.3000000045,7167,yes,SM,C,69.bmp,120,-120,367056,361029,369072,363042,681906.0,675875.0,683921.0,677891.0,32
4,0,0,0,1,26,test,1,1,z,Fri Jun 20 2025 16:24:04 GMT-0500 (Central Daylight Time),699929.3000000045,O,z,1399,33,1,81.bmp,-120,-120,82.bmp,120,-120,83.bmp,-120,120,84.bmp,120,120,9459.80000000447,690469.5,7167,yes,SM,C,84.bmp,120,120,367056,361029,369072,363042,691337.0,685309.0,693354.0,687321.0,33
2,0,1,0,0,27,test,1,1,z,Fri Jun 20 2025 16:24:04 GMT-0500 (Central Daylight Time),709059.5,O,z,1088,34,1,73.bmp,-120,-120,74.bmp,120,-120,75.bmp,-120,120,76.bmp,120,120,9126.59999999404,699932.900000006,7167,yes,SM,C,74.bmp,120,-120,367056,361029,369072,363042,700799.0,694772.0,702800.0,696784.0,34
4,0,0,0,1,27,test,1,0,m,Fri Jun 20 2025 16:24:04 GMT-0500 (Central Daylight Time),718572.700000003,O,z,1453,35,1,77.bmp,-120,-120,78.bmp,120,-120,79.bmp,-120,120,80.bmp,120,120,9510.10000000149,709062.6000000015,7167,yes,SM,C,79.bmp,120,120,367056,361029,369072,363042,709931.0,703902.0,711947.0,705915.0,35
3,0,0,1,0,28,test,1,1,m,Fri Jun 20 2025 16:24:04 GMT-0500 (Central Daylight Time),727872.700000003,O,m,1236,36,1,85.bmp,-120,-120,86.bmp,120,-120,87.bmp,-120,120,88.bmp,120,120,9295.89999999851,718576.8000000045,7167,yes,SM,C,85.bmp,-120,120,367056,361029,369072,363042,719444.0,713416.0,721460.0,715429.0,36
1,1,0,0,0,29,test,1,1,m,Fri Jun 20 2025 16:24:04 GMT-0500 (Central Daylight Time),737466.900000006,O,m,1537,37,1,89.bmp,-120,-120,90.bmp,120,-120,91.bmp,-120,120,92.bmp,120,120,9590.90000000596,727876.0,7167,yes,SM,C,90.bmp,-120,-120,367056,361029,369072,363042,728741.0,722715.0,730759.0,724726.0,37
2,0,1,0,0,30,test,1,1,m,Fri Jun 20 2025 16:24:04 GMT-0500 (Central Daylight Time),746596.6000000015,O,m,1079,38,1,93.bmp,-120,-120,94.bmp,120,-120,95.bmp,-120,120,96.bmp,120,120,9126.5,737470.1000000015,7167,yes,SM,C,95.bmp,120,-120,367056,361029,369072,363042,738337.0,732309.0,740352.0,734323.0,38
4,0,0,0,1,30,test,1,0,z,Fri Jun 20 2025 16:24:04 GMT-0500 (Central Daylight Time),756661.3000000045,O,None,2015,39,1,97.bmp,-120,-120,98.bmp,120,-120,99.bmp,-120,120,100.bmp,120,120,10062.70000000298,746598.6000000015,7167,yes,SM,C,100.bmp,120,120,367056,361029,369072,363042,747469.0,741438.0,749485.0,743453.0,39
3,0,0,1,0,31,test,1,1,m,Fri Jun 20 2025 16:24:04 GMT-0500 (Central Daylight Time),765690.6000000015,O,m,972,40,1,54.bmp,-120,-120,55.bmp,120,-120,56.bmp,-120,120,57.bmp,120,120,9021.89999999851,756668.700000003,7167,yes,SM,C,55.bmp,-120,120,367056,361029,369072,363042,757532.0,751508.0,759548.0,753516.0,40
1,1,0,0,0,32,test,1,1,z,Fri Jun 20 2025 16:24:04 GMT-0500 (Central Daylight Time),775021.700000003,O,z,1276,41,1,58.bmp,-120,-120,59.bmp,120,-120,60.bmp,-120,120,61.bmp,120,120,9325.5,765696.200000003,7167,yes,SM,C,58.bmp,-120,-120,367056,361029,369072,363042,766563.0,760535.0,768580.0,762547.0,41
4,0,0,0,1,33,test,1,1,z,Fri Jun 20 2025 16:24:04 GMT-0500 (Central Daylight Time),784285.3000000045,O,z,1218,42,1,62.bmp,-120,-120,63.bmp,120,-120,64.bmp,-120,120,65.bmp,120,120,9258.80000000447,775026.5,7167,yes,SM,C,65.bmp,120,120,367056,361029,369072,363042,775892.0,769866.0,777893.0,771878.0,42
1,1,0,0,0,34,test,1,1,z,Fri Jun 20 2025 16:24:04 GMT-0500 (Central Daylight Time),793899.200000003,O,z,1564,43,1,66.bmp,-120,-120,67.bmp,120,-120,68.bmp,-120,120,69.bmp,120,120,9610.5,784288.700000003,7167,yes,SM,C,66.bmp,-120,-120,367056,361029,369072,363042,785156.0,779128.0,787173.0,781141.0,43
4,0,0,0,1,34,test,1,0,m,Fri Jun 20 2025 16:24:04 GMT-0500 (Central Daylight Time),803794.900000006,O,z,1836,44,1,54.bmp,-120,-120,51.bmp,120,-120,52.bmp,-120,120,53.bmp,120,120,9890.20000000298,793904.700000003,7167,yes,SM,C,54.bmp,120,120,367056,361029,369072,363042,794771.0,788744.0,796788.0,790755.0,44
1,1,0,0,0,35,test,1,1,m,Fri Jun 20 2025 16:24:04 GMT-0500 (Central Daylight Time),812993.1000000015,O,m,1133,45,1,78.bmp,-120,-120,79.bmp,120,-120,80.bmp,-120,120,81.bmp,120,120,9194.5,803798.6000000015,7167,yes,SM,C,81.bmp,-120,-120,367056,361029,369072,363042,804666.0,798638.0,806683.0,800651.0,45
1,1,0,0,0,35,test,1,0,m,Fri Jun 20 2025 16:24:04 GMT-0500 (Central Daylight Time),822273.1000000015,O,z,1225,46,1,70.bmp,-120,-120,71.bmp,120,-120,72.bmp,-120,120,73.bmp,120,120,9276.60000000149,812996.5,7167,yes,SM,C,71.bmp,-120,-120,367056,361029,369072,363042,813864.0,807836.0,815879.0,809849.0,46
3,0,0,1,0,36,test,1,1,z,Fri Jun 20 2025 16:24:04 GMT-0500 (Central Daylight Time),831570.0,O,z,1254,47,1,74.bmp,-120,-120,75.bmp,120,-120,76.bmp,-120,120,77.bmp,120,120,9293.59999999404,822276.400000006,7167,yes,SM,C,76.bmp,-120,120,367056,361029,369072,363042,823144.0,817116.0,825146.0,819131.0,47
3,0,0,1,0,37,test,1,1,z,Fri Jun 20 2025 16:24:04 GMT-0500 (Central Daylight Time),840717.200000003,O,z,1085,48,1,90.bmp,-120,-120,91.bmp,120,-120,92.bmp,-120,120,93.bmp,120,120,9142.89999999851,831574.3000000045,7167,yes,SM,C,92.bmp,-120,120,367056,361029,369072,363042,832442.0,826414.0,834458.0,828426.0,48
2,0,1,0,0,38,test,1,1,z,Fri Jun 20 2025 16:24:04 GMT-0500 (Central Daylight Time),849997.5,O,z,1245,49,1,86.bmp,-120,-120,87.bmp,120,-120,88.bmp,-120,120,89.bmp,120,120,9275.59999999404,840721.900000006,7167,yes,SM,C,87.bmp,120,-120,367056,361029,369072,363042,841587.0,835561.0,843588.0,837573.0,49
3,0,0,1,0,39,test,1,1,m,Fri Jun 20 2025 16:24:04 GMT-0500 (Central Daylight Time),859095.1000000015,O,m,1034,50,1,82.bmp,-120,-120,83.bmp,120,-120,84.bmp,-120,120,85.bmp,120,120,9094.19999999553,850000.900000006,7167,yes,SM,C,82.bmp,-120,120,367056,361029,369072,363042,850869.0,844840.0,852885.0,846854.0,50
2,0,1,0,0,40,test,1,1,z,Fri Jun 20 2025 16:24:04 GMT-0500 (Central Daylight Time),868192.8000000045,O,z,1056,51,1,94.bmp,-120,-120,95.bmp,120,-120,96.bmp,-120,120,97.bmp,120,120,9094.80000000447,859098.0,7167,yes,SM,C,95.bmp,120,-120,367056,361029,369072,363042,859964.0,853937.0,861968.0,855952.0,51
4,0,0,0,1,40,test,1,0,m,Fri Jun 20 2025 16:24:04 GMT-0500 (Central Daylight Time),877822.3000000045,O,z,1574,52,1,98.bmp,-120,-120,99.bmp,120,-120,100.bmp,-120,120,81.bmp,120,120,9625.80000000447,868196.5,7167,yes,SM,C,98.bmp,120,120,367056,361029,369072,363042,869064.0,863036.0,871081.0,865048.0,52
3,0,0,1,0,41,test,1,1,z,Fri Jun 20 2025 16:24:04 GMT-0500 (Central Daylight Time),887269.200000003,O,z,1387,53,1,51.bmp,-120,-120,52.bmp,120,-120,53.bmp,-120,120,54.bmp,120,120,9438.70000000298,877830.5,7167,yes,SM,C,53.bmp,-120,120,367056,361029,369072,363042,878694.0,872670.0,880710.0,874677.0,53
1,1,0,0,0,41,test,1,0,m,Fri Jun 20 2025 16:24:04 GMT-0500 (Central Daylight Time),897332.6000000015,O,None,2015,54,1,55.bmp,-120,-120,56.bmp,120,-120,57.bmp,-120,120,58.bmp,120,120,10059.29999999702,887273.3000000045,7167,yes,SM,C,57.bmp,-120,-120,367056,361029,369072,363042,888140.0,882113.0,890157.0,884125.0,54
4,0,0,0,1,41,test,1,0,z,Fri Jun 20 2025 16:24:04 GMT-0500 (Central Daylight Time),907114.6000000015,O,m,1733,55,1,59.bmp,-120,-120,60.bmp,120,-120,61.bmp,-120,120,62.bmp,120,120,9778.10000000149,897336.5,7167,yes,SM,C,62.bmp,120,120,367056,361029,369072,363042,898203.0,892176.0,900220.0,894190.0,55
2,0,1,0,0,41,test,1,0,m,Fri Jun 20 2025 16:24:04 GMT-0500 (Central Daylight Time),916659.900000006,O,z,1495,56,1,63.bmp,-120,-120,64.bmp,120,-120,65.bmp,-120,120,66.bmp,120,120,9541.80000000447,907118.1000000015,7167,yes,SM,C,63.bmp,120,-120,367056,361029,369072,363042,907984.0,901957.0,910001.0,903969.0,56
4,0,0,0,1,42,test,1,1,m,Fri Jun 20 2025 16:24:04 GMT-0500 (Central Daylight Time),925873.8000000045,O,m,1157,57,1,67.bmp,-120,-120,68.bmp,120,-120,69.bmp,-120,120,70.bmp,120,120,9208.20000000298,916665.6000000015,7167,yes,SM,C,68.bmp,120,120,367056,361029,369072,363042,917530.0,911505.0,919547.0,913516.0,57
3,0,0,1,0,43,test,1,1,z,Fri Jun 20 2025 16:24:04 GMT-0500 (Central Daylight Time),935070.900000006,O,z,1135,58,1,71.bmp,-120,-120,72.bmp,120,-120,73.bmp,-120,120,74.bmp,120,120,9194.90000000596,925876.0,7167,yes,SM,C,73.bmp,-120,120,367056,361029,369072,363042,926744.0,920715.0,928761.0,922731.0,58
2,0,1,0,0,44,test,1,1,m,Fri Jun 20 2025 16:24:04 GMT-0500 (Central Daylight Time),944633.700000003,O,m,1504,59,1,75.bmp,-120,-120,76.bmp,120,-120,77.bmp,-120,120,78.bmp,120,120,9559.70000000298,935074.0,7167,yes,SM,C,78.bmp,120,-120,367056,361029,369072,363042,935942.0,929913.0,937960.0,931928.0,59
1,1,0,0,0,45,test,1,1,z,Fri Jun 20 2025 16:24:04 GMT-0500 (Central Daylight Time),953931.400000006,O,z,1248,60,1,79.bmp,-120,-120,80.bmp,120,-120,81.bmp,-120,120,82.bmp,120,120,9294.30000000447,944637.1000000015,7167,yes,SM,C,79.bmp,-120,-120,367056,361029,369072,363042,945506.0,939476.0,947522.0,941490.0,60
2,0,1,0,0,46,test,1,1,z,Fri Jun 20 2025 16:24:04 GMT-0500 (Central Daylight Time),963179.1000000015,O,z,1190,61,1,83.bmp,-120,-120,84.bmp,120,-120,85.bmp,-120,120,86.bmp,120,120,9244.10000000149,953935.0,7167,yes,SM,C,84.bmp,120,-120,367056,361029,369072,363042,954802.0,948774.0,956818.0,950786.0,61
4,0,0,0,1,46,test,1,0,z,Fri Jun 20 2025 16:24:04 GMT-0500 (Central Daylight Time),972691.8000000045,O,m,1454,62,1,91.bmp,-120,-120,92.bmp,120,-120,93.bmp,-120,120,94.bmp,120,120,9509.5,963182.3000000045,7167,yes,SM,C,94.bmp,120,120,367056,361029,369072,363042,964051.0,958021.0,966066.0,960034.0,62
1,1,0,0,0,47,test,1,1,m,Fri Jun 20 2025 16:24:04 GMT-0500 (Central Daylight Time),981855.5,O,m,1110,63,1,95.bmp,-120,-120,96.bmp,120,-120,97.bmp,-120,120,98.bmp,120,120,9159.59999999404,972695.900000006,7167,yes,SM,C,95.bmp,-120,120,367056,361029,369072,363042,973562.0,967535.0,975579.0,969548.0,63
2,0,1,0,0,47,test,1,0,z,Fri Jun 20 2025 16:24:04 GMT-0500 (Central Daylight Time),991918.700000003,O,None,2013,64,1,99.bmp,-120,-120,100.bmp,120,-120,62.bmp,-120,120,51.bmp,120,120,10059.79999999702,981858.900000006,7167,yes,SM,C,100.bmp,120,-120,367056,361029,369072,363042,982726.0,976698.0,984744.0,978711.0,64
4,0,0,0,1,48,test,1,1,m,Fri Jun 20 2025 16:24:04 GMT-0500 (Central Daylight Time),1001133.200000003,O,m,1150,65,1,52.bmp,-120,-120,53.bmp,120,-120,54.bmp,-120,120,55.bmp,120,120,9209.60000000149,991923.6000000015,7167,yes,SM,C,54.bmp,120,120,367056,361029,369072,363042,992791.0,986763.0,994806.0,988775.0,65
3,0,0,1,0,49,test,1,1,m,Fri Jun 20 2025 16:24:04 GMT-0500 (Central Daylight Time),1010314.5,O,m,1115,66,1,56.bmp,-120,-120,57.bmp,120,-120,58.bmp,-120,120,59.bmp,120,120,9177.29999999702,1001137.200000003,7167,yes,SM,C,59.bmp,-120,120,367056,361029,369072,363042,1002005.0,995976.0,1004021.0,997990.0,66
2,0,1,0,0,50,test,1,1,m,Fri Jun 20 2025 16:24:04 GMT-0500 (Central Daylight Time),1019375.3000000045,O,m,1006,67,1,87.bmp,-120,-120,88.bmp,120,-120,89.bmp,-120,120,90.bmp,120,120,9057.20000000298,1010318.1000000015,7167,yes,SM,C,89.bmp,120,-120,367056,361029,369072,363042,1011184.0,1005157.0,1013201.0,1007169.0,67
3,0,0,1,0,50,test,1,0,z,Fri Jun 20 2025 16:24:04 GMT-0500 (Central Daylight Time),1028823.700000003,O,m,1385,68,1,60.bmp,-120,-120,61.bmp,120,-120,62.bmp,-120,120,63.bmp,120,120,9446.5,1019377.200000003,7167,yes,SM,C,62.bmp,-120,120,367056,361029,369072,363042,1020246.0,1014216.0,1022263.0,1016234.0,68
1,1,0,0,0,50,test,1,0,m,Fri Jun 20 2025 16:24:04 GMT-0500 (Central Daylight Time),1038052.700000003,O,z,1171,69,1,64.bmp,-120,-120,65.bmp,120,-120,66.bmp,-120,120,67.bmp,120,120,9225.10000000149,1028827.6000000015,7167,yes,SM,C,65.bmp,-120,-120,367056,361029,369072,363042,1029693.0,1023667.0,1031709.0,1025678.0,69
2,0,1,0,0,50,test,1,0,m,Fri Jun 20 2025 16:24:04 GMT-0500 (Central Daylight Time),1047534.1000000015,O,z,1444,70,1,68.bmp,-120,-120,69.bmp,120,-120,70.bmp,-120,120,71.bmp,120,120,9479.0,1038055.1000000015,7167,yes,SM,C,70.bmp,120,-120,367056,361029,369072,363042,1038910.0,1032894.0,1040924.0,1034908.0,70
4,0,0,0,1,50,test,1,0,z,Fri Jun 20 2025 16:24:04 GMT-0500 (Central Daylight Time),1056980.0,O,m,1387,71,1,72.bmp,-120,-120,73.bmp,120,-120,74.bmp,-120,120,75.bmp,120,120,9442.59999999404,1047537.400000006,7167,yes,SM,C,75.bmp,120,120,367056,361029,369072,363042,1048404.0,1042377.0,1050420.0,1044388.0,71
1,1,0,0,0,50,test,1,0,z,Fri Jun 20 2025 16:24:04 GMT-0500 (Central Daylight Time),1066361.6000000015,O,m,1332,72,1,76.bmp,-120,-120,77.bmp,120,-120,78.bmp,-120,120,79.bmp,120,120,9379.19999999553,1056982.400000006,7167,yes,SM,C,76.bmp,-120,-120,367056,361029,369072,363042,1057851.0,1051822.0,1059853.0,1053836.0,72
2,0,1,0,0,50,test,1,0,z,Fri Jun 20 2025 16:24:04 GMT-0500 (Central Daylight Time),1075792.200000003,O,m,1375,73,1,80.bmp,-120,-120,81.bmp,120,-120,82.bmp,-120,120,83.bmp,120,120,9428.29999999702,1066363.900000006,7167,yes,SM,C,81.bmp,120,-120,367056,361029,369072,363042,1067234.0,1061203.0,1069249.0,1063220.0,73
4,0,0,0,1,50,test,1,0,m,Fri Jun 20 2025 16:24:04 GMT-0500 (Central Daylight Time),1085486.8000000045,O,z,1642,74,1,84.bmp,-120,-120,85.bmp,120,-120,86.bmp,-120,120,87.bmp,120,120,9691.70000000298,1075795.1000000015,7167,yes,SM,C,86.bmp,120,120,367056,361029,369072,363042,1076665.0,1070634.0,1078677.0,1072648.0,74
2,0,1,0,0,51,test,1,1,m,Fri Jun 20 2025 16:24:04 GMT-0500 (Central Daylight Time),1094536.1000000015,O,m,992,75,1,88.bmp,-120,-120,89.bmp,120,-120,90.bmp,-120,120,91.bmp,120,120,9047.29999999702,1085488.8000000045,7167,yes,SM,C,91.bmp,120,-120,367056,361029,369072,363042,1086361.0,1080328.0,1088377.0,1082344.0,75
1,1,0,0,0,52,test,1,1,z,Fri Jun 20 2025 16:24:04 GMT-0500 (Central Daylight Time),1103601.1000000015,O,z,1009,76,1,92.bmp,-120,-120,93.bmp,120,-120,94.bmp,-120,120,95.bmp,120,120,9061.5,1094539.6000000015,7167,yes,SM,C,92.bmp,-120,-120,367056,361029,369072,363042,1095408.0,1089379.0,1097424.0,1091392.0,76
3,0,0,1,0,53,test,1,1,z,Fri Jun 20 2025 16:24:04 GMT-0500 (Central Daylight Time),1112546.8000000045,O,z,895,77,1,100.bmp,-120,-120,61.bmp,120,-120,51.bmp,-120,120,52.bmp,120,120,8942.70000000298,1103604.1000000015,7167,yes,SM,C,51.bmp,-120,120,367056,361029,369072,363042,1104472.0,1098443.0,1106490.0,1100455.0,77
1,1,0,0,0,54,test,1,1,m,Fri Jun 20 2025 16:24:04 GMT-0500 (Central Daylight Time),1121777.5,O,m,1189,78,1,96.bmp,-120,-120,97.bmp,120,-120,98.bmp,-120,120,99.bmp,120,120,9226.29999999702,1112551.200000003,7167,yes,SM,C,97.bmp,-120,-120,367056,361029,369072,363042,1113418.0,1107390.0,1115420.0,1109403.0,78
4,0,0,0,1,55,test,1,1,m,Fri Jun 20 2025 16:24:04 GMT-0500 (Central Daylight Time),1131091.1000000015,O,m,1256,79,1,57.bmp,-120,-120,58.bmp,120,-120,59.bmp,-120,120,60.bmp,120,120,9309.0,1121782.1000000015,7167,yes,SM,C,57.bmp,120,120,367056,361029,369072,363042,1122649.0,1116621.0,1124665.0,1118634.0,79
3,0,0,1,0,56,test,1,1,m,Fri Jun 20 2025 16:24:04 GMT-0500 (Central Daylight Time),1140322.1000000015,O,m,1189,80,1,53.bmp,-120,-120,54.bmp,120,-120,55.bmp,-120,120,56.bmp,120,120,9227.5,1131094.6000000015,7167,yes,SM,C,56.bmp,-120,120,367056,361029,369072,363042,1131963.0,1125934.0,1133964.0,1127948.0,80
