block_c,block_dur,condition,countdown,datetime,endtime,list,multichar_response,project,response,response_time,session_number,start_end,starttime,subject_id,task,task_vers,trial
,,,,Tue Apr 21 2026 14:43:25 GMT-0500 (Central Daylight Time),,,,O,space,425,1,,,7790,WL,C,
prac,,0,,Tue Apr 21 2026 14:43:25 GMT-0500 (Central Daylight Time),,NA,b,O,b,9079,1,,,7790,WL,C,1.0
prac,,0,,Tue Apr 21 2026 14:43:25 GMT-0500 (Central Daylight Time),,NA,bo,O,o,2015,1,,,7790,WL,C,1.0
prac,,0,,Tue Apr 21 2026 14:43:25 GMT-0500 (Central Daylight Time),,NA,boo,O,o,163,1,,,7790,WL,C,1.0
prac,,0,,Tue Apr 21 2026 14:43:25 GMT-0500 (Central Daylight Time),,NA,boos,O,s,293,1,,,7790,WL,C,1.0
prac,,0,,Tue Apr 21 2026 14:43:25 GMT-0500 (Central Daylight Time),,NA,boost,O,t,387,1,,,7790,WL,C,1.0
prac,,0,,Tue Apr 21 2026 14:43:25 GMT-0500 (Central Daylight Time),,NA,boostenter,O,enter,1885,1,,,7790,WL,C,1.0
1,2.9489998817443848,learn,57051.000118255615,Tue Apr 21 2026 14:43:25 GMT-0500 (Central Daylight Time),143767.60000002384,A,q,O,q,2933,1,2948.2000000476837,140819.39999997616,7790,WL,C,1.0
1,3.4489998817443848,learn,56551.000118255615,Tue Apr 21 2026 14:43:25 GMT-0500 (Central Daylight Time),144267.70000004768,A,qu,O,u,490,1,3448.3000000715256,140819.39999997616,7790,WL,C,1.0
1,4.565999984741211,learn,55434.00001525879,Tue Apr 21 2026 14:43:25 GMT-0500 (Central Daylight Time),145384.5,A,que,O,e,1094,1,4565.100000023842,140819.39999997616,7790,WL,C,1.0
1,4.747999906539917,learn,55252.00009346008,Tue Apr 21 2026 14:43:25 GMT-0500 (Central Daylight Time),145566.60000002384,A,quee,O,e,168,1,4747.200000047684,140819.39999997616,7790,WL,C,1.0
1,4.96399998664856,learn,55036.00001335144,Tue Apr 21 2026 14:43:25 GMT-0500 (Central Daylight Time),145782.10000002384,A,queen,O,n,206,1,4962.700000047684,140819.39999997616,7790,WL,C,1.0
1,5.631999969482422,learn,54368.00003051758,Tue Apr 21 2026 14:43:25 GMT-0500 (Central Daylight Time),146450.60000002384,A,queenenter,O,enter,655,1,5631.200000047684,140819.39999997616,7790,WL,C,1.0
1,6.882999897003174,learn,53117.000102996826,Tue Apr 21 2026 14:43:25 GMT-0500 (Central Daylight Time),147701.20000004768,A,b,O,b,1242,1,1250.2000000476837,146451.0,7790,WL,C,2.0
1,7.414999961853027,learn,52585.00003814697,Tue Apr 21 2026 14:43:25 GMT-0500 (Central Daylight Time),148233.0,A,bo,O,o,510,1,1782.0,146451.0,7790,WL,C,2.0
1,7.881999969482422,learn,52118.00003051758,Tue Apr 21 2026 14:43:25 GMT-0500 (Central Daylight Time),148700.60000002384,A,boy,O,y,449,1,2249.600000023842,146451.0,7790,WL,C,2.0
1,8.597999811172485,learn,51402.000188827515,Tue Apr 21 2026 14:43:25 GMT-0500 (Central Daylight Time),149416.79999995232,A,boyenter,O,enter,694,1,2965.7999999523163,146451.0,7790,WL,C,2.0
1,9.115000009536743,learn,50884.99999046326,Tue Apr 21 2026 14:43:25 GMT-0500 (Central Daylight Time),149933.39999997616,A,s,O,s,499,1,516.1999999284744,149417.20000004768,7790,WL,C,3.0
1,9.547999858856201,learn,50452.0001411438,Tue Apr 21 2026 14:43:25 GMT-0500 (Central Daylight Time),150366.79999995232,A,su,O,u,414,1,949.5999999046326,149417.20000004768,7790,WL,C,3.0
1,9.94599986076355,learn,50054.00013923645,Tue Apr 21 2026 14:43:25 GMT-0500 (Central Daylight Time),150764.29999995232,A,sug,O,g,379,1,1347.0999999046326,149417.20000004768,7790,WL,C,3.0
1,10.547999858856201,learn,49452.0001411438,Tue Apr 21 2026 14:43:25 GMT-0500 (Central Daylight Time),151366.39999997616,A,suga,O,a,584,1,1949.1999999284744,149417.20000004768,7790,WL,C,3.0
1,10.995999813079834,learn,49004.000186920166,Tue Apr 21 2026 14:43:25 GMT-0500 (Central Daylight Time),151814.5,A,sugar,O,r,436,1,2397.2999999523163,149417.20000004768,7790,WL,C,3.0
1,11.631999969482422,learn,48368.00003051758,Tue Apr 21 2026 14:43:25 GMT-0500 (Central Daylight Time),152450.39999997616,A,sugarenter,O,enter,629,1,3033.1999999284744,149417.20000004768,7790,WL,C,3.0
1,12.428999900817871,learn,47571.00009918213,Tue Apr 21 2026 14:43:25 GMT-0500 (Central Daylight Time),153247.79999995232,A,n,O,n,776,1,797.1999999284744,152450.60000002384,7790,WL,C,4.0
1,12.86299991607666,learn,47137.00008392334,Tue Apr 21 2026 14:43:25 GMT-0500 (Central Daylight Time),153681.20000004768,A,na,O,a,419,1,1230.6000000238419,152450.60000002384,7790,WL,C,4.0
1,13.229999780654907,learn,46770.00021934509,Tue Apr 21 2026 14:43:25 GMT-0500 (Central Daylight Time),154048.89999997616,A,nai,O,i,364,1,1598.2999999523163,152450.60000002384,7790,WL,C,4.0
1,13.879999876022339,learn,46120.00012397766,Tue Apr 21 2026 14:43:25 GMT-0500 (Central Daylight Time),154698.29999995232,A,nail,O,l,634,1,2247.6999999284744,152450.60000002384,7790,WL,C,4.0
1,14.578999996185303,learn,45421.0000038147,Tue Apr 21 2026 14:43:25 GMT-0500 (Central Daylight Time),155397.70000004768,A,nailenter,O,enter,682,1,2947.100000023842,152450.60000002384,7790,WL,C,4.0
1,15.161999940872192,learn,44838.00005912781,Tue Apr 21 2026 14:43:25 GMT-0500 (Central Daylight Time),155980.89999997616,A,d,O,d,565,1,582.7999999523163,155398.10000002384,7790,WL,C,5.0
1,15.628999948501587,learn,44371.00005149841,Tue Apr 21 2026 14:43:25 GMT-0500 (Central Daylight Time),156447.79999995232,A,do,O,o,446,1,1049.6999999284744,155398.10000002384,7790,WL,C,5.0
1,15.962999820709229,learn,44037.00017929077,Tue Apr 21 2026 14:43:25 GMT-0500 (Central Daylight Time),156781.39999997616,A,doc,O,c,315,1,1383.2999999523163,155398.10000002384,7790,WL,C,5.0
1,16.312999963760376,learn,43687.000036239624,Tue Apr 21 2026 14:43:25 GMT-0500 (Central Daylight Time),157131.0,A,doct,O,t,335,1,1732.8999999761581,155398.10000002384,7790,WL,C,5.0
1,16.82799983024597,learn,43172.00016975403,Tue Apr 21 2026 14:43:25 GMT-0500 (Central Daylight Time),157646.70000004768,A,docto,O,o,496,1,2248.600000023842,155398.10000002384,7790,WL,C,5.0
1,17.09599995613098,learn,42904.00004386902,Tue Apr 21 2026 14:43:25 GMT-0500 (Central Daylight Time),157914.70000004768,A,doctor,O,r,258,1,2516.600000023842,155398.10000002384,7790,WL,C,5.0
1,17.692999839782715,learn,42307.000160217285,Tue Apr 21 2026 14:43:25 GMT-0500 (Central Daylight Time),158511.70000004768,A,doctorenter,O,enter,576,1,3113.600000023842,155398.10000002384,7790,WL,C,5.0
1,18.52899980545044,learn,41471.00019454956,Tue Apr 21 2026 14:43:25 GMT-0500 (Central Daylight Time),159347.39999997616,A,h,O,h,821,1,835.5,158511.89999997616,7790,WL,C,6.0
1,19.376999855041504,learn,40623.000144958496,Tue Apr 21 2026 14:43:25 GMT-0500 (Central Daylight Time),160195.60000002384,A,ho,O,o,843,1,1683.7000000476837,158511.89999997616,7790,WL,C,6.0
1,20.009999990463257,learn,39990.00000953674,Tue Apr 21 2026 14:43:25 GMT-0500 (Central Daylight Time),160828.5,A,hom,O,m,624,1,2316.600000023842,158511.89999997616,7790,WL,C,6.0
1,20.460999965667725,learn,39539.000034332275,Tue Apr 21 2026 14:43:25 GMT-0500 (Central Daylight Time),161279.20000004768,A,home,O,e,431,1,2767.3000000715256,158511.89999997616,7790,WL,C,6.0
1,20.942999839782715,learn,39057.000160217285,Tue Apr 21 2026 14:43:25 GMT-0500 (Central Daylight Time),161761.29999995232,A,homeenter,O,enter,474,1,3249.399999976158,158511.89999997616,7790,WL,C,6.0
1,21.41099977493286,learn,38589.00022506714,Tue Apr 21 2026 14:43:25 GMT-0500 (Central Daylight Time),162229.70000004768,A,c,O,c,459,1,468.3000000715256,161761.39999997616,7790,WL,C,7.0
1,21.893999814987183,learn,38106.00018501282,Tue Apr 21 2026 14:43:25 GMT-0500 (Central Daylight Time),162712.29999995232,A,ca,O,a,472,1,950.8999999761581,161761.39999997616,7790,WL,C,7.0
1,22.425999879837036,learn,37574.000120162964,Tue Apr 21 2026 14:43:25 GMT-0500 (Central Daylight Time),163244.20000004768,A,cat,O,t,524,1,1482.8000000715256,161761.39999997616,7790,WL,C,7.0
1,22.625999927520752,learn,37374.00007247925,Tue Apr 21 2026 14:43:25 GMT-0500 (Central Daylight Time),163444.89999997616,A,catt,O,t,178,1,1683.5,161761.39999997616,7790,WL,C,7.0
1,23.042999982833862,learn,36957.00001716614,Tue Apr 21 2026 14:43:25 GMT-0500 (Central Daylight Time),163861.60000002384,A,cattl,O,l,399,1,2100.2000000476837,161761.39999997616,7790,WL,C,7.0
1,23.3439998626709,learn,36656.0001373291,Tue Apr 21 2026 14:43:25 GMT-0500 (Central Daylight Time),164162.10000002384,A,cattle,O,e,295,1,2400.7000000476837,161761.39999997616,7790,WL,C,7.0
1,23.825999975204468,learn,36174.00002479553,Tue Apr 21 2026 14:43:25 GMT-0500 (Central Daylight Time),164644.20000004768,A,cattleenter,O,enter,476,1,2882.8000000715256,161761.39999997616,7790,WL,C,7.0
1,32.8219997882843,learn,27178.0002117157,Tue Apr 21 2026 14:43:25 GMT-0500 (Central Daylight Time),173640.79999995232,A,enter,O,enter,8984,1,8996.299999952316,164644.5,7790,WL,C,8.0
1,34.03999996185303,learn,25960.000038146973,Tue Apr 21 2026 14:43:25 GMT-0500 (Central Daylight Time),174859.0,A,enter,O,enter,1212,1,1217.8999999761581,173641.10000002384,7790,WL,C,9.0
1,36.08899998664856,learn,23911.00001335144,Tue Apr 21 2026 14:43:25 GMT-0500 (Central Daylight Time),176907.79999995232,A,enter,O,enter,2041,1,2048.5,174859.29999995232,7790,WL,C,10.0
1,39.269999980926514,learn,20730.000019073486,Tue Apr 21 2026 14:43:25 GMT-0500 (Central Daylight Time),180088.89999997616,A,b,O,b,3176,1,3180.6999999284744,176908.20000004768,7790,WL,C,11.0
1,39.72099995613098,learn,20279.00004386902,Tue Apr 21 2026 14:43:25 GMT-0500 (Central Daylight Time),180539.20000004768,A,bo,O,o,436,1,3631.0,176908.20000004768,7790,WL,C,11.0
1,40.0719997882843,learn,19928.0002117157,Tue Apr 21 2026 14:43:25 GMT-0500 (Central Daylight Time),180890.39999997616,A,boy,O,y,346,1,3982.1999999284744,176908.20000004768,7790,WL,C,11.0
1,40.686999797821045,learn,19313.000202178955,Tue Apr 21 2026 14:43:25 GMT-0500 (Central Daylight Time),181505.70000004768,A,boyenter,O,enter,600,1,4597.5,176908.20000004768,7790,WL,C,11.0
1,45.853999853134155,learn,14146.000146865845,Tue Apr 21 2026 14:43:25 GMT-0500 (Central Daylight Time),186672.89999997616,A,enter,O,enter,5154,1,5166.899999976158,181506.0,7790,WL,C,12.0
1,47.103999853134155,learn,12896.000146865845,Tue Apr 21 2026 14:43:25 GMT-0500 (Central Daylight Time),187922.39999997616,A,enter,O,enter,1234,1,1249.1999999284744,186673.20000004768,7790,WL,C,13.0
1,48.60199999809265,learn,11398.000001907349,Tue Apr 21 2026 14:43:25 GMT-0500 (Central Daylight Time),189420.5,A,enter,O,enter,1483,1,1497.7000000476837,187922.79999995232,7790,WL,C,14.0
1,50.83399987220764,learn,9166.000127792358,Tue Apr 21 2026 14:43:25 GMT-0500 (Central Daylight Time),191652.20000004768,A,enter,O,enter,2215,1,2231.4000000953674,189420.79999995232,7790,WL,C,15.0
2,1.8659999370574951,learn,58134.000062942505,Tue Apr 21 2026 14:43:25 GMT-0500 (Central Daylight Time),262763.39999997616,A,t,O,t,1850,1,1865.1999999284744,260898.20000004768,7790,WL,C,1.0
2,2.615000009536743,learn,57384.99999046326,Tue Apr 21 2026 14:43:25 GMT-0500 (Central Daylight Time),263513.2000000477,A,to,O,o,726,1,2615.0,260898.20000004768,7790,WL,C,1.0
2,2.813999891281128,learn,57186.00010871887,Tue Apr 21 2026 14:43:25 GMT-0500 (Central Daylight Time),263712.2000000477,A,tow,O,w,176,1,2814.0,260898.20000004768,7790,WL,C,1.0
2,3.0979998111724854,learn,56902.000188827515,Tue Apr 21 2026 14:43:25 GMT-0500 (Central Daylight Time),263996.10000002384,A,towe,O,e,265,1,3097.899999976158,260898.20000004768,7790,WL,C,1.0
2,3.365000009536743,learn,56634.99999046326,Tue Apr 21 2026 14:43:25 GMT-0500 (Central Daylight Time),264263.10000002384,A,tower,O,r,246,1,3364.899999976158,260898.20000004768,7790,WL,C,1.0
2,4.2809998989105225,learn,55719.00010108948,Tue Apr 21 2026 14:43:25 GMT-0500 (Central Daylight Time),265179.10000002384,A,towerl,O,l,908,1,4280.899999976158,260898.20000004768,7790,WL,C,1.0
2,4.548999786376953,learn,55451.00021362305,Tue Apr 21 2026 14:43:25 GMT-0500 (Central Daylight Time),265446.60000002384,A,towerle,O,e,250,1,4548.399999976158,260898.20000004768,7790,WL,C,1.0
2,4.896999835968018,learn,55103.00016403198,Tue Apr 21 2026 14:43:25 GMT-0500 (Central Daylight Time),265794.7000000477,A,towerlet,O,t,333,1,4896.5,260898.20000004768,7790,WL,C,1.0
2,5.063999891281128,learn,54936.00010871887,Tue Apr 21 2026 14:43:25 GMT-0500 (Central Daylight Time),265962.10000002384,A,towerlett,O,t,155,1,5063.899999976158,260898.20000004768,7790,WL,C,1.0
2,5.363999843597412,learn,54636.00015640259,Tue Apr 21 2026 14:43:25 GMT-0500 (Central Daylight Time),266261.7999999523,A,towerlette,O,e,287,1,5363.599999904633,260898.20000004768,7790,WL,C,1.0
2,5.579999923706055,learn,54420.000076293945,Tue Apr 21 2026 14:43:25 GMT-0500 (Central Daylight Time),266478.2000000477,A,towerletter,O,r,196,1,5580.0,260898.20000004768,7790,WL,C,1.0
2,8.06499981880188,learn,51935.00018119812,Tue Apr 21 2026 14:43:25 GMT-0500 (Central Daylight Time),268962.39999997616,A,towerlette,O,backspace,2460,1,8064.199999928474,260898.20000004768,7790,WL,C,1.0
2,8.429999828338623,learn,51570.00017166138,Tue Apr 21 2026 14:43:25 GMT-0500 (Central Daylight Time),269327.2999999523,A,towerlett,O,backspace,343,1,8429.099999904633,260898.20000004768,7790,WL,C,1.0
2,8.631999969482422,learn,51368.00003051758,Tue Apr 21 2026 14:43:25 GMT-0500 (Central Daylight Time),269529.60000002384,A,towerlet,O,backspace,198,1,8631.399999976158,260898.20000004768,7790,WL,C,1.0
2,8.846999883651733,learn,51153.00011634827,Tue Apr 21 2026 14:43:25 GMT-0500 (Central Daylight Time),269745.10000002384,A,towerle,O,backspace,195,1,8846.899999976158,260898.20000004768,7790,WL,C,1.0
2,9.030999898910522,learn,50969.00010108948,Tue Apr 21 2026 14:43:25 GMT-0500 (Central Daylight Time),269928.7000000477,A,towerl,O,backspace,164,1,9030.5,260898.20000004768,7790,WL,C,1.0
2,9.27999997138977,learn,50720.00002861023,Tue Apr 21 2026 14:43:25 GMT-0500 (Central Daylight Time),270178.2000000477,A,tower,O,backspace,236,1,9280.0,260898.20000004768,7790,WL,C,1.0
2,10.229999780654907,learn,49770.00021934509,Tue Apr 21 2026 14:43:25 GMT-0500 (Central Daylight Time),271127.5,A,towerenter,O,enter,939,1,10229.299999952316,260898.20000004768,7790,WL,C,1.0
2,11.095999956130981,learn,48904.00004386902,Tue Apr 21 2026 14:43:25 GMT-0500 (Central Daylight Time),271994.10000002384,A,l,O,l,852,1,866.3000000715256,271127.7999999523,7790,WL,C,2.0
2,11.29699993133545,learn,48703.00006866455,Tue Apr 21 2026 14:43:25 GMT-0500 (Central Daylight Time),272194.39999997616,A,le,O,e,187,1,1066.6000000238419,271127.7999999523,7790,WL,C,2.0
2,11.595999956130981,learn,48404.00004386902,Tue Apr 21 2026 14:43:25 GMT-0500 (Central Daylight Time),272493.7000000477,A,let,O,t,280,1,1365.9000000953674,271127.7999999523,7790,WL,C,2.0
2,11.745999813079834,learn,48254.000186920166,Tue Apr 21 2026 14:43:25 GMT-0500 (Central Daylight Time),272643.60000002384,A,lett,O,t,130,1,1515.8000000715256,271127.7999999523,7790,WL,C,2.0
2,12.013999938964844,learn,47986.000061035156,Tue Apr 21 2026 14:43:25 GMT-0500 (Central Daylight Time),272911.39999997616,A,lette,O,e,259,1,1783.6000000238419,271127.7999999523,7790,WL,C,2.0
2,12.245999813079834,learn,47754.000186920166,Tue Apr 21 2026 14:43:25 GMT-0500 (Central Daylight Time),273143.7999999523,A,letter,O,r,220,1,2016.0,271127.7999999523,7790,WL,C,2.0
2,12.911999940872192,learn,47088.00005912781,Tue Apr 21 2026 14:43:25 GMT-0500 (Central Daylight Time),273809.7999999523,A,letterenter,O,enter,652,1,2682.0,271127.7999999523,7790,WL,C,2.0
2,14.211999893188477,learn,45788.00010681152,Tue Apr 21 2026 14:43:25 GMT-0500 (Central Daylight Time),275109.39999997616,A,c,O,c,1284,1,1299.3999999761581,273810.0,7790,WL,C,3.0
2,14.59499979019165,learn,45405.00020980835,Tue Apr 21 2026 14:43:25 GMT-0500 (Central Daylight Time),275493.2000000477,A,ca,O,a,373,1,1683.2000000476837,273810.0,7790,WL,C,3.0
2,17.710999965667725,learn,42289.000034332275,Tue Apr 21 2026 14:43:25 GMT-0500 (Central Daylight Time),278608.7000000477,A,cam,O,m,3102,1,4798.700000047684,273810.0,7790,WL,C,3.0
2,18.377999782562256,learn,41622.000217437744,Tue Apr 21 2026 14:43:25 GMT-0500 (Central Daylight Time),279275.7000000477,A,camp,O,p,654,1,5465.700000047684,273810.0,7790,WL,C,3.0
2,19.0939998626709,learn,40906.0001373291,Tue Apr 21 2026 14:43:25 GMT-0500 (Central Daylight Time),279991.7000000477,A,campenter,O,enter,695,1,6181.700000047684,273810.0,7790,WL,C,3.0
2,20.991999864578247,learn,39008.00013542175,Tue Apr 21 2026 14:43:25 GMT-0500 (Central Daylight Time),281889.89999997616,A,f,O,f,1885,1,1898.0,279991.89999997616,7790,WL,C,4.0
2,21.209999799728394,learn,38790.00020027161,Tue Apr 21 2026 14:43:25 GMT-0500 (Central Daylight Time),282108.10000002384,A,fl,O,l,205,1,2116.2000000476837,279991.89999997616,7790,WL,C,4.0
2,21.55999994277954,learn,38440.00005722046,Tue Apr 21 2026 14:43:25 GMT-0500 (Central Daylight Time),282457.7000000477,A,fla,O,a,337,1,2465.8000000715256,279991.89999997616,7790,WL,C,4.0
2,22.092000007629395,learn,37907.999992370605,Tue Apr 21 2026 14:43:25 GMT-0500 (Central Daylight Time),282990.10000002384,A,flag,O,g,522,1,2998.2000000476837,279991.89999997616,7790,WL,C,4.0
2,22.658999919891357,learn,37341.00008010864,Tue Apr 21 2026 14:43:25 GMT-0500 (Central Daylight Time),283556.39999997616,A,flagenter,O,enter,549,1,3564.5,279991.89999997616,7790,WL,C,4.0
2,23.608999967575073,learn,36391.00003242493,Tue Apr 21 2026 14:43:25 GMT-0500 (Central Daylight Time),284506.39999997616,A,w,O,w,944,1,949.6999999284744,283556.7000000477,7790,WL,C,5.0
2,23.907999992370605,learn,36092.000007629395,Tue Apr 21 2026 14:43:25 GMT-0500 (Central Daylight Time),284806.10000002384,A,wj,O,j,287,1,1249.3999999761581,283556.7000000477,7790,WL,C,5.0
2,24.14199995994568,learn,35858.00004005432,Tue Apr 21 2026 14:43:25 GMT-0500 (Central Daylight Time),285040.2000000477,A,wje,O,e,220,1,1483.5,283556.7000000477,7790,WL,C,5.0
2,24.324999809265137,learn,35675.00019073486,Tue Apr 21 2026 14:43:25 GMT-0500 (Central Daylight Time),285222.60000002384,A,wjea,O,a,172,1,1665.8999999761581,283556.7000000477,7790,WL,C,5.0
2,25.20899987220764,learn,34791.00012779236,Tue Apr 21 2026 14:43:25 GMT-0500 (Central Daylight Time),286107.0,A,wje,O,backspace,879,1,2550.2999999523163,283556.7000000477,7790,WL,C,5.0
2,25.405999898910522,learn,34594.00010108948,Tue Apr 21 2026 14:43:25 GMT-0500 (Central Daylight Time),286304.2999999523,A,wj,O,backspace,190,1,2747.5999999046326,283556.7000000477,7790,WL,C,5.0
2,25.82699990272522,learn,34173.00009727478,Tue Apr 21 2026 14:43:25 GMT-0500 (Central Daylight Time),286724.7000000477,A,w,O,backspace,405,1,3168.0,283556.7000000477,7790,WL,C,5.0
2,26.607999801635742,learn,33392.00019836426,Tue Apr 21 2026 14:43:25 GMT-0500 (Central Daylight Time),287506.2000000477,A,wh,O,h,774,1,3949.5,283556.7000000477,7790,WL,C,5.0
2,26.94099998474121,learn,33059.00001525879,Tue Apr 21 2026 14:43:25 GMT-0500 (Central Daylight Time),287838.5,A,whe,O,e,314,1,4281.799999952316,283556.7000000477,7790,WL,C,5.0
2,27.157999992370605,learn,32842.000007629395,Tue Apr 21 2026 14:43:25 GMT-0500 (Central Daylight Time),288055.5,A,whea,O,a,198,1,4498.799999952316,283556.7000000477,7790,WL,C,5.0
2,27.357999801635742,learn,32642.000198364258,Tue Apr 21 2026 14:43:25 GMT-0500 (Central Daylight Time),288255.39999997616,A,wheat,O,t,179,1,4698.699999928474,283556.7000000477,7790,WL,C,5.0
2,28.156999826431274,learn,31843.000173568726,Tue Apr 21 2026 14:43:25 GMT-0500 (Central Daylight Time),289054.7000000477,A,wheatenter,O,enter,789,1,5498.0,283556.7000000477,7790,WL,C,5.0
2,28.872999906539917,learn,31127.000093460083,Tue Apr 21 2026 14:43:25 GMT-0500 (Central Daylight Time),289771.0,A,b,O,b,710,1,716.1000000238419,289054.89999997616,7790,WL,C,6.0
2,29.35699987411499,learn,30643.00012588501,Tue Apr 21 2026 14:43:25 GMT-0500 (Central Daylight Time),290254.39999997616,A,bo,O,o,465,1,1199.5,289054.89999997616,7790,WL,C,6.0
2,29.6729998588562,learn,30327.0001411438,Tue Apr 21 2026 14:43:25 GMT-0500 (Central Daylight Time),290571.0,A,bou,O,u,308,1,1516.1000000238419,289054.89999997616,7790,WL,C,6.0
2,31.155999898910522,learn,28844.000101089478,Tue Apr 21 2026 14:43:25 GMT-0500 (Central Daylight Time),292053.7999999523,A,bo,O,backspace,1461,1,2998.899999976158,289054.89999997616,7790,WL,C,6.0
2,32.038999795913696,learn,27961.000204086304,Tue Apr 21 2026 14:43:25 GMT-0500 (Central Daylight Time),292936.7999999523,A,boy,O,y,863,1,3881.899999976158,289054.89999997616,7790,WL,C,6.0
2,32.60599994659424,learn,27394.00005340576,Tue Apr 21 2026 14:43:25 GMT-0500 (Central Daylight Time),293503.39999997616,A,boyenter,O,enter,552,1,4448.5,289054.89999997616,7790,WL,C,6.0
2,33.288999795913696,learn,26711.000204086304,Tue Apr 21 2026 14:43:25 GMT-0500 (Central Daylight Time),294187.10000002384,A,d,O,d,677,1,683.5,293503.60000002384,7790,WL,C,7.0
2,33.77300000190735,learn,26226.99999809265,Tue Apr 21 2026 14:43:25 GMT-0500 (Central Daylight Time),294670.39999997616,A,do,O,o,462,1,1166.7999999523163,293503.60000002384,7790,WL,C,7.0
2,34.10499978065491,learn,25895.000219345093,Tue Apr 21 2026 14:43:25 GMT-0500 (Central Daylight Time),295003.2000000477,A,doc,O,c,317,1,1499.6000000238419,293503.60000002384,7790,WL,C,7.0
2,34.48899984359741,learn,25511.000156402588,Tue Apr 21 2026 14:43:25 GMT-0500 (Central Daylight Time),295386.7999999523,A,doct,O,t,371,1,1883.1999999284744,293503.60000002384,7790,WL,C,7.0
2,34.73899984359741,learn,25261.000156402588,Tue Apr 21 2026 14:43:25 GMT-0500 (Central Daylight Time),295636.39999997616,A,docto,O,o,245,1,2132.7999999523163,293503.60000002384,7790,WL,C,7.0
2,34.9210000038147,learn,25078.999996185303,Tue Apr 21 2026 14:43:25 GMT-0500 (Central Daylight Time),295819.2000000477,A,doctor,O,r,176,1,2315.600000023842,293503.60000002384,7790,WL,C,7.0
2,36.133999824523926,learn,23866.000175476074,Tue Apr 21 2026 14:43:25 GMT-0500 (Central Daylight Time),297034.5,A,doctorenter,O,enter,1196,1,3530.899999976158,293503.60000002384,7790,WL,C,7.0
2,37.20099997520447,learn,22799.000024795532,Tue Apr 21 2026 14:43:25 GMT-0500 (Central Daylight Time),298100.7000000477,A,n,O,n,1057,1,1065.9000000953674,297034.7999999523,7790,WL,C,8.0
2,37.502999782562256,learn,22497.000217437744,Tue Apr 21 2026 14:43:25 GMT-0500 (Central Daylight Time),298402.7999999523,A,na,O,a,289,1,1368.0,297034.7999999523,7790,WL,C,8.0
2,37.73599982261658,learn,22264.000177383423,Tue Apr 21 2026 14:43:25 GMT-0500 (Central Daylight Time),298635.89999997616,A,nai,O,i,228,1,1601.1000000238419,297034.7999999523,7790,WL,C,8.0
2,38.084999799728394,learn,21915.000200271606,Tue Apr 21 2026 14:43:25 GMT-0500 (Central Daylight Time),298985.2000000477,A,nail,O,l,336,1,1950.4000000953674,297034.7999999523,7790,WL,C,8.0
2,38.96799993515015,learn,21032.000064849854,Tue Apr 21 2026 14:43:25 GMT-0500 (Central Daylight Time),299868.2000000477,A,nailenter,O,enter,866,1,2833.4000000953674,297034.7999999523,7790,WL,C,8.0
2,41.20099997520447,learn,18799.000024795532,Tue Apr 21 2026 14:43:25 GMT-0500 (Central Daylight Time),302100.7000000477,A,l,O,l,2224,1,2232.2000000476837,299868.5,7790,WL,C,9.0
2,41.45099997520447,learn,18549.000024795532,Tue Apr 21 2026 14:43:25 GMT-0500 (Central Daylight Time),302351.2999999523,A,le,O,e,231,1,2482.7999999523163,299868.5,7790,WL,C,9.0
2,41.73399996757507,learn,18266.000032424927,Tue Apr 21 2026 14:43:25 GMT-0500 (Central Daylight Time),302633.7000000477,A,let,O,t,269,1,2765.2000000476837,299868.5,7790,WL,C,9.0
2,41.91799998283386,learn,18082.000017166138,Tue Apr 21 2026 14:43:25 GMT-0500 (Central Daylight Time),302818.10000002384,A,lett,O,t,171,1,2949.600000023842,299868.5,7790,WL,C,9.0
2,42.133999824523926,learn,17866.000175476074,Tue Apr 21 2026 14:43:25 GMT-0500 (Central Daylight Time),303033.7000000477,A,lette,O,e,202,1,3165.2000000476837,299868.5,7790,WL,C,9.0
2,42.28399991989136,learn,17716.000080108643,Tue Apr 21 2026 14:43:25 GMT-0500 (Central Daylight Time),303183.7000000477,A,letter,O,r,139,1,3315.2000000476837,299868.5,7790,WL,C,9.0
2,43.08399987220764,learn,16916.00012779236,Tue Apr 21 2026 14:43:25 GMT-0500 (Central Daylight Time),303983.89999997616,A,letterenter,O,enter,780,1,4115.399999976158,299868.5,7790,WL,C,9.0
2,46.58299994468689,learn,13417.00005531311,Tue Apr 21 2026 14:43:25 GMT-0500 (Central Daylight Time),307482.89999997616,A,h,O,h,3493,1,3498.600000023842,303984.2999999523,7790,WL,C,10.0
2,47.23199987411499,learn,12768.00012588501,Tue Apr 21 2026 14:43:25 GMT-0500 (Central Daylight Time),308131.7000000477,A,ho,O,o,633,1,4147.400000095367,303984.2999999523,7790,WL,C,10.0
2,47.6489999294281,learn,12351.0000705719,Tue Apr 21 2026 14:43:25 GMT-0500 (Central Daylight Time),308548.7000000477,A,hom,O,m,407,1,4564.400000095367,303984.2999999523,7790,WL,C,10.0
2,47.99899983406067,learn,12001.000165939331,Tue Apr 21 2026 14:43:25 GMT-0500 (Central Daylight Time),308899.39999997616,A,home,O,e,335,1,4915.100000023842,303984.2999999523,7790,WL,C,10.0
2,48.44799995422363,learn,11552.000045776367,Tue Apr 21 2026 14:43:25 GMT-0500 (Central Daylight Time),309347.60000002384,A,homeenter,O,enter,438,1,5363.300000071526,303984.2999999523,7790,WL,C,10.0
2,49.18299984931946,learn,10817.000150680542,Tue Apr 21 2026 14:43:25 GMT-0500 (Central Daylight Time),310083.10000002384,A,q,O,q,729,1,735.2000000476837,309347.89999997616,7790,WL,C,11.0
2,49.66499996185303,learn,10335.000038146973,Tue Apr 21 2026 14:43:25 GMT-0500 (Central Daylight Time),310565.5,A,qu,O,u,475,1,1217.6000000238419,309347.89999997616,7790,WL,C,11.0
2,50.031999826431274,learn,9968.000173568726,Tue Apr 21 2026 14:43:25 GMT-0500 (Central Daylight Time),310931.89999997616,A,que,O,e,358,1,1584.0,309347.89999997616,7790,WL,C,11.0
2,50.19799995422363,learn,9802.000045776367,Tue Apr 21 2026 14:43:25 GMT-0500 (Central Daylight Time),311097.7999999523,A,quee,O,e,149,1,1749.8999999761581,309347.89999997616,7790,WL,C,11.0
2,50.431999921798706,learn,9568.000078201294,Tue Apr 21 2026 14:43:25 GMT-0500 (Central Daylight Time),311332.5,A,queen,O,n,231,1,1984.6000000238419,309347.89999997616,7790,WL,C,11.0
2,51.03099989891052,learn,8969.000101089478,Tue Apr 21 2026 14:43:25 GMT-0500 (Central Daylight Time),311931.5,A,queenenter,O,enter,593,1,2583.600000023842,309347.89999997616,7790,WL,C,11.0
2,53.29699993133545,learn,6703.000068664551,Tue Apr 21 2026 14:43:25 GMT-0500 (Central Daylight Time),314197.2999999523,A,s,O,s,2250,1,2265.5,311931.7999999523,7790,WL,C,12.0
2,53.97999978065491,learn,6020.000219345093,Tue Apr 21 2026 14:43:25 GMT-0500 (Central Daylight Time),314880.2000000477,A,su,O,u,670,1,2948.4000000953674,311931.7999999523,7790,WL,C,12.0
2,54.27999997138977,learn,5720.0000286102295,Tue Apr 21 2026 14:43:25 GMT-0500 (Central Daylight Time),315180.0,A,sug,O,g,283,1,3248.2000000476837,311931.7999999523,7790,WL,C,12.0
2,54.496999979019165,learn,5503.000020980835,Tue Apr 21 2026 14:43:25 GMT-0500 (Central Daylight Time),315396.60000002384,A,suga,O,a,206,1,3464.8000000715256,311931.7999999523,7790,WL,C,12.0
2,54.74799990653992,learn,5252.000093460083,Tue Apr 21 2026 14:43:25 GMT-0500 (Central Daylight Time),315648.2999999523,A,sugar,O,r,231,1,3716.5,311931.7999999523,7790,WL,C,12.0
2,55.163999795913696,learn,4836.000204086304,Tue Apr 21 2026 14:43:25 GMT-0500 (Central Daylight Time),316063.7999999523,A,sugarenter,O,enter,396,1,4132.0,311931.7999999523,7790,WL,C,12.0
2,57.02899980545044,learn,2971.0001945495605,Tue Apr 21 2026 14:43:25 GMT-0500 (Central Daylight Time),317929.10000002384,A,s,O,s,1852,1,1865.1000000238419,316064.0,7790,WL,C,13.0
2,58.412999868392944,learn,1587.0001316070557,Tue Apr 21 2026 14:43:25 GMT-0500 (Central Daylight Time),319313.2999999523,A,su,O,u,1364,1,3249.2999999523163,316064.0,7790,WL,C,13.0
2,58.67899990081787,learn,1321.000099182129,Tue Apr 21 2026 14:43:25 GMT-0500 (Central Daylight Time),319579.39999997616,A,sug,O,g,259,1,3515.399999976158,316064.0,7790,WL,C,13.0
2,58.895999908447266,learn,1104.0000915527344,Tue Apr 21 2026 14:43:25 GMT-0500 (Central Daylight Time),319795.89999997616,A,suga,O,a,210,1,3731.899999976158,316064.0,7790,WL,C,13.0
2,59.11099982261658,learn,889.0001773834229,Tue Apr 21 2026 14:43:25 GMT-0500 (Central Daylight Time),320011.39999997616,A,sugar,O,r,193,1,3947.399999976158,316064.0,7790,WL,C,13.0
2,59.44599986076355,learn,554.0001392364502,Tue Apr 21 2026 14:43:25 GMT-0500 (Central Daylight Time),320346.5,A,sugarenter,O,enter,329,1,4282.5,316064.0,7790,WL,C,13.0
2,60.01199984550476,learn,-11.999845504760742,Tue Apr 21 2026 14:43:25 GMT-0500 (Central Daylight Time),320912.39999997616,A,None,O,None,561,1,565.6999999284744,320346.7000000477,7790,WL,C,14.0
3,1.5290000438690186,learn,58470.99995613098,Tue Apr 21 2026 14:43:25 GMT-0500 (Central Daylight Time),390739.39999997616,A,c,O,c,1522,1,1528.6999999284744,389210.7000000477,7790,WL,C,1.0
3,2.561000108718872,learn,57438.99989128113,Tue Apr 21 2026 14:43:25 GMT-0500 (Central Daylight Time),391771.60000002384,A,co,O,o,1018,1,2560.899999976158,389210.7000000477,7790,WL,C,1.0
3,2.7960000038146973,learn,57203.9999961853,Tue Apr 21 2026 14:43:25 GMT-0500 (Central Daylight Time),392006.5,A,cor,O,r,214,1,2795.7999999523163,389210.7000000477,7790,WL,C,1.0
3,3.130000114440918,learn,56869.99988555908,Tue Apr 21 2026 14:43:25 GMT-0500 (Central Daylight Time),392340.10000002384,A,corn,O,n,319,1,3129.399999976158,389210.7000000477,7790,WL,C,1.0
3,3.7290000915527344,learn,56270.999908447266,Tue Apr 21 2026 14:43:25 GMT-0500 (Central Daylight Time),392939.2000000477,A,cornenter,O,enter,582,1,3728.5,389210.7000000477,7790,WL,C,1.0
3,4.460000038146973,learn,55539.99996185303,Tue Apr 21 2026 14:43:25 GMT-0500 (Central Daylight Time),393670.7000000477,A,c,O,c,712,1,731.2000000476837,392939.5,7790,WL,C,2.0
3,4.745000123977661,learn,55254.99987602234,Tue Apr 21 2026 14:43:25 GMT-0500 (Central Daylight Time),393954.89999997616,A,ca,O,a,274,1,1015.3999999761581,392939.5,7790,WL,C,2.0
3,5.111999988555908,learn,54888.00001144409,Tue Apr 21 2026 14:43:25 GMT-0500 (Central Daylight Time),394322.0,A,cat,O,t,355,1,1382.5,392939.5,7790,WL,C,2.0
3,5.265000104904175,learn,54734.999895095825,Tue Apr 21 2026 14:43:25 GMT-0500 (Central Daylight Time),394475.0,A,catt,O,t,130,1,1535.5,392939.5,7790,WL,C,2.0
3,5.9100000858306885,learn,54089.99991416931,Tue Apr 21 2026 14:43:25 GMT-0500 (Central Daylight Time),395120.7000000477,A,cattl,O,l,627,1,2181.2000000476837,392939.5,7790,WL,C,2.0
3,6.24399995803833,learn,53756.00004196167,Tue Apr 21 2026 14:43:25 GMT-0500 (Central Daylight Time),395454.39999997616,A,cattle,O,e,315,1,2514.899999976158,392939.5,7790,WL,C,2.0
3,6.7769999504089355,learn,53223.000049591064,Tue Apr 21 2026 14:43:25 GMT-0500 (Central Daylight Time),395987.10000002384,A,cattleenter,O,enter,509,1,3047.600000023842,392939.5,7790,WL,C,2.0
3,8.210000038146973,learn,51789.99996185303,Tue Apr 21 2026 14:43:25 GMT-0500 (Central Daylight Time),397420.39999997616,A,s,O,s,1419,1,1433.0,395987.39999997616,7790,WL,C,3.0
3,8.559999942779541,learn,51440.00005722046,Tue Apr 21 2026 14:43:25 GMT-0500 (Central Daylight Time),397770.2000000477,A,sh,O,h,335,1,1782.8000000715256,395987.39999997616,7790,WL,C,3.0
3,9.26200008392334,learn,50737.99991607666,Tue Apr 21 2026 14:43:25 GMT-0500 (Central Daylight Time),398472.7000000477,A,sho,O,o,679,1,2485.3000000715256,395987.39999997616,7790,WL,C,3.0
3,9.526999950408936,learn,50473.000049591064,Tue Apr 21 2026 14:43:25 GMT-0500 (Central Daylight Time),398737.5,A,shor,O,r,250,1,2750.100000023842,395987.39999997616,7790,WL,C,3.0
3,9.644000053405762,learn,50355.99994659424,Tue Apr 21 2026 14:43:25 GMT-0500 (Central Daylight Time),398854.2000000477,A,shore,O,e,107,1,2866.8000000715256,395987.39999997616,7790,WL,C,3.0
3,10.20900011062622,learn,49790.99988937378,Tue Apr 21 2026 14:43:25 GMT-0500 (Central Daylight Time),399419.39999997616,A,shoreenter,O,enter,561,1,3432.0,395987.39999997616,7790,WL,C,3.0
3,13.825999975204468,learn,46174.00002479553,Tue Apr 21 2026 14:43:25 GMT-0500 (Central Daylight Time),403036.60000002384,A,t,O,t,3611,1,3616.8000000715256,399419.7999999523,7790,WL,C,4.0
3,14.45799994468689,learn,45542.00005531311,Tue Apr 21 2026 14:43:25 GMT-0500 (Central Daylight Time),403668.5,A,to,O,o,614,1,4248.700000047684,399419.7999999523,7790,WL,C,4.0
3,14.725000143051147,learn,45274.99985694885,Tue Apr 21 2026 14:43:25 GMT-0500 (Central Daylight Time),403935.5,A,tow,O,w,246,1,4515.700000047684,399419.7999999523,7790,WL,C,4.0
3,14.993000030517578,learn,45006.99996948242,Tue Apr 21 2026 14:43:25 GMT-0500 (Central Daylight Time),404202.89999997616,A,towe,O,e,246,1,4783.100000023842,399419.7999999523,7790,WL,C,4.0
3,15.193000078201294,learn,44806.999921798706,Tue Apr 21 2026 14:43:25 GMT-0500 (Central Daylight Time),404402.7999999523,A,tower,O,r,184,1,4983.0,399419.7999999523,7790,WL,C,4.0
3,15.674999952316284,learn,44325.000047683716,Tue Apr 21 2026 14:43:25 GMT-0500 (Central Daylight Time),404885.10000002384,A,towerenter,O,enter,474,1,5465.300000071526,399419.7999999523,7790,WL,C,4.0
3,16.35800004005432,learn,43641.99995994568,Tue Apr 21 2026 14:43:25 GMT-0500 (Central Daylight Time),405568.5,A,w,O,w,663,1,683.1000000238419,404885.39999997616,7790,WL,C,5.0
3,16.725000143051147,learn,43274.99985694885,Tue Apr 21 2026 14:43:25 GMT-0500 (Central Daylight Time),405935.2999999523,A,wh,O,h,347,1,1049.8999999761581,404885.39999997616,7790,WL,C,5.0
3,17.02500009536743,learn,42974.99990463257,Tue Apr 21 2026 14:43:25 GMT-0500 (Central Daylight Time),406234.7999999523,A,whe,O,e,282,1,1349.3999999761581,404885.39999997616,7790,WL,C,5.0
3,17.2739999294281,learn,42726.0000705719,Tue Apr 21 2026 14:43:25 GMT-0500 (Central Daylight Time),406484.10000002384,A,whea,O,a,234,1,1598.7000000476837,404885.39999997616,7790,WL,C,5.0
3,17.624000072479248,learn,42375.99992752075,Tue Apr 21 2026 14:43:25 GMT-0500 (Central Daylight Time),406834.7000000477,A,wheat,O,t,343,1,1949.3000000715256,404885.39999997616,7790,WL,C,5.0
3,18.657000064849854,learn,41342.99993515015,Tue Apr 21 2026 14:43:25 GMT-0500 (Central Daylight Time),407867.5,A,wheatenter,O,enter,1017,1,2982.100000023842,404885.39999997616,7790,WL,C,5.0
3,19.572999954223633,learn,40427.00004577637,Tue Apr 21 2026 14:43:25 GMT-0500 (Central Daylight Time),408783.2000000477,A,c,O,c,897,1,915.4000000953674,407867.7999999523,7790,WL,C,6.0
3,19.84000015258789,learn,40159.99984741211,Tue Apr 21 2026 14:43:25 GMT-0500 (Central Daylight Time),409050.2000000477,A,ca,O,a,253,1,1182.4000000953674,407867.7999999523,7790,WL,C,6.0
3,20.057000160217285,learn,39942.999839782715,Tue Apr 21 2026 14:43:25 GMT-0500 (Central Daylight Time),409267.60000002384,A,cam,O,m,209,1,1399.8000000715256,407867.7999999523,7790,WL,C,6.0
3,20.69000005722046,learn,39309.99994277954,Tue Apr 21 2026 14:43:25 GMT-0500 (Central Daylight Time),409899.89999997616,A,camp,O,p,615,1,2032.1000000238419,407867.7999999523,7790,WL,C,6.0
3,21.23900008201599,learn,38760.99991798401,Tue Apr 21 2026 14:43:25 GMT-0500 (Central Daylight Time),410449.60000002384,A,campenter,O,enter,544,1,2581.8000000715256,407867.7999999523,7790,WL,C,6.0
3,21.992000102996826,learn,38007.999897003174,Tue Apr 21 2026 14:43:25 GMT-0500 (Central Daylight Time),411202.2999999523,A,q,O,q,739,1,752.5,410449.7999999523,7790,WL,C,7.0
3,22.35700011253357,learn,37642.99988746643,Tue Apr 21 2026 14:43:25 GMT-0500 (Central Daylight Time),411566.7000000477,A,qu,O,u,344,1,1116.9000000953674,410449.7999999523,7790,WL,C,7.0
3,22.77300000190735,learn,37226.99999809265,Tue Apr 21 2026 14:43:25 GMT-0500 (Central Daylight Time),411983.10000002384,A,que,O,e,396,1,1533.3000000715256,410449.7999999523,7790,WL,C,7.0
3,22.94000005722046,learn,37059.99994277954,Tue Apr 21 2026 14:43:25 GMT-0500 (Central Daylight Time),412149.89999997616,A,quee,O,e,149,1,1700.1000000238419,410449.7999999523,7790,WL,C,7.0
3,23.17199993133545,learn,36828.00006866455,Tue Apr 21 2026 14:43:25 GMT-0500 (Central Daylight Time),412381.7999999523,A,queen,O,n,215,1,1932.0,410449.7999999523,7790,WL,C,7.0
3,23.689000129699707,learn,36310.99987030029,Tue Apr 21 2026 14:43:25 GMT-0500 (Central Daylight Time),412899.5,A,queenenter,O,enter,499,1,2449.7000000476837,410449.7999999523,7790,WL,C,7.0
3,24.355000019073486,learn,35644.999980926514,Tue Apr 21 2026 14:43:25 GMT-0500 (Central Daylight Time),413565.39999997616,A,b,O,b,657,1,665.6000000238419,412899.7999999523,7790,WL,C,8.0
3,25.289000034332275,learn,34710.999965667725,Tue Apr 21 2026 14:43:25 GMT-0500 (Central Daylight Time),414499.2000000477,A,bo,O,o,927,1,1599.4000000953674,412899.7999999523,7790,WL,C,8.0
3,25.689000129699707,learn,34310.99987030029,Tue Apr 21 2026 14:43:25 GMT-0500 (Central Daylight Time),414898.89999997616,A,boy,O,y,385,1,1999.1000000238419,412899.7999999523,7790,WL,C,8.0
3,26.255000114440918,learn,33744.99988555908,Tue Apr 21 2026 14:43:25 GMT-0500 (Central Daylight Time),415465.10000002384,A,boyenter,O,enter,544,1,2565.3000000715256,412899.7999999523,7790,WL,C,8.0
3,27.003000020980835,learn,32996.999979019165,Tue Apr 21 2026 14:43:25 GMT-0500 (Central Daylight Time),416213.7000000477,A,s,O,s,738,1,748.3000000715256,415465.39999997616,7790,WL,C,9.0
3,27.32100009918213,learn,32678.99990081787,Tue Apr 21 2026 14:43:25 GMT-0500 (Central Daylight Time),416530.7000000477,A,su,O,u,304,1,1065.3000000715256,415465.39999997616,7790,WL,C,9.0
3,27.604000091552734,learn,32395.999908447266,Tue Apr 21 2026 14:43:25 GMT-0500 (Central Daylight Time),416814.39999997616,A,sug,O,g,274,1,1349.0,415465.39999997616,7790,WL,C,9.0
3,27.838000059127808,learn,32161.999940872192,Tue Apr 21 2026 14:43:25 GMT-0500 (Central Daylight Time),417047.89999997616,A,suga,O,a,223,1,1582.5,415465.39999997616,7790,WL,C,9.0
3,28.335999965667725,learn,31664.000034332275,Tue Apr 21 2026 14:43:25 GMT-0500 (Central Daylight Time),417548.7999999523,A,sugar,O,r,483,1,2083.399999976158,415465.39999997616,7790,WL,C,9.0
3,28.886000156402588,learn,31113.999843597412,Tue Apr 21 2026 14:43:25 GMT-0500 (Central Daylight Time),418098.2000000477,A,sugarenter,O,enter,536,1,2632.8000000715256,415465.39999997616,7790,WL,C,9.0
3,29.534000158309937,learn,30465.999841690063,Tue Apr 21 2026 14:43:25 GMT-0500 (Central Daylight Time),418746.7999999523,A,d,O,d,634,1,648.2999999523163,418098.5,7790,WL,C,10.0
3,29.78600001335144,learn,30213.99998664856,Tue Apr 21 2026 14:43:25 GMT-0500 (Central Daylight Time),418998.10000002384,A,do,O,o,241,1,899.6000000238419,418098.5,7790,WL,C,10.0
3,30.118000030517578,learn,29881.999969482422,Tue Apr 21 2026 14:43:25 GMT-0500 (Central Daylight Time),419330.60000002384,A,doc,O,c,318,1,1232.1000000238419,418098.5,7790,WL,C,10.0
3,30.53600001335144,learn,29463.99998664856,Tue Apr 21 2026 14:43:25 GMT-0500 (Central Daylight Time),419748.2000000477,A,docy,O,y,411,1,1649.7000000476837,418098.5,7790,WL,C,10.0
3,31.66600012779236,learn,28333.99987220764,Tue Apr 21 2026 14:43:25 GMT-0500 (Central Daylight Time),420878.60000002384,A,doc,O,backspace,1118,1,2780.100000023842,418098.5,7790,WL,C,10.0
3,32.5550000667572,learn,27444.999933242798,Tue Apr 21 2026 14:43:25 GMT-0500 (Central Daylight Time),421767.7000000477,A,doct,O,t,878,1,3669.2000000476837,418098.5,7790,WL,C,10.0
3,33.18400001525879,learn,26815.99998474121,Tue Apr 21 2026 14:43:25 GMT-0500 (Central Daylight Time),422396.10000002384,A,docto,O,o,615,1,4297.600000023842,418098.5,7790,WL,C,10.0
3,33.48200011253357,learn,26517.99988746643,Tue Apr 21 2026 14:43:25 GMT-0500 (Central Daylight Time),422694.7999999523,A,doctor,O,r,279,1,4596.299999952316,418098.5,7790,WL,C,10.0
3,33.901000022888184,learn,26098.999977111816,Tue Apr 21 2026 14:43:25 GMT-0500 (Central Daylight Time),423113.60000002384,A,doctorenter,O,enter,399,1,5015.100000023842,418098.5,7790,WL,C,10.0
3,34.801000118255615,learn,25198.999881744385,Tue Apr 21 2026 14:43:25 GMT-0500 (Central Daylight Time),424013.39999997616,A,n,O,n,882,1,899.5,423113.89999997616,7790,WL,C,11.0
3,35.01600003242493,learn,24983.999967575073,Tue Apr 21 2026 14:43:25 GMT-0500 (Central Daylight Time),424228.7999999523,A,na,O,a,206,1,1114.8999999761581,423113.89999997616,7790,WL,C,11.0
3,35.33299994468689,learn,24667.00005531311,Tue Apr 21 2026 14:43:25 GMT-0500 (Central Daylight Time),424545.10000002384,A,nai,O,i,304,1,1431.2000000476837,423113.89999997616,7790,WL,C,11.0
3,35.65000009536743,learn,24349.99990463257,Tue Apr 21 2026 14:43:25 GMT-0500 (Central Daylight Time),424862.5,A,nail,O,l,299,1,1748.6000000238419,423113.89999997616,7790,WL,C,11.0
3,36.71799993515015,learn,23282.000064849854,Tue Apr 21 2026 14:43:25 GMT-0500 (Central Daylight Time),425930.60000002384,A,nailenter,O,enter,1062,1,2816.7000000476837,423113.89999997616,7790,WL,C,11.0
3,38.01800012588501,learn,21981.99987411499,Tue Apr 21 2026 14:43:25 GMT-0500 (Central Daylight Time),427230.10000002384,A,c,O,c,1289,1,1299.3000000715256,425930.7999999523,7790,WL,C,12.0
3,38.365999937057495,learn,21634.000062942505,Tue Apr 21 2026 14:43:25 GMT-0500 (Central Daylight Time),427578.2999999523,A,ca,O,a,335,1,1647.5,425930.7999999523,7790,WL,C,12.0
3,38.91499996185303,learn,21085.000038146973,Tue Apr 21 2026 14:43:25 GMT-0500 (Central Daylight Time),428127.2999999523,A,cam,O,m,538,1,2196.5,425930.7999999523,7790,WL,C,12.0
3,39.58200001716614,learn,20417.999982833862,Tue Apr 21 2026 14:43:25 GMT-0500 (Central Daylight Time),428794.2999999523,A,camp,O,p,663,1,2863.5,425930.7999999523,7790,WL,C,12.0
3,40.21600008010864,learn,19783.999919891357,Tue Apr 21 2026 14:43:25 GMT-0500 (Central Daylight Time),429427.89999997616,A,campenter,O,enter,626,1,3497.100000023842,425930.7999999523,7790,WL,C,12.0
3,43.080000162124634,learn,16919.999837875366,Tue Apr 21 2026 14:43:25 GMT-0500 (Central Daylight Time),432292.2000000477,A,enter,O,enter,2849,1,2864.0,429428.2000000477,7790,WL,C,13.0
3,45.062999963760376,learn,14937.000036239624,Tue Apr 21 2026 14:43:25 GMT-0500 (Central Daylight Time),434275.60000002384,A,enter,O,enter,1976,1,1983.1000000238419,432292.5,7790,WL,C,14.0
3,46.76300001144409,learn,13236.999988555908,Tue Apr 21 2026 14:43:25 GMT-0500 (Central Daylight Time),435974.89999997616,A,enter,O,enter,1680,1,1699.0,434275.89999997616,7790,WL,C,15.0
4,1.0830001831054688,learn,58916.99981689453,Tue Apr 21 2026 14:43:25 GMT-0500 (Central Daylight Time),504719.7000000477,A,b,O,b,1061,1,1082.6000000238419,503637.10000002384,7790,WL,C,1.0
4,1.7830002307891846,learn,58216.999769210815,Tue Apr 21 2026 14:43:25 GMT-0500 (Central Daylight Time),505419.39999997616,A,bo,O,o,691,1,1782.2999999523163,503637.10000002384,7790,WL,C,1.0
4,2.0490000247955322,learn,57950.99997520447,Tue Apr 21 2026 14:43:25 GMT-0500 (Central Daylight Time),505686.0,A,bod,O,d,248,1,2048.899999976158,503637.10000002384,7790,WL,C,1.0
4,2.4180002212524414,learn,57581.99977874756,Tue Apr 21 2026 14:43:25 GMT-0500 (Central Daylight Time),506054.2000000477,A,body,O,y,357,1,2417.100000023842,503637.10000002384,7790,WL,C,1.0
4,3.6000001430511475,learn,56399.99985694885,Tue Apr 21 2026 14:43:25 GMT-0500 (Central Daylight Time),507236.5,A,bodyenter,O,enter,1157,1,3599.399999976158,503637.10000002384,7790,WL,C,1.0
4,4.382000207901001,learn,55617.999792099,Tue Apr 21 2026 14:43:25 GMT-0500 (Central Daylight Time),508018.7000000477,A,c,O,c,776,1,781.9000000953674,507236.7999999523,7790,WL,C,2.0
4,4.965000152587891,learn,55034.99984741211,Tue Apr 21 2026 14:43:25 GMT-0500 (Central Daylight Time),508601.7000000477,A,co,O,o,559,1,1364.9000000953674,507236.7999999523,7790,WL,C,2.0
4,5.231000185012817,learn,54768.99981498718,Tue Apr 21 2026 14:43:25 GMT-0500 (Central Daylight Time),508867.2999999523,A,cor,O,r,251,1,1630.5,507236.7999999523,7790,WL,C,2.0
4,5.54800009727478,learn,54451.99990272522,Tue Apr 21 2026 14:43:25 GMT-0500 (Central Daylight Time),509184.5,A,corn,O,n,313,1,1947.7000000476837,507236.7999999523,7790,WL,C,2.0
4,6.148000001907349,learn,53851.99999809265,Tue Apr 21 2026 14:43:25 GMT-0500 (Central Daylight Time),509784.2999999523,A,cornenter,O,enter,589,1,2547.5,507236.7999999523,7790,WL,C,2.0
4,6.865000009536743,learn,53134.99999046326,Tue Apr 21 2026 14:43:25 GMT-0500 (Central Daylight Time),510501.39999997616,A,c,O,c,708,1,716.8999999761581,509784.5,7790,WL,C,3.0
4,7.148000001907349,learn,52851.99999809265,Tue Apr 21 2026 14:43:25 GMT-0500 (Central Daylight Time),510784.2999999523,A,ca,O,a,271,1,999.7999999523163,509784.5,7790,WL,C,3.0
4,7.464000225067139,learn,52535.99977493286,Tue Apr 21 2026 14:43:25 GMT-0500 (Central Daylight Time),511100.60000002384,A,cam,O,m,298,1,1316.1000000238419,509784.5,7790,WL,C,3.0
4,9.54800009727478,learn,50451.99990272522,Tue Apr 21 2026 14:43:25 GMT-0500 (Central Daylight Time),513184.89999997616,A,camp,O,p,2063,1,3400.399999976158,509784.5,7790,WL,C,3.0
4,10.198000192642212,learn,49801.99980735779,Tue Apr 21 2026 14:43:25 GMT-0500 (Central Daylight Time),513834.10000002384,A,campenter,O,enter,641,1,4049.600000023842,509784.5,7790,WL,C,3.0
4,11.547000169754028,learn,48452.99983024597,Tue Apr 21 2026 14:43:25 GMT-0500 (Central Daylight Time),515183.39999997616,A,l,O,l,1338,1,1349.0,513834.39999997616,7790,WL,C,4.0
4,11.748000144958496,learn,48251.999855041504,Tue Apr 21 2026 14:43:25 GMT-0500 (Central Daylight Time),515384.5,A,le,O,e,187,1,1550.1000000238419,513834.39999997616,7790,WL,C,4.0
4,12.03000020980835,learn,47969.99979019165,Tue Apr 21 2026 14:43:25 GMT-0500 (Central Daylight Time),515666.39999997616,A,let,O,t,277,1,1832.0,513834.39999997616,7790,WL,C,4.0
4,12.229000091552734,learn,47770.999908447266,Tue Apr 21 2026 14:43:25 GMT-0500 (Central Daylight Time),515866.0,A,lett,O,t,181,1,2031.6000000238419,513834.39999997616,7790,WL,C,4.0
4,12.463000059127808,learn,47536.99994087219,Tue Apr 21 2026 14:43:25 GMT-0500 (Central Daylight Time),516099.7000000477,A,lette,O,e,215,1,2265.3000000715256,513834.39999997616,7790,WL,C,4.0
4,12.630000114440918,learn,47369.99988555908,Tue Apr 21 2026 14:43:25 GMT-0500 (Central Daylight Time),516267.0,A,letter,O,r,150,1,2432.600000023842,513834.39999997616,7790,WL,C,4.0
4,13.36300015449524,learn,46636.99984550476,Tue Apr 21 2026 14:43:25 GMT-0500 (Central Daylight Time),516999.60000002384,A,letterenter,O,enter,721,1,3165.2000000476837,513834.39999997616,7790,WL,C,4.0
4,15.745000123977661,learn,44254.99987602234,Tue Apr 21 2026 14:43:25 GMT-0500 (Central Daylight Time),519381.60000002384,A,w,O,w,2365,1,2381.8000000715256,516999.7999999523,7790,WL,C,5.0
4,16.09500002861023,learn,43904.99997138977,Tue Apr 21 2026 14:43:25 GMT-0500 (Central Daylight Time),519731.7999999523,A,wh,O,h,342,1,2732.0,516999.7999999523,7790,WL,C,5.0
4,16.32800006866455,learn,43671.99993133545,Tue Apr 21 2026 14:43:25 GMT-0500 (Central Daylight Time),519965.2000000477,A,wha,O,a,227,1,2965.4000000953674,516999.7999999523,7790,WL,C,5.0
4,17.128000020980835,learn,42871.999979019165,Tue Apr 21 2026 14:43:25 GMT-0500 (Central Daylight Time),520764.7000000477,A,wh,O,backspace,784,1,3764.9000000953674,516999.7999999523,7790,WL,C,5.0
4,17.4280002117157,learn,42571.9997882843,Tue Apr 21 2026 14:43:25 GMT-0500 (Central Daylight Time),521064.5,A,whe,O,e,288,1,4064.7000000476837,516999.7999999523,7790,WL,C,5.0
4,17.628000020980835,learn,42371.999979019165,Tue Apr 21 2026 14:43:25 GMT-0500 (Central Daylight Time),521265.0,A,whea,O,a,186,1,4265.200000047684,516999.7999999523,7790,WL,C,5.0
4,17.896000146865845,learn,42103.999853134155,Tue Apr 21 2026 14:43:25 GMT-0500 (Central Daylight Time),521532.2000000477,A,wheat,O,t,259,1,4532.400000095367,516999.7999999523,7790,WL,C,5.0
4,18.628000020980835,learn,41371.999979019165,Tue Apr 21 2026 14:43:25 GMT-0500 (Central Daylight Time),522264.89999997616,A,wheatenter,O,enter,719,1,5265.100000023842,516999.7999999523,7790,WL,C,5.0
4,19.261000156402588,learn,40738.99984359741,Tue Apr 21 2026 14:43:25 GMT-0500 (Central Daylight Time),522897.7999999523,A,t,O,t,620,1,632.5999999046326,522265.2000000477,7790,WL,C,6.0
4,19.844000101089478,learn,40155.99989891052,Tue Apr 21 2026 14:43:25 GMT-0500 (Central Daylight Time),523480.89999997616,A,to,O,o,563,1,1215.6999999284744,522265.2000000477,7790,WL,C,6.0
4,20.177000045776367,learn,39822.99995422363,Tue Apr 21 2026 14:43:25 GMT-0500 (Central Daylight Time),523813.60000002384,A,tow,O,w,314,1,1548.3999999761581,522265.2000000477,7790,WL,C,6.0
4,20.41000008583069,learn,39589.99991416931,Tue Apr 21 2026 14:43:25 GMT-0500 (Central Daylight Time),524046.89999997616,A,towe,O,e,223,1,1781.6999999284744,522265.2000000477,7790,WL,C,6.0
4,20.593000173568726,learn,39406.999826431274,Tue Apr 21 2026 14:43:25 GMT-0500 (Central Daylight Time),524229.39999997616,A,tower,O,r,163,1,1964.1999999284744,522265.2000000477,7790,WL,C,6.0
4,21.14400005340576,learn,38855.99994659424,Tue Apr 21 2026 14:43:25 GMT-0500 (Central Daylight Time),524780.7000000477,A,towerenter,O,enter,531,1,2515.5,522265.2000000477,7790,WL,C,6.0
4,24.408000230789185,learn,35591.999769210815,Tue Apr 21 2026 14:43:25 GMT-0500 (Central Daylight Time),528045.1000000238,A,q,O,q,3255,1,3264.100000023842,524781.0,7790,WL,C,7.0
4,24.926000118255615,learn,35073.999881744385,Tue Apr 21 2026 14:43:25 GMT-0500 (Central Daylight Time),528562.8999999762,A,qu,O,u,496,1,3781.899999976158,524781.0,7790,WL,C,7.0
4,25.325000047683716,learn,34674.999952316284,Tue Apr 21 2026 14:43:25 GMT-0500 (Central Daylight Time),528961.5,A,que,O,e,377,1,4180.5,524781.0,7790,WL,C,7.0
4,25.492000102996826,learn,34507.999897003174,Tue Apr 21 2026 14:43:25 GMT-0500 (Central Daylight Time),529128.8999999762,A,quee,O,e,145,1,4347.899999976158,524781.0,7790,WL,C,7.0
4,25.760000228881836,learn,34239.999771118164,Tue Apr 21 2026 14:43:25 GMT-0500 (Central Daylight Time),529396.8999999762,A,queen,O,n,259,1,4615.899999976158,524781.0,7790,WL,C,7.0
4,26.258000135421753,learn,33741.99986457825,Tue Apr 21 2026 14:43:25 GMT-0500 (Central Daylight Time),529894.7999999523,A,queenenter,O,enter,487,1,5113.799999952316,524781.0,7790,WL,C,7.0
4,27.875,learn,32125.0,Tue Apr 21 2026 14:43:25 GMT-0500 (Central Daylight Time),531511.2000000477,A,s,O,s,1597,1,1616.1000000238419,529895.1000000238,7790,WL,C,8.0
4,28.308000087738037,learn,31691.999912261963,Tue Apr 21 2026 14:43:25 GMT-0500 (Central Daylight Time),531945.1000000238,A,su,O,u,415,1,2050.0,529895.1000000238,7790,WL,C,8.0
4,28.592000007629395,learn,31407.999992370605,Tue Apr 21 2026 14:43:25 GMT-0500 (Central Daylight Time),532228.5,A,sug,O,g,266,1,2333.399999976158,529895.1000000238,7790,WL,C,8.0
4,28.808000087738037,learn,31191.999912261963,Tue Apr 21 2026 14:43:25 GMT-0500 (Central Daylight Time),532444.7999999523,A,suga,O,a,211,1,2549.6999999284744,529895.1000000238,7790,WL,C,8.0
4,29.04100012779236,learn,30958.99987220764,Tue Apr 21 2026 14:43:25 GMT-0500 (Central Daylight Time),532678.1000000238,A,sugar,O,r,214,1,2783.0,529895.1000000238,7790,WL,C,8.0
4,29.474000215530396,learn,30525.999784469604,Tue Apr 21 2026 14:43:25 GMT-0500 (Central Daylight Time),533110.3999999762,A,sugarenter,O,enter,413,1,3215.2999999523163,529895.1000000238,7790,WL,C,8.0
4,31.20800018310547,learn,28791.99981689453,Tue Apr 21 2026 14:43:25 GMT-0500 (Central Daylight Time),534844.3999999762,A,t,O,t,1719,1,1733.6999999284744,533110.7000000477,7790,WL,C,9.0
4,31.641000032424927,learn,28358.999967575073,Tue Apr 21 2026 14:43:25 GMT-0500 (Central Daylight Time),535277.2999999523,A,to,O,o,415,1,2166.5999999046326,533110.7000000477,7790,WL,C,9.0
4,31.92300009727478,learn,28076.99990272522,Tue Apr 21 2026 14:43:25 GMT-0500 (Central Daylight Time),535559.7000000477,A,tow,O,w,263,1,2449.0,533110.7000000477,7790,WL,C,9.0
4,32.158000230789185,learn,27841.999769210815,Tue Apr 21 2026 14:43:25 GMT-0500 (Central Daylight Time),535794.3999999762,A,towe,O,e,229,1,2683.6999999284744,533110.7000000477,7790,WL,C,9.0
4,32.35700011253357,learn,27642.99988746643,Tue Apr 21 2026 14:43:25 GMT-0500 (Central Daylight Time),535993.8999999762,A,tower,O,r,192,1,2883.1999999284744,533110.7000000477,7790,WL,C,9.0
4,32.82300019264221,learn,27176.999807357788,Tue Apr 21 2026 14:43:25 GMT-0500 (Central Daylight Time),536459.5,A,towerenter,O,enter,443,1,3348.7999999523163,533110.7000000477,7790,WL,C,9.0
4,34.48700022697449,learn,25512.999773025513,Tue Apr 21 2026 14:43:25 GMT-0500 (Central Daylight Time),538125.3999999762,A,c,O,c,1648,1,1665.6999999284744,536459.7000000477,7790,WL,C,10.0
4,34.7720000743866,learn,25227.999925613403,Tue Apr 21 2026 14:43:25 GMT-0500 (Central Daylight Time),538410.3999999762,A,ca,O,a,279,1,1950.6999999284744,536459.7000000477,7790,WL,C,10.0
4,35.021000146865845,learn,24978.999853134155,Tue Apr 21 2026 14:43:25 GMT-0500 (Central Daylight Time),538660.1000000238,A,cam,O,m,243,1,2200.399999976158,536459.7000000477,7790,WL,C,10.0
4,35.72000002861023,learn,24279.99997138977,Tue Apr 21 2026 14:43:25 GMT-0500 (Central Daylight Time),539359.1000000238,A,camp,O,p,678,1,2899.399999976158,536459.7000000477,7790,WL,C,10.0
4,36.23700022697449,learn,23762.999773025513,Tue Apr 21 2026 14:43:25 GMT-0500 (Central Daylight Time),539875.7000000477,A,campenter,O,enter,509,1,3416.0,536459.7000000477,7790,WL,C,10.0
4,38.22000002861023,learn,21779.99997138977,Tue Apr 21 2026 14:43:25 GMT-0500 (Central Daylight Time),541859.0,A,l,O,l,1962,1,1983.1000000238419,539875.8999999762,7790,WL,C,11.0
4,38.438000202178955,learn,21561.999797821045,Tue Apr 21 2026 14:43:25 GMT-0500 (Central Daylight Time),542076.6000000238,A,le,O,e,211,1,2200.7000000476837,539875.8999999762,7790,WL,C,11.0
4,38.72100019454956,learn,21278.99980545044,Tue Apr 21 2026 14:43:25 GMT-0500 (Central Daylight Time),542359.6000000238,A,let,O,t,263,1,2483.7000000476837,539875.8999999762,7790,WL,C,11.0
4,38.88600015640259,learn,21113.999843597412,Tue Apr 21 2026 14:43:25 GMT-0500 (Central Daylight Time),542524.6000000238,A,lett,O,t,147,1,2648.7000000476837,539875.8999999762,7790,WL,C,11.0
4,39.13600015640259,learn,20863.999843597412,Tue Apr 21 2026 14:43:25 GMT-0500 (Central Daylight Time),542775.1000000238,A,lette,O,e,241,1,2899.2000000476837,539875.8999999762,7790,WL,C,11.0
4,39.319000005722046,learn,20680.999994277954,Tue Apr 21 2026 14:43:25 GMT-0500 (Central Daylight Time),542957.3999999762,A,letter,O,r,175,1,3081.5,539875.8999999762,7790,WL,C,11.0
4,39.80400013923645,learn,20195.99986076355,Tue Apr 21 2026 14:43:25 GMT-0500 (Central Daylight Time),543442.3999999762,A,letterenter,O,enter,463,1,3566.5,539875.8999999762,7790,WL,C,11.0
4,41.218000173568726,learn,18781.999826431274,Tue Apr 21 2026 14:43:25 GMT-0500 (Central Daylight Time),544856.7000000477,A,f,O,f,1402,1,1414.0,543442.7000000477,7790,WL,C,12.0
4,41.4520001411438,learn,18547.9998588562,Tue Apr 21 2026 14:43:25 GMT-0500 (Central Daylight Time),545090.7999999523,A,fl,O,l,218,1,1648.0999999046326,543442.7000000477,7790,WL,C,12.0
4,41.91800022125244,learn,18081.99977874756,Tue Apr 21 2026 14:43:25 GMT-0500 (Central Daylight Time),545556.8999999762,A,fla,O,a,449,1,2114.1999999284744,543442.7000000477,7790,WL,C,12.0
4,42.20100021362305,learn,17798.999786376953,Tue Apr 21 2026 14:43:25 GMT-0500 (Central Daylight Time),545840.2999999523,A,flag,O,g,263,1,2397.5999999046326,543442.7000000477,7790,WL,C,12.0
4,42.617000102996826,learn,17382.999897003174,Tue Apr 21 2026 14:43:25 GMT-0500 (Central Daylight Time),546255.7999999523,A,flagenter,O,enter,397,1,2813.0999999046326,543442.7000000477,7790,WL,C,12.0
4,43.45100021362305,learn,16548.999786376953,Tue Apr 21 2026 14:43:25 GMT-0500 (Central Daylight Time),547089.8999999762,A,c,O,c,821,1,833.8999999761581,546256.0,7790,WL,C,13.0
4,43.68500018119812,learn,16314.99981880188,Tue Apr 21 2026 14:43:25 GMT-0500 (Central Daylight Time),547323.5,A,co,O,o,219,1,1067.5,546256.0,7790,WL,C,13.0
4,43.867000102996826,learn,16132.999897003174,Tue Apr 21 2026 14:43:25 GMT-0500 (Central Daylight Time),547505.3999999762,A,cor,O,r,168,1,1249.3999999761581,546256.0,7790,WL,C,13.0
4,44.16700005531311,learn,15832.99994468689,Tue Apr 21 2026 14:43:25 GMT-0500 (Central Daylight Time),547806.2000000477,A,corn,O,n,282,1,1550.2000000476837,546256.0,7790,WL,C,13.0
4,44.717000007629395,learn,15282.999992370605,Tue Apr 21 2026 14:43:25 GMT-0500 (Central Daylight Time),548355.7000000477,A,cornenter,O,enter,528,1,2099.7000000476837,546256.0,7790,WL,C,13.0
4,46.70100021362305,learn,13298.999786376953,Tue Apr 21 2026 14:43:25 GMT-0500 (Central Daylight Time),550339.3999999762,A,c,O,c,1978,1,1983.3999999761581,548356.0,7790,WL,C,14.0
4,47.0,learn,13000.0,Tue Apr 21 2026 14:43:25 GMT-0500 (Central Daylight Time),550638.8999999762,A,ca,O,a,282,1,2282.899999976158,548356.0,7790,WL,C,14.0
4,47.30000019073486,learn,12699.999809265137,Tue Apr 21 2026 14:43:25 GMT-0500 (Central Daylight Time),550938.7000000477,A,cat,O,t,284,1,2582.7000000476837,548356.0,7790,WL,C,14.0
4,47.467000007629395,learn,12532.999992370605,Tue Apr 21 2026 14:43:25 GMT-0500 (Central Daylight Time),551105.6000000238,A,catt,O,t,144,1,2749.600000023842,548356.0,7790,WL,C,14.0
4,47.73300004005432,learn,12266.999959945679,Tue Apr 21 2026 14:43:25 GMT-0500 (Central Daylight Time),551371.3999999762,A,cattl,O,l,249,1,3015.399999976158,548356.0,7790,WL,C,14.0
4,47.882000207901,learn,12117.999792098999,Tue Apr 21 2026 14:43:25 GMT-0500 (Central Daylight Time),551521.0,A,cattle,O,e,144,1,3165.0,548356.0,7790,WL,C,14.0
4,48.68400001525879,learn,11315.999984741211,Tue Apr 21 2026 14:43:25 GMT-0500 (Central Daylight Time),552322.6000000238,A,cattleenter,O,enter,790,1,3966.600000023842,548356.0,7790,WL,C,14.0
4,55.44600009918213,learn,4553.999900817871,Tue Apr 21 2026 14:43:25 GMT-0500 (Central Daylight Time),559085.0,A,n,O,n,6754,1,6762.100000023842,552322.8999999762,7790,WL,C,15.0
4,55.69700002670288,learn,4302.999973297119,Tue Apr 21 2026 14:43:25 GMT-0500 (Central Daylight Time),559335.6000000238,A,na,O,a,232,1,7012.700000047684,552322.8999999762,7790,WL,C,15.0
4,56.06400012969971,learn,3935.999870300293,Tue Apr 21 2026 14:43:25 GMT-0500 (Central Daylight Time),559702.7999999523,A,nai,O,i,346,1,7379.899999976158,552322.8999999762,7790,WL,C,15.0
4,56.38000011444092,learn,3619.999885559082,Tue Apr 21 2026 14:43:25 GMT-0500 (Central Daylight Time),560018.8999999762,A,nail,O,l,301,1,7696.0,552322.8999999762,7790,WL,C,15.0
4,56.997000217437744,learn,3002.999782562256,Tue Apr 21 2026 14:43:25 GMT-0500 (Central Daylight Time),560635.2999999523,A,nailenter,O,enter,601,1,8312.399999976158,552322.8999999762,7790,WL,C,15.0
5,1.4649999141693115,learn,60000.0,Tue Apr 21 2026 14:43:25 GMT-0500 (Central Daylight Time),633162.3999999762,A,b,O,b,1452,1,1465.0,631697.3999999762,7790,WL,C,1.0
5,1.9819998741149902,learn,60000.0,Tue Apr 21 2026 14:43:25 GMT-0500 (Central Daylight Time),633679.3999999762,A,bo,O,o,506,1,1982.0,631697.3999999762,7790,WL,C,1.0
5,2.4140000343322754,learn,60000.0,Tue Apr 21 2026 14:43:25 GMT-0500 (Central Daylight Time),634111.5,A,bod,O,d,421,1,2414.100000023842,631697.3999999762,7790,WL,C,1.0
5,2.813999891281128,learn,60000.0,Tue Apr 21 2026 14:43:25 GMT-0500 (Central Daylight Time),634511.3999999762,A,body,O,y,380,1,2814.0,631697.3999999762,7790,WL,C,1.0
5,3.4639999866485596,learn,60000.0,Tue Apr 21 2026 14:43:25 GMT-0500 (Central Daylight Time),635161.3999999762,A,bodyenter,O,enter,630,1,3464.0,631697.3999999762,7790,WL,C,1.0
5,4.264999866485596,learn,60000.0,Tue Apr 21 2026 14:43:25 GMT-0500 (Central Daylight Time),635962.7000000477,A,h,O,h,794,1,801.0,635161.7000000477,7790,WL,C,2.0
5,5.046000003814697,learn,60000.0,Tue Apr 21 2026 14:43:25 GMT-0500 (Central Daylight Time),636743.1000000238,A,ho,O,o,769,1,1581.3999999761581,635161.7000000477,7790,WL,C,2.0
5,5.480000019073486,learn,60000.0,Tue Apr 21 2026 14:43:25 GMT-0500 (Central Daylight Time),637177.2999999523,A,hom,O,m,421,1,2015.5999999046326,635161.7000000477,7790,WL,C,2.0
5,5.947000026702881,learn,60000.0,Tue Apr 21 2026 14:43:25 GMT-0500 (Central Daylight Time),637644.2999999523,A,home,O,e,461,1,2482.5999999046326,635161.7000000477,7790,WL,C,2.0
5,6.5320000648498535,learn,60000.0,Tue Apr 21 2026 14:43:25 GMT-0500 (Central Daylight Time),638229.0,A,homeenter,O,enter,567,1,3067.2999999523163,635161.7000000477,7790,WL,C,2.0
5,7.312999963760376,learn,60000.0,Tue Apr 21 2026 14:43:25 GMT-0500 (Central Daylight Time),639010.7000000477,A,c,O,c,767,1,781.4000000953674,638229.2999999523,7790,WL,C,3.0
5,7.697000026702881,learn,60000.0,Tue Apr 21 2026 14:43:25 GMT-0500 (Central Daylight Time),639394.8999999762,A,co,O,o,370,1,1165.6000000238419,638229.2999999523,7790,WL,C,3.0
5,7.94599986076355,learn,60000.0,Tue Apr 21 2026 14:43:25 GMT-0500 (Central Daylight Time),639643.2999999523,A,cor,O,r,242,1,1414.0,638229.2999999523,7790,WL,C,3.0
5,8.246000051498413,learn,60000.0,Tue Apr 21 2026 14:43:25 GMT-0500 (Central Daylight Time),639943.3999999762,A,corn,O,n,279,1,1714.1000000238419,638229.2999999523,7790,WL,C,3.0
5,8.861999988555908,learn,60000.0,Tue Apr 21 2026 14:43:25 GMT-0500 (Central Daylight Time),640559.6000000238,A,cornenter,O,enter,596,1,2330.3000000715256,638229.2999999523,7790,WL,C,3.0
5,9.513999938964844,learn,60000.0,Tue Apr 21 2026 14:43:25 GMT-0500 (Central Daylight Time),641211.2000000477,A,s,O,s,645,1,651.4000000953674,640559.7999999523,7790,WL,C,4.0
5,9.779000043869019,learn,60000.0,Tue Apr 21 2026 14:43:25 GMT-0500 (Central Daylight Time),641476.3999999762,A,sh,O,h,253,1,916.6000000238419,640559.7999999523,7790,WL,C,4.0
5,10.09500002861023,learn,60000.0,Tue Apr 21 2026 14:43:25 GMT-0500 (Central Daylight Time),641792.7999999523,A,sho,O,o,302,1,1233.0,640559.7999999523,7790,WL,C,4.0
5,10.312000036239624,learn,60000.0,Tue Apr 21 2026 14:43:25 GMT-0500 (Central Daylight Time),642009.7999999523,A,shor,O,r,210,1,1450.0,640559.7999999523,7790,WL,C,4.0
5,10.812999963760376,learn,60000.0,Tue Apr 21 2026 14:43:25 GMT-0500 (Central Daylight Time),642510.0,A,shore,O,e,492,1,1950.2000000476837,640559.7999999523,7790,WL,C,4.0
5,12.32800006866455,learn,60000.0,Tue Apr 21 2026 14:43:25 GMT-0500 (Central Daylight Time),644025.8999999762,A,shoreenter,O,enter,1503,1,3466.100000023842,640559.7999999523,7790,WL,C,4.0
5,13.510999917984009,learn,60000.0,Tue Apr 21 2026 14:43:25 GMT-0500 (Central Daylight Time),645208.8999999762,A,t,O,t,1169,1,1182.7999999523163,644026.1000000238,7790,WL,C,5.0
5,13.842999935150146,learn,60000.0,Tue Apr 21 2026 14:43:25 GMT-0500 (Central Daylight Time),645540.5,A,to,O,o,317,1,1514.3999999761581,644026.1000000238,7790,WL,C,5.0
5,14.161999940872192,learn,60000.0,Tue Apr 21 2026 14:43:25 GMT-0500 (Central Daylight Time),645859.0,A,tow,O,w,313,1,1832.8999999761581,644026.1000000238,7790,WL,C,5.0
5,14.444000005722046,learn,60000.0,Tue Apr 21 2026 14:43:25 GMT-0500 (Central Daylight Time),646141.2999999523,A,towe,O,e,266,1,2115.1999999284744,644026.1000000238,7790,WL,C,5.0
5,14.64299988746643,learn,60000.0,Tue Apr 21 2026 14:43:25 GMT-0500 (Central Daylight Time),646340.6000000238,A,tower,O,r,182,1,2314.5,644026.1000000238,7790,WL,C,5.0
5,15.593999862670898,learn,60000.0,Tue Apr 21 2026 14:43:25 GMT-0500 (Central Daylight Time),647291.2000000477,A,towerenter,O,enter,936,1,3265.100000023842,644026.1000000238,7790,WL,C,5.0
5,16.39400005340576,learn,60000.0,Tue Apr 21 2026 14:43:25 GMT-0500 (Central Daylight Time),648091.1000000238,A,w,O,w,794,1,799.6000000238419,647291.5,7790,WL,C,6.0
5,16.72699999809265,learn,60000.0,Tue Apr 21 2026 14:43:25 GMT-0500 (Central Daylight Time),648424.7000000477,A,wh,O,h,311,1,1133.2000000476837,647291.5,7790,WL,C,6.0
5,16.960000038146973,learn,60000.0,Tue Apr 21 2026 14:43:25 GMT-0500 (Central Daylight Time),648657.2999999523,A,whe,O,e,220,1,1365.7999999523163,647291.5,7790,WL,C,6.0
5,17.16100001335144,learn,60000.0,Tue Apr 21 2026 14:43:25 GMT-0500 (Central Daylight Time),648858.0,A,whea,O,a,181,1,1566.5,647291.5,7790,WL,C,6.0
5,17.378000020980835,learn,60000.0,Tue Apr 21 2026 14:43:25 GMT-0500 (Central Daylight Time),649075.6000000238,A,wheat,O,t,211,1,1784.1000000238419,647291.5,7790,WL,C,6.0
5,17.944000005722046,learn,60000.0,Tue Apr 21 2026 14:43:25 GMT-0500 (Central Daylight Time),649641.2999999523,A,wheatenter,O,enter,551,1,2349.7999999523163,647291.5,7790,WL,C,6.0
5,18.794999837875366,learn,60000.0,Tue Apr 21 2026 14:43:25 GMT-0500 (Central Daylight Time),650491.8999999762,A,q,O,q,845,1,850.2999999523163,649641.6000000238,7790,WL,C,7.0
5,19.192999839782715,learn,60000.0,Tue Apr 21 2026 14:43:25 GMT-0500 (Central Daylight Time),650890.8999999762,A,qu,O,u,384,1,1249.2999999523163,649641.6000000238,7790,WL,C,7.0
5,19.674999952316284,learn,60000.0,Tue Apr 21 2026 14:43:25 GMT-0500 (Central Daylight Time),651372.8999999762,A,que,O,e,473,1,1731.2999999523163,649641.6000000238,7790,WL,C,7.0
5,19.858999967575073,learn,60000.0,Tue Apr 21 2026 14:43:25 GMT-0500 (Central Daylight Time),651556.7999999523,A,quee,O,e,178,1,1915.1999999284744,649641.6000000238,7790,WL,C,7.0
5,20.125999927520752,learn,60000.0,Tue Apr 21 2026 14:43:25 GMT-0500 (Central Daylight Time),651822.8999999762,A,queen,O,n,257,1,2181.2999999523163,649641.6000000238,7790,WL,C,7.0
5,20.64199995994568,learn,60000.0,Tue Apr 21 2026 14:43:25 GMT-0500 (Central Daylight Time),652339.1000000238,A,queenenter,O,enter,494,1,2697.5,649641.6000000238,7790,WL,C,7.0
5,21.491999864578247,learn,60000.0,Tue Apr 21 2026 14:43:25 GMT-0500 (Central Daylight Time),653189.3999999762,A,l,O,l,845,1,850.0,652339.3999999762,7790,WL,C,8.0
5,21.79200005531311,learn,60000.0,Tue Apr 21 2026 14:43:25 GMT-0500 (Central Daylight Time),653489.2000000477,A,le,O,e,286,1,1149.8000000715256,652339.3999999762,7790,WL,C,8.0
5,22.10800004005432,learn,60000.0,Tue Apr 21 2026 14:43:25 GMT-0500 (Central Daylight Time),653805.7000000477,A,let,O,t,297,1,1466.3000000715256,652339.3999999762,7790,WL,C,8.0
5,22.274999856948853,learn,60000.0,Tue Apr 21 2026 14:43:25 GMT-0500 (Central Daylight Time),653972.7000000477,A,lett,O,t,151,1,1633.3000000715256,652339.3999999762,7790,WL,C,8.0
5,22.524999856948853,learn,60000.0,Tue Apr 21 2026 14:43:25 GMT-0500 (Central Daylight Time),654222.0,A,lette,O,e,240,1,1882.6000000238419,652339.3999999762,7790,WL,C,8.0
5,22.707000017166138,learn,60000.0,Tue Apr 21 2026 14:43:25 GMT-0500 (Central Daylight Time),654404.7999999523,A,letter,O,r,167,1,2065.399999976158,652339.3999999762,7790,WL,C,8.0
5,23.20799994468689,learn,60000.0,Tue Apr 21 2026 14:43:25 GMT-0500 (Central Daylight Time),654905.0,A,letterenter,O,enter,485,1,2565.600000023842,652339.3999999762,7790,WL,C,8.0
5,24.19099998474121,learn,60000.0,Tue Apr 21 2026 14:43:25 GMT-0500 (Central Daylight Time),655888.6000000238,A,b,O,b,971,1,983.3000000715256,654905.2999999523,7790,WL,C,9.0
5,24.889999866485596,learn,60000.0,Tue Apr 21 2026 14:43:25 GMT-0500 (Central Daylight Time),656587.7999999523,A,bo,O,o,693,1,1682.5,654905.2999999523,7790,WL,C,9.0
5,25.19099998474121,learn,60000.0,Tue Apr 21 2026 14:43:25 GMT-0500 (Central Daylight Time),656888.2999999523,A,boy,O,y,288,1,1983.0,654905.2999999523,7790,WL,C,9.0
5,25.73799991607666,learn,60000.0,Tue Apr 21 2026 14:43:25 GMT-0500 (Central Daylight Time),657436.5,A,boyenter,O,enter,535,1,2531.2000000476837,654905.2999999523,7790,WL,C,9.0
5,26.537999868392944,learn,60000.0,Tue Apr 21 2026 14:43:25 GMT-0500 (Central Daylight Time),658237.0,A,c,O,c,793,1,800.2999999523163,657436.7000000477,7790,WL,C,10.0
5,26.83899998664856,learn,60000.0,Tue Apr 21 2026 14:43:25 GMT-0500 (Central Daylight Time),658538.3999999762,A,ca,O,a,297,1,1101.6999999284744,657436.7000000477,7790,WL,C,10.0
5,27.105000019073486,learn,60000.0,Tue Apr 21 2026 14:43:25 GMT-0500 (Central Daylight Time),658804.2000000477,A,cam,O,m,249,1,1367.5,657436.7000000477,7790,WL,C,10.0
5,27.605000019073486,learn,60000.0,Tue Apr 21 2026 14:43:25 GMT-0500 (Central Daylight Time),659304.2000000477,A,camp,O,p,478,1,1867.5,657436.7000000477,7790,WL,C,10.0
5,28.48799991607666,learn,60000.0,Tue Apr 21 2026 14:43:25 GMT-0500 (Central Daylight Time),660186.7999999523,A,campenter,O,enter,878,1,2750.0999999046326,657436.7000000477,7790,WL,C,10.0
5,29.088000059127808,learn,60000.0,Tue Apr 21 2026 14:43:25 GMT-0500 (Central Daylight Time),660787.0,A,d,O,d,585,1,600.0,660187.0,7790,WL,C,11.0
5,29.32099986076355,learn,60000.0,Tue Apr 21 2026 14:43:25 GMT-0500 (Central Daylight Time),661019.8999999762,A,do,O,o,228,1,832.8999999761581,660187.0,7790,WL,C,11.0
5,29.58999991416931,learn,60000.0,Tue Apr 21 2026 14:43:25 GMT-0500 (Central Daylight Time),661288.7000000477,A,doc,O,c,247,1,1101.7000000476837,660187.0,7790,WL,C,11.0
5,29.953999996185303,learn,60000.0,Tue Apr 21 2026 14:43:25 GMT-0500 (Central Daylight Time),661653.2999999523,A,doct,O,t,348,1,1466.2999999523163,660187.0,7790,WL,C,11.0
5,30.20300006866455,learn,60000.0,Tue Apr 21 2026 14:43:25 GMT-0500 (Central Daylight Time),661902.2999999523,A,docto,O,o,240,1,1715.2999999523163,660187.0,7790,WL,C,11.0
5,30.38699984550476,learn,60000.0,Tue Apr 21 2026 14:43:25 GMT-0500 (Central Daylight Time),662086.3999999762,A,doctor,O,r,174,1,1899.3999999761581,660187.0,7790,WL,C,11.0
5,31.22099995613098,learn,60000.0,Tue Apr 21 2026 14:43:25 GMT-0500 (Central Daylight Time),662919.5,A,doctorenter,O,enter,812,1,2732.5,660187.0,7790,WL,C,11.0
5,32.085999965667725,learn,60000.0,Tue Apr 21 2026 14:43:25 GMT-0500 (Central Daylight Time),663784.7999999523,A,l,O,l,854,1,864.8999999761581,662919.8999999762,7790,WL,C,12.0
5,32.28699994087219,learn,60000.0,Tue Apr 21 2026 14:43:25 GMT-0500 (Central Daylight Time),663986.2999999523,A,le,O,e,189,1,1066.3999999761581,662919.8999999762,7790,WL,C,12.0
5,32.5699999332428,learn,60000.0,Tue Apr 21 2026 14:43:25 GMT-0500 (Central Daylight Time),664269.2999999523,A,let,O,t,260,1,1349.3999999761581,662919.8999999762,7790,WL,C,12.0
5,32.72000002861023,learn,60000.0,Tue Apr 21 2026 14:43:25 GMT-0500 (Central Daylight Time),664419.2000000477,A,lett,O,t,144,1,1499.3000000715256,662919.8999999762,7790,WL,C,12.0
5,32.97000002861023,learn,60000.0,Tue Apr 21 2026 14:43:25 GMT-0500 (Central Daylight Time),664668.8999999762,A,lette,O,e,231,1,1749.0,662919.8999999762,7790,WL,C,12.0
5,33.13800001144409,learn,60000.0,Tue Apr 21 2026 14:43:25 GMT-0500 (Central Daylight Time),664836.5,A,letter,O,r,145,1,1916.6000000238419,662919.8999999762,7790,WL,C,12.0
5,33.88599991798401,learn,60000.0,Tue Apr 21 2026 14:43:25 GMT-0500 (Central Daylight Time),665585.2999999523,A,letterenter,O,enter,737,1,2665.399999976158,662919.8999999762,7790,WL,C,12.0
5,38.28600001335144,learn,60000.0,Tue Apr 21 2026 14:43:25 GMT-0500 (Central Daylight Time),669984.7999999523,A,s,O,s,4379,1,4399.299999952316,665585.5,7790,WL,C,13.0
5,38.668999910354614,learn,60000.0,Tue Apr 21 2026 14:43:25 GMT-0500 (Central Daylight Time),670368.2000000477,A,sh,O,h,363,1,4782.700000047684,665585.5,7790,WL,C,13.0
5,39.236000061035156,learn,60000.0,Tue Apr 21 2026 14:43:25 GMT-0500 (Central Daylight Time),670934.7999999523,A,sho,O,o,557,1,5349.299999952316,665585.5,7790,WL,C,13.0
5,39.55200004577637,learn,60000.0,Tue Apr 21 2026 14:43:25 GMT-0500 (Central Daylight Time),671251.1000000238,A,shor,O,r,293,1,5665.600000023842,665585.5,7790,WL,C,13.0
5,39.68499994277954,learn,60000.0,Tue Apr 21 2026 14:43:25 GMT-0500 (Central Daylight Time),671383.6000000238,A,shore,O,e,123,1,5798.100000023842,665585.5,7790,WL,C,13.0
5,40.20099997520447,learn,60000.0,Tue Apr 21 2026 14:43:25 GMT-0500 (Central Daylight Time),671899.7000000477,A,shoreenter,O,enter,510,1,6314.200000047684,665585.5,7790,WL,C,13.0
5,40.88499999046326,learn,60000.0,Tue Apr 21 2026 14:43:25 GMT-0500 (Central Daylight Time),672583.6000000238,A,c,O,c,664,1,683.6000000238419,671900.0,7790,WL,C,14.0
5,41.11699986457825,learn,60000.0,Tue Apr 21 2026 14:43:25 GMT-0500 (Central Daylight Time),672816.3999999762,A,ca,O,a,220,1,916.3999999761581,671900.0,7790,WL,C,14.0
5,41.36899995803833,learn,60000.0,Tue Apr 21 2026 14:43:25 GMT-0500 (Central Daylight Time),673067.7000000477,A,cat,O,t,237,1,1167.7000000476837,671900.0,7790,WL,C,14.0
5,41.532999992370605,learn,60000.0,Tue Apr 21 2026 14:43:25 GMT-0500 (Central Daylight Time),673232.2000000477,A,catt,O,t,145,1,1332.2000000476837,671900.0,7790,WL,C,14.0
5,41.76900005340576,learn,60000.0,Tue Apr 21 2026 14:43:25 GMT-0500 (Central Daylight Time),673467.5,A,cattl,O,l,230,1,1567.5,671900.0,7790,WL,C,14.0
5,41.884000062942505,learn,60000.0,Tue Apr 21 2026 14:43:25 GMT-0500 (Central Daylight Time),673583.2999999523,A,cattle,O,e,104,1,1683.2999999523163,671900.0,7790,WL,C,14.0
5,42.651000022888184,learn,60000.0,Tue Apr 21 2026 14:43:25 GMT-0500 (Central Daylight Time),674350.2999999523,A,cattleenter,O,enter,757,1,2450.2999999523163,671900.0,7790,WL,C,14.0
5,49.33299994468689,learn,60000.0,Tue Apr 21 2026 14:43:25 GMT-0500 (Central Daylight Time),681031.6000000238,A,n,O,n,6671,1,6681.0,674350.6000000238,7790,WL,C,15.0
5,49.6800000667572,learn,60000.0,Tue Apr 21 2026 14:43:25 GMT-0500 (Central Daylight Time),681378.5,A,na,O,a,333,1,7027.899999976158,674350.6000000238,7790,WL,C,15.0
5,50.06399989128113,learn,60000.0,Tue Apr 21 2026 14:43:25 GMT-0500 (Central Daylight Time),681763.3999999762,A,nai,O,i,365,1,7412.799999952316,674350.6000000238,7790,WL,C,15.0
5,50.348999977111816,learn,60000.0,Tue Apr 21 2026 14:43:25 GMT-0500 (Central Daylight Time),682047.5,A,nail,O,l,275,1,7696.899999976158,674350.6000000238,7790,WL,C,15.0
5,51.21499991416931,learn,60000.0,Tue Apr 21 2026 14:43:25 GMT-0500 (Central Daylight Time),682913.6000000238,A,nailenter,O,enter,854,1,8563.0,674350.6000000238,7790,WL,C,15.0
6,1.813999891281128,distr,58186.00010871887,Tue Apr 21 2026 14:43:25 GMT-0500 (Central Daylight Time),762421.7999999523,B,s,O,s,1800,1,1814.5,760607.2999999523,7790,WL,C,1.0
6,2.1969997882843018,distr,57803.0002117157,Tue Apr 21 2026 14:43:25 GMT-0500 (Central Daylight Time),762804.7999999523,B,sk,O,k,375,1,2197.5,760607.2999999523,7790,WL,C,1.0
6,2.7139999866485596,distr,57286.00001335144,Tue Apr 21 2026 14:43:25 GMT-0500 (Central Daylight Time),763321.7999999523,B,sky,O,y,495,1,2714.5,760607.2999999523,7790,WL,C,1.0
6,3.429999828338623,distr,56570.00017166138,Tue Apr 21 2026 14:43:25 GMT-0500 (Central Daylight Time),764038.0,B,skyenter,O,enter,705,1,3430.7000000476837,760607.2999999523,7790,WL,C,1.0
6,4.148000001907349,distr,55851.99999809265,Tue Apr 21 2026 14:43:25 GMT-0500 (Central Daylight Time),764755.2000000477,B,d,O,d,711,1,717.0,764038.2000000477,7790,WL,C,2.0
6,4.646999835968018,distr,55353.00016403198,Tue Apr 21 2026 14:43:25 GMT-0500 (Central Daylight Time),765254.2999999523,B,do,O,o,488,1,1216.0999999046326,764038.2000000477,7790,WL,C,2.0
6,5.311999797821045,distr,54688.000202178955,Tue Apr 21 2026 14:43:25 GMT-0500 (Central Daylight Time),765919.2999999523,B,dol,O,l,655,1,1881.0999999046326,764038.2000000477,7790,WL,C,2.0
6,5.49399995803833,distr,54506.00004196167,Tue Apr 21 2026 14:43:25 GMT-0500 (Central Daylight Time),766101.5,B,doll,O,l,164,1,2063.2999999523163,764038.2000000477,7790,WL,C,2.0
6,5.643999814987183,distr,54356.00018501282,Tue Apr 21 2026 14:43:25 GMT-0500 (Central Daylight Time),766251.8999999762,B,dolla,O,a,134,1,2213.6999999284744,764038.2000000477,7790,WL,C,2.0
6,5.944999933242798,distr,54055.0000667572,Tue Apr 21 2026 14:43:25 GMT-0500 (Central Daylight Time),766553.0,B,dollar,O,r,290,1,2514.7999999523163,764038.2000000477,7790,WL,C,2.0
6,6.411999940872192,distr,53588.00005912781,Tue Apr 21 2026 14:43:25 GMT-0500 (Central Daylight Time),767019.7999999523,B,dollarenter,O,enter,463,1,2981.5999999046326,764038.2000000477,7790,WL,C,2.0
6,7.044999837875366,distr,52955.000162124634,Tue Apr 21 2026 14:43:25 GMT-0500 (Central Daylight Time),767652.7000000477,B,d,O,d,625,1,632.6000000238419,767020.1000000238,7790,WL,C,3.0
6,7.510999917984009,distr,52489.00008201599,Tue Apr 21 2026 14:43:25 GMT-0500 (Central Daylight Time),768118.7999999523,B,di,O,i,453,1,1098.6999999284744,767020.1000000238,7790,WL,C,3.0
6,7.828999996185303,distr,52171.0000038147,Tue Apr 21 2026 14:43:25 GMT-0500 (Central Daylight Time),768436.5,B,dia,O,a,311,1,1416.3999999761581,767020.1000000238,7790,WL,C,3.0
6,8.327999830245972,distr,51672.00016975403,Tue Apr 21 2026 14:43:25 GMT-0500 (Central Daylight Time),768935.6000000238,B,diam,O,m,481,1,1915.5,767020.1000000238,7790,WL,C,3.0
6,8.728999853134155,distr,51271.000146865845,Tue Apr 21 2026 14:43:25 GMT-0500 (Central Daylight Time),769336.1000000238,B,diamo,O,o,389,1,2316.0,767020.1000000238,7790,WL,C,3.0
6,9.012999773025513,distr,50987.00022697449,Tue Apr 21 2026 14:43:25 GMT-0500 (Central Daylight Time),769620.7999999523,B,diamon,O,n,277,1,2600.6999999284744,767020.1000000238,7790,WL,C,3.0
6,9.211999893188477,distr,50788.00010681152,Tue Apr 21 2026 14:43:25 GMT-0500 (Central Daylight Time),769819.3999999762,B,diamond,O,d,182,1,2799.2999999523163,767020.1000000238,7790,WL,C,3.0
6,9.959999799728394,distr,50040.00020027161,Tue Apr 21 2026 14:43:25 GMT-0500 (Central Daylight Time),770567.6000000238,B,diamondenter,O,enter,735,1,3547.5,767020.1000000238,7790,WL,C,3.0
6,14.40999984741211,distr,45590.00015258789,Tue Apr 21 2026 14:43:25 GMT-0500 (Central Daylight Time),775017.2999999523,B,b,O,b,4438,1,4449.399999976158,770567.8999999762,7790,WL,C,4.0
6,15.342999935150146,distr,44657.00006484985,Tue Apr 21 2026 14:43:25 GMT-0500 (Central Daylight Time),775950.2000000477,B,bu,O,u,922,1,5382.300000071526,770567.8999999762,7790,WL,C,4.0
6,15.675999879837036,distr,44324.000120162964,Tue Apr 21 2026 14:43:25 GMT-0500 (Central Daylight Time),776283.3999999762,B,but,O,t,325,1,5715.5,770567.8999999762,7790,WL,C,4.0
6,15.858999967575073,distr,44141.00003242493,Tue Apr 21 2026 14:43:25 GMT-0500 (Central Daylight Time),776466.7000000477,B,butt,O,t,167,1,5898.800000071526,770567.8999999762,7790,WL,C,4.0
6,16.109999895095825,distr,43890.000104904175,Tue Apr 21 2026 14:43:25 GMT-0500 (Central Daylight Time),776717.3999999762,B,butte,O,e,231,1,6149.5,770567.8999999762,7790,WL,C,4.0
6,16.29199981689453,distr,43708.00018310547,Tue Apr 21 2026 14:43:25 GMT-0500 (Central Daylight Time),776899.7000000477,B,butter,O,r,168,1,6331.800000071526,770567.8999999762,7790,WL,C,4.0
6,16.673999786376953,distr,43326.00021362305,Tue Apr 21 2026 14:43:25 GMT-0500 (Central Daylight Time),777283.5,B,butterenter,O,enter,377,1,6715.600000023842,770567.8999999762,7790,WL,C,4.0
6,27.88699984550476,distr,32113.00015449524,Tue Apr 21 2026 14:43:25 GMT-0500 (Central Daylight Time),788496.3999999762,B,y,O,y,11201,1,11212.699999928474,777283.7000000477,7790,WL,C,5.0
6,28.120999813079834,distr,31879.000186920166,Tue Apr 21 2026 14:43:25 GMT-0500 (Central Daylight Time),788730.2999999523,B,ye,O,e,212,1,11446.599999904633,777283.7000000477,7790,WL,C,5.0
6,28.704999923706055,distr,31295.000076293945,Tue Apr 21 2026 14:43:25 GMT-0500 (Central Daylight Time),789314.2999999523,B,yel,O,l,563,1,12030.599999904633,777283.7000000477,7790,WL,C,5.0
6,28.870999813079834,distr,31129.000186920166,Tue Apr 21 2026 14:43:25 GMT-0500 (Central Daylight Time),789480.2000000477,B,yell,O,l,154,1,12196.5,777283.7000000477,7790,WL,C,5.0
6,29.069999933242798,distr,30930.000066757202,Tue Apr 21 2026 14:43:25 GMT-0500 (Central Daylight Time),789678.7000000477,B,yello,O,o,190,1,12395.0,777283.7000000477,7790,WL,C,5.0
6,29.21999979019165,distr,30780.00020980835,Tue Apr 21 2026 14:43:25 GMT-0500 (Central Daylight Time),789828.8999999762,B,yellow,O,w,129,1,12545.199999928474,777283.7000000477,7790,WL,C,5.0
6,29.63699984550476,distr,30363.00015449524,Tue Apr 21 2026 14:43:25 GMT-0500 (Central Daylight Time),790245.8999999762,B,yellowenter,O,enter,397,1,12962.199999928474,777283.7000000477,7790,WL,C,5.0
6,41.94999980926514,distr,18050.000190734863,Tue Apr 21 2026 14:43:25 GMT-0500 (Central Daylight Time),802558.8999999762,B,f,O,f,12295,1,12312.699999928474,790246.2000000477,7790,WL,C,6.0
6,42.5479998588562,distr,17452.0001411438,Tue Apr 21 2026 14:43:25 GMT-0500 (Central Daylight Time),803157.2000000477,B,fo,O,o,587,1,12911.0,790246.2000000477,7790,WL,C,6.0
6,42.83199977874756,distr,17168.00022125244,Tue Apr 21 2026 14:43:25 GMT-0500 (Central Daylight Time),803441.1000000238,B,for,O,r,272,1,13194.899999976158,790246.2000000477,7790,WL,C,6.0
6,43.014999866485596,distr,16985.000133514404,Tue Apr 21 2026 14:43:25 GMT-0500 (Central Daylight Time),803624.5,B,fore,O,e,164,1,13378.299999952316,790246.2000000477,7790,WL,C,6.0
6,43.24899983406067,distr,16751.00016593933,Tue Apr 21 2026 14:43:25 GMT-0500 (Central Daylight Time),803857.7999999523,B,fores,O,s,219,1,13611.599999904633,790246.2000000477,7790,WL,C,6.0
6,43.5,distr,16500.0,Tue Apr 21 2026 14:43:25 GMT-0500 (Central Daylight Time),804109.1000000238,B,forest,O,t,245,1,13862.899999976158,790246.2000000477,7790,WL,C,6.0
6,43.8989999294281,distr,16101.0000705719,Tue Apr 21 2026 14:43:25 GMT-0500 (Central Daylight Time),804508.2999999523,B,forestenter,O,enter,384,1,14262.099999904633,790246.2000000477,7790,WL,C,6.0
6,52.913999795913696,distr,7086.000204086304,Tue Apr 21 2026 14:43:25 GMT-0500 (Central Daylight Time),813522.7000000477,B,enter,O,enter,8993,1,9014.200000047684,804508.5,7790,WL,C,7.0
6,53.811999797821045,distr,6188.000202178955,Tue Apr 21 2026 14:43:25 GMT-0500 (Central Daylight Time),814421.3999999762,B,enter,O,enter,881,1,898.3999999761581,813523.0,7790,WL,C,8.0
6,54.877999782562256,distr,5122.000217437744,Tue Apr 21 2026 14:43:25 GMT-0500 (Central Daylight Time),815486.7000000477,B,enter,O,enter,1047,1,1064.9000000953674,814421.7999999523,7790,WL,C,9.0
6,56.61099982261658,distr,3389.000177383423,Tue Apr 21 2026 14:43:25 GMT-0500 (Central Daylight Time),817219.7000000477,B,enter,O,enter,1720,1,1732.8000000715256,815486.8999999762,7790,WL,C,10.0
6,57.65999984741211,distr,2340.0001525878906,Tue Apr 21 2026 14:43:25 GMT-0500 (Central Daylight Time),818269.1000000238,B,enter,O,enter,1042,1,1049.2000000476837,817219.8999999762,7790,WL,C,11.0
6,58.794999837875366,distr,1205.0001621246338,Tue Apr 21 2026 14:43:25 GMT-0500 (Central Daylight Time),819403.7000000477,B,enter,O,enter,1129,1,1134.2000000476837,818269.5,7790,WL,C,12.0
6,59.32699990272522,distr,673.0000972747803,Tue Apr 21 2026 14:43:25 GMT-0500 (Central Daylight Time),819936.3999999762,B,enter,O,enter,521,1,532.3999999761581,819404.0,7790,WL,C,13.0
6,59.76099991798401,distr,239.0000820159912,Tue Apr 21 2026 14:43:25 GMT-0500 (Central Daylight Time),820370.2999999523,B,enter,O,enter,428,1,433.59999990463257,819936.7000000477,7790,WL,C,14.0
6,60.01099991798401,distr,-10.999917984008789,Tue Apr 21 2026 14:43:25 GMT-0500 (Central Daylight Time),820620.5,B,None,O,None,245,1,250.0,820370.5,7790,WL,C,15.0
7,5.179999828338623,immed,54820.00017166138,Tue Apr 21 2026 14:43:25 GMT-0500 (Central Daylight Time),839096.8999999762,A,c,O,c,5169,1,5181.600000023842,833915.2999999523,7790,WL,C,1.0
7,5.896999835968018,immed,54103.00016403198,Tue Apr 21 2026 14:43:25 GMT-0500 (Central Daylight Time),839814.0,A,co,O,o,701,1,5898.700000047684,833915.2999999523,7790,WL,C,1.0
7,6.079999923706055,immed,53920.000076293945,Tue Apr 21 2026 14:43:25 GMT-0500 (Central Daylight Time),839996.5,A,cor,O,r,162,1,6081.200000047684,833915.2999999523,7790,WL,C,1.0
7,6.312999963760376,immed,53687.000036239624,Tue Apr 21 2026 14:43:25 GMT-0500 (Central Daylight Time),840229.3999999762,A,corn,O,n,220,1,6314.100000023842,833915.2999999523,7790,WL,C,1.0
7,6.912999868392944,immed,53087.000131607056,Tue Apr 21 2026 14:43:25 GMT-0500 (Central Daylight Time),840829.2999999523,A,cornenter,O,enter,582,1,6914.0,833915.2999999523,7790,WL,C,1.0
7,7.478999853134155,immed,52521.000146865845,Tue Apr 21 2026 14:43:25 GMT-0500 (Central Daylight Time),841395.6000000238,A,q,O,q,560,1,566.1000000238419,840829.5,7790,WL,C,2.0
7,7.846999883651733,immed,52153.00011634827,Tue Apr 21 2026 14:43:25 GMT-0500 (Central Daylight Time),841763.3999999762,A,qu,O,u,359,1,933.8999999761581,840829.5,7790,WL,C,2.0
7,8.228999853134155,immed,51771.000146865845,Tue Apr 21 2026 14:43:25 GMT-0500 (Central Daylight Time),842146.0,A,que,O,e,373,1,1316.5,840829.5,7790,WL,C,2.0
7,8.395999908447266,immed,51604.000091552734,Tue Apr 21 2026 14:43:25 GMT-0500 (Central Daylight Time),842312.7000000477,A,quee,O,e,148,1,1483.2000000476837,840829.5,7790,WL,C,2.0
7,8.712999820709229,immed,51287.00017929077,Tue Apr 21 2026 14:43:25 GMT-0500 (Central Daylight Time),842629.3999999762,A,queen,O,n,296,1,1799.8999999761581,840829.5,7790,WL,C,2.0
7,9.211999893188477,immed,50788.00010681152,Tue Apr 21 2026 14:43:25 GMT-0500 (Central Daylight Time),843128.6000000238,A,queenenter,O,enter,475,1,2299.100000023842,840829.5,7790,WL,C,2.0
7,9.69599986076355,immed,50304.00013923645,Tue Apr 21 2026 14:43:25 GMT-0500 (Central Daylight Time),843612.2000000477,A,t,O,t,476,1,483.40000009536743,843128.7999999523,7790,WL,C,3.0
7,10.26199984550476,immed,49738.00015449524,Tue Apr 21 2026 14:43:25 GMT-0500 (Central Daylight Time),844178.6000000238,A,to,O,o,556,1,1049.8000000715256,843128.7999999523,7790,WL,C,3.0
7,10.610999822616577,immed,49389.00017738342,Tue Apr 21 2026 14:43:25 GMT-0500 (Central Daylight Time),844527.7000000477,A,tow,O,w,337,1,1398.9000000953674,843128.7999999523,7790,WL,C,3.0
7,10.861999988555908,immed,49138.00001144409,Tue Apr 21 2026 14:43:25 GMT-0500 (Central Daylight Time),844778.5,A,towe,O,e,234,1,1649.7000000476837,843128.7999999523,7790,WL,C,3.0
7,11.043999910354614,immed,48956.000089645386,Tue Apr 21 2026 14:43:25 GMT-0500 (Central Daylight Time),844961.2000000477,A,tower,O,r,168,1,1832.4000000953674,843128.7999999523,7790,WL,C,3.0
7,11.610999822616577,immed,48389.00017738342,Tue Apr 21 2026 14:43:25 GMT-0500 (Central Daylight Time),845527.6000000238,A,towerenter,O,enter,554,1,2398.8000000715256,843128.7999999523,7790,WL,C,3.0
7,15.393999814987183,immed,44606.00018501282,Tue Apr 21 2026 14:43:25 GMT-0500 (Central Daylight Time),849310.6000000238,A,b,O,b,3766,1,3782.8000000715256,845527.7999999523,7790,WL,C,4.0
7,15.944999933242798,immed,44055.0000667572,Tue Apr 21 2026 14:43:25 GMT-0500 (Central Daylight Time),849861.7000000477,A,bo,O,o,533,1,4333.900000095367,845527.7999999523,7790,WL,C,4.0
7,16.242999792099,immed,43757.000207901,Tue Apr 21 2026 14:43:25 GMT-0500 (Central Daylight Time),850159.5,A,boy,O,y,287,1,4631.700000047684,845527.7999999523,7790,WL,C,4.0
7,16.80999994277954,immed,43190.00005722046,Tue Apr 21 2026 14:43:25 GMT-0500 (Central Daylight Time),850726.5,A,boyenter,O,enter,554,1,5198.700000047684,845527.7999999523,7790,WL,C,4.0
7,17.375999927520752,immed,42624.00007247925,Tue Apr 21 2026 14:43:25 GMT-0500 (Central Daylight Time),851292.3999999762,A,l,O,l,549,1,565.6000000238419,850726.7999999523,7790,WL,C,5.0
7,17.609999895095825,immed,42390.000104904175,Tue Apr 21 2026 14:43:25 GMT-0500 (Central Daylight Time),851526.3999999762,A,le,O,e,225,1,799.6000000238419,850726.7999999523,7790,WL,C,5.0
7,17.908999919891357,immed,42091.00008010864,Tue Apr 21 2026 14:43:25 GMT-0500 (Central Daylight Time),851825.5,A,let,O,t,279,1,1098.7000000476837,850726.7999999523,7790,WL,C,5.0
7,18.075999975204468,immed,41924.00002479553,Tue Apr 21 2026 14:43:25 GMT-0500 (Central Daylight Time),851992.7000000477,A,lett,O,t,153,1,1265.9000000953674,850726.7999999523,7790,WL,C,5.0
7,18.323999881744385,immed,41676.000118255615,Tue Apr 21 2026 14:43:25 GMT-0500 (Central Daylight Time),852241.1000000238,A,lette,O,e,225,1,1514.3000000715256,850726.7999999523,7790,WL,C,5.0
7,18.47499990463257,immed,41525.00009536743,Tue Apr 21 2026 14:43:25 GMT-0500 (Central Daylight Time),852392.1000000238,A,letter,O,r,130,1,1665.3000000715256,850726.7999999523,7790,WL,C,5.0
7,18.95899987220764,immed,41041.00012779236,Tue Apr 21 2026 14:43:25 GMT-0500 (Central Daylight Time),852875.2000000477,A,letterenter,O,enter,466,1,2148.4000000953674,850726.7999999523,7790,WL,C,5.0
7,19.72599983215332,immed,40274.00016784668,Tue Apr 21 2026 14:43:25 GMT-0500 (Central Daylight Time),853643.0,A,c,O,c,762,1,767.6000000238419,852875.3999999762,7790,WL,C,6.0
7,20.14199995994568,immed,39858.00004005432,Tue Apr 21 2026 14:43:25 GMT-0500 (Central Daylight Time),854058.8999999762,A,co,O,o,400,1,1183.5,852875.3999999762,7790,WL,C,6.0
7,20.342000007629395,immed,39657.999992370605,Tue Apr 21 2026 14:43:25 GMT-0500 (Central Daylight Time),854258.5,A,cor,O,r,175,1,1383.1000000238419,852875.3999999762,7790,WL,C,6.0
7,20.574999809265137,immed,39425.00019073486,Tue Apr 21 2026 14:43:25 GMT-0500 (Central Daylight Time),854491.7999999523,A,corn,O,n,216,1,1616.3999999761581,852875.3999999762,7790,WL,C,6.0
7,21.090999841690063,immed,38909.00015830994,Tue Apr 21 2026 14:43:25 GMT-0500 (Central Daylight Time),855007.8999999762,A,cornenter,O,enter,498,1,2132.5,852875.3999999762,7790,WL,C,6.0
7,21.608999967575073,immed,38391.00003242493,Tue Apr 21 2026 14:43:25 GMT-0500 (Central Daylight Time),855525.3999999762,A,c,O,c,509,1,517.2999999523163,855008.1000000238,7790,WL,C,7.0
7,21.89199995994568,immed,38108.00004005432,Tue Apr 21 2026 14:43:25 GMT-0500 (Central Daylight Time),855808.5,A,ca,O,a,261,1,800.3999999761581,855008.1000000238,7790,WL,C,7.0
7,22.85699987411499,immed,37143.00012588501,Tue Apr 21 2026 14:43:25 GMT-0500 (Central Daylight Time),856774.1000000238,A,cam,O,m,945,1,1766.0,855008.1000000238,7790,WL,C,7.0
7,23.490000009536743,immed,36509.99999046326,Tue Apr 21 2026 14:43:25 GMT-0500 (Central Daylight Time),857407.0,A,camp,O,p,618,1,2398.899999976158,855008.1000000238,7790,WL,C,7.0
7,24.289999961853027,immed,35710.00003814697,Tue Apr 21 2026 14:43:25 GMT-0500 (Central Daylight Time),858206.7999999523,A,campenter,O,enter,777,1,3198.6999999284744,855008.1000000238,7790,WL,C,7.0
7,26.906999826431274,immed,33093.000173568726,Tue Apr 21 2026 14:43:25 GMT-0500 (Central Daylight Time),860823.5,A,l,O,l,2598,1,2616.399999976158,858207.1000000238,7790,WL,C,8.0
7,27.12399983406067,immed,32876.00016593933,Tue Apr 21 2026 14:43:25 GMT-0500 (Central Daylight Time),861040.2999999523,A,le,O,e,204,1,2833.1999999284744,858207.1000000238,7790,WL,C,8.0
7,27.35599994659424,immed,32644.00005340576,Tue Apr 21 2026 14:43:25 GMT-0500 (Central Daylight Time),861272.2000000477,A,let,O,t,219,1,3065.100000023842,858207.1000000238,7790,WL,C,8.0
7,27.538999795913696,immed,32461.000204086304,Tue Apr 21 2026 14:43:25 GMT-0500 (Central Daylight Time),861455.8999999762,A,lett,O,t,166,1,3248.7999999523163,858207.1000000238,7790,WL,C,8.0
7,27.738999843597412,immed,32261.000156402588,Tue Apr 21 2026 14:43:25 GMT-0500 (Central Daylight Time),861656.1000000238,A,lette,O,e,182,1,3449.0,858207.1000000238,7790,WL,C,8.0
7,27.889999866485596,immed,32110.000133514404,Tue Apr 21 2026 14:43:25 GMT-0500 (Central Daylight Time),861806.8999999762,A,letter,O,r,127,1,3599.7999999523163,858207.1000000238,7790,WL,C,8.0
7,28.488999843597412,immed,31511.000156402588,Tue Apr 21 2026 14:43:25 GMT-0500 (Central Daylight Time),862405.2999999523,A,letterenter,O,enter,586,1,4198.199999928474,858207.1000000238,7790,WL,C,8.0
7,29.288999795913696,immed,30711.000204086304,Tue Apr 21 2026 14:43:25 GMT-0500 (Central Daylight Time),863205.5,A,c,O,c,791,1,799.8999999761581,862405.6000000238,7790,WL,C,9.0
7,29.488999843597412,immed,30511.000156402588,Tue Apr 21 2026 14:43:25 GMT-0500 (Central Daylight Time),863406.2000000477,A,co,O,o,188,1,1000.6000000238419,862405.6000000238,7790,WL,C,9.0
7,29.622999906539917,immed,30377.000093460083,Tue Apr 21 2026 14:43:25 GMT-0500 (Central Daylight Time),863540.0,A,cor,O,r,124,1,1134.3999999761581,862405.6000000238,7790,WL,C,9.0
7,29.83899998664856,immed,30161.00001335144,Tue Apr 21 2026 14:43:25 GMT-0500 (Central Daylight Time),863755.7000000477,A,corn,O,n,207,1,1350.1000000238419,862405.6000000238,7790,WL,C,9.0
7,30.57099986076355,immed,29429.00013923645,Tue Apr 21 2026 14:43:25 GMT-0500 (Central Daylight Time),864488.2000000477,A,cornenter,O,enter,719,1,2082.600000023842,862405.6000000238,7790,WL,C,9.0
7,37.48599982261658,immed,22514.000177383423,Tue Apr 21 2026 14:43:25 GMT-0500 (Central Daylight Time),871402.3999999762,A,s,O,s,6901,1,6914.0,864488.3999999762,7790,WL,C,10.0
7,37.853999853134155,immed,22146.000146865845,Tue Apr 21 2026 14:43:25 GMT-0500 (Central Daylight Time),871770.2999999523,A,su,O,u,356,1,7281.899999976158,864488.3999999762,7790,WL,C,10.0
7,38.13599991798401,immed,21864.00008201599,Tue Apr 21 2026 14:43:25 GMT-0500 (Central Daylight Time),872052.8999999762,A,sug,O,g,266,1,7564.5,864488.3999999762,7790,WL,C,10.0
7,38.335999965667725,immed,21664.000034332275,Tue Apr 21 2026 14:43:25 GMT-0500 (Central Daylight Time),872252.5,A,suga,O,a,195,1,7764.100000023842,864488.3999999762,7790,WL,C,10.0
7,38.48699998855591,immed,21513.00001144409,Tue Apr 21 2026 14:43:25 GMT-0500 (Central Daylight Time),872404.0,A,sugar,O,r,141,1,7915.600000023842,864488.3999999762,7790,WL,C,10.0
7,38.98599982261658,immed,21014.000177383423,Tue Apr 21 2026 14:43:25 GMT-0500 (Central Daylight Time),872902.2999999523,A,sugarenter,O,enter,480,1,8413.899999976158,864488.3999999762,7790,WL,C,10.0
7,40.10199999809265,immed,19898.00000190735,Tue Apr 21 2026 14:43:25 GMT-0500 (Central Daylight Time),874019.0,A,t,O,t,1103,1,1116.5,872902.5,7790,WL,C,11.0
7,40.45299983024597,immed,19547.00016975403,Tue Apr 21 2026 14:43:25 GMT-0500 (Central Daylight Time),874370.1000000238,A,to,O,o,327,1,1467.6000000238419,872902.5,7790,WL,C,11.0
7,40.71999979019165,immed,19280.00020980835,Tue Apr 21 2026 14:43:25 GMT-0500 (Central Daylight Time),874636.6000000238,A,tow,O,w,251,1,1734.1000000238419,872902.5,7790,WL,C,11.0
7,40.95299983024597,immed,19047.00016975403,Tue Apr 21 2026 14:43:25 GMT-0500 (Central Daylight Time),874869.6000000238,A,towe,O,e,223,1,1967.1000000238419,872902.5,7790,WL,C,11.0
7,41.1029999256134,immed,18897.000074386597,Tue Apr 21 2026 14:43:25 GMT-0500 (Central Daylight Time),875019.6000000238,A,tower,O,r,143,1,2117.100000023842,872902.5,7790,WL,C,11.0
7,41.85199999809265,immed,18148.00000190735,Tue Apr 21 2026 14:43:25 GMT-0500 (Central Daylight Time),875768.2999999523,A,towerenter,O,enter,736,1,2865.7999999523163,872902.5,7790,WL,C,11.0
7,42.66799998283386,immed,17332.000017166138,Tue Apr 21 2026 14:43:25 GMT-0500 (Central Daylight Time),876584.5,A,b,O,b,805,1,815.8999999761581,875768.6000000238,7790,WL,C,12.0
7,42.9689998626709,immed,17031.0001373291,Tue Apr 21 2026 14:43:25 GMT-0500 (Central Daylight Time),876885.2000000477,A,bo,O,o,292,1,1116.6000000238419,875768.6000000238,7790,WL,C,12.0
7,43.300999879837036,immed,16699.000120162964,Tue Apr 21 2026 14:43:25 GMT-0500 (Central Daylight Time),877218.1000000238,A,boy,O,y,321,1,1449.5,875768.6000000238,7790,WL,C,12.0
7,43.817999839782715,immed,16182.000160217285,Tue Apr 21 2026 14:43:25 GMT-0500 (Central Daylight Time),877734.7000000477,A,boyenter,O,enter,506,1,1966.1000000238419,875768.6000000238,7790,WL,C,12.0
7,48.18399977684021,immed,11816.00022315979,Tue Apr 21 2026 14:43:25 GMT-0500 (Central Daylight Time),882100.5,A,s,O,s,4350,1,4365.600000023842,877734.8999999762,7790,WL,C,13.0
7,48.53399991989136,immed,11466.000080108643,Tue Apr 21 2026 14:43:25 GMT-0500 (Central Daylight Time),882450.7000000477,A,sh,O,h,336,1,4715.800000071526,877734.8999999762,7790,WL,C,13.0
7,48.84999990463257,immed,11150.000095367432,Tue Apr 21 2026 14:43:25 GMT-0500 (Central Daylight Time),882767.0,A,sho,O,o,308,1,5032.100000023842,877734.8999999762,7790,WL,C,13.0
7,49.0,immed,11000.0,Tue Apr 21 2026 14:43:25 GMT-0500 (Central Daylight Time),882916.7999999523,A,shor,O,r,135,1,5181.899999976158,877734.8999999762,7790,WL,C,13.0
7,49.650999784469604,immed,10349.000215530396,Tue Apr 21 2026 14:43:25 GMT-0500 (Central Daylight Time),883567.2999999523,A,shore,O,e,640,1,5832.399999976158,877734.8999999762,7790,WL,C,13.0
7,50.181999921798706,immed,9818.000078201294,Tue Apr 21 2026 14:43:25 GMT-0500 (Central Daylight Time),884099.0,A,shoreenter,O,enter,517,1,6364.100000023842,877734.8999999762,7790,WL,C,13.0
7,53.63099980354309,immed,6369.000196456909,Tue Apr 21 2026 14:43:25 GMT-0500 (Central Daylight Time),887547.3999999762,A,c,O,c,3433,1,3448.100000023842,884099.2999999523,7790,WL,C,14.0
7,53.88199996948242,immed,6118.000030517578,Tue Apr 21 2026 14:43:25 GMT-0500 (Central Daylight Time),887798.7999999523,A,co,O,o,243,1,3699.5,884099.2999999523,7790,WL,C,14.0
7,54.097999811172485,immed,5902.000188827515,Tue Apr 21 2026 14:43:25 GMT-0500 (Central Daylight Time),888014.5,A,cor,O,r,205,1,3915.2000000476837,884099.2999999523,7790,WL,C,14.0
7,54.3989999294281,immed,5601.000070571899,Tue Apr 21 2026 14:43:25 GMT-0500 (Central Daylight Time),888315.8999999762,A,corn,O,n,285,1,4216.600000023842,884099.2999999523,7790,WL,C,14.0
7,54.94599986076355,immed,5054.00013923645,Tue Apr 21 2026 14:43:25 GMT-0500 (Central Daylight Time),888862.7000000477,A,cornenter,O,enter,536,1,4763.400000095367,884099.2999999523,7790,WL,C,14.0
7,60.013999938964844,immed,-13.99993896484375,Tue Apr 21 2026 14:43:25 GMT-0500 (Central Daylight Time),893930.7000000477,A,None,O,None,5063,1,5067.700000047684,888863.0,7790,WL,C,15.0
