Number,acc_sum,block,block_c,block_cond,con_img,correct,correct_response,datetime,endtime,jitter,project,response,response_time,row_sel,session_number,start_end,starttime,subject_id,task,task_vers,trial
8,0,prac,1,A,circle.png,0,m,Tue Mar 24 2026 09:11:36 GMT-0500 (Central Daylight Time),65175.200000047684,1600,O,None,1515,7,1,3892.2999999523163,61282.90000009537,7773,NTS,C,1
9,1,prac,1,A,circle.png,1,m,Tue Mar 24 2026 09:11:36 GMT-0500 (Central Daylight Time),68841.80000019073,1500,O,m,1373,8,1,3658.100000143051,65183.700000047684,7773,NTS,C,2
9,2,prac,1,A,circle.png,1,m,Tue Mar 24 2026 09:11:36 GMT-0500 (Central Daylight Time),71959.70000004768,1500,O,m,823,8,1,3107.5999999046326,68852.10000014305,7773,NTS,C,3
1,3,prac,1,A,circle.png,1,z,Tue Mar 24 2026 09:11:36 GMT-0500 (Central Daylight Time),74423.0,1000,O,z,676,1,1,2456.2999999523163,71966.70000004768,7773,NTS,C,4
2,4,prac,1,A,circle.png,1,z,Tue Mar 24 2026 09:11:36 GMT-0500 (Central Daylight Time),77871.40000009537,2000,O,z,653,2,1,3441.5999999046326,74429.80000019073,7773,NTS,C,5
4,5,prac,1,A,circle.png,1,z,Tue Mar 24 2026 09:11:36 GMT-0500 (Central Daylight Time),81023.70000004768,1400,O,z,957,4,1,3144.399999856949,77879.30000019073,7773,NTS,C,6
3,6,prac,1,A,circle.png,1,z,Tue Mar 24 2026 09:11:36 GMT-0500 (Central Daylight Time),83619.90000009537,1200,O,z,597,3,1,2589.9000000953674,81030.0,7773,NTS,C,7
2,7,prac,1,A,circle.png,1,z,Tue Mar 24 2026 09:11:36 GMT-0500 (Central Daylight Time),86971.0,2000,O,z,567,2,1,3340.0999999046326,83630.90000009537,7773,NTS,C,8
8,8,prac,1,A,circle.png,1,m,Tue Mar 24 2026 09:11:36 GMT-0500 (Central Daylight Time),89935.90000009537,1600,O,m,587,7,1,2958.5999999046326,86977.30000019073,7773,NTS,C,9
3,9,prac,1,A,circle.png,1,z,Tue Mar 24 2026 09:11:36 GMT-0500 (Central Daylight Time),92551.60000014305,1200,O,z,621,3,1,2610.2000000476837,89941.40000009537,7773,NTS,C,10
7,10,prac,1,A,circle.png,1,m,Tue Mar 24 2026 09:11:36 GMT-0500 (Central Daylight Time),95682.5,1700,O,m,640,6,1,3125.2999999523163,92557.20000004768,7773,NTS,C,11
6,11,prac,1,A,circle.png,1,m,Tue Mar 24 2026 09:11:36 GMT-0500 (Central Daylight Time),98882.30000019073,1900,O,m,508,5,1,3192.600000143051,95689.70000004768,7773,NTS,C,12
7,0,prac,1,B,triangle.png,0,z,Tue Mar 24 2026 09:11:36 GMT-0500 (Central Daylight Time),132405.40000009537,2000,O,None,1501,6,1,4279.099999904633,128126.30000019073,7773,NTS,C,1
9,0,prac,1,B,triangle.png,0,z,Tue Mar 24 2026 09:11:36 GMT-0500 (Central Daylight Time),135188.30000019073,1400,O,m,606,8,1,2776.5,132411.80000019073,7773,NTS,C,2
6,1,prac,1,B,triangle.png,1,m,Tue Mar 24 2026 09:11:36 GMT-0500 (Central Daylight Time),137637.80000019073,1000,O,m,672,5,1,2443.600000143051,135194.20000004768,7773,NTS,C,3
9,2,prac,1,B,triangle.png,1,z,Tue Mar 24 2026 09:11:36 GMT-0500 (Central Daylight Time),140385.80000019073,1400,O,z,551,8,1,2741.800000190735,137644.0,7773,NTS,C,4
7,3,prac,1,B,triangle.png,1,z,Tue Mar 24 2026 09:11:36 GMT-0500 (Central Daylight Time),143818.40000009537,2000,O,z,649,6,1,3424.2999999523163,140394.10000014305,7773,NTS,C,5
4,4,prac,1,B,triangle.png,1,m,Tue Mar 24 2026 09:11:36 GMT-0500 (Central Daylight Time),146884.90000009537,1500,O,m,784,4,1,3060.2999999523163,143824.60000014305,7773,NTS,C,6
3,4,prac,1,B,triangle.png,0,z,Tue Mar 24 2026 09:11:36 GMT-0500 (Central Daylight Time),150000.60000014305,1600,O,m,726,3,1,3108.0,146892.60000014305,7773,NTS,C,7
4,5,prac,1,B,triangle.png,1,m,Tue Mar 24 2026 09:11:36 GMT-0500 (Central Daylight Time),153014.60000014305,1500,O,m,729,4,1,3009.2999999523163,150005.30000019073,7773,NTS,C,8
8,5,prac,1,B,triangle.png,0,m,Tue Mar 24 2026 09:11:36 GMT-0500 (Central Daylight Time),155715.30000019073,1200,O,z,726,7,1,2696.7000000476837,153018.60000014305,7773,NTS,C,9
2,6,prac,1,B,triangle.png,1,m,Tue Mar 24 2026 09:11:36 GMT-0500 (Central Daylight Time),159079.60000014305,1700,O,m,869,2,1,3357.2999999523163,155722.30000019073,7773,NTS,C,10
2,7,prac,1,B,triangle.png,1,m,Tue Mar 24 2026 09:11:36 GMT-0500 (Central Daylight Time),162146.0,1700,O,m,578,2,1,3059.5999999046326,159086.40000009537,7773,NTS,C,11
1,8,prac,1,B,triangle.png,1,z,Tue Mar 24 2026 09:11:36 GMT-0500 (Central Daylight Time),165313.0,1900,O,z,466,1,1,3160.0,162153.0,7773,NTS,C,12
7,1,prac,2,B,triangle.png,1,z,Tue Mar 24 2026 09:11:36 GMT-0500 (Central Daylight Time),174241.0,2000,O,z,761,6,1,3558.399999856949,170682.60000014305,7773,NTS,C,1
8,2,prac,2,B,triangle.png,1,m,Tue Mar 24 2026 09:11:36 GMT-0500 (Central Daylight Time),176873.20000004768,1200,O,m,643,7,1,2628.7999999523163,174244.40000009537,7773,NTS,C,2
3,3,prac,2,B,triangle.png,1,z,Tue Mar 24 2026 09:11:36 GMT-0500 (Central Daylight Time),179740.60000014305,1600,O,z,473,3,1,2862.2999999523163,176878.30000019073,7773,NTS,C,3
9,3,prac,2,B,triangle.png,0,z,Tue Mar 24 2026 09:11:36 GMT-0500 (Central Daylight Time),182539.80000019073,1400,O,m,600,8,1,2793.0,179746.80000019073,7773,NTS,C,4
1,4,prac,2,B,triangle.png,1,z,Tue Mar 24 2026 09:11:36 GMT-0500 (Central Daylight Time),185888.20000004768,1900,O,z,667,1,1,3342.0999999046326,182546.10000014305,7773,NTS,C,5
7,5,prac,2,B,triangle.png,1,z,Tue Mar 24 2026 09:11:36 GMT-0500 (Central Daylight Time),189504.10000014305,2000,O,z,833,6,1,3611.0,185893.10000014305,7773,NTS,C,6
4,6,prac,2,B,triangle.png,1,m,Tue Mar 24 2026 09:11:36 GMT-0500 (Central Daylight Time),192402.20000004768,1500,O,m,610,4,1,2891.5,189510.70000004768,7773,NTS,C,7
3,7,prac,2,B,triangle.png,1,z,Tue Mar 24 2026 09:11:36 GMT-0500 (Central Daylight Time),195335.90000009537,1600,O,z,564,3,1,2925.7000000476837,192410.20000004768,7773,NTS,C,8
9,7,prac,2,B,triangle.png,0,z,Tue Mar 24 2026 09:11:36 GMT-0500 (Central Daylight Time),198084.10000014305,1400,O,m,552,8,1,2740.100000143051,195344.0,7773,NTS,C,9
6,8,prac,2,B,triangle.png,1,m,Tue Mar 24 2026 09:11:36 GMT-0500 (Central Daylight Time),200549.90000009537,1000,O,m,671,5,1,2454.7000000476837,198095.20000004768,7773,NTS,C,10
2,9,prac,2,B,triangle.png,1,m,Tue Mar 24 2026 09:11:36 GMT-0500 (Central Daylight Time),203748.80000019073,1700,O,m,706,2,1,3190.800000190735,200558.0,7773,NTS,C,11
6,10,prac,2,B,triangle.png,1,m,Tue Mar 24 2026 09:11:36 GMT-0500 (Central Daylight Time),206313.90000009537,1000,O,m,768,5,1,2554.7999999523163,203759.10000014305,7773,NTS,C,12
9,1,test,1,A,circle.png,1,m,Tue Mar 24 2026 09:11:36 GMT-0500 (Central Daylight Time),236270.90000009537,1500,O,m,1356,8,1,2876.7000000476837,233394.20000004768,7773,NTS,C,1
6,2,test,1,A,circle.png,1,m,Tue Mar 24 2026 09:11:36 GMT-0500 (Central Daylight Time),238804.30000019073,1900,O,m,601,5,1,2528.800000190735,236275.5,7773,NTS,C,2
7,3,test,1,A,circle.png,1,m,Tue Mar 24 2026 09:11:36 GMT-0500 (Central Daylight Time),241303.0,1700,O,m,782,6,1,2492.5999999046326,238810.40000009537,7773,NTS,C,3
4,4,test,1,A,circle.png,1,z,Tue Mar 24 2026 09:11:36 GMT-0500 (Central Daylight Time),243550.5,1400,O,z,828,4,1,2241.0999999046326,241309.40000009537,7773,NTS,C,4
3,5,test,1,A,circle.png,1,z,Tue Mar 24 2026 09:11:36 GMT-0500 (Central Daylight Time),245317.90000009537,1200,O,z,545,3,1,1764.7999999523163,243553.10000014305,7773,NTS,C,5
6,6,test,1,A,circle.png,1,m,Tue Mar 24 2026 09:11:36 GMT-0500 (Central Daylight Time),247918.20000004768,1900,O,m,681,5,1,2597.5,245320.70000004768,7773,NTS,C,6
1,7,test,1,A,circle.png,1,z,Tue Mar 24 2026 09:11:36 GMT-0500 (Central Daylight Time),249533.70000004768,1000,O,z,589,1,1,1609.8999998569489,247923.80000019073,7773,NTS,C,7
2,8,test,1,A,circle.png,1,z,Tue Mar 24 2026 09:11:36 GMT-0500 (Central Daylight Time),252216.5,2000,O,z,656,2,1,2677.5,249539.0,7773,NTS,C,8
8,9,test,1,A,circle.png,1,m,Tue Mar 24 2026 09:11:36 GMT-0500 (Central Daylight Time),254482.10000014305,1600,O,m,644,7,1,2261.5,252220.60000014305,7773,NTS,C,9
9,10,test,1,A,circle.png,1,m,Tue Mar 24 2026 09:11:36 GMT-0500 (Central Daylight Time),256598.5,1500,O,m,590,8,1,2111.899999856949,254486.60000014305,7773,NTS,C,10
6,11,test,1,A,circle.png,1,m,Tue Mar 24 2026 09:11:36 GMT-0500 (Central Daylight Time),259165.5,1900,O,m,648,5,1,2562.0,256603.5,7773,NTS,C,11
1,12,test,1,A,circle.png,1,z,Tue Mar 24 2026 09:11:36 GMT-0500 (Central Daylight Time),260648.40000009537,1000,O,z,465,1,1,1478.9000000953674,259169.5,7773,NTS,C,12
7,13,test,1,A,circle.png,1,m,Tue Mar 24 2026 09:11:36 GMT-0500 (Central Daylight Time),262912.7000000477,1700,O,m,544,6,1,2259.0999999046326,260653.60000014305,7773,NTS,C,13
2,14,test,1,A,circle.png,1,z,Tue Mar 24 2026 09:11:36 GMT-0500 (Central Daylight Time),265495.40000009537,2000,O,z,550,2,1,2578.2000000476837,262917.2000000477,7773,NTS,C,14
6,15,test,1,A,circle.png,1,m,Tue Mar 24 2026 09:11:36 GMT-0500 (Central Daylight Time),267895.30000019073,1900,O,m,480,5,1,2395.300000190735,265500.0,7773,NTS,C,15
9,16,test,1,A,circle.png,1,m,Tue Mar 24 2026 09:11:36 GMT-0500 (Central Daylight Time),270011.0,1500,O,m,583,8,1,2110.699999809265,267900.30000019073,7773,NTS,C,16
3,17,test,1,A,circle.png,1,z,Tue Mar 24 2026 09:11:36 GMT-0500 (Central Daylight Time),271808.80000019073,1200,O,z,574,3,1,1793.6000001430511,270015.2000000477,7773,NTS,C,17
1,18,test,1,A,circle.png,1,z,Tue Mar 24 2026 09:11:36 GMT-0500 (Central Daylight Time),273377.10000014305,1000,O,z,548,1,1,1565.4000000953674,271811.7000000477,7773,NTS,C,18
8,19,test,1,A,circle.png,1,m,Tue Mar 24 2026 09:11:36 GMT-0500 (Central Daylight Time),275624.80000019073,1600,O,m,626,7,1,2243.2000000476837,273381.60000014305,7773,NTS,C,19
9,20,test,1,A,circle.png,1,m,Tue Mar 24 2026 09:11:36 GMT-0500 (Central Daylight Time),277657.7000000477,1500,O,m,511,8,1,2030.2000000476837,275627.5,7773,NTS,C,20
3,21,test,1,A,circle.png,1,z,Tue Mar 24 2026 09:11:36 GMT-0500 (Central Daylight Time),279457.90000009537,1200,O,z,577,3,1,1796.9000000953674,277661.0,7773,NTS,C,21
4,22,test,1,A,circle.png,1,z,Tue Mar 24 2026 09:11:36 GMT-0500 (Central Daylight Time),281557.7000000477,1400,O,z,682,4,1,2094.2999999523163,279463.40000009537,7773,NTS,C,22
8,23,test,1,A,circle.png,1,m,Tue Mar 24 2026 09:11:36 GMT-0500 (Central Daylight Time),283640.40000009537,1600,O,m,460,7,1,2078.2000000476837,281562.2000000477,7773,NTS,C,23
8,24,test,1,A,circle.png,1,m,Tue Mar 24 2026 09:11:36 GMT-0500 (Central Daylight Time),285738.90000009537,1600,O,m,476,7,1,2096.2000000476837,283642.7000000477,7773,NTS,C,24
7,1,test,1,B,triangle.png,1,z,Tue Mar 24 2026 09:11:36 GMT-0500 (Central Daylight Time),305932.80000019073,1600,O,z,850,14,1,2474.800000190735,303458.0,7773,NTS,C,1
9,2,test,1,B,triangle.png,1,z,Tue Mar 24 2026 09:11:36 GMT-0500 (Central Daylight Time),308499.10000014305,1900,O,z,643,16,1,2561.2999999523163,305937.80000019073,7773,NTS,C,2
1,3,test,1,B,triangle.png,1,z,Tue Mar 24 2026 09:11:36 GMT-0500 (Central Daylight Time),310765.90000009537,1400,O,z,834,9,1,2263.0999999046326,308502.80000019073,7773,NTS,C,3
3,4,test,1,B,triangle.png,1,z,Tue Mar 24 2026 09:11:36 GMT-0500 (Central Daylight Time),313447.2000000477,2000,O,z,657,11,1,2678.2999999523163,310768.90000009537,7773,NTS,C,4
6,5,test,1,B,triangle.png,1,m,Tue Mar 24 2026 09:11:36 GMT-0500 (Central Daylight Time),315612.7000000477,1500,O,m,634,13,1,2158.899999856949,313453.80000019073,7773,NTS,C,5
3,6,test,1,B,triangle.png,1,z,Tue Mar 24 2026 09:11:36 GMT-0500 (Central Daylight Time),317978.10000014305,1600,O,z,736,3,1,2360.2000000476837,315617.90000009537,7773,NTS,C,6
9,7,test,1,B,triangle.png,1,z,Tue Mar 24 2026 09:11:36 GMT-0500 (Central Daylight Time),320410.60000014305,1900,O,z,509,16,1,2427.7999999523163,317982.80000019073,7773,NTS,C,7
4,8,test,1,B,triangle.png,1,m,Tue Mar 24 2026 09:11:36 GMT-0500 (Central Daylight Time),322127.0,1000,O,m,688,12,1,1711.0999999046326,320415.90000009537,7773,NTS,C,8
8,9,test,1,B,triangle.png,1,m,Tue Mar 24 2026 09:11:36 GMT-0500 (Central Daylight Time),324009.90000009537,1200,O,m,652,7,1,1876.5999999046326,322133.30000019073,7773,NTS,C,9
4,10,test,1,B,triangle.png,1,m,Tue Mar 24 2026 09:11:36 GMT-0500 (Central Daylight Time),326311.0,1500,O,m,773,4,1,2295.5,324015.5,7773,NTS,C,10
1,11,test,1,B,triangle.png,1,z,Tue Mar 24 2026 09:11:36 GMT-0500 (Central Daylight Time),328325.2000000477,1400,O,z,590,9,1,2009.3999998569489,326315.80000019073,7773,NTS,C,11
9,12,test,1,B,triangle.png,1,z,Tue Mar 24 2026 09:11:36 GMT-0500 (Central Daylight Time),330924.30000019073,1400,O,z,1167,8,1,2594.9000000953674,328329.40000009537,7773,NTS,C,12
7,13,test,1,B,triangle.png,1,z,Tue Mar 24 2026 09:11:36 GMT-0500 (Central Daylight Time),333523.0,2000,O,z,577,6,1,2592.0,330931.0,7773,NTS,C,13
7,14,test,1,B,triangle.png,1,z,Tue Mar 24 2026 09:11:36 GMT-0500 (Central Daylight Time),335755.7000000477,1600,O,z,608,14,1,2228.5,333527.2000000477,7773,NTS,C,14
1,15,test,1,B,triangle.png,1,z,Tue Mar 24 2026 09:11:36 GMT-0500 (Central Daylight Time),338288.60000014305,1900,O,z,604,1,1,2527.100000143051,335761.5,7773,NTS,C,15
7,16,test,1,B,triangle.png,1,z,Tue Mar 24 2026 09:11:36 GMT-0500 (Central Daylight Time),340889.90000009537,2000,O,z,570,6,1,2597.7999999523163,338292.10000014305,7773,NTS,C,16
3,17,test,1,B,triangle.png,1,z,Tue Mar 24 2026 09:11:36 GMT-0500 (Central Daylight Time),343470.80000019073,2000,O,z,555,11,1,2573.800000190735,340897.0,7773,NTS,C,17
8,18,test,1,B,triangle.png,1,m,Tue Mar 24 2026 09:11:36 GMT-0500 (Central Daylight Time),345686.7000000477,1700,O,m,497,15,1,2211.399999856949,343475.30000019073,7773,NTS,C,18
6,19,test,1,B,triangle.png,1,m,Tue Mar 24 2026 09:11:36 GMT-0500 (Central Daylight Time),347237.30000019073,1000,O,m,534,5,1,1547.0,345690.30000019073,7773,NTS,C,19
3,20,test,1,B,triangle.png,1,z,Tue Mar 24 2026 09:11:36 GMT-0500 (Central Daylight Time),349435.5,1600,O,z,569,3,1,2193.699999809265,347241.80000019073,7773,NTS,C,20
9,21,test,1,B,triangle.png,1,z,Tue Mar 24 2026 09:11:36 GMT-0500 (Central Daylight Time),351585.40000009537,1400,O,z,721,8,1,2147.0999999046326,349438.30000019073,7773,NTS,C,21
8,22,test,1,B,triangle.png,1,m,Tue Mar 24 2026 09:11:36 GMT-0500 (Central Daylight Time),353467.5,1200,O,m,651,7,1,1878.2999999523163,351589.2000000477,7773,NTS,C,22
2,23,test,1,B,triangle.png,1,m,Tue Mar 24 2026 09:11:36 GMT-0500 (Central Daylight Time),355733.0,1700,O,m,548,2,1,2261.899999856949,353471.10000014305,7773,NTS,C,23
2,24,test,1,B,triangle.png,1,m,Tue Mar 24 2026 09:11:36 GMT-0500 (Central Daylight Time),357449.80000019073,1200,O,m,485,10,1,1709.9000000953674,355739.90000009537,7773,NTS,C,24
7,0,prac,1,C,triangle.png,0,z,Tue Mar 24 2026 09:11:36 GMT-0500 (Central Daylight Time),473980.2000000477,1200,O,None,1516,6,1,3492.399999856949,470487.80000019073,7773,NTS,C,1
3,1,prac,1,C,triangle.png,1,z,Tue Mar 24 2026 09:11:36 GMT-0500 (Central Daylight Time),476963.80000019073,1500,O,z,707,3,1,2976.5,473987.30000019073,7773,NTS,C,2
9,1,prac,1,C,circle.png,0,m,Tue Mar 24 2026 09:11:36 GMT-0500 (Central Daylight Time),480343.2000000477,1900,O,z,696,8,1,3371.399999856949,476971.80000019073,7773,NTS,C,3
3,2,prac,1,C,triangle.png,1,z,Tue Mar 24 2026 09:11:36 GMT-0500 (Central Daylight Time),483262.7000000477,1500,O,z,618,3,1,2914.2000000476837,480348.5,7773,NTS,C,4
2,3,prac,1,C,triangle.png,1,m,Tue Mar 24 2026 09:11:36 GMT-0500 (Central Daylight Time),486460.0,1600,O,m,823,2,1,3192.199999809265,483267.80000019073,7773,NTS,C,5
1,4,prac,1,C,circle.png,1,z,Tue Mar 24 2026 09:11:36 GMT-0500 (Central Daylight Time),489909.0,1700,O,z,973,1,1,3443.5999999046326,486465.40000009537,7773,NTS,C,6
4,4,prac,1,C,circle.png,0,z,Tue Mar 24 2026 09:11:36 GMT-0500 (Central Daylight Time),492523.90000009537,1000,O,m,817,4,1,2604.2000000476837,489919.7000000477,7773,NTS,C,7
8,5,prac,1,C,triangle.png,1,m,Tue Mar 24 2026 09:11:36 GMT-0500 (Central Daylight Time),495541.60000014305,1400,O,m,825,7,1,3013.0,492528.60000014305,7773,NTS,C,8
6,6,prac,1,C,circle.png,1,m,Tue Mar 24 2026 09:11:36 GMT-0500 (Central Daylight Time),499070.7000000477,2000,O,m,744,5,1,3523.399999856949,495547.30000019073,7773,NTS,C,9
9,6,prac,1,C,circle.png,0,m,Tue Mar 24 2026 09:11:36 GMT-0500 (Central Daylight Time),502756.40000009537,1900,O,z,1001,8,1,3680.0,499076.40000009537,7773,NTS,C,10
2,7,prac,1,C,triangle.png,1,m,Tue Mar 24 2026 09:11:36 GMT-0500 (Central Daylight Time),506620.10000014305,1600,O,m,1467,2,1,3859.9000000953674,502760.2000000477,7773,NTS,C,11
6,7,prac,1,C,circle.png,0,m,Tue Mar 24 2026 09:11:36 GMT-0500 (Central Daylight Time),510918.30000019073,2000,O,None,1514,5,1,4291.200000047684,506627.10000014305,7773,NTS,C,12
9,0,prac,2,C,circle.png,0,m,Tue Mar 24 2026 09:11:36 GMT-0500 (Central Daylight Time),519298.60000014305,1900,O,z,1007,8,1,3676.7000000476837,515621.90000009537,7773,NTS,C,1
4,0,prac,2,C,circle.png,0,z,Tue Mar 24 2026 09:11:36 GMT-0500 (Central Daylight Time),522197.5,1000,O,m,1107,4,1,2893.199999809265,519304.30000019073,7773,NTS,C,2
7,0,prac,2,C,triangle.png,0,z,Tue Mar 24 2026 09:11:36 GMT-0500 (Central Daylight Time),525361.7000000477,1200,O,m,1186,6,1,3157.7000000476837,522204.0,7773,NTS,C,3
8,1,prac,2,C,triangle.png,1,m,Tue Mar 24 2026 09:11:36 GMT-0500 (Central Daylight Time),528395.600000143,1400,O,m,857,7,1,3029.100000143051,525366.5,7773,NTS,C,4
1,2,prac,2,C,circle.png,1,z,Tue Mar 24 2026 09:11:36 GMT-0500 (Central Daylight Time),531861.8000001907,1700,O,z,973,1,1,3459.800000190735,528402.0,7773,NTS,C,5
2,2,prac,2,C,triangle.png,0,m,Tue Mar 24 2026 09:11:36 GMT-0500 (Central Daylight Time),535759.600000143,1600,O,None,1517,2,1,3891.600000143051,531868.0,7773,NTS,C,6
6,2,prac,2,C,circle.png,0,m,Tue Mar 24 2026 09:11:36 GMT-0500 (Central Daylight Time),540057.8000001907,2000,O,None,1516,5,1,4290.700000047684,535767.100000143,7773,NTS,C,7
3,3,prac,2,C,triangle.png,1,z,Tue Mar 24 2026 09:11:36 GMT-0500 (Central Daylight Time),543041.4000000954,1500,O,z,695,3,1,2975.4000000953674,540066.0,7773,NTS,C,8
4,3,prac,2,C,circle.png,0,z,Tue Mar 24 2026 09:11:36 GMT-0500 (Central Daylight Time),545671.8000001907,1000,O,m,834,4,1,2623.7000000476837,543048.100000143,7773,NTS,C,9
9,4,prac,2,C,circle.png,1,m,Tue Mar 24 2026 09:11:36 GMT-0500 (Central Daylight Time),549256.0,1900,O,m,899,8,1,3579.5999999046326,545676.4000000954,7773,NTS,C,10
1,5,prac,2,C,circle.png,1,z,Tue Mar 24 2026 09:11:36 GMT-0500 (Central Daylight Time),552620.4000000954,1700,O,z,874,1,1,3358.0,549262.4000000954,7773,NTS,C,11
6,5,prac,2,C,circle.png,0,m,Tue Mar 24 2026 09:11:36 GMT-0500 (Central Daylight Time),556936.0,2000,O,None,1515,5,1,4302.199999809265,552633.8000001907,7773,NTS,C,12
2,0,test,1,C,circle.png,0,z,Tue Mar 24 2026 09:11:36 GMT-0500 (Central Daylight Time),588643.4000000954,1700,O,m,885,18,1,2613.5,586029.9000000954,7773,NTS,C,1
1,1,test,1,C,triangle.png,1,z,Tue Mar 24 2026 09:11:36 GMT-0500 (Central Daylight Time),591292.2000000477,1900,O,z,726,9,1,2643.5,588648.7000000477,7773,NTS,C,2
3,2,test,1,C,triangle.png,1,z,Tue Mar 24 2026 09:11:36 GMT-0500 (Central Daylight Time),593325.5,1200,O,z,801,3,1,2028.3999998569489,591297.100000143,7773,NTS,C,3
3,3,test,1,C,circle.png,1,z,Tue Mar 24 2026 09:11:36 GMT-0500 (Central Daylight Time),596089.9000000954,1600,O,z,1143,11,1,2760.0999999046326,593329.8000001907,7773,NTS,C,4
9,3,test,1,C,triangle.png,0,z,Tue Mar 24 2026 09:11:36 GMT-0500 (Central Daylight Time),598722.4000000954,1400,O,m,1203,16,1,2627.5,596094.9000000954,7773,NTS,C,5
9,4,test,1,C,circle.png,1,m,Tue Mar 24 2026 09:11:36 GMT-0500 (Central Daylight Time),601337.9000000954,1500,O,m,1085,24,1,2611.7000000476837,598726.2000000477,7773,NTS,C,6
8,4,test,1,C,triangle.png,0,m,Tue Mar 24 2026 09:11:36 GMT-0500 (Central Daylight Time),604472.100000143,1600,O,None,1516,23,1,3131.100000143051,601341.0,7773,NTS,C,7
7,5,test,1,C,triangle.png,1,z,Tue Mar 24 2026 09:11:36 GMT-0500 (Central Daylight Time),607486.9000000954,1700,O,z,1298,6,1,3009.0999999046326,604477.8000001907,7773,NTS,C,8
6,6,test,1,C,circle.png,1,m,Tue Mar 24 2026 09:11:36 GMT-0500 (Central Daylight Time),610235.600000143,1900,O,m,827,5,1,2742.600000143051,607493.0,7773,NTS,C,9
7,6,test,1,C,circle.png,0,m,Tue Mar 24 2026 09:11:36 GMT-0500 (Central Daylight Time),613766.8000001907,2000,O,None,1514,14,1,3526.5,610240.3000001907,7773,NTS,C,10
6,6,test,1,C,triangle.png,0,m,Tue Mar 24 2026 09:11:36 GMT-0500 (Central Daylight Time),616285.3000001907,1000,O,None,1501,13,1,2515.2000000476837,613770.100000143,7773,NTS,C,11
2,7,test,1,C,triangle.png,1,m,Tue Mar 24 2026 09:11:36 GMT-0500 (Central Daylight Time),619150.7000000477,2000,O,m,849,2,1,2859.899999856949,616290.8000001907,7773,NTS,C,12
2,8,test,1,C,circle.png,1,z,Tue Mar 24 2026 09:11:36 GMT-0500 (Central Daylight Time),621815.5,1700,O,z,938,10,1,2660.5999999046326,619154.9000000954,7773,NTS,C,13
4,8,test,1,C,triangle.png,0,m,Tue Mar 24 2026 09:11:36 GMT-0500 (Central Daylight Time),624848.3000001907,1500,O,None,1516,12,1,3028.5,621819.8000001907,7773,NTS,C,14
6,9,test,1,C,circle.png,1,m,Tue Mar 24 2026 09:11:36 GMT-0500 (Central Daylight Time),627532.100000143,1900,O,m,761,21,1,2678.2999999523163,624853.8000001907,7773,NTS,C,15
4,10,test,1,C,circle.png,1,z,Tue Mar 24 2026 09:11:36 GMT-0500 (Central Daylight Time),629780.100000143,1400,O,z,818,4,1,2244.7000000476837,627535.4000000954,7773,NTS,C,16
8,11,test,1,C,triangle.png,1,m,Tue Mar 24 2026 09:11:36 GMT-0500 (Central Daylight Time),632413.3000001907,1600,O,m,999,7,1,2629.0,629784.3000001907,7773,NTS,C,17
4,12,test,1,C,triangle.png,1,m,Tue Mar 24 2026 09:11:36 GMT-0500 (Central Daylight Time),635045.4000000954,1500,O,m,1115,20,1,2626.2999999523163,632419.100000143,7773,NTS,C,18
7,13,test,1,C,triangle.png,1,z,Tue Mar 24 2026 09:11:36 GMT-0500 (Central Daylight Time),637544.0,1700,O,z,780,22,1,2494.199999809265,635049.8000001907,7773,NTS,C,19
1,14,test,1,C,circle.png,1,z,Tue Mar 24 2026 09:11:36 GMT-0500 (Central Daylight Time),639661.2000000477,1000,O,z,1084,1,1,2111.7000000476837,637549.5,7773,NTS,C,20
8,15,test,1,C,circle.png,1,m,Tue Mar 24 2026 09:11:36 GMT-0500 (Central Daylight Time),641809.4000000954,1200,O,m,931,15,1,2142.9000000953674,639666.5,7773,NTS,C,21
1,16,test,1,C,triangle.png,1,z,Tue Mar 24 2026 09:11:36 GMT-0500 (Central Daylight Time),644447.7000000477,1900,O,z,722,17,1,2634.2000000476837,641813.5,7773,NTS,C,22
9,17,test,1,C,circle.png,1,m,Tue Mar 24 2026 09:11:36 GMT-0500 (Central Daylight Time),647059.4000000954,1500,O,m,1095,8,1,2608.0999999046326,644451.3000001907,7773,NTS,C,23
3,18,test,1,C,circle.png,1,z,Tue Mar 24 2026 09:11:36 GMT-0500 (Central Daylight Time),650122.600000143,1600,O,z,1434,19,1,3059.5,647063.100000143,7773,NTS,C,24
6,0,test,2,C,triangle.png,0,m,Tue Mar 24 2026 09:11:36 GMT-0500 (Central Daylight Time),677614.0,1000,O,z,1490,13,1,2507.0999999046326,675106.9000000954,7773,NTS,C,1
9,1,test,2,C,triangle.png,1,z,Tue Mar 24 2026 09:11:36 GMT-0500 (Central Daylight Time),679980.4000000954,1400,O,z,935,16,1,2359.7999999523163,677620.600000143,7773,NTS,C,2
7,2,test,2,C,circle.png,1,m,Tue Mar 24 2026 09:11:36 GMT-0500 (Central Daylight Time),683080.2000000477,2000,O,m,1071,22,1,3094.2000000476837,679986.0,7773,NTS,C,3
3,3,test,2,C,circle.png,1,z,Tue Mar 24 2026 09:11:36 GMT-0500 (Central Daylight Time),685561.2000000477,1600,O,z,862,19,1,2474.7000000476837,683086.5,7773,NTS,C,4
6,4,test,2,C,triangle.png,1,m,Tue Mar 24 2026 09:11:36 GMT-0500 (Central Daylight Time),687677.2000000477,1000,O,m,1090,21,1,2108.5,685568.7000000477,7773,NTS,C,5
2,5,test,2,C,circle.png,1,z,Tue Mar 24 2026 09:11:36 GMT-0500 (Central Daylight Time),690476.3000001907,1700,O,z,1067,18,1,2793.0,687683.3000001907,7773,NTS,C,6
8,5,test,2,C,triangle.png,0,m,Tue Mar 24 2026 09:11:36 GMT-0500 (Central Daylight Time),693142.100000143,1600,O,z,1038,7,1,2659.2000000476837,690482.9000000954,7773,NTS,C,7
4,6,test,2,C,triangle.png,1,m,Tue Mar 24 2026 09:11:36 GMT-0500 (Central Daylight Time),695824.5,1500,O,m,1162,20,1,2678.899999856949,693145.600000143,7773,NTS,C,8
9,6,test,2,C,circle.png,0,m,Tue Mar 24 2026 09:11:36 GMT-0500 (Central Daylight Time),698860.5,1500,O,None,1519,8,1,3026.5999999046326,695833.9000000954,7773,NTS,C,9
9,7,test,2,C,triangle.png,1,z,Tue Mar 24 2026 09:11:36 GMT-0500 (Central Daylight Time),701439.4000000954,1400,O,z,1148,24,1,2574.0999999046326,698865.3000001907,7773,NTS,C,10
2,8,test,2,C,triangle.png,1,m,Tue Mar 24 2026 09:11:36 GMT-0500 (Central Daylight Time),704255.9000000954,2000,O,m,798,2,1,2811.0999999046326,701444.8000001907,7773,NTS,C,11
2,8,test,2,C,circle.png,0,z,Tue Mar 24 2026 09:11:36 GMT-0500 (Central Daylight Time),706988.600000143,1700,O,m,1007,10,1,2727.7000000476837,704260.9000000954,7773,NTS,C,12
7,9,test,2,C,circle.png,1,m,Tue Mar 24 2026 09:11:36 GMT-0500 (Central Daylight Time),710254.4000000954,2000,O,m,1248,14,1,3261.0,706993.4000000954,7773,NTS,C,13
3,10,test,2,C,triangle.png,1,z,Tue Mar 24 2026 09:11:36 GMT-0500 (Central Daylight Time),712453.0,1200,O,z,967,3,1,2192.899999856949,710260.100000143,7773,NTS,C,14
8,11,test,2,C,circle.png,1,m,Tue Mar 24 2026 09:11:36 GMT-0500 (Central Daylight Time),714535.7000000477,1200,O,m,856,15,1,2077.5,712458.2000000477,7773,NTS,C,15
4,11,test,2,C,triangle.png,0,m,Tue Mar 24 2026 09:11:36 GMT-0500 (Central Daylight Time),717068.7000000477,1500,O,z,1007,12,1,2527.7999999523163,714540.9000000954,7773,NTS,C,16
1,12,test,2,C,triangle.png,1,z,Tue Mar 24 2026 09:11:36 GMT-0500 (Central Daylight Time),719634.8000001907,1900,O,z,635,9,1,2559.600000143051,717075.2000000477,7773,NTS,C,17
7,13,test,2,C,triangle.png,1,z,Tue Mar 24 2026 09:11:36 GMT-0500 (Central Daylight Time),722384.600000143,1700,O,z,1033,6,1,2745.9000000953674,719638.7000000477,7773,NTS,C,18
1,13,test,2,C,triangle.png,0,z,Tue Mar 24 2026 09:11:36 GMT-0500 (Central Daylight Time),725815.7000000477,1900,O,None,1516,17,1,3425.5,722390.2000000477,7773,NTS,C,19
3,14,test,2,C,circle.png,1,z,Tue Mar 24 2026 09:11:36 GMT-0500 (Central Daylight Time),728732.600000143,1600,O,z,1293,11,1,2913.7000000476837,725818.9000000954,7773,NTS,C,20
1,15,test,2,C,circle.png,1,z,Tue Mar 24 2026 09:11:36 GMT-0500 (Central Daylight Time),730764.0,1000,O,z,1000,1,1,2025.3999998569489,728738.600000143,7773,NTS,C,21
4,16,test,2,C,circle.png,1,z,Tue Mar 24 2026 09:11:36 GMT-0500 (Central Daylight Time),733113.2000000477,1400,O,z,928,4,1,2345.0,730768.2000000477,7773,NTS,C,22
8,17,test,2,C,circle.png,1,m,Tue Mar 24 2026 09:11:36 GMT-0500 (Central Daylight Time),735011.3000001907,1200,O,m,675,23,1,1891.9000000953674,733119.4000000954,7773,NTS,C,23
6,18,test,2,C,circle.png,1,m,Tue Mar 24 2026 09:11:36 GMT-0500 (Central Daylight Time),737728.4000000954,1900,O,m,789,5,1,2714.5,735013.9000000954,7773,NTS,C,24
6,1,test,3,C,circle.png,1,m,Tue Mar 24 2026 09:11:36 GMT-0500 (Central Daylight Time),746474.9000000954,1900,O,m,617,5,1,2544.0999999046326,743930.8000001907,7773,NTS,C,1
2,1,test,3,C,triangle.png,0,m,Tue Mar 24 2026 09:11:36 GMT-0500 (Central Daylight Time),749658.100000143,2000,O,z,1153,18,1,3180.2999999523163,746477.8000001907,7773,NTS,C,2
4,1,test,3,C,circle.png,0,z,Tue Mar 24 2026 09:11:36 GMT-0500 (Central Daylight Time),752223.8000001907,1400,O,m,1148,4,1,2562.300000190735,749661.5,7773,NTS,C,3
2,2,test,3,C,circle.png,1,z,Tue Mar 24 2026 09:11:36 GMT-0500 (Central Daylight Time),754990.8000001907,1700,O,z,1051,10,1,2763.7000000476837,752227.100000143,7773,NTS,C,4
7,2,test,3,C,triangle.png,0,z,Tue Mar 24 2026 09:11:36 GMT-0500 (Central Daylight Time),757773.4000000954,1700,O,m,1067,6,1,2778.5,754994.9000000954,7773,NTS,C,5
7,3,test,3,C,circle.png,1,m,Tue Mar 24 2026 09:11:36 GMT-0500 (Central Daylight Time),760805.2000000477,2000,O,m,1001,14,1,3027.7000000476837,757777.5,7773,NTS,C,6
9,4,test,3,C,circle.png,1,m,Tue Mar 24 2026 09:11:36 GMT-0500 (Central Daylight Time),763419.4000000954,1500,O,m,1093,8,1,2609.4000000953674,760810.0,7773,NTS,C,7
8,5,test,3,C,circle.png,1,m,Tue Mar 24 2026 09:11:36 GMT-0500 (Central Daylight Time),765586.9000000954,1200,O,m,936,15,1,2162.2999999523163,763424.600000143,7773,NTS,C,8
4,5,test,3,C,triangle.png,0,m,Tue Mar 24 2026 09:11:36 GMT-0500 (Central Daylight Time),768619.5,1500,O,None,1515,12,1,3028.899999856949,765590.600000143,7773,NTS,C,9
1,6,test,3,C,circle.png,1,z,Tue Mar 24 2026 09:11:36 GMT-0500 (Central Daylight Time),770352.3000001907,1000,O,z,715,1,1,1728.1000001430511,768624.2000000477,7773,NTS,C,10
3,7,test,3,C,triangle.png,1,z,Tue Mar 24 2026 09:11:36 GMT-0500 (Central Daylight Time),772883.8000001907,1200,O,z,1310,3,1,2526.600000143051,770357.2000000477,7773,NTS,C,11
8,8,test,3,C,triangle.png,1,m,Tue Mar 24 2026 09:11:36 GMT-0500 (Central Daylight Time),775432.9000000954,1600,O,m,918,7,1,2545.2000000476837,772887.7000000477,7773,NTS,C,12
2,9,test,3,C,triangle.png,1,m,Tue Mar 24 2026 09:11:36 GMT-0500 (Central Daylight Time),778733.3000001907,2000,O,m,1266,2,1,3297.2000000476837,775436.100000143,7773,NTS,C,13
4,9,test,3,C,circle.png,0,z,Tue Mar 24 2026 09:11:36 GMT-0500 (Central Daylight Time),781665.600000143,1400,O,None,1515,20,1,2927.2000000476837,778738.4000000954,7773,NTS,C,14
9,9,test,3,C,circle.png,0,m,Tue Mar 24 2026 09:11:36 GMT-0500 (Central Daylight Time),784697.3000001907,1500,O,None,1516,24,1,3026.300000190735,781671.0,7773,NTS,C,15
6,10,test,3,C,circle.png,1,m,Tue Mar 24 2026 09:11:36 GMT-0500 (Central Daylight Time),787814.100000143,1900,O,m,1200,21,1,3109.7999999523163,784704.3000001907,7773,NTS,C,16
8,10,test,3,C,triangle.png,0,m,Tue Mar 24 2026 09:11:36 GMT-0500 (Central Daylight Time),790944.5,1600,O,None,1514,23,1,3125.399999856949,787819.100000143,7773,NTS,C,17
1,11,test,3,C,triangle.png,1,z,Tue Mar 24 2026 09:11:36 GMT-0500 (Central Daylight Time),793529.4000000954,1900,O,z,657,9,1,2577.5999999046326,790951.8000001907,7773,NTS,C,18
3,12,test,3,C,triangle.png,1,z,Tue Mar 24 2026 09:11:36 GMT-0500 (Central Daylight Time),795542.600000143,1200,O,z,788,19,1,2007.7999999523163,793534.8000001907,7773,NTS,C,19
9,13,test,3,C,triangle.png,1,z,Tue Mar 24 2026 09:11:36 GMT-0500 (Central Daylight Time),798143.0,1400,O,z,1169,16,1,2593.899999856949,795549.100000143,7773,NTS,C,20
3,13,test,3,C,circle.png,0,z,Tue Mar 24 2026 09:11:36 GMT-0500 (Central Daylight Time),801260.2000000477,1600,O,None,1501,11,1,3112.2999999523163,798147.9000000954,7773,NTS,C,21
7,13,test,3,C,triangle.png,0,z,Tue Mar 24 2026 09:11:36 GMT-0500 (Central Daylight Time),804492.9000000954,1700,O,None,1518,22,1,3228.2999999523163,801264.600000143,7773,NTS,C,22
1,14,test,3,C,circle.png,1,z,Tue Mar 24 2026 09:11:36 GMT-0500 (Central Daylight Time),806823.4000000954,1000,O,z,1300,17,1,2323.7000000476837,804499.7000000477,7773,NTS,C,23
6,14,test,3,C,triangle.png,0,m,Tue Mar 24 2026 09:11:36 GMT-0500 (Central Daylight Time),809355.4000000954,1000,O,None,1515,13,1,2527.7999999523163,806827.600000143,7773,NTS,C,24
4,0,test,4,C,circle.png,0,z,Tue Mar 24 2026 09:11:36 GMT-0500 (Central Daylight Time),857441.2000000477,1400,O,None,1517,20,1,2929.2000000476837,854512.0,7773,NTS,C,1
3,0,test,4,C,triangle.png,0,z,Tue Mar 24 2026 09:11:36 GMT-0500 (Central Daylight Time),860172.7000000477,1200,O,None,1516,3,1,2726.899999856949,857445.8000001907,7773,NTS,C,2
3,1,test,4,C,triangle.png,1,z,Tue Mar 24 2026 09:11:36 GMT-0500 (Central Daylight Time),861974.100000143,1200,O,z,585,19,1,1796.2000000476837,860177.9000000954,7773,NTS,C,3
9,2,test,4,C,triangle.png,1,z,Tue Mar 24 2026 09:11:36 GMT-0500 (Central Daylight Time),864372.3000001907,1400,O,z,982,16,1,2393.7000000476837,861978.600000143,7773,NTS,C,4
9,3,test,4,C,circle.png,1,m,Tue Mar 24 2026 09:11:36 GMT-0500 (Central Daylight Time),866638.100000143,1500,O,m,742,8,1,2261.7999999523163,864376.3000001907,7773,NTS,C,5
2,3,test,4,C,circle.png,0,z,Tue Mar 24 2026 09:11:36 GMT-0500 (Central Daylight Time),869388.0,1700,O,m,1018,10,1,2745.199999809265,866642.8000001907,7773,NTS,C,6
1,4,test,4,C,circle.png,1,z,Tue Mar 24 2026 09:11:36 GMT-0500 (Central Daylight Time),871403.2000000477,1000,O,z,994,17,1,2010.8999998569489,869392.3000001907,7773,NTS,C,7
9,5,test,4,C,circle.png,1,m,Tue Mar 24 2026 09:11:36 GMT-0500 (Central Daylight Time),873887.2000000477,1500,O,m,966,24,1,2479.399999856949,871407.8000001907,7773,NTS,C,8
3,6,test,4,C,circle.png,1,z,Tue Mar 24 2026 09:11:36 GMT-0500 (Central Daylight Time),876335.100000143,1600,O,z,832,11,1,2443.4000000953674,873891.7000000477,7773,NTS,C,9
8,7,test,4,C,triangle.png,1,m,Tue Mar 24 2026 09:11:36 GMT-0500 (Central Daylight Time),879450.0,1600,O,m,1488,23,1,3109.7999999523163,876340.2000000477,7773,NTS,C,10
4,8,test,4,C,triangle.png,1,m,Tue Mar 24 2026 09:11:36 GMT-0500 (Central Daylight Time),882316.8000001907,1500,O,m,1333,12,1,2862.5,879454.3000001907,7773,NTS,C,11
7,8,test,4,C,circle.png,0,m,Tue Mar 24 2026 09:11:36 GMT-0500 (Central Daylight Time),885847.5,2000,O,None,1513,14,1,3525.5999999046326,882321.9000000954,7773,NTS,C,12
7,9,test,4,C,triangle.png,1,z,Tue Mar 24 2026 09:11:36 GMT-0500 (Central Daylight Time),888730.7000000477,1700,O,z,1151,22,1,2878.7000000476837,885852.0,7773,NTS,C,13
1,10,test,4,C,triangle.png,1,z,Tue Mar 24 2026 09:11:36 GMT-0500 (Central Daylight Time),891412.600000143,1900,O,z,758,9,1,2677.7999999523163,888734.8000001907,7773,NTS,C,14
6,11,test,4,C,triangle.png,1,m,Tue Mar 24 2026 09:11:36 GMT-0500 (Central Daylight Time),893613.2000000477,1000,O,m,1183,13,1,2196.5999999046326,891416.600000143,7773,NTS,C,15
7,12,test,4,C,triangle.png,1,z,Tue Mar 24 2026 09:11:36 GMT-0500 (Central Daylight Time),896161.7000000477,1700,O,z,829,6,1,2544.5,893617.2000000477,7773,NTS,C,16
8,13,test,4,C,circle.png,1,m,Tue Mar 24 2026 09:11:36 GMT-0500 (Central Daylight Time),898278.7000000477,1200,O,m,898,15,1,2111.7999999523163,896166.9000000954,7773,NTS,C,17
4,13,test,4,C,circle.png,0,z,Tue Mar 24 2026 09:11:36 GMT-0500 (Central Daylight Time),900576.3000001907,1400,O,m,878,4,1,2292.2000000476837,898284.100000143,7773,NTS,C,18
6,13,test,4,C,circle.png,0,m,Tue Mar 24 2026 09:11:36 GMT-0500 (Central Daylight Time),903309.7000000477,1900,O,z,798,5,1,2730.0999999046326,900579.600000143,7773,NTS,C,19
8,13,test,4,C,triangle.png,0,m,Tue Mar 24 2026 09:11:36 GMT-0500 (Central Daylight Time),905891.600000143,1600,O,z,958,7,1,2577.7000000476837,903313.9000000954,7773,NTS,C,20
2,13,test,4,C,triangle.png,0,m,Tue Mar 24 2026 09:11:36 GMT-0500 (Central Daylight Time),909175.2000000477,2000,O,z,1266,18,1,3279.7999999523163,905895.4000000954,7773,NTS,C,21
6,14,test,4,C,circle.png,1,m,Tue Mar 24 2026 09:11:36 GMT-0500 (Central Daylight Time),912156.0,1900,O,m,1058,21,1,2975.5999999046326,909180.4000000954,7773,NTS,C,22
2,14,test,4,C,triangle.png,0,m,Tue Mar 24 2026 09:11:36 GMT-0500 (Central Daylight Time),915022.0,2000,O,z,840,2,1,2857.199999809265,912164.8000001907,7773,NTS,C,23
1,15,test,4,C,circle.png,1,z,Tue Mar 24 2026 09:11:36 GMT-0500 (Central Daylight Time),917004.5,1000,O,z,960,1,1,1976.3999998569489,915028.100000143,7773,NTS,C,24
