acc_sum,block,block_c,block_cond,con_img,correct,correct_response,datetime,endtime,face,jitter,line,project,response,response_time,row_sel,session_number,start_end,starttime,subject_id,task,task_vers,trial
1,prac,1,A,haborder.png,1,m,Mon Jan 05 2026 10:22:38 GMT-0600 (Central Standard Time),64865.39999997616,CFD-BF-028-020-HC.jpg,2000,solid,I,m,1289,5,1,4082.0,60783.39999997616,8085,ATS,A,1
2,prac,1,A,haborder.png,1,m,Mon Jan 05 2026 10:22:38 GMT-0600 (Central Standard Time),68430.79999995232,CFD-WM-006-013-HC.jpg,1700,solid,I,m,1076,9,1,7647.399999976158,60783.39999997616,8085,ATS,A,2
3,prac,1,A,haborder.png,1,m,Mon Jan 05 2026 10:22:38 GMT-0600 (Central Standard Time),71496.60000002384,CFD-WF-017-016-HC.jpg,1500,solid,I,m,781,11,1,10713.200000047684,60783.39999997616,8085,ATS,A,3
4,prac,1,A,haborder.png,1,z,Mon Jan 05 2026 10:22:38 GMT-0600 (Central Standard Time),74062.39999997616,CFD-WF-019-015-A.jpg,1000,solid,I,z,775,12,1,13279.0,60783.39999997616,8085,ATS,A,4
5,prac,1,A,haborder.png,1,m,Mon Jan 05 2026 10:22:38 GMT-0600 (Central Standard Time),77711.19999992847,CFD-BM-017-052-HC.jpg,1700,solid,I,m,1150,1,1,16927.799999952316,60783.39999997616,8085,ATS,A,5
6,prac,1,A,haborder.png,1,m,Mon Jan 05 2026 10:22:38 GMT-0600 (Central Standard Time),81310.0,CFD-BM-029-026-HC.jpg,1500,solid,I,m,1308,3,1,20526.600000023842,60783.39999997616,8085,ATS,A,6
7,prac,1,A,haborder.png,1,z,Mon Jan 05 2026 10:22:38 GMT-0600 (Central Standard Time),84609.19999992847,CFD-BM-005-010-A.jpg,1600,solid,I,z,905,2,1,23825.799999952316,60783.39999997616,8085,ATS,A,7
8,prac,1,A,haborder.png,1,m,Mon Jan 05 2026 10:22:38 GMT-0600 (Central Standard Time),87558.19999992847,CFD-WM-004-005-HC.jpg,1400,solid,I,m,750,7,1,26774.799999952316,60783.39999997616,8085,ATS,A,8
8,prac,1,A,haborder.png,0,z,Mon Jan 05 2026 10:22:38 GMT-0600 (Central Standard Time),91756.79999995232,CFD-WM-013-015-A.jpg,1900,solid,I,None,1516,8,1,30973.399999976158,60783.39999997616,8085,ATS,A,9
9,prac,1,A,haborder.png,1,z,Mon Jan 05 2026 10:22:38 GMT-0600 (Central Standard Time),94189.39999997616,CFD-BF-023-013-A.jpg,1000,solid,I,z,635,4,1,33406.0,60783.39999997616,8085,ATS,A,10
10,prac,1,A,haborder.png,1,z,Mon Jan 05 2026 10:22:38 GMT-0600 (Central Standard Time),96805.29999995232,CFD-BF-039-039-A.jpg,1200,solid,I,z,619,6,1,36021.89999997616,60783.39999997616,8085,ATS,A,11
11,prac,1,A,haborder.png,1,z,Mon Jan 05 2026 10:22:38 GMT-0600 (Central Standard Time),99904.29999995232,CFD-WF-003-014-A.jpg,1600,solid,I,z,707,10,1,39120.89999997616,60783.39999997616,8085,ATS,A,12
1,prac,1,B,mfborder.png,1,z,Mon Jan 05 2026 10:22:38 GMT-0600 (Central Standard Time),131844.39999997616,CFD-BF-023-013-A.jpg,1000,dash,I,z,1144,4,1,2932.100000023842,128912.29999995232,8085,ATS,A,1
2,prac,1,B,mfborder.png,1,m,Mon Jan 05 2026 10:22:38 GMT-0600 (Central Standard Time),135609.5,CFD-WM-013-015-A.jpg,1700,dash,I,m,1273,9,1,6697.200000047684,128912.29999995232,8085,ATS,A,2
3,prac,1,B,mfborder.png,1,z,Mon Jan 05 2026 10:22:38 GMT-0600 (Central Standard Time),138575.60000002384,CFD-WF-003-014-A.jpg,1500,dash,I,z,683,11,1,9663.300000071526,128912.29999995232,8085,ATS,A,3
3,prac,1,B,mfborder.png,0,z,Mon Jan 05 2026 10:22:38 GMT-0600 (Central Standard Time),142773.89999997616,CFD-WF-002-008-HC.jpg,1900,dash,I,None,1516,8,1,13861.600000023842,128912.29999995232,8085,ATS,A,4
4,prac,1,B,mfborder.png,1,m,Mon Jan 05 2026 10:22:38 GMT-0600 (Central Standard Time),146256.19999992847,CFD-BM-005-010-A.jpg,2000,dash,I,m,690,5,1,17343.899999976158,128912.29999995232,8085,ATS,A,5
5,prac,1,B,mfborder.png,1,z,Mon Jan 05 2026 10:22:38 GMT-0600 (Central Standard Time),149171.89999997616,CFD-BF-010-005-HC.jpg,1500,dash,I,z,628,3,1,20259.600000023842,128912.29999995232,8085,ATS,A,6
6,prac,1,B,mfborder.png,1,z,Mon Jan 05 2026 10:22:38 GMT-0600 (Central Standard Time),151971.19999992847,CFD-WF-017-016-HC.jpg,1000,dash,I,z,1027,12,1,23058.899999976158,128912.29999995232,8085,ATS,A,7
7,prac,1,B,mfborder.png,1,m,Mon Jan 05 2026 10:22:38 GMT-0600 (Central Standard Time),155253.60000002384,CFD-BM-029-026-HC.jpg,1700,dash,I,m,792,1,1,26341.300000071526,128912.29999995232,8085,ATS,A,8
8,prac,1,B,mfborder.png,1,z,Mon Jan 05 2026 10:22:38 GMT-0600 (Central Standard Time),158219.39999997616,CFD-BF-028-020-HC.jpg,1400,dash,I,z,779,7,1,29307.100000023842,128912.29999995232,8085,ATS,A,9
9,prac,1,B,mfborder.png,1,m,Mon Jan 05 2026 10:22:38 GMT-0600 (Central Standard Time),161285.0,CFD-BM-010-019-A.jpg,1600,dash,I,m,678,2,1,32372.700000047684,128912.29999995232,8085,ATS,A,10
10,prac,1,B,mfborder.png,1,m,Mon Jan 05 2026 10:22:38 GMT-0600 (Central Standard Time),164267.10000002384,CFD-WM-006-013-HC.jpg,1600,dash,I,m,588,10,1,35354.800000071526,128912.29999995232,8085,ATS,A,11
11,prac,1,B,mfborder.png,1,m,Mon Jan 05 2026 10:22:38 GMT-0600 (Central Standard Time),166916.5,CFD-WM-019-013-A.jpg,1200,dash,I,m,660,6,1,38004.200000047684,128912.29999995232,8085,ATS,A,12
1,test,1,A,haborder.png,1,m,Mon Jan 05 2026 10:22:38 GMT-0600 (Central Standard Time),186826.89999997616,CFD-BF-028-020-HC.jpg,2000,solid,I,m,705,5,1,2732.600000023842,184094.29999995232,8085,ATS,A,1
2,test,1,A,haborder.png,1,z,Mon Jan 05 2026 10:22:38 GMT-0600 (Central Standard Time),188793.0,CFD-BF-039-039-A.jpg,1200,solid,I,z,749,6,1,4698.700000047684,184094.29999995232,8085,ATS,A,2
3,test,1,A,haborder.png,1,z,Mon Jan 05 2026 10:22:38 GMT-0600 (Central Standard Time),190592.5,CFD-WF-019-015-A.jpg,1000,solid,I,z,766,12,1,6498.200000047684,184094.29999995232,8085,ATS,A,3
4,test,1,A,haborder.png,1,z,Mon Jan 05 2026 10:22:38 GMT-0600 (Central Standard Time),192875.10000002384,CFD-WF-003-014-A.jpg,1600,solid,I,z,664,10,1,8780.800000071526,184094.29999995232,8085,ATS,A,4
5,test,1,A,haborder.png,1,z,Mon Jan 05 2026 10:22:38 GMT-0600 (Central Standard Time),195307.69999992847,CFD-BM-005-010-A.jpg,1600,solid,I,z,805,2,1,11213.399999976158,184094.29999995232,8085,ATS,A,5
6,test,1,A,haborder.png,1,m,Mon Jan 05 2026 10:22:38 GMT-0600 (Central Standard Time),197990.19999992847,CFD-BF-028-020-HC.jpg,2000,solid,I,m,660,5,1,13895.899999976158,184094.29999995232,8085,ATS,A,6
7,test,1,A,haborder.png,1,m,Mon Jan 05 2026 10:22:38 GMT-0600 (Central Standard Time),200406.10000002384,CFD-WM-006-013-HC.jpg,1700,solid,I,m,686,9,1,16311.800000071526,184094.29999995232,8085,ATS,A,7
8,test,1,A,haborder.png,1,m,Mon Jan 05 2026 10:22:38 GMT-0600 (Central Standard Time),202438.60000002384,CFD-WM-004-005-HC.jpg,1400,solid,I,m,610,7,1,18344.300000071526,184094.29999995232,8085,ATS,A,8
9,test,1,A,haborder.png,1,m,Mon Jan 05 2026 10:22:38 GMT-0600 (Central Standard Time),204788.10000002384,CFD-BM-029-026-HC.jpg,1500,solid,I,m,821,3,1,20693.800000071526,184094.29999995232,8085,ATS,A,9
10,test,1,A,haborder.png,1,z,Mon Jan 05 2026 10:22:38 GMT-0600 (Central Standard Time),207154.0,CFD-BM-005-010-A.jpg,1600,solid,I,z,741,2,1,23059.700000047684,184094.29999995232,8085,ATS,A,10
11,test,1,A,haborder.png,1,m,Mon Jan 05 2026 10:22:38 GMT-0600 (Central Standard Time),209236.60000002384,CFD-WM-004-005-HC.jpg,1400,solid,I,m,662,7,1,25142.300000071526,184094.29999995232,8085,ATS,A,11
12,test,1,A,haborder.png,1,z,Mon Jan 05 2026 10:22:38 GMT-0600 (Central Standard Time),210970.39999997616,CFD-BF-023-013-A.jpg,1000,solid,I,z,715,4,1,26876.100000023842,184094.29999995232,8085,ATS,A,12
13,test,1,A,haborder.png,1,z,Mon Jan 05 2026 10:22:38 GMT-0600 (Central Standard Time),212801.79999995232,CFD-BF-039-039-A.jpg,1200,solid,I,z,615,6,1,28707.5,184094.29999995232,8085,ATS,A,13
14,test,1,A,haborder.png,1,m,Mon Jan 05 2026 10:22:38 GMT-0600 (Central Standard Time),215117.79999995232,CFD-WF-017-016-HC.jpg,1500,solid,I,m,794,11,1,31023.5,184094.29999995232,8085,ATS,A,14
15,test,1,A,haborder.png,1,m,Mon Jan 05 2026 10:22:38 GMT-0600 (Central Standard Time),217600.60000002384,CFD-BM-017-052-HC.jpg,1700,solid,I,m,758,1,1,33506.300000071526,184094.29999995232,8085,ATS,A,15
16,test,1,A,haborder.png,1,m,Mon Jan 05 2026 10:22:38 GMT-0600 (Central Standard Time),219733.29999995232,CFD-WF-017-016-HC.jpg,1500,solid,I,m,612,11,1,35639.0,184094.29999995232,8085,ATS,A,16
17,test,1,A,haborder.png,1,z,Mon Jan 05 2026 10:22:38 GMT-0600 (Central Standard Time),221499.5,CFD-BF-023-013-A.jpg,1000,solid,I,z,746,4,1,37405.200000047684,184094.29999995232,8085,ATS,A,17
18,test,1,A,haborder.png,1,m,Mon Jan 05 2026 10:22:38 GMT-0600 (Central Standard Time),223932.0,CFD-WM-006-013-HC.jpg,1700,solid,I,m,713,9,1,39837.700000047684,184094.29999995232,8085,ATS,A,18
19,test,1,A,haborder.png,1,m,Mon Jan 05 2026 10:22:38 GMT-0600 (Central Standard Time),226648.10000002384,CFD-BM-029-026-HC.jpg,1500,solid,I,m,1184,3,1,42553.800000071526,184094.29999995232,8085,ATS,A,19
20,test,1,A,haborder.png,1,z,Mon Jan 05 2026 10:22:38 GMT-0600 (Central Standard Time),229613.69999992847,CFD-WM-013-015-A.jpg,1900,solid,I,z,1037,8,1,45519.39999997616,184094.29999995232,8085,ATS,A,20
21,test,1,A,haborder.png,1,z,Mon Jan 05 2026 10:22:38 GMT-0600 (Central Standard Time),232312.60000002384,CFD-WM-013-015-A.jpg,1900,solid,I,z,767,8,1,48218.300000071526,184094.29999995232,8085,ATS,A,21
22,test,1,A,haborder.png,1,z,Mon Jan 05 2026 10:22:38 GMT-0600 (Central Standard Time),234661.79999995232,CFD-WF-003-014-A.jpg,1600,solid,I,z,727,10,1,50567.5,184094.29999995232,8085,ATS,A,22
23,test,1,A,haborder.png,1,z,Mon Jan 05 2026 10:22:38 GMT-0600 (Central Standard Time),236278.10000002384,CFD-WF-019-015-A.jpg,1000,solid,I,z,586,12,1,52183.800000071526,184094.29999995232,8085,ATS,A,23
24,test,1,A,haborder.png,1,m,Mon Jan 05 2026 10:22:38 GMT-0600 (Central Standard Time),238578.5,CFD-BM-017-052-HC.jpg,1700,solid,I,m,582,1,1,54484.200000047684,184094.29999995232,8085,ATS,A,24
1,test,1,B,mfborder.png,1,z,Mon Jan 05 2026 10:22:38 GMT-0600 (Central Standard Time),252356.69999992847,CFD-WF-017-016-HC.jpg,1000,dash,I,z,671,12,1,1699.8999999761581,250656.79999995232,8085,ATS,A,1
2,test,1,B,mfborder.png,1,m,Mon Jan 05 2026 10:22:38 GMT-0600 (Central Standard Time),254922.19999992847,CFD-BM-005-010-A.jpg,2000,dash,I,m,539,5,1,4265.399999976158,250656.79999995232,8085,ATS,A,2
3,test,1,B,mfborder.png,1,m,Mon Jan 05 2026 10:22:38 GMT-0600 (Central Standard Time),256871.89999997616,CFD-WM-019-013-A.jpg,1200,dash,I,m,717,6,1,6215.100000023842,250656.79999995232,8085,ATS,A,3
4,test,1,B,mfborder.png,1,z,Mon Jan 05 2026 10:22:38 GMT-0600 (Central Standard Time),258971.10000002384,CFD-WF-003-014-A.jpg,1500,dash,I,z,580,11,1,8314.300000071526,250656.79999995232,8085,ATS,A,4
5,test,1,B,mfborder.png,1,z,Mon Jan 05 2026 10:22:38 GMT-0600 (Central Standard Time),260820.5,CFD-BF-023-013-A.jpg,1000,dash,I,z,821,4,1,10163.700000047684,250656.79999995232,8085,ATS,A,5
6,test,1,B,mfborder.png,1,m,Mon Jan 05 2026 10:22:38 GMT-0600 (Central Standard Time),263003.1999999285,CFD-WM-019-013-A.jpg,1200,dash,I,m,955,6,1,12346.399999976158,250656.79999995232,8085,ATS,A,6
7,test,1,B,mfborder.png,1,m,Mon Jan 05 2026 10:22:38 GMT-0600 (Central Standard Time),265535.5,CFD-BM-010-019-A.jpg,1600,dash,I,m,900,2,1,14878.700000047684,250656.79999995232,8085,ATS,A,7
8,test,1,B,mfborder.png,1,z,Mon Jan 05 2026 10:22:38 GMT-0600 (Central Standard Time),267984.5,CFD-BF-010-005-HC.jpg,1500,dash,I,z,924,3,1,17327.700000047684,250656.79999995232,8085,ATS,A,8
9,test,1,B,mfborder.png,1,z,Mon Jan 05 2026 10:22:38 GMT-0600 (Central Standard Time),270517.2999999523,CFD-WF-002-008-HC.jpg,1900,dash,I,z,612,8,1,19860.5,250656.79999995232,8085,ATS,A,9
10,test,1,B,mfborder.png,1,m,Mon Jan 05 2026 10:22:38 GMT-0600 (Central Standard Time),272833.2999999523,CFD-WM-006-013-HC.jpg,1600,dash,I,m,683,10,1,22176.5,250656.79999995232,8085,ATS,A,10
11,test,1,B,mfborder.png,1,z,Mon Jan 05 2026 10:22:38 GMT-0600 (Central Standard Time),274949.2999999523,CFD-BF-028-020-HC.jpg,1400,dash,I,z,694,7,1,24292.5,250656.79999995232,8085,ATS,A,11
11,test,1,B,mfborder.png,0,z,Mon Jan 05 2026 10:22:38 GMT-0600 (Central Standard Time),277498.39999997616,CFD-WF-002-008-HC.jpg,1900,dash,I,m,623,8,1,26841.600000023842,250656.79999995232,8085,ATS,A,12
12,test,1,B,mfborder.png,1,z,Mon Jan 05 2026 10:22:38 GMT-0600 (Central Standard Time),279564.5,CFD-BF-010-005-HC.jpg,1500,dash,I,z,546,3,1,28907.700000047684,250656.79999995232,8085,ATS,A,13
13,test,1,B,mfborder.png,1,z,Mon Jan 05 2026 10:22:38 GMT-0600 (Central Standard Time),281580.60000002384,CFD-BF-028-020-HC.jpg,1400,dash,I,z,596,7,1,30923.800000071526,250656.79999995232,8085,ATS,A,14
14,test,1,B,mfborder.png,1,m,Mon Jan 05 2026 10:22:38 GMT-0600 (Central Standard Time),284312.89999997616,CFD-BM-029-026-HC.jpg,1700,dash,I,m,1000,1,1,33656.10000002384,250656.79999995232,8085,ATS,A,15
15,test,1,B,mfborder.png,1,m,Mon Jan 05 2026 10:22:38 GMT-0600 (Central Standard Time),286762.2999999523,CFD-BM-010-019-A.jpg,1600,dash,I,m,823,2,1,36105.5,250656.79999995232,8085,ATS,A,16
16,test,1,B,mfborder.png,1,z,Mon Jan 05 2026 10:22:38 GMT-0600 (Central Standard Time),288678.1999999285,CFD-BF-023-013-A.jpg,1000,dash,I,z,886,4,1,38021.39999997616,250656.79999995232,8085,ATS,A,17
17,test,1,B,mfborder.png,1,z,Mon Jan 05 2026 10:22:38 GMT-0600 (Central Standard Time),290411.10000002384,CFD-WF-017-016-HC.jpg,1000,dash,I,z,714,12,1,39754.300000071526,250656.79999995232,8085,ATS,A,18
18,test,1,B,mfborder.png,1,m,Mon Jan 05 2026 10:22:38 GMT-0600 (Central Standard Time),293127.10000002384,CFD-BM-029-026-HC.jpg,1700,dash,I,m,985,1,1,42470.300000071526,250656.79999995232,8085,ATS,A,19
19,test,1,B,mfborder.png,1,m,Mon Jan 05 2026 10:22:38 GMT-0600 (Central Standard Time),295659.5,CFD-WM-013-015-A.jpg,1700,dash,I,m,805,9,1,45002.700000047684,250656.79999995232,8085,ATS,A,20
20,test,1,B,mfborder.png,1,m,Mon Jan 05 2026 10:22:38 GMT-0600 (Central Standard Time),297975.6999999285,CFD-WM-006-013-HC.jpg,1600,dash,I,m,692,10,1,47318.89999997616,250656.79999995232,8085,ATS,A,21
21,test,1,B,mfborder.png,1,m,Mon Jan 05 2026 10:22:38 GMT-0600 (Central Standard Time),300274.60000002384,CFD-WM-013-015-A.jpg,1700,dash,I,m,572,9,1,49617.800000071526,250656.79999995232,8085,ATS,A,22
22,test,1,B,mfborder.png,1,z,Mon Jan 05 2026 10:22:38 GMT-0600 (Central Standard Time),302445.6999999285,CFD-WF-003-014-A.jpg,1500,dash,I,z,642,11,1,51788.89999997616,250656.79999995232,8085,ATS,A,23
23,test,1,B,mfborder.png,1,m,Mon Jan 05 2026 10:22:38 GMT-0600 (Central Standard Time),305156.39999997616,CFD-BM-005-010-A.jpg,2000,dash,I,m,688,5,1,54499.60000002384,250656.79999995232,8085,ATS,A,24
0,prac,1,C,haborder.png,0,z,Mon Jan 05 2026 10:22:38 GMT-0600 (Central Standard Time),344011.39999997616,CFD-BF-039-039-A.jpg,1700,solid,I,None,1515,8,1,3997.7000000476837,340013.6999999285,8085,ATS,A,1
0,prac,1,C,haborder.png,0,z,Mon Jan 05 2026 10:22:38 GMT-0600 (Central Standard Time),348209.2999999523,CFD-BF-023-013-A.jpg,1900,dash,I,None,1516,7,1,8195.600000023842,340013.6999999285,8085,ATS,A,2
0,prac,1,C,mfborder.png,0,z,Mon Jan 05 2026 10:22:38 GMT-0600 (Central Standard Time),352108.5,CFD-WF-017-016-HC.jpg,1600,dash,I,None,1516,1,1,12094.800000071526,340013.6999999285,8085,ATS,A,3
0,prac,1,C,mfborder.png,0,z,Mon Jan 05 2026 10:22:38 GMT-0600 (Central Standard Time),355906.89999997616,CFD-WF-019-015-A.jpg,1500,solid,I,None,1516,2,1,15893.200000047684,340013.6999999285,8085,ATS,A,4
1,prac,1,C,mfborder.png,1,m,Mon Jan 05 2026 10:22:38 GMT-0600 (Central Standard Time),358639.60000002384,CFD-BM-005-010-A.jpg,1200,dash,I,m,748,5,1,18625.900000095367,340013.6999999285,8085,ATS,A,5
2,prac,1,C,haborder.png,1,m,Mon Jan 05 2026 10:22:38 GMT-0600 (Central Standard Time),361471.89999997616,CFD-WM-004-005-HC.jpg,1000,dash,I,m,1049,11,1,21458.200000047684,340013.6999999285,8085,ATS,A,6
3,prac,1,C,mfborder.png,1,z,Mon Jan 05 2026 10:22:38 GMT-0600 (Central Standard Time),364254.39999997616,CFD-BF-028-020-HC.jpg,1000,dash,I,z,992,3,1,24240.700000047684,340013.6999999285,8085,ATS,A,7
4,prac,1,C,haborder.png,1,m,Mon Jan 05 2026 10:22:38 GMT-0600 (Central Standard Time),367803.2999999523,CFD-BM-029-026-HC.jpg,1500,solid,I,m,1262,10,1,27789.600000023842,340013.6999999285,8085,ATS,A,8
5,prac,1,C,haborder.png,1,m,Mon Jan 05 2026 10:22:38 GMT-0600 (Central Standard Time),371419.10000002384,CFD-WM-004-005-HC.jpg,1400,solid,I,m,1429,12,1,31405.400000095367,340013.6999999285,8085,ATS,A,9
6,prac,1,C,mfborder.png,1,m,Mon Jan 05 2026 10:22:38 GMT-0600 (Central Standard Time),375117.7999999523,CFD-BM-017-052-HC.jpg,2000,solid,I,m,910,4,1,35104.10000002384,340013.6999999285,8085,ATS,A,10
6,prac,1,C,haborder.png,0,z,Mon Jan 05 2026 10:22:38 GMT-0600 (Central Standard Time),379016.6999999285,CFD-WF-003-014-A.jpg,1600,dash,I,None,1516,9,1,39003.0,340013.6999999285,8085,ATS,A,11
7,prac,1,C,mfborder.png,1,m,Mon Jan 05 2026 10:22:38 GMT-0600 (Central Standard Time),382515.5,CFD-WM-013-015-A.jpg,1700,solid,I,m,1004,6,1,42501.800000071526,340013.6999999285,8085,ATS,A,12
1,prac,2,C,mfborder.png,1,z,Mon Jan 05 2026 10:22:38 GMT-0600 (Central Standard Time),389480.10000002384,CFD-WF-019-015-A.jpg,1500,solid,I,z,1340,2,1,49466.40000009537,340013.6999999285,8085,ATS,A,1
2,prac,2,C,haborder.png,1,m,Mon Jan 05 2026 10:22:38 GMT-0600 (Central Standard Time),392345.89999997616,CFD-WM-004-005-HC.jpg,1400,solid,I,m,680,12,1,52332.200000047684,340013.6999999285,8085,ATS,A,2
3,prac,2,C,haborder.png,1,m,Mon Jan 05 2026 10:22:38 GMT-0600 (Central Standard Time),394745.2999999523,CFD-WM-004-005-HC.jpg,1000,dash,I,m,606,11,1,54731.60000002384,340013.6999999285,8085,ATS,A,3
3,prac,2,C,haborder.png,0,z,Mon Jan 05 2026 10:22:38 GMT-0600 (Central Standard Time),398744.89999997616,CFD-BF-039-039-A.jpg,1700,solid,I,None,1515,8,1,58731.200000047684,340013.6999999285,8085,ATS,A,4
4,prac,2,C,mfborder.png,1,m,Mon Jan 05 2026 10:22:38 GMT-0600 (Central Standard Time),402742.5,CFD-BM-017-052-HC.jpg,2000,solid,I,m,1200,4,1,62728.800000071526,340013.6999999285,8085,ATS,A,5
4,prac,2,C,mfborder.png,0,m,Mon Jan 05 2026 10:22:38 GMT-0600 (Central Standard Time),406741.39999997616,CFD-WM-013-015-A.jpg,1700,solid,I,None,1516,6,1,66727.70000004768,340013.6999999285,8085,ATS,A,6
5,prac,2,C,mfborder.png,1,m,Mon Jan 05 2026 10:22:38 GMT-0600 (Central Standard Time),409590.1999999285,CFD-BM-005-010-A.jpg,1200,dash,I,m,850,5,1,69576.5,340013.6999999285,8085,ATS,A,7
6,prac,2,C,haborder.png,1,z,Mon Jan 05 2026 10:22:38 GMT-0600 (Central Standard Time),413572.5,CFD-BF-023-013-A.jpg,1900,dash,I,z,1287,7,1,73558.80000007153,340013.6999999285,8085,ATS,A,8
7,prac,2,C,mfborder.png,1,z,Mon Jan 05 2026 10:22:38 GMT-0600 (Central Standard Time),416721.5,CFD-BF-028-020-HC.jpg,1000,dash,I,z,1363,3,1,76707.80000007153,340013.6999999285,8085,ATS,A,9
8,prac,2,C,mfborder.png,1,z,Mon Jan 05 2026 10:22:38 GMT-0600 (Central Standard Time),420054.2999999523,CFD-WF-017-016-HC.jpg,1600,dash,I,z,943,1,1,80040.60000002384,340013.6999999285,8085,ATS,A,10
9,prac,2,C,haborder.png,1,z,Mon Jan 05 2026 10:22:38 GMT-0600 (Central Standard Time),423152.6999999285,CFD-WF-003-014-A.jpg,1600,dash,I,z,706,9,1,83139.0,340013.6999999285,8085,ATS,A,11
10,prac,2,C,haborder.png,1,m,Mon Jan 05 2026 10:22:38 GMT-0600 (Central Standard Time),426185.0,CFD-BM-029-026-HC.jpg,1500,solid,I,m,747,10,1,86171.30000007153,340013.6999999285,8085,ATS,A,12
0,test,1,C,haborder.png,0,m,Mon Jan 05 2026 10:22:38 GMT-0600 (Central Standard Time),439464.2999999523,CFD-WF-002-008-HC.jpg,1500,solid,I,z,1199,11,1,2715.7999999523163,436748.5,8085,ATS,A,1
1,test,1,C,haborder.png,1,m,Mon Jan 05 2026 10:22:38 GMT-0600 (Central Standard Time),441930.1999999285,CFD-WF-017-016-HC.jpg,1000,solid,I,m,1440,12,1,5181.699999928474,436748.5,8085,ATS,A,2
2,test,1,C,haborder.png,1,m,Mon Jan 05 2026 10:22:38 GMT-0600 (Central Standard Time),444296.2999999523,CFD-BF-028-020-HC.jpg,1600,solid,I,m,750,10,1,7547.799999952316,436748.5,8085,ATS,A,3
3,test,1,C,mfborder.png,1,m,Mon Jan 05 2026 10:22:38 GMT-0600 (Central Standard Time),447144.89999997616,CFD-WM-019-013-A.jpg,2000,dash,I,m,825,5,1,10396.399999976158,436748.5,8085,ATS,A,4
4,test,1,C,haborder.png,1,z,Mon Jan 05 2026 10:22:38 GMT-0600 (Central Standard Time),450094.60000002384,CFD-BM-005-010-A.jpg,1900,solid,I,z,1026,8,1,13346.100000023842,436748.5,8085,ATS,A,5
5,test,1,C,mfborder.png,1,m,Mon Jan 05 2026 10:22:38 GMT-0600 (Central Standard Time),452260.1999999285,CFD-BM-029-026-HC.jpg,1200,dash,I,m,945,6,1,15511.699999928474,436748.5,8085,ATS,A,6
6,test,1,C,haborder.png,1,z,Mon Jan 05 2026 10:22:38 GMT-0600 (Central Standard Time),454826.2999999523,CFD-WM-013-015-A.jpg,1400,solid,I,z,1140,7,1,18077.799999952316,436748.5,8085,ATS,A,7
6,test,1,C,mfborder.png,0,z,Mon Jan 05 2026 10:22:38 GMT-0600 (Central Standard Time),457732.2999999523,CFD-WF-003-014-A.jpg,1500,dash,I,m,1375,3,1,20983.799999952316,436748.5,8085,ATS,A,8
7,test,1,C,mfborder.png,1,m,Mon Jan 05 2026 10:22:38 GMT-0600 (Central Standard Time),459558.10000002384,CFD-WM-006-013-HC.jpg,1000,dash,I,m,785,4,1,22809.600000023842,436748.5,8085,ATS,A,9
7,test,1,C,haborder.png,0,z,Mon Jan 05 2026 10:22:38 GMT-0600 (Central Standard Time),462773.7999999523,CFD-BM-005-010-A.jpg,1900,solid,I,m,1286,8,1,26025.299999952316,436748.5,8085,ATS,A,10
7,test,1,C,haborder.png,0,z,Mon Jan 05 2026 10:22:38 GMT-0600 (Central Standard Time),466005.89999997616,CFD-BM-010-019-A.jpg,1700,solid,I,None,1516,9,1,29257.399999976158,436748.5,8085,ATS,A,11
8,test,1,C,mfborder.png,1,z,Mon Jan 05 2026 10:22:38 GMT-0600 (Central Standard Time),468372.0,CFD-BF-023-013-A.jpg,1600,dash,I,z,747,2,1,31623.5,436748.5,8085,ATS,A,12
9,test,1,C,haborder.png,1,m,Mon Jan 05 2026 10:22:38 GMT-0600 (Central Standard Time),471404.2999999523,CFD-BF-028-020-HC.jpg,1600,solid,I,m,1405,10,1,34655.799999952316,436748.5,8085,ATS,A,13
10,test,1,C,haborder.png,1,m,Mon Jan 05 2026 10:22:38 GMT-0600 (Central Standard Time),473787.0,CFD-WF-002-008-HC.jpg,1500,solid,I,m,856,11,1,37038.5,436748.5,8085,ATS,A,14
11,test,1,C,mfborder.png,1,m,Mon Jan 05 2026 10:22:38 GMT-0600 (Central Standard Time),476968.89999997616,CFD-WM-019-013-A.jpg,2000,dash,I,m,1165,5,1,40220.39999997616,436748.5,8085,ATS,A,15
12,test,1,C,mfborder.png,1,z,Mon Jan 05 2026 10:22:38 GMT-0600 (Central Standard Time),479568.5,CFD-BF-010-005-HC.jpg,1700,dash,I,z,882,1,1,42820.0,436748.5,8085,ATS,A,16
12,test,1,C,haborder.png,0,z,Mon Jan 05 2026 10:22:38 GMT-0600 (Central Standard Time),482767.39999997616,CFD-BM-010-019-A.jpg,1700,solid,I,m,1471,9,1,46018.89999997616,436748.5,8085,ATS,A,17
13,test,1,C,mfborder.png,1,m,Mon Jan 05 2026 10:22:38 GMT-0600 (Central Standard Time),485149.89999997616,CFD-WM-006-013-HC.jpg,1000,dash,I,m,1352,4,1,48401.39999997616,436748.5,8085,ATS,A,18
13,test,1,C,haborder.png,0,m,Mon Jan 05 2026 10:22:38 GMT-0600 (Central Standard Time),487132.6999999285,CFD-WF-017-016-HC.jpg,1000,solid,I,z,962,12,1,50384.199999928474,436748.5,8085,ATS,A,19
14,test,1,C,mfborder.png,1,z,Mon Jan 05 2026 10:22:38 GMT-0600 (Central Standard Time),489865.1999999285,CFD-BF-023-013-A.jpg,1600,dash,I,z,1116,2,1,53116.699999928474,436748.5,8085,ATS,A,20
15,test,1,C,mfborder.png,1,m,Mon Jan 05 2026 10:22:38 GMT-0600 (Central Standard Time),491848.0,CFD-BM-029-026-HC.jpg,1200,dash,I,m,758,6,1,55099.5,436748.5,8085,ATS,A,21
16,test,1,C,mfborder.png,1,z,Mon Jan 05 2026 10:22:38 GMT-0600 (Central Standard Time),494447.10000002384,CFD-BF-010-005-HC.jpg,1700,dash,I,z,868,1,1,57698.60000002384,436748.5,8085,ATS,A,22
17,test,1,C,mfborder.png,1,z,Mon Jan 05 2026 10:22:38 GMT-0600 (Central Standard Time),497296.2999999523,CFD-WF-003-014-A.jpg,1500,dash,I,z,1325,3,1,60547.799999952316,436748.5,8085,ATS,A,23
18,test,1,C,haborder.png,1,z,Mon Jan 05 2026 10:22:38 GMT-0600 (Central Standard Time),499512.0,CFD-WM-013-015-A.jpg,1400,solid,I,z,792,7,1,62763.5,436748.5,8085,ATS,A,24
1,test,2,C,mfborder.png,1,m,Mon Jan 05 2026 10:22:38 GMT-0600 (Central Standard Time),505815.39999997616,CFD-BM-017-052-HC.jpg,1000,dash,I,m,1125,4,1,2221.2000000476837,503594.1999999285,8085,ATS,A,1
2,test,2,C,mfborder.png,1,z,Mon Jan 05 2026 10:22:38 GMT-0600 (Central Standard Time),508492.39999997616,CFD-WF-019-015-A.jpg,1600,dash,I,z,1053,2,1,4898.200000047684,503594.1999999285,8085,ATS,A,2
3,test,2,C,haborder.png,1,z,Mon Jan 05 2026 10:22:38 GMT-0600 (Central Standard Time),510908.6999999285,CFD-WF-003-014-A.jpg,1700,solid,I,z,696,9,1,7314.5,503594.1999999285,8085,ATS,A,3
3,test,2,C,haborder.png,0,z,Mon Jan 05 2026 10:22:38 GMT-0600 (Central Standard Time),514341.10000002384,CFD-BF-039-039-A.jpg,1900,solid,I,None,1516,8,1,10746.900000095367,503594.1999999285,8085,ATS,A,4
3,test,2,C,mfborder.png,0,z,Mon Jan 05 2026 10:22:38 GMT-0600 (Central Standard Time),516906.89999997616,CFD-BF-028-020-HC.jpg,1500,dash,I,m,1040,3,1,13312.700000047684,503594.1999999285,8085,ATS,A,5
4,test,2,C,haborder.png,1,z,Mon Jan 05 2026 10:22:38 GMT-0600 (Central Standard Time),519056.10000002384,CFD-BF-023-013-A.jpg,1400,solid,I,z,716,7,1,15461.900000095367,503594.1999999285,8085,ATS,A,6
4,test,2,C,mfborder.png,0,z,Mon Jan 05 2026 10:22:38 GMT-0600 (Central Standard Time),522188.5,CFD-WF-019-015-A.jpg,1600,dash,I,None,1515,2,1,18594.300000071526,503594.1999999285,8085,ATS,A,7
4,test,2,C,haborder.png,0,z,Mon Jan 05 2026 10:22:38 GMT-0600 (Central Standard Time),525420.8999999762,CFD-WF-003-014-A.jpg,1700,solid,I,None,1516,9,1,21826.700000047684,503594.1999999285,8085,ATS,A,8
5,test,2,C,haborder.png,1,m,Mon Jan 05 2026 10:22:38 GMT-0600 (Central Standard Time),527303.6000000238,CFD-WM-004-005-HC.jpg,1000,solid,I,m,859,12,1,23709.400000095367,503594.1999999285,8085,ATS,A,9
6,test,2,C,mfborder.png,1,z,Mon Jan 05 2026 10:22:38 GMT-0600 (Central Standard Time),529702.5,CFD-BF-028-020-HC.jpg,1500,dash,I,z,868,3,1,26108.300000071526,503594.1999999285,8085,ATS,A,10
7,test,2,C,haborder.png,1,z,Mon Jan 05 2026 10:22:38 GMT-0600 (Central Standard Time),533035.0,CFD-BF-039-039-A.jpg,1900,solid,I,z,1396,8,1,29440.800000071526,503594.1999999285,8085,ATS,A,11
8,test,2,C,mfborder.png,1,m,Mon Jan 05 2026 10:22:38 GMT-0600 (Central Standard Time),535367.6000000238,CFD-WM-013-015-A.jpg,1200,dash,I,m,1110,6,1,31773.400000095367,503594.1999999285,8085,ATS,A,12
9,test,2,C,mfborder.png,1,m,Mon Jan 05 2026 10:22:38 GMT-0600 (Central Standard Time),537216.8999999762,CFD-WM-013-015-A.jpg,1200,dash,I,m,617,6,1,33622.700000047684,503594.1999999285,8085,ATS,A,13
10,test,2,C,mfborder.png,1,m,Mon Jan 05 2026 10:22:38 GMT-0600 (Central Standard Time),540299.3999999762,CFD-BM-005-010-A.jpg,2000,dash,I,m,1064,5,1,36705.200000047684,503594.1999999285,8085,ATS,A,14
11,test,2,C,haborder.png,1,m,Mon Jan 05 2026 10:22:38 GMT-0600 (Central Standard Time),543315.0,CFD-BM-029-026-HC.jpg,1600,solid,I,m,1389,10,1,39720.800000071526,503594.1999999285,8085,ATS,A,15
12,test,2,C,mfborder.png,1,z,Mon Jan 05 2026 10:22:38 GMT-0600 (Central Standard Time),546114.2999999523,CFD-WF-017-016-HC.jpg,1700,dash,I,z,1072,1,1,42520.10000002384,503594.1999999285,8085,ATS,A,16
13,test,2,C,mfborder.png,1,z,Mon Jan 05 2026 10:22:38 GMT-0600 (Central Standard Time),548763.1999999285,CFD-WF-017-016-HC.jpg,1700,dash,I,z,921,1,1,45169.0,503594.1999999285,8085,ATS,A,17
14,test,2,C,haborder.png,1,m,Mon Jan 05 2026 10:22:38 GMT-0600 (Central Standard Time),550962.6000000238,CFD-WM-004-005-HC.jpg,1000,solid,I,m,1172,12,1,47368.40000009537,503594.1999999285,8085,ATS,A,18
15,test,2,C,mfborder.png,1,m,Mon Jan 05 2026 10:22:38 GMT-0600 (Central Standard Time),554012.0,CFD-BM-005-010-A.jpg,2000,dash,I,m,1029,5,1,50417.800000071526,503594.1999999285,8085,ATS,A,19
16,test,2,C,haborder.png,1,m,Mon Jan 05 2026 10:22:38 GMT-0600 (Central Standard Time),556760.7999999523,CFD-WM-004-005-HC.jpg,1500,solid,I,m,1233,11,1,53166.60000002384,503594.1999999285,8085,ATS,A,20
17,test,2,C,haborder.png,1,z,Mon Jan 05 2026 10:22:38 GMT-0600 (Central Standard Time),559676.7999999523,CFD-BF-023-013-A.jpg,1400,solid,I,z,1486,7,1,56082.60000002384,503594.1999999285,8085,ATS,A,21
18,test,2,C,haborder.png,1,m,Mon Jan 05 2026 10:22:38 GMT-0600 (Central Standard Time),562392.6000000238,CFD-BM-029-026-HC.jpg,1600,solid,I,m,1083,10,1,58798.40000009537,503594.1999999285,8085,ATS,A,22
19,test,2,C,haborder.png,1,m,Mon Jan 05 2026 10:22:38 GMT-0600 (Central Standard Time),564691.6999999285,CFD-WM-004-005-HC.jpg,1500,solid,I,m,780,11,1,61097.5,503594.1999999285,8085,ATS,A,23
20,test,2,C,mfborder.png,1,m,Mon Jan 05 2026 10:22:38 GMT-0600 (Central Standard Time),566658.7999999523,CFD-BM-017-052-HC.jpg,1000,dash,I,m,948,4,1,63064.60000002384,503594.1999999285,8085,ATS,A,24
1,test,3,C,mfborder.png,1,m,Mon Jan 05 2026 10:22:38 GMT-0600 (Central Standard Time),572811.6000000238,CFD-BM-029-026-HC.jpg,1200,dash,I,m,1135,6,1,2371.4000000953674,570440.1999999285,8085,ATS,A,1
2,test,3,C,mfborder.png,1,z,Mon Jan 05 2026 10:22:38 GMT-0600 (Central Standard Time),575221.6000000238,CFD-BF-010-005-HC.jpg,1700,dash,I,z,695,1,1,4781.400000095367,570440.1999999285,8085,ATS,A,2
3,test,3,C,haborder.png,1,z,Mon Jan 05 2026 10:22:38 GMT-0600 (Central Standard Time),578070.8999999762,CFD-WM-013-015-A.jpg,1400,solid,I,z,1418,7,1,7630.700000047684,570440.1999999285,8085,ATS,A,3
4,test,3,C,haborder.png,1,m,Mon Jan 05 2026 10:22:38 GMT-0600 (Central Standard Time),579970.1999999285,CFD-WF-017-016-HC.jpg,1000,solid,I,m,873,12,1,9530.0,570440.1999999285,8085,ATS,A,4
5,test,3,C,haborder.png,1,m,Mon Jan 05 2026 10:22:38 GMT-0600 (Central Standard Time),582286.3999999762,CFD-WF-002-008-HC.jpg,1500,solid,I,m,794,11,1,11846.200000047684,570440.1999999285,8085,ATS,A,5
6,test,3,C,mfborder.png,1,z,Mon Jan 05 2026 10:22:38 GMT-0600 (Central Standard Time),585135.1999999285,CFD-BF-023-013-A.jpg,1600,dash,I,z,1217,2,1,14695.0,570440.1999999285,8085,ATS,A,6
7,test,3,C,mfborder.png,1,m,Mon Jan 05 2026 10:22:38 GMT-0600 (Central Standard Time),587951.1999999285,CFD-WM-019-013-A.jpg,2000,dash,I,m,784,5,1,17511.0,570440.1999999285,8085,ATS,A,7
8,test,3,C,mfborder.png,1,m,Mon Jan 05 2026 10:22:38 GMT-0600 (Central Standard Time),589867.1000000238,CFD-WM-006-013-HC.jpg,1000,dash,I,m,896,4,1,19426.900000095367,570440.1999999285,8085,ATS,A,8
8,test,3,C,haborder.png,0,z,Mon Jan 05 2026 10:22:38 GMT-0600 (Central Standard Time),592883.1000000238,CFD-BM-010-019-A.jpg,1700,solid,I,m,1296,9,1,22442.900000095367,570440.1999999285,8085,ATS,A,9
9,test,3,C,mfborder.png,1,m,Mon Jan 05 2026 10:22:38 GMT-0600 (Central Standard Time),596131.8999999762,CFD-WM-019-013-A.jpg,2000,dash,I,m,1229,5,1,25691.700000047684,570440.1999999285,8085,ATS,A,10
10,test,3,C,haborder.png,1,m,Mon Jan 05 2026 10:22:38 GMT-0600 (Central Standard Time),598547.6000000238,CFD-BF-028-020-HC.jpg,1600,solid,I,m,788,10,1,28107.400000095367,570440.1999999285,8085,ATS,A,11
11,test,3,C,haborder.png,1,z,Mon Jan 05 2026 10:22:38 GMT-0600 (Central Standard Time),600980.2999999523,CFD-WM-013-015-A.jpg,1400,solid,I,z,1005,7,1,30540.100000023842,570440.1999999285,8085,ATS,A,12
12,test,3,C,mfborder.png,1,m,Mon Jan 05 2026 10:22:38 GMT-0600 (Central Standard Time),602962.7999999523,CFD-WM-006-013-HC.jpg,1000,dash,I,m,963,4,1,32522.600000023842,570440.1999999285,8085,ATS,A,13
12,test,3,C,haborder.png,0,z,Mon Jan 05 2026 10:22:38 GMT-0600 (Central Standard Time),606012.1000000238,CFD-BM-010-019-A.jpg,1700,solid,I,m,1320,9,1,35571.90000009537,570440.1999999285,8085,ATS,A,14
13,test,3,C,mfborder.png,1,z,Mon Jan 05 2026 10:22:38 GMT-0600 (Central Standard Time),608844.6000000238,CFD-WF-003-014-A.jpg,1500,dash,I,z,1311,3,1,38404.40000009537,570440.1999999285,8085,ATS,A,15
13,test,3,C,haborder.png,0,z,Mon Jan 05 2026 10:22:38 GMT-0600 (Central Standard Time),612276.7999999523,CFD-BM-005-010-A.jpg,1900,solid,I,None,1516,8,1,41836.60000002384,570440.1999999285,8085,ATS,A,16
13,test,3,C,haborder.png,0,z,Mon Jan 05 2026 10:22:38 GMT-0600 (Central Standard Time),615142.5,CFD-BM-005-010-A.jpg,1900,solid,I,m,943,8,1,44702.300000071526,570440.1999999285,8085,ATS,A,17
14,test,3,C,haborder.png,1,m,Mon Jan 05 2026 10:22:38 GMT-0600 (Central Standard Time),617375.1000000238,CFD-WF-017-016-HC.jpg,1000,solid,I,m,1210,12,1,46934.90000009537,570440.1999999285,8085,ATS,A,18
15,test,3,C,mfborder.png,1,z,Mon Jan 05 2026 10:22:38 GMT-0600 (Central Standard Time),619924.5,CFD-BF-010-005-HC.jpg,1700,dash,I,z,829,1,1,49484.300000071526,570440.1999999285,8085,ATS,A,19
16,test,3,C,haborder.png,1,m,Mon Jan 05 2026 10:22:38 GMT-0600 (Central Standard Time),622673.2999999523,CFD-BF-028-020-HC.jpg,1600,solid,I,m,1116,10,1,52233.10000002384,570440.1999999285,8085,ATS,A,20
16,test,3,C,mfborder.png,0,m,Mon Jan 05 2026 10:22:38 GMT-0600 (Central Standard Time),624539.6000000238,CFD-BM-029-026-HC.jpg,1200,dash,I,z,639,6,1,54099.40000009537,570440.1999999285,8085,ATS,A,21
17,test,3,C,mfborder.png,1,z,Mon Jan 05 2026 10:22:38 GMT-0600 (Central Standard Time),627088.5,CFD-BF-023-013-A.jpg,1600,dash,I,z,932,2,1,56648.300000071526,570440.1999999285,8085,ATS,A,22
18,test,3,C,mfborder.png,1,z,Mon Jan 05 2026 10:22:38 GMT-0600 (Central Standard Time),629521.1999999285,CFD-WF-003-014-A.jpg,1500,dash,I,z,907,3,1,59081.0,570440.1999999285,8085,ATS,A,23
19,test,3,C,haborder.png,1,m,Mon Jan 05 2026 10:22:38 GMT-0600 (Central Standard Time),631837.6000000238,CFD-WF-002-008-HC.jpg,1500,solid,I,m,794,11,1,61397.40000009537,570440.1999999285,8085,ATS,A,24
0,test,4,C,haborder.png,0,z,Mon Jan 05 2026 10:22:38 GMT-0600 (Central Standard Time),637235.8999999762,CFD-BF-023-013-A.jpg,1400,solid,I,None,1516,7,1,2932.2999999523163,634303.6000000238,8085,ATS,A,1
1,test,4,C,haborder.png,1,m,Mon Jan 05 2026 10:22:38 GMT-0600 (Central Standard Time),638918.2999999523,CFD-WM-004-005-HC.jpg,1000,solid,I,m,660,12,1,4614.699999928474,634303.6000000238,8085,ATS,A,2
2,test,4,C,mfborder.png,1,z,Mon Jan 05 2026 10:22:38 GMT-0600 (Central Standard Time),641017.6000000238,CFD-BF-028-020-HC.jpg,1500,dash,I,z,582,3,1,6714.0,634303.6000000238,8085,ATS,A,3
3,test,4,C,mfborder.png,1,z,Mon Jan 05 2026 10:22:38 GMT-0600 (Central Standard Time),643450.6999999285,CFD-WF-017-016-HC.jpg,1700,dash,I,z,715,1,1,9147.099999904633,634303.6000000238,8085,ATS,A,4
4,test,4,C,mfborder.png,1,m,Mon Jan 05 2026 10:22:38 GMT-0600 (Central Standard Time),646482.6999999285,CFD-BM-005-010-A.jpg,2000,dash,I,m,1006,5,1,12179.099999904633,634303.6000000238,8085,ATS,A,5
5,test,4,C,haborder.png,1,m,Mon Jan 05 2026 10:22:38 GMT-0600 (Central Standard Time),648615.2999999523,CFD-WM-004-005-HC.jpg,1500,solid,I,m,601,11,1,14311.699999928474,634303.6000000238,8085,ATS,A,6
6,test,4,C,mfborder.png,1,z,Mon Jan 05 2026 10:22:38 GMT-0600 (Central Standard Time),650914.2999999523,CFD-WF-019-015-A.jpg,1600,dash,I,z,680,2,1,16610.699999928474,634303.6000000238,8085,ATS,A,7
7,test,4,C,haborder.png,1,m,Mon Jan 05 2026 10:22:38 GMT-0600 (Central Standard Time),653263.8999999762,CFD-WM-004-005-HC.jpg,1500,solid,I,m,817,11,1,18960.299999952316,634303.6000000238,8085,ATS,A,8
8,test,4,C,mfborder.png,1,m,Mon Jan 05 2026 10:22:38 GMT-0600 (Central Standard Time),655080.2999999523,CFD-BM-017-052-HC.jpg,1000,dash,I,m,791,4,1,20776.699999928474,634303.6000000238,8085,ATS,A,9
8,test,4,C,mfborder.png,0,m,Mon Jan 05 2026 10:22:38 GMT-0600 (Central Standard Time),658612.3999999762,CFD-BM-005-010-A.jpg,2000,dash,I,None,1516,5,1,24308.799999952316,634303.6000000238,8085,ATS,A,10
9,test,4,C,haborder.png,1,m,Mon Jan 05 2026 10:22:38 GMT-0600 (Central Standard Time),661194.7999999523,CFD-BM-029-026-HC.jpg,1600,solid,I,m,963,10,1,26891.199999928474,634303.6000000238,8085,ATS,A,11
10,test,4,C,haborder.png,1,z,Mon Jan 05 2026 10:22:38 GMT-0600 (Central Standard Time),663594.0,CFD-BF-023-013-A.jpg,1400,solid,I,z,981,7,1,29290.399999976158,634303.6000000238,8085,ATS,A,12
11,test,4,C,mfborder.png,1,z,Mon Jan 05 2026 10:22:38 GMT-0600 (Central Standard Time),666010.0,CFD-BF-028-020-HC.jpg,1500,dash,I,z,890,3,1,31706.399999976158,634303.6000000238,8085,ATS,A,13
11,test,4,C,haborder.png,0,z,Mon Jan 05 2026 10:22:38 GMT-0600 (Central Standard Time),669441.8999999762,CFD-BF-039-039-A.jpg,1900,solid,I,None,1516,8,1,35138.299999952316,634303.6000000238,8085,ATS,A,14
12,test,4,C,mfborder.png,1,m,Mon Jan 05 2026 10:22:38 GMT-0600 (Central Standard Time),671642.6999999285,CFD-WM-013-015-A.jpg,1200,dash,I,m,982,6,1,37339.09999990463,634303.6000000238,8085,ATS,A,15
12,test,4,C,haborder.png,0,z,Mon Jan 05 2026 10:22:38 GMT-0600 (Central Standard Time),674874.0,CFD-WF-003-014-A.jpg,1700,solid,I,None,1517,9,1,40570.39999997616,634303.6000000238,8085,ATS,A,16
13,test,4,C,mfborder.png,1,m,Mon Jan 05 2026 10:22:38 GMT-0600 (Central Standard Time),676723.2999999523,CFD-BM-017-052-HC.jpg,1000,dash,I,m,823,4,1,42419.699999928474,634303.6000000238,8085,ATS,A,17
14,test,4,C,mfborder.png,1,m,Mon Jan 05 2026 10:22:38 GMT-0600 (Central Standard Time),678939.2999999523,CFD-WM-013-015-A.jpg,1200,dash,I,m,996,6,1,44635.699999928474,634303.6000000238,8085,ATS,A,18
15,test,4,C,haborder.png,1,z,Mon Jan 05 2026 10:22:38 GMT-0600 (Central Standard Time),681454.8999999762,CFD-WF-003-014-A.jpg,1700,solid,I,z,793,9,1,47151.299999952316,634303.6000000238,8085,ATS,A,19
16,test,4,C,haborder.png,1,m,Mon Jan 05 2026 10:22:38 GMT-0600 (Central Standard Time),683321.5,CFD-WM-004-005-HC.jpg,1000,solid,I,m,841,12,1,49017.89999997616,634303.6000000238,8085,ATS,A,20
17,test,4,C,mfborder.png,1,z,Mon Jan 05 2026 10:22:38 GMT-0600 (Central Standard Time),685736.7999999523,CFD-WF-019-015-A.jpg,1600,dash,I,z,798,2,1,51433.199999928474,634303.6000000238,8085,ATS,A,21
17,test,4,C,haborder.png,0,z,Mon Jan 05 2026 10:22:38 GMT-0600 (Central Standard Time),688802.8999999762,CFD-BF-039-039-A.jpg,1900,solid,I,m,1138,8,1,54499.299999952316,634303.6000000238,8085,ATS,A,22
18,test,4,C,haborder.png,1,m,Mon Jan 05 2026 10:22:38 GMT-0600 (Central Standard Time),691185.3999999762,CFD-BM-029-026-HC.jpg,1600,solid,I,m,757,10,1,56881.799999952316,634303.6000000238,8085,ATS,A,23
19,test,4,C,mfborder.png,1,z,Mon Jan 05 2026 10:22:38 GMT-0600 (Central Standard Time),693634.6999999285,CFD-WF-017-016-HC.jpg,1700,dash,I,z,723,1,1,59331.09999990463,634303.6000000238,8085,ATS,A,24
