acc_sum,block,block_c,block_cond,con_img,correct,correct_response,datetime,endtime,face,jitter,line,project,response,response_time,row_sel,session_number,start_end,starttime,subject_id,task,task_vers,trial
1,prac,1,A,haborder.png,1,m,Thu May 14 2026 09:40:45 GMT-0500 (Central Daylight Time),54968.40000000596,CFD-WM-028-005-HC.jpg,1400,solid,I,m,746,7,2,3066.0,51902.40000000596,8085,ATS,C,1
2,prac,1,A,haborder.png,1,z,Thu May 14 2026 09:40:45 GMT-0500 (Central Daylight Time),58017.5,CFD-BM-043-014-A.jpg,1600,solid,I,z,664,2,2,6115.0999999940395,51902.40000000596,8085,ATS,C,2
3,prac,1,A,haborder.png,1,m,Thu May 14 2026 09:40:45 GMT-0500 (Central Daylight Time),60782.90000000596,CFD-WF-013-009-HC.jpg,1500,solid,I,m,482,11,2,8880.5,51902.40000000596,8085,ATS,C,3
4,prac,1,A,haborder.png,1,z,Thu May 14 2026 09:40:45 GMT-0500 (Central Daylight Time),63632.20000001788,CFD-BF-002-018-A.jpg,1200,solid,I,z,850,6,2,11729.800000011921,51902.40000000596,8085,ATS,C,4
5,prac,1,A,haborder.png,1,z,Thu May 14 2026 09:40:45 GMT-0500 (Central Daylight Time),66014.60000002384,CFD-WF-023-013-A.jpg,1000,solid,I,z,600,12,2,14112.200000017881,51902.40000000596,8085,ATS,C,5
6,prac,1,A,haborder.png,1,m,Thu May 14 2026 09:40:45 GMT-0500 (Central Daylight Time),68730.60000002384,CFD-BM-022-004-HC.jpg,1500,solid,I,m,422,3,2,16828.20000001788,51902.40000000596,8085,ATS,C,6
7,prac,1,A,haborder.png,1,z,Thu May 14 2026 09:40:45 GMT-0500 (Central Daylight Time),72212.90000000596,CFD-WM-036-018-A.jpg,1900,solid,I,z,785,8,2,20310.5,51902.40000000596,8085,ATS,C,7
8,prac,1,A,haborder.png,1,z,Thu May 14 2026 09:40:45 GMT-0500 (Central Daylight Time),74678.30000001192,CFD-BF-031-020-A.jpg,1000,solid,I,z,675,4,2,22775.90000000596,51902.40000000596,8085,ATS,C,8
9,prac,1,A,haborder.png,1,z,Thu May 14 2026 09:40:45 GMT-0500 (Central Daylight Time),77777.30000001192,CFD-WF-037-016-A.jpg,1600,solid,I,z,727,10,2,25874.90000000596,51902.40000000596,8085,ATS,C,9
10,prac,1,A,haborder.png,1,m,Thu May 14 2026 09:40:45 GMT-0500 (Central Daylight Time),80943.20000001788,CFD-BM-034-035-HC.jpg,1700,solid,I,m,683,1,2,29040.80000001192,51902.40000000596,8085,ATS,C,10
11,prac,1,A,haborder.png,1,m,Thu May 14 2026 09:40:45 GMT-0500 (Central Daylight Time),83959.20000001788,CFD-WM-035-036-HC.jpg,1700,solid,I,m,517,9,2,32056.80000001192,51902.40000000596,8085,ATS,C,11
12,prac,1,A,haborder.png,1,m,Thu May 14 2026 09:40:45 GMT-0500 (Central Daylight Time),87657.90000000596,CFD-BF-019-004-HC.jpg,2000,solid,I,m,914,5,2,35755.5,51902.40000000596,8085,ATS,C,12
1,prac,1,B,mfborder.png,1,m,Thu May 14 2026 09:40:45 GMT-0500 (Central Daylight Time),113933.10000002384,CFD-WM-036-018-A.jpg,1700,9,I,m,726,dash,2,3215.7000000178814,110717.40000000596,8085,ATS,C,1
2,prac,1,B,mfborder.png,1,z,Thu May 14 2026 09:40:45 GMT-0500 (Central Daylight Time),117215.0,CFD-WF-001-010-HC.jpg,1900,8,I,z,590,dash,2,6497.5999999940395,110717.40000000596,8085,ATS,C,2
3,prac,1,B,mfborder.png,1,m,Thu May 14 2026 09:40:45 GMT-0500 (Central Daylight Time),119731.30000001192,CFD-WM-034-040-A.jpg,1200,6,I,m,529,dash,2,9013.90000000596,110717.40000000596,8085,ATS,C,3
4,prac,1,B,mfborder.png,1,z,Thu May 14 2026 09:40:45 GMT-0500 (Central Daylight Time),122646.90000000596,CFD-WF-037-016-A.jpg,1500,11,I,z,617,dash,2,11929.5,110717.40000000596,8085,ATS,C,4
4,prac,1,B,mfborder.png,0,z,Thu May 14 2026 09:40:45 GMT-0500 (Central Daylight Time),126029.30000001192,CFD-BF-042-031-HC.jpg,1500,3,I,m,1080,dash,2,15311.90000000596,110717.40000000596,8085,ATS,C,5
5,prac,1,B,mfborder.png,1,z,Thu May 14 2026 09:40:45 GMT-0500 (Central Daylight Time),128428.40000000596,CFD-BF-031-020-A.jpg,1000,4,I,z,607,dash,2,17711.0,110717.40000000596,8085,ATS,C,6
6,prac,1,B,mfborder.png,1,z,Thu May 14 2026 09:40:45 GMT-0500 (Central Daylight Time),131194.30000001192,CFD-BF-019-004-HC.jpg,1400,7,I,z,572,dash,2,20476.90000000596,110717.40000000596,8085,ATS,C,7
7,prac,1,B,mfborder.png,1,m,Thu May 14 2026 09:40:45 GMT-0500 (Central Daylight Time),134576.5,CFD-BM-043-014-A.jpg,2000,5,I,m,590,dash,2,23859.09999999404,110717.40000000596,8085,ATS,C,8
8,prac,1,B,mfborder.png,1,m,Thu May 14 2026 09:40:45 GMT-0500 (Central Daylight Time),137492.20000001788,CFD-WM-035-036-HC.jpg,1600,10,I,m,528,dash,2,26774.80000001192,110717.40000000596,8085,ATS,C,9
9,prac,1,B,mfborder.png,1,z,Thu May 14 2026 09:40:45 GMT-0500 (Central Daylight Time),139941.20000001788,CFD-WF-013-009-HC.jpg,1000,12,I,z,651,dash,2,29223.80000001192,110717.40000000596,8085,ATS,C,10
10,prac,1,B,mfborder.png,1,m,Thu May 14 2026 09:40:45 GMT-0500 (Central Daylight Time),142990.40000000596,CFD-BM-022-004-HC.jpg,1700,1,I,m,550,dash,2,32273.0,110717.40000000596,8085,ATS,C,11
11,prac,1,B,mfborder.png,1,m,Thu May 14 2026 09:40:45 GMT-0500 (Central Daylight Time),146039.70000001788,CFD-BM-021-026-A.jpg,1600,2,I,m,657,dash,2,35322.30000001192,110717.40000000596,8085,ATS,C,12
1,test,1,A,haborder.png,1,m,Thu May 14 2026 09:40:45 GMT-0500 (Central Daylight Time),165766.80000001192,CFD-BM-022-004-HC.jpg,1500,solid,I,m,585,3,2,2116.199999988079,163650.60000002384,8085,ATS,C,1
2,test,1,A,haborder.png,1,m,Thu May 14 2026 09:40:45 GMT-0500 (Central Daylight Time),168132.60000002384,CFD-BM-034-035-HC.jpg,1700,solid,I,m,637,1,2,4482.0,163650.60000002384,8085,ATS,C,2
3,test,1,A,haborder.png,1,z,Thu May 14 2026 09:40:45 GMT-0500 (Central Daylight Time),170548.60000002384,CFD-WM-036-018-A.jpg,1900,solid,I,z,487,8,2,6898.0,163650.60000002384,8085,ATS,C,3
4,test,1,A,haborder.png,1,m,Thu May 14 2026 09:40:45 GMT-0500 (Central Daylight Time),172864.60000002384,CFD-WM-035-036-HC.jpg,1700,solid,I,m,592,9,2,9214.0,163650.60000002384,8085,ATS,C,4
5,test,1,A,haborder.png,1,m,Thu May 14 2026 09:40:45 GMT-0500 (Central Daylight Time),175097.10000002384,CFD-WF-013-009-HC.jpg,1500,solid,I,m,707,11,2,11446.5,163650.60000002384,8085,ATS,C,5
6,test,1,A,haborder.png,1,m,Thu May 14 2026 09:40:45 GMT-0500 (Central Daylight Time),177696.30000001192,CFD-BF-019-004-HC.jpg,2000,solid,I,m,565,5,2,14045.699999988079,163650.60000002384,8085,ATS,C,6
7,test,1,A,haborder.png,1,m,Thu May 14 2026 09:40:45 GMT-0500 (Central Daylight Time),179745.60000002384,CFD-WM-028-005-HC.jpg,1400,solid,I,m,631,7,2,16095.0,163650.60000002384,8085,ATS,C,7
8,test,1,A,haborder.png,1,z,Thu May 14 2026 09:40:45 GMT-0500 (Central Daylight Time),181479.40000000596,CFD-BF-002-018-A.jpg,1200,solid,I,z,509,6,2,17828.79999998212,163650.60000002384,8085,ATS,C,8
9,test,1,A,haborder.png,1,m,Thu May 14 2026 09:40:45 GMT-0500 (Central Daylight Time),184029.0,CFD-BF-019-004-HC.jpg,2000,solid,I,m,530,5,2,20378.399999976158,163650.60000002384,8085,ATS,C,9
10,test,1,A,haborder.png,1,z,Thu May 14 2026 09:40:45 GMT-0500 (Central Daylight Time),185727.20000001788,CFD-BF-031-020-A.jpg,1000,solid,I,z,668,4,2,22076.59999999404,163650.60000002384,8085,ATS,C,10
11,test,1,A,haborder.png,1,m,Thu May 14 2026 09:40:45 GMT-0500 (Central Daylight Time),187692.90000000596,CFD-WF-013-009-HC.jpg,1500,solid,I,m,445,11,2,24042.29999998212,163650.60000002384,8085,ATS,C,11
12,test,1,A,haborder.png,1,z,Thu May 14 2026 09:40:45 GMT-0500 (Central Daylight Time),189925.80000001192,CFD-BM-043-014-A.jpg,1600,solid,I,z,611,2,2,26275.19999998808,163650.60000002384,8085,ATS,C,12
12,test,1,A,haborder.png,0,z,Thu May 14 2026 09:40:45 GMT-0500 (Central Daylight Time),192141.70000001788,CFD-BF-002-018-A.jpg,1200,solid,I,m,985,6,2,28491.09999999404,163650.60000002384,8085,ATS,C,13
13,test,1,A,haborder.png,1,m,Thu May 14 2026 09:40:45 GMT-0500 (Central Daylight Time),194507.80000001192,CFD-WM-035-036-HC.jpg,1700,solid,I,m,647,9,2,30857.19999998808,163650.60000002384,8085,ATS,C,14
14,test,1,A,haborder.png,1,z,Thu May 14 2026 09:40:45 GMT-0500 (Central Daylight Time),196073.60000002384,CFD-WF-023-013-A.jpg,1000,solid,I,z,549,12,2,32423.0,163650.60000002384,8085,ATS,C,15
15,test,1,A,haborder.png,1,z,Thu May 14 2026 09:40:45 GMT-0500 (Central Daylight Time),198239.60000002384,CFD-BM-043-014-A.jpg,1600,solid,I,z,534,2,2,34589.0,163650.60000002384,8085,ATS,C,16
16,test,1,A,haborder.png,1,z,Thu May 14 2026 09:40:45 GMT-0500 (Central Daylight Time),200788.70000001788,CFD-WM-036-018-A.jpg,1900,solid,I,z,628,8,2,37138.09999999404,163650.60000002384,8085,ATS,C,17
17,test,1,A,haborder.png,1,z,Thu May 14 2026 09:40:45 GMT-0500 (Central Daylight Time),202354.90000000596,CFD-WF-023-013-A.jpg,1000,solid,I,z,538,12,2,38704.29999998212,163650.60000002384,8085,ATS,C,18
18,test,1,A,haborder.png,1,z,Thu May 14 2026 09:40:45 GMT-0500 (Central Daylight Time),204521.20000001788,CFD-WF-037-016-A.jpg,1600,solid,I,z,541,10,2,40870.59999999404,163650.60000002384,8085,ATS,C,19
19,test,1,A,haborder.png,1,m,Thu May 14 2026 09:40:45 GMT-0500 (Central Daylight Time),206503.70000001788,CFD-WM-028-005-HC.jpg,1400,solid,I,m,558,7,2,42853.09999999404,163650.60000002384,8085,ATS,C,20
20,test,1,A,haborder.png,1,m,Thu May 14 2026 09:40:45 GMT-0500 (Central Daylight Time),208969.5,CFD-BM-034-035-HC.jpg,1700,solid,I,m,748,1,2,45318.89999997616,163650.60000002384,8085,ATS,C,21
21,test,1,A,haborder.png,1,z,Thu May 14 2026 09:40:45 GMT-0500 (Central Daylight Time),211253.20000001788,CFD-WF-037-016-A.jpg,1600,solid,I,z,654,10,2,47602.59999999404,163650.60000002384,8085,ATS,C,22
22,test,1,A,haborder.png,1,m,Thu May 14 2026 09:40:45 GMT-0500 (Central Daylight Time),213385.20000001788,CFD-BM-022-004-HC.jpg,1500,solid,I,m,615,3,2,49734.59999999404,163650.60000002384,8085,ATS,C,23
23,test,1,A,haborder.png,1,z,Thu May 14 2026 09:40:45 GMT-0500 (Central Daylight Time),214984.30000001192,CFD-BF-031-020-A.jpg,1000,solid,I,z,582,4,2,51333.69999998808,163650.60000002384,8085,ATS,C,24
1,test,1,B,mfborder.png,1,m,Thu May 14 2026 09:40:45 GMT-0500 (Central Daylight Time),230845.90000000596,CFD-BM-021-026-A.jpg,1600,dash,I,m,727,2,2,2349.2999999821186,228496.60000002384,8085,ATS,C,1
2,test,1,B,mfborder.png,1,z,Thu May 14 2026 09:40:45 GMT-0500 (Central Daylight Time),232912.10000002384,CFD-WF-037-016-A.jpg,1500,dash,I,z,533,11,2,4415.5,228496.60000002384,8085,ATS,C,2
3,test,1,B,mfborder.png,1,m,Thu May 14 2026 09:40:45 GMT-0500 (Central Daylight Time),235228.0,CFD-BM-022-004-HC.jpg,1700,dash,I,m,595,1,2,6731.399999976158,228496.60000002384,8085,ATS,C,3
4,test,1,B,mfborder.png,1,m,Thu May 14 2026 09:40:45 GMT-0500 (Central Daylight Time),237827.30000001192,CFD-BM-043-014-A.jpg,2000,dash,I,m,572,5,2,9330.699999988079,228496.60000002384,8085,ATS,C,4
5,test,1,B,mfborder.png,1,z,Thu May 14 2026 09:40:45 GMT-0500 (Central Daylight Time),239976.60000002384,CFD-BF-042-031-HC.jpg,1500,dash,I,z,624,3,2,11480.0,228496.60000002384,8085,ATS,C,5
6,test,1,B,mfborder.png,1,m,Thu May 14 2026 09:40:45 GMT-0500 (Central Daylight Time),242808.90000000596,CFD-BM-043-014-A.jpg,2000,dash,I,m,722,5,2,14312.299999982119,228496.60000002384,8085,ATS,C,6
7,test,1,B,mfborder.png,1,m,Thu May 14 2026 09:40:45 GMT-0500 (Central Daylight Time),244991.60000002384,CFD-WM-035-036-HC.jpg,1600,dash,I,m,559,10,2,16495.0,228496.60000002384,8085,ATS,C,7
8,test,1,B,mfborder.png,1,m,Thu May 14 2026 09:40:45 GMT-0500 (Central Daylight Time),247140.90000000596,CFD-WM-035-036-HC.jpg,1600,dash,I,m,520,10,2,18644.29999998212,228496.60000002384,8085,ATS,C,8
9,test,1,B,mfborder.png,1,m,Thu May 14 2026 09:40:45 GMT-0500 (Central Daylight Time),249440.30000001192,CFD-WM-036-018-A.jpg,1700,dash,I,m,575,9,2,20943.69999998808,228496.60000002384,8085,ATS,C,9
10,test,1,B,mfborder.png,1,z,Thu May 14 2026 09:40:45 GMT-0500 (Central Daylight Time),251756.20000001788,CFD-BF-031-020-A.jpg,1000,dash,I,z,1287,4,2,23259.59999999404,228496.60000002384,8085,ATS,C,10
11,test,1,B,mfborder.png,1,z,Thu May 14 2026 09:40:45 GMT-0500 (Central Daylight Time),253222.30000001192,CFD-BF-031-020-A.jpg,1000,dash,I,z,443,4,2,24725.69999998808,228496.60000002384,8085,ATS,C,11
12,test,1,B,mfborder.png,1,z,Thu May 14 2026 09:40:45 GMT-0500 (Central Daylight Time),255305.0,CFD-WF-037-016-A.jpg,1500,dash,I,z,565,11,2,26808.399999976158,228496.60000002384,8085,ATS,C,12
13,test,1,B,mfborder.png,1,z,Thu May 14 2026 09:40:45 GMT-0500 (Central Daylight Time),258004.10000002384,CFD-BF-019-004-HC.jpg,1400,dash,I,z,1270,7,2,29507.5,228496.60000002384,8085,ATS,C,13
14,test,1,B,mfborder.png,1,m,Thu May 14 2026 09:40:45 GMT-0500 (Central Daylight Time),259637.10000002384,CFD-WM-034-040-A.jpg,1200,dash,I,m,403,6,2,31140.5,228496.60000002384,8085,ATS,C,14
14,test,1,B,mfborder.png,0,z,Thu May 14 2026 09:40:45 GMT-0500 (Central Daylight Time),261236.5,CFD-WF-013-009-HC.jpg,1000,dash,I,m,570,12,2,32739.899999976158,228496.60000002384,8085,ATS,C,15
15,test,1,B,mfborder.png,1,m,Thu May 14 2026 09:40:45 GMT-0500 (Central Daylight Time),263569.0,CFD-BM-022-004-HC.jpg,1700,dash,I,m,615,1,2,35072.39999997616,228496.60000002384,8085,ATS,C,16
16,test,1,B,mfborder.png,1,z,Thu May 14 2026 09:40:45 GMT-0500 (Central Daylight Time),266068.3000000119,CFD-WF-001-010-HC.jpg,1900,dash,I,z,515,8,2,37571.69999998808,228496.60000002384,8085,ATS,C,17
17,test,1,B,mfborder.png,1,m,Thu May 14 2026 09:40:45 GMT-0500 (Central Daylight Time),268234.3000000119,CFD-BM-021-026-A.jpg,1600,dash,I,m,547,2,2,39737.69999998808,228496.60000002384,8085,ATS,C,18
18,test,1,B,mfborder.png,1,z,Thu May 14 2026 09:40:45 GMT-0500 (Central Daylight Time),269883.90000000596,CFD-WF-013-009-HC.jpg,1000,dash,I,z,621,12,2,41387.29999998212,228496.60000002384,8085,ATS,C,19
19,test,1,B,mfborder.png,1,z,Thu May 14 2026 09:40:45 GMT-0500 (Central Daylight Time),272416.3000000119,CFD-WF-001-010-HC.jpg,1900,dash,I,z,608,8,2,43919.69999998808,228496.60000002384,8085,ATS,C,20
20,test,1,B,mfborder.png,1,z,Thu May 14 2026 09:40:45 GMT-0500 (Central Daylight Time),274599.10000002384,CFD-BF-042-031-HC.jpg,1500,dash,I,z,659,3,2,46102.5,228496.60000002384,8085,ATS,C,21
21,test,1,B,mfborder.png,1,m,Thu May 14 2026 09:40:45 GMT-0500 (Central Daylight Time),276948.3000000119,CFD-WM-036-018-A.jpg,1700,dash,I,m,629,9,2,48451.69999998808,228496.60000002384,8085,ATS,C,22
22,test,1,B,mfborder.png,1,z,Thu May 14 2026 09:40:45 GMT-0500 (Central Daylight Time),279347.5,CFD-BF-019-004-HC.jpg,1400,dash,I,z,979,7,2,50850.89999997616,228496.60000002384,8085,ATS,C,23
23,test,1,B,mfborder.png,1,m,Thu May 14 2026 09:40:45 GMT-0500 (Central Daylight Time),281530.10000002384,CFD-WM-034-040-A.jpg,1200,dash,I,m,956,6,2,53033.5,228496.60000002384,8085,ATS,C,24
1,prac,1,C,mfborder.png,1,m,Thu May 14 2026 09:40:45 GMT-0500 (Central Daylight Time),328798.90000000596,CFD-WM-036-018-A.jpg,1700,solid,I,m,1033,6,2,3532.2999999821186,325266.60000002384,8085,ATS,C,1
2,prac,1,C,mfborder.png,1,m,Thu May 14 2026 09:40:45 GMT-0500 (Central Daylight Time),331747.8000000119,CFD-BM-043-014-A.jpg,1200,dash,I,m,961,6,2,6481.199999988079,325266.60000002384,8085,ATS,C,2
3,prac,1,C,haborder.png,1,m,Thu May 14 2026 09:40:45 GMT-0500 (Central Daylight Time),334363.5,CFD-WM-028-005-HC.jpg,1000,dash,I,m,820,6,2,9096.899999976158,325266.60000002384,8085,ATS,C,3
4,prac,1,C,haborder.png,1,m,Thu May 14 2026 09:40:45 GMT-0500 (Central Daylight Time),337346.0,CFD-BM-022-004-HC.jpg,1500,solid,I,m,687,6,2,12079.399999976158,325266.60000002384,8085,ATS,C,4
5,prac,1,C,mfborder.png,1,z,Thu May 14 2026 09:40:45 GMT-0500 (Central Daylight Time),340195.2000000179,CFD-BF-019-004-HC.jpg,1000,dash,I,z,1054,6,2,14928.59999999404,325266.60000002384,8085,ATS,C,5
6,prac,1,C,haborder.png,1,m,Thu May 14 2026 09:40:45 GMT-0500 (Central Daylight Time),343710.8000000119,CFD-WM-028-005-HC.jpg,1400,solid,I,m,1332,6,2,18444.19999998808,325266.60000002384,8085,ATS,C,6
7,prac,1,C,haborder.png,1,z,Thu May 14 2026 09:40:45 GMT-0500 (Central Daylight Time),347542.7000000179,CFD-BF-031-020-A.jpg,1900,dash,I,z,1141,6,2,22276.09999999404,325266.60000002384,8085,ATS,C,7
8,prac,1,C,haborder.png,1,z,Thu May 14 2026 09:40:45 GMT-0500 (Central Daylight Time),351025.0,CFD-BF-002-018-A.jpg,1700,solid,I,z,997,6,2,25758.399999976158,325266.60000002384,8085,ATS,C,8
8,prac,1,C,mfborder.png,0,z,Thu May 14 2026 09:40:45 GMT-0500 (Central Daylight Time),354690.60000002384,CFD-WF-013-009-HC.jpg,1600,dash,I,m,1271,6,2,29424.0,325266.60000002384,8085,ATS,C,9
9,prac,1,C,mfborder.png,1,z,Thu May 14 2026 09:40:45 GMT-0500 (Central Daylight Time),357757.0,CFD-WF-023-013-A.jpg,1500,solid,I,z,769,6,2,32490.399999976158,325266.60000002384,8085,ATS,C,10
10,prac,1,C,mfborder.png,1,m,Thu May 14 2026 09:40:45 GMT-0500 (Central Daylight Time),361555.2000000179,CFD-BM-034-035-HC.jpg,2000,solid,I,m,931,6,2,36288.59999999404,325266.60000002384,8085,ATS,C,11
11,prac,1,C,haborder.png,1,z,Thu May 14 2026 09:40:45 GMT-0500 (Central Daylight Time),364704.10000002384,CFD-WF-037-016-A.jpg,1600,dash,I,z,765,6,2,39437.5,325266.60000002384,8085,ATS,C,12
0,test,1,C,mfborder.png,0,m,Thu May 14 2026 09:40:45 GMT-0500 (Central Daylight Time),387996.8000000119,CFD-WM-034-040-A.jpg,2000,dash,I,None,1516,5,2,3532.199999988079,384464.60000002384,8085,ATS,C,1
1,test,1,C,mfborder.png,1,m,Thu May 14 2026 09:40:45 GMT-0500 (Central Daylight Time),389896.3000000119,CFD-WM-035-036-HC.jpg,1000,dash,I,m,875,4,2,5431.699999988079,384464.60000002384,8085,ATS,C,2
1,test,1,C,haborder.png,0,m,Thu May 14 2026 09:40:45 GMT-0500 (Central Daylight Time),392045.40000000596,CFD-WF-013-009-HC.jpg,1000,solid,I,z,1118,12,2,7580.799999982119,384464.60000002384,8085,ATS,C,3
2,test,1,C,haborder.png,1,m,Thu May 14 2026 09:40:45 GMT-0500 (Central Daylight Time),394128.0,CFD-WF-013-009-HC.jpg,1000,solid,I,m,1049,12,2,9663.399999976158,384464.60000002384,8085,ATS,C,4
2,test,1,C,haborder.png,0,z,Thu May 14 2026 09:40:45 GMT-0500 (Central Daylight Time),396943.90000000596,CFD-WM-036-018-A.jpg,1400,solid,I,m,1391,7,2,12479.299999982119,384464.60000002384,8085,ATS,C,5
2,test,1,C,haborder.png,0,m,Thu May 14 2026 09:40:45 GMT-0500 (Central Daylight Time),399976.3000000119,CFD-WF-001-010-HC.jpg,1500,solid,I,None,1515,11,2,15511.699999988079,384464.60000002384,8085,ATS,C,6
3,test,1,C,mfborder.png,1,m,Thu May 14 2026 09:40:45 GMT-0500 (Central Daylight Time),402642.3000000119,CFD-BM-022-004-HC.jpg,1200,dash,I,m,1439,6,2,18177.69999998808,384464.60000002384,8085,ATS,C,7
3,test,1,C,haborder.png,0,m,Thu May 14 2026 09:40:45 GMT-0500 (Central Daylight Time),405774.5,CFD-BF-019-004-HC.jpg,1600,solid,I,None,1515,10,2,21309.899999976158,384464.60000002384,8085,ATS,C,8
3,test,1,C,haborder.png,0,m,Thu May 14 2026 09:40:45 GMT-0500 (Central Daylight Time),408407.10000002384,CFD-WF-001-010-HC.jpg,1500,solid,I,z,1101,11,2,23942.5,384464.60000002384,8085,ATS,C,9
3,test,1,C,haborder.png,0,z,Thu May 14 2026 09:40:45 GMT-0500 (Central Daylight Time),411256.10000002384,CFD-BM-043-014-A.jpg,1900,solid,I,m,924,8,2,26791.5,384464.60000002384,8085,ATS,C,10
3,test,1,C,mfborder.png,0,z,Thu May 14 2026 09:40:45 GMT-0500 (Central Daylight Time),414222.0,CFD-BF-042-031-HC.jpg,1700,dash,I,m,1243,1,2,29757.399999976158,384464.60000002384,8085,ATS,C,11
3,test,1,C,haborder.png,0,z,Thu May 14 2026 09:40:45 GMT-0500 (Central Daylight Time),416654.40000000596,CFD-WM-036-018-A.jpg,1400,solid,I,m,1002,7,2,32189.79999998212,384464.60000002384,8085,ATS,C,12
3,test,1,C,mfborder.png,0,m,Thu May 14 2026 09:40:45 GMT-0500 (Central Daylight Time),420186.7000000179,CFD-WM-034-040-A.jpg,2000,dash,I,None,1516,5,2,35722.09999999404,384464.60000002384,8085,ATS,C,13
4,test,1,C,haborder.png,1,z,Thu May 14 2026 09:40:45 GMT-0500 (Central Daylight Time),423202.2000000179,CFD-BM-021-026-A.jpg,1700,solid,I,z,1289,9,2,38737.59999999404,384464.60000002384,8085,ATS,C,14
5,test,1,C,haborder.png,1,m,Thu May 14 2026 09:40:45 GMT-0500 (Central Daylight Time),425884.90000000596,CFD-BF-019-004-HC.jpg,1600,solid,I,m,1053,10,2,41420.29999998212,384464.60000002384,8085,ATS,C,15
5,test,1,C,mfborder.png,0,z,Thu May 14 2026 09:40:45 GMT-0500 (Central Daylight Time),428484.0,CFD-WF-037-016-A.jpg,1500,dash,I,m,1071,3,2,44019.39999997616,384464.60000002384,8085,ATS,C,16
6,test,1,C,mfborder.png,1,m,Thu May 14 2026 09:40:45 GMT-0500 (Central Daylight Time),430400.10000002384,CFD-WM-035-036-HC.jpg,1000,dash,I,m,891,4,2,45935.5,384464.60000002384,8085,ATS,C,17
7,test,1,C,mfborder.png,1,z,Thu May 14 2026 09:40:45 GMT-0500 (Central Daylight Time),432649.40000000596,CFD-WF-037-016-A.jpg,1500,dash,I,z,731,3,2,48184.79999998212,384464.60000002384,8085,ATS,C,18
8,test,1,C,haborder.png,1,z,Thu May 14 2026 09:40:45 GMT-0500 (Central Daylight Time),435648.5,CFD-BM-043-014-A.jpg,1900,solid,I,z,1067,8,2,51183.89999997616,384464.60000002384,8085,ATS,C,19
8,test,1,C,mfborder.png,0,z,Thu May 14 2026 09:40:45 GMT-0500 (Central Daylight Time),438714.2000000179,CFD-BF-042-031-HC.jpg,1700,dash,I,m,1347,1,2,54249.59999999404,384464.60000002384,8085,ATS,C,20
8,test,1,C,mfborder.png,0,m,Thu May 14 2026 09:40:45 GMT-0500 (Central Daylight Time),441446.60000002384,CFD-BM-022-004-HC.jpg,1200,dash,I,None,1515,6,2,56982.0,384464.60000002384,8085,ATS,C,21
9,test,1,C,mfborder.png,1,z,Thu May 14 2026 09:40:45 GMT-0500 (Central Daylight Time),444395.8000000119,CFD-BF-031-020-A.jpg,1600,dash,I,z,1329,2,2,59931.19999998808,384464.60000002384,8085,ATS,C,22
9,test,1,C,mfborder.png,0,z,Thu May 14 2026 09:40:45 GMT-0500 (Central Daylight Time),447528.10000002384,CFD-BF-031-020-A.jpg,1600,dash,I,None,1516,2,2,63063.5,384464.60000002384,8085,ATS,C,23
9,test,1,C,haborder.png,0,z,Thu May 14 2026 09:40:45 GMT-0500 (Central Daylight Time),450277.2000000179,CFD-BM-021-026-A.jpg,1700,solid,I,m,1027,9,2,65812.59999999404,384464.60000002384,8085,ATS,C,24
1,test,2,C,haborder.png,1,m,Thu May 14 2026 09:40:45 GMT-0500 (Central Daylight Time),467088.7000000179,CFD-WM-028-005-HC.jpg,1000,solid,I,m,832,12,2,1849.5,465239.2000000179,8085,ATS,C,1
2,test,2,C,mfborder.png,1,m,Thu May 14 2026 09:40:45 GMT-0500 (Central Daylight Time),468888.40000000596,CFD-BM-034-035-HC.jpg,1000,dash,I,m,767,4,2,3649.199999988079,465239.2000000179,8085,ATS,C,2
3,test,2,C,mfborder.png,1,m,Thu May 14 2026 09:40:45 GMT-0500 (Central Daylight Time),470904.0,CFD-WM-036-018-A.jpg,1200,dash,I,m,792,6,2,5664.799999982119,465239.2000000179,8085,ATS,C,3
4,test,2,C,mfborder.png,1,m,Thu May 14 2026 09:40:45 GMT-0500 (Central Daylight Time),472720.3000000119,CFD-BM-034-035-HC.jpg,1000,dash,I,m,791,4,2,7481.0999999940395,465239.2000000179,8085,ATS,C,4
5,test,2,C,mfborder.png,1,z,Thu May 14 2026 09:40:45 GMT-0500 (Central Daylight Time),475269.5,CFD-WF-013-009-HC.jpg,1700,dash,I,z,827,1,2,10030.299999982119,465239.2000000179,8085,ATS,C,5
6,test,2,C,haborder.png,1,z,Thu May 14 2026 09:40:45 GMT-0500 (Central Daylight Time),478451.7000000179,CFD-WF-037-016-A.jpg,1700,solid,I,z,1454,9,2,13212.5,465239.2000000179,8085,ATS,C,6
7,test,2,C,mfborder.png,1,z,Thu May 14 2026 09:40:45 GMT-0500 (Central Daylight Time),481017.60000002384,CFD-WF-013-009-HC.jpg,1700,dash,I,z,848,1,2,15778.40000000596,465239.2000000179,8085,ATS,C,7
8,test,2,C,haborder.png,1,m,Thu May 14 2026 09:40:45 GMT-0500 (Central Daylight Time),483117.0,CFD-WM-028-005-HC.jpg,1500,solid,I,m,578,11,2,17877.79999998212,465239.2000000179,8085,ATS,C,8
9,test,2,C,mfborder.png,1,z,Thu May 14 2026 09:40:45 GMT-0500 (Central Daylight Time),485749.60000002384,CFD-WF-023-013-A.jpg,1600,dash,I,z,1011,2,2,20510.40000000596,465239.2000000179,8085,ATS,C,9
10,test,2,C,mfborder.png,1,m,Thu May 14 2026 09:40:45 GMT-0500 (Central Daylight Time),488381.8000000119,CFD-BM-043-014-A.jpg,2000,dash,I,m,610,5,2,23142.59999999404,465239.2000000179,8085,ATS,C,10
11,test,2,C,mfborder.png,1,z,Thu May 14 2026 09:40:45 GMT-0500 (Central Daylight Time),490747.8000000119,CFD-BF-019-004-HC.jpg,1500,dash,I,z,846,3,2,25508.59999999404,465239.2000000179,8085,ATS,C,11
12,test,2,C,haborder.png,1,z,Thu May 14 2026 09:40:45 GMT-0500 (Central Daylight Time),492964.0,CFD-BF-031-020-A.jpg,1400,solid,I,z,788,7,2,27724.79999998212,465239.2000000179,8085,ATS,C,12
13,test,2,C,haborder.png,1,m,Thu May 14 2026 09:40:45 GMT-0500 (Central Daylight Time),495613.0,CFD-BM-022-004-HC.jpg,1600,solid,I,m,1028,10,2,30373.79999998212,465239.2000000179,8085,ATS,C,13
14,test,2,C,haborder.png,1,m,Thu May 14 2026 09:40:45 GMT-0500 (Central Daylight Time),497829.0,CFD-BM-022-004-HC.jpg,1600,solid,I,m,587,10,2,32589.79999998212,465239.2000000179,8085,ATS,C,14
15,test,2,C,haborder.png,1,z,Thu May 14 2026 09:40:45 GMT-0500 (Central Daylight Time),500544.8000000119,CFD-WF-037-016-A.jpg,1700,solid,I,z,991,9,2,35305.59999999404,465239.2000000179,8085,ATS,C,15
16,test,2,C,mfborder.png,1,m,Thu May 14 2026 09:40:45 GMT-0500 (Central Daylight Time),502510.8000000119,CFD-WM-036-018-A.jpg,1200,dash,I,m,735,6,2,37271.59999999404,465239.2000000179,8085,ATS,C,16
17,test,2,C,haborder.png,1,z,Thu May 14 2026 09:40:45 GMT-0500 (Central Daylight Time),505160.0,CFD-BF-002-018-A.jpg,1900,solid,I,z,717,8,2,39920.79999998212,465239.2000000179,8085,ATS,C,17
18,test,2,C,mfborder.png,1,z,Thu May 14 2026 09:40:45 GMT-0500 (Central Daylight Time),507759.5,CFD-WF-023-013-A.jpg,1600,dash,I,z,968,2,2,42520.29999998212,465239.2000000179,8085,ATS,C,18
19,test,2,C,haborder.png,1,z,Thu May 14 2026 09:40:45 GMT-0500 (Central Daylight Time),510691.60000002384,CFD-BF-002-018-A.jpg,1900,solid,I,z,1004,8,2,45452.40000000596,465239.2000000179,8085,ATS,C,19
20,test,2,C,haborder.png,1,z,Thu May 14 2026 09:40:45 GMT-0500 (Central Daylight Time),512857.5,CFD-BF-031-020-A.jpg,1400,solid,I,z,740,7,2,47618.29999998212,465239.2000000179,8085,ATS,C,20
21,test,2,C,haborder.png,1,m,Thu May 14 2026 09:40:45 GMT-0500 (Central Daylight Time),515006.90000000596,CFD-WM-028-005-HC.jpg,1500,solid,I,m,626,11,2,49767.69999998808,465239.2000000179,8085,ATS,C,21
21,test,2,C,mfborder.png,0,m,Thu May 14 2026 09:40:45 GMT-0500 (Central Daylight Time),518455.90000000596,CFD-BM-043-014-A.jpg,2000,dash,I,z,1425,5,2,53216.69999998808,465239.2000000179,8085,ATS,C,22
22,test,2,C,haborder.png,1,m,Thu May 14 2026 09:40:45 GMT-0500 (Central Daylight Time),520621.90000000596,CFD-WM-028-005-HC.jpg,1000,solid,I,m,1136,12,2,55382.69999998808,465239.2000000179,8085,ATS,C,23
23,test,2,C,mfborder.png,1,z,Thu May 14 2026 09:40:45 GMT-0500 (Central Daylight Time),523021.0,CFD-BF-019-004-HC.jpg,1500,dash,I,z,878,3,2,57781.79999998212,465239.2000000179,8085,ATS,C,24
1,test,3,C,mfborder.png,1,m,Thu May 14 2026 09:40:45 GMT-0500 (Central Daylight Time),527286.400000006,CFD-BM-022-004-HC.jpg,1200,dash,I,m,1002,6,2,2222.5999999940395,525063.8000000119,8085,ATS,C,1
2,test,3,C,haborder.png,1,m,Thu May 14 2026 09:40:45 GMT-0500 (Central Daylight Time),529835.5,CFD-BF-019-004-HC.jpg,1600,solid,I,m,929,10,2,4771.699999988079,525063.8000000119,8085,ATS,C,2
3,test,3,C,haborder.png,1,m,Thu May 14 2026 09:40:45 GMT-0500 (Central Daylight Time),532035.0,CFD-WF-001-010-HC.jpg,1500,solid,I,m,672,11,2,6971.199999988079,525063.8000000119,8085,ATS,C,3
4,test,3,C,mfborder.png,1,m,Thu May 14 2026 09:40:45 GMT-0500 (Central Daylight Time),534884.1000000238,CFD-WM-034-040-A.jpg,2000,dash,I,m,821,5,2,9820.300000011921,525063.8000000119,8085,ATS,C,4
5,test,3,C,mfborder.png,1,z,Thu May 14 2026 09:40:45 GMT-0500 (Central Daylight Time),537066.6000000238,CFD-WF-037-016-A.jpg,1500,dash,I,z,656,3,2,12002.800000011921,525063.8000000119,8085,ATS,C,5
6,test,3,C,haborder.png,1,m,Thu May 14 2026 09:40:45 GMT-0500 (Central Daylight Time),539166.0,CFD-WF-001-010-HC.jpg,1500,solid,I,m,577,11,2,14102.199999988079,525063.8000000119,8085,ATS,C,6
7,test,3,C,haborder.png,1,z,Thu May 14 2026 09:40:45 GMT-0500 (Central Daylight Time),541265.3000000119,CFD-WM-036-018-A.jpg,1400,solid,I,z,674,7,2,16201.5,525063.8000000119,8085,ATS,C,7
7,test,3,C,haborder.png,0,z,Thu May 14 2026 09:40:45 GMT-0500 (Central Daylight Time),544330.900000006,CFD-BM-043-014-A.jpg,1900,solid,I,m,1138,8,2,19267.09999999404,525063.8000000119,8085,ATS,C,8
7,test,3,C,mfborder.png,0,m,Thu May 14 2026 09:40:45 GMT-0500 (Central Daylight Time),546863.7000000179,CFD-WM-035-036-HC.jpg,1000,dash,I,None,1516,4,2,21799.90000000596,525063.8000000119,8085,ATS,C,9
8,test,3,C,mfborder.png,1,m,Thu May 14 2026 09:40:45 GMT-0500 (Central Daylight Time),549362.7000000179,CFD-WM-034-040-A.jpg,2000,dash,I,m,480,5,2,24298.90000000596,525063.8000000119,8085,ATS,C,10
9,test,3,C,haborder.png,1,m,Thu May 14 2026 09:40:45 GMT-0500 (Central Daylight Time),551395.5,CFD-WF-013-009-HC.jpg,1000,solid,I,m,1013,12,2,26331.69999998808,525063.8000000119,8085,ATS,C,11
10,test,3,C,haborder.png,1,z,Thu May 14 2026 09:40:45 GMT-0500 (Central Daylight Time),553711.400000006,CFD-BM-021-026-A.jpg,1700,solid,I,z,592,9,2,28647.59999999404,525063.8000000119,8085,ATS,C,12
11,test,3,C,haborder.png,1,m,Thu May 14 2026 09:40:45 GMT-0500 (Central Daylight Time),555327.8000000119,CFD-WF-013-009-HC.jpg,1000,solid,I,m,584,12,2,30264.0,525063.8000000119,8085,ATS,C,13
12,test,3,C,mfborder.png,1,m,Thu May 14 2026 09:40:45 GMT-0500 (Central Daylight Time),557560.400000006,CFD-BM-022-004-HC.jpg,1200,dash,I,m,1016,6,2,32496.59999999404,525063.8000000119,8085,ATS,C,14
13,test,3,C,haborder.png,1,m,Thu May 14 2026 09:40:45 GMT-0500 (Central Daylight Time),559892.8000000119,CFD-BF-019-004-HC.jpg,1600,solid,I,m,711,10,2,34829.0,525063.8000000119,8085,ATS,C,15
13,test,3,C,haborder.png,0,z,Thu May 14 2026 09:40:45 GMT-0500 (Central Daylight Time),562608.5,CFD-BM-043-014-A.jpg,1900,solid,I,m,783,8,2,37544.69999998808,525063.8000000119,8085,ATS,C,16
14,test,3,C,mfborder.png,1,z,Thu May 14 2026 09:40:45 GMT-0500 (Central Daylight Time),565574.3000000119,CFD-WF-037-016-A.jpg,1500,dash,I,z,1435,3,2,40510.5,525063.8000000119,8085,ATS,C,17
15,test,3,C,haborder.png,1,z,Thu May 14 2026 09:40:45 GMT-0500 (Central Daylight Time),568773.400000006,CFD-BM-021-026-A.jpg,1700,solid,I,z,1469,9,2,43709.59999999404,525063.8000000119,8085,ATS,C,18
16,test,3,C,mfborder.png,1,z,Thu May 14 2026 09:40:45 GMT-0500 (Central Daylight Time),571372.6000000238,CFD-BF-042-031-HC.jpg,1700,dash,I,z,878,1,2,46308.80000001192,525063.8000000119,8085,ATS,C,19
17,test,3,C,mfborder.png,1,z,Thu May 14 2026 09:40:45 GMT-0500 (Central Daylight Time),573605.1000000238,CFD-BF-031-020-A.jpg,1600,dash,I,z,611,2,2,48541.30000001192,525063.8000000119,8085,ATS,C,20
18,test,3,C,mfborder.png,1,z,Thu May 14 2026 09:40:45 GMT-0500 (Central Daylight Time),575887.8000000119,CFD-BF-031-020-A.jpg,1600,dash,I,z,650,2,2,50824.0,525063.8000000119,8085,ATS,C,21
19,test,3,C,mfborder.png,1,z,Thu May 14 2026 09:40:45 GMT-0500 (Central Daylight Time),578353.6000000238,CFD-BF-042-031-HC.jpg,1700,dash,I,z,740,1,2,53289.80000001192,525063.8000000119,8085,ATS,C,22
20,test,3,C,mfborder.png,1,m,Thu May 14 2026 09:40:45 GMT-0500 (Central Daylight Time),580336.5,CFD-WM-035-036-HC.jpg,1000,dash,I,m,966,4,2,55272.69999998808,525063.8000000119,8085,ATS,C,23
21,test,3,C,haborder.png,1,z,Thu May 14 2026 09:40:45 GMT-0500 (Central Daylight Time),582468.900000006,CFD-WM-036-018-A.jpg,1400,solid,I,z,703,7,2,57405.09999999404,525063.8000000119,8085,ATS,C,24
1,test,4,C,haborder.png,1,m,Thu May 14 2026 09:40:45 GMT-0500 (Central Daylight Time),585584.900000006,CFD-WM-028-005-HC.jpg,1000,solid,I,m,665,12,2,1682.7999999821186,583902.1000000238,8085,ATS,C,1
2,test,4,C,mfborder.png,1,z,Thu May 14 2026 09:40:45 GMT-0500 (Central Daylight Time),588017.3000000119,CFD-BF-019-004-HC.jpg,1500,dash,I,z,907,3,2,4115.199999988079,583902.1000000238,8085,ATS,C,2
3,test,4,C,haborder.png,1,m,Thu May 14 2026 09:40:45 GMT-0500 (Central Daylight Time),590250.0,CFD-BM-022-004-HC.jpg,1600,solid,I,m,614,10,2,6347.899999976158,583902.1000000238,8085,ATS,C,3
4,test,4,C,mfborder.png,1,z,Thu May 14 2026 09:40:45 GMT-0500 (Central Daylight Time),592432.8000000119,CFD-BF-019-004-HC.jpg,1500,dash,I,z,658,3,2,8530.699999988079,583902.1000000238,8085,ATS,C,4
4,test,4,C,mfborder.png,0,m,Thu May 14 2026 09:40:45 GMT-0500 (Central Daylight Time),594132.6000000238,CFD-BM-034-035-HC.jpg,1000,dash,I,z,679,4,2,10230.5,583902.1000000238,8085,ATS,C,5
5,test,4,C,mfborder.png,1,m,Thu May 14 2026 09:40:45 GMT-0500 (Central Daylight Time),596964.6000000238,CFD-BM-043-014-A.jpg,2000,dash,I,m,812,5,2,13062.5,583902.1000000238,8085,ATS,C,6
6,test,4,C,mfborder.png,1,m,Thu May 14 2026 09:40:45 GMT-0500 (Central Daylight Time),598930.6000000238,CFD-WM-036-018-A.jpg,1200,dash,I,m,739,6,2,15028.5,583902.1000000238,8085,ATS,C,7
7,test,4,C,haborder.png,1,m,Thu May 14 2026 09:40:45 GMT-0500 (Central Daylight Time),601046.5,CFD-WM-028-005-HC.jpg,1500,solid,I,m,593,11,2,17144.399999976158,583902.1000000238,8085,ATS,C,8
8,test,4,C,mfborder.png,1,z,Thu May 14 2026 09:40:45 GMT-0500 (Central Daylight Time),603662.5,CFD-WF-013-009-HC.jpg,1700,dash,I,z,885,1,2,19760.399999976158,583902.1000000238,8085,ATS,C,9
9,test,4,C,haborder.png,1,z,Thu May 14 2026 09:40:45 GMT-0500 (Central Daylight Time),606278.3000000119,CFD-WF-037-016-A.jpg,1700,solid,I,z,893,9,2,22376.19999998808,583902.1000000238,8085,ATS,C,10
10,test,4,C,haborder.png,1,z,Thu May 14 2026 09:40:45 GMT-0500 (Central Daylight Time),608644.2000000179,CFD-BF-031-020-A.jpg,1400,solid,I,z,937,7,2,24742.09999999404,583902.1000000238,8085,ATS,C,11
11,test,4,C,mfborder.png,1,z,Thu May 14 2026 09:40:45 GMT-0500 (Central Daylight Time),611326.7000000179,CFD-WF-013-009-HC.jpg,1700,dash,I,z,959,1,2,27424.59999999404,583902.1000000238,8085,ATS,C,12
12,test,4,C,mfborder.png,1,m,Thu May 14 2026 09:40:45 GMT-0500 (Central Daylight Time),614326.400000006,CFD-BM-043-014-A.jpg,2000,dash,I,m,977,5,2,30424.29999998212,583902.1000000238,8085,ATS,C,13
13,test,4,C,mfborder.png,1,z,Thu May 14 2026 09:40:45 GMT-0500 (Central Daylight Time),616891.6000000238,CFD-WF-023-013-A.jpg,1600,dash,I,z,946,2,2,32989.5,583902.1000000238,8085,ATS,C,14
14,test,4,C,haborder.png,1,m,Thu May 14 2026 09:40:45 GMT-0500 (Central Daylight Time),618974.2000000179,CFD-WM-028-005-HC.jpg,1500,solid,I,m,552,11,2,35072.09999999404,583902.1000000238,8085,ATS,C,15
15,test,4,C,haborder.png,1,z,Thu May 14 2026 09:40:45 GMT-0500 (Central Daylight Time),621523.5,CFD-BF-002-018-A.jpg,1900,solid,I,z,621,8,2,37621.39999997616,583902.1000000238,8085,ATS,C,16
15,test,4,C,haborder.png,0,z,Thu May 14 2026 09:40:45 GMT-0500 (Central Daylight Time),624755.8000000119,CFD-WF-037-016-A.jpg,1700,solid,I,None,1516,9,2,40853.69999998808,583902.1000000238,8085,ATS,C,17
16,test,4,C,haborder.png,1,m,Thu May 14 2026 09:40:45 GMT-0500 (Central Daylight Time),626988.5,CFD-BM-022-004-HC.jpg,1600,solid,I,m,612,10,2,43086.39999997616,583902.1000000238,8085,ATS,C,18
17,test,4,C,haborder.png,1,z,Thu May 14 2026 09:40:45 GMT-0500 (Central Daylight Time),629504.3000000119,CFD-BF-002-018-A.jpg,1900,solid,I,z,591,8,2,45602.19999998808,583902.1000000238,8085,ATS,C,19
18,test,4,C,haborder.png,1,z,Thu May 14 2026 09:40:45 GMT-0500 (Central Daylight Time),631537.3000000119,CFD-BF-031-020-A.jpg,1400,solid,I,z,615,7,2,47635.19999998808,583902.1000000238,8085,ATS,C,20
19,test,4,C,mfborder.png,1,z,Thu May 14 2026 09:40:45 GMT-0500 (Central Daylight Time),633819.6000000238,CFD-WF-023-013-A.jpg,1600,dash,I,z,654,2,2,49917.5,583902.1000000238,8085,ATS,C,21
20,test,4,C,mfborder.png,1,m,Thu May 14 2026 09:40:45 GMT-0500 (Central Daylight Time),635452.400000006,CFD-BM-034-035-HC.jpg,1000,dash,I,m,612,4,2,51550.29999998212,583902.1000000238,8085,ATS,C,22
20,test,4,C,mfborder.png,0,m,Thu May 14 2026 09:40:45 GMT-0500 (Central Daylight Time),637352.0,CFD-WM-036-018-A.jpg,1200,dash,I,z,667,6,2,53449.89999997616,583902.1000000238,8085,ATS,C,23
21,test,4,C,haborder.png,1,m,Thu May 14 2026 09:40:45 GMT-0500 (Central Daylight Time),638951.400000006,CFD-WM-028-005-HC.jpg,1000,solid,I,m,576,12,2,55049.29999998212,583902.1000000238,8085,ATS,C,24
