block_c,block_dur,condition,countdown,datetime,endtime,list,multichar_response,project,response,response_time,session_number,start_end,starttime,subject_id,task,task_vers,trial
,,,,Thu Feb 26 2026 12:22:42 GMT-0600 (Central Standard Time),,,,O,space,882,1,,,7767,WL,B,
prac,,0,,Thu Feb 26 2026 12:22:42 GMT-0600 (Central Standard Time),,NA,b,O,b,5835,1,,,7767,WL,B,1.0
prac,,0,,Thu Feb 26 2026 12:22:42 GMT-0600 (Central Standard Time),,NA,bo,O,o,250,1,,,7767,WL,B,1.0
prac,,0,,Thu Feb 26 2026 12:22:42 GMT-0600 (Central Standard Time),,NA,boo,O,o,137,1,,,7767,WL,B,1.0
prac,,0,,Thu Feb 26 2026 12:22:42 GMT-0600 (Central Standard Time),,NA,boos,O,s,418,1,,,7767,WL,B,1.0
prac,,0,,Thu Feb 26 2026 12:22:42 GMT-0600 (Central Standard Time),,NA,boost,O,t,297,1,,,7767,WL,B,1.0
prac,,0,,Thu Feb 26 2026 12:22:42 GMT-0600 (Central Standard Time),,NA,boostenter,O,enter,1695,1,,,7767,WL,B,1.0
1,5.465000152587891,learn,54534.99984741211,Thu Feb 26 2026 12:22:42 GMT-0600 (Central Standard Time),158920.09999999404,A,f,O,f,5446,1,5465.399999976158,153454.70000001788,7767,WL,B,1.0
1,6.551000118255615,learn,53448.999881744385,Thu Feb 26 2026 12:22:42 GMT-0600 (Central Standard Time),160005.40000000596,A,fi,O,i,1069,1,6550.699999988079,153454.70000001788,7767,WL,B,1.0
1,6.7829999923706055,learn,53217.000007629395,Thu Feb 26 2026 12:22:42 GMT-0600 (Central Standard Time),160238.30000001192,A,fir,O,r,225,1,6783.5999999940395,153454.70000001788,7767,WL,B,1.0
1,6.950000047683716,learn,53049.999952316284,Thu Feb 26 2026 12:22:42 GMT-0600 (Central Standard Time),160405.09999999404,A,fire,O,e,146,1,6950.399999976158,153454.70000001788,7767,WL,B,1.0
1,10.38100004196167,learn,49618.99995803833,Thu Feb 26 2026 12:22:42 GMT-0600 (Central Standard Time),163836.09999999404,A,fireenter,O,enter,3424,1,10381.399999976158,153454.70000001788,7767,WL,B,1.0
1,11.565000057220459,learn,48434.99994277954,Thu Feb 26 2026 12:22:42 GMT-0600 (Central Standard Time),165019.5,A,c,O,c,1176,1,1183.0,163836.5,7767,WL,B,2.0
1,11.680000066757202,learn,48319.9999332428,Thu Feb 26 2026 12:22:42 GMT-0600 (Central Standard Time),165134.40000000596,A,cl,O,l,103,1,1297.9000000059605,163836.5,7767,WL,B,2.0
1,11.913000106811523,learn,48086.99989318848,Thu Feb 26 2026 12:22:42 GMT-0600 (Central Standard Time),165368.0,A,clo,O,o,215,1,1531.5,163836.5,7767,WL,B,2.0
1,12.164000034332275,learn,47835.999965667725,Thu Feb 26 2026 12:22:42 GMT-0600 (Central Standard Time),165618.59999999404,A,cloc,O,c,237,1,1782.0999999940395,163836.5,7767,WL,B,2.0
1,12.29800009727478,learn,47701.99990272522,Thu Feb 26 2026 12:22:42 GMT-0600 (Central Standard Time),165752.70000001788,A,clock,O,k,123,1,1916.2000000178814,163836.5,7767,WL,B,2.0
1,13.947999954223633,learn,46052.00004577637,Thu Feb 26 2026 12:22:42 GMT-0600 (Central Standard Time),167403.0,A,clockenter,O,enter,1644,1,3566.5,163836.5,7767,WL,B,2.0
1,14.79800009727478,learn,45201.99990272522,Thu Feb 26 2026 12:22:42 GMT-0600 (Central Standard Time),168252.40000000596,A,c,O,c,833,1,849.0,167403.40000000596,7767,WL,B,3.0
1,14.911999940872192,learn,45088.00005912781,Thu Feb 26 2026 12:22:42 GMT-0600 (Central Standard Time),168367.0,A,ca,O,a,97,1,963.5999999940395,167403.40000000596,7767,WL,B,3.0
1,15.24399995803833,learn,44756.00004196167,Thu Feb 26 2026 12:22:42 GMT-0600 (Central Standard Time),168699.0,A,cab,O,b,325,1,1295.5999999940395,167403.40000000596,7767,WL,B,3.0
1,16.261000156402588,learn,43738.99984359741,Thu Feb 26 2026 12:22:42 GMT-0600 (Central Standard Time),169716.20000001788,A,ca,O,backspace,1009,1,2312.800000011921,167403.40000000596,7767,WL,B,3.0
1,17.59599995613098,learn,42404.00004386902,Thu Feb 26 2026 12:22:42 GMT-0600 (Central Standard Time),171051.09999999404,A,cab,O,b,1321,1,3647.699999988079,167403.40000000596,7767,WL,B,3.0
1,17.89400005340576,learn,42105.99994659424,Thu Feb 26 2026 12:22:42 GMT-0600 (Central Standard Time),171349.09999999404,A,cabi,O,i,290,1,3945.699999988079,167403.40000000596,7767,WL,B,3.0
1,18.09500002861023,learn,41904.99997138977,Thu Feb 26 2026 12:22:42 GMT-0600 (Central Standard Time),171549.5,A,cabin,O,n,194,1,4146.0999999940395,167403.40000000596,7767,WL,B,3.0
1,19.646000146865845,learn,40353.999853134155,Thu Feb 26 2026 12:22:42 GMT-0600 (Central Standard Time),173100.40000000596,A,cabinenter,O,enter,1537,1,5697.0,167403.40000000596,7767,WL,B,3.0
1,20.526999950408936,learn,39473.000049591064,Thu Feb 26 2026 12:22:42 GMT-0600 (Central Standard Time),173982.30000001192,A,l,O,l,873,1,881.5,173100.80000001192,7767,WL,B,4.0
1,20.67799997329712,learn,39322.00002670288,Thu Feb 26 2026 12:22:42 GMT-0600 (Central Standard Time),174133.20000001788,A,la,O,a,134,1,1032.4000000059605,173100.80000001192,7767,WL,B,4.0
1,20.89400005340576,learn,39105.99994659424,Thu Feb 26 2026 12:22:42 GMT-0600 (Central Standard Time),174348.70000001788,A,lak,O,k,199,1,1247.9000000059605,173100.80000001192,7767,WL,B,4.0
1,21.011000156402588,learn,38988.99984359741,Thu Feb 26 2026 12:22:42 GMT-0600 (Central Standard Time),174466.20000001788,A,lake,O,e,114,1,1365.4000000059605,173100.80000001192,7767,WL,B,4.0
1,22.97699999809265,learn,37023.00000190735,Thu Feb 26 2026 12:22:42 GMT-0600 (Central Standard Time),176431.59999999404,A,lakeenter,O,enter,1954,1,3330.7999999821186,173100.80000001192,7767,WL,B,4.0
1,26.443000078201294,learn,33556.999921798706,Thu Feb 26 2026 12:22:42 GMT-0600 (Central Standard Time),179897.59999999404,A,w,O,w,3454,1,3465.7999999821186,176431.80000001192,7767,WL,B,5.0
1,26.54200005531311,learn,33457.99994468689,Thu Feb 26 2026 12:22:42 GMT-0600 (Central Standard Time),179997.09999999404,A,wi,O,i,91,1,3565.2999999821186,176431.80000001192,7767,WL,B,5.0
1,26.64199995994568,learn,33358.00004005432,Thu Feb 26 2026 12:22:42 GMT-0600 (Central Standard Time),180096.70000001788,A,win,O,n,86,1,3664.9000000059605,176431.80000001192,7767,WL,B,5.0
1,26.84500002861023,learn,33154.99997138977,Thu Feb 26 2026 12:22:42 GMT-0600 (Central Standard Time),180299.59999999404,A,wind,O,d,179,1,3867.7999999821186,176431.80000001192,7767,WL,B,5.0
1,27.044000148773193,learn,32955.99985122681,Thu Feb 26 2026 12:22:42 GMT-0600 (Central Standard Time),180498.5,A,windo,O,o,191,1,4066.699999988079,176431.80000001192,7767,WL,B,5.0
1,28.2739999294281,learn,31726.0000705719,Thu Feb 26 2026 12:22:42 GMT-0600 (Central Standard Time),181729.30000001192,A,window,O,w,1227,1,5297.5,176431.80000001192,7767,WL,B,5.0
1,28.973999977111816,learn,31026.000022888184,Thu Feb 26 2026 12:22:42 GMT-0600 (Central Standard Time),182428.90000000596,A,windowenter,O,enter,693,1,5997.0999999940395,176431.80000001192,7767,WL,B,5.0
1,29.674999952316284,learn,30325.000047683716,Thu Feb 26 2026 12:22:42 GMT-0600 (Central Standard Time),183129.40000000596,A,s,O,s,679,1,700.1999999880791,182429.20000001788,7767,WL,B,6.0
1,29.841000080108643,learn,30158.999919891357,Thu Feb 26 2026 12:22:42 GMT-0600 (Central Standard Time),183295.70000001788,A,sk,O,k,156,1,866.5,182429.20000001788,7767,WL,B,6.0
1,30.04100012779236,learn,29958.99987220764,Thu Feb 26 2026 12:22:42 GMT-0600 (Central Standard Time),183496.30000001192,A,ski,O,i,180,1,1067.0999999940395,182429.20000001788,7767,WL,B,6.0
1,30.207000017166138,learn,29792.999982833862,Thu Feb 26 2026 12:22:42 GMT-0600 (Central Standard Time),183662.30000001192,A,skin,O,n,149,1,1233.0999999940395,182429.20000001788,7767,WL,B,6.0
1,31.555000066757202,learn,28444.999933242798,Thu Feb 26 2026 12:22:42 GMT-0600 (Central Standard Time),185010.30000001192,A,skinenter,O,enter,1342,1,2581.0999999940395,182429.20000001788,7767,WL,B,6.0
1,32.42400002479553,learn,27575.999975204468,Thu Feb 26 2026 12:22:42 GMT-0600 (Central Standard Time),185878.80000001192,A,p,O,p,850,1,868.2000000178814,185010.59999999404,7767,WL,B,7.0
1,32.723000049591064,learn,27276.999950408936,Thu Feb 26 2026 12:22:42 GMT-0600 (Central Standard Time),186178.20000001788,A,pi,O,i,284,1,1167.6000000238419,185010.59999999404,7767,WL,B,7.0
1,32.95700001716614,learn,27042.999982833862,Thu Feb 26 2026 12:22:42 GMT-0600 (Central Standard Time),186411.59999999404,A,pip,O,p,217,1,1401.0,185010.59999999404,7767,WL,B,7.0
1,33.206000089645386,learn,26793.999910354614,Thu Feb 26 2026 12:22:42 GMT-0600 (Central Standard Time),186661.20000001788,A,pipe,O,e,234,1,1650.6000000238419,185010.59999999404,7767,WL,B,7.0
1,33.90700006484985,learn,26092.999935150146,Thu Feb 26 2026 12:22:42 GMT-0600 (Central Standard Time),187362.20000001788,A,pipeenter,O,enter,688,1,2351.600000023842,185010.59999999404,7767,WL,B,7.0
1,38.27300000190735,learn,21726.99999809265,Thu Feb 26 2026 12:22:42 GMT-0600 (Central Standard Time),191727.5,A,w,O,w,4346,1,4365.0999999940395,187362.40000000596,7767,WL,B,8.0
1,38.37100005149841,learn,21628.999948501587,Thu Feb 26 2026 12:22:42 GMT-0600 (Central Standard Time),191826.09999999404,A,wi,O,i,86,1,4463.699999988079,187362.40000000596,7767,WL,B,8.0
1,38.58800005912781,learn,21411.999940872192,Thu Feb 26 2026 12:22:42 GMT-0600 (Central Standard Time),192043.30000001192,A,wif,O,f,202,1,4680.9000000059605,187362.40000000596,7767,WL,B,8.0
1,38.87000012397766,learn,21129.99987602234,Thu Feb 26 2026 12:22:42 GMT-0600 (Central Standard Time),192325.30000001192,A,wife,O,e,274,1,4962.9000000059605,187362.40000000596,7767,WL,B,8.0
1,40.121999979019165,learn,19878.000020980835,Thu Feb 26 2026 12:22:42 GMT-0600 (Central Standard Time),193576.90000000596,A,wifeenter,O,enter,1240,1,6214.5,187362.40000000596,7767,WL,B,8.0
1,54.88300013542175,learn,5116.999864578247,Thu Feb 26 2026 12:22:42 GMT-0600 (Central Standard Time),208337.59999999404,A,b,O,b,14749,1,14760.399999976158,193577.20000001788,7767,WL,B,9.0
1,55.15000009536743,learn,4849.999904632568,Thu Feb 26 2026 12:22:42 GMT-0600 (Central Standard Time),208605.30000001192,A,bo,O,o,258,1,15028.09999999404,193577.20000001788,7767,WL,B,9.0
1,55.282999992370605,learn,4717.0000076293945,Thu Feb 26 2026 12:22:42 GMT-0600 (Central Standard Time),208738.40000000596,A,boo,O,o,126,1,15161.199999988079,193577.20000001788,7767,WL,B,9.0
1,55.54900002479553,learn,4450.999975204468,Thu Feb 26 2026 12:22:42 GMT-0600 (Central Standard Time),209004.0,A,boos,O,s,248,1,15426.799999982119,193577.20000001788,7767,WL,B,9.0
1,55.73300004005432,learn,4266.999959945679,Thu Feb 26 2026 12:22:42 GMT-0600 (Central Standard Time),209187.90000000596,A,boost,O,t,166,1,15610.699999988079,193577.20000001788,7767,WL,B,9.0
1,58.29800009727478,learn,1701.9999027252197,Thu Feb 26 2026 12:22:42 GMT-0600 (Central Standard Time),211753.0,A,boostenter,O,enter,2551,1,18175.79999998212,193577.20000001788,7767,WL,B,9.0
1,59.04699993133545,learn,953.0000686645508,Thu Feb 26 2026 12:22:42 GMT-0600 (Central Standard Time),212502.30000001192,A,g,O,g,741,1,749.0,211753.30000001192,7767,WL,B,10.0
1,59.248000144958496,learn,751.9998550415039,Thu Feb 26 2026 12:22:42 GMT-0600 (Central Standard Time),212702.59999999404,A,gr,O,r,190,1,949.2999999821186,211753.30000001192,7767,WL,B,10.0
1,59.41499996185303,learn,585.0000381469727,Thu Feb 26 2026 12:22:42 GMT-0600 (Central Standard Time),212869.5,A,gra,O,a,149,1,1116.199999988079,211753.30000001192,7767,WL,B,10.0
1,59.765000104904175,learn,234.9998950958252,Thu Feb 26 2026 12:22:42 GMT-0600 (Central Standard Time),213220.40000000596,A,gras,O,s,344,1,1467.0999999940395,211753.30000001192,7767,WL,B,10.0
1,59.932000160217285,learn,67.99983978271484,Thu Feb 26 2026 12:22:42 GMT-0600 (Central Standard Time),213386.5,A,grass,O,s,159,1,1633.199999988079,211753.30000001192,7767,WL,B,10.0
1,60.015000104904175,learn,-15.000104904174805,Thu Feb 26 2026 12:22:42 GMT-0600 (Central Standard Time),213469.5,A,grassNone,O,None,77,1,1716.199999988079,211753.30000001192,7767,WL,B,10.0
2,3.5490000247955322,learn,56450.99997520447,Thu Feb 26 2026 12:22:42 GMT-0600 (Central Standard Time),304740.90000000596,A,s,O,s,3534,1,3549.0999999940395,301191.8000000119,7767,WL,B,1.0
2,4.449000120162964,learn,55550.999879837036,Thu Feb 26 2026 12:22:42 GMT-0600 (Central Standard Time),305641.2000000179,A,st,O,t,892,1,4449.4000000059605,301191.8000000119,7767,WL,B,1.0
2,4.732000112533569,learn,55267.99988746643,Thu Feb 26 2026 12:22:42 GMT-0600 (Central Standard Time),305923.7000000179,A,str,O,r,268,1,4731.9000000059605,301191.8000000119,7767,WL,B,1.0
2,5.031000137329102,learn,54968.9998626709,Thu Feb 26 2026 12:22:42 GMT-0600 (Central Standard Time),306223.2000000179,A,stre,O,e,290,1,5031.4000000059605,301191.8000000119,7767,WL,B,1.0
2,5.182000160217285,learn,54817.999839782715,Thu Feb 26 2026 12:22:42 GMT-0600 (Central Standard Time),306374.40000000596,A,stree,O,e,134,1,5182.5999999940395,301191.8000000119,7767,WL,B,1.0
2,5.397000074386597,learn,54602.9999256134,Thu Feb 26 2026 12:22:42 GMT-0600 (Central Standard Time),306589.3000000119,A,street,O,t,204,1,5397.5,301191.8000000119,7767,WL,B,1.0
2,6.449000120162964,learn,53550.999879837036,Thu Feb 26 2026 12:22:42 GMT-0600 (Central Standard Time),307641.0,A,streetenter,O,enter,1032,1,6449.199999988079,301191.8000000119,7767,WL,B,1.0
2,6.998000144958496,learn,53001.999855041504,Thu Feb 26 2026 12:22:42 GMT-0600 (Central Standard Time),308189.90000000596,A,g,O,g,531,1,548.5999999940395,307641.3000000119,7767,WL,B,2.0
2,7.248000144958496,learn,52751.999855041504,Thu Feb 26 2026 12:22:42 GMT-0600 (Central Standard Time),308439.7000000179,A,gr,O,r,231,1,798.4000000059605,307641.3000000119,7767,WL,B,2.0
2,7.499000072479248,learn,52500.99992752075,Thu Feb 26 2026 12:22:42 GMT-0600 (Central Standard Time),308690.8000000119,A,gra,O,a,245,1,1049.5,307641.3000000119,7767,WL,B,2.0
2,7.8470001220703125,learn,52152.99987792969,Thu Feb 26 2026 12:22:42 GMT-0600 (Central Standard Time),309038.90000000596,A,gras,O,s,328,1,1397.5999999940395,307641.3000000119,7767,WL,B,2.0
2,7.996999979019165,learn,52003.000020980835,Thu Feb 26 2026 12:22:42 GMT-0600 (Central Standard Time),309189.40000000596,A,grass,O,s,135,1,1548.0999999940395,307641.3000000119,7767,WL,B,2.0
2,10.128999948501587,learn,49871.00005149841,Thu Feb 26 2026 12:22:42 GMT-0600 (Central Standard Time),311321.40000000596,A,grassenter,O,enter,2111,1,3680.0999999940395,307641.3000000119,7767,WL,B,2.0
2,10.779000043869019,learn,49220.99995613098,Thu Feb 26 2026 12:22:42 GMT-0600 (Central Standard Time),311971.40000000596,A,d,O,d,636,1,649.8000000119209,311321.59999999404,7767,WL,B,3.0
2,11.097000122070312,learn,48902.99987792969,Thu Feb 26 2026 12:22:42 GMT-0600 (Central Standard Time),312288.59999999404,A,do,O,o,297,1,967.0,311321.59999999404,7767,WL,B,3.0
2,11.36300015449524,learn,48636.99984550476,Thu Feb 26 2026 12:22:42 GMT-0600 (Central Standard Time),312555.3000000119,A,doo,O,o,262,1,1233.7000000178814,311321.59999999404,7767,WL,B,3.0
2,11.67900013923645,learn,48320.99986076355,Thu Feb 26 2026 12:22:42 GMT-0600 (Central Standard Time),312871.0,A,door,O,r,296,1,1549.4000000059605,311321.59999999404,7767,WL,B,3.0
2,12.67900013923645,learn,47320.99986076355,Thu Feb 26 2026 12:22:42 GMT-0600 (Central Standard Time),313871.0,A,doorenter,O,enter,981,1,2549.4000000059605,311321.59999999404,7767,WL,B,3.0
2,13.896000146865845,learn,46103.999853134155,Thu Feb 26 2026 12:22:42 GMT-0600 (Central Standard Time),315088.0,A,c,O,c,1196,1,1216.7999999821186,313871.2000000179,7767,WL,B,4.0
2,14.01200008392334,learn,45987.99991607666,Thu Feb 26 2026 12:22:42 GMT-0600 (Central Standard Time),315204.40000000596,A,ci,O,i,94,1,1333.199999988079,313871.2000000179,7767,WL,B,4.0
2,14.24399995803833,learn,45756.00004196167,Thu Feb 26 2026 12:22:42 GMT-0600 (Central Standard Time),315436.40000000596,A,cit,O,t,222,1,1565.199999988079,313871.2000000179,7767,WL,B,4.0
2,14.378999948501587,learn,45621.00005149841,Thu Feb 26 2026 12:22:42 GMT-0600 (Central Standard Time),315570.59999999404,A,city,O,y,121,1,1699.3999999761581,313871.2000000179,7767,WL,B,4.0
2,15.677000045776367,learn,44322.99995422363,Thu Feb 26 2026 12:22:42 GMT-0600 (Central Standard Time),316869.3000000119,A,cityenter,O,enter,1280,1,2998.0999999940395,313871.2000000179,7767,WL,B,4.0
2,16.710999965667725,learn,43289.000034332275,Thu Feb 26 2026 12:22:42 GMT-0600 (Central Standard Time),317902.8000000119,A,w,O,w,1024,1,1033.2000000178814,316869.59999999404,7767,WL,B,5.0
2,16.861999988555908,learn,43138.00001144409,Thu Feb 26 2026 12:22:42 GMT-0600 (Central Standard Time),318053.8000000119,A,wi,O,i,142,1,1184.2000000178814,316869.59999999404,7767,WL,B,5.0
2,17.17799997329712,learn,42822.00002670288,Thu Feb 26 2026 12:22:42 GMT-0600 (Central Standard Time),318370.2000000179,A,wif,O,f,308,1,1500.6000000238419,316869.59999999404,7767,WL,B,5.0
2,17.45900011062622,learn,42540.99988937378,Thu Feb 26 2026 12:22:42 GMT-0600 (Central Standard Time),318651.2000000179,A,wife,O,e,274,1,1781.6000000238419,316869.59999999404,7767,WL,B,5.0
2,18.443000078201294,learn,41556.999921798706,Thu Feb 26 2026 12:22:42 GMT-0600 (Central Standard Time),319635.0,A,wifeenter,O,enter,981,1,2765.4000000059605,316869.59999999404,7767,WL,B,5.0
2,18.978000164031982,learn,41021.99983596802,Thu Feb 26 2026 12:22:42 GMT-0600 (Central Standard Time),320170.09999999404,A,p,O,p,530,1,534.6999999880791,319635.40000000596,7767,WL,B,6.0
2,19.24399995803833,learn,40756.00004196167,Thu Feb 26 2026 12:22:42 GMT-0600 (Central Standard Time),320435.7000000179,A,pu,O,u,259,1,800.3000000119209,319635.40000000596,7767,WL,B,6.0
2,19.509999990463257,learn,40490.00000953674,Thu Feb 26 2026 12:22:42 GMT-0600 (Central Standard Time),320702.2000000179,A,pup,O,p,257,1,1066.800000011921,319635.40000000596,7767,WL,B,6.0
2,19.778000116348267,learn,40221.99988365173,Thu Feb 26 2026 12:22:42 GMT-0600 (Central Standard Time),320970.2000000179,A,pupi,O,i,254,1,1334.800000011921,319635.40000000596,7767,WL,B,6.0
2,20.110000133514404,learn,39889.999866485596,Thu Feb 26 2026 12:22:42 GMT-0600 (Central Standard Time),321302.09999999404,A,pupil,O,l,323,1,1666.699999988079,319635.40000000596,7767,WL,B,6.0
2,21.509000062942505,learn,38490.999937057495,Thu Feb 26 2026 12:22:42 GMT-0600 (Central Standard Time),322700.90000000596,A,pupilenter,O,enter,1392,1,3065.5,319635.40000000596,7767,WL,B,6.0
2,22.77500009536743,learn,37224.99990463257,Thu Feb 26 2026 12:22:42 GMT-0600 (Central Standard Time),323967.5,A,a,O,a,1247,1,1266.4000000059605,322701.09999999404,7767,WL,B,7.0
2,23.009999990463257,learn,36990.00000953674,Thu Feb 26 2026 12:22:42 GMT-0600 (Central Standard Time),324201.8000000119,A,ar,O,r,212,1,1500.7000000178814,322701.09999999404,7767,WL,B,7.0
2,23.360000133514404,learn,36639.999866485596,Thu Feb 26 2026 12:22:42 GMT-0600 (Central Standard Time),324551.59999999404,A,arm,O,m,330,1,1850.5,322701.09999999404,7767,WL,B,7.0
2,24.725000143051147,learn,35274.99985694885,Thu Feb 26 2026 12:22:42 GMT-0600 (Central Standard Time),325917.40000000596,A,armenter,O,enter,1356,1,3216.300000011921,322701.09999999404,7767,WL,B,7.0
2,25.20900011062622,learn,34790.99988937378,Thu Feb 26 2026 12:22:42 GMT-0600 (Central Standard Time),326400.8000000119,A,p,O,p,472,1,483.2000000178814,325917.59999999404,7767,WL,B,8.0
2,25.442000150680542,learn,34557.99984931946,Thu Feb 26 2026 12:22:42 GMT-0600 (Central Standard Time),326634.0,A,pi,O,i,228,1,716.4000000059605,325917.59999999404,7767,WL,B,8.0
2,25.693000078201294,learn,34306.999921798706,Thu Feb 26 2026 12:22:42 GMT-0600 (Central Standard Time),326885.09999999404,A,pip,O,p,246,1,967.5,325917.59999999404,7767,WL,B,8.0
2,25.89199995994568,learn,34108.00004005432,Thu Feb 26 2026 12:22:42 GMT-0600 (Central Standard Time),327083.90000000596,A,pipe,O,e,184,1,1166.300000011921,325917.59999999404,7767,WL,B,8.0
2,26.45799994468689,learn,33542.00005531311,Thu Feb 26 2026 12:22:42 GMT-0600 (Central Standard Time),327649.59999999404,A,pipeenter,O,enter,553,1,1732.0,325917.59999999404,7767,WL,B,8.0
2,27.20799994468689,learn,32792.00005531311,Thu Feb 26 2026 12:22:42 GMT-0600 (Central Standard Time),328400.3000000119,A,c,O,c,740,1,750.4000000059605,327649.90000000596,7767,WL,B,9.0
2,27.325000047683716,learn,32674.999952316284,Thu Feb 26 2026 12:22:42 GMT-0600 (Central Standard Time),328517.09999999404,A,ca,O,a,100,1,867.1999999880791,327649.90000000596,7767,WL,B,9.0
2,27.558000087738037,learn,32441.999912261963,Thu Feb 26 2026 12:22:42 GMT-0600 (Central Standard Time),328750.40000000596,A,cab,O,b,217,1,1100.5,327649.90000000596,7767,WL,B,9.0
2,27.7260000705719,learn,32273.9999294281,Thu Feb 26 2026 12:22:42 GMT-0600 (Central Standard Time),328918.3000000119,A,cabi,O,i,160,1,1268.4000000059605,327649.90000000596,7767,WL,B,9.0
2,27.858999967575073,learn,32141.000032424927,Thu Feb 26 2026 12:22:42 GMT-0600 (Central Standard Time),329051.40000000596,A,cabim,O,m,116,1,1401.5,327649.90000000596,7767,WL,B,9.0
2,30.14199995994568,learn,29858.00004005432,Thu Feb 26 2026 12:22:42 GMT-0600 (Central Standard Time),331333.90000000596,A,cabi,O,backspace,2264,1,3684.0,327649.90000000596,7767,WL,B,9.0
2,31.25600004196167,learn,28743.99995803833,Thu Feb 26 2026 12:22:42 GMT-0600 (Central Standard Time),332448.5,A,cabienter,O,enter,1095,1,4798.5999999940395,327649.90000000596,7767,WL,B,9.0
2,32.68900012969971,learn,27310.999870300293,Thu Feb 26 2026 12:22:42 GMT-0600 (Central Standard Time),333880.90000000596,A,l,O,l,1414,1,1432.199999988079,332448.7000000179,7767,WL,B,10.0
2,32.75600004196167,learn,27243.99995803833,Thu Feb 26 2026 12:22:42 GMT-0600 (Central Standard Time),333947.90000000596,A,la,O,a,57,1,1499.199999988079,332448.7000000179,7767,WL,B,10.0
2,33.039000034332275,learn,26960.999965667725,Thu Feb 26 2026 12:22:42 GMT-0600 (Central Standard Time),334230.7000000179,A,lak,O,k,274,1,1782.0,332448.7000000179,7767,WL,B,10.0
2,33.138999938964844,learn,26861.000061035156,Thu Feb 26 2026 12:22:42 GMT-0600 (Central Standard Time),334331.3000000119,A,lake,O,e,80,1,1882.5999999940395,332448.7000000179,7767,WL,B,10.0
2,34.621999979019165,learn,25378.000020980835,Thu Feb 26 2026 12:22:42 GMT-0600 (Central Standard Time),335814.3000000119,A,lakeenter,O,enter,1474,1,3365.5999999940395,332448.7000000179,7767,WL,B,10.0
2,35.33899998664856,learn,24661.00001335144,Thu Feb 26 2026 12:22:42 GMT-0600 (Central Standard Time),336530.8000000119,A,c,O,c,712,1,716.2000000178814,335814.59999999404,7767,WL,B,11.0
2,35.437999963760376,learn,24562.000036239624,Thu Feb 26 2026 12:22:42 GMT-0600 (Central Standard Time),336630.09999999404,A,ci,O,i,81,1,815.5,335814.59999999404,7767,WL,B,11.0
2,35.65700006484985,learn,24342.999935150146,Thu Feb 26 2026 12:22:42 GMT-0600 (Central Standard Time),336849.5,A,cit,O,t,200,1,1034.9000000059605,335814.59999999404,7767,WL,B,11.0
2,35.73800015449524,learn,24261.99984550476,Thu Feb 26 2026 12:22:42 GMT-0600 (Central Standard Time),336930.2000000179,A,city,O,y,75,1,1115.6000000238419,335814.59999999404,7767,WL,B,11.0
2,36.937999963760376,learn,23062.000036239624,Thu Feb 26 2026 12:22:42 GMT-0600 (Central Standard Time),338129.59999999404,A,cityenter,O,enter,1193,1,2315.0,335814.59999999404,7767,WL,B,11.0
2,39.2039999961853,learn,20796.000003814697,Thu Feb 26 2026 12:22:42 GMT-0600 (Central Standard Time),340396.5,A,s,O,s,2246,1,2266.699999988079,338129.8000000119,7767,WL,B,12.0
2,39.53699994087219,learn,20463.000059127808,Thu Feb 26 2026 12:22:42 GMT-0600 (Central Standard Time),340729.5,A,st,O,t,311,1,2599.699999988079,338129.8000000119,7767,WL,B,12.0
2,39.70300006866455,learn,20296.99993133545,Thu Feb 26 2026 12:22:42 GMT-0600 (Central Standard Time),340895.5,A,sta,O,a,153,1,2765.699999988079,338129.8000000119,7767,WL,B,12.0
2,39.937999963760376,learn,20062.000036239624,Thu Feb 26 2026 12:22:42 GMT-0600 (Central Standard Time),341129.7000000179,A,star,O,r,227,1,2999.9000000059605,338129.8000000119,7767,WL,B,12.0
2,41.335999965667725,learn,18664.000034332275,Thu Feb 26 2026 12:22:42 GMT-0600 (Central Standard Time),342528.5,A,starenter,O,enter,1386,1,4398.699999988079,338129.8000000119,7767,WL,B,12.0
2,42.75600004196167,learn,17243.99995803833,Thu Feb 26 2026 12:22:42 GMT-0600 (Central Standard Time),343948.0,A,f,O,f,1415,1,1419.2999999821186,342528.7000000179,7767,WL,B,13.0
2,42.85199999809265,learn,17148.00000190735,Thu Feb 26 2026 12:22:42 GMT-0600 (Central Standard Time),344044.0,A,fi,O,i,87,1,1515.2999999821186,342528.7000000179,7767,WL,B,13.0
2,43.003000020980835,learn,16996.999979019165,Thu Feb 26 2026 12:22:42 GMT-0600 (Central Standard Time),344195.40000000596,A,fir,O,r,136,1,1666.699999988079,342528.7000000179,7767,WL,B,13.0
2,43.18600010871887,learn,16813.999891281128,Thu Feb 26 2026 12:22:42 GMT-0600 (Central Standard Time),344378.2000000179,A,firs,O,s,168,1,1849.5,342528.7000000179,7767,WL,B,13.0
2,44.15000009536743,learn,15849.999904632568,Thu Feb 26 2026 12:22:42 GMT-0600 (Central Standard Time),345342.3000000119,A,fir,O,backspace,946,1,2813.5999999940395,342528.7000000179,7767,WL,B,13.0
2,44.53500008583069,learn,15464.999914169312,Thu Feb 26 2026 12:22:42 GMT-0600 (Central Standard Time),345727.0,A,fire,O,e,379,1,3198.2999999821186,342528.7000000179,7767,WL,B,13.0
2,45.6010000705719,learn,14398.9999294281,Thu Feb 26 2026 12:22:42 GMT-0600 (Central Standard Time),346792.8000000119,A,fireenter,O,enter,1055,1,4264.0999999940395,342528.7000000179,7767,WL,B,13.0
2,60.01699995994568,learn,-16.99995994567871,Thu Feb 26 2026 12:22:42 GMT-0600 (Central Standard Time),361208.7000000179,A,None,O,None,14411,1,14415.700000017881,346793.0,7767,WL,B,14.0
3,1.4000000953674316,learn,58599.99990463257,Thu Feb 26 2026 12:22:42 GMT-0600 (Central Standard Time),436750.09999999404,A,c,O,c,1384,1,1400.0999999940395,435350.0,7767,WL,B,1.0
3,1.5820000171661377,learn,58417.99998283386,Thu Feb 26 2026 12:22:42 GMT-0600 (Central Standard Time),436932.5,A,cl,O,l,177,1,1582.5,435350.0,7767,WL,B,1.0
3,1.815999984741211,learn,58184.00001525879,Thu Feb 26 2026 12:22:42 GMT-0600 (Central Standard Time),437166.59999999404,A,clo,O,o,224,1,1816.5999999940395,435350.0,7767,WL,B,1.0
3,2.315999984741211,learn,57684.00001525879,Thu Feb 26 2026 12:22:42 GMT-0600 (Central Standard Time),437666.2000000179,A,cloc,O,c,478,1,2316.2000000178814,435350.0,7767,WL,B,1.0
3,2.5169999599456787,learn,57483.00004005432,Thu Feb 26 2026 12:22:42 GMT-0600 (Central Standard Time),437867.2000000179,A,clock,O,k,179,1,2517.2000000178814,435350.0,7767,WL,B,1.0
3,3.7309999465942383,learn,56269.00005340576,Thu Feb 26 2026 12:22:42 GMT-0600 (Central Standard Time),439080.90000000596,A,clockenter,O,enter,1194,1,3730.9000000059605,435350.0,7767,WL,B,1.0
3,5.797000169754028,learn,54202.99983024597,Thu Feb 26 2026 12:22:42 GMT-0600 (Central Standard Time),441147.3000000119,A,a,O,a,2061,1,2066.300000011921,439081.0,7767,WL,B,2.0
3,6.015000104904175,learn,53984.999895095825,Thu Feb 26 2026 12:22:42 GMT-0600 (Central Standard Time),441365.0,A,ar,O,r,203,1,2284.0,439081.0,7767,WL,B,2.0
3,6.396000146865845,learn,53603.999853134155,Thu Feb 26 2026 12:22:42 GMT-0600 (Central Standard Time),441746.5,A,arn,O,n,368,1,2665.5,439081.0,7767,WL,B,2.0
3,8.696000099182129,learn,51303.99990081787,Thu Feb 26 2026 12:22:42 GMT-0600 (Central Standard Time),444046.3000000119,A,ar,O,backspace,2291,1,4965.300000011921,439081.0,7767,WL,B,2.0
3,10.180000066757202,learn,49819.9999332428,Thu Feb 26 2026 12:22:42 GMT-0600 (Central Standard Time),445530.40000000596,A,arm,O,m,1480,1,6449.4000000059605,439081.0,7767,WL,B,2.0
3,11.162000179290771,learn,48837.99982070923,Thu Feb 26 2026 12:22:42 GMT-0600 (Central Standard Time),446511.8000000119,A,armenter,O,enter,963,1,7430.800000011921,439081.0,7767,WL,B,2.0
3,12.196000099182129,learn,47803.99990081787,Thu Feb 26 2026 12:22:42 GMT-0600 (Central Standard Time),447546.40000000596,A,s,O,s,1022,1,1034.300000011921,446512.09999999404,7767,WL,B,3.0
3,12.59500002861023,learn,47404.99997138977,Thu Feb 26 2026 12:22:42 GMT-0600 (Central Standard Time),447945.59999999404,A,st,O,t,389,1,1433.5,446512.09999999404,7767,WL,B,3.0
3,12.812000036239624,learn,47187.999963760376,Thu Feb 26 2026 12:22:42 GMT-0600 (Central Standard Time),448162.2000000179,A,sta,O,a,201,1,1650.1000000238419,446512.09999999404,7767,WL,B,3.0
3,13.09500002861023,learn,46904.99997138977,Thu Feb 26 2026 12:22:42 GMT-0600 (Central Standard Time),448445.40000000596,A,star,O,r,262,1,1933.300000011921,446512.09999999404,7767,WL,B,3.0
3,14.327000141143799,learn,45672.9998588562,Thu Feb 26 2026 12:22:42 GMT-0600 (Central Standard Time),449677.09999999404,A,starenter,O,enter,1213,1,3165.0,446512.09999999404,7767,WL,B,3.0
3,14.844000101089478,learn,45155.99989891052,Thu Feb 26 2026 12:22:42 GMT-0600 (Central Standard Time),450193.8000000119,A,p,O,p,496,1,516.5,449677.3000000119,7767,WL,B,4.0
3,15.16100001335144,learn,44838.99998664856,Thu Feb 26 2026 12:22:42 GMT-0600 (Central Standard Time),450511.09999999404,A,pu,O,u,304,1,833.7999999821186,449677.3000000119,7767,WL,B,4.0
3,15.41100001335144,learn,44588.99998664856,Thu Feb 26 2026 12:22:42 GMT-0600 (Central Standard Time),450761.09999999404,A,pup,O,p,235,1,1083.7999999821186,449677.3000000119,7767,WL,B,4.0
3,15.644999980926514,learn,44355.000019073486,Thu Feb 26 2026 12:22:42 GMT-0600 (Central Standard Time),450994.7000000179,A,pupi,O,i,222,1,1317.4000000059605,449677.3000000119,7767,WL,B,4.0
3,15.9760000705719,learn,44023.9999294281,Thu Feb 26 2026 12:22:42 GMT-0600 (Central Standard Time),451326.2000000179,A,pupil,O,l,311,1,1648.9000000059605,449677.3000000119,7767,WL,B,4.0
3,16.39400005340576,learn,43605.99994659424,Thu Feb 26 2026 12:22:42 GMT-0600 (Central Standard Time),451744.09999999404,A,pupilenter,O,enter,398,1,2066.7999999821186,449677.3000000119,7767,WL,B,4.0
3,17.042999982833862,learn,42957.00001716614,Thu Feb 26 2026 12:22:42 GMT-0600 (Central Standard Time),452393.5,A,w,O,w,629,1,649.0999999940395,451744.40000000596,7767,WL,B,5.0
3,17.14300012588501,learn,42856.99987411499,Thu Feb 26 2026 12:22:42 GMT-0600 (Central Standard Time),452493.2000000179,A,wi,O,i,81,1,748.8000000119209,451744.40000000596,7767,WL,B,5.0
3,17.593000173568726,learn,42406.999826431274,Thu Feb 26 2026 12:22:42 GMT-0600 (Central Standard Time),452943.09999999404,A,wif,O,f,432,1,1198.699999988079,451744.40000000596,7767,WL,B,5.0
3,17.844000101089478,learn,42155.99989891052,Thu Feb 26 2026 12:22:42 GMT-0600 (Central Standard Time),453194.3000000119,A,wife,O,e,226,1,1449.9000000059605,451744.40000000596,7767,WL,B,5.0
3,18.3270001411438,learn,41672.9998588562,Thu Feb 26 2026 12:22:42 GMT-0600 (Central Standard Time),453677.59999999404,A,wifeenter,O,enter,472,1,1933.199999988079,451744.40000000596,7767,WL,B,5.0
3,19.14400005340576,learn,40855.99994659424,Thu Feb 26 2026 12:22:42 GMT-0600 (Central Standard Time),454494.5,A,s,O,s,799,1,816.5999999940395,453677.90000000596,7767,WL,B,6.0
3,19.409000158309937,learn,40590.99984169006,Thu Feb 26 2026 12:22:42 GMT-0600 (Central Standard Time),454759.2000000179,A,st,O,t,253,1,1081.300000011921,453677.90000000596,7767,WL,B,6.0
3,19.64199995994568,learn,40358.00004005432,Thu Feb 26 2026 12:22:42 GMT-0600 (Central Standard Time),454992.59999999404,A,str,O,r,222,1,1314.699999988079,453677.90000000596,7767,WL,B,6.0
3,19.960000038146973,learn,40039.99996185303,Thu Feb 26 2026 12:22:42 GMT-0600 (Central Standard Time),455309.8000000119,A,stre,O,e,298,1,1631.9000000059605,453677.90000000596,7767,WL,B,6.0
3,20.092000007629395,learn,39907.999992370605,Thu Feb 26 2026 12:22:42 GMT-0600 (Central Standard Time),455442.59999999404,A,stree,O,e,119,1,1764.699999988079,453677.90000000596,7767,WL,B,6.0
3,20.29200005531311,learn,39707.99994468689,Thu Feb 26 2026 12:22:42 GMT-0600 (Central Standard Time),455642.59999999404,A,street,O,t,183,1,1964.699999988079,453677.90000000596,7767,WL,B,6.0
3,21.259000062942505,learn,38740.999937057495,Thu Feb 26 2026 12:22:42 GMT-0600 (Central Standard Time),456609.09999999404,A,streetenter,O,enter,944,1,2931.199999988079,453677.90000000596,7767,WL,B,6.0
3,22.02500009536743,learn,37974.99990463257,Thu Feb 26 2026 12:22:42 GMT-0600 (Central Standard Time),457375.40000000596,A,c,O,c,747,1,766.0999999940395,456609.3000000119,7767,WL,B,7.0
3,22.075000047683716,learn,37924.999952316284,Thu Feb 26 2026 12:22:42 GMT-0600 (Central Standard Time),457424.90000000596,A,ci,O,i,34,1,815.5999999940395,456609.3000000119,7767,WL,B,7.0
3,22.325000047683716,learn,37674.999952316284,Thu Feb 26 2026 12:22:42 GMT-0600 (Central Standard Time),457675.40000000596,A,cit,O,t,238,1,1066.0999999940395,456609.3000000119,7767,WL,B,7.0
3,22.44099998474121,learn,37559.00001525879,Thu Feb 26 2026 12:22:42 GMT-0600 (Central Standard Time),457791.40000000596,A,city,O,y,104,1,1182.0999999940395,456609.3000000119,7767,WL,B,7.0
3,23.039999961853027,learn,36960.00003814697,Thu Feb 26 2026 12:22:42 GMT-0600 (Central Standard Time),458390.59999999404,A,cityenter,O,enter,588,1,1781.2999999821186,456609.3000000119,7767,WL,B,7.0
3,23.77500009536743,learn,36224.99990463257,Thu Feb 26 2026 12:22:42 GMT-0600 (Central Standard Time),459125.2000000179,A,g,O,g,726,1,734.4000000059605,458390.8000000119,7767,WL,B,8.0
3,23.975000143051147,learn,36024.99985694885,Thu Feb 26 2026 12:22:42 GMT-0600 (Central Standard Time),459325.3000000119,A,gr,O,r,190,1,934.5,458390.8000000119,7767,WL,B,8.0
3,24.10700011253357,learn,35892.99988746643,Thu Feb 26 2026 12:22:42 GMT-0600 (Central Standard Time),459456.8000000119,A,gra,O,a,124,1,1066.0,458390.8000000119,7767,WL,B,8.0
3,24.45800018310547,learn,35541.99981689453,Thu Feb 26 2026 12:22:42 GMT-0600 (Central Standard Time),459808.5,A,gras,O,s,341,1,1417.699999988079,458390.8000000119,7767,WL,B,8.0
3,24.575000047683716,learn,35424.999952316284,Thu Feb 26 2026 12:22:42 GMT-0600 (Central Standard Time),459924.8000000119,A,grass,O,s,106,1,1534.0,458390.8000000119,7767,WL,B,8.0
3,25.841000080108643,learn,34158.99991989136,Thu Feb 26 2026 12:22:42 GMT-0600 (Central Standard Time),461190.90000000596,A,grassenter,O,enter,1246,1,2800.0999999940395,458390.8000000119,7767,WL,B,8.0
3,26.341000080108643,learn,33658.99991989136,Thu Feb 26 2026 12:22:42 GMT-0600 (Central Standard Time),461690.90000000596,A,c,O,c,494,1,499.69999998807907,461191.2000000179,7767,WL,B,9.0
3,26.457000017166138,learn,33542.99998283386,Thu Feb 26 2026 12:22:42 GMT-0600 (Central Standard Time),461806.8000000119,A,cl,O,l,105,1,615.5999999940395,461191.2000000179,7767,WL,B,9.0
3,26.640000104904175,learn,33359.999895095825,Thu Feb 26 2026 12:22:42 GMT-0600 (Central Standard Time),461990.3000000119,A,clo,O,o,171,1,799.0999999940395,461191.2000000179,7767,WL,B,9.0
3,27.256999969482422,learn,32743.000030517578,Thu Feb 26 2026 12:22:42 GMT-0600 (Central Standard Time),462607.5,A,cloc,O,c,601,1,1416.2999999821186,461191.2000000179,7767,WL,B,9.0
3,27.42300009727478,learn,32576.99990272522,Thu Feb 26 2026 12:22:42 GMT-0600 (Central Standard Time),462773.0,A,clock,O,k,148,1,1581.7999999821186,461191.2000000179,7767,WL,B,9.0
3,29.888000011444092,learn,30111.99998855591,Thu Feb 26 2026 12:22:42 GMT-0600 (Central Standard Time),465238.09999999404,A,clockenter,O,enter,2452,1,4046.899999976158,461191.2000000179,7767,WL,B,9.0
3,30.539000034332275,learn,29460.999965667725,Thu Feb 26 2026 12:22:42 GMT-0600 (Central Standard Time),465889.40000000596,A,c,O,c,632,1,651.0,465238.40000000596,7767,WL,B,10.0
3,30.621999979019165,learn,29378.000020980835,Thu Feb 26 2026 12:22:42 GMT-0600 (Central Standard Time),465972.0,A,ca,O,a,75,1,733.5999999940395,465238.40000000596,7767,WL,B,10.0
3,30.94000005722046,learn,29059.99994277954,Thu Feb 26 2026 12:22:42 GMT-0600 (Central Standard Time),466290.0,A,cab,O,b,304,1,1051.5999999940395,465238.40000000596,7767,WL,B,10.0
3,31.08899998664856,learn,28911.00001335144,Thu Feb 26 2026 12:22:42 GMT-0600 (Central Standard Time),466438.7000000179,A,cabi,O,i,136,1,1200.300000011921,465238.40000000596,7767,WL,B,10.0
3,31.17200016975403,learn,28827.99983024597,Thu Feb 26 2026 12:22:42 GMT-0600 (Central Standard Time),466522.2000000179,A,cabin,O,n,68,1,1283.800000011921,465238.40000000596,7767,WL,B,10.0
3,32.456000089645386,learn,27543.999910354614,Thu Feb 26 2026 12:22:42 GMT-0600 (Central Standard Time),467805.90000000596,A,cabinenter,O,enter,1267,1,2567.5,465238.40000000596,7767,WL,B,10.0
3,33.271000146865845,learn,26728.999853134155,Thu Feb 26 2026 12:22:42 GMT-0600 (Central Standard Time),468621.7000000179,A,l,O,l,807,1,815.5,467806.2000000179,7767,WL,B,11.0
3,33.371999979019165,learn,26628.000020980835,Thu Feb 26 2026 12:22:42 GMT-0600 (Central Standard Time),468722.3000000119,A,la,O,a,85,1,916.0999999940395,467806.2000000179,7767,WL,B,11.0
3,33.62100005149841,learn,26378.999948501587,Thu Feb 26 2026 12:22:42 GMT-0600 (Central Standard Time),468971.09999999404,A,lak,O,k,233,1,1164.8999999761581,467806.2000000179,7767,WL,B,11.0
3,33.7720000743866,learn,26227.999925613403,Thu Feb 26 2026 12:22:42 GMT-0600 (Central Standard Time),469121.90000000596,A,lake,O,e,142,1,1315.699999988079,467806.2000000179,7767,WL,B,11.0
3,35.4539999961853,learn,24546.000003814697,Thu Feb 26 2026 12:22:42 GMT-0600 (Central Standard Time),470803.8000000119,A,lakeenter,O,enter,1663,1,2997.5999999940395,467806.2000000179,7767,WL,B,11.0
3,36.52400016784668,learn,23475.99983215332,Thu Feb 26 2026 12:22:42 GMT-0600 (Central Standard Time),471873.7000000179,A,s,O,s,1058,1,1069.6000000238419,470804.09999999404,7767,WL,B,12.0
3,36.62000012397766,learn,23379.99987602234,Thu Feb 26 2026 12:22:42 GMT-0600 (Central Standard Time),471970.59999999404,A,sk,O,k,91,1,1166.5,470804.09999999404,7767,WL,B,12.0
3,36.80299997329712,learn,23197.00002670288,Thu Feb 26 2026 12:22:42 GMT-0600 (Central Standard Time),472153.5,A,ski,O,i,159,1,1349.4000000059605,470804.09999999404,7767,WL,B,12.0
3,36.937000036239624,learn,23062.999963760376,Thu Feb 26 2026 12:22:42 GMT-0600 (Central Standard Time),472287.2000000179,A,skin,O,n,121,1,1483.1000000238419,470804.09999999404,7767,WL,B,12.0
3,38.269999980926514,learn,21730.000019073486,Thu Feb 26 2026 12:22:42 GMT-0600 (Central Standard Time),473620.0,A,skinenter,O,enter,1322,1,2815.9000000059605,470804.09999999404,7767,WL,B,12.0
3,48.01699995994568,learn,11983.000040054321,Thu Feb 26 2026 12:22:42 GMT-0600 (Central Standard Time),483367.59999999404,A,w,O,w,9730,1,9747.399999976158,473620.2000000179,7767,WL,B,13.0
3,48.33400011062622,learn,11665.99988937378,Thu Feb 26 2026 12:22:42 GMT-0600 (Central Standard Time),483683.8000000119,A,wi,O,i,300,1,10063.59999999404,473620.2000000179,7767,WL,B,13.0
3,48.617000102996826,learn,11382.999897003174,Thu Feb 26 2026 12:22:42 GMT-0600 (Central Standard Time),483967.09999999404,A,win,O,n,273,1,10346.899999976158,473620.2000000179,7767,WL,B,13.0
3,48.866000175476074,learn,11133.999824523926,Thu Feb 26 2026 12:22:42 GMT-0600 (Central Standard Time),484216.5,A,wind,O,d,237,1,10596.299999982119,473620.2000000179,7767,WL,B,13.0
3,49.35000014305115,learn,10649.999856948853,Thu Feb 26 2026 12:22:42 GMT-0600 (Central Standard Time),484700.8000000119,A,windo,O,o,464,1,11080.59999999404,473620.2000000179,7767,WL,B,13.0
3,49.98399996757507,learn,10016.000032424927,Thu Feb 26 2026 12:22:42 GMT-0600 (Central Standard Time),485334.09999999404,A,window,O,w,616,1,11713.899999976158,473620.2000000179,7767,WL,B,13.0
3,50.866000175476074,learn,9133.999824523926,Thu Feb 26 2026 12:22:42 GMT-0600 (Central Standard Time),486216.2000000179,A,windowenter,O,enter,868,1,12596.0,473620.2000000179,7767,WL,B,13.0
3,55.432000160217285,learn,4567.999839782715,Thu Feb 26 2026 12:22:42 GMT-0600 (Central Standard Time),490781.8000000119,A,p,O,p,4561,1,4565.4000000059605,486216.40000000596,7767,WL,B,14.0
3,55.765000104904175,learn,4234.999895095825,Thu Feb 26 2026 12:22:42 GMT-0600 (Central Standard Time),491115.0,A,pi,O,i,319,1,4898.5999999940395,486216.40000000596,7767,WL,B,14.0
3,55.980000019073486,learn,4019.9999809265137,Thu Feb 26 2026 12:22:42 GMT-0600 (Central Standard Time),491330.7000000179,A,pip,O,p,207,1,5114.300000011921,486216.40000000596,7767,WL,B,14.0
3,56.19799995422363,learn,3802.000045776367,Thu Feb 26 2026 12:22:42 GMT-0600 (Central Standard Time),491548.40000000596,A,pipe,O,e,212,1,5332.0,486216.40000000596,7767,WL,B,14.0
3,57.164000034332275,learn,2835.9999656677246,Thu Feb 26 2026 12:22:42 GMT-0600 (Central Standard Time),492514.09999999404,A,pipeenter,O,enter,944,1,6297.699999988079,486216.40000000596,7767,WL,B,14.0
3,60.01400017738342,learn,-14.000177383422852,Thu Feb 26 2026 12:22:42 GMT-0600 (Central Standard Time),495364.59999999404,A,None,O,None,2845,1,2850.2999999821186,492514.3000000119,7767,WL,B,15.0
4,7.832000017166138,learn,52167.99998283386,Thu Feb 26 2026 12:22:42 GMT-0600 (Central Standard Time),576521.099999994,A,c,O,c,7813,1,7831.0999999940395,568690.0,7767,WL,B,1.0
4,8.065000057220459,learn,51934.99994277954,Thu Feb 26 2026 12:22:42 GMT-0600 (Central Standard Time),576754.3000000119,A,ca,O,a,210,1,8064.300000011921,568690.0,7767,WL,B,1.0
4,8.38100004196167,learn,51618.99995803833,Thu Feb 26 2026 12:22:42 GMT-0600 (Central Standard Time),577070.099999994,A,cab,O,b,304,1,8380.09999999404,568690.0,7767,WL,B,1.0
4,8.648000001907349,learn,51351.99999809265,Thu Feb 26 2026 12:22:42 GMT-0600 (Central Standard Time),577337.400000006,A,cabi,O,i,254,1,8647.40000000596,568690.0,7767,WL,B,1.0
4,8.94700002670288,learn,51052.99997329712,Thu Feb 26 2026 12:22:42 GMT-0600 (Central Standard Time),577636.3000000119,A,cabin,O,n,292,1,8946.300000011921,568690.0,7767,WL,B,1.0
4,9.916000127792358,learn,50083.99987220764,Thu Feb 26 2026 12:22:42 GMT-0600 (Central Standard Time),578604.8000000119,A,cabinenter,O,enter,952,1,9914.800000011921,568690.0,7767,WL,B,1.0
4,10.430999994277954,learn,49569.000005722046,Thu Feb 26 2026 12:22:42 GMT-0600 (Central Standard Time),579120.099999994,A,l,O,l,504,1,515.0,578605.099999994,7767,WL,B,2.0
4,10.664000034332275,learn,49335.999965667725,Thu Feb 26 2026 12:22:42 GMT-0600 (Central Standard Time),579353.5,A,la,O,a,215,1,748.4000000059605,578605.099999994,7767,WL,B,2.0
4,10.88100004196167,learn,49118.99995803833,Thu Feb 26 2026 12:22:42 GMT-0600 (Central Standard Time),579570.2000000179,A,lak,O,k,202,1,965.1000000238419,578605.099999994,7767,WL,B,2.0
4,11.02999997138977,learn,48970.00002861023,Thu Feb 26 2026 12:22:42 GMT-0600 (Central Standard Time),579719.2000000179,A,lake,O,e,137,1,1114.1000000238419,578605.099999994,7767,WL,B,2.0
4,12.130000114440918,learn,47869.99988555908,Thu Feb 26 2026 12:22:42 GMT-0600 (Central Standard Time),580819.5,A,lakeenter,O,enter,1083,1,2214.4000000059605,578605.099999994,7767,WL,B,2.0
4,13.146000146865845,learn,46853.999853134155,Thu Feb 26 2026 12:22:42 GMT-0600 (Central Standard Time),581835.7000000179,A,s,O,s,1002,1,1016.0,580819.7000000179,7767,WL,B,3.0
4,13.480000019073486,learn,46519.999980926514,Thu Feb 26 2026 12:22:42 GMT-0600 (Central Standard Time),582169.599999994,A,st,O,t,315,1,1349.8999999761581,580819.7000000179,7767,WL,B,3.0
4,13.69700002670288,learn,46302.99997329712,Thu Feb 26 2026 12:22:42 GMT-0600 (Central Standard Time),582386.2000000179,A,str,O,r,209,1,1566.5,580819.7000000179,7767,WL,B,3.0
4,14.046000003814697,learn,45953.9999961853,Thu Feb 26 2026 12:22:42 GMT-0600 (Central Standard Time),582735.599999994,A,stre,O,e,329,1,1915.8999999761581,580819.7000000179,7767,WL,B,3.0
4,14.162000179290771,learn,45837.99982070923,Thu Feb 26 2026 12:22:42 GMT-0600 (Central Standard Time),582851.599999994,A,stree,O,e,109,1,2031.8999999761581,580819.7000000179,7767,WL,B,3.0
4,14.413000106811523,learn,45586.99989318848,Thu Feb 26 2026 12:22:42 GMT-0600 (Central Standard Time),583102.099999994,A,street,O,t,233,1,2282.399999976158,580819.7000000179,7767,WL,B,3.0
4,16.129000186920166,learn,43870.999813079834,Thu Feb 26 2026 12:22:42 GMT-0600 (Central Standard Time),584817.8000000119,A,streetenter,O,enter,1699,1,3998.0999999940395,580819.7000000179,7767,WL,B,3.0
4,16.695000171661377,learn,43304.99982833862,Thu Feb 26 2026 12:22:42 GMT-0600 (Central Standard Time),585384.2000000179,A,g,O,g,554,1,566.1000000238419,584818.099999994,7767,WL,B,4.0
4,16.913000106811523,learn,43086.99989318848,Thu Feb 26 2026 12:22:42 GMT-0600 (Central Standard Time),585602.0,A,gr,O,r,197,1,783.9000000059605,584818.099999994,7767,WL,B,4.0
4,17.078999996185303,learn,42921.0000038147,Thu Feb 26 2026 12:22:42 GMT-0600 (Central Standard Time),585768.0,A,gra,O,a,154,1,949.9000000059605,584818.099999994,7767,WL,B,4.0
4,17.41100001335144,learn,42588.99998664856,Thu Feb 26 2026 12:22:42 GMT-0600 (Central Standard Time),586100.599999994,A,gras,O,s,317,1,1282.5,584818.099999994,7767,WL,B,4.0
4,17.54700016975403,learn,42452.99983024597,Thu Feb 26 2026 12:22:42 GMT-0600 (Central Standard Time),586235.900000006,A,grass,O,s,120,1,1417.800000011921,584818.099999994,7767,WL,B,4.0
4,18.41100001335144,learn,41588.99998664856,Thu Feb 26 2026 12:22:42 GMT-0600 (Central Standard Time),587100.5,A,grassenter,O,enter,858,1,2282.4000000059605,584818.099999994,7767,WL,B,4.0
4,19.19600009918213,learn,40803.99990081787,Thu Feb 26 2026 12:22:42 GMT-0600 (Central Standard Time),587885.8000000119,A,w,O,w,764,1,785.0,587100.8000000119,7767,WL,B,5.0
4,19.294000148773193,learn,40705.99985122681,Thu Feb 26 2026 12:22:42 GMT-0600 (Central Standard Time),587983.099999994,A,wi,O,i,87,1,882.2999999821186,587100.8000000119,7767,WL,B,5.0
4,19.378000020980835,learn,40621.999979019165,Thu Feb 26 2026 12:22:42 GMT-0600 (Central Standard Time),588067.0,A,win,O,n,62,1,966.1999999880791,587100.8000000119,7767,WL,B,5.0
4,19.66100001335144,learn,40338.99998664856,Thu Feb 26 2026 12:22:42 GMT-0600 (Central Standard Time),588350.0,A,wind,O,d,273,1,1249.199999988079,587100.8000000119,7767,WL,B,5.0
4,19.811000108718872,learn,40188.99989128113,Thu Feb 26 2026 12:22:42 GMT-0600 (Central Standard Time),588500.0,A,windo,O,o,132,1,1399.199999988079,587100.8000000119,7767,WL,B,5.0
4,20.009999990463257,learn,39990.00000953674,Thu Feb 26 2026 12:22:42 GMT-0600 (Central Standard Time),588699.599999994,A,windoe,O,e,183,1,1598.7999999821186,587100.8000000119,7767,WL,B,5.0
4,21.194000005722046,learn,38805.999994277954,Thu Feb 26 2026 12:22:42 GMT-0600 (Central Standard Time),589883.099999994,A,windo,O,backspace,1176,1,2782.2999999821186,587100.8000000119,7767,WL,B,5.0
4,21.5770001411438,learn,38422.9998588562,Thu Feb 26 2026 12:22:42 GMT-0600 (Central Standard Time),590266.5,A,window,O,w,371,1,3165.699999988079,587100.8000000119,7767,WL,B,5.0
4,22.56000018119812,learn,37439.99981880188,Thu Feb 26 2026 12:22:42 GMT-0600 (Central Standard Time),591249.400000006,A,windowenter,O,enter,962,1,4148.5999999940395,587100.8000000119,7767,WL,B,5.0
4,23.243000030517578,learn,36756.99996948242,Thu Feb 26 2026 12:22:42 GMT-0600 (Central Standard Time),591932.0,A,f,O,f,668,1,682.2999999821186,591249.7000000179,7767,WL,B,6.0
4,23.360000133514404,learn,36639.999866485596,Thu Feb 26 2026 12:22:42 GMT-0600 (Central Standard Time),592049.099999994,A,fi,O,i,104,1,799.3999999761581,591249.7000000179,7767,WL,B,6.0
4,23.542999982833862,learn,36457.00001716614,Thu Feb 26 2026 12:22:42 GMT-0600 (Central Standard Time),592232.7000000179,A,fir,O,r,168,1,983.0,591249.7000000179,7767,WL,B,6.0
4,24.527000188827515,learn,35472.999811172485,Thu Feb 26 2026 12:22:42 GMT-0600 (Central Standard Time),593216.7000000179,A,fire,O,e,971,1,1967.0,591249.7000000179,7767,WL,B,6.0
4,25.30900001525879,learn,34690.99998474121,Thu Feb 26 2026 12:22:42 GMT-0600 (Central Standard Time),593998.0,A,fireenter,O,enter,769,1,2748.2999999821186,591249.7000000179,7767,WL,B,6.0
4,25.694000005722046,learn,34305.999994277954,Thu Feb 26 2026 12:22:42 GMT-0600 (Central Standard Time),594382.900000006,A,g,O,g,375,1,384.59999999403954,593998.3000000119,7767,WL,B,7.0
4,25.89199995994568,learn,34108.00004005432,Thu Feb 26 2026 12:22:42 GMT-0600 (Central Standard Time),594581.0,A,gr,O,r,189,1,582.6999999880791,593998.3000000119,7767,WL,B,7.0
4,26.06000018119812,learn,33939.99981880188,Thu Feb 26 2026 12:22:42 GMT-0600 (Central Standard Time),594748.8000000119,A,gra,O,a,160,1,750.5,593998.3000000119,7767,WL,B,7.0
4,26.79200005531311,learn,33207.99994468689,Thu Feb 26 2026 12:22:42 GMT-0600 (Central Standard Time),595481.2000000179,A,gras,O,s,712,1,1482.9000000059605,593998.3000000119,7767,WL,B,7.0
4,26.975000143051147,learn,33024.99985694885,Thu Feb 26 2026 12:22:42 GMT-0600 (Central Standard Time),595664.599999994,A,grass,O,s,169,1,1666.2999999821186,593998.3000000119,7767,WL,B,7.0
4,28.02500009536743,learn,31974.99990463257,Thu Feb 26 2026 12:22:42 GMT-0600 (Central Standard Time),596714.2000000179,A,grassenter,O,enter,1045,1,2715.9000000059605,593998.3000000119,7767,WL,B,7.0
4,28.52500009536743,learn,31474.99990463257,Thu Feb 26 2026 12:22:42 GMT-0600 (Central Standard Time),597214.3000000119,A,c,O,c,492,1,499.90000000596046,596714.400000006,7767,WL,B,8.0
4,28.657999992370605,learn,31342.000007629395,Thu Feb 26 2026 12:22:42 GMT-0600 (Central Standard Time),597347.599999994,A,cl,O,l,118,1,633.1999999880791,596714.400000006,7767,WL,B,8.0
4,28.907999992370605,learn,31092.000007629395,Thu Feb 26 2026 12:22:42 GMT-0600 (Central Standard Time),597597.0,A,clo,O,o,229,1,882.5999999940395,596714.400000006,7767,WL,B,8.0
4,29.35800004005432,learn,30641.99995994568,Thu Feb 26 2026 12:22:42 GMT-0600 (Central Standard Time),598047.099999994,A,cloc,O,c,439,1,1332.699999988079,596714.400000006,7767,WL,B,8.0
4,29.457000017166138,learn,30542.999982833862,Thu Feb 26 2026 12:22:42 GMT-0600 (Central Standard Time),598146.5,A,clock,O,k,86,1,1432.0999999940395,596714.400000006,7767,WL,B,8.0
4,29.95900011062622,learn,30040.99988937378,Thu Feb 26 2026 12:22:42 GMT-0600 (Central Standard Time),598648.2000000179,A,clockenter,O,enter,490,1,1933.800000011921,596714.400000006,7767,WL,B,8.0
4,30.45800018310547,learn,29541.99981689453,Thu Feb 26 2026 12:22:42 GMT-0600 (Central Standard Time),599147.599999994,A,w,O,w,493,1,499.19999998807907,598648.400000006,7767,WL,B,9.0
4,30.56000018119812,learn,29439.99981880188,Thu Feb 26 2026 12:22:42 GMT-0600 (Central Standard Time),599248.900000006,A,wi,O,i,81,1,600.5,598648.400000006,7767,WL,B,9.0
4,30.85800004005432,learn,29141.99995994568,Thu Feb 26 2026 12:22:42 GMT-0600 (Central Standard Time),599546.900000006,A,wif,O,f,291,1,898.5,598648.400000006,7767,WL,B,9.0
4,31.2260000705719,learn,28773.9999294281,Thu Feb 26 2026 12:22:42 GMT-0600 (Central Standard Time),599914.8000000119,A,wife,O,e,347,1,1266.4000000059605,598648.400000006,7767,WL,B,9.0
4,32.52300000190735,learn,27476.99999809265,Thu Feb 26 2026 12:22:42 GMT-0600 (Central Standard Time),601212.599999994,A,wifeenter,O,enter,1290,1,2564.199999988079,598648.400000006,7767,WL,B,9.0
4,32.90700006484985,learn,27092.999935150146,Thu Feb 26 2026 12:22:42 GMT-0600 (Central Standard Time),601596.099999994,A,a,O,a,377,1,383.09999999403954,601213.0,7767,WL,B,10.0
4,33.140000104904175,learn,26859.999895095825,Thu Feb 26 2026 12:22:42 GMT-0600 (Central Standard Time),601829.0,A,ar,O,r,218,1,616.0,601213.0,7767,WL,B,10.0
4,34.08800005912781,learn,25911.999940872192,Thu Feb 26 2026 12:22:42 GMT-0600 (Central Standard Time),602777.8000000119,A,arm,O,m,945,1,1564.800000011921,601213.0,7767,WL,B,10.0
4,34.99000000953674,learn,25009.999990463257,Thu Feb 26 2026 12:22:42 GMT-0600 (Central Standard Time),603678.900000006,A,armenter,O,enter,893,1,2465.9000000059605,601213.0,7767,WL,B,10.0
4,35.52300000190735,learn,24476.99999809265,Thu Feb 26 2026 12:22:42 GMT-0600 (Central Standard Time),604212.599999994,A,p,O,p,527,1,533.3999999761581,603679.2000000179,7767,WL,B,11.0
4,35.83899998664856,learn,24161.00001335144,Thu Feb 26 2026 12:22:42 GMT-0600 (Central Standard Time),604528.5,A,pi,O,i,291,1,849.2999999821186,603679.2000000179,7767,WL,B,11.0
4,36.055999994277954,learn,23944.000005722046,Thu Feb 26 2026 12:22:42 GMT-0600 (Central Standard Time),604745.2000000179,A,pip,O,p,205,1,1066.0,603679.2000000179,7767,WL,B,11.0
4,36.33899998664856,learn,23661.00001335144,Thu Feb 26 2026 12:22:42 GMT-0600 (Central Standard Time),605028.099999994,A,pipe,O,e,277,1,1348.8999999761581,603679.2000000179,7767,WL,B,11.0
4,37.67300009727478,learn,22326.99990272522,Thu Feb 26 2026 12:22:42 GMT-0600 (Central Standard Time),606362.599999994,A,pipeenter,O,enter,1328,1,2683.399999976158,603679.2000000179,7767,WL,B,11.0
4,38.68900012969971,learn,21310.999870300293,Thu Feb 26 2026 12:22:42 GMT-0600 (Central Standard Time),607378.400000006,A,s,O,s,1010,1,1015.5,606362.900000006,7767,WL,B,12.0
4,38.90499997138977,learn,21095.00002861023,Thu Feb 26 2026 12:22:42 GMT-0600 (Central Standard Time),607593.900000006,A,st,O,t,203,1,1231.0,606362.900000006,7767,WL,B,12.0
4,39.03800010681152,learn,20961.999893188477,Thu Feb 26 2026 12:22:42 GMT-0600 (Central Standard Time),607727.3000000119,A,sta,O,a,124,1,1364.4000000059605,606362.900000006,7767,WL,B,12.0
4,39.22100019454956,learn,20778.99980545044,Thu Feb 26 2026 12:22:42 GMT-0600 (Central Standard Time),607910.599999994,A,star,O,r,174,1,1547.699999988079,606362.900000006,7767,WL,B,12.0
4,41.20300006866455,learn,18796.99993133545,Thu Feb 26 2026 12:22:42 GMT-0600 (Central Standard Time),609892.3000000119,A,starenter,O,enter,1973,1,3529.4000000059605,606362.900000006,7767,WL,B,12.0
4,45.66900014877319,learn,14330.999851226807,Thu Feb 26 2026 12:22:42 GMT-0600 (Central Standard Time),614358.5,A,w,O,w,4458,1,4466.0,609892.5,7767,WL,B,13.0
4,45.78600001335144,learn,14213.99998664856,Thu Feb 26 2026 12:22:42 GMT-0600 (Central Standard Time),614475.5,A,wi,O,i,102,1,4583.0,609892.5,7767,WL,B,13.0
4,45.90400004386902,learn,14095.999956130981,Thu Feb 26 2026 12:22:42 GMT-0600 (Central Standard Time),614593.3000000119,A,win,O,n,98,1,4700.800000011921,609892.5,7767,WL,B,13.0
4,46.10199999809265,learn,13898.000001907349,Thu Feb 26 2026 12:22:42 GMT-0600 (Central Standard Time),614791.400000006,A,wind,O,d,180,1,4898.9000000059605,609892.5,7767,WL,B,13.0
4,46.30299997329712,learn,13697.00002670288,Thu Feb 26 2026 12:22:42 GMT-0600 (Central Standard Time),614991.900000006,A,windo,O,o,180,1,5099.4000000059605,609892.5,7767,WL,B,13.0
4,47.48399996757507,learn,12516.000032424927,Thu Feb 26 2026 12:22:42 GMT-0600 (Central Standard Time),616173.400000006,A,window,O,w,1164,1,6280.9000000059605,609892.5,7767,WL,B,13.0
4,47.867000102996826,learn,12132.999897003174,Thu Feb 26 2026 12:22:42 GMT-0600 (Central Standard Time),616556.7000000179,A,windowenter,O,enter,376,1,6664.200000017881,609892.5,7767,WL,B,13.0
4,48.51900005340576,learn,11480.999946594238,Thu Feb 26 2026 12:22:42 GMT-0600 (Central Standard Time),617208.7000000179,A,c,O,c,634,1,651.9000000059605,616556.8000000119,7767,WL,B,14.0
4,48.6010000705719,learn,11398.9999294281,Thu Feb 26 2026 12:22:42 GMT-0600 (Central Standard Time),617290.5,A,cl,O,l,67,1,733.6999999880791,616556.8000000119,7767,WL,B,14.0
4,48.78500008583069,learn,11214.999914169312,Thu Feb 26 2026 12:22:42 GMT-0600 (Central Standard Time),617474.7000000179,A,clo,O,o,178,1,917.9000000059605,616556.8000000119,7767,WL,B,14.0
4,49.00100016593933,learn,10998.999834060669,Thu Feb 26 2026 12:22:42 GMT-0600 (Central Standard Time),617690.7000000179,A,cloc,O,c,203,1,1133.9000000059605,616556.8000000119,7767,WL,B,14.0
4,49.11800003051758,learn,10881.999969482422,Thu Feb 26 2026 12:22:42 GMT-0600 (Central Standard Time),617807.099999994,A,clock,O,k,99,1,1250.2999999821186,616556.8000000119,7767,WL,B,14.0
4,50.53400015830994,learn,9465.999841690063,Thu Feb 26 2026 12:22:42 GMT-0600 (Central Standard Time),619223.599999994,A,clockenter,O,enter,1397,1,2666.7999999821186,616556.8000000119,7767,WL,B,14.0
4,51.1010000705719,learn,8898.9999294281,Thu Feb 26 2026 12:22:42 GMT-0600 (Central Standard Time),619789.900000006,A,p,O,p,559,1,566.0,619223.900000006,7767,WL,B,15.0
4,51.43500018119812,learn,8564.99981880188,Thu Feb 26 2026 12:22:42 GMT-0600 (Central Standard Time),620123.900000006,A,pu,O,u,328,1,900.0,619223.900000006,7767,WL,B,15.0
4,52.13300013542175,learn,7866.999864578247,Thu Feb 26 2026 12:22:42 GMT-0600 (Central Standard Time),620822.0,A,pup,O,p,681,1,1598.0999999940395,619223.900000006,7767,WL,B,15.0
4,52.401000022888184,learn,7598.999977111816,Thu Feb 26 2026 12:22:42 GMT-0600 (Central Standard Time),621090.3000000119,A,pupi,O,i,250,1,1866.4000000059605,619223.900000006,7767,WL,B,15.0
4,52.68300008773804,learn,7316.999912261963,Thu Feb 26 2026 12:22:42 GMT-0600 (Central Standard Time),621372.5,A,pupil,O,l,266,1,2148.5999999940395,619223.900000006,7767,WL,B,15.0
4,53.568000078201294,learn,6431.999921798706,Thu Feb 26 2026 12:22:42 GMT-0600 (Central Standard Time),622257.2000000179,A,pupilenter,O,enter,872,1,3033.300000011921,619223.900000006,7767,WL,B,15.0
5,1.63100004196167,learn,60000.0,Thu Feb 26 2026 12:22:42 GMT-0600 (Central Standard Time),699381.2000000179,A,f,O,f,1622,1,1630.2000000178814,697751.0,7767,WL,B,1.0
5,2.0969998836517334,learn,60000.0,Thu Feb 26 2026 12:22:42 GMT-0600 (Central Standard Time),699847.900000006,A,fi,O,i,454,1,2096.9000000059605,697751.0,7767,WL,B,1.0
5,2.315999984741211,learn,60000.0,Thu Feb 26 2026 12:22:42 GMT-0600 (Central Standard Time),700066.7000000179,A,fir,O,r,204,1,2315.7000000178814,697751.0,7767,WL,B,1.0
5,2.497999906539917,learn,60000.0,Thu Feb 26 2026 12:22:42 GMT-0600 (Central Standard Time),700248.3000000119,A,fire,O,e,160,1,2497.300000011921,697751.0,7767,WL,B,1.0
5,3.5989999771118164,learn,60000.0,Thu Feb 26 2026 12:22:42 GMT-0600 (Central Standard Time),701349.900000006,A,fireenter,O,enter,1082,1,3598.9000000059605,697751.0,7767,WL,B,1.0
5,4.180999994277954,learn,60000.0,Thu Feb 26 2026 12:22:42 GMT-0600 (Central Standard Time),701931.3000000119,A,s,O,s,577,1,581.2000000178814,701350.099999994,7767,WL,B,2.0
5,4.38100004196167,learn,60000.0,Thu Feb 26 2026 12:22:42 GMT-0600 (Central Standard Time),702131.7000000179,A,sk,O,k,183,1,781.6000000238419,701350.099999994,7767,WL,B,2.0
5,4.614000082015991,learn,60000.0,Thu Feb 26 2026 12:22:42 GMT-0600 (Central Standard Time),702364.900000006,A,ski,O,i,209,1,1014.8000000119209,701350.099999994,7767,WL,B,2.0
5,4.864000082015991,learn,60000.0,Thu Feb 26 2026 12:22:42 GMT-0600 (Central Standard Time),702614.3000000119,A,skin,O,n,230,1,1264.2000000178814,701350.099999994,7767,WL,B,2.0
5,6.8459999561309814,learn,60000.0,Thu Feb 26 2026 12:22:42 GMT-0600 (Central Standard Time),704596.8000000119,A,skinenter,O,enter,1967,1,3246.7000000178814,701350.099999994,7767,WL,B,2.0
5,7.480000019073486,learn,60000.0,Thu Feb 26 2026 12:22:42 GMT-0600 (Central Standard Time),705229.900000006,A,p,O,p,624,1,632.8000000119209,704597.099999994,7767,WL,B,3.0
5,7.744999885559082,learn,60000.0,Thu Feb 26 2026 12:22:42 GMT-0600 (Central Standard Time),705495.599999994,A,pi,O,i,256,1,898.5,704597.099999994,7767,WL,B,3.0
5,7.928999900817871,learn,60000.0,Thu Feb 26 2026 12:22:42 GMT-0600 (Central Standard Time),705679.7000000179,A,pip,O,p,173,1,1082.6000000238419,704597.099999994,7767,WL,B,3.0
5,8.213000059127808,learn,60000.0,Thu Feb 26 2026 12:22:42 GMT-0600 (Central Standard Time),705963.7000000179,A,pipe,O,e,271,1,1366.6000000238419,704597.099999994,7767,WL,B,3.0
5,9.878999948501587,learn,60000.0,Thu Feb 26 2026 12:22:42 GMT-0600 (Central Standard Time),707629.400000006,A,pipeenter,O,enter,1648,1,3032.300000011921,704597.099999994,7767,WL,B,3.0
5,10.529000043869019,learn,60000.0,Thu Feb 26 2026 12:22:42 GMT-0600 (Central Standard Time),708279.099999994,A,a,O,a,633,1,649.5,707629.599999994,7767,WL,B,4.0
5,10.730000019073486,learn,60000.0,Thu Feb 26 2026 12:22:42 GMT-0600 (Central Standard Time),708480.599999994,A,ar,O,r,187,1,851.0,707629.599999994,7767,WL,B,4.0
5,11.843999862670898,learn,60000.0,Thu Feb 26 2026 12:22:42 GMT-0600 (Central Standard Time),709594.7000000179,A,arn,O,n,1100,1,1965.1000000238419,707629.599999994,7767,WL,B,4.0
5,13.19599986076355,learn,60000.0,Thu Feb 26 2026 12:22:42 GMT-0600 (Central Standard Time),710946.900000006,A,ar,O,backspace,1328,1,3317.300000011921,707629.599999994,7767,WL,B,4.0
5,14.226999998092651,learn,60000.0,Thu Feb 26 2026 12:22:42 GMT-0600 (Central Standard Time),711977.8000000119,A,arm,O,m,1011,1,4348.200000017881,707629.599999994,7767,WL,B,4.0
5,15.611999988555908,learn,60000.0,Thu Feb 26 2026 12:22:42 GMT-0600 (Central Standard Time),713362.400000006,A,armenter,O,enter,1380,1,5732.800000011921,707629.599999994,7767,WL,B,4.0
5,16.91100001335144,learn,60000.0,Thu Feb 26 2026 12:22:42 GMT-0600 (Central Standard Time),714661.8000000119,A,w,O,w,1283,1,1299.0999999940395,713362.7000000179,7767,WL,B,5.0
5,17.009000062942505,learn,60000.0,Thu Feb 26 2026 12:22:42 GMT-0600 (Central Standard Time),714759.5,A,wi,O,i,84,1,1396.7999999821186,713362.7000000179,7767,WL,B,5.0
5,17.128000020980835,learn,60000.0,Thu Feb 26 2026 12:22:42 GMT-0600 (Central Standard Time),714878.0,A,win,O,n,107,1,1515.2999999821186,713362.7000000179,7767,WL,B,5.0
5,17.4760000705719,learn,60000.0,Thu Feb 26 2026 12:22:42 GMT-0600 (Central Standard Time),715226.400000006,A,wind,O,d,328,1,1863.699999988079,713362.7000000179,7767,WL,B,5.0
5,17.626999855041504,learn,60000.0,Thu Feb 26 2026 12:22:42 GMT-0600 (Central Standard Time),715377.7000000179,A,windo,O,o,136,1,2015.0,713362.7000000179,7767,WL,B,5.0
5,17.80900001525879,learn,60000.0,Thu Feb 26 2026 12:22:42 GMT-0600 (Central Standard Time),715560.099999994,A,window,O,w,173,1,2197.399999976158,713362.7000000179,7767,WL,B,5.0
5,18.875999927520752,learn,60000.0,Thu Feb 26 2026 12:22:42 GMT-0600 (Central Standard Time),716626.400000006,A,windowenter,O,enter,1060,1,3263.699999988079,713362.7000000179,7767,WL,B,5.0
5,19.460000038146973,learn,60000.0,Thu Feb 26 2026 12:22:42 GMT-0600 (Central Standard Time),717210.8000000119,A,c,O,c,562,1,584.2000000178814,716626.599999994,7767,WL,B,6.0
5,19.57699990272522,learn,60000.0,Thu Feb 26 2026 12:22:42 GMT-0600 (Central Standard Time),717327.599999994,A,cl,O,l,101,1,701.0,716626.599999994,7767,WL,B,6.0
5,19.776999950408936,learn,60000.0,Thu Feb 26 2026 12:22:42 GMT-0600 (Central Standard Time),717527.900000006,A,clo,O,o,179,1,901.3000000119209,716626.599999994,7767,WL,B,6.0
5,20.007999897003174,learn,60000.0,Thu Feb 26 2026 12:22:42 GMT-0600 (Central Standard Time),717758.8000000119,A,cloc,O,c,220,1,1132.2000000178814,716626.599999994,7767,WL,B,6.0
5,20.126999855041504,learn,60000.0,Thu Feb 26 2026 12:22:42 GMT-0600 (Central Standard Time),717877.3000000119,A,clock,O,k,97,1,1250.7000000178814,716626.599999994,7767,WL,B,6.0
5,21.325000047683716,learn,60000.0,Thu Feb 26 2026 12:22:42 GMT-0600 (Central Standard Time),719075.5,A,clockenter,O,enter,1182,1,2448.9000000059605,716626.599999994,7767,WL,B,6.0
5,22.2739999294281,learn,60000.0,Thu Feb 26 2026 12:22:42 GMT-0600 (Central Standard Time),720025.2000000179,A,w,O,w,938,1,949.5,719075.7000000179,7767,WL,B,7.0
5,22.35699987411499,learn,60000.0,Thu Feb 26 2026 12:22:42 GMT-0600 (Central Standard Time),720108.099999994,A,wi,O,i,75,1,1032.3999999761581,719075.7000000179,7767,WL,B,7.0
5,22.45899987220764,learn,60000.0,Thu Feb 26 2026 12:22:42 GMT-0600 (Central Standard Time),720210.0,A,win,O,n,97,1,1134.2999999821186,719075.7000000179,7767,WL,B,7.0
5,22.60800004005432,learn,60000.0,Thu Feb 26 2026 12:22:42 GMT-0600 (Central Standard Time),720358.8000000119,A,wind,O,d,140,1,1283.0999999940395,719075.7000000179,7767,WL,B,7.0
5,22.823999881744385,learn,60000.0,Thu Feb 26 2026 12:22:42 GMT-0600 (Central Standard Time),720574.7000000179,A,windo,O,o,197,1,1499.0,719075.7000000179,7767,WL,B,7.0
5,23.10699987411499,learn,60000.0,Thu Feb 26 2026 12:22:42 GMT-0600 (Central Standard Time),720858.099999994,A,window,O,w,261,1,1782.3999999761581,719075.7000000179,7767,WL,B,7.0
5,24.223999977111816,learn,60000.0,Thu Feb 26 2026 12:22:42 GMT-0600 (Central Standard Time),721975.0,A,windowenter,O,enter,1096,1,2899.2999999821186,719075.7000000179,7767,WL,B,7.0
5,25.305999994277954,learn,60000.0,Thu Feb 26 2026 12:22:42 GMT-0600 (Central Standard Time),723057.099999994,A,s,O,s,1070,1,1081.7999999821186,721975.3000000119,7767,WL,B,8.0
5,25.558000087738037,learn,60000.0,Thu Feb 26 2026 12:22:42 GMT-0600 (Central Standard Time),723308.900000006,A,st,O,t,234,1,1333.5999999940395,721975.3000000119,7767,WL,B,8.0
5,25.75600004196167,learn,60000.0,Thu Feb 26 2026 12:22:42 GMT-0600 (Central Standard Time),723506.8000000119,A,str,O,r,190,1,1531.5,721975.3000000119,7767,WL,B,8.0
5,26.092000007629395,learn,60000.0,Thu Feb 26 2026 12:22:42 GMT-0600 (Central Standard Time),723842.400000006,A,stre,O,e,320,1,1867.0999999940395,721975.3000000119,7767,WL,B,8.0
5,26.207000017166138,learn,60000.0,Thu Feb 26 2026 12:22:42 GMT-0600 (Central Standard Time),723958.3000000119,A,stree,O,e,108,1,1983.0,721975.3000000119,7767,WL,B,8.0
5,26.35800004005432,learn,60000.0,Thu Feb 26 2026 12:22:42 GMT-0600 (Central Standard Time),724108.400000006,A,street,O,t,144,1,2133.0999999940395,721975.3000000119,7767,WL,B,8.0
5,27.289000034332275,learn,60000.0,Thu Feb 26 2026 12:22:42 GMT-0600 (Central Standard Time),725040.0,A,streetenter,O,enter,921,1,3064.699999988079,721975.3000000119,7767,WL,B,8.0
5,27.688999891281128,learn,60000.0,Thu Feb 26 2026 12:22:42 GMT-0600 (Central Standard Time),725439.8000000119,A,g,O,g,391,1,399.59999999403954,725040.2000000179,7767,WL,B,9.0
5,27.905999898910522,learn,60000.0,Thu Feb 26 2026 12:22:42 GMT-0600 (Central Standard Time),725656.7000000179,A,gr,O,r,205,1,616.5,725040.2000000179,7767,WL,B,9.0
5,28.072999954223633,learn,60000.0,Thu Feb 26 2026 12:22:42 GMT-0600 (Central Standard Time),725823.7000000179,A,gra,O,a,157,1,783.5,725040.2000000179,7767,WL,B,9.0
5,28.389999866485596,learn,60000.0,Thu Feb 26 2026 12:22:42 GMT-0600 (Central Standard Time),726140.599999994,A,gras,O,s,299,1,1100.3999999761581,725040.2000000179,7767,WL,B,9.0
5,28.52300000190735,learn,60000.0,Thu Feb 26 2026 12:22:42 GMT-0600 (Central Standard Time),726273.900000006,A,grass,O,s,122,1,1233.699999988079,725040.2000000179,7767,WL,B,9.0
5,29.19000005722046,learn,60000.0,Thu Feb 26 2026 12:22:42 GMT-0600 (Central Standard Time),726940.8000000119,A,grassenter,O,enter,658,1,1900.5999999940395,725040.2000000179,7767,WL,B,9.0
5,29.871999979019165,learn,60000.0,Thu Feb 26 2026 12:22:42 GMT-0600 (Central Standard Time),727622.8000000119,A,p,O,p,673,1,681.7000000178814,726941.099999994,7767,WL,B,10.0
5,30.1729998588562,learn,60000.0,Thu Feb 26 2026 12:22:42 GMT-0600 (Central Standard Time),727924.0,A,pu,O,u,297,1,982.9000000059605,726941.099999994,7767,WL,B,10.0
5,31.772000074386597,learn,60000.0,Thu Feb 26 2026 12:22:42 GMT-0600 (Central Standard Time),729522.5,A,pup,O,p,1586,1,2581.4000000059605,726941.099999994,7767,WL,B,10.0
5,32.15299987792969,learn,60000.0,Thu Feb 26 2026 12:22:42 GMT-0600 (Central Standard Time),729903.900000006,A,pupi,O,i,370,1,2962.800000011921,726941.099999994,7767,WL,B,10.0
5,32.687999963760376,learn,60000.0,Thu Feb 26 2026 12:22:42 GMT-0600 (Central Standard Time),730438.900000006,A,pupil,O,l,520,1,3497.800000011921,726941.099999994,7767,WL,B,10.0
5,33.90700006484985,learn,60000.0,Thu Feb 26 2026 12:22:42 GMT-0600 (Central Standard Time),731657.3000000119,A,pupilenter,O,enter,1195,1,4716.200000017881,726941.099999994,7767,WL,B,10.0
5,35.73799991607666,learn,60000.0,Thu Feb 26 2026 12:22:42 GMT-0600 (Central Standard Time),733488.599999994,A,s,O,s,1811,1,1831.0,731657.599999994,7767,WL,B,11.0
5,36.00399994850159,learn,60000.0,Thu Feb 26 2026 12:22:42 GMT-0600 (Central Standard Time),733754.3000000119,A,st,O,t,252,1,2096.7000000178814,731657.599999994,7767,WL,B,11.0
5,36.15299987792969,learn,60000.0,Thu Feb 26 2026 12:22:42 GMT-0600 (Central Standard Time),733903.7000000179,A,sta,O,a,130,1,2246.100000023842,731657.599999994,7767,WL,B,11.0
5,36.319000005722046,learn,60000.0,Thu Feb 26 2026 12:22:42 GMT-0600 (Central Standard Time),734070.2000000179,A,star,O,r,150,1,2412.600000023842,731657.599999994,7767,WL,B,11.0
5,36.53699994087219,learn,60000.0,Thu Feb 26 2026 12:22:42 GMT-0600 (Central Standard Time),734287.400000006,A,start,O,t,208,1,2629.800000011921,731657.599999994,7767,WL,B,11.0
5,37.151999950408936,learn,60000.0,Thu Feb 26 2026 12:22:42 GMT-0600 (Central Standard Time),734902.900000006,A,startenter,O,enter,596,1,3245.300000011921,731657.599999994,7767,WL,B,11.0
5,37.63700008392334,learn,60000.0,Thu Feb 26 2026 12:22:42 GMT-0600 (Central Standard Time),735388.0,A,f,O,f,481,1,484.90000000596046,734903.099999994,7767,WL,B,12.0
5,37.736000061035156,learn,60000.0,Thu Feb 26 2026 12:22:42 GMT-0600 (Central Standard Time),735486.7000000179,A,fi,O,i,88,1,583.6000000238419,734903.099999994,7767,WL,B,12.0
5,37.86999988555908,learn,60000.0,Thu Feb 26 2026 12:22:42 GMT-0600 (Central Standard Time),735620.400000006,A,fir,O,r,130,1,717.3000000119209,734903.099999994,7767,WL,B,12.0
5,40.3199999332428,learn,60000.0,Thu Feb 26 2026 12:22:42 GMT-0600 (Central Standard Time),738070.400000006,A,fire,O,e,2431,1,3167.300000011921,734903.099999994,7767,WL,B,12.0
5,41.384000062942505,learn,60000.0,Thu Feb 26 2026 12:22:42 GMT-0600 (Central Standard Time),739135.2000000179,A,fireenter,O,enter,1046,1,4232.100000023842,734903.099999994,7767,WL,B,12.0
5,42.75099992752075,learn,60000.0,Thu Feb 26 2026 12:22:42 GMT-0600 (Central Standard Time),740501.900000006,A,p,O,p,1351,1,1366.5,739135.400000006,7767,WL,B,13.0
5,43.05299997329712,learn,60000.0,Thu Feb 26 2026 12:22:42 GMT-0600 (Central Standard Time),740803.599999994,A,pu,O,u,279,1,1668.199999988079,739135.400000006,7767,WL,B,13.0
5,43.401000022888184,learn,60000.0,Thu Feb 26 2026 12:22:42 GMT-0600 (Central Standard Time),741151.900000006,A,pup,O,p,329,1,2016.5,739135.400000006,7767,WL,B,13.0
5,43.66700005531311,learn,60000.0,Thu Feb 26 2026 12:22:42 GMT-0600 (Central Standard Time),741418.0,A,pupi,O,i,260,1,2282.5999999940395,739135.400000006,7767,WL,B,13.0
5,44.00099992752075,learn,60000.0,Thu Feb 26 2026 12:22:42 GMT-0600 (Central Standard Time),741751.599999994,A,pupik,O,k,316,1,2616.199999988079,739135.400000006,7767,WL,B,13.0
5,44.78399991989136,learn,60000.0,Thu Feb 26 2026 12:22:42 GMT-0600 (Central Standard Time),742534.7000000179,A,pupi,O,backspace,771,1,3399.300000011921,739135.400000006,7767,WL,B,13.0
5,45.66700005531311,learn,60000.0,Thu Feb 26 2026 12:22:42 GMT-0600 (Central Standard Time),743418.099999994,A,pupil,O,l,863,1,4282.699999988079,739135.400000006,7767,WL,B,13.0
5,46.11800003051758,learn,60000.0,Thu Feb 26 2026 12:22:42 GMT-0600 (Central Standard Time),743868.5,A,pupilenter,O,enter,434,1,4733.0999999940395,739135.400000006,7767,WL,B,13.0
5,47.00099992752075,learn,60000.0,Thu Feb 26 2026 12:22:42 GMT-0600 (Central Standard Time),744751.900000006,A,w,O,w,874,1,883.1999999880791,743868.7000000179,7767,WL,B,14.0
5,47.11699986457825,learn,60000.0,Thu Feb 26 2026 12:22:42 GMT-0600 (Central Standard Time),744867.5,A,wi,O,i,101,1,998.7999999821186,743868.7000000179,7767,WL,B,14.0
5,47.384000062942505,learn,60000.0,Thu Feb 26 2026 12:22:42 GMT-0600 (Central Standard Time),745135.099999994,A,wif,O,f,249,1,1266.3999999761581,743868.7000000179,7767,WL,B,14.0
5,47.63499999046326,learn,60000.0,Thu Feb 26 2026 12:22:42 GMT-0600 (Central Standard Time),745385.400000006,A,wife,O,e,239,1,1516.699999988079,743868.7000000179,7767,WL,B,14.0
5,48.54900002479553,learn,60000.0,Thu Feb 26 2026 12:22:42 GMT-0600 (Central Standard Time),746299.599999994,A,wifeenter,O,enter,900,1,2430.899999976158,743868.7000000179,7767,WL,B,14.0
5,48.950000047683716,learn,60000.0,Thu Feb 26 2026 12:22:42 GMT-0600 (Central Standard Time),746700.5,A,c,O,c,396,1,400.59999999403954,746299.900000006,7767,WL,B,15.0
5,49.068000078201294,learn,60000.0,Thu Feb 26 2026 12:22:42 GMT-0600 (Central Standard Time),746818.7000000179,A,ca,O,a,96,1,518.8000000119209,746299.900000006,7767,WL,B,15.0
5,49.33299994468689,learn,60000.0,Thu Feb 26 2026 12:22:42 GMT-0600 (Central Standard Time),747084.2000000179,A,cab,O,b,250,1,784.3000000119209,746299.900000006,7767,WL,B,15.0
5,49.78200006484985,learn,60000.0,Thu Feb 26 2026 12:22:42 GMT-0600 (Central Standard Time),747533.2000000179,A,cabi,O,i,431,1,1233.300000011921,746299.900000006,7767,WL,B,15.0
5,50.448999881744385,learn,60000.0,Thu Feb 26 2026 12:22:42 GMT-0600 (Central Standard Time),748199.3000000119,A,cabin,O,n,656,1,1899.4000000059605,746299.900000006,7767,WL,B,15.0
5,51.58299994468689,learn,60000.0,Thu Feb 26 2026 12:22:42 GMT-0600 (Central Standard Time),749333.400000006,A,cabinenter,O,enter,1124,1,3033.5,746299.900000006,7767,WL,B,15.0
6,6.166000127792358,distr,53833.99987220764,Thu Feb 26 2026 12:22:42 GMT-0600 (Central Standard Time),834523.0,B,c,O,c,6157,1,6165.5999999940395,828357.400000006,7767,WL,B,1.0
6,6.464000225067139,distr,53535.99977493286,Thu Feb 26 2026 12:22:42 GMT-0600 (Central Standard Time),834821.3000000119,B,ce,O,e,284,1,6463.9000000059605,828357.400000006,7767,WL,B,1.0
6,6.996000051498413,distr,53003.99994850159,Thu Feb 26 2026 12:22:42 GMT-0600 (Central Standard Time),835355.5,B,cel,O,l,508,1,6998.0999999940395,828357.400000006,7767,WL,B,1.0
6,7.26200008392334,distr,52737.99991607666,Thu Feb 26 2026 12:22:42 GMT-0600 (Central Standard Time),835621.2000000179,B,cell,O,l,250,1,7263.800000011921,828357.400000006,7767,WL,B,1.0
6,8.763000011444092,distr,51236.99998855591,Thu Feb 26 2026 12:22:42 GMT-0600 (Central Standard Time),837121.7000000179,B,cellenter,O,enter,1484,1,8764.300000011921,828357.400000006,7767,WL,B,1.0
6,9.712000131607056,distr,50287.999868392944,Thu Feb 26 2026 12:22:42 GMT-0600 (Central Standard Time),838071.0,B,p,O,p,941,1,949.0999999940395,837121.900000006,7767,WL,B,2.0
6,10.028000116348267,distr,49971.99988365173,Thu Feb 26 2026 12:22:42 GMT-0600 (Central Standard Time),838387.599999994,B,pa,O,a,302,1,1265.699999988079,837121.900000006,7767,WL,B,2.0
6,10.214000225067139,distr,49785.99977493286,Thu Feb 26 2026 12:22:42 GMT-0600 (Central Standard Time),838573.099999994,B,pal,O,l,180,1,1451.199999988079,837121.900000006,7767,WL,B,2.0
6,10.32800006866455,distr,49671.99993133545,Thu Feb 26 2026 12:22:42 GMT-0600 (Central Standard Time),838686.7000000179,B,pala,O,a,93,1,1564.800000011921,837121.900000006,7767,WL,B,2.0
6,10.612000226974487,distr,49387.99977302551,Thu Feb 26 2026 12:22:42 GMT-0600 (Central Standard Time),838971.2000000179,B,palac,O,c,279,1,1849.300000011921,837121.900000006,7767,WL,B,2.0
6,10.84500002861023,distr,49154.99997138977,Thu Feb 26 2026 12:22:42 GMT-0600 (Central Standard Time),839204.099999994,B,palace,O,e,211,1,2082.199999988079,837121.900000006,7767,WL,B,2.0
6,11.811000108718872,distr,48188.99989128113,Thu Feb 26 2026 12:22:42 GMT-0600 (Central Standard Time),840170.5,B,palaceenter,O,enter,943,1,3048.5999999940395,837121.900000006,7767,WL,B,2.0
6,12.378000020980835,distr,47621.999979019165,Thu Feb 26 2026 12:22:42 GMT-0600 (Central Standard Time),840737.099999994,B,o,O,o,546,1,566.2999999821186,840170.8000000119,7767,WL,B,3.0
6,12.611000061035156,distr,47388.999938964844,Thu Feb 26 2026 12:22:42 GMT-0600 (Central Standard Time),840969.900000006,B,oc,O,c,209,1,799.0999999940395,840170.8000000119,7767,WL,B,3.0
6,12.860000133514404,distr,47139.999866485596,Thu Feb 26 2026 12:22:42 GMT-0600 (Central Standard Time),841219.599999994,B,oce,O,e,234,1,1048.7999999821186,840170.8000000119,7767,WL,B,3.0
6,13.077000141143799,distr,46922.9998588562,Thu Feb 26 2026 12:22:42 GMT-0600 (Central Standard Time),841436.400000006,B,ocea,O,a,208,1,1265.5999999940395,840170.8000000119,7767,WL,B,3.0
6,13.543000221252441,distr,46456.99977874756,Thu Feb 26 2026 12:22:42 GMT-0600 (Central Standard Time),841902.599999994,B,ocean,O,n,449,1,1731.7999999821186,840170.8000000119,7767,WL,B,3.0
6,14.360000133514404,distr,45639.999866485596,Thu Feb 26 2026 12:22:42 GMT-0600 (Central Standard Time),842719.0,B,oceanenter,O,enter,805,1,2548.199999988079,840170.8000000119,7767,WL,B,3.0
6,14.777000188827515,distr,45222.999811172485,Thu Feb 26 2026 12:22:42 GMT-0600 (Central Standard Time),843136.5,B,b,O,b,407,1,417.2999999821186,842719.2000000179,7767,WL,B,4.0
6,14.910000085830688,distr,45089.99991416931,Thu Feb 26 2026 12:22:42 GMT-0600 (Central Standard Time),843269.599999994,B,ba,O,a,125,1,550.3999999761581,842719.2000000179,7767,WL,B,4.0
6,15.144000053405762,distr,44855.99994659424,Thu Feb 26 2026 12:22:42 GMT-0600 (Central Standard Time),843502.900000006,B,bab,O,b,223,1,783.6999999880791,842719.2000000179,7767,WL,B,4.0
6,15.56000018119812,distr,44439.99981880188,Thu Feb 26 2026 12:22:42 GMT-0600 (Central Standard Time),843918.900000006,B,baby,O,y,399,1,1199.699999988079,842719.2000000179,7767,WL,B,4.0
6,16.760000228881836,distr,43239.999771118164,Thu Feb 26 2026 12:22:42 GMT-0600 (Central Standard Time),845119.5,B,babyenter,O,enter,1182,1,2400.2999999821186,842719.2000000179,7767,WL,B,4.0
6,17.259000062942505,distr,42740.999937057495,Thu Feb 26 2026 12:22:42 GMT-0600 (Central Standard Time),845618.5,B,l,O,l,486,1,498.7999999821186,845119.7000000179,7767,WL,B,5.0
6,17.54300022125244,distr,42456.99977874756,Thu Feb 26 2026 12:22:42 GMT-0600 (Central Standard Time),845902.5,B,li,O,i,276,1,782.7999999821186,845119.7000000179,7767,WL,B,5.0
6,18.075000047683716,distr,41924.999952316284,Thu Feb 26 2026 12:22:42 GMT-0600 (Central Standard Time),846434.599999994,B,lip,O,p,528,1,1314.8999999761581,845119.7000000179,7767,WL,B,5.0
6,19.391000032424927,distr,40608.99996757507,Thu Feb 26 2026 12:22:42 GMT-0600 (Central Standard Time),847750.099999994,B,lipenter,O,enter,1305,1,2630.399999976158,845119.7000000179,7767,WL,B,5.0
6,27.539000034332275,distr,32460.999965667725,Thu Feb 26 2026 12:22:42 GMT-0600 (Central Standard Time),855897.900000006,B,h,O,h,8145,1,8147.5999999940395,847750.3000000119,7767,WL,B,6.0
6,27.908000230789185,distr,32091.999769210815,Thu Feb 26 2026 12:22:42 GMT-0600 (Central Standard Time),856267.400000006,B,ho,O,o,355,1,8517.09999999404,847750.3000000119,7767,WL,B,6.0
6,28.40500020980835,distr,31594.99979019165,Thu Feb 26 2026 12:22:42 GMT-0600 (Central Standard Time),856764.599999994,B,hos,O,s,488,1,9014.299999982119,847750.3000000119,7767,WL,B,6.0
6,28.539000034332275,distr,31460.999965667725,Thu Feb 26 2026 12:22:42 GMT-0600 (Central Standard Time),856897.8000000119,B,hosp,O,p,112,1,9147.5,847750.3000000119,7767,WL,B,6.0
6,29.057000160217285,distr,30942.999839782715,Thu Feb 26 2026 12:22:42 GMT-0600 (Central Standard Time),857415.7000000179,B,hospi,O,i,499,1,9665.40000000596,847750.3000000119,7767,WL,B,6.0
6,29.223000049591064,distr,30776.999950408936,Thu Feb 26 2026 12:22:42 GMT-0600 (Central Standard Time),857582.099999994,B,hospit,O,t,149,1,9831.799999982119,847750.3000000119,7767,WL,B,6.0
6,29.373000144958496,distr,30626.999855041504,Thu Feb 26 2026 12:22:42 GMT-0600 (Central Standard Time),857731.7000000179,B,hospita,O,a,144,1,9981.40000000596,847750.3000000119,7767,WL,B,6.0
6,29.52300000190735,distr,30476.99999809265,Thu Feb 26 2026 12:22:42 GMT-0600 (Central Standard Time),857882.5,B,hospital,O,l,145,1,10132.199999988079,847750.3000000119,7767,WL,B,6.0
6,30.58900022506714,distr,29410.99977493286,Thu Feb 26 2026 12:22:42 GMT-0600 (Central Standard Time),858947.900000006,B,hospitalenter,O,enter,1060,1,11197.59999999404,847750.3000000119,7767,WL,B,6.0
6,36.420000076293945,distr,23579.999923706055,Thu Feb 26 2026 12:22:42 GMT-0600 (Central Standard Time),864779.3000000119,B,l,O,l,5817,1,5831.0999999940395,858948.2000000179,7767,WL,B,7.0
6,36.87000012397766,distr,23129.99987602234,Thu Feb 26 2026 12:22:42 GMT-0600 (Central Standard Time),865228.8000000119,B,li,O,i,445,1,6280.5999999940395,858948.2000000179,7767,WL,B,7.0
6,37.503000020980835,distr,22496.999979019165,Thu Feb 26 2026 12:22:42 GMT-0600 (Central Standard Time),865862.3000000119,B,lip,O,p,615,1,6914.0999999940395,858948.2000000179,7767,WL,B,7.0
6,38.41900014877319,distr,21580.999851226807,Thu Feb 26 2026 12:22:42 GMT-0600 (Central Standard Time),866778.400000006,B,lipenter,O,enter,897,1,7830.199999988079,858948.2000000179,7767,WL,B,7.0
6,39.53600001335144,distr,20463.99998664856,Thu Feb 26 2026 12:22:42 GMT-0600 (Central Standard Time),867894.599999994,B,b,O,b,1107,1,1116.0,866778.599999994,7767,WL,B,8.0
6,39.71900010108948,distr,20280.999898910522,Thu Feb 26 2026 12:22:42 GMT-0600 (Central Standard Time),868078.099999994,B,ba,O,a,166,1,1299.5,866778.599999994,7767,WL,B,8.0
6,39.88600015640259,distr,20113.999843597412,Thu Feb 26 2026 12:22:42 GMT-0600 (Central Standard Time),868244.7000000179,B,bab,O,b,151,1,1466.1000000238419,866778.599999994,7767,WL,B,8.0
6,40.187000036239624,distr,19812.999963760376,Thu Feb 26 2026 12:22:42 GMT-0600 (Central Standard Time),868545.900000006,B,baby,O,y,280,1,1767.300000011921,866778.599999994,7767,WL,B,8.0
6,40.70300006866455,distr,19296.99993133545,Thu Feb 26 2026 12:22:42 GMT-0600 (Central Standard Time),869062.400000006,B,babyenter,O,enter,508,1,2283.800000011921,866778.599999994,7767,WL,B,8.0
6,49.199000120162964,distr,10800.999879837036,Thu Feb 26 2026 12:22:42 GMT-0600 (Central Standard Time),877557.8000000119,B,r,O,r,8476,1,8494.800000011921,869063.0,7767,WL,B,9.0
6,49.43300008773804,distr,10566.999912261963,Thu Feb 26 2026 12:22:42 GMT-0600 (Central Standard Time),877792.099999994,B,ro,O,o,223,1,8729.09999999404,869063.0,7767,WL,B,9.0
6,51.449000120162964,distr,8550.999879837036,Thu Feb 26 2026 12:22:42 GMT-0600 (Central Standard Time),879807.900000006,B,r,O,backspace,2006,1,10744.90000000596,869063.0,7767,WL,B,9.0
6,51.83200001716614,distr,8167.999982833862,Thu Feb 26 2026 12:22:42 GMT-0600 (Central Standard Time),880191.5,B,,O,backspace,366,1,11128.5,869063.0,7767,WL,B,9.0
6,60.015000104904175,distr,-15.000104904174805,Thu Feb 26 2026 12:22:42 GMT-0600 (Central Standard Time),888374.400000006,B,None,O,None,8176,1,19311.40000000596,869063.0,7767,WL,B,9.0
7,5.2820000648498535,immed,54717.99993515015,Thu Feb 26 2026 12:22:42 GMT-0600 (Central Standard Time),913613.599999994,A,s,O,s,5266,1,5282.199999988079,908331.400000006,7767,WL,B,1.0
7,5.615000009536743,immed,54384.99999046326,Thu Feb 26 2026 12:22:42 GMT-0600 (Central Standard Time),913946.5,A,st,O,t,320,1,5615.0999999940395,908331.400000006,7767,WL,B,1.0
7,5.764000177383423,immed,54235.99982261658,Thu Feb 26 2026 12:22:42 GMT-0600 (Central Standard Time),914095.400000006,A,sta,O,a,138,1,5764.0,908331.400000006,7767,WL,B,1.0
7,5.965000152587891,immed,54034.99984741211,Thu Feb 26 2026 12:22:42 GMT-0600 (Central Standard Time),914296.2000000179,A,star,O,r,182,1,5964.800000011921,908331.400000006,7767,WL,B,1.0
7,6.315000057220459,immed,53684.99994277954,Thu Feb 26 2026 12:22:42 GMT-0600 (Central Standard Time),914645.900000006,A,start,O,t,334,1,6314.5,908331.400000006,7767,WL,B,1.0
7,7.38100004196167,immed,52618.99995803833,Thu Feb 26 2026 12:22:42 GMT-0600 (Central Standard Time),915712.400000006,A,star,O,backspace,1048,1,7381.0,908331.400000006,7767,WL,B,1.0
7,8.397000074386597,immed,51602.9999256134,Thu Feb 26 2026 12:22:42 GMT-0600 (Central Standard Time),916728.2000000179,A,starenter,O,enter,997,1,8396.800000011921,908331.400000006,7767,WL,B,1.0
7,10.830000162124634,immed,49169.999837875366,Thu Feb 26 2026 12:22:42 GMT-0600 (Central Standard Time),919161.5,A,g,O,g,2414,1,2433.0,916728.5,7767,WL,B,2.0
7,11.081000089645386,immed,48918.999910354614,Thu Feb 26 2026 12:22:42 GMT-0600 (Central Standard Time),919412.400000006,A,gr,O,r,245,1,2683.9000000059605,916728.5,7767,WL,B,2.0
7,11.27999997138977,immed,48720.00002861023,Thu Feb 26 2026 12:22:42 GMT-0600 (Central Standard Time),919610.900000006,A,gra,O,a,178,1,2882.4000000059605,916728.5,7767,WL,B,2.0
7,11.663000106811523,immed,48336.99989318848,Thu Feb 26 2026 12:22:42 GMT-0600 (Central Standard Time),919994.3000000119,A,gras,O,s,371,1,3265.800000011921,916728.5,7767,WL,B,2.0
7,11.813000202178955,immed,48186.999797821045,Thu Feb 26 2026 12:22:42 GMT-0600 (Central Standard Time),920144.7000000179,A,grass,O,s,141,1,3416.2000000178814,916728.5,7767,WL,B,2.0
7,12.713000059127808,immed,47286.99994087219,Thu Feb 26 2026 12:22:42 GMT-0600 (Central Standard Time),921043.900000006,A,grassenter,O,enter,885,1,4315.4000000059605,916728.5,7767,WL,B,2.0
7,13.912000179290771,immed,46087.99982070923,Thu Feb 26 2026 12:22:42 GMT-0600 (Central Standard Time),922242.8000000119,A,c,O,c,1193,1,1198.7000000178814,921044.099999994,7767,WL,B,3.0
7,14.013000011444092,immed,45986.99998855591,Thu Feb 26 2026 12:22:42 GMT-0600 (Central Standard Time),922344.2000000179,A,ci,O,i,92,1,1300.1000000238419,921044.099999994,7767,WL,B,3.0
7,14.311000108718872,immed,45688.99989128113,Thu Feb 26 2026 12:22:42 GMT-0600 (Central Standard Time),922642.599999994,A,cit,O,t,294,1,1598.5,921044.099999994,7767,WL,B,3.0
7,14.42799997329712,immed,45572.00002670288,Thu Feb 26 2026 12:22:42 GMT-0600 (Central Standard Time),922759.400000006,A,city,O,y,99,1,1715.300000011921,921044.099999994,7767,WL,B,3.0
7,15.729000091552734,immed,44270.999908447266,Thu Feb 26 2026 12:22:42 GMT-0600 (Central Standard Time),924059.900000006,A,cityenter,O,enter,1294,1,3015.800000011921,921044.099999994,7767,WL,B,3.0
7,16.52900004386902,immed,43470.99995613098,Thu Feb 26 2026 12:22:42 GMT-0600 (Central Standard Time),924859.900000006,A,s,O,s,784,1,799.8000000119209,924060.099999994,7767,WL,B,4.0
7,16.74500012397766,immed,43254.99987602234,Thu Feb 26 2026 12:22:42 GMT-0600 (Central Standard Time),925076.0,A,st,O,t,211,1,1015.9000000059605,924060.099999994,7767,WL,B,4.0
7,16.961000204086304,immed,43038.999795913696,Thu Feb 26 2026 12:22:42 GMT-0600 (Central Standard Time),925292.3000000119,A,str,O,r,201,1,1232.2000000178814,924060.099999994,7767,WL,B,4.0
7,17.278000116348267,immed,42721.99988365173,Thu Feb 26 2026 12:22:42 GMT-0600 (Central Standard Time),925609.400000006,A,stre,O,e,312,1,1549.300000011921,924060.099999994,7767,WL,B,4.0
7,17.427000045776367,immed,42572.99995422363,Thu Feb 26 2026 12:22:42 GMT-0600 (Central Standard Time),925758.599999994,A,stree,O,e,140,1,1698.5,924060.099999994,7767,WL,B,4.0
7,17.67799997329712,immed,42322.00002670288,Thu Feb 26 2026 12:22:42 GMT-0600 (Central Standard Time),926009.2000000179,A,street,O,t,231,1,1949.1000000238419,924060.099999994,7767,WL,B,4.0
7,18.128000020980835,immed,41871.999979019165,Thu Feb 26 2026 12:22:42 GMT-0600 (Central Standard Time),926459.2000000179,A,streetenter,O,enter,446,1,2399.100000023842,924060.099999994,7767,WL,B,4.0
7,18.66100001335144,immed,41338.99998664856,Thu Feb 26 2026 12:22:42 GMT-0600 (Central Standard Time),926992.0,A,w,O,w,523,1,532.5,926459.5,7767,WL,B,5.0
7,18.877000093460083,immed,41122.99990653992,Thu Feb 26 2026 12:22:42 GMT-0600 (Central Standard Time),927208.5,A,wi,O,i,203,1,749.0,926459.5,7767,WL,B,5.0
7,19.06000018119812,immed,40939.99981880188,Thu Feb 26 2026 12:22:42 GMT-0600 (Central Standard Time),927391.099999994,A,win,O,n,173,1,931.5999999940395,926459.5,7767,WL,B,5.0
7,19.292999982833862,immed,40707.00001716614,Thu Feb 26 2026 12:22:42 GMT-0600 (Central Standard Time),927624.0,A,wind,O,d,222,1,1164.5,926459.5,7767,WL,B,5.0
7,19.526000022888184,immed,40473.99997711182,Thu Feb 26 2026 12:22:42 GMT-0600 (Central Standard Time),927857.400000006,A,windo,O,o,222,1,1397.9000000059605,926459.5,7767,WL,B,5.0
7,19.812000036239624,immed,40187.999963760376,Thu Feb 26 2026 12:22:42 GMT-0600 (Central Standard Time),928142.900000006,A,window,O,w,268,1,1683.4000000059605,926459.5,7767,WL,B,5.0
7,20.743000030517578,immed,39256.99996948242,Thu Feb 26 2026 12:22:42 GMT-0600 (Central Standard Time),929074.099999994,A,windowenter,O,enter,917,1,2614.5999999940395,926459.5,7767,WL,B,5.0
7,21.29200005531311,immed,38707.99994468689,Thu Feb 26 2026 12:22:42 GMT-0600 (Central Standard Time),929623.5,A,c,O,c,539,1,549.1999999880791,929074.3000000119,7767,WL,B,6.0
7,21.41000008583069,immed,38589.99991416931,Thu Feb 26 2026 12:22:42 GMT-0600 (Central Standard Time),929741.099999994,A,cl,O,l,102,1,666.7999999821186,929074.3000000119,7767,WL,B,6.0
7,21.593000173568726,immed,38406.999826431274,Thu Feb 26 2026 12:22:42 GMT-0600 (Central Standard Time),929924.5,A,clo,O,o,177,1,850.1999999880791,929074.3000000119,7767,WL,B,6.0
7,21.77500009536743,immed,38224.99990463257,Thu Feb 26 2026 12:22:42 GMT-0600 (Central Standard Time),930106.7000000179,A,cloc,O,c,177,1,1032.4000000059605,929074.3000000119,7767,WL,B,6.0
7,21.961000204086304,immed,38038.999795913696,Thu Feb 26 2026 12:22:42 GMT-0600 (Central Standard Time),930291.900000006,A,clock,O,k,171,1,1217.5999999940395,929074.3000000119,7767,WL,B,6.0
7,23.575000047683716,immed,36424.999952316284,Thu Feb 26 2026 12:22:42 GMT-0600 (Central Standard Time),931906.7000000179,A,clockenter,O,enter,1608,1,2832.4000000059605,929074.3000000119,7767,WL,B,6.0
7,24.109000205993652,immed,35890.99979400635,Thu Feb 26 2026 12:22:42 GMT-0600 (Central Standard Time),932440.400000006,A,a,O,a,514,1,533.5,931906.900000006,7767,WL,B,7.0
7,24.342000007629395,immed,35657.999992370605,Thu Feb 26 2026 12:22:42 GMT-0600 (Central Standard Time),932673.400000006,A,ar,O,r,228,1,766.5,931906.900000006,7767,WL,B,7.0
7,25.109000205993652,immed,34890.99979400635,Thu Feb 26 2026 12:22:42 GMT-0600 (Central Standard Time),933440.0,A,arm,O,m,757,1,1533.0999999940395,931906.900000006,7767,WL,B,7.0
7,26.27400016784668,immed,33725.99983215332,Thu Feb 26 2026 12:22:42 GMT-0600 (Central Standard Time),934605.599999994,A,armenter,O,enter,1157,1,2698.699999988079,931906.900000006,7767,WL,B,7.0
7,28.325999975204468,immed,31674.000024795532,Thu Feb 26 2026 12:22:42 GMT-0600 (Central Standard Time),936657.099999994,A,f,O,f,2032,1,2051.2999999821186,934605.8000000119,7767,WL,B,8.0
7,28.424000024795532,immed,31575.999975204468,Thu Feb 26 2026 12:22:42 GMT-0600 (Central Standard Time),936755.3000000119,A,fi,O,i,85,1,2149.5,934605.8000000119,7767,WL,B,8.0
7,28.574000120162964,immed,31425.999879837036,Thu Feb 26 2026 12:22:42 GMT-0600 (Central Standard Time),936905.599999994,A,fir,O,r,130,1,2299.7999999821186,934605.8000000119,7767,WL,B,8.0
7,28.675000190734863,immed,31324.999809265137,Thu Feb 26 2026 12:22:42 GMT-0600 (Central Standard Time),937005.8000000119,A,fire,O,e,84,1,2400.0,934605.8000000119,7767,WL,B,8.0
7,30.77400016784668,immed,29225.99983215332,Thu Feb 26 2026 12:22:42 GMT-0600 (Central Standard Time),939105.5,A,fireenter,O,enter,2080,1,4499.699999988079,934605.8000000119,7767,WL,B,8.0
7,31.84000015258789,immed,28159.99984741211,Thu Feb 26 2026 12:22:42 GMT-0600 (Central Standard Time),940171.0,A,s,O,s,1053,1,1065.199999988079,939105.8000000119,7767,WL,B,9.0
7,32.040000200271606,immed,27959.999799728394,Thu Feb 26 2026 12:22:42 GMT-0600 (Central Standard Time),940371.599999994,A,sk,O,k,195,1,1265.7999999821186,939105.8000000119,7767,WL,B,9.0
7,32.42300009727478,immed,27576.99990272522,Thu Feb 26 2026 12:22:42 GMT-0600 (Central Standard Time),940754.3000000119,A,ski,O,i,361,1,1648.5,939105.8000000119,7767,WL,B,9.0
7,32.640000104904175,immed,27359.999895095825,Thu Feb 26 2026 12:22:42 GMT-0600 (Central Standard Time),940971.2000000179,A,skin,O,n,212,1,1865.4000000059605,939105.8000000119,7767,WL,B,9.0
7,34.621999979019165,immed,25378.000020980835,Thu Feb 26 2026 12:22:42 GMT-0600 (Central Standard Time),942953.2000000179,A,skinenter,O,enter,1964,1,3847.4000000059605,939105.8000000119,7767,WL,B,9.0
7,36.42200016975403,immed,23577.99983024597,Thu Feb 26 2026 12:22:42 GMT-0600 (Central Standard Time),944753.2000000179,A,d,O,d,1789,1,1799.800000011921,942953.400000006,7767,WL,B,10.0
7,36.58800005912781,immed,23411.999940872192,Thu Feb 26 2026 12:22:42 GMT-0600 (Central Standard Time),944919.099999994,A,do,O,o,154,1,1965.699999988079,942953.400000006,7767,WL,B,10.0
7,36.73800015449524,immed,23261.99984550476,Thu Feb 26 2026 12:22:42 GMT-0600 (Central Standard Time),945069.5,A,doo,O,o,144,1,2116.0999999940395,942953.400000006,7767,WL,B,10.0
7,36.92200016975403,immed,23077.99983024597,Thu Feb 26 2026 12:22:42 GMT-0600 (Central Standard Time),945252.8000000119,A,door,O,r,168,1,2299.4000000059605,942953.400000006,7767,WL,B,10.0
7,39.104000091552734,immed,20895.999908447266,Thu Feb 26 2026 12:22:42 GMT-0600 (Central Standard Time),947435.8000000119,A,doorenter,O,enter,2162,1,4482.4000000059605,942953.400000006,7767,WL,B,10.0
7,39.938000202178955,immed,20061.999797821045,Thu Feb 26 2026 12:22:42 GMT-0600 (Central Standard Time),948269.2000000179,A,c,O,c,817,1,833.3000000119209,947435.900000006,7767,WL,B,11.0
7,40.004000186920166,immed,19995.999813079834,Thu Feb 26 2026 12:22:42 GMT-0600 (Central Standard Time),948335.2000000179,A,cl,O,l,56,1,899.3000000119209,947435.900000006,7767,WL,B,11.0
7,40.188000202178955,immed,19811.999797821045,Thu Feb 26 2026 12:22:42 GMT-0600 (Central Standard Time),948518.900000006,A,clo,O,o,174,1,1083.0,947435.900000006,7767,WL,B,11.0
7,40.38700008392334,immed,19612.99991607666,Thu Feb 26 2026 12:22:42 GMT-0600 (Central Standard Time),948718.7000000179,A,cloc,O,c,182,1,1282.800000011921,947435.900000006,7767,WL,B,11.0
7,40.47000002861023,immed,19529.99997138977,Thu Feb 26 2026 12:22:42 GMT-0600 (Central Standard Time),948801.400000006,A,clock,O,k,71,1,1365.5,947435.900000006,7767,WL,B,11.0
7,40.986000061035156,immed,19013.999938964844,Thu Feb 26 2026 12:22:42 GMT-0600 (Central Standard Time),949317.5,A,clockenter,O,enter,500,1,1881.5999999940395,947435.900000006,7767,WL,B,11.0
7,41.519999980926514,immed,18480.000019073486,Thu Feb 26 2026 12:22:42 GMT-0600 (Central Standard Time),949851.400000006,A,w,O,w,520,1,533.6999999880791,949317.7000000179,7767,WL,B,12.0
7,41.63800001144409,immed,18361.99998855591,Thu Feb 26 2026 12:22:42 GMT-0600 (Central Standard Time),949968.900000006,A,wi,O,i,106,1,651.1999999880791,949317.7000000179,7767,WL,B,12.0
7,41.9539999961853,immed,18046.000003814697,Thu Feb 26 2026 12:22:42 GMT-0600 (Central Standard Time),950284.8000000119,A,wif,O,f,310,1,967.0999999940395,949317.7000000179,7767,WL,B,12.0
7,42.21900010108948,immed,17780.999898910522,Thu Feb 26 2026 12:22:42 GMT-0600 (Central Standard Time),950550.099999994,A,wife,O,e,257,1,1232.3999999761581,949317.7000000179,7767,WL,B,12.0
7,43.07000017166138,immed,16929.999828338623,Thu Feb 26 2026 12:22:42 GMT-0600 (Central Standard Time),951401.0,A,wifeenter,O,enter,839,1,2083.2999999821186,949317.7000000179,7767,WL,B,12.0
7,59.0460000038147,immed,953.9999961853027,Thu Feb 26 2026 12:22:42 GMT-0600 (Central Standard Time),967379.3000000119,A,p,O,p,15959,1,15978.09999999404,951401.2000000179,7767,WL,B,13.0
7,59.61199998855591,immed,388.0000114440918,Thu Feb 26 2026 12:22:42 GMT-0600 (Central Standard Time),967945.8000000119,A,pu,O,u,553,1,16544.59999999404,951401.2000000179,7767,WL,B,13.0
7,60.01200008392334,immed,-12.000083923339844,Thu Feb 26 2026 12:22:42 GMT-0600 (Central Standard Time),968345.7000000179,A,puNone,O,None,396,1,16944.5,951401.2000000179,7767,WL,B,13.0
