acc_sum,block,block_c,condition,correct,correct_response,datetime,endtime,flanker,jitter,project,response,response_test_buffer_response,response_test_target_response,response_time,response_time_test_buffer_response,response_time_test_target_response,row_sel,session_number,start_end,starttime,subject_id,target,task,task_vers,time_test_buffer,time_test_buffer_response,time_test_constants,time_test_flanker,time_test_jitter,time_test_logger,time_test_target,time_test_target_response,time_test_variables,trial
1,prac,1,inc,1,m,Mon Dec 08 2025 17:17:34 GMT-0600 (Central Standard Time),129125.79999998212,plum,1100,I,m,,,1236,,,16,1,3641.899999976158,125483.90000000596,7249,lead,NF,C,,,,,,,,,,1
2,prac,1,inc,1,z,Mon Dec 08 2025 17:17:34 GMT-0600 (Central Standard Time),131825.29999998212,iron,900,I,z,,,484,,,6,1,2692.699999988079,129132.59999999404,7249,pear,NF,C,,,,,,,,,,2
3,prac,1,inc,1,m,Mon Dec 08 2025 17:17:34 GMT-0600 (Central Standard Time),134791.19999998808,raisin,1100,I,m,,,551,,,12,1,2961.2999999821186,131829.90000000596,7249,cobalt,NF,C,,,,,,,,,,3
4,prac,1,inc,1,m,Mon Dec 08 2025 17:17:34 GMT-0600 (Central Standard Time),137507.19999998808,cherry,900,I,m,,,515,,,10,1,2711.699999988079,134795.5,7249,copper,NF,C,,,,,,,,,,4
5,prac,1,inc,1,z,Mon Dec 08 2025 17:17:34 GMT-0600 (Central Standard Time),140406.59999999404,lead,1100,I,z,,,502,,,8,1,2894.699999988079,137511.90000000596,7249,plum,NF,C,,,,,,,,,,5
6,prac,1,con,1,z,Mon Dec 08 2025 17:17:34 GMT-0600 (Central Standard Time),143222.5,orange,1000,I,z,,,514,,,3,1,2810.800000011921,140411.69999998808,7249,orange,NF,C,,,,,,,,,,6
6,prac,1,con,0,m,Mon Dec 08 2025 17:17:34 GMT-0600 (Central Standard Time),145987.19999998808,silver,1000,I,z,,,453,,,11,1,2758.9000000059605,143228.29999998212,7249,silver,NF,C,,,,,,,,,,7
7,prac,1,con,1,m,Mon Dec 08 2025 17:17:34 GMT-0600 (Central Standard Time),148585.69999998808,bronze,800,I,m,,,506,,,9,1,2592.699999988079,145993.0,7249,bronze,NF,C,,,,,,,,,,8
8,prac,1,inc,1,z,Mon Dec 08 2025 17:17:34 GMT-0600 (Central Standard Time),151518.79999998212,cobalt,1100,I,z,,,535,,,4,1,2929.0,148589.79999998212,7249,raisin,NF,C,,,,,,,,,,9
9,prac,1,con,1,m,Mon Dec 08 2025 17:17:34 GMT-0600 (Central Standard Time),154536.79999998212,zinc,1000,I,m,,,713,,,15,1,3011.699999988079,151525.09999999404,7249,zinc,NF,C,,,,,,,,,,10
10,prac,1,inc,1,z,Mon Dec 08 2025 17:17:34 GMT-0600 (Central Standard Time),157219.0,copper,900,I,z,,,468,,,2,1,2677.4000000059605,154541.59999999404,7249,cherry,NF,C,,,,,,,,,,11
11,prac,1,inc,1,m,Mon Dec 08 2025 17:17:34 GMT-0600 (Central Standard Time),159867.19999998808,pear,900,I,m,,,449,,,14,1,2643.199999988079,157224.0,7249,iron,NF,C,,,,,,,,,,12
12,prac,1,con,1,m,Mon Dec 08 2025 17:17:34 GMT-0600 (Central Standard Time),162565.79999998212,gold,800,I,m,,,612,,,13,1,2693.7999999821186,159872.0,7249,gold,NF,C,,,,,,,,,,13
13,prac,1,con,1,z,Mon Dec 08 2025 17:17:34 GMT-0600 (Central Standard Time),165081.09999999404,banana,800,I,z,,,432,,,1,1,2509.0,162572.09999999404,7249,banana,NF,C,,,,,,,,,,14
14,prac,1,con,1,z,Mon Dec 08 2025 17:17:34 GMT-0600 (Central Standard Time),167864.59999999404,kiwi,1000,I,z,,,477,,,7,1,2779.5,165085.09999999404,7249,kiwi,NF,C,,,,,,,,,,15
15,prac,1,con,1,z,Mon Dec 08 2025 17:17:34 GMT-0600 (Central Standard Time),170628.40000000596,lime,800,I,z,,,654,,,5,1,2760.100000023842,167868.29999998212,7249,lime,NF,C,,,,,,,,,,16
1,test,1,inc,1,m,Mon Dec 08 2025 17:17:34 GMT-0600 (Central Standard Time),190205.90000000596,orange,1000,I,m,m,None,471,272.0,199.0,79,1,2007.800000011921,188198.09999999404,7249,copper,NF,C,183750,183750,182025,183034,182026,184033,183551,183551,184033,1
2,test,1,inc,1,z,Mon Dec 08 2025 17:17:34 GMT-0600 (Central Standard Time),192289.0,cobalt,1100,I,z,z,None,443,228.0,215.0,32,1,2074.9000000059605,190214.09999999404,7249,raisin,NF,C,185882,185882,184041,185151,184041,186116,185667,185667,186116,2
3,test,1,con,1,m,Mon Dec 08 2025 17:17:34 GMT-0600 (Central Standard Time),194354.69999998808,gold,1100,I,m,m,None,425,226.0,199.0,100,1,2058.4000000059605,192296.29999998212,7249,gold,NF,C,187949,187949,186123,187232,186124,188182,187749,187749,188182,3
4,test,1,con,1,z,Mon Dec 08 2025 17:17:34 GMT-0600 (Central Standard Time),196320.40000000596,orange,1000,I,z,z,None,419,203.0,216.0,19,1,1959.1000000238419,194361.29999998212,7249,orange,NF,C,189931,189931,188188,189198,188189,190147,189715,189715,190147,4
5,test,1,con,1,m,Mon Dec 08 2025 17:17:34 GMT-0600 (Central Standard Time),198287.5,silver,1000,I,m,m,None,422,222.0,200.0,83,1,1963.9000000059605,196323.59999999404,7249,silver,NF,C,191881,191881,190151,191164,190151,192115,191681,191681,192115,5
5,test,1,inc,0,m,Mon Dec 08 2025 17:17:34 GMT-0600 (Central Standard Time),200135.09999999404,cherry,900,I,z,z,None,399,200.0,199.0,78,1,1841.699999988079,198293.40000000596,7249,copper,NF,C,193749,193749,192120,193031,192121,193962,193549,193549,193962,6
6,test,1,con,1,z,Mon Dec 08 2025 17:17:34 GMT-0600 (Central Standard Time),202152.0,plum,800,I,z,z,None,669,469.0,200.0,57,1,2011.0999999940395,200140.90000000596,7249,plum,NF,C,195496,195497,193968,194780,193969,195979,195296,195296,195979,7
7,test,1,con,1,m,Mon Dec 08 2025 17:17:34 GMT-0600 (Central Standard Time),204234.59999999404,silver,1100,I,m,m,None,442,242.0,200.0,84,1,2074.5,202160.09999999404,7249,silver,NF,C,197813,197813,195987,197096,195987,198062,197612,197612,198062,8
8,test,1,con,1,z,Mon Dec 08 2025 17:17:34 GMT-0600 (Central Standard Time),206017.29999998212,lime,800,I,z,z,None,435,235.0,200.0,33,1,1774.2999999821186,204243.0,7249,lime,NF,C,199595,199595,198070,198879,198070,199844,199395,199395,199844,9
9,test,1,inc,1,z,Mon Dec 08 2025 17:17:34 GMT-0600 (Central Standard Time),208350.40000000596,lead,1100,I,z,z,None,697,497.0,200.0,64,1,2326.300000011921,206024.09999999404,7249,plum,NF,C,201678,201678,199851,200963,199851,202177,201478,201478,202177,10
10,test,1,con,1,z,Mon Dec 08 2025 17:17:34 GMT-0600 (Central Standard Time),210383.40000000596,raisin,1000,I,z,z,None,486,286.0,200.0,27,1,2025.300000011921,208358.09999999404,7249,raisin,NF,C,203911,203912,202185,203194,202185,204211,203710,203711,204210,11
11,test,1,con,1,z,Mon Dec 08 2025 17:17:34 GMT-0600 (Central Standard Time),212532.59999999404,lime,1100,I,z,z,None,515,301.0,214.0,36,1,2143.5999999940395,210389.0,7249,lime,NF,C,206059,206059,204216,205327,204216,206360,205845,205845,206360,12
12,test,1,con,1,m,Mon Dec 08 2025 17:17:34 GMT-0600 (Central Standard Time),214431.0,zinc,900,I,m,m,None,460,260.0,200.0,114,1,1893.5999999940395,212537.40000000596,7249,zinc,NF,C,207994,207994,206364,207276,206365,208258,207793,207793,208258,13
13,test,1,inc,1,z,Mon Dec 08 2025 17:17:34 GMT-0600 (Central Standard Time),216547.40000000596,iron,900,I,z,z,None,672,472.0,200.0,38,1,2110.300000011921,214437.09999999404,7249,lime,NF,C,209894,209894,208264,209176,208264,210374,209693,209693,210374,14
14,test,1,inc,1,z,Mon Dec 08 2025 17:17:34 GMT-0600 (Central Standard Time),218663.79999998212,cobalt,1100,I,z,z,None,476,277.0,199.0,8,1,2111.0999999940395,216552.69999998808,7249,banana,NF,C,212208,212209,210380,211491,210380,212491,212009,212009,212491,15
15,test,1,inc,1,m,Mon Dec 08 2025 17:17:34 GMT-0600 (Central Standard Time),220578.40000000596,lime,800,I,m,m,None,564,364.0,200.0,125,1,1910.6000000238419,218667.79999998212,7249,lead,NF,C,214025,214025,212495,213308,212495,214405,213824,213824,214405,16
16,test,1,inc,1,m,Mon Dec 08 2025 17:17:34 GMT-0600 (Central Standard Time),222561.5,cherry,900,I,m,m,None,532,333.0,199.0,86,1,1980.2000000178814,220581.29999998212,7249,silver,NF,C,216041,216041,214408,215324,214409,216389,215840,215840,216389,17
17,test,1,con,1,z,Mon Dec 08 2025 17:17:34 GMT-0600 (Central Standard Time),224495.09999999404,raisin,900,I,z,z,None,488,287.0,201.0,26,1,1929.0999999940395,222566.0,7249,raisin,NF,C,218023,218023,216393,217307,216393,218322,217821,217821,218322,18
18,test,1,inc,1,z,Mon Dec 08 2025 17:17:34 GMT-0600 (Central Standard Time),226494.79999998212,copper,900,I,z,z,None,554,354.0,200.0,14,1,1994.2999999821186,224500.5,7249,cherry,NF,C,219956,219956,218328,219240,218328,220322,219755,219755,220322,19
19,test,1,con,1,z,Mon Dec 08 2025 17:17:34 GMT-0600 (Central Standard Time),228376.19999998808,kiwi,900,I,z,z,None,442,243.0,199.0,50,1,1877.2999999821186,226498.90000000596,7249,kiwi,NF,C,221955,221955,220326,221238,220326,222203,221755,221755,222203,20
20,test,1,inc,1,z,Mon Dec 08 2025 17:17:34 GMT-0600 (Central Standard Time),230260.69999998808,bronze,800,I,z,z,None,549,350.0,199.0,21,1,1880.699999988079,228380.0,7249,orange,NF,C,223738,223738,222207,223022,222207,224088,223538,223538,224088,21
21,test,1,inc,1,z,Mon Dec 08 2025 17:17:34 GMT-0600 (Central Standard Time),232425.90000000596,cobalt,1100,I,z,z,None,543,344.0,199.0,16,1,2160.7000000178814,230265.19999998808,7249,cherry,NF,C,225903,225903,224092,225203,224092,226253,225704,225704,226253,22
22,test,1,inc,1,m,Mon Dec 08 2025 17:17:34 GMT-0600 (Central Standard Time),234424.40000000596,cherry,900,I,m,m,None,568,369.0,199.0,94,1,1993.5,232430.90000000596,7249,cobalt,NF,C,227869,227869,226258,227169,226258,228251,227670,227670,228251,23
23,test,1,con,1,z,Mon Dec 08 2025 17:17:34 GMT-0600 (Central Standard Time),236374.5,kiwi,800,I,z,z,None,603,404.0,199.0,49,1,1947.2000000178814,234427.29999998212,7249,kiwi,NF,C,229786,229786,228254,229069,228255,230202,229586,229586,230201,24
24,test,1,con,1,m,Mon Dec 08 2025 17:17:34 GMT-0600 (Central Standard Time),238408.0,iron,1000,I,m,m,None,486,287.0,199.0,107,1,2027.4000000059605,236380.59999999404,7249,iron,NF,C,231935,231935,230208,231219,230208,232235,231736,231736,232235,25
25,test,1,inc,1,m,Mon Dec 08 2025 17:17:34 GMT-0600 (Central Standard Time),240342.19999998808,banana,800,I,m,m,None,591,391.0,200.0,77,1,1929.5999999940395,238412.59999999404,7249,copper,NF,C,233768,233768,232240,233051,232240,234169,233568,233568,234169,26
26,test,1,con,1,m,Mon Dec 08 2025 17:17:34 GMT-0600 (Central Standard Time),242255.09999999404,gold,900,I,m,m,None,486,285.0,201.0,98,1,1909.699999988079,240345.40000000596,7249,gold,NF,C,235785,235785,234172,235083,234173,236082,235584,235584,236082,27
27,test,1,con,1,z,Mon Dec 08 2025 17:17:34 GMT-0600 (Central Standard Time),244071.90000000596,raisin,800,I,z,z,None,493,294.0,199.0,25,1,1813.0,242258.90000000596,7249,raisin,NF,C,237600,237600,236086,236899,236086,237899,237400,237400,237899,28
28,test,1,inc,1,m,Mon Dec 08 2025 17:17:34 GMT-0600 (Central Standard Time),246272.0,plum,1100,I,m,m,None,554,338.0,216.0,112,1,2194.9000000059605,244077.09999999404,7249,iron,NF,C,239749,239749,237904,239016,237904,240099,239533,239533,240099,29
29,test,1,con,1,z,Mon Dec 08 2025 17:17:34 GMT-0600 (Central Standard Time),248637.40000000596,plum,1000,I,z,z,None,848,649.0,199.0,59,1,2362.600000023842,246274.79999998212,7249,plum,NF,C,241815,241815,240102,241106,240102,242464,241616,241616,242464,30
30,test,1,con,1,m,Mon Dec 08 2025 17:17:34 GMT-0600 (Central Standard Time),250587.90000000596,silver,900,I,m,m,None,509,309.0,200.0,82,1,1945.4000000059605,248642.5,7249,silver,NF,C,244098,244098,242470,243382,242470,244415,243898,243898,244415,31
31,test,1,inc,1,z,Mon Dec 08 2025 17:17:34 GMT-0600 (Central Standard Time),252702.79999998212,silver,1000,I,z,z,None,570,371.0,199.0,7,1,2110.899999976158,250591.90000000596,7249,banana,NF,C,246148,246148,244419,245430,244419,246530,245948,245948,246530,32
32,test,1,inc,1,z,Mon Dec 08 2025 17:17:34 GMT-0600 (Central Standard Time),254669.69999998808,copper,900,I,z,z,None,550,350.0,200.0,30,1,1963.7999999821186,252705.90000000596,7249,raisin,NF,C,248147,248147,246533,247446,246533,248497,247947,247947,248497,33
33,test,1,inc,1,m,Mon Dec 08 2025 17:17:34 GMT-0600 (Central Standard Time),256717.59999999404,kiwi,1000,I,m,m,None,504,305.0,199.0,127,1,2043.5999999940395,254674.0,7249,lead,NF,C,250229,250229,248501,249512,248501,250545,250029,250029,250545,34
34,test,1,con,1,m,Mon Dec 08 2025 17:17:34 GMT-0600 (Central Standard Time),258850.5,cobalt,1100,I,m,m,None,482,267.0,215.0,92,1,2129.800000011921,256720.69999998808,7249,cobalt,NF,C,252395,252395,250548,251663,250548,252678,252179,252179,252678,35
35,test,1,inc,1,m,Mon Dec 08 2025 17:17:34 GMT-0600 (Central Standard Time),260950.90000000596,cherry,900,I,m,m,None,665,466.0,199.0,70,1,2096.7000000178814,258854.19999998808,7249,bronze,NF,C,254312,254312,252681,253595,252682,254778,254112,254112,254778,36
36,test,1,con,1,z,Mon Dec 08 2025 17:17:34 GMT-0600 (Central Standard Time),263199.90000000596,banana,1100,I,z,z,None,612,412.0,200.0,4,1,2243.9000000059605,260956.0,7249,banana,NF,C,256610,256610,254783,255894,254783,257027,256410,256410,257027,37
37,test,1,con,1,m,Mon Dec 08 2025 17:17:34 GMT-0600 (Central Standard Time),265100.09999999404,cobalt,900,I,m,m,None,451,251.0,200.0,90,1,1896.800000011921,263203.2999999821,7249,cobalt,NF,C,258660,258660,257030,257943,257031,258927,258460,258460,258927,38
38,test,1,inc,1,z,Mon Dec 08 2025 17:17:34 GMT-0600 (Central Standard Time),267231.5,zinc,1000,I,z,z,None,596,396.0,200.0,55,1,2125.800000011921,265105.6999999881,7249,kiwi,NF,C,260659,260659,258933,259944,258933,261059,260459,260459,261058,39
39,test,1,inc,1,m,Mon Dec 08 2025 17:17:34 GMT-0600 (Central Standard Time),269097.40000000596,banana,800,I,m,m,None,518,318.0,200.0,69,1,1862.9000000059605,267234.5,7249,bronze,NF,C,262592,262592,261062,261876,261062,262924,262391,262391,262924,40
40,test,1,inc,1,z,Mon Dec 08 2025 17:17:34 GMT-0600 (Central Standard Time),271381.0,lead,1100,I,z,z,None,648,447.0,201.0,40,1,2280.5,269100.5,7249,lime,NF,C,264751,264751,262928,264042,262928,265208,264549,264549,265208,41
41,test,1,inc,1,z,Mon Dec 08 2025 17:17:34 GMT-0600 (Central Standard Time),273280.6999999881,gold,800,I,z,z,None,576,361.0,215.0,53,1,1895.199999988079,271385.5,7249,kiwi,NF,C,266742,266742,265213,266024,265213,267108,266526,266526,267108,42
42,test,1,con,1,z,Mon Dec 08 2025 17:17:34 GMT-0600 (Central Standard Time),275229.90000000596,cherry,800,I,z,z,None,607,407.0,200.0,9,1,1945.9000000059605,273284.0,7249,cherry,NF,C,268640,268640,267111,267924,267111,269057,268440,268440,269057,43
43,test,1,con,1,m,Mon Dec 08 2025 17:17:34 GMT-0600 (Central Standard Time),277278.09999999404,lead,1000,I,m,m,None,520,320.0,200.0,123,1,2043.5,275234.59999999404,7249,lead,NF,C,270774,270774,269062,270072,269062,271105,270573,270573,271105,44
44,test,1,inc,1,m,Mon Dec 08 2025 17:17:34 GMT-0600 (Central Standard Time),279211.40000000596,lime,800,I,m,m,None,608,394.0,214.0,117,1,1929.1000000238419,277282.2999999821,7249,zinc,NF,C,272637,272637,271109,271922,271110,273038,272423,272423,273038,45
45,test,1,con,1,z,Mon Dec 08 2025 17:17:34 GMT-0600 (Central Standard Time),281394.0,orange,1100,I,z,z,None,536,335.0,201.0,20,1,2178.9000000059605,279215.09999999404,7249,orange,NF,C,274871,274871,273042,274154,273042,275221,274670,274670,275221,46
46,test,1,inc,1,z,Mon Dec 08 2025 17:17:34 GMT-0600 (Central Standard Time),283260.0,bronze,800,I,z,z,None,525,326.0,199.0,5,1,1862.4000000059605,281397.59999999404,7249,banana,NF,C,276753,276753,275225,276038,275225,277087,276554,276554,277087,47
47,test,1,con,1,z,Mon Dec 08 2025 17:17:34 GMT-0600 (Central Standard Time),285359.7999999821,raisin,1100,I,z,z,None,462,262.0,200.0,28,1,2095.899999976158,283263.90000000596,7249,raisin,NF,C,278920,278920,277091,278204,277091,279187,278720,278720,279187,48
48,test,1,con,1,z,Mon Dec 08 2025 17:17:34 GMT-0600 (Central Standard Time),287458.7999999821,plum,900,I,z,z,None,659,459.0,200.0,58,1,2095.199999988079,285363.59999999404,7249,plum,NF,C,280819,280819,279191,280104,279191,281286,280619,280619,281286,49
49,test,1,inc,1,m,Mon Dec 08 2025 17:17:34 GMT-0600 (Central Standard Time),289557.6999999881,plum,1100,I,m,m,None,448,248.0,200.0,120,1,2094.4000000059605,287463.2999999821,7249,zinc,NF,C,283120,283120,281290,282403,281291,283385,282920,282920,283385,50
50,test,1,con,1,m,Mon Dec 08 2025 17:17:34 GMT-0600 (Central Standard Time),291707.2999999821,lead,900,I,m,m,None,707,493.0,214.0,122,1,2146.7999999821186,289560.5,7249,lead,NF,C,285034,285034,283388,284302,283388,285534,284820,284820,285534,51
51,test,1,con,1,m,Mon Dec 08 2025 17:17:34 GMT-0600 (Central Standard Time),293989.6999999881,bronze,1100,I,m,m,None,636,423.0,213.0,68,1,2277.7999999821186,291711.90000000596,7249,bronze,NF,C,287384,287384,285539,286651,285539,287817,287170,287170,287817,52
52,test,1,con,1,m,Mon Dec 08 2025 17:17:34 GMT-0600 (Central Standard Time),295790.09999999404,cobalt,800,I,m,m,None,482,267.0,215.0,89,1,1795.300000011921,293994.7999999821,7249,cobalt,NF,C,289350,289350,287822,288633,287822,289617,289134,289134,289617,53
53,test,1,inc,1,z,Mon Dec 08 2025 17:17:34 GMT-0600 (Central Standard Time),297771.1999999881,iron,900,I,z,z,None,540,339.0,201.0,62,1,1976.2999999821186,295794.90000000596,7249,plum,NF,C,291251,291251,289622,290534,289622,291598,291049,291049,291598,54
54,test,1,inc,1,z,Mon Dec 08 2025 17:17:34 GMT-0600 (Central Standard Time),299937.09999999404,silver,1000,I,z,z,None,626,426.0,200.0,15,1,2162.300000011921,297774.7999999821,7249,cherry,NF,C,293333,293333,291602,292616,291602,293764,293132,293133,293764,55
55,test,1,inc,1,z,Mon Dec 08 2025 17:17:34 GMT-0600 (Central Standard Time),301754.59999999404,gold,800,I,z,z,None,477,276.0,201.0,37,1,1814.5,299940.09999999404,7249,lime,NF,C,295299,295299,293767,294581,293767,295582,295098,295098,295582,56
56,test,1,con,1,m,Mon Dec 08 2025 17:17:34 GMT-0600 (Central Standard Time),303971.2999999821,iron,1100,I,m,m,None,568,369.0,199.0,108,1,2211.399999976158,301759.90000000596,7249,iron,NF,C,297414,297414,295587,296699,295587,297798,297214,297214,297798,57
57,test,1,inc,1,z,Mon Dec 08 2025 17:17:34 GMT-0600 (Central Standard Time),305852.6999999881,gold,800,I,z,z,None,533,332.0,201.0,45,1,1875.7999999821186,303976.90000000596,7249,pear,NF,C,299331,299331,297804,298614,297804,299680,299130,299130,299680,58
58,test,1,inc,1,z,Mon Dec 08 2025 17:17:34 GMT-0600 (Central Standard Time),307751.59999999404,bronze,800,I,z,z,None,562,362.0,200.0,29,1,1896.300000011921,305855.2999999821,7249,raisin,NF,C,301212,301212,299682,300496,299683,301579,301012,301012,301579,59
59,test,1,con,1,z,Mon Dec 08 2025 17:17:34 GMT-0600 (Central Standard Time),309885.09999999404,pear,900,I,z,z,None,691,491.0,200.0,42,1,2125.4000000059605,307759.6999999881,7249,pear,NF,C,303212,303212,301587,302495,301587,303712,303012,303012,303712,60
60,test,1,inc,1,m,Mon Dec 08 2025 17:17:34 GMT-0600 (Central Standard Time),311884.40000000596,pear,900,I,m,m,None,566,366.0,200.0,102,1,1994.300000011921,309890.09999999404,7249,gold,NF,C,305345,305345,303717,304628,303717,305711,305145,305145,305711,61
61,test,1,con,1,z,Mon Dec 08 2025 17:17:34 GMT-0600 (Central Standard Time),313883.40000000596,cherry,900,I,z,z,None,564,350.0,214.0,10,1,1993.2000000178814,311890.1999999881,7249,cherry,NF,C,307360,307360,305717,306628,305717,307711,307146,307146,307710,62
62,test,1,con,1,z,Mon Dec 08 2025 17:17:34 GMT-0600 (Central Standard Time),315882.90000000596,lime,900,I,z,z,None,558,357.0,201.0,34,1,1994.0,313888.90000000596,7249,lime,NF,C,309345,309345,307716,308627,307716,309710,309143,309143,309710,63
63,test,1,con,1,z,Mon Dec 08 2025 17:17:34 GMT-0600 (Central Standard Time),317950.40000000596,kiwi,1000,I,z,z,None,521,321.0,200.0,51,1,2063.5,315886.90000000596,7249,kiwi,NF,C,311444,311444,309714,310727,309714,311777,311243,311243,311777,64
64,test,1,con,1,m,Mon Dec 08 2025 17:17:34 GMT-0600 (Central Standard Time),319800.5,iron,800,I,m,m,None,506,306.0,200.0,105,1,1847.4000000059605,317953.09999999404,7249,iron,NF,C,313309,313309,311780,312592,311780,313628,313109,313109,313628,65
65,test,1,inc,1,z,Mon Dec 08 2025 17:17:34 GMT-0600 (Central Standard Time),322014.09999999404,lead,1100,I,z,z,None,572,373.0,199.0,48,1,2208.0999999940395,319806.0,7249,pear,NF,C,315458,315458,313633,314742,313633,315841,315258,315258,315841,66
66,test,1,inc,1,m,Mon Dec 08 2025 17:17:34 GMT-0600 (Central Standard Time),324229.6999999881,raisin,1100,I,m,m,None,566,367.0,199.0,88,1,2209.4000000059605,322020.2999999821,7249,silver,NF,C,317674,317674,315847,316959,315848,318057,317474,317474,318057,67
67,test,1,con,1,z,Mon Dec 08 2025 17:17:34 GMT-0600 (Central Standard Time),326395.6999999881,pear,1100,I,z,z,None,531,331.0,200.0,44,1,2159.9000000059605,324235.7999999821,7249,pear,NF,C,319891,319891,318063,319175,318063,320223,319690,319690,320223,68
68,test,1,inc,1,z,Mon Dec 08 2025 17:17:34 GMT-0600 (Central Standard Time),328478.2999999821,copper,900,I,z,z,None,638,439.0,199.0,22,1,2075.399999976158,326402.90000000596,7249,orange,NF,C,321856,321856,320230,321139,320230,322305,321656,321656,322305,69
69,test,1,con,1,z,Mon Dec 08 2025 17:17:34 GMT-0600 (Central Standard Time),330594.7999999821,plum,1100,I,z,z,None,476,276.0,200.0,60,1,2109.0,328485.7999999821,7249,plum,NF,C,324139,324139,322313,323422,322313,324422,323938,323938,324422,70
70,test,1,con,1,z,Mon Dec 08 2025 17:17:34 GMT-0600 (Central Standard Time),332660.7999999821,pear,1000,I,z,z,None,524,324.0,200.0,43,1,2060.5,330600.2999999821,7249,pear,NF,C,326155,326155,324427,325438,324428,326488,325955,325955,326488,71
71,test,1,inc,1,m,Mon Dec 08 2025 17:17:34 GMT-0600 (Central Standard Time),334510.2999999821,lime,800,I,m,m,None,505,306.0,199.0,101,1,1846.8999999761581,332663.40000000596,7249,gold,NF,C,328021,328021,326490,327305,326491,328337,327821,327821,328337,72
72,test,1,con,1,m,Mon Dec 08 2025 17:17:34 GMT-0600 (Central Standard Time),336343.7999999821,silver,800,I,m,m,None,488,289.0,199.0,81,1,1830.5999999940395,334513.1999999881,7249,silver,NF,C,329870,329870,328340,329155,328340,330171,329670,329670,330171,73
73,test,1,con,1,z,Mon Dec 08 2025 17:17:34 GMT-0600 (Central Standard Time),338242.1999999881,orange,800,I,z,z,None,532,318.0,214.0,17,1,1894.199999988079,336348.0,7249,orange,NF,C,331720,331720,330175,330986,330175,332069,331505,331505,332069,74
74,test,1,con,1,m,Mon Dec 08 2025 17:17:34 GMT-0600 (Central Standard Time),340240.5,bronze,1000,I,m,m,None,458,244.0,214.0,67,1,1991.4000000059605,338249.09999999404,7249,bronze,NF,C,333818,333818,332076,333086,332076,334068,333604,333604,334068,75
75,test,1,con,1,z,Mon Dec 08 2025 17:17:34 GMT-0600 (Central Standard Time),342290.40000000596,cherry,1100,I,z,z,None,408,209.0,199.0,12,1,2045.7000000178814,340244.6999999881,7249,cherry,NF,C,335901,335901,334072,335185,334072,336117,335702,335702,336117,76
76,test,1,inc,1,m,Mon Dec 08 2025 17:17:34 GMT-0600 (Central Standard Time),344257.1999999881,pear,900,I,m,m,None,518,319.0,199.0,126,1,1962.699999988079,342294.5,7249,lead,NF,C,337751,337751,336122,337035,336122,338084,337552,337552,338084,77
77,test,1,con,1,m,Mon Dec 08 2025 17:17:34 GMT-0600 (Central Standard Time),346239.7999999821,bronze,900,I,m,m,None,535,321.0,214.0,66,1,1979.699999988079,344260.09999999404,7249,bronze,NF,C,339733,339733,338087,339001,338087,340067,339519,339519,340067,78
78,test,1,con,1,z,Mon Dec 08 2025 17:17:34 GMT-0600 (Central Standard Time),348072.2999999821,pear,800,I,z,z,None,493,293.0,200.0,41,1,1827.0,346245.2999999821,7249,pear,NF,C,341602,341602,340072,340883,340073,341899,341401,341401,341899,79
79,test,1,con,1,z,Mon Dec 08 2025 17:17:34 GMT-0600 (Central Standard Time),349922.0,banana,900,I,z,z,None,408,192.0,216.0,2,1,1846.800000011921,348075.1999999881,7249,banana,NF,C,343551,343551,341902,342816,341902,343749,343334,343334,343749,80
80,test,1,con,1,m,Mon Dec 08 2025 17:17:34 GMT-0600 (Central Standard Time),351754.1999999881,bronze,800,I,m,m,None,484,285.0,199.0,65,1,1828.0999999940395,349926.09999999404,7249,bronze,NF,C,345282,345282,343753,344567,343753,345581,345083,345083,345581,81
81,test,1,inc,1,z,Mon Dec 08 2025 17:17:34 GMT-0600 (Central Standard Time),353837.6999999881,zinc,1000,I,z,z,None,539,340.0,199.0,39,1,2077.0999999940395,351760.59999999404,7249,lime,NF,C,347315,347315,345588,346598,345588,347665,347115,347115,347665,82
82,test,1,inc,1,m,Mon Dec 08 2025 17:17:34 GMT-0600 (Central Standard Time),356003.6999999881,plum,1100,I,m,m,None,516,317.0,199.0,104,1,2162.9000000059605,353840.7999999821,7249,gold,NF,C,349498,349498,347668,348782,347668,349831,349298,349298,349831,83
83,test,1,inc,1,m,Mon Dec 08 2025 17:17:34 GMT-0600 (Central Standard Time),358036.6999999881,kiwi,1000,I,m,m,None,498,299.0,199.0,103,1,2028.199999988079,356008.5,7249,gold,NF,C,351564,351564,349836,350847,349836,351864,351364,351364,351864,84
84,test,1,inc,1,z,Mon Dec 08 2025 17:17:34 GMT-0600 (Central Standard Time),360133.90000000596,zinc,1000,I,z,z,None,561,361.0,200.0,63,1,2093.100000023842,358040.7999999821,7249,plum,NF,C,353597,353597,351868,352880,351868,353961,353396,353396,353961,85
85,test,1,con,1,m,Mon Dec 08 2025 17:17:34 GMT-0600 (Central Standard Time),362216.90000000596,zinc,1100,I,m,m,None,450,251.0,199.0,116,1,2080.2000000178814,360136.6999999881,7249,zinc,NF,C,355779,355779,353964,355079,353964,356044,355580,355580,356044,86
86,test,1,con,1,m,Mon Dec 08 2025 17:17:34 GMT-0600 (Central Standard Time),364234.5,zinc,1000,I,m,m,None,467,268.0,199.0,115,1,2013.2000000178814,362221.2999999821,7249,zinc,NF,C,357778,357778,356048,357061,356049,358062,357578,357578,358062,87
87,test,1,inc,1,z,Mon Dec 08 2025 17:17:34 GMT-0600 (Central Standard Time),366216.5,copper,900,I,z,z,None,537,336.0,201.0,6,1,1978.5,364238.0,7249,banana,NF,C,359694,359694,358065,358977,358065,360044,359493,359493,360044,88
88,test,1,inc,1,m,Mon Dec 08 2025 17:17:34 GMT-0600 (Central Standard Time),368215.40000000596,pear,900,I,m,m,None,560,344.0,216.0,118,1,1995.2000000178814,366220.1999999881,7249,zinc,NF,C,361695,361695,360047,360961,360047,362042,361478,361478,362042,89
89,test,1,inc,1,z,Mon Dec 08 2025 17:17:34 GMT-0600 (Central Standard Time),370332.90000000596,silver,1000,I,z,z,None,589,390.0,199.0,31,1,2112.4000000059605,368220.5,7249,raisin,NF,C,363761,363761,362048,363060,362048,364160,363561,363561,364160,90
90,test,1,inc,1,z,Mon Dec 08 2025 17:17:34 GMT-0600 (Central Standard Time),372314.1999999881,iron,900,I,z,z,None,534,333.0,201.0,46,1,1977.7999999821186,370336.40000000596,7249,pear,NF,C,365793,365793,364163,365076,364164,366141,365592,365592,366141,91
91,test,1,con,1,m,Mon Dec 08 2025 17:17:34 GMT-0600 (Central Standard Time),374279.7999999821,lead,800,I,m,m,None,619,420.0,199.0,121,1,1962.3999999761581,372317.40000000596,7249,lead,NF,C,367674,367674,366144,366960,366145,368107,367475,367475,368107,92
92,test,1,inc,1,m,Mon Dec 08 2025 17:17:34 GMT-0600 (Central Standard Time),376364.1999999881,kiwi,1000,I,m,m,None,550,350.0,200.0,119,1,2080.5999999940395,374283.59999999404,7249,zinc,NF,C,369841,369841,368111,369124,368111,370191,369641,369641,370191,93
93,test,1,con,1,m,Mon Dec 08 2025 17:17:34 GMT-0600 (Central Standard Time),378279.09999999404,copper,900,I,m,m,None,469,269.0,200.0,74,1,1908.4000000059605,376370.6999999881,7249,copper,NF,C,371824,371825,370198,371108,370198,372106,371624,371624,372106,94
94,test,1,inc,1,m,Mon Dec 08 2025 17:17:34 GMT-0600 (Central Standard Time),380412.40000000596,orange,1000,I,m,m,None,604,405.0,199.0,71,1,2129.2000000178814,378283.1999999881,7249,bronze,NF,C,373825,373825,372110,373124,372110,374239,373625,373625,374239,95
95,test,1,con,1,z,Mon Dec 08 2025 17:17:34 GMT-0600 (Central Standard Time),382511.1999999881,cherry,1000,I,z,z,None,561,362.0,199.0,11,1,2094.4000000059605,380416.7999999821,7249,cherry,NF,C,375972,375972,374244,375256,374244,376338,375773,375773,376338,96
96,test,1,con,1,m,Mon Dec 08 2025 17:17:34 GMT-0600 (Central Standard Time),384643.40000000596,lead,1100,I,m,m,None,497,298.0,199.0,124,1,2128.9000000059605,382514.5,7249,lead,NF,C,378172,378172,376342,377455,376342,378471,377972,377972,378470,97
97,test,1,inc,1,m,Mon Dec 08 2025 17:17:34 GMT-0600 (Central Standard Time),386743.2999999821,orange,1000,I,m,m,None,563,363.0,200.0,87,1,2096.5,384646.7999999821,7249,silver,NF,C,380204,380204,378474,379488,378474,380570,380004,380004,380570,98
98,test,1,con,1,m,Mon Dec 08 2025 17:17:34 GMT-0600 (Central Standard Time),388686.5,iron,900,I,m,m,None,509,294.0,215.0,106,1,1937.9000000059605,386748.59999999404,7249,iron,NF,C,382219,382219,380576,381487,380576,382514,382004,382004,382514,99
99,test,1,con,1,z,Mon Dec 08 2025 17:17:34 GMT-0600 (Central Standard Time),390658.0,banana,1000,I,z,z,None,442,242.0,200.0,3,1,1969.0,388689.0,7249,banana,NF,C,384236,384236,382516,383519,382516,384485,384036,384036,384485,100
100,test,1,inc,1,m,Mon Dec 08 2025 17:17:34 GMT-0600 (Central Standard Time),392759.0,kiwi,1000,I,m,m,None,556,354.0,202.0,111,1,2097.5999999940395,390661.40000000596,7249,iron,NF,C,386219,386220,384488,385503,384489,386586,386017,386017,386586,101
101,test,1,inc,1,m,Mon Dec 08 2025 17:17:34 GMT-0600 (Central Standard Time),394823.90000000596,orange,1000,I,m,m,None,528,328.0,200.0,95,1,2060.800000011921,392763.09999999404,7249,cobalt,NF,C,388319,388319,386590,387602,386590,388651,388119,388119,388651,102
102,test,1,con,1,m,Mon Dec 08 2025 17:17:34 GMT-0600 (Central Standard Time),396857.0,copper,1000,I,m,m,None,494,294.0,200.0,75,1,2028.7000000178814,394828.2999999821,7249,copper,NF,C,390385,390385,388655,389667,388656,390684,390184,390184,390684,103
103,test,1,con,1,z,Mon Dec 08 2025 17:17:34 GMT-0600 (Central Standard Time),398989.59999999404,kiwi,1100,I,z,z,None,490,290.0,200.0,52,1,2129.9000000059605,396859.6999999881,7249,kiwi,NF,C,392517,392517,390687,391801,390687,392817,392317,392317,392817,104
104,test,1,inc,1,m,Mon Dec 08 2025 17:17:34 GMT-0600 (Central Standard Time),400863.0,banana,800,I,m,m,None,520,320.0,200.0,85,1,1868.9000000059605,398994.09999999404,7249,silver,NF,C,394349,394349,392821,393634,392821,394690,394149,394149,394690,105
105,test,1,inc,1,m,Mon Dec 08 2025 17:17:34 GMT-0600 (Central Standard Time),402887.7999999821,pear,900,I,m,m,None,595,394.0,201.0,110,1,2021.199999988079,400866.59999999404,7249,iron,NF,C,396317,396317,394694,395599,394694,396715,396115,396115,396715,106
106,test,1,con,1,m,Mon Dec 08 2025 17:17:34 GMT-0600 (Central Standard Time),404938.0,copper,1100,I,m,m,None,409,210.0,199.0,76,1,2047.5,402890.5,7249,copper,NF,C,398548,398548,396718,397832,396718,398765,398349,398349,398765,107
107,test,1,inc,1,z,Mon Dec 08 2025 17:17:34 GMT-0600 (Central Standard Time),406954.2999999821,bronze,800,I,z,z,None,676,461.0,215.0,13,1,2013.5999999940395,404940.6999999881,7249,cherry,NF,C,400314,400314,398768,399582,398768,400781,400099,400099,400781,108
108,test,1,con,1,m,Mon Dec 08 2025 17:17:34 GMT-0600 (Central Standard Time),408936.6999999881,cobalt,1000,I,m,m,None,436,236.0,200.0,91,1,1979.4000000059605,406957.2999999821,7249,cobalt,NF,C,402514,402514,400784,401798,400785,402764,402313,402313,402764,109
109,test,1,con,1,m,Mon Dec 08 2025 17:17:34 GMT-0600 (Central Standard Time),410785.59999999404,gold,800,I,m,m,None,501,301.0,200.0,97,1,1844.0999999940395,408941.5,7249,gold,NF,C,404297,404297,402769,403580,402769,404613,404097,404097,404613,110
110,test,1,inc,1,m,Mon Dec 08 2025 17:17:34 GMT-0600 (Central Standard Time),412969.1999999881,raisin,1100,I,m,m,None,551,352.0,199.0,72,1,2178.0,410791.1999999881,7249,bronze,NF,C,406430,406430,404618,405729,404618,406796,406231,406231,406796,111
111,test,1,inc,1,z,Mon Dec 08 2025 17:17:34 GMT-0600 (Central Standard Time),415035.6999999881,silver,1000,I,z,z,None,534,335.0,199.0,23,1,2061.699999988079,412974.0,7249,orange,NF,C,408528,408528,406801,407811,406801,408863,408329,408329,408863,112
112,test,1,inc,1,z,Mon Dec 08 2025 17:17:34 GMT-0600 (Central Standard Time),417034.2999999821,gold,800,I,z,z,None,659,460.0,199.0,61,1,1992.7999999821186,415041.5,7249,plum,NF,C,410395,410395,408869,409679,408869,410861,410196,410196,410861,113
113,test,1,inc,1,m,Mon Dec 08 2025 17:17:34 GMT-0600 (Central Standard Time),419182.09999999404,raisin,1100,I,m,m,None,511,312.0,199.0,80,1,2142.9000000059605,417039.1999999881,7249,copper,NF,C,412694,412694,410866,411978,410867,413009,412495,412495,413009,114
114,test,1,inc,1,z,Mon Dec 08 2025 17:17:34 GMT-0600 (Central Standard Time),421299.2999999821,zinc,1000,I,z,z,None,568,368.0,200.0,47,1,2114.0999999940395,419185.1999999881,7249,pear,NF,C,414743,414743,413012,414027,413012,415126,414543,414543,415126,115
115,test,1,con,1,m,Mon Dec 08 2025 17:17:34 GMT-0600 (Central Standard Time),423200.0,zinc,800,I,m,m,None,562,347.0,215.0,113,1,1896.300000011921,421303.6999999881,7249,zinc,NF,C,416675,416675,415131,415945,415131,417027,416460,416460,417027,116
116,test,1,inc,1,m,Mon Dec 08 2025 17:17:34 GMT-0600 (Central Standard Time),425464.6999999881,plum,1100,I,m,m,None,628,426.0,202.0,128,1,2262.0,423202.6999999881,7249,lead,NF,C,418860,418861,417030,418142,417030,419292,418658,418658,419292,117
117,test,1,inc,1,m,Mon Dec 08 2025 17:17:34 GMT-0600 (Central Standard Time),427414.2999999821,lime,800,I,m,m,None,630,416.0,214.0,109,1,1945.199999988079,425469.09999999404,7249,iron,NF,C,420825,420825,419296,420098,419296,421241,420610,420610,421241,118
118,test,1,con,1,m,Mon Dec 08 2025 17:17:34 GMT-0600 (Central Standard Time),429563.0,gold,1000,I,m,m,None,601,401.0,200.0,99,1,2144.5999999940395,427418.40000000596,7249,gold,NF,C,422974,422974,421245,422257,421246,423390,422774,422774,423390,119
119,test,1,inc,1,m,Mon Dec 08 2025 17:17:34 GMT-0600 (Central Standard Time),431432.90000000596,banana,800,I,m,m,None,531,331.0,200.0,93,1,1864.2000000178814,429568.6999999881,7249,cobalt,NF,C,424924,424924,423396,424206,423396,425260,424723,424723,425260,120
120,test,1,con,1,m,Mon Dec 08 2025 17:17:34 GMT-0600 (Central Standard Time),433329.0,copper,800,I,m,m,None,553,351.0,202.0,73,1,1890.4000000059605,431438.59999999404,7249,copper,NF,C,426791,426791,425266,426072,425266,427156,426589,426589,427156,121
121,test,1,inc,1,z,Mon Dec 08 2025 17:17:34 GMT-0600 (Central Standard Time),435494.7999999821,lead,1100,I,z,z,None,536,322.0,214.0,56,1,2161.2999999821186,433333.5,7249,kiwi,NF,C,428988,428988,427161,428272,427161,429322,428774,428774,429322,122
122,test,1,inc,1,z,Mon Dec 08 2025 17:17:34 GMT-0600 (Central Standard Time),437594.2999999821,cobalt,1100,I,z,z,None,452,251.0,201.0,24,1,2094.699999988079,435499.59999999404,7249,orange,NF,C,431156,431156,429327,430439,429327,431421,430955,430955,431421,123
123,test,1,con,1,z,Mon Dec 08 2025 17:17:34 GMT-0600 (Central Standard Time),439576.59999999404,orange,900,I,z,z,None,545,344.0,201.0,18,1,1976.4000000059605,437600.1999999881,7249,orange,NF,C,433055,433055,431427,432338,431428,433404,432854,432854,433404,124
124,test,1,inc,1,z,Mon Dec 08 2025 17:17:34 GMT-0600 (Central Standard Time),441592.59999999404,iron,900,I,z,z,None,582,369.0,213.0,54,1,2013.5,439579.09999999404,7249,kiwi,NF,C,435037,435037,433406,434321,433406,435420,434823,434823,435420,125
125,test,1,inc,1,m,Mon Dec 08 2025 17:17:34 GMT-0600 (Central Standard Time),443726.40000000596,raisin,1100,I,m,m,None,490,288.0,202.0,96,1,2129.4000000059605,441597.0,7249,cobalt,NF,C,437255,437255,435424,436537,435424,437553,437053,437053,437553,126
126,test,1,con,1,z,Mon Dec 08 2025 17:17:34 GMT-0600 (Central Standard Time),445659.2999999821,banana,800,I,z,z,None,585,385.0,200.0,1,1,1927.699999988079,443731.59999999404,7249,banana,NF,C,439086,439086,437559,438368,437559,439486,438885,438885,439486,127
126,test,1,con,0,z,Mon Dec 08 2025 17:17:34 GMT-0600 (Central Standard Time),447741.40000000596,lime,1000,I,m,m,None,548,349.0,199.0,35,1,2077.9000000059605,445663.5,7249,lime,NF,C,441218,441218,439491,440502,439491,441568,441019,441019,441568,128
