acc_sum,block_c,block_dur,condition,correct,correct_response,countdown,datetime,endtime,project,response,response_time,response_time_test1_response,response_time_test2_response,row_sel,same,session_number,start_end,starttime,stim1,stim2,subject_id,task,task_vers,time_test1,time_test2,trial
1,1,0.0,prac,1,m,30000.0,Fri Jan 09 2026 15:40:00 GMT-0600 (Central Standard Time),26818.099999904633,I,m,1748,,,4,no,2,3278.9000000953674,23539.199999809265,practrial4.png,practrial4b.png,8074,PC,C,,,1
2,1,0.0,prac,1,m,30000.0,Fri Jan 09 2026 15:40:00 GMT-0600 (Central Standard Time),29600.699999809265,I,m,1257,,,2,no,2,2777.7999999523163,26822.89999985695,practrial2.png,practrial2b.png,8074,PC,C,,,2
3,1,0.0,prac,1,z,30000.0,Fri Jan 09 2026 15:40:00 GMT-0600 (Central Standard Time),32083.099999904633,I,z,947,,,3,yes,2,2478.7000000476837,29604.39999985695,practrial3.png,practrial3.png,8074,PC,C,,,3
4,1,0.0,prac,1,z,30000.0,Fri Jan 09 2026 15:40:00 GMT-0600 (Central Standard Time),34650.0,I,z,1033,,,1,yes,2,2562.800000190735,32087.199999809265,practrial1.png,practrial1.png,8074,PC,C,,,4
5,1,0.0,prac,1,z,30000.0,Fri Jan 09 2026 15:40:00 GMT-0600 (Central Standard Time),37314.89999985695,I,z,1131,,,5,yes,2,2661.5,34653.39999985695,practrial5.png,practrial5.png,8074,PC,C,,,5
6,1,0.0,prac,1,m,30000.0,Fri Jan 09 2026 15:40:00 GMT-0600 (Central Standard Time),39847.39999985695,I,m,1001,,,6,no,2,2528.5999999046326,37318.799999952316,practrial6.png,practrial6b.png,8074,PC,C,,,6
1,1,1.434000015258789,test,1,z,28565.99998474121,Fri Jan 09 2026 15:40:00 GMT-0600 (Central Standard Time),50094.59999990463,I,z,1416,1416,,1,yes,2,1430.7000000476837,48663.89999985695,test1trial1.png,test1trial1.png,8074,PC,C,44782,,1
2,1,2.6660001277923584,test,1,m,27333.99987220764,Fri Jan 09 2026 15:40:00 GMT-0600 (Central Standard Time),51327.299999952316,I,m,1222,1222,,2,no,2,1229.7000000476837,50097.59999990463,test1trial2.png,test1trial2b.png,8074,PC,C,46215,,2
3,1,4.049000024795532,test,1,z,25950.999975204468,Fri Jan 09 2026 15:40:00 GMT-0600 (Central Standard Time),52710.199999809265,I,z,1366,1366,,3,yes,2,1380.0999999046326,51330.09999990463,test1trial3.png,test1trial3.png,8074,PC,C,47448,,3
4,1,5.315000057220459,test,1,m,24684.99994277954,Fri Jan 09 2026 15:40:00 GMT-0600 (Central Standard Time),53976.39999985695,I,m,1254,1254,,4,no,2,1263.2000000476837,52713.199999809265,test1trial4.png,test1trial4b.png,8074,PC,C,48831,,4
5,1,6.648000001907349,test,1,z,23351.99999809265,Fri Jan 09 2026 15:40:00 GMT-0600 (Central Standard Time),55309.59999990463,I,z,1325,1325,,5,yes,2,1330.5,53979.09999990463,test1trial5.png,test1trial5.png,8074,PC,C,50097,,5
6,1,7.865000009536743,test,1,m,22134.999990463257,Fri Jan 09 2026 15:40:00 GMT-0600 (Central Standard Time),56525.799999952316,I,m,1207,1207,,6,no,2,1213.0,55312.799999952316,test1trial6.png,test1trial6b.png,8074,PC,C,51431,,6
7,1,9.064000129699707,test,1,z,20935.999870300293,Fri Jan 09 2026 15:40:00 GMT-0600 (Central Standard Time),57725.0,I,z,1184,1184,,7,yes,2,1196.3000001907349,56528.699999809265,test1trial7.png,test1trial7.png,8074,PC,C,52646,,7
8,1,11.163000106811523,test,1,m,18836.999893188477,Fri Jan 09 2026 15:40:00 GMT-0600 (Central Standard Time),59824.39999985695,I,m,2087,2087,,8,no,2,2096.7000000476837,57727.699999809265,test1trial8.png,test1trial8b.png,8074,PC,C,53845,,8
9,1,12.27999997138977,test,1,z,17720.00002861023,Fri Jan 09 2026 15:40:00 GMT-0600 (Central Standard Time),60941.0,I,z,1109,1109,,9,yes,2,1113.5,59827.5,test1trial9.png,test1trial9.png,8074,PC,C,55945,,9
10,1,13.779000043869019,test,1,m,16220.999956130981,Fri Jan 09 2026 15:40:00 GMT-0600 (Central Standard Time),62440.5,I,m,1487,1487,,10,no,2,1496.2000000476837,60944.299999952316,test1trial10.png,test1trial10b.png,8074,PC,C,57062,,10
11,1,15.095999956130981,test,1,z,14904.000043869019,Fri Jan 09 2026 15:40:00 GMT-0600 (Central Standard Time),63756.799999952316,I,z,1309,1309,,11,yes,2,1313.2999999523163,62443.5,test1trial11.png,test1trial11.png,8074,PC,C,58561,,11
12,1,17.710999965667725,test,1,m,12289.000034332275,Fri Jan 09 2026 15:40:00 GMT-0600 (Central Standard Time),66372.39999985695,I,m,2608,2608,,12,no,2,2612.899999856949,63759.5,test1trial12.png,test1trial12b.png,8074,PC,C,59877,,12
13,1,19.045000076293945,test,1,m,10954.999923706055,Fri Jan 09 2026 15:40:00 GMT-0600 (Central Standard Time),67705.59999990463,I,m,1321,1321,,13,no,2,1330.4000000953674,66375.19999980927,test1trial13.png,test1trial13b.png,8074,PC,C,62493,,13
14,1,20.544000148773193,test,1,m,9455.999851226807,Fri Jan 09 2026 15:40:00 GMT-0600 (Central Standard Time),69205.0,I,m,1492,1492,,14,no,2,1496.5,67708.5,test1trial14.png,test1trial14b.png,8074,PC,C,63826,,14
15,1,21.8270001411438,test,1,z,8172.999858856201,Fri Jan 09 2026 15:40:00 GMT-0600 (Central Standard Time),70487.89999985695,I,z,1264,1264,,15,yes,2,1280.0999999046326,69207.79999995232,test1trial15.png,test1trial15.png,8074,PC,C,65325,,15
16,1,23.05999994277954,test,1,m,6940.000057220459,Fri Jan 09 2026 15:40:00 GMT-0600 (Central Standard Time),71720.89999985695,I,m,1212,1212,,16,no,2,1229.8999998569489,70491.0,test1trial16.png,test1trial16b.png,8074,PC,C,66610,,16
17,1,24.70900011062622,test,1,z,5290.999889373779,Fri Jan 09 2026 15:40:00 GMT-0600 (Central Standard Time),73370.39999985695,I,z,1636,1636,,17,yes,2,1646.3999998569489,71724.0,test1trial17.png,test1trial17.png,8074,PC,C,67842,,17
18,1,26.026000022888184,test,1,m,3973.9999771118164,Fri Jan 09 2026 15:40:00 GMT-0600 (Central Standard Time),74686.69999980927,I,m,1307,1307,,18,no,2,1313.5,73373.19999980927,test1trial18.png,test1trial18b.png,8074,PC,C,69491,,18
19,1,27.54200005531311,test,1,m,2457.9999446868896,Fri Jan 09 2026 15:40:00 GMT-0600 (Central Standard Time),76202.89999985695,I,m,1503,1503,,19,no,2,1513.5999999046326,74689.29999995232,test1trial19.png,test1trial19b.png,8074,PC,C,70807,,19
20,1,28.94099998474121,test,1,z,1059.000015258789,Fri Jan 09 2026 15:40:00 GMT-0600 (Central Standard Time),77602.0,I,z,1394,1394,,20,yes,2,1396.1000001430511,76205.89999985695,test1trial20.png,test1trial20.png,8074,PC,C,72324,,20
20,1,30.008000135421753,test,0,z,-8.00013542175293,Fri Jan 09 2026 15:40:00 GMT-0600 (Central Standard Time),78668.69999980927,I,None,1063,1063,,21,yes,2,1064.0999999046326,77604.59999990463,test1trial21.png,test1trial21.png,8074,PC,C,73722,,21
1,2,1.7829999923706055,test,1,m,28217.000007629395,Fri Jan 09 2026 15:40:00 GMT-0600 (Central Standard Time),85266.29999995232,I,m,1778,,1778.0,1,no,2,7661.700000047684,77604.59999990463,test2trial1.png,test2trial1b.png,8074,PC,C,,79604.0,1
2,2,3.1660001277923584,test,1,m,26833.99987220764,Fri Jan 09 2026 15:40:00 GMT-0600 (Central Standard Time),86649.59999990463,I,m,1370,,1370.0,2,no,2,9045.0,77604.59999990463,test2trial2.png,test2trial2b.png,8074,PC,C,,81387.0,2
3,2,4.365000009536743,test,1,z,25634.999990463257,Fri Jan 09 2026 15:40:00 GMT-0600 (Central Standard Time),87849.0,I,z,1188,,1188.0,3,yes,2,10244.400000095367,77604.59999990463,test2trial3.png,test2trial3.png,8074,PC,C,,82770.0,3
4,2,5.565000057220459,test,1,z,24434.99994277954,Fri Jan 09 2026 15:40:00 GMT-0600 (Central Standard Time),89048.5,I,z,1181,,1181.0,4,yes,2,11443.900000095367,77604.59999990463,test2trial4.png,test2trial4.png,8074,PC,C,,83969.0,4
5,2,6.8480000495910645,test,1,z,23151.999950408936,Fri Jan 09 2026 15:40:00 GMT-0600 (Central Standard Time),90331.69999980927,I,z,1276,,1276.0,5,yes,2,12727.099999904633,77604.59999990463,test2trial5.png,test2trial5.png,8074,PC,C,,85169.0,5
6,2,8.164000034332275,test,1,z,21835.999965667725,Fri Jan 09 2026 15:40:00 GMT-0600 (Central Standard Time),91647.69999980927,I,z,1297,,1297.0,6,yes,2,14043.099999904633,77604.59999990463,test2trial6.png,test2trial6.png,8074,PC,C,,86452.0,6
7,2,10.064000129699707,test,1,m,19935.999870300293,Fri Jan 09 2026 15:40:00 GMT-0600 (Central Standard Time),93547.5,I,m,1884,,1884.0,7,no,2,15942.900000095367,77604.59999990463,test2trial7.png,test2trial7b.png,8074,PC,C,,87769.0,7
8,2,11.380000114440918,test,1,m,18619.999885559082,Fri Jan 09 2026 15:40:00 GMT-0600 (Central Standard Time),94863.69999980927,I,m,1306,,1306.0,8,no,2,17259.099999904633,77604.59999990463,test2trial8.png,test2trial8b.png,8074,PC,C,,89668.0,8
9,2,12.86299991607666,test,1,z,17137.00008392334,Fri Jan 09 2026 15:40:00 GMT-0600 (Central Standard Time),96346.29999995232,I,z,1470,,1470.0,9,yes,2,18741.700000047684,77604.59999990463,test2trial9.png,test2trial9.png,8074,PC,C,,90984.0,9
10,2,14.196000099182129,test,1,z,15803.999900817871,Fri Jan 09 2026 15:40:00 GMT-0600 (Central Standard Time),97679.5,I,z,1322,,1322.0,10,yes,2,20074.900000095367,77604.59999990463,test2trial10.png,test2trial10.png,8074,PC,C,,92467.0,10
11,2,15.578999996185303,test,1,m,14421.000003814697,Fri Jan 09 2026 15:40:00 GMT-0600 (Central Standard Time),99062.09999990463,I,m,1366,,1366.0,11,no,2,21457.5,77604.59999990463,test2trial11.png,test2trial11b.png,8074,PC,C,,93800.0,11
12,2,16.962000131607056,test,1,m,13037.999868392944,Fri Jan 09 2026 15:40:00 GMT-0600 (Central Standard Time),100445.19999980927,I,m,1375,,1375.0,12,no,2,22840.599999904633,77604.59999990463,test2trial12.png,test2trial12b.png,8074,PC,C,,95183.0,12
13,2,18.278000116348267,test,1,z,11721.999883651733,Fri Jan 09 2026 15:40:00 GMT-0600 (Central Standard Time),101761.39999985695,I,z,1311,,1311.0,13,yes,2,24156.799999952316,77604.59999990463,test2trial13.png,test2trial13.png,8074,PC,C,,96566.0,13
14,2,20.07699990272522,test,1,m,9923.00009727478,Fri Jan 09 2026 15:40:00 GMT-0600 (Central Standard Time),103560.89999985695,I,m,1796,,1796.0,14,no,2,25956.299999952316,77604.59999990463,test2trial14.png,test2trial14b.png,8074,PC,C,,97882.0,14
15,2,21.22699999809265,test,1,m,8773.000001907349,Fri Jan 09 2026 15:40:00 GMT-0600 (Central Standard Time),104710.39999985695,I,m,1141,,1141.0,15,no,2,27105.799999952316,77604.59999990463,test2trial15.png,test2trial15b.png,8074,PC,C,,99681.0,15
16,2,22.693000078201294,test,1,m,7306.999921798706,Fri Jan 09 2026 15:40:00 GMT-0600 (Central Standard Time),106176.5,I,m,1462,,1462.0,16,no,2,28571.900000095367,77604.59999990463,test2trial16.png,test2trial16b.png,8074,PC,C,,100831.0,16
17,2,24.276000022888184,test,1,z,5723.999977111816,Fri Jan 09 2026 15:40:00 GMT-0600 (Central Standard Time),107759.69999980927,I,z,1564,,1564.0,17,yes,2,30155.099999904633,77604.59999990463,test2trial17.png,test2trial17.png,8074,PC,C,,102297.0,17
18,2,25.342000007629395,test,1,z,4657.9999923706055,Fri Jan 09 2026 15:40:00 GMT-0600 (Central Standard Time),108825.59999990463,I,z,1062,,1062.0,18,yes,2,31221.0,77604.59999990463,test2trial18.png,test2trial18.png,8074,PC,C,,103880.0,18
19,2,26.992000102996826,test,1,z,3007.999897003174,Fri Jan 09 2026 15:40:00 GMT-0600 (Central Standard Time),110475.29999995232,I,z,1635,,1635.0,19,yes,2,32870.700000047684,77604.59999990463,test2trial19.png,test2trial19.png,8074,PC,C,,104946.0,19
20,2,28.20799994468689,test,1,z,1792.0000553131104,Fri Jan 09 2026 15:40:00 GMT-0600 (Central Standard Time),111691.69999980927,I,z,1202,,1202.0,20,yes,2,34087.09999990463,77604.59999990463,test2trial20.png,test2trial20.png,8074,PC,C,,106595.0,20
21,2,29.990999937057495,test,1,z,9.000062942504883,Fri Jan 09 2026 15:40:00 GMT-0600 (Central Standard Time),113474.39999985695,I,z,1770,,1770.0,21,yes,2,35869.799999952316,77604.59999990463,test2trial21.png,test2trial21.png,8074,PC,C,,107812.0,21
21,2,30.008000135421753,test,0,m,-8.00013542175293,Fri Jan 09 2026 15:40:00 GMT-0600 (Central Standard Time),113491.09999990463,I,None,13,,13.0,22,no,2,35886.5,77604.59999990463,test2trial22.png,test2trial22b.png,8074,PC,C,,109595.0,22
