acc_sum,block,block_c,change,condition,correct,correct_response,datetime,endtime,face,project,response,response_time,row_sel,session_number,start_end,starttime,subject_id,task,task_vers,trial
0,prac,1,,1-Back,,,Fri May 30 2025 14:59:10 GMT-0500 (Central Daylight Time),,005_o_f_d_a.png,I,space,3643,1,2,,,8035,VNB,B,0
0,prac,1,0.0,1-Back,0,m,Fri May 30 2025 14:59:10 GMT-0500 (Central Daylight Time),110054.69999998808,020_y_f_n_a.png,I,z,1284,2,2,2173.0,107881.69999998808,8035,VNB,B,1
1,prac,1,0.0,1-Back,1,m,Fri May 30 2025 14:59:10 GMT-0500 (Central Daylight Time),112187.39999997616,007_m_m_h_a.png,I,m,1233,3,2,2125.399999976158,110062.0,8035,VNB,B,2
2,prac,1,0.0,1-Back,1,m,Fri May 30 2025 14:59:10 GMT-0500 (Central Daylight Time),114053.5,016_y_m_d_a.png,I,m,951,4,2,1859.5,112194.0,8035,VNB,B,3
3,prac,1,0.0,1-Back,1,m,Fri May 30 2025 14:59:10 GMT-0500 (Central Daylight Time),115986.09999999404,005_o_f_n_a.png,I,m,1040,5,2,1925.0,114061.09999999404,8035,VNB,B,4
3,prac,1,1.0,1-Back,0,z,Fri May 30 2025 14:59:10 GMT-0500 (Central Daylight Time),117901.89999997616,016_y_m_n_a.png,I,m,1010,6,2,1908.699999988079,115993.19999998808,8035,VNB,B,5
4,prac,1,0.0,1-Back,1,m,Fri May 30 2025 14:59:10 GMT-0500 (Central Daylight Time),119818.39999997616,004_o_m_h_a.png,I,m,1042,7,2,1909.7999999821186,117908.59999999404,8035,VNB,B,6
5,prac,1,0.0,1-Back,1,m,Fri May 30 2025 14:59:10 GMT-0500 (Central Daylight Time),121817.59999999404,011_m_f_d_a.png,I,m,1108,8,2,1991.7000000178814,119825.89999997616,8035,VNB,B,7
5,prac,1,1.0,1-Back,0,z,Fri May 30 2025 14:59:10 GMT-0500 (Central Daylight Time),123716.89999997616,020_y_f_d_a.png,I,m,1016,9,2,1893.0999999940395,121823.79999998212,8035,VNB,B,8
6,prac,1,0.0,1-Back,1,m,Fri May 30 2025 14:59:10 GMT-0500 (Central Daylight Time),125866.69999998808,007_m_m_n_a.png,I,m,1250,10,2,2141.699999988079,123725.0,8035,VNB,B,9
7,prac,1,0.0,1-Back,1,m,Fri May 30 2025 14:59:10 GMT-0500 (Central Daylight Time),127732.69999998808,005_o_f_h_a.png,I,m,971,11,2,1860.699999988079,125872.0,8035,VNB,B,10
8,prac,1,0.0,1-Back,1,m,Fri May 30 2025 14:59:10 GMT-0500 (Central Daylight Time),129682.0,016_y_m_d_a.png,I,m,1038,12,2,1941.9000000059605,127740.09999999404,8035,VNB,B,11
0,test,1,0.0,1-Back,,,Fri May 30 2025 14:59:10 GMT-0500 (Central Daylight Time),129682.0,020_y_f_d_a.png,I,space,4511,1,2,1941.9000000059605,127740.09999999404,8035,VNB,B,0
1,test,1,0.0,1-Back,1,m,Fri May 30 2025 14:59:10 GMT-0500 (Central Daylight Time),143211.0,011_m_f_n_a.png,I,m,924,2,2,1944.6000000238419,141266.39999997616,8035,VNB,B,1
2,test,1,0.0,1-Back,1,m,Fri May 30 2025 14:59:10 GMT-0500 (Central Daylight Time),145078.09999999404,004_o_m_h_a.png,I,m,838,3,2,1863.7000000178814,143214.39999997616,8035,VNB,B,2
3,test,1,1.0,1-Back,1,z,Fri May 30 2025 14:59:10 GMT-0500 (Central Daylight Time),146959.69999998808,007_m_m_h_a.png,I,z,859,4,2,1877.300000011921,145082.39999997616,8035,VNB,B,3
4,test,1,0.0,1-Back,1,m,Fri May 30 2025 14:59:10 GMT-0500 (Central Daylight Time),148626.09999999404,005_o_f_n_a.png,I,m,641,5,2,1663.300000011921,146962.79999998212,8035,VNB,B,4
5,test,1,0.0,1-Back,1,m,Fri May 30 2025 14:59:10 GMT-0500 (Central Daylight Time),150574.89999997616,016_y_m_d_a.png,I,m,920,6,2,1944.5,148630.39999997616,8035,VNB,B,5
6,test,1,1.0,1-Back,1,z,Fri May 30 2025 14:59:10 GMT-0500 (Central Daylight Time),152591.39999997616,011_m_f_d_a.png,I,z,986,7,2,2013.0,150578.39999997616,8035,VNB,B,6
7,test,1,0.0,1-Back,1,m,Fri May 30 2025 14:59:10 GMT-0500 (Central Daylight Time),154324.19999998808,020_y_f_h_a.png,I,m,714,8,2,1728.5999999940395,152595.59999999404,8035,VNB,B,7
8,test,1,0.0,1-Back,1,m,Fri May 30 2025 14:59:10 GMT-0500 (Central Daylight Time),156290.09999999404,004_o_m_n_a.png,I,m,949,9,2,1962.5,154327.59999999404,8035,VNB,B,8
9,test,1,0.0,1-Back,1,m,Fri May 30 2025 14:59:10 GMT-0500 (Central Daylight Time),158372.69999998808,016_y_m_h_a.png,I,m,1063,10,2,2078.9000000059605,156293.79999998212,8035,VNB,B,9
10,test,1,0.0,1-Back,1,m,Fri May 30 2025 14:59:10 GMT-0500 (Central Daylight Time),160072.29999998212,004_o_m_d_a.png,I,m,668,11,2,1695.199999988079,158377.09999999404,8035,VNB,B,10
11,test,1,1.0,1-Back,1,z,Fri May 30 2025 14:59:10 GMT-0500 (Central Daylight Time),162038.39999997616,005_o_f_d_a.png,I,z,944,12,2,1962.7999999821186,160075.59999999404,8035,VNB,B,11
12,test,1,0.0,1-Back,1,m,Fri May 30 2025 14:59:10 GMT-0500 (Central Daylight Time),164104.29999998212,007_m_m_n_a.png,I,m,1043,13,2,2061.699999988079,162042.59999999404,8035,VNB,B,12
13,test,1,1.0,1-Back,1,z,Fri May 30 2025 14:59:10 GMT-0500 (Central Daylight Time),166153.79999998212,020_y_f_n_a.png,I,z,1017,14,2,2044.9000000059605,164108.89999997616,8035,VNB,B,13
14,test,1,0.0,1-Back,1,m,Fri May 30 2025 14:59:10 GMT-0500 (Central Daylight Time),168036.5,011_m_f_h_a.png,I,m,856,15,2,1878.7000000178814,166157.79999998212,8035,VNB,B,14
15,test,1,0.0,1-Back,1,m,Fri May 30 2025 14:59:10 GMT-0500 (Central Daylight Time),169935.39999997616,007_m_m_d_a.png,I,m,876,16,2,1895.199999988079,168040.19999998808,8035,VNB,B,15
15,test,1,0.0,1-Back,0,m,Fri May 30 2025 14:59:10 GMT-0500 (Central Daylight Time),172001.69999998808,016_y_m_n_a.png,I,z,971,17,2,2062.4000000059605,169939.29999998212,8035,VNB,B,16
16,test,1,0.0,1-Back,1,m,Fri May 30 2025 14:59:10 GMT-0500 (Central Daylight Time),173884.79999998212,005_o_f_h_a.png,I,m,854,18,2,1878.5,172006.29999998212,8035,VNB,B,17
0,test,2,0.0,1-Back,,,Fri May 30 2025 14:59:10 GMT-0500 (Central Daylight Time),173884.79999998212,016_y_m_n_a.png,I,space,1349,1,2,1878.5,172006.29999998212,8035,VNB,B,0
1,test,2,0.0,1-Back,1,m,Fri May 30 2025 14:59:10 GMT-0500 (Central Daylight Time),179099.69999998808,020_y_f_h_a.png,I,m,831,2,2,1844.800000011921,177254.89999997616,8035,VNB,B,1
2,test,2,1.0,1-Back,1,m,Fri May 30 2025 14:59:10 GMT-0500 (Central Daylight Time),180915.69999998808,004_o_m_n_a.png,I,m,790,3,2,1812.800000011921,179102.89999997616,8035,VNB,B,2
3,test,2,0.0,1-Back,1,m,Fri May 30 2025 14:59:10 GMT-0500 (Central Daylight Time),182798.59999999404,011_m_f_d_a.png,I,m,853,4,2,1878.5999999940395,180920.0,8035,VNB,B,3
4,test,2,0.0,1-Back,1,z,Fri May 30 2025 14:59:10 GMT-0500 (Central Daylight Time),184847.89999997616,007_m_m_d_a.png,I,z,1026,5,2,2046.0,182801.89999997616,8035,VNB,B,4
5,test,2,0.0,1-Back,1,m,Fri May 30 2025 14:59:10 GMT-0500 (Central Daylight Time),186663.89999997616,016_y_m_h_a.png,I,m,785,6,2,1811.7999999821186,184852.09999999404,8035,VNB,B,5
5,test,2,1.0,1-Back,0,z,Fri May 30 2025 14:59:10 GMT-0500 (Central Daylight Time),188296.79999998212,005_o_f_h_a.png,I,m,609,7,2,1628.7999999821186,186668.0,8035,VNB,B,6
6,test,2,0.0,1-Back,1,m,Fri May 30 2025 14:59:10 GMT-0500 (Central Daylight Time),190263.0,011_m_f_n_a.png,I,m,944,8,2,1961.800000011921,188301.19999998808,8035,VNB,B,7
6,test,2,0.0,1-Back,0,m,Fri May 30 2025 14:59:10 GMT-0500 (Central Daylight Time),192262.39999997616,020_y_f_d_a.png,I,z,971,9,2,1995.5999999940395,190266.79999998212,8035,VNB,B,8
7,test,2,0.0,1-Back,1,m,Fri May 30 2025 14:59:10 GMT-0500 (Central Daylight Time),194689.69999998808,007_m_m_n_a.png,I,m,1410,10,2,2423.0999999940395,192266.59999999404,8035,VNB,B,9
8,test,2,1.0,1-Back,1,m,Fri May 30 2025 14:59:10 GMT-0500 (Central Daylight Time),196744.09999999404,011_m_f_h_a.png,I,m,1027,11,2,2050.300000011921,194693.79999998212,8035,VNB,B,10
9,test,2,0.0,1-Back,1,z,Fri May 30 2025 14:59:10 GMT-0500 (Central Daylight Time),198576.69999998808,004_o_m_h_a.png,I,z,800,12,2,1828.9000000059605,196747.79999998212,8035,VNB,B,11
10,test,2,0.0,1-Back,1,m,Fri May 30 2025 14:59:10 GMT-0500 (Central Daylight Time),200226.29999998212,016_y_m_d_a.png,I,m,624,13,2,1645.2999999821186,198581.0,8035,VNB,B,12
11,test,2,0.0,1-Back,1,m,Fri May 30 2025 14:59:10 GMT-0500 (Central Daylight Time),202242.29999998212,005_o_f_n_a.png,I,m,983,14,2,2012.0,200230.29999998212,8035,VNB,B,13
12,test,2,0.0,1-Back,1,z,Fri May 30 2025 14:59:10 GMT-0500 (Central Daylight Time),204324.89999997616,020_y_f_n_a.png,I,z,1055,15,2,2077.5,202247.39999997616,8035,VNB,B,14
13,test,2,1.0,1-Back,1,m,Fri May 30 2025 14:59:10 GMT-0500 (Central Daylight Time),206324.5,007_m_m_h_a.png,I,m,980,16,2,1994.800000011921,204329.69999998808,8035,VNB,B,15
14,test,2,0.0,1-Back,1,m,Fri May 30 2025 14:59:10 GMT-0500 (Central Daylight Time),208290.29999998212,005_o_f_d_a.png,I,m,949,17,2,1962.4000000059605,206327.89999997616,8035,VNB,B,16
15,test,2,1.0,1-Back,1,z,Fri May 30 2025 14:59:10 GMT-0500 (Central Daylight Time),210156.59999999404,004_o_m_d_a.png,I,z,847,18,2,1863.0999999940395,208293.5,8035,VNB,B,17
0,test,3,1.0,1-Back,,,Fri May 30 2025 14:59:10 GMT-0500 (Central Daylight Time),210156.59999999404,005_o_f_h_a.png,I,space,1109,1,2,1863.0999999940395,208293.5,8035,VNB,B,0
0,test,3,0.0,1-Back,0,m,Fri May 30 2025 14:59:10 GMT-0500 (Central Daylight Time),215221.5,011_m_f_d_a.png,I,z,787,2,2,1811.4000000059605,213410.09999999404,8035,VNB,B,1
1,test,3,1.0,1-Back,1,m,Fri May 30 2025 14:59:10 GMT-0500 (Central Daylight Time),217387.69999998808,007_m_m_n_a.png,I,m,1147,3,2,2161.699999988079,215226.0,8035,VNB,B,2
2,test,3,0.0,1-Back,1,z,Fri May 30 2025 14:59:10 GMT-0500 (Central Daylight Time),219404.5,005_o_f_n_a.png,I,z,990,4,2,2012.1000000238419,217392.39999997616,8035,VNB,B,3
3,test,3,1.0,1-Back,1,m,Fri May 30 2025 14:59:10 GMT-0500 (Central Daylight Time),221169.89999997616,004_o_m_d_a.png,I,m,749,5,2,1762.0999999940395,219407.79999998212,8035,VNB,B,4
4,test,3,0.0,1-Back,1,m,Fri May 30 2025 14:59:10 GMT-0500 (Central Daylight Time),222969.09999999404,020_y_f_h_a.png,I,m,775,6,2,1795.300000011921,221173.79999998212,8035,VNB,B,5
5,test,3,0.0,1-Back,1,z,Fri May 30 2025 14:59:10 GMT-0500 (Central Daylight Time),224985.29999998212,016_y_m_h_a.png,I,z,983,7,2,2012.4000000059605,222972.89999997616,8035,VNB,B,6
6,test,3,0.0,1-Back,1,m,Fri May 30 2025 14:59:10 GMT-0500 (Central Daylight Time),226784.69999998808,011_m_f_n_a.png,I,m,776,8,2,1795.5999999940395,224989.09999999404,8035,VNB,B,7
7,test,3,0.0,1-Back,1,m,Fri May 30 2025 14:59:10 GMT-0500 (Central Daylight Time),229316.79999998212,020_y_f_d_a.png,I,m,1512,9,2,2527.699999988079,226789.09999999404,8035,VNB,B,8
8,test,3,1.0,1-Back,1,m,Fri May 30 2025 14:59:10 GMT-0500 (Central Daylight Time),231533.09999999404,004_o_m_n_a.png,I,m,1188,10,2,2212.300000011921,229320.79999998212,8035,VNB,B,9
9,test,3,0.0,1-Back,1,m,Fri May 30 2025 14:59:10 GMT-0500 (Central Daylight Time),233550.19999998808,007_m_m_h_a.png,I,m,988,11,2,2012.199999988079,231538.0,8035,VNB,B,10
10,test,3,0.0,1-Back,1,z,Fri May 30 2025 14:59:10 GMT-0500 (Central Daylight Time),235448.69999998808,011_m_f_h_a.png,I,z,868,12,2,1894.800000011921,233553.89999997616,8035,VNB,B,11
10,test,3,1.0,1-Back,0,m,Fri May 30 2025 14:59:10 GMT-0500 (Central Daylight Time),237548.0,005_o_f_d_a.png,I,z,1080,13,2,2094.800000011921,235453.19999998808,8035,VNB,B,12
11,test,3,0.0,1-Back,1,z,Fri May 30 2025 14:59:10 GMT-0500 (Central Daylight Time),239297.5,007_m_m_d_a.png,I,z,717,14,2,1745.4000000059605,237552.09999999404,8035,VNB,B,13
12,test,3,0.0,1-Back,1,m,Fri May 30 2025 14:59:10 GMT-0500 (Central Daylight Time),241180.0,016_y_m_n_a.png,I,m,863,15,2,1878.0,239302.0,8035,VNB,B,14
13,test,3,1.0,1-Back,1,m,Fri May 30 2025 14:59:10 GMT-0500 (Central Daylight Time),242962.89999997616,004_o_m_h_a.png,I,m,764,16,2,1779.0,241183.89999997616,8035,VNB,B,15
14,test,3,0.0,1-Back,1,m,Fri May 30 2025 14:59:10 GMT-0500 (Central Daylight Time),244628.89999997616,016_y_m_d_a.png,I,m,638,17,2,1662.2999999821186,242966.59999999404,8035,VNB,B,16
15,test,3,1.0,1-Back,1,m,Fri May 30 2025 14:59:10 GMT-0500 (Central Daylight Time),246744.89999997616,020_y_f_n_a.png,I,m,1083,18,2,2112.899999976158,244632.0,8035,VNB,B,17
0,test,4,1.0,1-Back,,,Fri May 30 2025 14:59:10 GMT-0500 (Central Daylight Time),246744.89999997616,007_m_m_d_a.png,I,space,1680,1,2,2112.899999976158,244632.0,8035,VNB,B,0
1,test,4,0.0,1-Back,1,z,Fri May 30 2025 14:59:10 GMT-0500 (Central Daylight Time),252443.19999998808,004_o_m_d_a.png,I,z,982,2,2,1995.9000000059605,250447.29999998212,8035,VNB,B,1
2,test,4,0.0,1-Back,1,m,Fri May 30 2025 14:59:10 GMT-0500 (Central Daylight Time),254159.09999999404,016_y_m_h_a.png,I,m,686,3,2,1712.0,252447.09999999404,8035,VNB,B,2
3,test,4,0.0,1-Back,1,m,Fri May 30 2025 14:59:10 GMT-0500 (Central Daylight Time),256208.69999998808,011_m_f_n_a.png,I,m,1017,4,2,2045.0,254163.69999998808,8035,VNB,B,3
4,test,4,1.0,1-Back,1,m,Fri May 30 2025 14:59:10 GMT-0500 (Central Daylight Time),258108.0,005_o_f_h_a.png,I,m,872,5,2,1895.4000000059605,256212.59999999404,8035,VNB,B,4
4,test,4,0.0,1-Back,0,m,Fri May 30 2025 14:59:10 GMT-0500 (Central Daylight Time),260590.69999998808,007_m_m_n_a.png,I,z,1461,6,2,2479.300000011921,258111.39999997616,8035,VNB,B,5
5,test,4,0.0,1-Back,1,m,Fri May 30 2025 14:59:10 GMT-0500 (Central Daylight Time),262940.0,016_y_m_d_a.png,I,m,1330,7,2,2345.300000011921,260594.69999998808,8035,VNB,B,6
6,test,4,1.0,1-Back,1,z,Fri May 30 2025 14:59:10 GMT-0500 (Central Daylight Time),265236.5,020_y_f_d_a.png,I,z,1141,8,2,2292.300000011921,262944.1999999881,8035,VNB,B,7
7,test,4,0.0,1-Back,1,m,Fri May 30 2025 14:59:10 GMT-0500 (Central Daylight Time),267088.6999999881,011_m_f_h_a.png,I,m,826,9,2,1847.5,265241.1999999881,8035,VNB,B,8
8,test,4,0.0,1-Back,1,z,Fri May 30 2025 14:59:10 GMT-0500 (Central Daylight Time),268938.0,004_o_m_h_a.png,I,z,825,10,2,1844.9000000059605,267093.09999999404,8035,VNB,B,9
9,test,4,1.0,1-Back,1,m,Fri May 30 2025 14:59:10 GMT-0500 (Central Daylight Time),271337.0,005_o_f_n_a.png,I,m,1375,11,2,2392.9000000059605,268944.09999999404,8035,VNB,B,10
9,test,4,0.0,1-Back,0,m,Fri May 30 2025 14:59:10 GMT-0500 (Central Daylight Time),273503.2999999821,011_m_f_d_a.png,I,z,1136,12,2,2162.2999999821186,271341.0,8035,VNB,B,11
10,test,4,0.0,1-Back,1,m,Fri May 30 2025 14:59:10 GMT-0500 (Central Daylight Time),276102.39999997616,020_y_f_n_a.png,I,m,1570,13,2,2594.5999999940395,273507.7999999821,8035,VNB,B,12
11,test,4,0.0,1-Back,1,m,Fri May 30 2025 14:59:10 GMT-0500 (Central Daylight Time),278801.7999999821,005_o_f_d_a.png,I,m,1682,14,2,2695.0999999940395,276106.6999999881,8035,VNB,B,13
12,test,4,0.0,1-Back,1,m,Fri May 30 2025 14:59:10 GMT-0500 (Central Daylight Time),281300.7999999821,020_y_f_h_a.png,I,m,1480,15,2,2495.0999999940395,278805.6999999881,8035,VNB,B,14
13,test,4,1.0,1-Back,1,z,Fri May 30 2025 14:59:10 GMT-0500 (Central Daylight Time),282967.0,007_m_m_h_a.png,I,z,636,16,2,1662.1000000238419,281304.89999997616,8035,VNB,B,15
14,test,4,0.0,1-Back,1,m,Fri May 30 2025 14:59:10 GMT-0500 (Central Daylight Time),284650.89999997616,004_o_m_n_a.png,I,m,650,17,2,1680.0,282970.89999997616,8035,VNB,B,16
15,test,4,1.0,1-Back,1,z,Fri May 30 2025 14:59:10 GMT-0500 (Central Daylight Time),286465.7999999821,016_y_m_n_a.png,I,z,799,18,2,1810.5999999940395,284655.1999999881,8035,VNB,B,17
0,test,5,1.0,1-Back,,,Fri May 30 2025 14:59:10 GMT-0500 (Central Daylight Time),286465.7999999821,004_o_m_n_a.png,I,space,1096,1,2,1810.5999999940395,284655.1999999881,8035,VNB,B,0
1,test,5,1.0,1-Back,1,m,Fri May 30 2025 14:59:10 GMT-0500 (Central Daylight Time),291597.6999999881,005_o_f_h_a.png,I,m,996,2,2,2011.800000011921,289585.89999997616,8035,VNB,B,1
2,test,5,0.0,1-Back,1,m,Fri May 30 2025 14:59:10 GMT-0500 (Central Daylight Time),293663.6999999881,016_y_m_d_a.png,I,m,1036,3,2,2061.5999999940395,291602.09999999404,8035,VNB,B,2
3,test,5,0.0,1-Back,1,z,Fri May 30 2025 14:59:10 GMT-0500 (Central Daylight Time),295796.39999997616,004_o_m_d_a.png,I,z,1103,4,2,2129.5,293666.89999997616,8035,VNB,B,3
4,test,5,0.0,1-Back,1,m,Fri May 30 2025 14:59:10 GMT-0500 (Central Daylight Time),297762.5,011_m_f_h_a.png,I,m,948,5,2,1962.0,295800.5,8035,VNB,B,4
5,test,5,0.0,1-Back,1,m,Fri May 30 2025 14:59:10 GMT-0500 (Central Daylight Time),300045.0,020_y_f_n_a.png,I,m,1255,6,2,2279.0,297766.0,8035,VNB,B,5
6,test,5,1.0,1-Back,1,z,Fri May 30 2025 14:59:10 GMT-0500 (Central Daylight Time),301944.2999999821,005_o_f_n_a.png,I,z,876,7,2,1896.2999999821186,300048.0,8035,VNB,B,6
7,test,5,0.0,1-Back,1,m,Fri May 30 2025 14:59:10 GMT-0500 (Central Daylight Time),304277.09999999404,011_m_f_d_a.png,I,m,1305,8,2,2328.800000011921,301948.2999999821,8035,VNB,B,7
8,test,5,0.0,1-Back,1,m,Fri May 30 2025 14:59:10 GMT-0500 (Central Daylight Time),306376.2999999821,016_y_m_h_a.png,I,m,1076,9,2,2095.5,304280.7999999821,8035,VNB,B,8
9,test,5,0.0,1-Back,1,m,Fri May 30 2025 14:59:10 GMT-0500 (Central Daylight Time),308275.6999999881,020_y_f_d_a.png,I,m,873,10,2,1896.0,306379.6999999881,8035,VNB,B,9
10,test,5,0.0,1-Back,1,m,Fri May 30 2025 14:59:10 GMT-0500 (Central Daylight Time),310408.1999999881,007_m_m_n_a.png,I,m,1101,11,2,2127.699999988079,308280.5,8035,VNB,B,10
11,test,5,1.0,1-Back,1,z,Fri May 30 2025 14:59:10 GMT-0500 (Central Daylight Time),312503.09999999404,011_m_f_n_a.png,I,z,1078,12,2,2090.800000011921,310412.2999999821,8035,VNB,B,11
12,test,5,0.0,1-Back,1,m,Fri May 30 2025 14:59:10 GMT-0500 (Central Daylight Time),314440.39999997616,004_o_m_h_a.png,I,m,910,13,2,1932.8999999761581,312507.5,8035,VNB,B,12
12,test,5,0.0,1-Back,0,z,Fri May 30 2025 14:59:10 GMT-0500 (Central Daylight Time),316423.09999999404,007_m_m_h_a.png,I,m,953,14,2,1979.0,314444.09999999404,8035,VNB,B,13
13,test,5,1.0,1-Back,1,m,Fri May 30 2025 14:59:10 GMT-0500 (Central Daylight Time),318455.6999999881,005_o_f_d_a.png,I,m,1010,15,2,2029.199999988079,316426.5,8035,VNB,B,14
13,test,5,0.0,1-Back,0,m,Fri May 30 2025 14:59:10 GMT-0500 (Central Daylight Time),320438.2999999821,016_y_m_n_a.png,I,z,960,16,2,1979.2999999821186,318459.0,8035,VNB,B,15
14,test,5,0.0,1-Back,1,m,Fri May 30 2025 14:59:10 GMT-0500 (Central Daylight Time),322321.2999999821,020_y_f_h_a.png,I,m,851,17,2,1879.7999999821186,320441.5,8035,VNB,B,16
15,test,5,0.0,1-Back,1,m,Fri May 30 2025 14:59:10 GMT-0500 (Central Daylight Time),324453.7999999821,007_m_m_d_a.png,I,m,1104,18,2,2129.199999988079,322324.59999999404,8035,VNB,B,17
0,prac,1,0.0,2-Back,,,Fri May 30 2025 14:59:10 GMT-0500 (Central Daylight Time),324453.7999999821,011_m_f_n_a.png,I,space,3192,1,2,2129.199999988079,322324.59999999404,8035,VNB,B,0
0,prac,1,0.0,2-Back,,,Fri May 30 2025 14:59:10 GMT-0500 (Central Daylight Time),324453.7999999821,005_o_f_h_a.png,I,space,3192,2,2,2129.199999988079,322324.59999999404,8035,VNB,B,0
0,prac,1,0.0,2-Back,0,m,Fri May 30 2025 14:59:10 GMT-0500 (Central Daylight Time),413659.39999997616,004_o_m_d_a.png,I,None,2010,3,2,2876.0,410783.39999997616,8035,VNB,B,1
0,prac,1,1.0,2-Back,0,z,Fri May 30 2025 14:59:10 GMT-0500 (Central Daylight Time),415908.6999999881,007_m_m_h_a.png,I,m,1347,4,2,2243.5999999940395,413665.09999999404,8035,VNB,B,2
0,prac,1,0.0,2-Back,0,m,Fri May 30 2025 14:59:10 GMT-0500 (Central Daylight Time),418790.89999997616,020_y_f_n_a.png,I,None,2004,5,2,2876.199999988079,415914.6999999881,8035,VNB,B,3
1,prac,1,1.0,2-Back,1,z,Fri May 30 2025 14:59:10 GMT-0500 (Central Daylight Time),421023.6999999881,004_o_m_h_a.png,I,z,1343,6,2,2226.300000011921,418797.39999997616,8035,VNB,B,4
1,prac,1,1.0,2-Back,0,z,Fri May 30 2025 14:59:10 GMT-0500 (Central Daylight Time),423606.2999999821,016_y_m_n_a.png,I,m,1669,7,2,2576.699999988079,421029.59999999404,8035,VNB,B,5
1,prac,1,0.0,2-Back,0,m,Fri May 30 2025 14:59:10 GMT-0500 (Central Daylight Time),425805.59999999404,011_m_f_d_a.png,I,z,1294,8,2,2194.0,423611.59999999404,8035,VNB,B,6
1,prac,1,0.0,2-Back,0,m,Fri May 30 2025 14:59:10 GMT-0500 (Central Daylight Time),428038.0,005_o_f_d_a.png,I,z,1333,9,2,2224.9000000059605,425813.09999999404,8035,VNB,B,7
2,prac,1,0.0,2-Back,1,m,Fri May 30 2025 14:59:10 GMT-0500 (Central Daylight Time),430154.59999999404,007_m_m_h_a.png,I,m,1343,10,2,2111.7000000178814,428042.89999997616,8035,VNB,B,8
3,prac,1,1.0,2-Back,1,z,Fri May 30 2025 14:59:10 GMT-0500 (Central Daylight Time),432137.0,020_y_f_d_a.png,I,z,1104,11,2,1975.6000000238419,430161.39999997616,8035,VNB,B,9
4,prac,1,0.0,2-Back,1,m,Fri May 30 2025 14:59:10 GMT-0500 (Central Daylight Time),434069.6999999881,004_o_m_n_a.png,I,m,1055,12,2,1926.800000011921,432142.89999997616,8035,VNB,B,10
0,prac,2,0.0,2-Back,,,Fri May 30 2025 14:59:10 GMT-0500 (Central Daylight Time),434069.6999999881,011_m_f_n_a.png,I,a,5201,1,2,1926.800000011921,432142.89999997616,8035,VNB,B,0
0,prac,2,0.0,2-Back,,,Fri May 30 2025 14:59:10 GMT-0500 (Central Daylight Time),434069.6999999881,005_o_f_h_a.png,I,a,5201,2,2,1926.800000011921,432142.89999997616,8035,VNB,B,0
1,prac,2,0.0,2-Back,1,m,Fri May 30 2025 14:59:10 GMT-0500 (Central Daylight Time),446532.5,004_o_m_d_a.png,I,m,1089,3,2,1960.4000000059605,444572.09999999404,8035,VNB,B,1
1,prac,2,1.0,2-Back,0,z,Fri May 30 2025 14:59:10 GMT-0500 (Central Daylight Time),448898.1999999881,007_m_m_h_a.png,I,m,1583,4,2,2360.0,446538.1999999881,8035,VNB,B,2
1,prac,2,0.0,2-Back,0,m,Fri May 30 2025 14:59:10 GMT-0500 (Central Daylight Time),450847.6999999881,020_y_f_n_a.png,I,z,1065,5,2,1943.0,448904.6999999881,8035,VNB,B,3
2,prac,2,1.0,2-Back,1,z,Fri May 30 2025 14:59:10 GMT-0500 (Central Daylight Time),452980.2999999821,004_o_m_h_a.png,I,z,1256,6,2,2126.2999999821186,450854.0,8035,VNB,B,4
3,prac,2,1.0,2-Back,1,z,Fri May 30 2025 14:59:10 GMT-0500 (Central Daylight Time),455096.1999999881,016_y_m_n_a.png,I,z,1208,7,2,2111.0,452985.1999999881,8035,VNB,B,5
4,prac,2,0.0,2-Back,1,m,Fri May 30 2025 14:59:10 GMT-0500 (Central Daylight Time),456979.1999999881,011_m_f_d_a.png,I,m,988,8,2,1876.4000000059605,455102.7999999821,8035,VNB,B,6
5,prac,2,0.0,2-Back,1,m,Fri May 30 2025 14:59:10 GMT-0500 (Central Daylight Time),459078.2999999821,005_o_f_d_a.png,I,m,1203,9,2,2094.0999999940395,456984.1999999881,8035,VNB,B,7
5,prac,2,0.0,2-Back,0,m,Fri May 30 2025 14:59:10 GMT-0500 (Central Daylight Time),460679.09999999404,007_m_m_h_a.png,I,z,822,10,2,1595.4000000059605,459083.6999999881,8035,VNB,B,8
6,prac,2,1.0,2-Back,1,z,Fri May 30 2025 14:59:10 GMT-0500 (Central Daylight Time),462794.09999999404,020_y_f_d_a.png,I,z,1232,11,2,2109.4000000059605,460684.6999999881,8035,VNB,B,9
7,prac,2,0.0,2-Back,1,m,Fri May 30 2025 14:59:10 GMT-0500 (Central Daylight Time),464893.09999999404,004_o_m_n_a.png,I,m,1221,12,2,2092.4000000059605,462800.6999999881,8035,VNB,B,10
0,test,1,0.0,2-Back,,,Fri May 30 2025 14:59:10 GMT-0500 (Central Daylight Time),464893.09999999404,016_y_m_h_a.png,I,space,5568,1,2,2092.4000000059605,462800.6999999881,8035,VNB,B,0
0,test,1,0.0,2-Back,,,Fri May 30 2025 14:59:10 GMT-0500 (Central Daylight Time),464893.09999999404,005_o_f_n_a.png,I,space,5568,2,2,2092.4000000059605,462800.6999999881,8035,VNB,B,0
1,test,1,0.0,2-Back,1,z,Fri May 30 2025 14:59:10 GMT-0500 (Central Daylight Time),483104.09999999404,004_o_m_h_a.png,I,z,1176,3,2,2195.5,480908.59999999404,8035,VNB,B,1
2,test,1,0.0,2-Back,1,m,Fri May 30 2025 14:59:10 GMT-0500 (Central Daylight Time),485636.5,011_m_f_d_a.png,I,m,1504,4,2,2528.5,483108.0,8035,VNB,B,2
3,test,1,1.0,2-Back,1,m,Fri May 30 2025 14:59:10 GMT-0500 (Central Daylight Time),488186.09999999404,016_y_m_n_a.png,I,m,1517,5,2,2545.9000000059605,485640.1999999881,8035,VNB,B,3
3,test,1,0.0,2-Back,0,z,Fri May 30 2025 14:59:10 GMT-0500 (Central Daylight Time),490935.1999999881,020_y_f_d_a.png,I,m,1727,6,2,2745.199999988079,488190.0,8035,VNB,B,4
3,test,1,0.0,2-Back,0,m,Fri May 30 2025 14:59:10 GMT-0500 (Central Daylight Time),493267.39999997616,007_m_m_h_a.png,I,z,1305,7,2,2328.399999976158,490939.0,8035,VNB,B,5
3,test,1,1.0,2-Back,0,m,Fri May 30 2025 14:59:10 GMT-0500 (Central Daylight Time),495633.5,020_y_f_n_a.png,I,z,1342,8,2,2363.0,493270.5,8035,VNB,B,6
4,test,1,0.0,2-Back,1,z,Fri May 30 2025 14:59:10 GMT-0500 (Central Daylight Time),497966.09999999404,005_o_f_h_a.png,I,z,1312,9,2,2329.5999999940395,495636.5,8035,VNB,B,7
5,test,1,0.0,2-Back,1,m,Fri May 30 2025 14:59:10 GMT-0500 (Central Daylight Time),500215.5,004_o_m_d_a.png,I,m,1219,10,2,2246.2000000178814,497969.2999999821,8035,VNB,B,8
5,test,1,1.0,2-Back,0,m,Fri May 30 2025 14:59:10 GMT-0500 (Central Daylight Time),502847.7999999821,007_m_m_d_a.png,I,z,1610,11,2,2628.5999999940395,500219.1999999881,8035,VNB,B,9
6,test,1,0.0,2-Back,1,m,Fri May 30 2025 14:59:10 GMT-0500 (Central Daylight Time),505563.89999997616,011_m_f_n_a.png,I,m,1697,12,2,2712.5999999940395,502851.2999999821,8035,VNB,B,10
7,test,1,0.0,2-Back,1,m,Fri May 30 2025 14:59:10 GMT-0500 (Central Daylight Time),507729.59999999404,020_y_f_h_a.png,I,m,1133,13,2,2162.2000000178814,505567.39999997616,8035,VNB,B,11
7,test,1,0.0,2-Back,0,z,Fri May 30 2025 14:59:10 GMT-0500 (Central Daylight Time),510312.1999999881,007_m_m_n_a.png,I,m,1558,14,2,2579.5999999940395,507732.59999999404,8035,VNB,B,12
7,test,1,0.0,2-Back,0,m,Fri May 30 2025 14:59:10 GMT-0500 (Central Daylight Time),512978.09999999404,016_y_m_d_a.png,I,z,1641,15,2,2662.5,510315.59999999404,8035,VNB,B,13
8,test,1,1.0,2-Back,1,m,Fri May 30 2025 14:59:10 GMT-0500 (Central Daylight Time),515677.2999999821,011_m_f_h_a.png,I,m,1679,16,2,2695.5,512981.7999999821,8035,VNB,B,14
8,test,1,0.0,2-Back,0,z,Fri May 30 2025 14:59:10 GMT-0500 (Central Daylight Time),517976.7999999821,005_o_f_d_a.png,I,m,1275,17,2,2296.4000000059605,515680.39999997616,8035,VNB,B,15
8,test,1,0.0,2-Back,0,m,Fri May 30 2025 14:59:10 GMT-0500 (Central Daylight Time),520159.09999999404,004_o_m_n_a.png,I,z,1161,18,2,2178.800000011921,517980.2999999821,8035,VNB,B,16
0,test,2,0.0,2-Back,,,Fri May 30 2025 14:59:10 GMT-0500 (Central Daylight Time),520159.09999999404,007_m_m_h_a.png,I,space,1178,1,2,2178.800000011921,517980.2999999821,8035,VNB,B,0
0,test,2,0.0,2-Back,,,Fri May 30 2025 14:59:10 GMT-0500 (Central Daylight Time),520159.09999999404,020_y_f_n_a.png,I,space,1178,2,2,2178.800000011921,517980.2999999821,8035,VNB,B,0
1,test,2,1.0,2-Back,1,z,Fri May 30 2025 14:59:10 GMT-0500 (Central Daylight Time),528689.7999999821,005_o_f_h_a.png,I,z,1041,3,2,2062.699999988079,526627.099999994,8035,VNB,B,1
2,test,2,0.0,2-Back,1,m,Fri May 30 2025 14:59:10 GMT-0500 (Central Daylight Time),530905.7999999821,004_o_m_d_a.png,I,m,1191,4,2,2212.699999988079,528693.099999994,8035,VNB,B,2
3,test,2,0.0,2-Back,1,m,Fri May 30 2025 14:59:10 GMT-0500 (Central Daylight Time),532905.1999999881,011_m_f_d_a.png,I,m,975,5,2,1995.699999988079,530909.5,8035,VNB,B,3
4,test,2,0.0,2-Back,1,m,Fri May 30 2025 14:59:10 GMT-0500 (Central Daylight Time),535137.7999999821,016_y_m_h_a.png,I,m,1200,6,2,2229.4000000059605,532908.3999999762,8035,VNB,B,4
4,test,2,0.0,2-Back,0,m,Fri May 30 2025 14:59:10 GMT-0500 (Central Daylight Time),537170.2999999821,005_o_f_n_a.png,I,z,1015,7,2,2028.9000000059605,535141.3999999762,8035,VNB,B,5
4,test,2,1.0,2-Back,0,z,Fri May 30 2025 14:59:10 GMT-0500 (Central Daylight Time),539669.599999994,004_o_m_h_a.png,I,m,1471,8,2,2495.5,537174.099999994,8035,VNB,B,6
5,test,2,0.0,2-Back,1,m,Fri May 30 2025 14:59:10 GMT-0500 (Central Daylight Time),542152.3999999762,020_y_f_d_a.png,I,m,1460,9,2,2479.0,539673.3999999762,8035,VNB,B,7
6,test,2,0.0,2-Back,1,m,Fri May 30 2025 14:59:10 GMT-0500 (Central Daylight Time),544601.599999994,016_y_m_d_a.png,I,m,1416,10,2,2445.2000000178814,542156.3999999762,8035,VNB,B,8
7,test,2,0.0,2-Back,1,m,Fri May 30 2025 14:59:10 GMT-0500 (Central Daylight Time),547083.8999999762,007_m_m_n_a.png,I,m,1456,11,2,2479.199999988079,544604.6999999881,8035,VNB,B,9
8,test,2,0.0,2-Back,1,m,Fri May 30 2025 14:59:10 GMT-0500 (Central Daylight Time),549650.099999994,011_m_f_h_a.png,I,m,1540,12,2,2562.2000000178814,547087.8999999762,8035,VNB,B,10
9,test,2,1.0,2-Back,1,z,Fri May 30 2025 14:59:10 GMT-0500 (Central Daylight Time),552199.0,004_o_m_n_a.png,I,z,1527,13,2,2545.2000000178814,549653.7999999821,8035,VNB,B,11
10,test,2,0.0,2-Back,1,m,Fri May 30 2025 14:59:10 GMT-0500 (Central Daylight Time),554298.3999999762,005_o_f_d_a.png,I,m,1082,14,2,2096.199999988079,552202.1999999881,8035,VNB,B,12
11,test,2,0.0,2-Back,1,m,Fri May 30 2025 14:59:10 GMT-0500 (Central Daylight Time),556964.3999999762,020_y_f_h_a.png,I,m,1646,15,2,2662.2999999821186,554302.099999994,8035,VNB,B,13
11,test,2,0.0,2-Back,0,z,Fri May 30 2025 14:59:10 GMT-0500 (Central Daylight Time),559997.0,007_m_m_d_a.png,I,None,2016,16,2,3029.100000023842,556967.8999999762,8035,VNB,B,14
11,test,2,0.0,2-Back,0,m,Fri May 30 2025 14:59:10 GMT-0500 (Central Daylight Time),562262.599999994,016_y_m_n_a.png,I,z,1237,17,2,2261.800000011921,560000.7999999821,8035,VNB,B,15
12,test,2,1.0,2-Back,1,m,Fri May 30 2025 14:59:10 GMT-0500 (Central Daylight Time),564478.599999994,011_m_f_n_a.png,I,m,1194,18,2,2211.5999999940395,562267.0,8035,VNB,B,16
0,test,3,1.0,2-Back,,,Fri May 30 2025 14:59:10 GMT-0500 (Central Daylight Time),564478.599999994,004_o_m_n_a.png,I,space,1194,1,2,2211.5999999940395,562267.0,8035,VNB,B,0
0,test,3,1.0,2-Back,,,Fri May 30 2025 14:59:10 GMT-0500 (Central Daylight Time),564478.599999994,005_o_f_d_a.png,I,space,1194,2,2,2211.5999999940395,562267.0,8035,VNB,B,0
1,test,3,0.0,2-Back,1,m,Fri May 30 2025 14:59:10 GMT-0500 (Central Daylight Time),572726.0,020_y_f_h_a.png,I,m,971,3,2,1995.6000000238419,570730.3999999762,8035,VNB,B,1
2,test,3,0.0,2-Back,1,z,Fri May 30 2025 14:59:10 GMT-0500 (Central Daylight Time),574891.8999999762,011_m_f_d_a.png,I,z,1139,4,2,2162.5,572729.3999999762,8035,VNB,B,2
2,test,3,1.0,2-Back,0,m,Fri May 30 2025 14:59:10 GMT-0500 (Central Daylight Time),577141.3999999762,016_y_m_n_a.png,I,z,1229,5,2,2246.0999999940395,574895.2999999821,8035,VNB,B,3
3,test,3,0.0,2-Back,1,m,Fri May 30 2025 14:59:10 GMT-0500 (Central Daylight Time),579074.099999994,004_o_m_h_a.png,I,m,916,6,2,1929.5999999940395,577144.5,8035,VNB,B,4
4,test,3,0.0,2-Back,1,z,Fri May 30 2025 14:59:10 GMT-0500 (Central Daylight Time),581173.5,020_y_f_n_a.png,I,z,1071,7,2,2095.4000000059605,579078.099999994,8035,VNB,B,5
4,test,3,1.0,2-Back,0,m,Fri May 30 2025 14:59:10 GMT-0500 (Central Daylight Time),583606.099999994,007_m_m_d_a.png,I,z,1412,8,2,2428.5999999940395,581177.5,8035,VNB,B,6
5,test,3,0.0,2-Back,1,m,Fri May 30 2025 14:59:10 GMT-0500 (Central Daylight Time),585638.7999999821,016_y_m_d_a.png,I,m,1011,9,2,2029.4000000059605,583609.3999999762,8035,VNB,B,7
6,test,3,0.0,2-Back,1,m,Fri May 30 2025 14:59:10 GMT-0500 (Central Daylight Time),588137.6999999881,005_o_f_h_a.png,I,m,1467,10,2,2495.4000000059605,585642.2999999821,8035,VNB,B,8
6,test,3,1.0,2-Back,0,m,Fri May 30 2025 14:59:10 GMT-0500 (Central Daylight Time),590420.599999994,011_m_f_n_a.png,I,z,1263,11,2,2279.0999999940395,588141.5,8035,VNB,B,9
6,test,3,1.0,2-Back,0,z,Fri May 30 2025 14:59:10 GMT-0500 (Central Daylight Time),592869.8999999762,007_m_m_h_a.png,I,m,1429,12,2,2446.0,590423.8999999762,8035,VNB,B,10
6,test,3,0.0,2-Back,0,m,Fri May 30 2025 14:59:10 GMT-0500 (Central Daylight Time),595130.099999994,020_y_f_d_a.png,I,z,1243,13,2,2256.4000000059605,592873.6999999881,8035,VNB,B,11
6,test,3,0.0,2-Back,0,m,Fri May 30 2025 14:59:10 GMT-0500 (Central Daylight Time),597568.099999994,005_o_f_n_a.png,I,z,1410,14,2,2434.0,595134.099999994,8035,VNB,B,12
6,test,3,0.0,2-Back,0,z,Fri May 30 2025 14:59:10 GMT-0500 (Central Daylight Time),599467.599999994,004_o_m_d_a.png,I,m,880,15,2,1895.5999999940395,597572.0,8035,VNB,B,13
6,test,3,1.0,2-Back,0,m,Fri May 30 2025 14:59:10 GMT-0500 (Central Daylight Time),601533.7999999821,011_m_f_h_a.png,I,z,1046,16,2,2063.199999988079,599470.599999994,8035,VNB,B,14
6,test,3,0.0,2-Back,0,m,Fri May 30 2025 14:59:10 GMT-0500 (Central Daylight Time),603982.6999999881,007_m_m_n_a.png,I,z,1419,17,2,2445.4000000059605,601537.2999999821,8035,VNB,B,15
6,test,3,0.0,2-Back,0,z,Fri May 30 2025 14:59:10 GMT-0500 (Central Daylight Time),606015.7999999821,016_y_m_h_a.png,I,m,1001,18,2,2029.2999999821186,603986.5,8035,VNB,B,16
0,test,4,0.0,2-Back,,,Fri May 30 2025 14:59:10 GMT-0500 (Central Daylight Time),606015.7999999821,011_m_f_n_a.png,I,space,1050,1,2,2029.2999999821186,603986.5,8035,VNB,B,0
0,test,4,0.0,2-Back,,,Fri May 30 2025 14:59:10 GMT-0500 (Central Daylight Time),606015.7999999821,004_o_m_n_a.png,I,space,1050,2,2,2029.2999999821186,603986.5,8035,VNB,B,0
1,test,4,1.0,2-Back,1,m,Fri May 30 2025 14:59:10 GMT-0500 (Central Daylight Time),614279.599999994,016_y_m_h_a.png,I,m,926,3,2,1945.7000000178814,612333.8999999762,8035,VNB,B,1
2,test,4,1.0,2-Back,1,m,Fri May 30 2025 14:59:10 GMT-0500 (Central Daylight Time),616380.0,005_o_f_d_a.png,I,m,1082,4,2,2097.300000011921,614282.6999999881,8035,VNB,B,2
3,test,4,0.0,2-Back,1,z,Fri May 30 2025 14:59:10 GMT-0500 (Central Daylight Time),618794.5,004_o_m_h_a.png,I,z,1389,5,2,2410.9000000059605,616383.599999994,8035,VNB,B,3
3,test,4,0.0,2-Back,0,m,Fri May 30 2025 14:59:10 GMT-0500 (Central Daylight Time),621010.599999994,007_m_m_n_a.png,I,z,1190,6,2,2212.2000000178814,618798.3999999762,8035,VNB,B,4
4,test,4,0.0,2-Back,1,m,Fri May 30 2025 14:59:10 GMT-0500 (Central Daylight Time),623193.099999994,011_m_f_d_a.png,I,m,1149,7,2,2178.800000011921,621014.2999999821,8035,VNB,B,5
5,test,4,0.0,2-Back,1,z,Fri May 30 2025 14:59:10 GMT-0500 (Central Daylight Time),625226.2999999821,020_y_f_n_a.png,I,z,1000,8,2,2029.699999988079,623196.599999994,8035,VNB,B,6
6,test,4,1.0,2-Back,1,m,Fri May 30 2025 14:59:10 GMT-0500 (Central Daylight Time),628058.2999999821,005_o_f_h_a.png,I,m,1815,9,2,2828.4000000059605,625229.8999999762,8035,VNB,B,7
7,test,4,0.0,2-Back,1,m,Fri May 30 2025 14:59:10 GMT-0500 (Central Daylight Time),630274.5,007_m_m_h_a.png,I,m,1191,10,2,2212.600000023842,628061.8999999762,8035,VNB,B,8
7,test,4,0.0,2-Back,0,m,Fri May 30 2025 14:59:10 GMT-0500 (Central Daylight Time),632057.2999999821,020_y_f_d_a.png,I,z,749,11,2,1779.4000000059605,630277.8999999762,8035,VNB,B,9
7,test,4,0.0,2-Back,0,m,Fri May 30 2025 14:59:10 GMT-0500 (Central Daylight Time),634523.2999999821,016_y_m_n_a.png,I,z,1448,12,2,2462.699999988079,632060.599999994,8035,VNB,B,10
7,test,4,0.0,2-Back,0,z,Fri May 30 2025 14:59:10 GMT-0500 (Central Daylight Time),636922.2999999821,004_o_m_d_a.png,I,m,1381,13,2,2395.5999999940395,634526.6999999881,8035,VNB,B,11
8,test,4,1.0,2-Back,1,m,Fri May 30 2025 14:59:10 GMT-0500 (Central Daylight Time),639654.7999999821,011_m_f_h_a.png,I,m,1703,14,2,2729.2999999821186,636925.5,8035,VNB,B,12
9,test,4,1.0,2-Back,1,m,Fri May 30 2025 14:59:10 GMT-0500 (Central Daylight Time),641987.6999999881,020_y_f_h_a.png,I,m,1306,15,2,2328.199999988079,639659.5,8035,VNB,B,13
9,test,4,0.0,2-Back,0,m,Fri May 30 2025 14:59:10 GMT-0500 (Central Daylight Time),643953.6999999881,005_o_f_n_a.png,I,z,948,16,2,1961.5,641992.1999999881,8035,VNB,B,14
10,test,4,0.0,2-Back,1,m,Fri May 30 2025 14:59:10 GMT-0500 (Central Daylight Time),646703.0,016_y_m_d_a.png,I,m,1718,17,2,2745.300000011921,643957.6999999881,8035,VNB,B,15
11,test,4,1.0,2-Back,1,m,Fri May 30 2025 14:59:10 GMT-0500 (Central Daylight Time),648968.3999999762,007_m_m_d_a.png,I,m,1233,18,2,2261.5,646706.8999999762,8035,VNB,B,16
0,test,5,1.0,2-Back,,,Fri May 30 2025 14:59:10 GMT-0500 (Central Daylight Time),648968.3999999762,020_y_f_d_a.png,I,space,1121,1,2,2261.5,646706.8999999762,8035,VNB,B,0
0,test,5,1.0,2-Back,,,Fri May 30 2025 14:59:10 GMT-0500 (Central Daylight Time),648968.3999999762,005_o_f_h_a.png,I,space,1121,2,2,2261.5,646706.8999999762,8035,VNB,B,0
1,test,5,1.0,2-Back,1,z,Fri May 30 2025 14:59:10 GMT-0500 (Central Daylight Time),657466.0,004_o_m_d_a.png,I,z,1074,3,2,2095.4000000059605,655370.599999994,8035,VNB,B,1
2,test,5,1.0,2-Back,1,m,Fri May 30 2025 14:59:10 GMT-0500 (Central Daylight Time),659599.0,011_m_f_n_a.png,I,m,1111,4,2,2129.800000011921,657469.1999999881,8035,VNB,B,2
3,test,5,0.0,2-Back,1,m,Fri May 30 2025 14:59:10 GMT-0500 (Central Daylight Time),661648.099999994,007_m_m_h_a.png,I,m,1026,5,2,2045.5999999940395,659602.5,8035,VNB,B,3
3,test,5,0.0,2-Back,0,z,Fri May 30 2025 14:59:10 GMT-0500 (Central Daylight Time),664097.2999999821,020_y_f_n_a.png,I,m,1424,6,2,2445.5,661651.7999999821,8035,VNB,B,4
3,test,5,0.0,2-Back,0,m,Fri May 30 2025 14:59:10 GMT-0500 (Central Daylight Time),666129.8999999762,005_o_f_d_a.png,I,z,1016,7,2,2029.0999999940395,664100.7999999821,8035,VNB,B,5
4,test,5,0.0,2-Back,1,m,Fri May 30 2025 14:59:10 GMT-0500 (Central Daylight Time),667996.099999994,004_o_m_h_a.png,I,m,846,8,2,1862.7000000178814,666133.3999999762,8035,VNB,B,6
4,test,5,1.0,2-Back,0,z,Fri May 30 2025 14:59:10 GMT-0500 (Central Daylight Time),670495.5,011_m_f_d_a.png,I,m,1468,9,2,2496.2000000178814,667999.2999999821,8035,VNB,B,7
4,test,5,0.0,2-Back,0,m,Fri May 30 2025 14:59:10 GMT-0500 (Central Daylight Time),672778.1999999881,016_y_m_n_a.png,I,z,1258,10,2,2278.9000000059605,670499.2999999821,8035,VNB,B,8
4,test,5,0.0,2-Back,0,m,Fri May 30 2025 14:59:10 GMT-0500 (Central Daylight Time),675177.2999999821,007_m_m_n_a.png,I,z,1366,11,2,2395.4000000059605,672781.8999999762,8035,VNB,B,9
4,test,5,0.0,2-Back,0,m,Fri May 30 2025 14:59:10 GMT-0500 (Central Daylight Time),677743.099999994,020_y_f_h_a.png,I,z,1535,12,2,2562.5,675180.599999994,8035,VNB,B,10
4,test,5,0.0,2-Back,0,m,Fri May 30 2025 14:59:10 GMT-0500 (Central Daylight Time),680258.6999999881,016_y_m_d_a.png,I,z,1497,13,2,2512.5,677746.1999999881,8035,VNB,B,11
4,test,5,1.0,2-Back,0,z,Fri May 30 2025 14:59:10 GMT-0500 (Central Daylight Time),682141.5,011_m_f_h_a.png,I,m,853,14,2,1879.5,680262.0,8035,VNB,B,12
5,test,5,0.0,2-Back,1,m,Fri May 30 2025 14:59:10 GMT-0500 (Central Daylight Time),684557.3999999762,004_o_m_n_a.png,I,m,1396,15,2,2412.0999999940395,682145.2999999821,8035,VNB,B,13
5,test,5,0.0,2-Back,0,m,Fri May 30 2025 14:59:10 GMT-0500 (Central Daylight Time),686323.7999999821,007_m_m_d_a.png,I,z,747,16,2,1762.699999988079,684561.099999994,8035,VNB,B,14
6,test,5,0.0,2-Back,1,z,Fri May 30 2025 14:59:10 GMT-0500 (Central Daylight Time),688373.0,005_o_f_n_a.png,I,z,1021,17,2,2045.7000000178814,686327.2999999821,8035,VNB,B,15
6,test,5,1.0,2-Back,0,m,Fri May 30 2025 14:59:10 GMT-0500 (Central Daylight Time),690822.2999999821,016_y_m_h_a.png,I,z,1399,18,2,2446.0999999940395,688376.1999999881,8035,VNB,B,16
