block_c,block_dur,condition,countdown,datetime,endtime,list,multichar_response,project,response,response_time,session_number,start_end,starttime,subject_id,task,task_vers,trial
,,,,Thu May 29 2025 16:42:56 GMT-0500 (Central Daylight Time),,,,I,space,527,1,,,8054,WL,C,
prac,,0,,Thu May 29 2025 16:42:56 GMT-0500 (Central Daylight Time),,NA,b,I,b,3154,1,,,8054,WL,C,1.0
prac,,0,,Thu May 29 2025 16:42:56 GMT-0500 (Central Daylight Time),,NA,bo,I,o,224,1,,,8054,WL,C,1.0
prac,,0,,Thu May 29 2025 16:42:56 GMT-0500 (Central Daylight Time),,NA,boo,I,o,151,1,,,8054,WL,C,1.0
prac,,0,,Thu May 29 2025 16:42:56 GMT-0500 (Central Daylight Time),,NA,boos,I,s,97,1,,,8054,WL,C,1.0
prac,,0,,Thu May 29 2025 16:42:56 GMT-0500 (Central Daylight Time),,NA,boost,I,t,245,1,,,8054,WL,C,1.0
prac,,0,,Thu May 29 2025 16:42:56 GMT-0500 (Central Daylight Time),,NA,boostenter,I,enter,5145,1,,,8054,WL,C,1.0
1,7.747999906539917,learn,52252.00009346008,Thu May 29 2025 16:42:56 GMT-0500 (Central Daylight Time),145290.80000001192,A,t,I,t,7726,1,7747.4000000059605,137543.40000000596,8054,WL,C,1.0
1,7.88100004196167,learn,52118.99995803833,Thu May 29 2025 16:42:56 GMT-0500 (Central Daylight Time),145424.09999999404,A,to,I,o,121,1,7880.699999988079,137543.40000000596,8054,WL,C,1.0
1,8.063999891281128,learn,51936.00010871887,Thu May 29 2025 16:42:56 GMT-0500 (Central Daylight Time),145607.09999999404,A,tow,I,w,164,1,8063.699999988079,137543.40000000596,8054,WL,C,1.0
1,8.263999938964844,learn,51736.000061035156,Thu May 29 2025 16:42:56 GMT-0500 (Central Daylight Time),145806.90000000596,A,towe,I,e,189,1,8263.5,137543.40000000596,8054,WL,C,1.0
1,8.430999994277954,learn,51569.000005722046,Thu May 29 2025 16:42:56 GMT-0500 (Central Daylight Time),145973.80000001192,A,tower,I,r,157,1,8430.40000000596,137543.40000000596,8054,WL,C,1.0
1,15.194999933242798,learn,44805.0000667572,Thu May 29 2025 16:42:56 GMT-0500 (Central Daylight Time),152738.09999999404,A,towerenter,I,enter,6751,1,15194.699999988079,137543.40000000596,8054,WL,C,1.0
1,29.37399983406067,learn,30626.00016593933,Thu May 29 2025 16:42:56 GMT-0500 (Central Daylight Time),166916.90000000596,A,q,I,q,14170,1,14178.300000011921,152738.59999999404,8054,WL,C,2.0
1,29.62399983406067,learn,30376.00016593933,Thu May 29 2025 16:42:56 GMT-0500 (Central Daylight Time),167167.0,A,qu,I,u,230,1,14428.40000000596,152738.59999999404,8054,WL,C,2.0
1,29.7739999294281,learn,30226.0000705719,Thu May 29 2025 16:42:56 GMT-0500 (Central Daylight Time),167317.0,A,que,I,e,142,1,14578.40000000596,152738.59999999404,8054,WL,C,2.0
1,29.94099998474121,learn,30059.00001525879,Thu May 29 2025 16:42:56 GMT-0500 (Central Daylight Time),167483.59999999404,A,quee,I,e,151,1,14745.0,152738.59999999404,8054,WL,C,2.0
1,30.156999826431274,learn,29843.000173568726,Thu May 29 2025 16:42:56 GMT-0500 (Central Daylight Time),167700.0,A,quees,I,s,208,1,14961.40000000596,152738.59999999404,8054,WL,C,2.0
1,30.722999811172485,learn,29277.000188827515,Thu May 29 2025 16:42:56 GMT-0500 (Central Daylight Time),168266.5,A,quee,I,backspace,552,1,15527.90000000596,152738.59999999404,8054,WL,C,2.0
1,31.02300000190735,learn,28976.99999809265,Thu May 29 2025 16:42:56 GMT-0500 (Central Daylight Time),168566.5,A,queeb,I,b,291,1,15827.90000000596,152738.59999999404,8054,WL,C,2.0
1,31.60599994659424,learn,28394.00005340576,Thu May 29 2025 16:42:56 GMT-0500 (Central Daylight Time),169149.59999999404,A,quee,I,backspace,574,1,16411.0,152738.59999999404,8054,WL,C,2.0
1,32.15599989891052,learn,27844.000101089478,Thu May 29 2025 16:42:56 GMT-0500 (Central Daylight Time),169699.40000000596,A,queen,I,n,543,1,16960.80000001192,152738.59999999404,8054,WL,C,2.0
1,32.40599989891052,learn,27594.000101089478,Thu May 29 2025 16:42:56 GMT-0500 (Central Daylight Time),169949.40000000596,A,queenenter,I,enter,233,1,17210.80000001192,152738.59999999404,8054,WL,C,2.0
1,33.93899989128113,learn,26061.000108718872,Thu May 29 2025 16:42:56 GMT-0500 (Central Daylight Time),171482.30000001192,A,b,I,b,1527,1,1532.4000000059605,169949.90000000596,8054,WL,C,3.0
1,34.039000034332275,learn,25960.999965667725,Thu May 29 2025 16:42:56 GMT-0500 (Central Daylight Time),171582.30000001192,A,bo,I,o,82,1,1632.4000000059605,169949.90000000596,8054,WL,C,3.0
1,34.388999938964844,learn,25611.000061035156,Thu May 29 2025 16:42:56 GMT-0500 (Central Daylight Time),171932.0,A,boy,I,y,335,1,1982.0999999940395,169949.90000000596,8054,WL,C,3.0
1,35.15499997138977,learn,24845.00002861023,Thu May 29 2025 16:42:56 GMT-0500 (Central Daylight Time),172698.5,A,boyenter,I,enter,745,1,2748.5999999940395,169949.90000000596,8054,WL,C,3.0
1,37.454999923706055,learn,22545.000076293945,Thu May 29 2025 16:42:56 GMT-0500 (Central Daylight Time),174998.0,A,c,I,c,2282,1,2298.9000000059605,172699.09999999404,8054,WL,C,4.0
1,37.57099986076355,learn,22429.00013923645,Thu May 29 2025 16:42:56 GMT-0500 (Central Daylight Time),175114.30000001192,A,co,I,o,111,1,2415.2000000178814,172699.09999999404,8054,WL,C,4.0
1,37.80499982833862,learn,22195.000171661377,Thu May 29 2025 16:42:56 GMT-0500 (Central Daylight Time),175347.69999998808,A,cor,I,r,227,1,2648.5999999940395,172699.09999999404,8054,WL,C,4.0
1,38.65400004386902,learn,21345.99995613098,Thu May 29 2025 16:42:56 GMT-0500 (Central Daylight Time),176197.40000000596,A,corn,I,n,833,1,3498.300000011921,172699.09999999404,8054,WL,C,4.0
1,39.187000036239624,learn,20812.999963760376,Thu May 29 2025 16:42:56 GMT-0500 (Central Daylight Time),176730.5,A,cornenter,I,enter,519,1,4031.4000000059605,172699.09999999404,8054,WL,C,4.0
1,40.33699989318848,learn,19663.000106811523,Thu May 29 2025 16:42:56 GMT-0500 (Central Daylight Time),177880.40000000596,A,s,I,s,1138,1,1149.5,176730.90000000596,8054,WL,C,5.0
1,40.48699998855591,learn,19513.00001144409,Thu May 29 2025 16:42:56 GMT-0500 (Central Daylight Time),178030.19999998808,A,sh,I,h,140,1,1299.2999999821186,176730.90000000596,8054,WL,C,5.0
1,40.669999837875366,learn,19330.000162124634,Thu May 29 2025 16:42:56 GMT-0500 (Central Daylight Time),178213.40000000596,A,sho,I,o,175,1,1482.5,176730.90000000596,8054,WL,C,5.0
1,40.83699989318848,learn,19163.000106811523,Thu May 29 2025 16:42:56 GMT-0500 (Central Daylight Time),178380.19999998808,A,shor,I,r,151,1,1649.2999999821186,176730.90000000596,8054,WL,C,5.0
1,40.919999837875366,learn,19080.000162124634,Thu May 29 2025 16:42:56 GMT-0500 (Central Daylight Time),178463.40000000596,A,shore,I,e,73,1,1732.5,176730.90000000596,8054,WL,C,5.0
1,41.418999910354614,learn,18581.000089645386,Thu May 29 2025 16:42:56 GMT-0500 (Central Daylight Time),178962.90000000596,A,shoreenter,I,enter,494,1,2232.0,176730.90000000596,8054,WL,C,5.0
1,42.15299987792969,learn,17847.000122070312,Thu May 29 2025 16:42:56 GMT-0500 (Central Daylight Time),179696.19999998808,A,c,I,c,721,1,733.0,178963.19999998808,8054,WL,C,6.0
1,42.3199999332428,learn,17680.000066757202,Thu May 29 2025 16:42:56 GMT-0500 (Central Daylight Time),179863.09999999404,A,ca,I,a,149,1,899.9000000059605,178963.19999998808,8054,WL,C,6.0
1,42.63599991798401,learn,17364.00008201599,Thu May 29 2025 16:42:56 GMT-0500 (Central Daylight Time),180179.5,A,cat,I,t,302,1,1216.300000011921,178963.19999998808,8054,WL,C,6.0
1,42.753000020980835,learn,17246.999979019165,Thu May 29 2025 16:42:56 GMT-0500 (Central Daylight Time),180296.19999998808,A,catt,I,t,104,1,1333.0,178963.19999998808,8054,WL,C,6.0
1,42.90299987792969,learn,17097.000122070312,Thu May 29 2025 16:42:56 GMT-0500 (Central Daylight Time),180446.19999998808,A,cattl,I,l,141,1,1483.0,178963.19999998808,8054,WL,C,6.0
1,43.05299997329712,learn,16947.00002670288,Thu May 29 2025 16:42:56 GMT-0500 (Central Daylight Time),180596.09999999404,A,cattle,I,e,143,1,1632.9000000059605,178963.19999998808,8054,WL,C,6.0
1,43.88599991798401,learn,16114.000082015991,Thu May 29 2025 16:42:56 GMT-0500 (Central Daylight Time),181429.19999998808,A,cattleenter,I,enter,825,1,2466.0,178963.19999998808,8054,WL,C,6.0
1,53.132999897003174,learn,6867.000102996826,Thu May 29 2025 16:42:56 GMT-0500 (Central Daylight Time),190676.19999998808,A,f,I,f,9240,1,9246.59999999404,181429.59999999404,8054,WL,C,7.0
1,53.98300004005432,learn,6016.999959945679,Thu May 29 2025 16:42:56 GMT-0500 (Central Daylight Time),191526.19999998808,A,fl,I,l,841,1,10096.59999999404,181429.59999999404,8054,WL,C,7.0
1,54.198999881744385,learn,5801.000118255615,Thu May 29 2025 16:42:56 GMT-0500 (Central Daylight Time),191742.80000001192,A,flg,I,g,207,1,10313.200000017881,181429.59999999404,8054,WL,C,7.0
1,55.04900002479553,learn,4950.999975204468,Thu May 29 2025 16:42:56 GMT-0500 (Central Daylight Time),192592.19999998808,A,flgenter,I,enter,838,1,11162.59999999404,181429.59999999404,8054,WL,C,7.0
1,60.013999938964844,learn,-13.99993896484375,Thu May 29 2025 16:42:56 GMT-0500 (Central Daylight Time),197557.40000000596,A,None,I,None,4960,1,4964.800000011921,192592.59999999404,8054,WL,C,8.0
2,2.5820000171661377,learn,57417.99998283386,Thu May 29 2025 16:42:56 GMT-0500 (Central Daylight Time),274383.09999999404,A,t,I,t,2564,1,2582.199999988079,271800.90000000596,8054,WL,C,1.0
2,2.815999984741211,learn,57184.00001525879,Thu May 29 2025 16:42:56 GMT-0500 (Central Daylight Time),274616.5,A,to,I,o,213,1,2815.5999999940395,271800.90000000596,8054,WL,C,1.0
2,3.2159998416900635,learn,56784.00015830994,Thu May 29 2025 16:42:56 GMT-0500 (Central Daylight Time),275016.59999999404,A,tow,I,w,389,1,3215.699999988079,271800.90000000596,8054,WL,C,1.0
2,3.431999921798706,learn,56568.000078201294,Thu May 29 2025 16:42:56 GMT-0500 (Central Daylight Time),275233.1999999881,A,towe,I,e,205,1,3432.2999999821186,271800.90000000596,8054,WL,C,1.0
2,3.5149998664855957,learn,56485.000133514404,Thu May 29 2025 16:42:56 GMT-0500 (Central Daylight Time),275316.3000000119,A,tower,I,r,76,1,3515.4000000059605,271800.90000000596,8054,WL,C,1.0
2,3.865000009536743,learn,56134.99999046326,Thu May 29 2025 16:42:56 GMT-0500 (Central Daylight Time),275666.1999999881,A,towerenter,I,enter,337,1,3865.2999999821186,271800.90000000596,8054,WL,C,1.0
2,5.2820000648498535,learn,54717.99993515015,Thu May 29 2025 16:42:56 GMT-0500 (Central Daylight Time),277082.6999999881,A,s,I,s,1395,1,1416.199999988079,275666.5,8054,WL,C,2.0
2,5.4649999141693115,learn,54535.00008583069,Thu May 29 2025 16:42:56 GMT-0500 (Central Daylight Time),277265.6999999881,A,su,I,u,162,1,1599.199999988079,275666.5,8054,WL,C,2.0
2,5.914999961853027,learn,54085.00003814697,Thu May 29 2025 16:42:56 GMT-0500 (Central Daylight Time),277715.5,A,sug,I,g,444,1,2049.0,275666.5,8054,WL,C,2.0
2,6.080999851226807,learn,53919.00014877319,Thu May 29 2025 16:42:56 GMT-0500 (Central Daylight Time),277882.3000000119,A,suga,I,a,162,1,2215.800000011921,275666.5,8054,WL,C,2.0
2,6.230999946594238,learn,53769.00005340576,Thu May 29 2025 16:42:56 GMT-0500 (Central Daylight Time),278032.1999999881,A,sugar,I,r,131,1,2365.699999988079,275666.5,8054,WL,C,2.0
2,6.648000001907349,learn,53351.99999809265,Thu May 29 2025 16:42:56 GMT-0500 (Central Daylight Time),278448.59999999404,A,sugarenter,I,enter,397,1,2782.0999999940395,275666.5,8054,WL,C,2.0
2,7.113999843597412,learn,52886.00015640259,Thu May 29 2025 16:42:56 GMT-0500 (Central Daylight Time),278914.90000000596,A,w,I,w,460,1,465.90000000596046,278449.0,8054,WL,C,3.0
2,7.5309998989105225,learn,52469.00010108948,Thu May 29 2025 16:42:56 GMT-0500 (Central Daylight Time),279331.59999999404,A,wh,I,h,410,1,882.5999999940395,278449.0,8054,WL,C,3.0
2,7.763999938964844,learn,52236.000061035156,Thu May 29 2025 16:42:56 GMT-0500 (Central Daylight Time),279565.3000000119,A,whe,I,e,217,1,1116.300000011921,278449.0,8054,WL,C,3.0
2,7.914000034332275,learn,52085.999965667725,Thu May 29 2025 16:42:56 GMT-0500 (Central Daylight Time),279715.0,A,whea,I,a,136,1,1266.0,278449.0,8054,WL,C,3.0
2,8.04699993133545,learn,51953.00006866455,Thu May 29 2025 16:42:56 GMT-0500 (Central Daylight Time),279848.1999999881,A,wheat,I,t,122,1,1399.199999988079,278449.0,8054,WL,C,3.0
2,8.596999883651733,learn,51403.00011634827,Thu May 29 2025 16:42:56 GMT-0500 (Central Daylight Time),280397.90000000596,A,wheatenter,I,enter,541,1,1948.9000000059605,278449.0,8054,WL,C,3.0
2,9.662999868392944,learn,50337.000131607056,Thu May 29 2025 16:42:56 GMT-0500 (Central Daylight Time),281464.5,A,b,I,b,1047,1,1066.199999988079,280398.3000000119,8054,WL,C,4.0
2,9.879999876022339,learn,50120.00012397766,Thu May 29 2025 16:42:56 GMT-0500 (Central Daylight Time),281681.09999999404,A,bo,I,o,205,1,1282.7999999821186,280398.3000000119,8054,WL,C,4.0
2,10.04699993133545,learn,49953.00006866455,Thu May 29 2025 16:42:56 GMT-0500 (Central Daylight Time),281847.59999999404,A,bod,I,d,156,1,1449.2999999821186,280398.3000000119,8054,WL,C,4.0
2,10.345999956130981,learn,49654.00004386902,Thu May 29 2025 16:42:56 GMT-0500 (Central Daylight Time),282147.1999999881,A,body,I,y,294,1,1748.8999999761581,280398.3000000119,8054,WL,C,4.0
2,10.713000059127808,learn,49286.99994087219,Thu May 29 2025 16:42:56 GMT-0500 (Central Daylight Time),282514.3000000119,A,bodyenter,I,enter,354,1,2116.0,280398.3000000119,8054,WL,C,4.0
2,11.129999876022339,learn,48870.00012397766,Thu May 29 2025 16:42:56 GMT-0500 (Central Daylight Time),282930.5,A,c,I,c,411,1,415.90000000596046,282514.59999999404,8054,WL,C,5.0
2,11.878999948501587,learn,48121.00005149841,Thu May 29 2025 16:42:56 GMT-0500 (Central Daylight Time),283680.3000000119,A,,I,backspace,731,1,1165.7000000178814,282514.59999999404,8054,WL,C,5.0
2,12.078999996185303,learn,47921.0000038147,Thu May 29 2025 16:42:56 GMT-0500 (Central Daylight Time),283880.3000000119,A,d,I,d,189,1,1365.7000000178814,282514.59999999404,8054,WL,C,5.0
2,12.296000003814697,learn,47703.9999961853,Thu May 29 2025 16:42:56 GMT-0500 (Central Daylight Time),284097.0,A,do,I,o,205,1,1582.4000000059605,282514.59999999404,8054,WL,C,5.0
2,12.428999900817871,learn,47571.00009918213,Thu May 29 2025 16:42:56 GMT-0500 (Central Daylight Time),284230.09999999404,A,doc,I,c,116,1,1715.5,282514.59999999404,8054,WL,C,5.0
2,12.69599986076355,learn,47304.00013923645,Thu May 29 2025 16:42:56 GMT-0500 (Central Daylight Time),284496.90000000596,A,doct,I,t,247,1,1982.300000011921,282514.59999999404,8054,WL,C,5.0
2,13.44599986076355,learn,46554.00013923645,Thu May 29 2025 16:42:56 GMT-0500 (Central Daylight Time),285246.5,A,docto,I,o,732,1,2731.9000000059605,282514.59999999404,8054,WL,C,5.0
2,13.595999956130981,learn,46404.00004386902,Thu May 29 2025 16:42:56 GMT-0500 (Central Daylight Time),285396.5,A,doctor,I,r,135,1,2881.9000000059605,282514.59999999404,8054,WL,C,5.0
2,13.845999956130981,learn,46154.00004386902,Thu May 29 2025 16:42:56 GMT-0500 (Central Daylight Time),285646.5,A,doctorenter,I,enter,241,1,3131.9000000059605,282514.59999999404,8054,WL,C,5.0
2,14.744999885559082,learn,45255.00011444092,Thu May 29 2025 16:42:56 GMT-0500 (Central Daylight Time),286546.1999999881,A,q,I,q,887,1,899.2999999821186,285646.90000000596,8054,WL,C,6.0
2,14.961999893188477,learn,45038.00010681152,Thu May 29 2025 16:42:56 GMT-0500 (Central Daylight Time),286762.5,A,qu,I,u,211,1,1115.5999999940395,285646.90000000596,8054,WL,C,6.0
2,15.111999988555908,learn,44888.00001144409,Thu May 29 2025 16:42:56 GMT-0500 (Central Daylight Time),286912.6999999881,A,que,I,e,139,1,1265.7999999821186,285646.90000000596,8054,WL,C,6.0
2,15.694999933242798,learn,44305.0000667572,Thu May 29 2025 16:42:56 GMT-0500 (Central Daylight Time),287495.8000000119,A,quee,I,e,565,1,1848.9000000059605,285646.90000000596,8054,WL,C,6.0
2,15.861999988555908,learn,44138.00001144409,Thu May 29 2025 16:42:56 GMT-0500 (Central Daylight Time),287662.59999999404,A,queen,I,n,158,1,2015.699999988079,285646.90000000596,8054,WL,C,6.0
2,16.26099991798401,learn,43739.00008201599,Thu May 29 2025 16:42:56 GMT-0500 (Central Daylight Time),288062.40000000596,A,queenenter,I,enter,391,1,2415.5,285646.90000000596,8054,WL,C,6.0
2,16.861000061035156,learn,43138.999938964844,Thu May 29 2025 16:42:56 GMT-0500 (Central Daylight Time),288662.1999999881,A,b,I,b,583,1,599.5,288062.6999999881,8054,WL,C,7.0
2,16.99399995803833,learn,43006.00004196167,Thu May 29 2025 16:42:56 GMT-0500 (Central Daylight Time),288795.1999999881,A,bo,I,o,127,1,732.5,288062.6999999881,8054,WL,C,7.0
2,17.3439998626709,learn,42656.0001373291,Thu May 29 2025 16:42:56 GMT-0500 (Central Daylight Time),289145.3000000119,A,boy,I,y,330,1,1082.6000000238419,288062.6999999881,8054,WL,C,7.0
2,17.777999877929688,learn,42222.00012207031,Thu May 29 2025 16:42:56 GMT-0500 (Central Daylight Time),289578.5,A,boyenter,I,enter,428,1,1515.800000011921,288062.6999999881,8054,WL,C,7.0
2,20.9760000705719,learn,39023.9999294281,Thu May 29 2025 16:42:56 GMT-0500 (Central Daylight Time),292777.3000000119,A,f,I,f,3187,1,3198.600000023842,289578.6999999881,8054,WL,C,8.0
2,21.15999984741211,learn,38840.00015258789,Thu May 29 2025 16:42:56 GMT-0500 (Central Daylight Time),292960.8000000119,A,fl,I,l,172,1,3382.100000023842,289578.6999999881,8054,WL,C,8.0
2,21.325999975204468,learn,38674.00002479553,Thu May 29 2025 16:42:56 GMT-0500 (Central Daylight Time),293127.40000000596,A,fla,I,a,149,1,3548.7000000178814,289578.6999999881,8054,WL,C,8.0
2,21.4760000705719,learn,38523.9999294281,Thu May 29 2025 16:42:56 GMT-0500 (Central Daylight Time),293277.1999999881,A,flag,I,g,142,1,3698.5,289578.6999999881,8054,WL,C,8.0
2,21.710000038146973,learn,38289.99996185303,Thu May 29 2025 16:42:56 GMT-0500 (Central Daylight Time),293510.5,A,flagenter,I,enter,224,1,3931.800000011921,289578.6999999881,8054,WL,C,8.0
2,22.158999919891357,learn,37841.00008010864,Thu May 29 2025 16:42:56 GMT-0500 (Central Daylight Time),293960.3000000119,A,s,I,s,431,1,449.40000000596046,293510.90000000596,8054,WL,C,9.0
2,22.276000022888184,learn,37723.99997711182,Thu May 29 2025 16:42:56 GMT-0500 (Central Daylight Time),294077.40000000596,A,sh,I,h,101,1,566.5,293510.90000000596,8054,WL,C,9.0
2,22.493000030517578,learn,37506.99996948242,Thu May 29 2025 16:42:56 GMT-0500 (Central Daylight Time),294293.59999999404,A,sho,I,o,200,1,782.6999999880791,293510.90000000596,8054,WL,C,9.0
2,22.64299988746643,learn,37357.00011253357,Thu May 29 2025 16:42:56 GMT-0500 (Central Daylight Time),294443.5,A,shor,I,r,136,1,932.5999999940395,293510.90000000596,8054,WL,C,9.0
2,22.776000022888184,learn,37223.99997711182,Thu May 29 2025 16:42:56 GMT-0500 (Central Daylight Time),294577.0,A,shore,I,e,122,1,1066.0999999940395,293510.90000000596,8054,WL,C,9.0
2,22.993000030517578,learn,37006.99996948242,Thu May 29 2025 16:42:56 GMT-0500 (Central Daylight Time),294793.6999999881,A,shoreenter,I,enter,204,1,1282.7999999821186,293510.90000000596,8054,WL,C,9.0
2,23.95899987220764,learn,36041.00012779236,Thu May 29 2025 16:42:56 GMT-0500 (Central Daylight Time),295760.09999999404,A,q,I,q,948,1,966.0999999940395,294794.0,8054,WL,C,10.0
2,24.524999856948853,learn,35475.00014305115,Thu May 29 2025 16:42:56 GMT-0500 (Central Daylight Time),296326.1999999881,A,qu,I,u,549,1,1532.199999988079,294794.0,8054,WL,C,10.0
2,24.80900001525879,learn,35190.99998474121,Thu May 29 2025 16:42:56 GMT-0500 (Central Daylight Time),296609.8000000119,A,que,I,e,263,1,1815.800000011921,294794.0,8054,WL,C,10.0
2,25.009000062942505,learn,34990.999937057495,Thu May 29 2025 16:42:56 GMT-0500 (Central Daylight Time),296809.59999999404,A,quee,I,e,180,1,2015.5999999940395,294794.0,8054,WL,C,10.0
2,25.424999952316284,learn,34575.000047683716,Thu May 29 2025 16:42:56 GMT-0500 (Central Daylight Time),297226.3000000119,A,queen,I,n,412,1,2432.300000011921,294794.0,8054,WL,C,10.0
2,25.80900001525879,learn,34190.99998474121,Thu May 29 2025 16:42:56 GMT-0500 (Central Daylight Time),297609.59999999404,A,queenenter,I,enter,363,1,2815.5999999940395,294794.0,8054,WL,C,10.0
2,29.124000072479248,learn,30875.999927520752,Thu May 29 2025 16:42:56 GMT-0500 (Central Daylight Time),300924.90000000596,A,c,I,c,3300,1,3315.0,297609.90000000596,8054,WL,C,11.0
2,30.6729998588562,learn,29327.0001411438,Thu May 29 2025 16:42:56 GMT-0500 (Central Daylight Time),302474.59999999404,A,co,I,o,1528,1,4864.699999988079,297609.90000000596,8054,WL,C,11.0
2,30.85599994659424,learn,29144.00005340576,Thu May 29 2025 16:42:56 GMT-0500 (Central Daylight Time),302657.8000000119,A,cor,I,r,171,1,5047.9000000059605,297609.90000000596,8054,WL,C,11.0
2,31.02300000190735,learn,28976.99999809265,Thu May 29 2025 16:42:56 GMT-0500 (Central Daylight Time),302824.3000000119,A,corn,I,n,148,1,5214.4000000059605,297609.90000000596,8054,WL,C,11.0
2,31.322999954223633,learn,28677.000045776367,Thu May 29 2025 16:42:56 GMT-0500 (Central Daylight Time),303124.1999999881,A,cornenter,I,enter,293,1,5514.299999982119,297609.90000000596,8054,WL,C,11.0
2,31.805999994277954,learn,28194.000005722046,Thu May 29 2025 16:42:56 GMT-0500 (Central Daylight Time),303607.40000000596,A,c,I,c,465,1,482.90000000596046,303124.5,8054,WL,C,12.0
2,31.990999937057495,learn,28009.000062942505,Thu May 29 2025 16:42:56 GMT-0500 (Central Daylight Time),303792.09999999404,A,ca,I,a,174,1,667.5999999940395,303124.5,8054,WL,C,12.0
2,32.305999994277954,learn,27694.000005722046,Thu May 29 2025 16:42:56 GMT-0500 (Central Daylight Time),304107.3000000119,A,cat,I,t,301,1,982.8000000119209,303124.5,8054,WL,C,12.0
2,32.47199988365173,learn,27528.000116348267,Thu May 29 2025 16:42:56 GMT-0500 (Central Daylight Time),304273.8000000119,A,catt,I,t,154,1,1149.300000011921,303124.5,8054,WL,C,12.0
2,32.62299990653992,learn,27377.000093460083,Thu May 29 2025 16:42:56 GMT-0500 (Central Daylight Time),304423.90000000596,A,cattl,I,l,140,1,1299.4000000059605,303124.5,8054,WL,C,12.0
2,33.17199993133545,learn,26828.00006866455,Thu May 29 2025 16:42:56 GMT-0500 (Central Daylight Time),304973.59999999404,A,cattle,I,e,541,1,1849.0999999940395,303124.5,8054,WL,C,12.0
2,33.371999979019165,learn,26628.000020980835,Thu May 29 2025 16:42:56 GMT-0500 (Central Daylight Time),305173.59999999404,A,cattleenter,I,enter,192,1,2049.0999999940395,303124.5,8054,WL,C,12.0
2,44.53499984741211,learn,15465.00015258789,Thu May 29 2025 16:42:56 GMT-0500 (Central Daylight Time),316336.6999999881,A,h,I,h,11144,1,11162.699999988079,305174.0,8054,WL,C,13.0
2,44.734999895095825,learn,15265.000104904175,Thu May 29 2025 16:42:56 GMT-0500 (Central Daylight Time),316536.8000000119,A,ho,I,o,188,1,11362.800000011921,305174.0,8054,WL,C,13.0
2,44.9689998626709,learn,15031.000137329102,Thu May 29 2025 16:42:56 GMT-0500 (Central Daylight Time),316770.09999999404,A,hom,I,m,229,1,11596.09999999404,305174.0,8054,WL,C,13.0
2,45.30200004577637,learn,14697.999954223633,Thu May 29 2025 16:42:56 GMT-0500 (Central Daylight Time),317103.1999999881,A,home,I,e,323,1,11929.199999988079,305174.0,8054,WL,C,13.0
2,45.51799988746643,learn,14482.00011253357,Thu May 29 2025 16:42:56 GMT-0500 (Central Daylight Time),317319.6999999881,A,homeenter,I,enter,197,1,12145.699999988079,305174.0,8054,WL,C,13.0
2,47.73399996757507,learn,12266.000032424927,Thu May 29 2025 16:42:56 GMT-0500 (Central Daylight Time),319535.8000000119,A,enter,I,enter,2206,1,2215.800000011921,317320.0,8054,WL,C,14.0
2,48.43400001525879,learn,11565.999984741211,Thu May 29 2025 16:42:56 GMT-0500 (Central Daylight Time),320235.40000000596,A,enter,I,enter,686,1,699.2000000178814,319536.1999999881,8054,WL,C,15.0
3,3.131999969482422,learn,56868.00003051758,Thu May 29 2025 16:42:56 GMT-0500 (Central Daylight Time),391180.09999999404,A,t,I,t,3117,1,3132.0,388048.09999999404,8054,WL,C,1.0
3,3.31499981880188,learn,56685.00018119812,Thu May 29 2025 16:42:56 GMT-0500 (Central Daylight Time),391363.0,A,to,I,o,177,1,3314.9000000059605,388048.09999999404,8054,WL,C,1.0
3,3.4659998416900635,learn,56534.00015830994,Thu May 29 2025 16:42:56 GMT-0500 (Central Daylight Time),391514.1999999881,A,tow,I,w,146,1,3466.0999999940395,388048.09999999404,8054,WL,C,1.0
3,3.681999921798706,learn,56318.000078201294,Thu May 29 2025 16:42:56 GMT-0500 (Central Daylight Time),391729.6999999881,A,towe,I,e,203,1,3681.5999999940395,388048.09999999404,8054,WL,C,1.0
3,3.7149999141693115,learn,56285.00008583069,Thu May 29 2025 16:42:56 GMT-0500 (Central Daylight Time),391763.0,A,tower,I,r,19,1,3714.9000000059605,388048.09999999404,8054,WL,C,1.0
3,4.247999906539917,learn,55752.00009346008,Thu May 29 2025 16:42:56 GMT-0500 (Central Daylight Time),392296.1999999881,A,towerenter,I,enter,523,1,4248.0999999940395,388048.09999999404,8054,WL,C,1.0
3,5.365999937057495,learn,54634.000062942505,Thu May 29 2025 16:42:56 GMT-0500 (Central Daylight Time),393413.6999999881,A,w,I,w,1101,1,1117.2999999821186,392296.40000000596,8054,WL,C,2.0
3,6.097999811172485,learn,53902.000188827515,Thu May 29 2025 16:42:56 GMT-0500 (Central Daylight Time),394145.5,A,wh,I,h,712,1,1849.0999999940395,392296.40000000596,8054,WL,C,2.0
3,6.559999942779541,learn,53440.00005722046,Thu May 29 2025 16:42:56 GMT-0500 (Central Daylight Time),394608.09999999404,A,whe,I,e,312,1,2311.699999988079,392296.40000000596,8054,WL,C,2.0
3,6.697999954223633,learn,53302.00004577637,Thu May 29 2025 16:42:56 GMT-0500 (Central Daylight Time),394745.3000000119,A,whea,I,a,117,1,2448.9000000059605,392296.40000000596,8054,WL,C,2.0
3,6.96399998664856,learn,53036.00001335144,Thu May 29 2025 16:42:56 GMT-0500 (Central Daylight Time),395012.09999999404,A,wheat,I,t,260,1,2715.699999988079,392296.40000000596,8054,WL,C,2.0
3,7.296999931335449,learn,52703.00006866455,Thu May 29 2025 16:42:56 GMT-0500 (Central Daylight Time),395345.09999999404,A,wheatenter,I,enter,313,1,3048.699999988079,392296.40000000596,8054,WL,C,2.0
3,8.44700002670288,learn,51552.99997329712,Thu May 29 2025 16:42:56 GMT-0500 (Central Daylight Time),396495.09999999404,A,q,I,q,1140,1,1149.5999999940395,395345.5,8054,WL,C,3.0
3,8.79699993133545,learn,51203.00006866455,Thu May 29 2025 16:42:56 GMT-0500 (Central Daylight Time),396844.90000000596,A,qu,I,u,342,1,1499.4000000059605,395345.5,8054,WL,C,3.0
3,9.46399998664856,learn,50536.00001335144,Thu May 29 2025 16:42:56 GMT-0500 (Central Daylight Time),397511.40000000596,A,que,I,e,649,1,2165.9000000059605,395345.5,8054,WL,C,3.0
3,9.61299991607666,learn,50387.00008392334,Thu May 29 2025 16:42:56 GMT-0500 (Central Daylight Time),397661.09999999404,A,quee,I,e,142,1,2315.5999999940395,395345.5,8054,WL,C,3.0
3,10.712999820709229,learn,49287.00017929077,Thu May 29 2025 16:42:56 GMT-0500 (Central Daylight Time),398760.8000000119,A,queen,I,n,1088,1,3415.300000011921,395345.5,8054,WL,C,3.0
3,11.095999956130981,learn,48904.00004386902,Thu May 29 2025 16:42:56 GMT-0500 (Central Daylight Time),399144.09999999404,A,queenenter,I,enter,364,1,3798.5999999940395,395345.5,8054,WL,C,3.0
3,12.095999956130981,learn,47904.00004386902,Thu May 29 2025 16:42:56 GMT-0500 (Central Daylight Time),400143.6999999881,A,s,I,s,990,1,999.2999999821186,399144.40000000596,8054,WL,C,4.0
3,12.36299991607666,learn,47637.00008392334,Thu May 29 2025 16:42:56 GMT-0500 (Central Daylight Time),400410.40000000596,A,su,I,u,246,1,1266.0,399144.40000000596,8054,WL,C,4.0
3,12.561999797821045,learn,47438.000202178955,Thu May 29 2025 16:42:56 GMT-0500 (Central Daylight Time),400610.0,A,sug,I,g,194,1,1465.5999999940395,399144.40000000596,8054,WL,C,4.0
3,12.763999938964844,learn,47236.000061035156,Thu May 29 2025 16:42:56 GMT-0500 (Central Daylight Time),400811.3000000119,A,suga,I,a,187,1,1666.9000000059605,399144.40000000596,8054,WL,C,4.0
3,12.928999900817871,learn,47071.00009918213,Thu May 29 2025 16:42:56 GMT-0500 (Central Daylight Time),400977.0,A,sugar,I,r,146,1,1832.5999999940395,399144.40000000596,8054,WL,C,4.0
3,14.061999797821045,learn,45938.000202178955,Thu May 29 2025 16:42:56 GMT-0500 (Central Daylight Time),402109.90000000596,A,sugarenter,I,enter,1116,1,2965.5,399144.40000000596,8054,WL,C,4.0
3,14.77899980545044,learn,45221.00019454956,Thu May 29 2025 16:42:56 GMT-0500 (Central Daylight Time),402826.3000000119,A,h,I,h,703,1,716.1000000238419,402110.1999999881,8054,WL,C,5.0
3,14.894999980926514,learn,45105.000019073486,Thu May 29 2025 16:42:56 GMT-0500 (Central Daylight Time),402943.0,A,ho,I,o,107,1,832.8000000119209,402110.1999999881,8054,WL,C,5.0
3,15.161999940872192,learn,44838.00005912781,Thu May 29 2025 16:42:56 GMT-0500 (Central Daylight Time),403209.40000000596,A,hom,I,m,246,1,1099.2000000178814,402110.1999999881,8054,WL,C,5.0
3,15.378000020980835,learn,44621.999979019165,Thu May 29 2025 16:42:56 GMT-0500 (Central Daylight Time),403425.90000000596,A,home,I,e,204,1,1315.7000000178814,402110.1999999881,8054,WL,C,5.0
3,15.67799997329712,learn,44322.00002670288,Thu May 29 2025 16:42:56 GMT-0500 (Central Daylight Time),403726.09999999404,A,homeenter,I,enter,292,1,1615.9000000059605,402110.1999999881,8054,WL,C,5.0
3,16.494999885559082,learn,43505.00011444092,Thu May 29 2025 16:42:56 GMT-0500 (Central Daylight Time),404542.3000000119,A,b,I,b,807,1,816.0,403726.3000000119,8054,WL,C,6.0
3,16.67799997329712,learn,43322.00002670288,Thu May 29 2025 16:42:56 GMT-0500 (Central Daylight Time),404725.59999999404,A,bo,I,o,175,1,999.2999999821186,403726.3000000119,8054,WL,C,6.0
3,17.027999877929688,learn,42972.00012207031,Thu May 29 2025 16:42:56 GMT-0500 (Central Daylight Time),405075.5,A,boy,I,y,336,1,1349.199999988079,403726.3000000119,8054,WL,C,6.0
3,17.610999822616577,learn,42389.00017738342,Thu May 29 2025 16:42:56 GMT-0500 (Central Daylight Time),405658.59999999404,A,boyenter,I,enter,578,1,1932.2999999821186,403726.3000000119,8054,WL,C,6.0
3,18.194000005722046,learn,41805.999994277954,Thu May 29 2025 16:42:56 GMT-0500 (Central Daylight Time),406242.0,A,d,I,d,563,1,583.0999999940395,405658.90000000596,8054,WL,C,7.0
3,18.310999870300293,learn,41689.00012969971,Thu May 29 2025 16:42:56 GMT-0500 (Central Daylight Time),406358.5,A,do,I,o,99,1,699.5999999940395,405658.90000000596,8054,WL,C,7.0
3,18.51099991798401,learn,41489.00008201599,Thu May 29 2025 16:42:56 GMT-0500 (Central Daylight Time),406558.3000000119,A,doc,I,c,191,1,899.4000000059605,405658.90000000596,8054,WL,C,7.0
3,18.8439998626709,learn,41156.0001373291,Thu May 29 2025 16:42:56 GMT-0500 (Central Daylight Time),406891.59999999404,A,doct,I,t,327,1,1232.699999988079,405658.90000000596,8054,WL,C,7.0
3,19.026999950408936,learn,40973.000049591064,Thu May 29 2025 16:42:56 GMT-0500 (Central Daylight Time),407074.8000000119,A,docto,I,o,178,1,1415.9000000059605,405658.90000000596,8054,WL,C,7.0
3,19.15999984741211,learn,40840.00015258789,Thu May 29 2025 16:42:56 GMT-0500 (Central Daylight Time),407208.1999999881,A,doctor,I,r,123,1,1549.2999999821186,405658.90000000596,8054,WL,C,7.0
3,19.65999984741211,learn,40340.00015258789,Thu May 29 2025 16:42:56 GMT-0500 (Central Daylight Time),407708.1999999881,A,doctorenter,I,enter,493,1,2049.2999999821186,405658.90000000596,8054,WL,C,7.0
3,21.90999984741211,learn,38090.00015258789,Thu May 29 2025 16:42:56 GMT-0500 (Central Daylight Time),409957.5,A,c,I,c,2233,1,2249.0,407708.5,8054,WL,C,8.0
3,22.042999982833862,learn,37957.00001716614,Thu May 29 2025 16:42:56 GMT-0500 (Central Daylight Time),410090.5,A,ca,I,a,128,1,2382.0,407708.5,8054,WL,C,8.0
3,22.325999975204468,learn,37674.00002479553,Thu May 29 2025 16:42:56 GMT-0500 (Central Daylight Time),410373.8000000119,A,cam,I,m,275,1,2665.300000011921,407708.5,8054,WL,C,8.0
3,22.542999982833862,learn,37457.00001716614,Thu May 29 2025 16:42:56 GMT-0500 (Central Daylight Time),410590.5,A,camp,I,p,208,1,2882.0,407708.5,8054,WL,C,8.0
3,22.942999839782715,learn,37057.000160217285,Thu May 29 2025 16:42:56 GMT-0500 (Central Daylight Time),410990.3000000119,A,campenter,I,enter,391,1,3281.800000011921,407708.5,8054,WL,C,8.0
3,24.64199995994568,learn,35358.00004005432,Thu May 29 2025 16:42:56 GMT-0500 (Central Daylight Time),412689.6999999881,A,f,I,f,1687,1,1699.0999999940395,410990.59999999404,8054,WL,C,9.0
3,24.858999967575073,learn,35141.00003242493,Thu May 29 2025 16:42:56 GMT-0500 (Central Daylight Time),412906.59999999404,A,fl,I,l,202,1,1916.0,410990.59999999404,8054,WL,C,9.0
3,24.95899987220764,learn,35041.00012779236,Thu May 29 2025 16:42:56 GMT-0500 (Central Daylight Time),413006.40000000596,A,fla,I,a,91,1,2015.800000011921,410990.59999999404,8054,WL,C,9.0
3,25.14199995994568,learn,34858.00004005432,Thu May 29 2025 16:42:56 GMT-0500 (Central Daylight Time),413189.5,A,flag,I,g,167,1,2198.9000000059605,410990.59999999404,8054,WL,C,9.0
3,25.425999879837036,learn,34574.000120162964,Thu May 29 2025 16:42:56 GMT-0500 (Central Daylight Time),413473.3000000119,A,flagenter,I,enter,272,1,2482.7000000178814,410990.59999999404,8054,WL,C,9.0
3,29.95299983024597,learn,30047.00016975403,Thu May 29 2025 16:42:56 GMT-0500 (Central Daylight Time),418001.0,A,n,I,n,4523,1,4527.4000000059605,413473.59999999404,8054,WL,C,10.0
3,30.09999990463257,learn,29900.00009536743,Thu May 29 2025 16:42:56 GMT-0500 (Central Daylight Time),418148.5,A,na,I,a,142,1,4674.9000000059605,413473.59999999404,8054,WL,C,10.0
3,30.207000017166138,learn,29792.999982833862,Thu May 29 2025 16:42:56 GMT-0500 (Central Daylight Time),418255.1999999881,A,nai,I,i,87,1,4781.5999999940395,413473.59999999404,8054,WL,C,10.0
3,30.490000009536743,learn,29509.999990463257,Thu May 29 2025 16:42:56 GMT-0500 (Central Daylight Time),418538.1999999881,A,nail,I,l,262,1,5064.5999999940395,413473.59999999404,8054,WL,C,10.0
3,31.372999906539917,learn,28627.000093460083,Thu May 29 2025 16:42:56 GMT-0500 (Central Daylight Time),419421.09999999404,A,nailenter,I,enter,875,1,5947.5,413473.59999999404,8054,WL,C,10.0
3,32.4229998588562,learn,27577.0001411438,Thu May 29 2025 16:42:56 GMT-0500 (Central Daylight Time),420470.6999999881,A,c,I,c,1040,1,1049.2999999821186,419421.40000000596,8054,WL,C,11.0
3,32.58999991416931,learn,27410.00008583069,Thu May 29 2025 16:42:56 GMT-0500 (Central Daylight Time),420637.6999999881,A,ca,I,a,151,1,1216.2999999821186,419421.40000000596,8054,WL,C,11.0
3,32.83899998664856,learn,27161.00001335144,Thu May 29 2025 16:42:56 GMT-0500 (Central Daylight Time),420887.3000000119,A,cat,I,t,240,1,1465.9000000059605,419421.40000000596,8054,WL,C,11.0
3,33.33899998664856,learn,26661.00001335144,Thu May 29 2025 16:42:56 GMT-0500 (Central Daylight Time),421387.1999999881,A,catt,I,t,486,1,1965.7999999821186,419421.40000000596,8054,WL,C,11.0
3,33.50599980354309,learn,26494.00019645691,Thu May 29 2025 16:42:56 GMT-0500 (Central Daylight Time),421553.8000000119,A,cattl,I,l,154,1,2132.4000000059605,419421.40000000596,8054,WL,C,11.0
3,33.68899989128113,learn,26311.000108718872,Thu May 29 2025 16:42:56 GMT-0500 (Central Daylight Time),421737.0,A,cattle,I,e,164,1,2315.5999999940395,419421.40000000596,8054,WL,C,11.0
3,33.92199993133545,learn,26078.00006866455,Thu May 29 2025 16:42:56 GMT-0500 (Central Daylight Time),421970.0,A,cattleenter,I,enter,220,1,2548.5999999940395,419421.40000000596,8054,WL,C,11.0
3,34.43899989128113,learn,25561.000108718872,Thu May 29 2025 16:42:56 GMT-0500 (Central Daylight Time),422486.6999999881,A,c,I,c,500,1,516.3999999761581,421970.3000000119,8054,WL,C,12.0
3,34.537999868392944,learn,25462.000131607056,Thu May 29 2025 16:42:56 GMT-0500 (Central Daylight Time),422586.5,A,co,I,o,86,1,616.1999999880791,421970.3000000119,8054,WL,C,12.0
3,34.73799991607666,learn,25262.00008392334,Thu May 29 2025 16:42:56 GMT-0500 (Central Daylight Time),422786.5,A,cor,I,r,186,1,816.1999999880791,421970.3000000119,8054,WL,C,12.0
3,35.037999868392944,learn,24962.000131607056,Thu May 29 2025 16:42:56 GMT-0500 (Central Daylight Time),423086.5,A,corn,I,n,291,1,1116.199999988079,421970.3000000119,8054,WL,C,12.0
3,35.67199993133545,learn,24328.00006866455,Thu May 29 2025 16:42:56 GMT-0500 (Central Daylight Time),423719.6999999881,A,cornenter,I,enter,623,1,1749.3999999761581,421970.3000000119,8054,WL,C,12.0
3,39.30399990081787,learn,20696.00009918213,Thu May 29 2025 16:42:56 GMT-0500 (Central Daylight Time),427352.09999999404,A,s,I,s,3622,1,3632.0,423720.09999999404,8054,WL,C,13.0
3,39.4539999961853,learn,20546.000003814697,Thu May 29 2025 16:42:56 GMT-0500 (Central Daylight Time),427501.8000000119,A,sh,I,h,133,1,3781.7000000178814,423720.09999999404,8054,WL,C,13.0
3,39.6029999256134,learn,20397.000074386597,Thu May 29 2025 16:42:56 GMT-0500 (Central Daylight Time),427651.5,A,sho,I,o,143,1,3931.4000000059605,423720.09999999404,8054,WL,C,13.0
3,39.83699989318848,learn,20163.000106811523,Thu May 29 2025 16:42:56 GMT-0500 (Central Daylight Time),427884.90000000596,A,shor,I,r,218,1,4164.800000011921,423720.09999999404,8054,WL,C,13.0
3,39.95299983024597,learn,20047.00016975403,Thu May 29 2025 16:42:56 GMT-0500 (Central Daylight Time),428001.3000000119,A,shore,I,e,105,1,4281.200000017881,423720.09999999404,8054,WL,C,13.0
3,40.20299983024597,learn,19797.00016975403,Thu May 29 2025 16:42:56 GMT-0500 (Central Daylight Time),428251.1999999881,A,shoreenter,I,enter,236,1,4531.0999999940395,423720.09999999404,8054,WL,C,13.0
3,42.95199990272522,learn,17048.00009727478,Thu May 29 2025 16:42:56 GMT-0500 (Central Daylight Time),431000.40000000596,A,enter,I,enter,2738,1,2748.9000000059605,428251.5,8054,WL,C,14.0
3,43.319000005722046,learn,16680.999994277954,Thu May 29 2025 16:42:56 GMT-0500 (Central Daylight Time),431367.1999999881,A,enter,I,enter,349,1,366.39999997615814,431000.8000000119,8054,WL,C,15.0
4,1.933000087738037,learn,58066.99991226196,Thu May 29 2025 16:42:56 GMT-0500 (Central Daylight Time),504394.3000000119,A,t,I,t,1913,1,1932.5,502461.8000000119,8054,WL,C,1.0
4,2.1000001430511475,learn,57899.99985694885,Thu May 29 2025 16:42:56 GMT-0500 (Central Daylight Time),504561.1999999881,A,to,I,o,147,1,2099.399999976158,502461.8000000119,8054,WL,C,1.0
4,2.299999952316284,learn,57700.000047683716,Thu May 29 2025 16:42:56 GMT-0500 (Central Daylight Time),504760.90000000596,A,tow,I,w,180,1,2299.0999999940395,502461.8000000119,8054,WL,C,1.0
4,2.5329999923706055,learn,57467.000007629395,Thu May 29 2025 16:42:56 GMT-0500 (Central Daylight Time),504994.0,A,towe,I,e,220,1,2532.199999988079,502461.8000000119,8054,WL,C,1.0
4,2.6500000953674316,learn,57349.99990463257,Thu May 29 2025 16:42:56 GMT-0500 (Central Daylight Time),505111.0,A,tower,I,r,99,1,2649.199999988079,502461.8000000119,8054,WL,C,1.0
4,2.949000120162964,learn,57050.999879837036,Thu May 29 2025 16:42:56 GMT-0500 (Central Daylight Time),505410.59999999404,A,towerenter,I,enter,278,1,2948.7999999821186,502461.8000000119,8054,WL,C,1.0
4,3.949000120162964,learn,56050.999879837036,Thu May 29 2025 16:42:56 GMT-0500 (Central Daylight Time),506410.1999999881,A,q,I,q,994,1,999.1999999880791,505411.0,8054,WL,C,2.0
4,4.381999969482422,learn,55618.00003051758,Thu May 29 2025 16:42:56 GMT-0500 (Central Daylight Time),506843.40000000596,A,qu,I,u,427,1,1432.4000000059605,505411.0,8054,WL,C,2.0
4,4.5320000648498535,learn,55467.99993515015,Thu May 29 2025 16:42:56 GMT-0500 (Central Daylight Time),506993.5,A,que,I,e,138,1,1582.5,505411.0,8054,WL,C,2.0
4,4.699000120162964,learn,55300.999879837036,Thu May 29 2025 16:42:56 GMT-0500 (Central Daylight Time),507160.0,A,quee,I,e,148,1,1749.0,505411.0,8054,WL,C,2.0
4,4.865000009536743,learn,55134.99999046326,Thu May 29 2025 16:42:56 GMT-0500 (Central Daylight Time),507326.8000000119,A,queen,I,n,150,1,1915.800000011921,505411.0,8054,WL,C,2.0
4,5.232000112533569,learn,54767.99988746643,Thu May 29 2025 16:42:56 GMT-0500 (Central Daylight Time),507693.1999999881,A,queenenter,I,enter,359,1,2282.199999988079,505411.0,8054,WL,C,2.0
4,8.581000089645386,learn,51418.999910354614,Thu May 29 2025 16:42:56 GMT-0500 (Central Daylight Time),511042.40000000596,A,b,I,b,3344,1,3348.9000000059605,507693.5,8054,WL,C,3.0
4,9.564000129699707,learn,50435.99987030029,Thu May 29 2025 16:42:56 GMT-0500 (Central Daylight Time),512025.3000000119,A,,I,backspace,971,1,4331.800000011921,507693.5,8054,WL,C,3.0
4,14.312000036239624,learn,45687.999963760376,Thu May 29 2025 16:42:56 GMT-0500 (Central Daylight Time),516773.6999999881,A,s,I,s,4732,1,9080.199999988079,507693.5,8054,WL,C,3.0
4,14.51200008392334,learn,45487.99991607666,Thu May 29 2025 16:42:56 GMT-0500 (Central Daylight Time),516973.8000000119,A,su,I,u,183,1,9280.300000011921,507693.5,8054,WL,C,3.0
4,14.779000043869019,learn,45220.99995613098,Thu May 29 2025 16:42:56 GMT-0500 (Central Daylight Time),517240.3000000119,A,sug,I,g,256,1,9546.800000011921,507693.5,8054,WL,C,3.0
4,14.946000099182129,learn,45053.99990081787,Thu May 29 2025 16:42:56 GMT-0500 (Central Daylight Time),517406.90000000596,A,suga,I,a,149,1,9713.40000000596,507693.5,8054,WL,C,3.0
4,15.062000036239624,learn,44937.999963760376,Thu May 29 2025 16:42:56 GMT-0500 (Central Daylight Time),517523.5,A,sugar,I,r,102,1,9830.0,507693.5,8054,WL,C,3.0
4,15.394999980926514,learn,44605.000019073486,Thu May 29 2025 16:42:56 GMT-0500 (Central Daylight Time),517856.8000000119,A,sugarenter,I,enter,313,1,10163.300000011921,507693.5,8054,WL,C,3.0
4,15.82800006866455,learn,44171.99993133545,Thu May 29 2025 16:42:56 GMT-0500 (Central Daylight Time),518289.90000000596,A,w,I,w,413,1,432.7000000178814,517857.1999999881,8054,WL,C,4.0
4,16.462000131607056,learn,43537.999868392944,Thu May 29 2025 16:42:56 GMT-0500 (Central Daylight Time),518923.09999999404,A,wh,I,h,620,1,1065.9000000059605,517857.1999999881,8054,WL,C,4.0
4,16.644999980926514,learn,43355.000019073486,Thu May 29 2025 16:42:56 GMT-0500 (Central Daylight Time),519106.40000000596,A,whe,I,e,162,1,1249.2000000178814,517857.1999999881,8054,WL,C,4.0
4,16.778000116348267,learn,43221.99988365173,Thu May 29 2025 16:42:56 GMT-0500 (Central Daylight Time),519239.6999999881,A,whea,I,a,115,1,1382.5,517857.1999999881,8054,WL,C,4.0
4,16.977999925613403,learn,43022.0000743866,Thu May 29 2025 16:42:56 GMT-0500 (Central Daylight Time),519439.59999999404,A,wheat,I,t,190,1,1582.4000000059605,517857.1999999881,8054,WL,C,4.0
4,17.644999980926514,learn,42355.000019073486,Thu May 29 2025 16:42:56 GMT-0500 (Central Daylight Time),520106.1999999881,A,wheatenter,I,enter,646,1,2249.0,517857.1999999881,8054,WL,C,4.0
4,18.194000005722046,learn,41805.999994277954,Thu May 29 2025 16:42:56 GMT-0500 (Central Daylight Time),520655.6999999881,A,h,I,h,531,1,549.2999999821186,520106.40000000596,8054,WL,C,5.0
4,18.34500002861023,learn,41654.99997138977,Thu May 29 2025 16:42:56 GMT-0500 (Central Daylight Time),520805.8000000119,A,ho,I,o,141,1,699.4000000059605,520106.40000000596,8054,WL,C,5.0
4,18.611000061035156,learn,41388.999938964844,Thu May 29 2025 16:42:56 GMT-0500 (Central Daylight Time),521072.5,A,hom,I,m,248,1,966.0999999940395,520106.40000000596,8054,WL,C,5.0
4,18.778000116348267,learn,41221.99988365173,Thu May 29 2025 16:42:56 GMT-0500 (Central Daylight Time),521239.09999999404,A,home,I,e,157,1,1132.699999988079,520106.40000000596,8054,WL,C,5.0
4,18.977999925613403,learn,41022.0000743866,Thu May 29 2025 16:42:56 GMT-0500 (Central Daylight Time),521439.0,A,homeenter,I,enter,182,1,1332.5999999940395,520106.40000000596,8054,WL,C,5.0
4,20.177000045776367,learn,39822.99995422363,Thu May 29 2025 16:42:56 GMT-0500 (Central Daylight Time),522638.59999999404,A,b,I,b,1183,1,1199.2999999821186,521439.3000000119,8054,WL,C,6.0
4,20.460000038146973,learn,39539.99996185303,Thu May 29 2025 16:42:56 GMT-0500 (Central Daylight Time),522921.90000000596,A,bo,I,o,271,1,1482.5999999940395,521439.3000000119,8054,WL,C,6.0
4,20.794000148773193,learn,39205.99985122681,Thu May 29 2025 16:42:56 GMT-0500 (Central Daylight Time),523255.1999999881,A,boy,I,y,316,1,1815.8999999761581,521439.3000000119,8054,WL,C,6.0
4,21.194000005722046,learn,38805.999994277954,Thu May 29 2025 16:42:56 GMT-0500 (Central Daylight Time),523655.0,A,boyd,I,d,382,1,2215.699999988079,521439.3000000119,8054,WL,C,6.0
4,21.276999950408936,learn,38723.000049591064,Thu May 29 2025 16:42:56 GMT-0500 (Central Daylight Time),523738.1999999881,A,boydo,I,o,63,1,2298.899999976158,521439.3000000119,8054,WL,C,6.0
4,21.509999990463257,learn,38490.00000953674,Thu May 29 2025 16:42:56 GMT-0500 (Central Daylight Time),523971.40000000596,A,boydoc,I,c,219,1,2532.0999999940395,521439.3000000119,8054,WL,C,6.0
4,21.80999994277954,learn,38190.00005722046,Thu May 29 2025 16:42:56 GMT-0500 (Central Daylight Time),524271.1999999881,A,boydo,I,backspace,290,1,2831.899999976158,521439.3000000119,8054,WL,C,6.0
4,21.960000038146973,learn,38039.99996185303,Thu May 29 2025 16:42:56 GMT-0500 (Central Daylight Time),524421.5,A,boyd,I,backspace,134,1,2982.199999988079,521439.3000000119,8054,WL,C,6.0
4,22.092999935150146,learn,37907.00006484985,Thu May 29 2025 16:42:56 GMT-0500 (Central Daylight Time),524554.5,A,boy,I,backspace,120,1,3115.199999988079,521439.3000000119,8054,WL,C,6.0
4,22.243000030517578,learn,37756.99996948242,Thu May 29 2025 16:42:56 GMT-0500 (Central Daylight Time),524704.599999994,A,bo,I,backspace,139,1,3265.2999999821186,521439.3000000119,8054,WL,C,6.0
4,23.026000022888184,learn,36973.99997711182,Thu May 29 2025 16:42:56 GMT-0500 (Central Daylight Time),525487.8000000119,A,boy,I,y,773,1,4048.5,521439.3000000119,8054,WL,C,6.0
4,23.39300012588501,learn,36606.99987411499,Thu May 29 2025 16:42:56 GMT-0500 (Central Daylight Time),525854.400000006,A,boyenter,I,enter,350,1,4415.0999999940395,521439.3000000119,8054,WL,C,6.0
4,23.776000022888184,learn,36223.99997711182,Thu May 29 2025 16:42:56 GMT-0500 (Central Daylight Time),526237.400000006,A,c,I,c,375,1,382.7000000178814,525854.6999999881,8054,WL,C,7.0
4,23.89300012588501,learn,36106.99987411499,Thu May 29 2025 16:42:56 GMT-0500 (Central Daylight Time),526354.3000000119,A,co,I,o,112,1,499.60000002384186,525854.6999999881,8054,WL,C,7.0
4,24.125999927520752,learn,35874.00007247925,Thu May 29 2025 16:42:56 GMT-0500 (Central Daylight Time),526587.3000000119,A,cod,I,d,227,1,732.6000000238419,525854.6999999881,8054,WL,C,7.0
4,24.776000022888184,learn,35223.99997711182,Thu May 29 2025 16:42:56 GMT-0500 (Central Daylight Time),527237.3000000119,A,co,I,backspace,642,1,1382.6000000238419,525854.6999999881,8054,WL,C,7.0
4,24.992000102996826,learn,35007.999897003174,Thu May 29 2025 16:42:56 GMT-0500 (Central Daylight Time),527453.8000000119,A,c,I,backspace,200,1,1599.1000000238419,525854.6999999881,8054,WL,C,7.0
4,25.125999927520752,learn,34874.00007247925,Thu May 29 2025 16:42:56 GMT-0500 (Central Daylight Time),527587.099999994,A,,I,backspace,120,1,1732.4000000059605,525854.6999999881,8054,WL,C,7.0
4,25.276000022888184,learn,34723.99997711182,Thu May 29 2025 16:42:56 GMT-0500 (Central Daylight Time),527737.1999999881,A,d,I,d,131,1,1882.5,525854.6999999881,8054,WL,C,7.0
4,25.509000062942505,learn,34490.999937057495,Thu May 29 2025 16:42:56 GMT-0500 (Central Daylight Time),527970.5,A,do,I,o,228,1,2115.800000011921,525854.6999999881,8054,WL,C,7.0
4,25.89199995994568,learn,34108.00004005432,Thu May 29 2025 16:42:56 GMT-0500 (Central Daylight Time),528353.400000006,A,doc,I,c,371,1,2498.7000000178814,525854.6999999881,8054,WL,C,7.0
4,26.242000102996826,learn,33757.999897003174,Thu May 29 2025 16:42:56 GMT-0500 (Central Daylight Time),528703.1999999881,A,doct,I,t,332,1,2848.5,525854.6999999881,8054,WL,C,7.0
4,26.342000007629395,learn,33657.999992370605,Thu May 29 2025 16:42:56 GMT-0500 (Central Daylight Time),528803.0,A,docto,I,o,94,1,2948.300000011921,525854.6999999881,8054,WL,C,7.0
4,26.492000102996826,learn,33507.999897003174,Thu May 29 2025 16:42:56 GMT-0500 (Central Daylight Time),528953.099999994,A,doctor,I,r,138,1,3098.4000000059605,525854.6999999881,8054,WL,C,7.0
4,27.092000007629395,learn,32907.999992370605,Thu May 29 2025 16:42:56 GMT-0500 (Central Daylight Time),529553.0,A,doctorenter,I,enter,580,1,3698.300000011921,525854.6999999881,8054,WL,C,7.0
4,28.44099998474121,learn,31559.00001525879,Thu May 29 2025 16:42:56 GMT-0500 (Central Daylight Time),530902.6999999881,A,l,I,l,1340,1,1349.2999999821186,529553.400000006,8054,WL,C,8.0
4,29.058000087738037,learn,30941.999912261963,Thu May 29 2025 16:42:56 GMT-0500 (Central Daylight Time),531519.099999994,A,le,I,e,607,1,1965.699999988079,529553.400000006,8054,WL,C,8.0
4,29.391000032424927,learn,30608.999967575073,Thu May 29 2025 16:42:56 GMT-0500 (Central Daylight Time),531852.400000006,A,let,I,t,318,1,2299.0,529553.400000006,8054,WL,C,8.0
4,29.5239999294281,learn,30476.0000705719,Thu May 29 2025 16:42:56 GMT-0500 (Central Daylight Time),531985.599999994,A,lett,I,t,113,1,2432.199999988079,529553.400000006,8054,WL,C,8.0
4,29.657999992370605,learn,30342.000007629395,Thu May 29 2025 16:42:56 GMT-0500 (Central Daylight Time),532118.900000006,A,lette,I,e,116,1,2565.5,529553.400000006,8054,WL,C,8.0
4,29.79100012779236,learn,30208.99987220764,Thu May 29 2025 16:42:56 GMT-0500 (Central Daylight Time),532252.099999994,A,letter,I,r,127,1,2698.699999988079,529553.400000006,8054,WL,C,8.0
4,29.907999992370605,learn,30092.000007629395,Thu May 29 2025 16:42:56 GMT-0500 (Central Daylight Time),532369.1999999881,A,letterenter,I,enter,98,1,2815.7999999821186,529553.400000006,8054,WL,C,8.0
4,31.973999977111816,learn,28026.000022888184,Thu May 29 2025 16:42:56 GMT-0500 (Central Daylight Time),534435.0,A,f,I,f,2052,1,2065.4000000059605,532369.599999994,8054,WL,C,9.0
4,32.15700006484985,learn,27842.999935150146,Thu May 29 2025 16:42:56 GMT-0500 (Central Daylight Time),534618.1999999881,A,fl,I,l,162,1,2248.5999999940395,532369.599999994,8054,WL,C,9.0
4,32.25699996948242,learn,27743.000030517578,Thu May 29 2025 16:42:56 GMT-0500 (Central Daylight Time),534718.099999994,A,fla,I,a,83,1,2348.5,532369.599999994,8054,WL,C,9.0
4,32.35700011253357,learn,27642.99988746643,Thu May 29 2025 16:42:56 GMT-0500 (Central Daylight Time),534817.900000006,A,flag,I,g,87,1,2448.300000011921,532369.599999994,8054,WL,C,9.0
4,32.59000015258789,learn,27409.99984741211,Thu May 29 2025 16:42:56 GMT-0500 (Central Daylight Time),535051.099999994,A,flagenter,I,enter,228,1,2681.5,532369.599999994,8054,WL,C,9.0
4,39.4539999961853,learn,20546.000003814697,Thu May 29 2025 16:42:56 GMT-0500 (Central Daylight Time),541915.8000000119,A,s,I,s,6859,1,6864.4000000059605,535051.400000006,8054,WL,C,10.0
4,39.65400004386902,learn,20345.99995613098,Thu May 29 2025 16:42:56 GMT-0500 (Central Daylight Time),542115.900000006,A,sh,I,h,185,1,7064.5,535051.400000006,8054,WL,C,10.0
4,39.78699994087219,learn,20213.000059127808,Thu May 29 2025 16:42:56 GMT-0500 (Central Daylight Time),542249.0,A,sho,I,o,114,1,7197.5999999940395,535051.400000006,8054,WL,C,10.0
4,39.937000036239624,learn,20062.999963760376,Thu May 29 2025 16:42:56 GMT-0500 (Central Daylight Time),542399.1999999881,A,shor,I,r,132,1,7347.799999982119,535051.400000006,8054,WL,C,10.0
4,40.03699994087219,learn,19963.000059127808,Thu May 29 2025 16:42:56 GMT-0500 (Central Daylight Time),542499.0,A,shore,I,e,86,1,7447.5999999940395,535051.400000006,8054,WL,C,10.0
4,40.271000146865845,learn,19728.999853134155,Thu May 29 2025 16:42:56 GMT-0500 (Central Daylight Time),542732.3000000119,A,shoreenter,I,enter,218,1,7680.9000000059605,535051.400000006,8054,WL,C,10.0
4,43.3199999332428,learn,16680.000066757202,Thu May 29 2025 16:42:56 GMT-0500 (Central Daylight Time),545781.3000000119,A,c,I,c,3041,1,3048.600000023842,542732.6999999881,8054,WL,C,11.0
4,43.53600001335144,learn,16463.99998664856,Thu May 29 2025 16:42:56 GMT-0500 (Central Daylight Time),545998.0,A,ca,I,a,208,1,3265.300000011921,542732.6999999881,8054,WL,C,11.0
4,44.651999950408936,learn,15348.000049591064,Thu May 29 2025 16:42:56 GMT-0500 (Central Daylight Time),547114.1999999881,A,c,I,backspace,1103,1,4381.5,542732.6999999881,8054,WL,C,11.0
4,44.901999950408936,learn,15098.000049591064,Thu May 29 2025 16:42:56 GMT-0500 (Central Daylight Time),547364.099999994,A,co,I,o,243,1,4631.4000000059605,542732.6999999881,8054,WL,C,11.0
4,45.05299997329712,learn,14947.00002670288,Thu May 29 2025 16:42:56 GMT-0500 (Central Daylight Time),547514.3000000119,A,cor,I,r,137,1,4781.600000023842,542732.6999999881,8054,WL,C,11.0
4,45.46900010108948,learn,14530.999898910522,Thu May 29 2025 16:42:56 GMT-0500 (Central Daylight Time),547930.6999999881,A,corn,I,n,403,1,5198.0,542732.6999999881,8054,WL,C,11.0
4,45.85199999809265,learn,14148.000001907349,Thu May 29 2025 16:42:56 GMT-0500 (Central Daylight Time),548314.0,A,cornenter,I,enter,363,1,5581.300000011921,542732.6999999881,8054,WL,C,11.0
4,46.51900005340576,learn,13480.999946594238,Thu May 29 2025 16:42:56 GMT-0500 (Central Daylight Time),548980.400000006,A,c,I,c,660,1,666.2000000178814,548314.1999999881,8054,WL,C,12.0
4,46.7020001411438,learn,13297.999858856201,Thu May 29 2025 16:42:56 GMT-0500 (Central Daylight Time),549163.400000006,A,ca,I,a,177,1,849.2000000178814,548314.1999999881,8054,WL,C,12.0
4,47.00200009346008,learn,12997.999906539917,Thu May 29 2025 16:42:56 GMT-0500 (Central Daylight Time),549463.599999994,A,cat,I,t,290,1,1149.4000000059605,548314.1999999881,8054,WL,C,12.0
4,47.151999950408936,learn,12848.000049591064,Thu May 29 2025 16:42:56 GMT-0500 (Central Daylight Time),549613.599999994,A,catt,I,t,142,1,1299.4000000059605,548314.1999999881,8054,WL,C,12.0
4,47.38499999046326,learn,12615.000009536743,Thu May 29 2025 16:42:56 GMT-0500 (Central Daylight Time),549846.6999999881,A,cattl,I,l,224,1,1532.5,548314.1999999881,8054,WL,C,12.0
4,47.55200004577637,learn,12447.999954223633,Thu May 29 2025 16:42:56 GMT-0500 (Central Daylight Time),550013.5,A,cattle,I,e,151,1,1699.300000011921,548314.1999999881,8054,WL,C,12.0
4,48.76800012588501,learn,11231.99987411499,Thu May 29 2025 16:42:56 GMT-0500 (Central Daylight Time),551229.599999994,A,cattleenter,I,enter,1200,1,2915.4000000059605,548314.1999999881,8054,WL,C,12.0
4,49.98399996757507,learn,10016.000032424927,Thu May 29 2025 16:42:56 GMT-0500 (Central Daylight Time),552445.900000006,A,m,I,m,1208,1,1216.0,551229.900000006,8054,WL,C,13.0
4,50.50099992752075,learn,9499.000072479248,Thu May 29 2025 16:42:56 GMT-0500 (Central Daylight Time),552962.5,A,,I,backspace,495,1,1732.5999999940395,551229.900000006,8054,WL,C,13.0
4,50.83400011062622,learn,9165.99988937378,Thu May 29 2025 16:42:56 GMT-0500 (Central Daylight Time),553295.599999994,A,n,I,n,315,1,2065.699999988079,551229.900000006,8054,WL,C,13.0
4,51.25,learn,8750.0,Thu May 29 2025 16:42:56 GMT-0500 (Central Daylight Time),553712.099999994,A,na,I,a,406,1,2482.199999988079,551229.900000006,8054,WL,C,13.0
4,51.384000062942505,learn,8615.999937057495,Thu May 29 2025 16:42:56 GMT-0500 (Central Daylight Time),553845.5,A,nai,I,i,117,1,2615.5999999940395,551229.900000006,8054,WL,C,13.0
4,51.717000007629395,learn,8282.999992370605,Thu May 29 2025 16:42:56 GMT-0500 (Central Daylight Time),554178.900000006,A,nail,I,l,319,1,2949.0,551229.900000006,8054,WL,C,13.0
4,52.049999952316284,learn,7950.000047683716,Thu May 29 2025 16:42:56 GMT-0500 (Central Daylight Time),554511.900000006,A,nailenter,I,enter,315,1,3282.0,551229.900000006,8054,WL,C,13.0
4,57.07299995422363,learn,2927.000045776367,Thu May 29 2025 16:42:56 GMT-0500 (Central Daylight Time),559534.599999994,A,s,I,s,5017,1,5022.299999982119,554512.3000000119,8054,WL,C,14.0
4,57.11500000953674,learn,2884.999990463257,Thu May 29 2025 16:42:56 GMT-0500 (Central Daylight Time),559576.6999999881,A,sh,I,h,31,1,5064.399999976158,554512.3000000119,8054,WL,C,14.0
4,57.348999977111816,learn,2651.0000228881836,Thu May 29 2025 16:42:56 GMT-0500 (Central Daylight Time),559810.400000006,A,sho,I,o,228,1,5298.0999999940395,554512.3000000119,8054,WL,C,14.0
4,57.515000104904175,learn,2484.999895095825,Thu May 29 2025 16:42:56 GMT-0500 (Central Daylight Time),559976.8000000119,A,shor,I,r,155,1,5464.5,554512.3000000119,8054,WL,C,14.0
4,57.598000049591064,learn,2401.9999504089355,Thu May 29 2025 16:42:56 GMT-0500 (Central Daylight Time),560060.099999994,A,shore,I,e,69,1,5547.799999982119,554512.3000000119,8054,WL,C,14.0
4,57.848000049591064,learn,2151.9999504089355,Thu May 29 2025 16:42:56 GMT-0500 (Central Daylight Time),560310.0,A,shoreenter,I,enter,233,1,5797.699999988079,554512.3000000119,8054,WL,C,14.0
4,59.04800009727478,learn,951.9999027252197,Thu May 29 2025 16:42:56 GMT-0500 (Central Daylight Time),561509.6999999881,A,enter,I,enter,1192,1,1199.3999999761581,560310.3000000119,8054,WL,C,15.0
5,1.4659998416900635,learn,60000.0,Thu May 29 2025 16:42:56 GMT-0500 (Central Daylight Time),629754.8000000119,A,t,I,t,1461,1,1465.800000011921,628289.0,8054,WL,C,1.0
5,1.7960000038146973,learn,60000.0,Thu May 29 2025 16:42:56 GMT-0500 (Central Daylight Time),630085.3000000119,A,to,I,o,326,1,1796.300000011921,628289.0,8054,WL,C,1.0
5,1.9429998397827148,learn,60000.0,Thu May 29 2025 16:42:56 GMT-0500 (Central Daylight Time),630232.0,A,tow,I,w,79,1,1943.0,628289.0,8054,WL,C,1.0
5,2.0989999771118164,learn,60000.0,Thu May 29 2025 16:42:56 GMT-0500 (Central Daylight Time),630387.900000006,A,towe,I,e,149,1,2098.9000000059605,628289.0,8054,WL,C,1.0
5,2.115999937057495,learn,60000.0,Thu May 29 2025 16:42:56 GMT-0500 (Central Daylight Time),630405.099999994,A,tower,I,r,9,1,2116.0999999940395,628289.0,8054,WL,C,1.0
5,2.381999969482422,learn,60000.0,Thu May 29 2025 16:42:56 GMT-0500 (Central Daylight Time),630671.400000006,A,towerenter,I,enter,249,1,2382.4000000059605,628289.0,8054,WL,C,1.0
5,3.7319998741149902,learn,60000.0,Thu May 29 2025 16:42:56 GMT-0500 (Central Daylight Time),632021.1999999881,A,q,I,q,1334,1,1349.2999999821186,630671.900000006,8054,WL,C,2.0
5,3.931999921798706,learn,60000.0,Thu May 29 2025 16:42:56 GMT-0500 (Central Daylight Time),632220.8000000119,A,qu,I,u,192,1,1548.9000000059605,630671.900000006,8054,WL,C,2.0
5,4.115000009536743,learn,60000.0,Thu May 29 2025 16:42:56 GMT-0500 (Central Daylight Time),632403.900000006,A,que,I,e,177,1,1732.0,630671.900000006,8054,WL,C,2.0
5,4.297999858856201,learn,60000.0,Thu May 29 2025 16:42:56 GMT-0500 (Central Daylight Time),632587.5,A,quee,I,e,170,1,1915.5999999940395,630671.900000006,8054,WL,C,2.0
5,4.797999858856201,learn,60000.0,Thu May 29 2025 16:42:56 GMT-0500 (Central Daylight Time),633087.3000000119,A,queen,I,n,490,1,2415.4000000059605,630671.900000006,8054,WL,C,2.0
5,5.148000001907349,learn,60000.0,Thu May 29 2025 16:42:56 GMT-0500 (Central Daylight Time),633437.1999999881,A,queenenter,I,enter,342,1,2765.2999999821186,630671.900000006,8054,WL,C,2.0
5,6.5309998989105225,learn,60000.0,Thu May 29 2025 16:42:56 GMT-0500 (Central Daylight Time),634820.0,A,s,I,s,1368,1,1382.4000000059605,633437.599999994,8054,WL,C,3.0
5,6.697999954223633,learn,60000.0,Thu May 29 2025 16:42:56 GMT-0500 (Central Daylight Time),634987.0,A,su,I,u,154,1,1549.4000000059605,633437.599999994,8054,WL,C,3.0
5,6.946999788284302,learn,60000.0,Thu May 29 2025 16:42:56 GMT-0500 (Central Daylight Time),635236.5,A,sua,I,a,234,1,1798.9000000059605,633437.599999994,8054,WL,C,3.0
5,7.446999788284302,learn,60000.0,Thu May 29 2025 16:42:56 GMT-0500 (Central Daylight Time),635736.1999999881,A,su,I,backspace,489,1,2298.5999999940395,633437.599999994,8054,WL,C,3.0
5,7.513999938964844,learn,60000.0,Thu May 29 2025 16:42:56 GMT-0500 (Central Daylight Time),635803.099999994,A,sug,I,g,53,1,2365.5,633437.599999994,8054,WL,C,3.0
5,7.646999835968018,learn,60000.0,Thu May 29 2025 16:42:56 GMT-0500 (Central Daylight Time),635936.3000000119,A,suga,I,a,122,1,2498.7000000178814,633437.599999994,8054,WL,C,3.0
5,7.763999938964844,learn,60000.0,Thu May 29 2025 16:42:56 GMT-0500 (Central Daylight Time),636052.8000000119,A,sugar,I,r,109,1,2615.2000000178814,633437.599999994,8054,WL,C,3.0
5,8.080999851226807,learn,60000.0,Thu May 29 2025 16:42:56 GMT-0500 (Central Daylight Time),636369.5,A,sugarenter,I,enter,305,1,2931.9000000059605,633437.599999994,8054,WL,C,3.0
5,9.263000011444092,learn,60000.0,Thu May 29 2025 16:42:56 GMT-0500 (Central Daylight Time),637552.5,A,w,I,w,1171,1,1182.5999999940395,636369.900000006,8054,WL,C,4.0
5,9.513000011444092,learn,60000.0,Thu May 29 2025 16:42:56 GMT-0500 (Central Daylight Time),637802.400000006,A,wh,I,h,229,1,1432.5,636369.900000006,8054,WL,C,4.0
5,9.86299991607666,learn,60000.0,Thu May 29 2025 16:42:56 GMT-0500 (Central Daylight Time),638152.1999999881,A,wha,I,a,339,1,1782.2999999821186,636369.900000006,8054,WL,C,4.0
5,10.04699993133545,learn,60000.0,Thu May 29 2025 16:42:56 GMT-0500 (Central Daylight Time),638335.599999994,A,what,I,t,173,1,1965.699999988079,636369.900000006,8054,WL,C,4.0
5,10.513000011444092,learn,60000.0,Thu May 29 2025 16:42:56 GMT-0500 (Central Daylight Time),638802.099999994,A,wha,I,backspace,446,1,2432.199999988079,636369.900000006,8054,WL,C,4.0
5,10.712999820709229,learn,60000.0,Thu May 29 2025 16:42:56 GMT-0500 (Central Daylight Time),639002.1999999881,A,wh,I,backspace,195,1,2632.2999999821186,636369.900000006,8054,WL,C,4.0
5,10.79699993133545,learn,60000.0,Thu May 29 2025 16:42:56 GMT-0500 (Central Daylight Time),639085.599999994,A,whe,I,e,67,1,2715.699999988079,636369.900000006,8054,WL,C,4.0
5,10.895999908447266,learn,60000.0,Thu May 29 2025 16:42:56 GMT-0500 (Central Daylight Time),639185.3000000119,A,whea,I,a,88,1,2815.4000000059605,636369.900000006,8054,WL,C,4.0
5,11.013000011444092,learn,60000.0,Thu May 29 2025 16:42:56 GMT-0500 (Central Daylight Time),639301.900000006,A,wheat,I,t,108,1,2932.0,636369.900000006,8054,WL,C,4.0
5,11.212999820709229,learn,60000.0,Thu May 29 2025 16:42:56 GMT-0500 (Central Daylight Time),639502.0,A,wheatenter,I,enter,192,1,3132.0999999940395,636369.900000006,8054,WL,C,4.0
5,11.69599986076355,learn,60000.0,Thu May 29 2025 16:42:56 GMT-0500 (Central Daylight Time),639985.099999994,A,h,I,h,472,1,482.69999998807907,639502.400000006,8054,WL,C,5.0
5,11.812999963760376,learn,60000.0,Thu May 29 2025 16:42:56 GMT-0500 (Central Daylight Time),640101.8000000119,A,ho,I,o,100,1,599.4000000059605,639502.400000006,8054,WL,C,5.0
5,12.062999963760376,learn,60000.0,Thu May 29 2025 16:42:56 GMT-0500 (Central Daylight Time),640351.5,A,hom,I,m,240,1,849.0999999940395,639502.400000006,8054,WL,C,5.0
5,12.228999853134155,learn,60000.0,Thu May 29 2025 16:42:56 GMT-0500 (Central Daylight Time),640518.099999994,A,home,I,e,150,1,1015.6999999880791,639502.400000006,8054,WL,C,5.0
5,12.44599986076355,learn,60000.0,Thu May 29 2025 16:42:56 GMT-0500 (Central Daylight Time),640735.099999994,A,homeenter,I,enter,199,1,1232.699999988079,639502.400000006,8054,WL,C,5.0
5,12.77899980545044,learn,60000.0,Thu May 29 2025 16:42:56 GMT-0500 (Central Daylight Time),641068.099999994,A,b,I,b,327,1,332.69999998807907,640735.400000006,8054,WL,C,6.0
5,12.878999948501587,learn,60000.0,Thu May 29 2025 16:42:56 GMT-0500 (Central Daylight Time),641168.099999994,A,bo,I,o,89,1,432.69999998807907,640735.400000006,8054,WL,C,6.0
5,13.161999940872192,learn,60000.0,Thu May 29 2025 16:42:56 GMT-0500 (Central Daylight Time),641451.0,A,boy,I,y,269,1,715.5999999940395,640735.400000006,8054,WL,C,6.0
5,13.494999885559082,learn,60000.0,Thu May 29 2025 16:42:56 GMT-0500 (Central Daylight Time),641784.5,A,boyenter,I,enter,314,1,1049.0999999940395,640735.400000006,8054,WL,C,6.0
5,13.944999933242798,learn,60000.0,Thu May 29 2025 16:42:56 GMT-0500 (Central Daylight Time),642234.5,A,d,I,d,445,1,449.69999998807907,641784.8000000119,8054,WL,C,7.0
5,14.044999837875366,learn,60000.0,Thu May 29 2025 16:42:56 GMT-0500 (Central Daylight Time),642334.400000006,A,do,I,o,91,1,549.5999999940395,641784.8000000119,8054,WL,C,7.0
5,14.244999885559082,learn,60000.0,Thu May 29 2025 16:42:56 GMT-0500 (Central Daylight Time),642534.3000000119,A,doc,I,c,183,1,749.5,641784.8000000119,8054,WL,C,7.0
5,14.51199984550476,learn,60000.0,Thu May 29 2025 16:42:56 GMT-0500 (Central Daylight Time),642800.8000000119,A,doct,I,t,255,1,1016.0,641784.8000000119,8054,WL,C,7.0
5,14.694999933242798,learn,60000.0,Thu May 29 2025 16:42:56 GMT-0500 (Central Daylight Time),642984.099999994,A,doctp,I,p,165,1,1199.2999999821186,641784.8000000119,8054,WL,C,7.0
5,14.794999837875366,learn,60000.0,Thu May 29 2025 16:42:56 GMT-0500 (Central Daylight Time),643084.099999994,A,doctpr,I,r,85,1,1299.2999999821186,641784.8000000119,8054,WL,C,7.0
5,15.26199984550476,learn,60000.0,Thu May 29 2025 16:42:56 GMT-0500 (Central Daylight Time),643550.5,A,doctp,I,backspace,449,1,1765.699999988079,641784.8000000119,8054,WL,C,7.0
5,15.394999980926514,learn,60000.0,Thu May 29 2025 16:42:56 GMT-0500 (Central Daylight Time),643683.900000006,A,doct,I,backspace,119,1,1899.0999999940395,641784.8000000119,8054,WL,C,7.0
5,15.644999980926514,learn,60000.0,Thu May 29 2025 16:42:56 GMT-0500 (Central Daylight Time),643934.0,A,docto,I,o,234,1,2149.199999988079,641784.8000000119,8054,WL,C,7.0
5,15.727999925613403,learn,60000.0,Thu May 29 2025 16:42:56 GMT-0500 (Central Daylight Time),644017.5,A,doctor,I,r,71,1,2232.699999988079,641784.8000000119,8054,WL,C,7.0
5,15.960999965667725,learn,60000.0,Thu May 29 2025 16:42:56 GMT-0500 (Central Daylight Time),644250.3000000119,A,doctorenter,I,enter,220,1,2465.5,641784.8000000119,8054,WL,C,7.0
5,17.477999925613403,learn,60000.0,Thu May 29 2025 16:42:56 GMT-0500 (Central Daylight Time),645766.599999994,A,c,I,c,1499,1,1515.9000000059605,644250.6999999881,8054,WL,C,8.0
5,17.610999822616577,learn,60000.0,Thu May 29 2025 16:42:56 GMT-0500 (Central Daylight Time),645900.099999994,A,ca,I,a,119,1,1649.4000000059605,644250.6999999881,8054,WL,C,8.0
5,17.82799983024597,learn,60000.0,Thu May 29 2025 16:42:56 GMT-0500 (Central Daylight Time),646116.400000006,A,cam,I,m,210,1,1865.7000000178814,644250.6999999881,8054,WL,C,8.0
5,18.126999855041504,learn,60000.0,Thu May 29 2025 16:42:56 GMT-0500 (Central Daylight Time),646416.3000000119,A,camp,I,p,281,1,2165.600000023842,644250.6999999881,8054,WL,C,8.0
5,18.66100001335144,learn,60000.0,Thu May 29 2025 16:42:56 GMT-0500 (Central Daylight Time),646949.599999994,A,campenter,I,enter,525,1,2698.9000000059605,644250.6999999881,8054,WL,C,8.0
5,19.5939998626709,learn,60000.0,Thu May 29 2025 16:42:56 GMT-0500 (Central Daylight Time),647882.599999994,A,l,I,l,920,1,932.6999999880791,646949.900000006,8054,WL,C,9.0
5,20.192999839782715,learn,60000.0,Thu May 29 2025 16:42:56 GMT-0500 (Central Daylight Time),648482.3000000119,A,le,I,e,587,1,1532.4000000059605,646949.900000006,8054,WL,C,9.0
5,20.609999895095825,learn,60000.0,Thu May 29 2025 16:42:56 GMT-0500 (Central Daylight Time),648898.900000006,A,let,I,t,411,1,1949.0,646949.900000006,8054,WL,C,9.0
5,20.776999950408936,learn,60000.0,Thu May 29 2025 16:42:56 GMT-0500 (Central Daylight Time),649065.8000000119,A,lett,I,t,147,1,2115.9000000059605,646949.900000006,8054,WL,C,9.0
5,20.925999879837036,learn,60000.0,Thu May 29 2025 16:42:56 GMT-0500 (Central Daylight Time),649215.400000006,A,lette,I,e,131,1,2265.5,646949.900000006,8054,WL,C,9.0
5,21.042999982833862,learn,60000.0,Thu May 29 2025 16:42:56 GMT-0500 (Central Daylight Time),649332.099999994,A,letter,I,r,102,1,2382.199999988079,646949.900000006,8054,WL,C,9.0
5,21.175999879837036,learn,60000.0,Thu May 29 2025 16:42:56 GMT-0500 (Central Daylight Time),649465.3000000119,A,letterenter,I,enter,121,1,2515.4000000059605,646949.900000006,8054,WL,C,9.0
5,21.842999935150146,learn,60000.0,Thu May 29 2025 16:42:56 GMT-0500 (Central Daylight Time),650132.0,A,f,I,f,652,1,666.3000000119209,649465.6999999881,8054,WL,C,10.0
5,21.95899987220764,learn,60000.0,Thu May 29 2025 16:42:56 GMT-0500 (Central Daylight Time),650248.5,A,fl,I,l,97,1,782.8000000119209,649465.6999999881,8054,WL,C,10.0
5,22.075999975204468,learn,60000.0,Thu May 29 2025 16:42:56 GMT-0500 (Central Daylight Time),650365.1999999881,A,fla,I,a,101,1,899.5,649465.6999999881,8054,WL,C,10.0
5,22.358999967575073,learn,60000.0,Thu May 29 2025 16:42:56 GMT-0500 (Central Daylight Time),650648.400000006,A,flag,I,g,272,1,1182.7000000178814,649465.6999999881,8054,WL,C,10.0
5,22.609999895095825,learn,60000.0,Thu May 29 2025 16:42:56 GMT-0500 (Central Daylight Time),650898.5,A,flagenter,I,enter,229,1,1432.800000011921,649465.6999999881,8054,WL,C,10.0
5,24.024999856948853,learn,60000.0,Thu May 29 2025 16:42:56 GMT-0500 (Central Daylight Time),652314.5,A,c,I,c,1403,1,1415.699999988079,650898.8000000119,8054,WL,C,11.0
5,24.174999952316284,learn,60000.0,Thu May 29 2025 16:42:56 GMT-0500 (Central Daylight Time),652464.400000006,A,co,I,o,131,1,1565.5999999940395,650898.8000000119,8054,WL,C,11.0
5,24.324999809265137,learn,60000.0,Thu May 29 2025 16:42:56 GMT-0500 (Central Daylight Time),652614.5,A,cor,I,r,141,1,1715.699999988079,650898.8000000119,8054,WL,C,11.0
5,24.54199981689453,learn,60000.0,Thu May 29 2025 16:42:56 GMT-0500 (Central Daylight Time),652831.0,A,corn,I,n,199,1,1932.199999988079,650898.8000000119,8054,WL,C,11.0
5,24.924999952316284,learn,60000.0,Thu May 29 2025 16:42:56 GMT-0500 (Central Daylight Time),653214.1999999881,A,cornenter,I,enter,375,1,2315.399999976158,650898.8000000119,8054,WL,C,11.0
5,25.625,learn,60000.0,Thu May 29 2025 16:42:56 GMT-0500 (Central Daylight Time),653914.099999994,A,c,I,c,687,1,699.5,653214.599999994,8054,WL,C,12.0
5,25.757999897003174,learn,60000.0,Thu May 29 2025 16:42:56 GMT-0500 (Central Daylight Time),654047.3000000119,A,ca,I,a,115,1,832.7000000178814,653214.599999994,8054,WL,C,12.0
5,26.057999849319458,learn,60000.0,Thu May 29 2025 16:42:56 GMT-0500 (Central Daylight Time),654347.1999999881,A,cat,I,t,286,1,1132.5999999940395,653214.599999994,8054,WL,C,12.0
5,26.22499990463257,learn,60000.0,Thu May 29 2025 16:42:56 GMT-0500 (Central Daylight Time),654513.8000000119,A,catt,I,t,146,1,1299.2000000178814,653214.599999994,8054,WL,C,12.0
5,26.44099998474121,learn,60000.0,Thu May 29 2025 16:42:56 GMT-0500 (Central Daylight Time),654730.3000000119,A,cattl,I,l,196,1,1515.7000000178814,653214.599999994,8054,WL,C,12.0
5,26.608999967575073,learn,60000.0,Thu May 29 2025 16:42:56 GMT-0500 (Central Daylight Time),654897.900000006,A,cattle,I,e,163,1,1683.300000011921,653214.599999994,8054,WL,C,12.0
5,26.907999992370605,learn,60000.0,Thu May 29 2025 16:42:56 GMT-0500 (Central Daylight Time),655196.8000000119,A,cattleenter,I,enter,292,1,1982.2000000178814,653214.599999994,8054,WL,C,12.0
5,27.990999937057495,learn,60000.0,Thu May 29 2025 16:42:56 GMT-0500 (Central Daylight Time),656279.900000006,A,n,I,n,1064,1,1082.800000011921,655197.099999994,8054,WL,C,13.0
5,28.20799994468689,learn,60000.0,Thu May 29 2025 16:42:56 GMT-0500 (Central Daylight Time),656496.5,A,na,I,a,197,1,1299.4000000059605,655197.099999994,8054,WL,C,13.0
5,28.390999794006348,learn,60000.0,Thu May 29 2025 16:42:56 GMT-0500 (Central Daylight Time),656679.8000000119,A,nai,I,i,173,1,1482.7000000178814,655197.099999994,8054,WL,C,13.0
5,28.656999826431274,learn,60000.0,Thu May 29 2025 16:42:56 GMT-0500 (Central Daylight Time),656946.1999999881,A,nail,I,l,254,1,1749.0999999940395,655197.099999994,8054,WL,C,13.0
5,28.973999977111816,learn,60000.0,Thu May 29 2025 16:42:56 GMT-0500 (Central Daylight Time),657263.1999999881,A,nailenter,I,enter,299,1,2066.0999999940395,655197.099999994,8054,WL,C,13.0
5,30.039999961853027,learn,60000.0,Thu May 29 2025 16:42:56 GMT-0500 (Central Daylight Time),658329.400000006,A,s,I,s,1046,1,1065.9000000059605,657263.5,8054,WL,C,14.0
5,30.1729998588562,learn,60000.0,Thu May 29 2025 16:42:56 GMT-0500 (Central Daylight Time),658462.6999999881,A,sh,I,h,116,1,1199.199999988079,657263.5,8054,WL,C,14.0
5,30.35699987411499,learn,60000.0,Thu May 29 2025 16:42:56 GMT-0500 (Central Daylight Time),658645.8000000119,A,sho,I,o,175,1,1382.300000011921,657263.5,8054,WL,C,14.0
5,30.52300000190735,learn,60000.0,Thu May 29 2025 16:42:56 GMT-0500 (Central Daylight Time),658812.5,A,shor,I,r,160,1,1549.0,657263.5,8054,WL,C,14.0
5,30.58999991416931,learn,60000.0,Thu May 29 2025 16:42:56 GMT-0500 (Central Daylight Time),658879.3000000119,A,shore,I,e,49,1,1615.800000011921,657263.5,8054,WL,C,14.0
5,30.83999991416931,learn,60000.0,Thu May 29 2025 16:42:56 GMT-0500 (Central Daylight Time),659128.8000000119,A,shoreenter,I,enter,238,1,1865.300000011921,657263.5,8054,WL,C,14.0
5,31.33999991416931,learn,60000.0,Thu May 29 2025 16:42:56 GMT-0500 (Central Daylight Time),659628.900000006,A,b,I,b,493,1,499.80000001192093,659129.099999994,8054,WL,C,15.0
5,31.50599980354309,learn,60000.0,Thu May 29 2025 16:42:56 GMT-0500 (Central Daylight Time),659795.1999999881,A,bo,I,o,160,1,666.0999999940395,659129.099999994,8054,WL,C,15.0
5,31.688999891281128,learn,60000.0,Thu May 29 2025 16:42:56 GMT-0500 (Central Daylight Time),659978.599999994,A,bod,I,d,178,1,849.5,659129.099999994,8054,WL,C,15.0
5,31.938999891281128,learn,60000.0,Thu May 29 2025 16:42:56 GMT-0500 (Central Daylight Time),660228.599999994,A,body,I,y,235,1,1099.5,659129.099999994,8054,WL,C,15.0
5,32.23899984359741,learn,60000.0,Thu May 29 2025 16:42:56 GMT-0500 (Central Daylight Time),660528.8000000119,A,bodyenter,I,enter,289,1,1399.7000000178814,659129.099999994,8054,WL,C,15.0
6,2.1670000553131104,distr,57832.99994468689,Thu May 29 2025 16:42:56 GMT-0500 (Central Daylight Time),732306.099999994,B,s,I,s,2146,1,2166.199999988079,730139.900000006,8054,WL,C,1.0
6,2.315999984741211,distr,57684.00001525879,Thu May 29 2025 16:42:56 GMT-0500 (Central Daylight Time),732456.0,B,sk,I,k,131,1,2316.0999999940395,730139.900000006,8054,WL,C,1.0
6,2.9000000953674316,distr,57099.99990463257,Thu May 29 2025 16:42:56 GMT-0500 (Central Daylight Time),733039.099999994,B,sky,I,y,565,1,2899.199999988079,730139.900000006,8054,WL,C,1.0
6,3.3329999446868896,distr,56667.00005531311,Thu May 29 2025 16:42:56 GMT-0500 (Central Daylight Time),733472.599999994,B,skyenter,I,enter,414,1,3332.699999988079,730139.900000006,8054,WL,C,1.0
6,4.466000080108643,distr,55533.99991989136,Thu May 29 2025 16:42:56 GMT-0500 (Central Daylight Time),734605.1999999881,B,d,I,d,1117,1,1132.3999999761581,733472.8000000119,8054,WL,C,2.0
6,4.615999937057495,distr,55384.000062942505,Thu May 29 2025 16:42:56 GMT-0500 (Central Daylight Time),734755.3000000119,B,do,I,o,136,1,1282.5,733472.8000000119,8054,WL,C,2.0
6,4.832000017166138,distr,55167.99998283386,Thu May 29 2025 16:42:56 GMT-0500 (Central Daylight Time),734972.0,B,dol,I,l,202,1,1499.199999988079,733472.8000000119,8054,WL,C,2.0
6,4.966000080108643,distr,55033.99991989136,Thu May 29 2025 16:42:56 GMT-0500 (Central Daylight Time),735105.0,B,doll,I,l,113,1,1632.199999988079,733472.8000000119,8054,WL,C,2.0
6,5.148999929428101,distr,54851.0000705719,Thu May 29 2025 16:42:56 GMT-0500 (Central Daylight Time),735288.3000000119,B,dolla,I,a,164,1,1815.5,733472.8000000119,8054,WL,C,2.0
6,5.299000024795532,distr,54700.99997520447,Thu May 29 2025 16:42:56 GMT-0500 (Central Daylight Time),735438.1999999881,B,dollar,I,r,133,1,1965.3999999761581,733472.8000000119,8054,WL,C,2.0
6,5.499000072479248,distr,54500.99992752075,Thu May 29 2025 16:42:56 GMT-0500 (Central Daylight Time),735638.400000006,B,dollarenter,I,enter,183,1,2165.5999999940395,733472.8000000119,8054,WL,C,2.0
6,6.631999969482422,distr,53368.00003051758,Thu May 29 2025 16:42:56 GMT-0500 (Central Daylight Time),736771.3000000119,B,v,I,v,1127,1,1132.4000000059605,735638.900000006,8054,WL,C,3.0
6,6.732000112533569,distr,53267.99988746643,Thu May 29 2025 16:42:56 GMT-0500 (Central Daylight Time),736871.3000000119,B,va,I,a,90,1,1232.4000000059605,735638.900000006,8054,WL,C,3.0
6,7.180999994277954,distr,52819.000005722046,Thu May 29 2025 16:42:56 GMT-0500 (Central Daylight Time),737321.0,B,vae,I,e,430,1,1682.0999999940395,735638.900000006,8054,WL,C,3.0
6,7.3480000495910645,distr,52651.999950408936,Thu May 29 2025 16:42:56 GMT-0500 (Central Daylight Time),737487.900000006,B,vaee,I,e,148,1,1849.0,735638.900000006,8054,WL,C,3.0
6,7.515000104904175,distr,52484.999895095825,Thu May 29 2025 16:42:56 GMT-0500 (Central Daylight Time),737654.5,B,vaeel,I,l,150,1,2015.5999999940395,735638.900000006,8054,WL,C,3.0
6,8.164999961853027,distr,51835.00003814697,Thu May 29 2025 16:42:56 GMT-0500 (Central Daylight Time),738304.099999994,B,vaee,I,backspace,639,1,2665.199999988079,735638.900000006,8054,WL,C,3.0
6,8.315000057220459,distr,51684.99994277954,Thu May 29 2025 16:42:56 GMT-0500 (Central Daylight Time),738454.3000000119,B,vae,I,backspace,133,1,2815.4000000059605,735638.900000006,8054,WL,C,3.0
6,8.447999954223633,distr,51552.00004577637,Thu May 29 2025 16:42:56 GMT-0500 (Central Daylight Time),738587.400000006,B,va,I,backspace,127,1,2948.5,735638.900000006,8054,WL,C,3.0
6,8.697999954223633,distr,51302.00004577637,Thu May 29 2025 16:42:56 GMT-0500 (Central Daylight Time),738837.400000006,B,val,I,l,241,1,3198.5,735638.900000006,8054,WL,C,3.0
6,8.898000001907349,distr,51101.99999809265,Thu May 29 2025 16:42:56 GMT-0500 (Central Daylight Time),739037.1999999881,B,vall,I,l,184,1,3398.2999999821186,735638.900000006,8054,WL,C,3.0
6,9.13100004196167,distr,50868.99995803833,Thu May 29 2025 16:42:56 GMT-0500 (Central Daylight Time),739270.599999994,B,valle,I,e,224,1,3631.699999988079,735638.900000006,8054,WL,C,3.0
6,9.29800009727478,distr,50701.99990272522,Thu May 29 2025 16:42:56 GMT-0500 (Central Daylight Time),739437.3000000119,B,valley,I,y,159,1,3798.4000000059605,735638.900000006,8054,WL,C,3.0
6,10.114000082015991,distr,49885.99991798401,Thu May 29 2025 16:42:56 GMT-0500 (Central Daylight Time),740253.599999994,B,valleyenter,I,enter,807,1,4614.699999988079,735638.900000006,8054,WL,C,3.0
6,13.563999891281128,distr,46436.00010871887,Thu May 29 2025 16:42:56 GMT-0500 (Central Daylight Time),743703.5,B,b,I,b,3432,1,3449.5999999940395,740253.900000006,8054,WL,C,4.0
6,13.680000066757202,distr,46319.9999332428,Thu May 29 2025 16:42:56 GMT-0500 (Central Daylight Time),743819.0,B,bo,I,o,102,1,3565.0999999940395,740253.900000006,8054,WL,C,4.0
6,13.980000019073486,distr,46019.999980926514,Thu May 29 2025 16:42:56 GMT-0500 (Central Daylight Time),744119.099999994,B,bot,I,t,283,1,3865.199999988079,740253.900000006,8054,WL,C,4.0
6,14.095999956130981,distr,45904.00004386902,Thu May 29 2025 16:42:56 GMT-0500 (Central Daylight Time),744235.6999999881,B,bott,I,t,102,1,3981.7999999821186,740253.900000006,8054,WL,C,4.0
6,14.230000019073486,distr,45769.999980926514,Thu May 29 2025 16:42:56 GMT-0500 (Central Daylight Time),744369.099999994,B,bottl,I,l,114,1,4115.199999988079,740253.900000006,8054,WL,C,4.0
6,14.395999908447266,distr,45604.000091552734,Thu May 29 2025 16:42:56 GMT-0500 (Central Daylight Time),744535.6999999881,B,bottle,I,e,148,1,4281.799999982119,740253.900000006,8054,WL,C,4.0
6,15.013000011444092,distr,44986.99998855591,Thu May 29 2025 16:42:56 GMT-0500 (Central Daylight Time),745152.099999994,B,bottleenter,I,enter,598,1,4898.199999988079,740253.900000006,8054,WL,C,4.0
6,21.57699990272522,distr,38423.00009727478,Thu May 29 2025 16:42:56 GMT-0500 (Central Daylight Time),751716.400000006,B,w,I,w,6557,1,6564.0,745152.400000006,8054,WL,C,5.0
6,21.776999950408936,distr,38223.000049591064,Thu May 29 2025 16:42:56 GMT-0500 (Central Daylight Time),751916.8000000119,B,wi,I,i,185,1,6764.4000000059605,745152.400000006,8054,WL,C,5.0
6,21.91000008583069,distr,38089.99991416931,Thu May 29 2025 16:42:56 GMT-0500 (Central Daylight Time),752050.0,B,win,I,n,120,1,6897.5999999940395,745152.400000006,8054,WL,C,5.0
6,22.043999910354614,distr,37956.000089645386,Thu May 29 2025 16:42:56 GMT-0500 (Central Daylight Time),752183.3000000119,B,wint,I,t,115,1,7030.9000000059605,745152.400000006,8054,WL,C,5.0
6,22.127000093460083,distr,37872.99990653992,Thu May 29 2025 16:42:56 GMT-0500 (Central Daylight Time),752266.3000000119,B,winte,I,e,62,1,7113.9000000059605,745152.400000006,8054,WL,C,5.0
6,22.243000030517578,distr,37756.99996948242,Thu May 29 2025 16:42:56 GMT-0500 (Central Daylight Time),752383.0,B,winter,I,r,107,1,7230.5999999940395,745152.400000006,8054,WL,C,5.0
6,22.493000030517578,distr,37506.99996948242,Thu May 29 2025 16:42:56 GMT-0500 (Central Daylight Time),752633.0,B,winterenter,I,enter,229,1,7480.5999999940395,745152.400000006,8054,WL,C,5.0
6,23.009999990463257,distr,36990.00000953674,Thu May 29 2025 16:42:56 GMT-0500 (Central Daylight Time),753149.400000006,B,c,I,c,509,1,516.0999999940395,752633.3000000119,8054,WL,C,6.0
6,23.243000030517578,distr,36756.99996948242,Thu May 29 2025 16:42:56 GMT-0500 (Central Daylight Time),753382.900000006,B,ch,I,h,216,1,749.5999999940395,752633.3000000119,8054,WL,C,6.0
6,23.493000030517578,distr,36506.99996948242,Thu May 29 2025 16:42:56 GMT-0500 (Central Daylight Time),753632.6999999881,B,chr,I,r,239,1,999.3999999761581,752633.3000000119,8054,WL,C,6.0
6,23.710000038146973,distr,36289.99996185303,Thu May 29 2025 16:42:56 GMT-0500 (Central Daylight Time),753849.1999999881,B,chri,I,i,205,1,1215.8999999761581,752633.3000000119,8054,WL,C,6.0
6,24.292999982833862,distr,35707.00001716614,Thu May 29 2025 16:42:56 GMT-0500 (Central Daylight Time),754432.3000000119,B,chris,I,s,572,1,1799.0,752633.3000000119,8054,WL,C,6.0
6,24.759000062942505,distr,35240.999937057495,Thu May 29 2025 16:42:56 GMT-0500 (Central Daylight Time),754898.8000000119,B,christ,I,t,461,1,2265.5,752633.3000000119,8054,WL,C,6.0
6,24.993000030517578,distr,35006.99996948242,Thu May 29 2025 16:42:56 GMT-0500 (Central Daylight Time),755132.1999999881,B,christm,I,m,218,1,2498.899999976158,752633.3000000119,8054,WL,C,6.0
6,25.443000078201294,distr,34556.999921798706,Thu May 29 2025 16:42:56 GMT-0500 (Central Daylight Time),755582.1999999881,B,christma,I,a,441,1,2948.899999976158,752633.3000000119,8054,WL,C,6.0
6,27.45900011062622,distr,32540.99988937378,Thu May 29 2025 16:42:56 GMT-0500 (Central Daylight Time),757598.3000000119,B,christmat,I,t,2007,1,4965.0,752633.3000000119,8054,WL,C,6.0
6,28.108999967575073,distr,31891.000032424927,Thu May 29 2025 16:42:56 GMT-0500 (Central Daylight Time),758248.0,B,christma,I,backspace,639,1,5614.699999988079,752633.3000000119,8054,WL,C,6.0
6,28.20799994468689,distr,31792.00005531311,Thu May 29 2025 16:42:56 GMT-0500 (Central Daylight Time),758348.0,B,christmas,I,s,85,1,5714.699999988079,752633.3000000119,8054,WL,C,6.0
6,28.45799994468689,distr,31542.00005531311,Thu May 29 2025 16:42:56 GMT-0500 (Central Daylight Time),758597.599999994,B,christmasenter,I,enter,241,1,5964.299999982119,752633.3000000119,8054,WL,C,6.0
6,29.19099998474121,distr,30809.00001525879,Thu May 29 2025 16:42:56 GMT-0500 (Central Daylight Time),759330.6999999881,B,f,I,f,728,1,732.7999999821186,758597.900000006,8054,WL,C,7.0
6,29.325000047683716,distr,30674.999952316284,Thu May 29 2025 16:42:56 GMT-0500 (Central Daylight Time),759464.3000000119,B,fo,I,o,123,1,866.4000000059605,758597.900000006,8054,WL,C,7.0
6,29.47499990463257,distr,30525.00009536743,Thu May 29 2025 16:42:56 GMT-0500 (Central Daylight Time),759614.6999999881,B,foo,I,o,133,1,1016.7999999821186,758597.900000006,8054,WL,C,7.0
6,29.575000047683716,distr,30424.999952316284,Thu May 29 2025 16:42:56 GMT-0500 (Central Daylight Time),759714.400000006,B,food,I,d,87,1,1116.5,758597.900000006,8054,WL,C,7.0
6,29.7739999294281,distr,30226.0000705719,Thu May 29 2025 16:42:56 GMT-0500 (Central Daylight Time),759913.900000006,B,foodenter,I,enter,187,1,1316.0,758597.900000006,8054,WL,C,7.0
6,32.94000005722046,distr,27059.99994277954,Thu May 29 2025 16:42:56 GMT-0500 (Central Daylight Time),763079.8000000119,B,m,I,m,3148,1,3165.600000023842,759914.1999999881,8054,WL,C,8.0
6,33.20700001716614,distr,26792.999982833862,Thu May 29 2025 16:42:56 GMT-0500 (Central Daylight Time),763346.400000006,B,mo,I,o,245,1,3432.2000000178814,759914.1999999881,8054,WL,C,8.0
6,33.33999991416931,distr,26660.00008583069,Thu May 29 2025 16:42:56 GMT-0500 (Central Daylight Time),763479.6999999881,B,mon,I,n,123,1,3565.5,759914.1999999881,8054,WL,C,8.0
6,34.19000005722046,distr,25809.99994277954,Thu May 29 2025 16:42:56 GMT-0500 (Central Daylight Time),764329.099999994,B,mone,I,e,838,1,4414.9000000059605,759914.1999999881,8054,WL,C,8.0
6,34.32299995422363,distr,25677.000045776367,Thu May 29 2025 16:42:56 GMT-0500 (Central Daylight Time),764462.599999994,B,money,I,y,116,1,4548.4000000059605,759914.1999999881,8054,WL,C,8.0
6,34.62299990653992,distr,25377.000093460083,Thu May 29 2025 16:42:56 GMT-0500 (Central Daylight Time),764762.5,B,moneyenter,I,enter,295,1,4848.300000011921,759914.1999999881,8054,WL,C,8.0
6,43.269999980926514,distr,16730.000019073486,Thu May 29 2025 16:42:56 GMT-0500 (Central Daylight Time),773409.900000006,B,enter,I,enter,8628,1,8647.200000017881,764762.6999999881,8054,WL,C,9.0
6,43.53699994087219,distr,16463.000059127808,Thu May 29 2025 16:42:56 GMT-0500 (Central Daylight Time),773676.3000000119,B,enter,I,enter,251,1,266.0,773410.3000000119,8054,WL,C,10.0
6,44.13700008392334,distr,15862.99991607666,Thu May 29 2025 16:42:56 GMT-0500 (Central Daylight Time),774276.400000006,B,enter,I,enter,585,1,599.8000000119209,773676.599999994,8054,WL,C,11.0
6,44.53600001335144,distr,15463.99998664856,Thu May 29 2025 16:42:56 GMT-0500 (Central Daylight Time),774676.0,B,enter,I,enter,385,1,399.30000001192093,774276.6999999881,8054,WL,C,12.0
6,44.88700008392334,distr,15112.99991607666,Thu May 29 2025 16:42:56 GMT-0500 (Central Daylight Time),775026.099999994,B,enter,I,enter,337,1,349.69999998807907,774676.400000006,8054,WL,C,13.0
6,45.43600010871887,distr,14563.999891281128,Thu May 29 2025 16:42:56 GMT-0500 (Central Daylight Time),775575.8000000119,B,enter,I,enter,539,1,549.3000000119209,775026.5,8054,WL,C,14.0
6,45.68600010871887,distr,14313.999891281128,Thu May 29 2025 16:42:56 GMT-0500 (Central Daylight Time),775825.6999999881,B,enter,I,enter,238,1,249.59999999403954,775576.099999994,8054,WL,C,15.0
7,1.315999984741211,immed,58684.00001525879,Thu May 29 2025 16:42:56 GMT-0500 (Central Daylight Time),789954.599999994,A,t,I,t,1304,1,1315.9000000059605,788638.6999999881,8054,WL,C,1.0
7,1.5319998264312744,immed,58468.000173568726,Thu May 29 2025 16:42:56 GMT-0500 (Central Daylight Time),790171.099999994,A,to,I,o,202,1,1532.4000000059605,788638.6999999881,8054,WL,C,1.0
7,1.6659998893737793,immed,58334.00011062622,Thu May 29 2025 16:42:56 GMT-0500 (Central Daylight Time),790304.5,A,tow,I,w,114,1,1665.800000011921,788638.6999999881,8054,WL,C,1.0
7,1.815999984741211,immed,58184.00001525879,Thu May 29 2025 16:42:56 GMT-0500 (Central Daylight Time),790454.3000000119,A,towe,I,e,140,1,1815.6000000238419,788638.6999999881,8054,WL,C,1.0
7,1.8989999294281006,immed,58101.0000705719,Thu May 29 2025 16:42:56 GMT-0500 (Central Daylight Time),790537.6999999881,A,tower,I,r,63,1,1899.0,788638.6999999881,8054,WL,C,1.0
7,2.4149999618530273,immed,57585.00003814697,Thu May 29 2025 16:42:56 GMT-0500 (Central Daylight Time),791054.1999999881,A,towerenter,I,enter,508,1,2415.5,788638.6999999881,8054,WL,C,1.0
7,3.0820000171661377,immed,56917.99998283386,Thu May 29 2025 16:42:56 GMT-0500 (Central Daylight Time),791720.6999999881,A,w,I,w,647,1,666.1999999880791,791054.5,8054,WL,C,2.0
7,3.2319998741149902,immed,56768.00012588501,Thu May 29 2025 16:42:56 GMT-0500 (Central Daylight Time),791870.8000000119,A,wh,I,h,133,1,816.3000000119209,791054.5,8054,WL,C,2.0
7,3.5319998264312744,immed,56468.000173568726,Thu May 29 2025 16:42:56 GMT-0500 (Central Daylight Time),792170.599999994,A,whe,I,e,295,1,1116.0999999940395,791054.5,8054,WL,C,2.0
7,3.930999994277954,immed,56069.000005722046,Thu May 29 2025 16:42:56 GMT-0500 (Central Daylight Time),792570.1999999881,A,whea,I,a,395,1,1515.699999988079,791054.5,8054,WL,C,2.0
7,4.047999858856201,immed,55952.0001411438,Thu May 29 2025 16:42:56 GMT-0500 (Central Daylight Time),792687.099999994,A,wheat,I,t,99,1,1632.5999999940395,791054.5,8054,WL,C,2.0
7,4.197999954223633,immed,55802.00004577637,Thu May 29 2025 16:42:56 GMT-0500 (Central Daylight Time),792837.0,A,wheatenter,I,enter,134,1,1782.5,791054.5,8054,WL,C,2.0
7,5.914000034332275,immed,54085.999965667725,Thu May 29 2025 16:42:56 GMT-0500 (Central Daylight Time),794553.1999999881,A,q,I,q,1697,1,1715.7999999821186,792837.400000006,8054,WL,C,3.0
7,6.097999811172485,immed,53902.000188827515,Thu May 29 2025 16:42:56 GMT-0500 (Central Daylight Time),794736.400000006,A,qu,I,u,172,1,1899.0,792837.400000006,8054,WL,C,3.0
7,6.746999979019165,immed,53253.000020980835,Thu May 29 2025 16:42:56 GMT-0500 (Central Daylight Time),795386.3000000119,A,que,I,e,637,1,2548.9000000059605,792837.400000006,8054,WL,C,3.0
7,6.896999835968018,immed,53103.00016403198,Thu May 29 2025 16:42:56 GMT-0500 (Central Daylight Time),795536.3000000119,A,quee,I,e,139,1,2698.9000000059605,792837.400000006,8054,WL,C,3.0
7,8.146999835968018,immed,51853.00016403198,Thu May 29 2025 16:42:56 GMT-0500 (Central Daylight Time),796786.0,A,queen,I,n,1237,1,3948.5999999940395,792837.400000006,8054,WL,C,3.0
7,8.396999835968018,immed,51603.00016403198,Thu May 29 2025 16:42:56 GMT-0500 (Central Daylight Time),797035.6999999881,A,queenenter,I,enter,235,1,4198.299999982119,792837.400000006,8054,WL,C,3.0
7,12.928999900817871,immed,47071.00009918213,Thu May 29 2025 16:42:56 GMT-0500 (Central Daylight Time),801567.6999999881,A,s,I,s,4514,1,4531.699999988079,797036.0,8054,WL,C,4.0
7,13.378999948501587,immed,46621.00005149841,Thu May 29 2025 16:42:56 GMT-0500 (Central Daylight Time),802017.5,A,su,I,u,430,1,4981.5,797036.0,8054,WL,C,4.0
7,13.544999837875366,immed,46455.000162124634,Thu May 29 2025 16:42:56 GMT-0500 (Central Daylight Time),802184.1999999881,A,sug,I,g,156,1,5148.199999988079,797036.0,8054,WL,C,4.0
7,13.694999933242798,immed,46305.0000667572,Thu May 29 2025 16:42:56 GMT-0500 (Central Daylight Time),802334.0,A,suga,I,a,134,1,5298.0,797036.0,8054,WL,C,4.0
7,13.812000036239624,immed,46187.999963760376,Thu May 29 2025 16:42:56 GMT-0500 (Central Daylight Time),802450.599999994,A,sugar,I,r,112,1,5414.5999999940395,797036.0,8054,WL,C,4.0
7,14.062000036239624,immed,45937.999963760376,Thu May 29 2025 16:42:56 GMT-0500 (Central Daylight Time),802700.5,A,sugarenter,I,enter,235,1,5664.5,797036.0,8054,WL,C,4.0
7,14.394999980926514,immed,45605.000019073486,Thu May 29 2025 16:42:56 GMT-0500 (Central Daylight Time),803034.0,A,h,I,h,320,1,333.09999999403954,802700.900000006,8054,WL,C,5.0
7,14.527999877929688,immed,45472.00012207031,Thu May 29 2025 16:42:56 GMT-0500 (Central Daylight Time),803167.0,A,ho,I,o,123,1,466.09999999403954,802700.900000006,8054,WL,C,5.0
7,14.961999893188477,immed,45038.00010681152,Thu May 29 2025 16:42:56 GMT-0500 (Central Daylight Time),803600.3000000119,A,hom,I,m,414,1,899.4000000059605,802700.900000006,8054,WL,C,5.0
7,15.494999885559082,immed,44505.00011444092,Thu May 29 2025 16:42:56 GMT-0500 (Central Daylight Time),804133.400000006,A,home,I,e,517,1,1432.5,802700.900000006,8054,WL,C,5.0
7,15.661999940872192,immed,44338.00005912781,Thu May 29 2025 16:42:56 GMT-0500 (Central Daylight Time),804300.3000000119,A,homeenter,I,enter,152,1,1599.4000000059605,802700.900000006,8054,WL,C,5.0
7,18.509999990463257,immed,41490.00000953674,Thu May 29 2025 16:42:56 GMT-0500 (Central Daylight Time),807149.099999994,A,b,I,b,2841,1,2848.4000000059605,804300.6999999881,8054,WL,C,6.0
7,18.694999933242798,immed,41305.0000667572,Thu May 29 2025 16:42:56 GMT-0500 (Central Daylight Time),807333.6999999881,A,bo,I,o,169,1,3033.0,804300.6999999881,8054,WL,C,6.0
7,19.009999990463257,immed,40990.00000953674,Thu May 29 2025 16:42:56 GMT-0500 (Central Daylight Time),807649.0,A,boy,I,y,304,1,3348.300000011921,804300.6999999881,8054,WL,C,6.0
7,19.643999814987183,immed,40356.00018501282,Thu May 29 2025 16:42:56 GMT-0500 (Central Daylight Time),808282.3000000119,A,boyenter,I,enter,621,1,3981.600000023842,804300.6999999881,8054,WL,C,6.0
7,20.243000030517578,immed,39756.99996948242,Thu May 29 2025 16:42:56 GMT-0500 (Central Daylight Time),808881.900000006,A,d,I,d,579,1,599.3000000119209,808282.599999994,8054,WL,C,7.0
7,20.32699990272522,immed,39673.00009727478,Thu May 29 2025 16:42:56 GMT-0500 (Central Daylight Time),808965.400000006,A,do,I,o,76,1,682.8000000119209,808282.599999994,8054,WL,C,7.0
7,20.493000030517578,immed,39506.99996948242,Thu May 29 2025 16:42:56 GMT-0500 (Central Daylight Time),809131.6999999881,A,doc,I,c,160,1,849.0999999940395,808282.599999994,8054,WL,C,7.0
7,20.792999982833862,immed,39207.00001716614,Thu May 29 2025 16:42:56 GMT-0500 (Central Daylight Time),809431.8000000119,A,doct,I,t,290,1,1149.2000000178814,808282.599999994,8054,WL,C,7.0
7,20.993000030517578,immed,39006.99996948242,Thu May 29 2025 16:42:56 GMT-0500 (Central Daylight Time),809631.8000000119,A,docto,I,o,182,1,1349.2000000178814,808282.599999994,8054,WL,C,7.0
7,21.092999935150146,immed,38907.00006484985,Thu May 29 2025 16:42:56 GMT-0500 (Central Daylight Time),809731.599999994,A,doctor,I,r,93,1,1449.0,808282.599999994,8054,WL,C,7.0
7,21.359999895095825,immed,38640.000104904175,Thu May 29 2025 16:42:56 GMT-0500 (Central Daylight Time),809998.400000006,A,doctorenter,I,enter,250,1,1715.800000011921,808282.599999994,8054,WL,C,7.0
7,22.925999879837036,immed,37074.000120162964,Thu May 29 2025 16:42:56 GMT-0500 (Central Daylight Time),811564.5,A,c,I,c,1551,1,1565.800000011921,809998.6999999881,8054,WL,C,8.0
7,23.04199981689453,immed,36958.00018310547,Thu May 29 2025 16:42:56 GMT-0500 (Central Daylight Time),811681.099999994,A,ca,I,a,105,1,1682.4000000059605,809998.6999999881,8054,WL,C,8.0
7,23.191999912261963,immed,36808.00008773804,Thu May 29 2025 16:42:56 GMT-0500 (Central Daylight Time),811831.0,A,cap,I,p,132,1,1832.300000011921,809998.6999999881,8054,WL,C,8.0
7,23.842000007629395,immed,36157.999992370605,Thu May 29 2025 16:42:56 GMT-0500 (Central Daylight Time),812480.8000000119,A,ca,I,backspace,638,1,2482.100000023842,809998.6999999881,8054,WL,C,8.0
7,24.05900001525879,immed,35940.99998474121,Thu May 29 2025 16:42:56 GMT-0500 (Central Daylight Time),812697.400000006,A,cam,I,m,197,1,2698.7000000178814,809998.6999999881,8054,WL,C,8.0
7,24.191999912261963,immed,35808.00008773804,Thu May 29 2025 16:42:56 GMT-0500 (Central Daylight Time),812831.0,A,camp,I,p,116,1,2832.300000011921,809998.6999999881,8054,WL,C,8.0
7,24.524999856948853,immed,35475.00014305115,Thu May 29 2025 16:42:56 GMT-0500 (Central Daylight Time),813163.900000006,A,campenter,I,enter,327,1,3165.2000000178814,809998.6999999881,8054,WL,C,8.0
7,25.774999856948853,immed,34225.00014305115,Thu May 29 2025 16:42:56 GMT-0500 (Central Daylight Time),814413.599999994,A,f,I,f,1234,1,1249.4000000059605,813164.1999999881,8054,WL,C,9.0
7,25.907999992370605,immed,34092.000007629395,Thu May 29 2025 16:42:56 GMT-0500 (Central Daylight Time),814546.599999994,A,fl,I,l,128,1,1382.4000000059605,813164.1999999881,8054,WL,C,9.0
7,26.39199995994568,immed,33608.00004005432,Thu May 29 2025 16:42:56 GMT-0500 (Central Daylight Time),815030.3000000119,A,fla,I,a,475,1,1866.1000000238419,813164.1999999881,8054,WL,C,9.0
7,26.507999897003174,immed,33492.000102996826,Thu May 29 2025 16:42:56 GMT-0500 (Central Daylight Time),815146.5,A,flag,I,g,111,1,1982.300000011921,813164.1999999881,8054,WL,C,9.0
7,26.7739999294281,immed,33226.0000705719,Thu May 29 2025 16:42:56 GMT-0500 (Central Daylight Time),815413.1999999881,A,flagenter,I,enter,259,1,2249.0,813164.1999999881,8054,WL,C,9.0
7,27.29099988937378,immed,32709.00011062622,Thu May 29 2025 16:42:56 GMT-0500 (Central Daylight Time),815929.900000006,A,l,I,l,512,1,516.4000000059605,815413.5,8054,WL,C,10.0
7,27.44099998474121,immed,32559.00001525879,Thu May 29 2025 16:42:56 GMT-0500 (Central Daylight Time),816079.8000000119,A,le,I,e,140,1,666.3000000119209,815413.5,8054,WL,C,10.0
7,27.674000024795532,immed,32325.999975204468,Thu May 29 2025 16:42:56 GMT-0500 (Central Daylight Time),816312.900000006,A,let,I,t,213,1,899.4000000059605,815413.5,8054,WL,C,10.0
7,27.807999849319458,immed,32192.000150680542,Thu May 29 2025 16:42:56 GMT-0500 (Central Daylight Time),816446.400000006,A,lett,I,t,117,1,1032.9000000059605,815413.5,8054,WL,C,10.0
7,27.924000024795532,immed,32075.999975204468,Thu May 29 2025 16:42:56 GMT-0500 (Central Daylight Time),816562.8000000119,A,lette,I,e,103,1,1149.300000011921,815413.5,8054,WL,C,10.0
7,28.04099988937378,immed,31959.00011062622,Thu May 29 2025 16:42:56 GMT-0500 (Central Daylight Time),816679.599999994,A,letter,I,r,106,1,1266.0999999940395,815413.5,8054,WL,C,10.0
7,28.174000024795532,immed,31825.999975204468,Thu May 29 2025 16:42:56 GMT-0500 (Central Daylight Time),816812.900000006,A,letterenter,I,enter,126,1,1399.4000000059605,815413.5,8054,WL,C,10.0
7,31.789999961853027,immed,28210.000038146973,Thu May 29 2025 16:42:56 GMT-0500 (Central Daylight Time),820428.400000006,A,c,I,c,3609,1,3615.2000000178814,816813.1999999881,8054,WL,C,11.0
7,31.972999811172485,immed,28027.000188827515,Thu May 29 2025 16:42:56 GMT-0500 (Central Daylight Time),820611.6999999881,A,co,I,o,177,1,3798.5,816813.1999999881,8054,WL,C,11.0
7,32.139999866485596,immed,27860.000133514404,Thu May 29 2025 16:42:56 GMT-0500 (Central Daylight Time),820778.3000000119,A,cor,I,r,162,1,3965.100000023842,816813.1999999881,8054,WL,C,11.0
7,32.4229998588562,immed,27577.0001411438,Thu May 29 2025 16:42:56 GMT-0500 (Central Daylight Time),821061.400000006,A,corn,I,n,275,1,4248.200000017881,816813.1999999881,8054,WL,C,11.0
7,32.83899998664856,immed,27161.00001335144,Thu May 29 2025 16:42:56 GMT-0500 (Central Daylight Time),821478.3000000119,A,cornenter,I,enter,408,1,4665.100000023842,816813.1999999881,8054,WL,C,11.0
7,33.77199983596802,immed,26228.000164031982,Thu May 29 2025 16:42:56 GMT-0500 (Central Daylight Time),822411.0,A,n,I,n,919,1,932.3000000119209,821478.6999999881,8054,WL,C,12.0
7,33.95599985122681,immed,26044.000148773193,Thu May 29 2025 16:42:56 GMT-0500 (Central Daylight Time),822594.3000000119,A,na,I,a,162,1,1115.6000000238419,821478.6999999881,8054,WL,C,12.0
7,34.121999979019165,immed,25878.000020980835,Thu May 29 2025 16:42:56 GMT-0500 (Central Daylight Time),822760.900000006,A,nai,I,i,147,1,1282.2000000178814,821478.6999999881,8054,WL,C,12.0
7,34.388999938964844,immed,25611.000061035156,Thu May 29 2025 16:42:56 GMT-0500 (Central Daylight Time),823027.8000000119,A,nail,I,l,253,1,1549.1000000238419,821478.6999999881,8054,WL,C,12.0
7,34.63800001144409,immed,25361.99998855591,Thu May 29 2025 16:42:56 GMT-0500 (Central Daylight Time),823277.1999999881,A,nailenter,I,enter,242,1,1798.5,821478.6999999881,8054,WL,C,12.0
7,34.871999979019165,immed,25128.000020980835,Thu May 29 2025 16:42:56 GMT-0500 (Central Daylight Time),823510.8000000119,A,c,I,c,224,1,233.30000001192093,823277.5,8054,WL,C,13.0
7,35.02199983596802,immed,24978.000164031982,Thu May 29 2025 16:42:56 GMT-0500 (Central Daylight Time),823660.6999999881,A,ca,I,a,143,1,383.19999998807907,823277.5,8054,WL,C,13.0
7,35.355000019073486,immed,24644.999980926514,Thu May 29 2025 16:42:56 GMT-0500 (Central Daylight Time),823994.099999994,A,cat,I,t,313,1,716.5999999940395,823277.5,8054,WL,C,13.0
7,35.537999868392944,immed,24462.000131607056,Thu May 29 2025 16:42:56 GMT-0500 (Central Daylight Time),824177.1999999881,A,catt,I,t,163,1,899.6999999880791,823277.5,8054,WL,C,13.0
7,35.704999923706055,immed,24295.000076293945,Thu May 29 2025 16:42:56 GMT-0500 (Central Daylight Time),824343.599999994,A,cattl,I,l,156,1,1066.0999999940395,823277.5,8054,WL,C,13.0
7,35.90499997138977,immed,24095.00002861023,Thu May 29 2025 16:42:56 GMT-0500 (Central Daylight Time),824543.400000006,A,cattle,I,e,182,1,1265.9000000059605,823277.5,8054,WL,C,13.0
7,36.6710000038147,immed,23328.999996185303,Thu May 29 2025 16:42:56 GMT-0500 (Central Daylight Time),825310.099999994,A,cattleenter,I,enter,758,1,2032.5999999940395,823277.5,8054,WL,C,13.0
7,41.65299987792969,immed,18347.000122070312,Thu May 29 2025 16:42:56 GMT-0500 (Central Daylight Time),830292.0,A,s,I,s,4967,1,4981.5,825310.5,8054,WL,C,14.0
7,41.78699994087219,immed,18213.000059127808,Thu May 29 2025 16:42:56 GMT-0500 (Central Daylight Time),830425.400000006,A,sh,I,h,113,1,5114.9000000059605,825310.5,8054,WL,C,14.0
7,41.93599987030029,immed,18064.000129699707,Thu May 29 2025 16:42:56 GMT-0500 (Central Daylight Time),830575.099999994,A,sho,I,o,140,1,5264.5999999940395,825310.5,8054,WL,C,14.0
7,42.085999965667725,immed,17914.000034332275,Thu May 29 2025 16:42:56 GMT-0500 (Central Daylight Time),830725.0,A,shor,I,r,134,1,5414.5,825310.5,8054,WL,C,14.0
7,42.15299987792969,immed,17847.000122070312,Thu May 29 2025 16:42:56 GMT-0500 (Central Daylight Time),830792.0,A,shore,I,e,49,1,5481.5,825310.5,8054,WL,C,14.0
7,42.3529999256134,immed,17647.000074386597,Thu May 29 2025 16:42:56 GMT-0500 (Central Daylight Time),830991.6999999881,A,shoreenter,I,enter,189,1,5681.199999988079,825310.5,8054,WL,C,14.0
7,42.61999988555908,immed,17380.000114440918,Thu May 29 2025 16:42:56 GMT-0500 (Central Daylight Time),831258.3000000119,A,b,I,b,262,1,266.30000001192093,830992.0,8054,WL,C,15.0
