block_c,block_dur,condition,countdown,datetime,endtime,list,multichar_response,project,response,response_time,session_number,start_end,starttime,subject_id,task,task_vers,trial
,,,,Tue Mar 24 2026 10:21:25 GMT-0500 (Central Daylight Time),,,,O,space,417,1,,,7773,WL,C,
prac,,0,,Tue Mar 24 2026 10:21:25 GMT-0500 (Central Daylight Time),,NA,b,O,b,2809,1,,,7773,WL,C,1.0
prac,,0,,Tue Mar 24 2026 10:21:25 GMT-0500 (Central Daylight Time),,NA,bo,O,o,283,1,,,7773,WL,C,1.0
prac,,0,,Tue Mar 24 2026 10:21:25 GMT-0500 (Central Daylight Time),,NA,boo,O,o,121,1,,,7773,WL,C,1.0
prac,,0,,Tue Mar 24 2026 10:21:25 GMT-0500 (Central Daylight Time),,NA,boos,O,s,168,1,,,7773,WL,C,1.0
prac,,0,,Tue Mar 24 2026 10:21:25 GMT-0500 (Central Daylight Time),,NA,boost,O,t,201,1,,,7773,WL,C,1.0
prac,,0,,Tue Mar 24 2026 10:21:25 GMT-0500 (Central Daylight Time),,NA,boostenter,O,enter,1353,1,,,7773,WL,C,1.0
1,1.5350000858306885,learn,58464.99991416931,Tue Mar 24 2026 10:21:25 GMT-0500 (Central Daylight Time),122067.20000004768,A,t,O,t,1525,1,1534.7999999523163,120532.40000009537,7773,WL,C,1.0
1,1.6319999694824219,learn,58368.00003051758,Tue Mar 24 2026 10:21:25 GMT-0500 (Central Daylight Time),122164.0,A,to,O,o,86,1,1631.5999999046326,120532.40000009537,7773,WL,C,1.0
1,1.815000057220459,learn,58184.99994277954,Tue Mar 24 2026 10:21:25 GMT-0500 (Central Daylight Time),122347.5,A,tow,O,w,163,1,1815.0999999046326,120532.40000009537,7773,WL,C,1.0
1,1.9660000801086426,learn,58033.99991989136,Tue Mar 24 2026 10:21:25 GMT-0500 (Central Daylight Time),122498.30000019073,A,towe,O,e,144,1,1965.9000000953674,120532.40000009537,7773,WL,C,1.0
1,2.0490000247955322,learn,57950.99997520447,Tue Mar 24 2026 10:21:25 GMT-0500 (Central Daylight Time),122580.70000004768,A,tower,O,r,72,1,2048.2999999523163,120532.40000009537,7773,WL,C,1.0
1,2.7660000324249268,learn,57233.99996757507,Tue Mar 24 2026 10:21:25 GMT-0500 (Central Daylight Time),123297.80000019073,A,towerenter,O,enter,707,1,2765.4000000953674,120532.40000009537,7773,WL,C,1.0
1,3.3990001678466797,learn,56600.99983215332,Tue Mar 24 2026 10:21:25 GMT-0500 (Central Daylight Time),123930.60000014305,A,w,O,w,626,1,632.4000000953674,123298.20000004768,7773,WL,C,2.0
1,3.697999954223633,learn,56302.00004577637,Tue Mar 24 2026 10:21:25 GMT-0500 (Central Daylight Time),124230.40000009537,A,wh,O,h,290,1,932.2000000476837,123298.20000004768,7773,WL,C,2.0
1,4.015000104904175,learn,55984.999895095825,Tue Mar 24 2026 10:21:25 GMT-0500 (Central Daylight Time),124547.30000019073,A,whe,O,e,300,1,1249.1000001430511,123298.20000004768,7773,WL,C,2.0
1,4.14900016784668,learn,55850.99983215332,Tue Mar 24 2026 10:21:25 GMT-0500 (Central Daylight Time),124681.30000019073,A,whea,O,a,128,1,1383.1000001430511,123298.20000004768,7773,WL,C,2.0
1,4.366000175476074,learn,55633.999824523926,Tue Mar 24 2026 10:21:25 GMT-0500 (Central Daylight Time),124898.5,A,wheat,O,t,198,1,1600.2999999523163,123298.20000004768,7773,WL,C,2.0
1,4.881999969482422,learn,55118.00003051758,Tue Mar 24 2026 10:21:25 GMT-0500 (Central Daylight Time),125414.40000009537,A,wheatenter,O,enter,505,1,2116.2000000476837,123298.20000004768,7773,WL,C,2.0
1,5.5320000648498535,learn,54467.99993515015,Tue Mar 24 2026 10:21:25 GMT-0500 (Central Daylight Time),126063.80000019073,A,q,O,q,636,1,649.0,125414.80000019073,7773,WL,C,3.0
1,5.716000080108643,learn,54283.99991989136,Tue Mar 24 2026 10:21:25 GMT-0500 (Central Daylight Time),126247.5,A,qu,O,u,171,1,832.6999998092651,125414.80000019073,7773,WL,C,3.0
1,5.932000160217285,learn,54067.999839782715,Tue Mar 24 2026 10:21:25 GMT-0500 (Central Daylight Time),126464.0,A,que,O,e,196,1,1049.1999998092651,125414.80000019073,7773,WL,C,3.0
1,6.0980000495910645,learn,53901.999950408936,Tue Mar 24 2026 10:21:25 GMT-0500 (Central Daylight Time),126630.5,A,quee,O,e,144,1,1215.6999998092651,125414.80000019073,7773,WL,C,3.0
1,6.3480000495910645,learn,53651.999950408936,Tue Mar 24 2026 10:21:25 GMT-0500 (Central Daylight Time),126880.20000004768,A,queen,O,n,233,1,1465.3999998569489,125414.80000019073,7773,WL,C,3.0
1,6.730999946594238,learn,53269.00005340576,Tue Mar 24 2026 10:21:25 GMT-0500 (Central Daylight Time),127263.0,A,queenenter,O,enter,360,1,1848.1999998092651,125414.80000019073,7773,WL,C,3.0
1,7.647000074386597,learn,52352.9999256134,Tue Mar 24 2026 10:21:25 GMT-0500 (Central Daylight Time),128179.5,A,h,O,h,906,1,916.2999999523163,127263.20000004768,7773,WL,C,4.0
1,7.814000129699707,learn,52185.99987030029,Tue Mar 24 2026 10:21:25 GMT-0500 (Central Daylight Time),128345.90000009537,A,ho,O,o,159,1,1082.7000000476837,127263.20000004768,7773,WL,C,4.0
1,7.980999946594238,learn,52019.00005340576,Tue Mar 24 2026 10:21:25 GMT-0500 (Central Daylight Time),128513.20000004768,A,hom,O,m,159,1,1250.0,127263.20000004768,7773,WL,C,4.0
1,8.147000074386597,learn,51852.9999256134,Tue Mar 24 2026 10:21:25 GMT-0500 (Central Daylight Time),128678.60000014305,A,home,O,e,141,1,1415.4000000953674,127263.20000004768,7773,WL,C,4.0
1,8.515000104904175,learn,51484.999895095825,Tue Mar 24 2026 10:21:25 GMT-0500 (Central Daylight Time),129047.0,A,homeenter,O,enter,356,1,1783.7999999523163,127263.20000004768,7773,WL,C,4.0
1,8.930000066757202,learn,51069.9999332428,Tue Mar 24 2026 10:21:25 GMT-0500 (Central Daylight Time),129461.70000004768,A,b,O,b,402,1,414.2999999523163,129047.40000009537,7773,WL,C,5.0
1,9.064000129699707,learn,50935.99987030029,Tue Mar 24 2026 10:21:25 GMT-0500 (Central Daylight Time),129596.20000004768,A,bo,O,o,117,1,548.7999999523163,129047.40000009537,7773,WL,C,5.0
1,9.348000049591064,learn,50651.999950408936,Tue Mar 24 2026 10:21:25 GMT-0500 (Central Daylight Time),129880.0,A,boy,O,y,262,1,832.5999999046326,129047.40000009537,7773,WL,C,5.0
1,10.597000122070312,learn,49402.99987792969,Tue Mar 24 2026 10:21:25 GMT-0500 (Central Daylight Time),131129.10000014305,A,boyenter,O,enter,1236,1,2081.7000000476837,129047.40000009537,7773,WL,C,5.0
1,13.397000074386597,learn,46602.9999256134,Tue Mar 24 2026 10:21:25 GMT-0500 (Central Daylight Time),133929.40000009537,A,c,O,c,2795,1,2800.0,131129.40000009537,7773,WL,C,6.0
1,13.580000162124634,learn,46419.999837875366,Tue Mar 24 2026 10:21:25 GMT-0500 (Central Daylight Time),134112.20000004768,A,ca,O,a,160,1,2982.7999999523163,131129.40000009537,7773,WL,C,6.0
1,13.763000011444092,learn,46236.99998855591,Tue Mar 24 2026 10:21:25 GMT-0500 (Central Daylight Time),134294.60000014305,A,cat,O,t,169,1,3165.2000000476837,131129.40000009537,7773,WL,C,6.0
1,13.92799997329712,learn,46072.00002670288,Tue Mar 24 2026 10:21:25 GMT-0500 (Central Daylight Time),134460.20000004768,A,catt,O,t,146,1,3330.7999999523163,131129.40000009537,7773,WL,C,6.0
1,14.296000003814697,learn,45703.9999961853,Tue Mar 24 2026 10:21:25 GMT-0500 (Central Daylight Time),134827.60000014305,A,cattl,O,l,344,1,3698.2000000476837,131129.40000009537,7773,WL,C,6.0
1,14.460999965667725,learn,45539.000034332275,Tue Mar 24 2026 10:21:25 GMT-0500 (Central Daylight Time),134993.40000009537,A,cattle,O,e,151,1,3864.0,131129.40000009537,7773,WL,C,6.0
1,14.728000164031982,learn,45271.99983596802,Tue Mar 24 2026 10:21:25 GMT-0500 (Central Daylight Time),135260.0,A,cattleenter,O,enter,255,1,4130.599999904633,131129.40000009537,7773,WL,C,6.0
1,15.229000091552734,learn,44770.999908447266,Tue Mar 24 2026 10:21:25 GMT-0500 (Central Daylight Time),135760.90000009537,A,f,O,f,478,1,500.59999990463257,135260.30000019073,7773,WL,C,7.0
1,15.361999988555908,learn,44638.00001144409,Tue Mar 24 2026 10:21:25 GMT-0500 (Central Daylight Time),135894.10000014305,A,fl,O,l,120,1,633.7999999523163,135260.30000019073,7773,WL,C,7.0
1,15.57800006866455,learn,44421.99993133545,Tue Mar 24 2026 10:21:25 GMT-0500 (Central Daylight Time),136110.10000014305,A,fla,O,a,203,1,849.7999999523163,135260.30000019073,7773,WL,C,7.0
1,15.76200008392334,learn,44237.99991607666,Tue Mar 24 2026 10:21:25 GMT-0500 (Central Daylight Time),136293.80000019073,A,flad,O,d,173,1,1033.5,135260.30000019073,7773,WL,C,7.0
1,16.445000171661377,learn,43554.99982833862,Tue Mar 24 2026 10:21:25 GMT-0500 (Central Daylight Time),136977.0,A,fla,O,backspace,670,1,1716.6999998092651,135260.30000019073,7773,WL,C,7.0
1,16.80999994277954,learn,43190.00005722046,Tue Mar 24 2026 10:21:25 GMT-0500 (Central Daylight Time),137342.5,A,flag,O,g,350,1,2082.199999809265,135260.30000019073,7773,WL,C,7.0
1,17.045000076293945,learn,42954.999923706055,Tue Mar 24 2026 10:21:25 GMT-0500 (Central Daylight Time),137577.10000014305,A,flagenter,O,enter,215,1,2316.7999999523163,135260.30000019073,7773,WL,C,7.0
1,43.134000062942505,learn,16865.999937057495,Tue Mar 24 2026 10:21:25 GMT-0500 (Central Daylight Time),163666.30000019073,A,enter,O,enter,26071,1,26088.900000095367,137577.40000009537,7773,WL,C,8.0
1,47.68499994277954,learn,12315.000057220459,Tue Mar 24 2026 10:21:25 GMT-0500 (Central Daylight Time),168217.5,A,enter,O,enter,4546,1,4551.099999904633,163666.40000009537,7773,WL,C,9.0
1,48.718000173568726,learn,11281.999826431274,Tue Mar 24 2026 10:21:25 GMT-0500 (Central Daylight Time),169250.5,A,enter,O,enter,1026,1,1032.6999998092651,168217.80000019073,7773,WL,C,10.0
1,49.43400001525879,learn,10565.999984741211,Tue Mar 24 2026 10:21:25 GMT-0500 (Central Daylight Time),169966.40000009537,A,enter,O,enter,695,1,715.5999999046326,169250.80000019073,7773,WL,C,11.0
1,50.134000062942505,learn,9865.999937057495,Tue Mar 24 2026 10:21:25 GMT-0500 (Central Daylight Time),170666.90000009537,A,enter,O,enter,684,1,700.0999999046326,169966.80000019073,7773,WL,C,12.0
1,50.651000022888184,learn,9348.999977111816,Tue Mar 24 2026 10:21:25 GMT-0500 (Central Daylight Time),171183.40000009537,A,enter,O,enter,504,1,516.2000000476837,170667.20000004768,7773,WL,C,13.0
1,51.15000009536743,learn,8849.999904632568,Tue Mar 24 2026 10:21:25 GMT-0500 (Central Daylight Time),171682.70000004768,A,enter,O,enter,483,1,498.89999985694885,171183.80000019073,7773,WL,C,14.0
1,51.66600012779236,learn,8333.999872207642,Tue Mar 24 2026 10:21:25 GMT-0500 (Central Daylight Time),172198.10000014305,A,enter,O,enter,503,1,515.1000001430511,171683.0,7773,WL,C,15.0
2,1.2179999351501465,learn,58782.00006484985,Tue Mar 24 2026 10:21:25 GMT-0500 (Central Daylight Time),245126.90000009537,A,t,O,t,1207,1,1217.5999999046326,243909.30000019073,7773,WL,C,1.0
2,1.3989999294281006,learn,58601.0000705719,Tue Mar 24 2026 10:21:25 GMT-0500 (Central Daylight Time),245308.20000004768,A,to,O,o,163,1,1398.8999998569489,243909.30000019073,7773,WL,C,1.0
2,1.5999999046325684,learn,58400.00009536743,Tue Mar 24 2026 10:21:25 GMT-0500 (Central Daylight Time),245508.70000004768,A,tow,O,w,191,1,1599.3999998569489,243909.30000019073,7773,WL,C,1.0
2,1.75,learn,58250.0,Tue Mar 24 2026 10:21:25 GMT-0500 (Central Daylight Time),245659.10000014305,A,towe,O,e,128,1,1749.7999999523163,243909.30000019073,7773,WL,C,1.0
2,1.867999792098999,learn,58132.000207901,Tue Mar 24 2026 10:21:25 GMT-0500 (Central Daylight Time),245777.20000004768,A,tower,O,r,95,1,1867.8999998569489,243909.30000019073,7773,WL,C,1.0
2,2.365999937057495,learn,57634.000062942505,Tue Mar 24 2026 10:21:25 GMT-0500 (Central Daylight Time),246274.80000019073,A,towerenter,O,enter,479,1,2365.5,243909.30000019073,7773,WL,C,1.0
2,2.8999998569488525,learn,57100.00014305115,Tue Mar 24 2026 10:21:25 GMT-0500 (Central Daylight Time),246808.30000019073,A,w,O,w,528,1,533.3000001907349,246275.0,7773,WL,C,2.0
2,3.1499998569488525,learn,56850.00014305115,Tue Mar 24 2026 10:21:25 GMT-0500 (Central Daylight Time),247059.10000014305,A,wh,O,h,226,1,784.1000001430511,246275.0,7773,WL,C,2.0
2,3.6989998817443848,learn,56301.000118255615,Tue Mar 24 2026 10:21:25 GMT-0500 (Central Daylight Time),247608.0,A,wha,O,a,534,1,1333.0,246275.0,7773,WL,C,2.0
2,4.098999977111816,learn,55901.00002288818,Tue Mar 24 2026 10:21:25 GMT-0500 (Central Daylight Time),248008.20000004768,A,wh,O,backspace,389,1,1733.2000000476837,246275.0,7773,WL,C,2.0
2,4.283999919891357,learn,55716.00008010864,Tue Mar 24 2026 10:21:25 GMT-0500 (Central Daylight Time),248192.70000004768,A,whe,O,e,160,1,1917.7000000476837,246275.0,7773,WL,C,2.0
2,4.482999801635742,learn,55517.00019836426,Tue Mar 24 2026 10:21:25 GMT-0500 (Central Daylight Time),248391.30000019073,A,whea,O,a,176,1,2116.300000190735,246275.0,7773,WL,C,2.0
2,4.6499998569488525,learn,55350.00014305115,Tue Mar 24 2026 10:21:25 GMT-0500 (Central Daylight Time),248558.5,A,wheat,O,t,145,1,2283.5,246275.0,7773,WL,C,2.0
2,5.247999906539917,learn,54752.00009346008,Tue Mar 24 2026 10:21:25 GMT-0500 (Central Daylight Time),249156.60000014305,A,wheatenter,O,enter,586,1,2881.600000143051,246275.0,7773,WL,C,2.0
2,6.031999826431274,learn,53968.000173568726,Tue Mar 24 2026 10:21:25 GMT-0500 (Central Daylight Time),249940.70000004768,A,q,O,q,766,1,783.8999998569489,249156.80000019073,7773,WL,C,3.0
2,6.197999954223633,learn,53802.00004577637,Tue Mar 24 2026 10:21:25 GMT-0500 (Central Daylight Time),250106.60000014305,A,qu,O,u,149,1,949.7999999523163,249156.80000019073,7773,WL,C,3.0
2,6.413999795913696,learn,53586.000204086304,Tue Mar 24 2026 10:21:25 GMT-0500 (Central Daylight Time),250322.5,A,que,O,e,205,1,1165.6999998092651,249156.80000019073,7773,WL,C,3.0
2,6.615999937057495,learn,53384.000062942505,Tue Mar 24 2026 10:21:25 GMT-0500 (Central Daylight Time),250524.70000004768,A,quee,O,e,185,1,1367.8999998569489,249156.80000019073,7773,WL,C,3.0
2,6.83299994468689,learn,53167.00005531311,Tue Mar 24 2026 10:21:25 GMT-0500 (Central Daylight Time),250741.80000019073,A,queen,O,n,196,1,1585.0,249156.80000019073,7773,WL,C,3.0
2,7.196999788284302,learn,52803.0002117157,Tue Mar 24 2026 10:21:25 GMT-0500 (Central Daylight Time),251105.5,A,queenenter,O,enter,346,1,1948.6999998092651,249156.80000019073,7773,WL,C,3.0
2,7.648000001907349,learn,52351.99999809265,Tue Mar 24 2026 10:21:25 GMT-0500 (Central Daylight Time),251556.20000004768,A,s,O,s,434,1,450.5,251105.70000004768,7773,WL,C,4.0
2,7.813999891281128,learn,52186.00010871887,Tue Mar 24 2026 10:21:25 GMT-0500 (Central Daylight Time),251722.80000019073,A,su,O,u,158,1,617.1000001430511,251105.70000004768,7773,WL,C,4.0
2,7.997999906539917,learn,52002.00009346008,Tue Mar 24 2026 10:21:25 GMT-0500 (Central Daylight Time),251906.30000019073,A,sug,O,g,177,1,800.6000001430511,251105.70000004768,7773,WL,C,4.0
2,8.280999898910522,learn,51719.00010108948,Tue Mar 24 2026 10:21:25 GMT-0500 (Central Daylight Time),252190.20000004768,A,suga,O,a,269,1,1084.5,251105.70000004768,7773,WL,C,4.0
2,8.430999994277954,learn,51569.000005722046,Tue Mar 24 2026 10:21:25 GMT-0500 (Central Daylight Time),252340.10000014305,A,sugar,O,r,140,1,1234.4000000953674,251105.70000004768,7773,WL,C,4.0
2,8.847999811172485,learn,51152.000188827515,Tue Mar 24 2026 10:21:25 GMT-0500 (Central Daylight Time),252756.60000014305,A,sugarenter,O,enter,407,1,1650.9000000953674,251105.70000004768,7773,WL,C,4.0
2,9.297999858856201,learn,50702.0001411438,Tue Mar 24 2026 10:21:25 GMT-0500 (Central Daylight Time),253207.20000004768,A,h,O,h,446,1,450.2999999523163,252756.90000009537,7773,WL,C,5.0
2,9.497999906539917,learn,50502.00009346008,Tue Mar 24 2026 10:21:25 GMT-0500 (Central Daylight Time),253406.5,A,ho,O,o,177,1,649.5999999046326,252756.90000009537,7773,WL,C,5.0
2,9.664999961853027,learn,50335.00003814697,Tue Mar 24 2026 10:21:25 GMT-0500 (Central Daylight Time),253573.30000019073,A,hom,O,m,148,1,816.4000000953674,252756.90000009537,7773,WL,C,5.0
2,9.863999843597412,learn,50136.00015640259,Tue Mar 24 2026 10:21:25 GMT-0500 (Central Daylight Time),253773.20000004768,A,home,O,e,188,1,1016.2999999523163,252756.90000009537,7773,WL,C,5.0
2,10.363999843597412,learn,49636.00015640259,Tue Mar 24 2026 10:21:25 GMT-0500 (Central Daylight Time),254272.80000019073,A,homeenter,O,enter,485,1,1515.9000000953674,252756.90000009537,7773,WL,C,5.0
2,10.846999883651733,learn,49153.00011634827,Tue Mar 24 2026 10:21:25 GMT-0500 (Central Daylight Time),254755.60000014305,A,b,O,b,474,1,482.5,254273.10000014305,7773,WL,C,6.0
2,10.964999914169312,learn,49035.00008583069,Tue Mar 24 2026 10:21:25 GMT-0500 (Central Daylight Time),254874.10000014305,A,bo,O,o,113,1,601.0,254273.10000014305,7773,WL,C,6.0
2,11.21399998664856,learn,48786.00001335144,Tue Mar 24 2026 10:21:25 GMT-0500 (Central Daylight Time),255123.10000014305,A,boy,O,y,231,1,850.0,254273.10000014305,7773,WL,C,6.0
2,11.896999835968018,learn,48103.00016403198,Tue Mar 24 2026 10:21:25 GMT-0500 (Central Daylight Time),255805.70000004768,A,boyenter,O,enter,664,1,1532.5999999046326,254273.10000014305,7773,WL,C,6.0
2,12.396999835968018,learn,47603.00016403198,Tue Mar 24 2026 10:21:25 GMT-0500 (Central Daylight Time),256305.80000019073,A,d,O,d,484,1,499.90000009536743,255805.90000009537,7773,WL,C,7.0
2,12.498999834060669,learn,47501.00016593933,Tue Mar 24 2026 10:21:25 GMT-0500 (Central Daylight Time),256408.30000019073,A,do,O,o,97,1,602.4000000953674,255805.90000009537,7773,WL,C,7.0
2,12.696999788284302,learn,47303.0002117157,Tue Mar 24 2026 10:21:25 GMT-0500 (Central Daylight Time),256605.90000009537,A,doc,O,c,184,1,800.0,255805.90000009537,7773,WL,C,7.0
2,13.030999898910522,learn,46969.00010108948,Tue Mar 24 2026 10:21:25 GMT-0500 (Central Daylight Time),256939.30000019073,A,doct,O,t,328,1,1133.4000000953674,255805.90000009537,7773,WL,C,7.0
2,13.129999876022339,learn,46870.00012397766,Tue Mar 24 2026 10:21:25 GMT-0500 (Central Daylight Time),257038.70000004768,A,docto,O,o,85,1,1232.7999999523163,255805.90000009537,7773,WL,C,7.0
2,13.263999938964844,learn,46736.000061035156,Tue Mar 24 2026 10:21:25 GMT-0500 (Central Daylight Time),257172.5,A,doctor,O,r,122,1,1366.5999999046326,255805.90000009537,7773,WL,C,7.0
2,13.662999868392944,learn,46337.000131607056,Tue Mar 24 2026 10:21:25 GMT-0500 (Central Daylight Time),257571.90000009537,A,doctorenter,O,enter,390,1,1766.0,255805.90000009537,7773,WL,C,7.0
2,14.146999835968018,learn,45853.00016403198,Tue Mar 24 2026 10:21:25 GMT-0500 (Central Daylight Time),258056.10000014305,A,c,O,c,464,1,484.0,257572.10000014305,7773,WL,C,8.0
2,14.26199984550476,learn,45738.00015449524,Tue Mar 24 2026 10:21:25 GMT-0500 (Central Daylight Time),258171.20000004768,A,ca,O,a,96,1,599.0999999046326,257572.10000014305,7773,WL,C,8.0
2,14.412999868392944,learn,45587.000131607056,Tue Mar 24 2026 10:21:25 GMT-0500 (Central Daylight Time),258321.70000004768,A,cam,O,m,145,1,749.5999999046326,257572.10000014305,7773,WL,C,8.0
2,14.61299991607666,learn,45387.00008392334,Tue Mar 24 2026 10:21:25 GMT-0500 (Central Daylight Time),258521.60000014305,A,camp,O,p,192,1,949.5,257572.10000014305,7773,WL,C,8.0
2,15.229999780654907,learn,44770.00021934509,Tue Mar 24 2026 10:21:25 GMT-0500 (Central Daylight Time),259138.5,A,campenter,O,enter,593,1,1566.3999998569489,257572.10000014305,7773,WL,C,8.0
2,15.745999813079834,learn,44254.000186920166,Tue Mar 24 2026 10:21:25 GMT-0500 (Central Daylight Time),259654.70000004768,A,f,O,f,504,1,515.8999998569489,259138.80000019073,7773,WL,C,9.0
2,15.914999961853027,learn,44085.00003814697,Tue Mar 24 2026 10:21:25 GMT-0500 (Central Daylight Time),259824.0,A,fl,O,l,160,1,685.1999998092651,259138.80000019073,7773,WL,C,9.0
2,16.161999940872192,learn,43838.00005912781,Tue Mar 24 2026 10:21:25 GMT-0500 (Central Daylight Time),260071.30000019073,A,fla,O,a,231,1,932.5,259138.80000019073,7773,WL,C,9.0
2,16.561999797821045,learn,43438.000202178955,Tue Mar 24 2026 10:21:25 GMT-0500 (Central Daylight Time),260470.5,A,flag,O,g,379,1,1331.6999998092651,259138.80000019073,7773,WL,C,9.0
2,17.245999813079834,learn,42754.000186920166,Tue Mar 24 2026 10:21:25 GMT-0500 (Central Daylight Time),261154.80000019073,A,flagenter,O,enter,661,1,2016.0,259138.80000019073,7773,WL,C,9.0
2,18.694999933242798,learn,41305.0000667572,Tue Mar 24 2026 10:21:25 GMT-0500 (Central Daylight Time),262603.90000009537,A,n,O,n,1443,1,1448.7999999523163,261155.10000014305,7773,WL,C,10.0
2,18.878999948501587,learn,41121.00005149841,Tue Mar 24 2026 10:21:25 GMT-0500 (Central Daylight Time),262787.80000019073,A,na,O,a,165,1,1632.7000000476837,261155.10000014305,7773,WL,C,10.0
2,19.046000003814697,learn,40953.9999961853,Tue Mar 24 2026 10:21:25 GMT-0500 (Central Daylight Time),262954.90000009537,A,nai,O,i,162,1,1799.7999999523163,261155.10000014305,7773,WL,C,10.0
2,19.263000011444092,learn,40736.99998855591,Tue Mar 24 2026 10:21:25 GMT-0500 (Central Daylight Time),263171.7000000477,A,nail,O,l,210,1,2016.5999999046326,261155.10000014305,7773,WL,C,10.0
2,19.627999782562256,learn,40372.000217437744,Tue Mar 24 2026 10:21:25 GMT-0500 (Central Daylight Time),263537.2000000477,A,nailenter,O,enter,360,1,2382.0999999046326,261155.10000014305,7773,WL,C,10.0
2,20.061999797821045,learn,39938.000202178955,Tue Mar 24 2026 10:21:25 GMT-0500 (Central Daylight Time),263971.0,A,s,O,s,418,1,433.5,263537.5,7773,WL,C,11.0
2,20.17799997329712,learn,39822.00002670288,Tue Mar 24 2026 10:21:25 GMT-0500 (Central Daylight Time),264087.0,A,sh,O,h,97,1,549.5,263537.5,7773,WL,C,11.0
2,20.361999988555908,learn,39638.00001144409,Tue Mar 24 2026 10:21:25 GMT-0500 (Central Daylight Time),264270.30000019073,A,sho,O,o,161,1,732.8000001907349,263537.5,7773,WL,C,11.0
2,20.561999797821045,learn,39438.000202178955,Tue Mar 24 2026 10:21:25 GMT-0500 (Central Daylight Time),264470.7000000477,A,shor,O,r,178,1,933.2000000476837,263537.5,7773,WL,C,11.0
2,20.694000005722046,learn,39305.999994277954,Tue Mar 24 2026 10:21:25 GMT-0500 (Central Daylight Time),264602.7000000477,A,shore,O,e,115,1,1065.2000000476837,263537.5,7773,WL,C,11.0
2,21.944000005722046,learn,38055.999994277954,Tue Mar 24 2026 10:21:25 GMT-0500 (Central Daylight Time),265852.80000019073,A,shoreenter,O,enter,1240,1,2315.300000190735,263537.5,7773,WL,C,11.0
2,22.709999799728394,learn,37290.00020027161,Tue Mar 24 2026 10:21:25 GMT-0500 (Central Daylight Time),266618.5,A,c,O,c,750,1,765.5,265853.0,7773,WL,C,12.0
2,22.8439998626709,learn,37156.0001373291,Tue Mar 24 2026 10:21:25 GMT-0500 (Central Daylight Time),266752.80000019073,A,co,O,o,119,1,899.8000001907349,265853.0,7773,WL,C,12.0
2,23.060999870300293,learn,36939.00012969971,Tue Mar 24 2026 10:21:25 GMT-0500 (Central Daylight Time),266969.90000009537,A,cor,O,r,202,1,1116.9000000953674,265853.0,7773,WL,C,12.0
2,23.244999885559082,learn,36755.00011444092,Tue Mar 24 2026 10:21:25 GMT-0500 (Central Daylight Time),267153.30000019073,A,corn,O,n,170,1,1300.3000001907349,265853.0,7773,WL,C,12.0
2,23.66099977493286,learn,36339.00022506714,Tue Mar 24 2026 10:21:25 GMT-0500 (Central Daylight Time),267569.60000014305,A,cornenter,O,enter,395,1,1716.6000001430511,265853.0,7773,WL,C,12.0
2,24.444000005722046,learn,35555.999994277954,Tue Mar 24 2026 10:21:25 GMT-0500 (Central Daylight Time),268352.5,A,c,O,c,763,1,782.6999998092651,267569.80000019073,7773,WL,C,13.0
2,24.625999927520752,learn,35374.00007247925,Tue Mar 24 2026 10:21:25 GMT-0500 (Central Daylight Time),268534.60000014305,A,ca,O,a,169,1,964.7999999523163,267569.80000019073,7773,WL,C,13.0
2,24.859999895095825,learn,35140.000104904175,Tue Mar 24 2026 10:21:25 GMT-0500 (Central Daylight Time),268768.40000009537,A,cat,O,t,220,1,1198.5999999046326,267569.80000019073,7773,WL,C,13.0
2,25.04199981689453,learn,34958.00018310547,Tue Mar 24 2026 10:21:25 GMT-0500 (Central Daylight Time),268950.60000014305,A,catt,O,t,163,1,1380.7999999523163,267569.80000019073,7773,WL,C,13.0
2,25.39299988746643,learn,34607.00011253357,Tue Mar 24 2026 10:21:25 GMT-0500 (Central Daylight Time),269301.30000019073,A,cattl,O,l,342,1,1731.5,267569.80000019073,7773,WL,C,13.0
2,25.557999849319458,learn,34442.00015068054,Tue Mar 24 2026 10:21:25 GMT-0500 (Central Daylight Time),269467.0,A,cattle,O,e,157,1,1897.1999998092651,267569.80000019073,7773,WL,C,13.0
2,26.324999809265137,learn,33675.00019073486,Tue Mar 24 2026 10:21:25 GMT-0500 (Central Daylight Time),270233.80000019073,A,cattleenter,O,enter,744,1,2664.0,267569.80000019073,7773,WL,C,13.0
2,27.991999864578247,learn,32008.000135421753,Tue Mar 24 2026 10:21:25 GMT-0500 (Central Daylight Time),271900.90000009537,A,f,O,f,1657,1,1666.7999999523163,270234.10000014305,7773,WL,C,14.0
2,28.125,learn,31875.0,Tue Mar 24 2026 10:21:25 GMT-0500 (Central Daylight Time),272034.10000014305,A,fl,O,l,115,1,1800.0,270234.10000014305,7773,WL,C,14.0
2,28.45899987220764,learn,31541.00012779236,Tue Mar 24 2026 10:21:25 GMT-0500 (Central Daylight Time),272367.40000009537,A,fla,O,a,321,1,2133.2999999523163,270234.10000014305,7773,WL,C,14.0
2,28.675999879837036,learn,31324.000120162964,Tue Mar 24 2026 10:21:25 GMT-0500 (Central Daylight Time),272584.2000000477,A,flag,O,g,194,1,2350.0999999046326,270234.10000014305,7773,WL,C,14.0
2,30.092000007629395,learn,29907.999992370605,Tue Mar 24 2026 10:21:25 GMT-0500 (Central Daylight Time),274000.60000014305,A,flagenter,O,enter,1399,1,3766.5,270234.10000014305,7773,WL,C,14.0
2,39.83699989318848,learn,20163.000106811523,Tue Mar 24 2026 10:21:25 GMT-0500 (Central Daylight Time),283745.5,A,enter,O,enter,9730,1,9744.599999904633,274000.90000009537,7773,WL,C,15.0
3,2.2679998874664307,learn,57732.00011253357,Tue Mar 24 2026 10:21:25 GMT-0500 (Central Daylight Time),353576.30000019073,A,t,O,t,2257,1,2267.2000000476837,351309.10000014305,7773,WL,C,1.0
3,2.3989999294281006,learn,57601.0000705719,Tue Mar 24 2026 10:21:25 GMT-0500 (Central Daylight Time),353707.10000014305,A,to,O,o,120,1,2398.0,351309.10000014305,7773,WL,C,1.0
3,2.5809998512268066,learn,57419.00014877319,Tue Mar 24 2026 10:21:25 GMT-0500 (Central Daylight Time),353889.10000014305,A,tow,O,w,167,1,2580.0,351309.10000014305,7773,WL,C,1.0
3,2.697999954223633,learn,57302.00004577637,Tue Mar 24 2026 10:21:25 GMT-0500 (Central Daylight Time),354006.7000000477,A,towe,O,e,115,1,2697.5999999046326,351309.10000014305,7773,WL,C,1.0
3,3.4839999675750732,learn,56516.00003242493,Tue Mar 24 2026 10:21:25 GMT-0500 (Central Daylight Time),354792.7000000477,A,tower,O,r,782,1,3483.5999999046326,351309.10000014305,7773,WL,C,1.0
3,3.865999937057495,learn,56134.000062942505,Tue Mar 24 2026 10:21:25 GMT-0500 (Central Daylight Time),355174.30000019073,A,towerenter,O,enter,360,1,3865.2000000476837,351309.10000014305,7773,WL,C,1.0
3,5.233000040054321,learn,54766.99995994568,Tue Mar 24 2026 10:21:25 GMT-0500 (Central Daylight Time),356541.10000014305,A,w,O,w,1356,1,1366.5,355174.60000014305,7773,WL,C,2.0
3,5.4649999141693115,learn,54535.00008583069,Tue Mar 24 2026 10:21:25 GMT-0500 (Central Daylight Time),356773.5,A,wh,O,h,218,1,1598.8999998569489,355174.60000014305,7773,WL,C,2.0
3,5.665999889373779,learn,54334.00011062622,Tue Mar 24 2026 10:21:25 GMT-0500 (Central Daylight Time),356974.40000009537,A,whe,O,e,188,1,1799.7999999523163,355174.60000014305,7773,WL,C,2.0
3,5.846999883651733,learn,54153.00011634827,Tue Mar 24 2026 10:21:25 GMT-0500 (Central Daylight Time),357155.90000009537,A,whea,O,a,172,1,1981.2999999523163,355174.60000014305,7773,WL,C,2.0
3,6.014999866485596,learn,53985.000133514404,Tue Mar 24 2026 10:21:25 GMT-0500 (Central Daylight Time),357323.30000019073,A,wheat,O,t,150,1,2148.7000000476837,355174.60000014305,7773,WL,C,2.0
3,6.330999851226807,learn,53669.00014877319,Tue Mar 24 2026 10:21:25 GMT-0500 (Central Daylight Time),357639.7000000477,A,wheatenter,O,enter,294,1,2465.0999999046326,355174.60000014305,7773,WL,C,2.0
3,7.0309998989105225,learn,52969.00010108948,Tue Mar 24 2026 10:21:25 GMT-0500 (Central Daylight Time),358339.0,A,q,O,q,689,1,699.0,357640.0,7773,WL,C,3.0
3,7.230999946594238,learn,52769.00005340576,Tue Mar 24 2026 10:21:25 GMT-0500 (Central Daylight Time),358539.10000014305,A,qu,O,u,186,1,899.1000001430511,357640.0,7773,WL,C,3.0
3,7.549000024795532,learn,52450.99997520447,Tue Mar 24 2026 10:21:25 GMT-0500 (Central Daylight Time),358857.0,A,que,O,e,295,1,1217.0,357640.0,7773,WL,C,3.0
3,7.864000082015991,learn,52135.99991798401,Tue Mar 24 2026 10:21:25 GMT-0500 (Central Daylight Time),359172.5,A,quee,O,e,303,1,1532.5,357640.0,7773,WL,C,3.0
3,8.030999898910522,learn,51969.00010108948,Tue Mar 24 2026 10:21:25 GMT-0500 (Central Daylight Time),359339.30000019073,A,queen,O,n,149,1,1699.3000001907349,357640.0,7773,WL,C,3.0
3,8.38100004196167,learn,51618.99995803833,Tue Mar 24 2026 10:21:25 GMT-0500 (Central Daylight Time),359689.0,A,queenenter,O,enter,334,1,2049.0,357640.0,7773,WL,C,3.0
3,8.898000001907349,learn,51101.99999809265,Tue Mar 24 2026 10:21:25 GMT-0500 (Central Daylight Time),360206.10000014305,A,s,O,s,497,1,516.7999999523163,359689.30000019073,7773,WL,C,4.0
3,9.080999851226807,learn,50919.00014877319,Tue Mar 24 2026 10:21:25 GMT-0500 (Central Daylight Time),360389.5,A,su,O,u,164,1,700.1999998092651,359689.30000019073,7773,WL,C,4.0
3,9.230000019073486,learn,50769.999980926514,Tue Mar 24 2026 10:21:25 GMT-0500 (Central Daylight Time),360538.7000000477,A,sug,O,g,139,1,849.3999998569489,359689.30000019073,7773,WL,C,4.0
3,9.414000034332275,learn,50585.999965667725,Tue Mar 24 2026 10:21:25 GMT-0500 (Central Daylight Time),360722.2000000477,A,suga,O,a,178,1,1032.8999998569489,359689.30000019073,7773,WL,C,4.0
3,9.580999851226807,learn,50419.00014877319,Tue Mar 24 2026 10:21:25 GMT-0500 (Central Daylight Time),360889.0,A,sugar,O,r,160,1,1199.6999998092651,359689.30000019073,7773,WL,C,4.0
3,10.04699993133545,learn,49953.00006866455,Tue Mar 24 2026 10:21:25 GMT-0500 (Central Daylight Time),361355.5,A,sugarenter,O,enter,448,1,1666.1999998092651,359689.30000019073,7773,WL,C,4.0
3,13.078999996185303,learn,46921.0000038147,Tue Mar 24 2026 10:21:25 GMT-0500 (Central Daylight Time),364387.90000009537,A,h,O,h,3027,1,3032.0999999046326,361355.80000019073,7773,WL,C,5.0
3,13.230000019073486,learn,46769.999980926514,Tue Mar 24 2026 10:21:25 GMT-0500 (Central Daylight Time),364538.30000019073,A,ho,O,o,132,1,3182.5,361355.80000019073,7773,WL,C,5.0
3,13.397000074386597,learn,46602.9999256134,Tue Mar 24 2026 10:21:25 GMT-0500 (Central Daylight Time),364705.10000014305,A,hom,O,m,159,1,3349.2999999523163,361355.80000019073,7773,WL,C,5.0
3,13.545000076293945,learn,46454.999923706055,Tue Mar 24 2026 10:21:25 GMT-0500 (Central Daylight Time),364854.0,A,home,O,e,127,1,3498.199999809265,361355.80000019073,7773,WL,C,5.0
3,13.812999963760376,learn,46187.000036239624,Tue Mar 24 2026 10:21:25 GMT-0500 (Central Daylight Time),365121.10000014305,A,homeenter,O,enter,259,1,3765.2999999523163,361355.80000019073,7773,WL,C,5.0
3,14.19700002670288,learn,45802.99997329712,Tue Mar 24 2026 10:21:25 GMT-0500 (Central Daylight Time),365505.2000000477,A,b,O,b,361,1,383.7999999523163,365121.40000009537,7773,WL,C,6.0
3,14.296000003814697,learn,45703.9999961853,Tue Mar 24 2026 10:21:25 GMT-0500 (Central Daylight Time),365604.0,A,bo,O,o,86,1,482.59999990463257,365121.40000009537,7773,WL,C,6.0
3,14.527999877929688,learn,45472.00012207031,Tue Mar 24 2026 10:21:25 GMT-0500 (Central Daylight Time),365836.10000014305,A,boy,O,y,223,1,714.7000000476837,365121.40000009537,7773,WL,C,6.0
3,15.244999885559082,learn,44755.00011444092,Tue Mar 24 2026 10:21:25 GMT-0500 (Central Daylight Time),366553.5,A,boyenter,O,enter,711,1,1432.0999999046326,365121.40000009537,7773,WL,C,6.0
3,15.84500002861023,learn,44154.99997138977,Tue Mar 24 2026 10:21:25 GMT-0500 (Central Daylight Time),367153.40000009537,A,d,O,d,585,1,599.5999999046326,366553.80000019073,7773,WL,C,7.0
3,15.927000045776367,learn,44072.99995422363,Tue Mar 24 2026 10:21:25 GMT-0500 (Central Daylight Time),367235.40000009537,A,do,O,o,72,1,681.5999999046326,366553.80000019073,7773,WL,C,7.0
3,16.111999988555908,learn,43888.00001144409,Tue Mar 24 2026 10:21:25 GMT-0500 (Central Daylight Time),367420.40000009537,A,doc,O,c,173,1,866.5999999046326,366553.80000019073,7773,WL,C,7.0
3,16.34500002861023,learn,43654.99997138977,Tue Mar 24 2026 10:21:25 GMT-0500 (Central Daylight Time),367653.60000014305,A,doco,O,o,222,1,1099.7999999523163,366553.80000019073,7773,WL,C,7.0
3,16.52900004386902,learn,43470.99995613098,Tue Mar 24 2026 10:21:25 GMT-0500 (Central Daylight Time),367837.7000000477,A,docot,O,t,173,1,1283.8999998569489,366553.80000019073,7773,WL,C,7.0
3,16.92799997329712,learn,43072.00002670288,Tue Mar 24 2026 10:21:25 GMT-0500 (Central Daylight Time),368236.60000014305,A,doco,O,backspace,377,1,1682.7999999523163,366553.80000019073,7773,WL,C,7.0
3,17.111999988555908,learn,42888.00001144409,Tue Mar 24 2026 10:21:25 GMT-0500 (Central Daylight Time),368420.2000000477,A,doc,O,backspace,172,1,1866.3999998569489,366553.80000019073,7773,WL,C,7.0
3,17.246999979019165,learn,42753.000020980835,Tue Mar 24 2026 10:21:25 GMT-0500 (Central Daylight Time),368555.5,A,doct,O,t,114,1,2001.6999998092651,366553.80000019073,7773,WL,C,7.0
3,17.41100001335144,learn,42588.99998664856,Tue Mar 24 2026 10:21:25 GMT-0500 (Central Daylight Time),368719.60000014305,A,docto,O,o,149,1,2165.7999999523163,366553.80000019073,7773,WL,C,7.0
3,17.47699999809265,learn,42523.00000190735,Tue Mar 24 2026 10:21:25 GMT-0500 (Central Daylight Time),368785.2000000477,A,doctor,O,r,58,1,2231.399999856949,366553.80000019073,7773,WL,C,7.0
3,17.793999910354614,learn,42206.000089645386,Tue Mar 24 2026 10:21:25 GMT-0500 (Central Daylight Time),369102.60000014305,A,doctorenter,O,enter,298,1,2548.7999999523163,366553.80000019073,7773,WL,C,7.0
3,18.32800006866455,learn,41671.99993133545,Tue Mar 24 2026 10:21:25 GMT-0500 (Central Daylight Time),369636.2000000477,A,c,O,c,512,1,533.0,369103.2000000477,7773,WL,C,8.0
3,18.460999965667725,learn,41539.000034332275,Tue Mar 24 2026 10:21:25 GMT-0500 (Central Daylight Time),369769.60000014305,A,ca,O,a,117,1,666.4000000953674,369103.2000000477,7773,WL,C,8.0
3,18.57800006866455,learn,41421.99993133545,Tue Mar 24 2026 10:21:25 GMT-0500 (Central Daylight Time),369886.80000019073,A,cam,O,m,105,1,783.6000001430511,369103.2000000477,7773,WL,C,8.0
3,18.72699999809265,learn,41273.00000190735,Tue Mar 24 2026 10:21:25 GMT-0500 (Central Daylight Time),370035.90000009537,A,camp,O,p,130,1,932.7000000476837,369103.2000000477,7773,WL,C,8.0
3,19.144999980926514,learn,40855.000019073486,Tue Mar 24 2026 10:21:25 GMT-0500 (Central Daylight Time),370453.5,A,campenter,O,enter,405,1,1350.2999999523163,369103.2000000477,7773,WL,C,8.0
3,19.66100001335144,learn,40338.99998664856,Tue Mar 24 2026 10:21:25 GMT-0500 (Central Daylight Time),370969.5,A,l,O,l,500,1,515.7999999523163,370453.7000000477,7773,WL,C,9.0
3,19.793999910354614,learn,40206.000089645386,Tue Mar 24 2026 10:21:25 GMT-0500 (Central Daylight Time),371102.30000019073,A,le,O,e,121,1,648.6000001430511,370453.7000000477,7773,WL,C,9.0
3,20.05999994277954,learn,39940.00005722046,Tue Mar 24 2026 10:21:25 GMT-0500 (Central Daylight Time),371368.80000019073,A,let,O,t,258,1,915.1000001430511,370453.7000000477,7773,WL,C,9.0
3,20.24399995803833,learn,39756.00004196167,Tue Mar 24 2026 10:21:25 GMT-0500 (Central Daylight Time),371552.60000014305,A,lett,O,t,168,1,1098.9000000953674,370453.7000000477,7773,WL,C,9.0
3,20.42799997329712,learn,39572.00002670288,Tue Mar 24 2026 10:21:25 GMT-0500 (Central Daylight Time),371736.7000000477,A,lette,O,e,178,1,1283.0,370453.7000000477,7773,WL,C,9.0
3,20.526999950408936,learn,39473.000049591064,Tue Mar 24 2026 10:21:25 GMT-0500 (Central Daylight Time),371835.60000014305,A,letter,O,r,79,1,1381.9000000953674,370453.7000000477,7773,WL,C,9.0
3,21.292999982833862,learn,38707.00001716614,Tue Mar 24 2026 10:21:25 GMT-0500 (Central Daylight Time),372601.90000009537,A,letterenter,O,enter,758,1,2148.2000000476837,370453.7000000477,7773,WL,C,9.0
3,23.276999950408936,learn,36723.000049591064,Tue Mar 24 2026 10:21:25 GMT-0500 (Central Daylight Time),374585.30000019073,A,n,O,n,1963,1,1983.2000000476837,372602.10000014305,7773,WL,C,10.0
3,23.460000038146973,learn,36539.99996185303,Tue Mar 24 2026 10:21:25 GMT-0500 (Central Daylight Time),374768.0,A,na,O,a,168,1,2165.899999856949,372602.10000014305,7773,WL,C,10.0
3,23.626999855041504,learn,36373.000144958496,Tue Mar 24 2026 10:21:25 GMT-0500 (Central Daylight Time),374935.10000014305,A,nai,O,i,156,1,2333.0,372602.10000014305,7773,WL,C,10.0
3,23.825000047683716,learn,36174.999952316284,Tue Mar 24 2026 10:21:25 GMT-0500 (Central Daylight Time),375134.0,A,nail,O,l,187,1,2531.899999856949,372602.10000014305,7773,WL,C,10.0
3,24.20899987220764,learn,35791.00012779236,Tue Mar 24 2026 10:21:25 GMT-0500 (Central Daylight Time),375517.10000014305,A,nailenter,O,enter,361,1,2915.0,372602.10000014305,7773,WL,C,10.0
3,25.05999994277954,learn,34940.00005722046,Tue Mar 24 2026 10:21:25 GMT-0500 (Central Daylight Time),376368.5,A,s,O,s,838,1,851.0999999046326,375517.40000009537,7773,WL,C,11.0
3,25.20899987220764,learn,34791.00012779236,Tue Mar 24 2026 10:21:25 GMT-0500 (Central Daylight Time),376517.30000019073,A,sh,O,h,131,1,999.9000000953674,375517.40000009537,7773,WL,C,11.0
3,25.40999984741211,learn,34590.00015258789,Tue Mar 24 2026 10:21:25 GMT-0500 (Central Daylight Time),376718.60000014305,A,sho,O,o,180,1,1201.2000000476837,375517.40000009537,7773,WL,C,11.0
3,25.524999856948853,learn,34475.00014305115,Tue Mar 24 2026 10:21:25 GMT-0500 (Central Daylight Time),376833.90000009537,A,shor,O,r,100,1,1316.5,375517.40000009537,7773,WL,C,11.0
3,25.64199995994568,learn,34358.00004005432,Tue Mar 24 2026 10:21:25 GMT-0500 (Central Daylight Time),376950.80000019073,A,shore,O,e,94,1,1433.4000000953674,375517.40000009537,7773,WL,C,11.0
3,25.941999912261963,learn,34058.00008773804,Tue Mar 24 2026 10:21:25 GMT-0500 (Central Daylight Time),377250.5,A,shoreenter,O,enter,288,1,1733.0999999046326,375517.40000009537,7773,WL,C,11.0
3,26.441999912261963,learn,33558.00008773804,Tue Mar 24 2026 10:21:25 GMT-0500 (Central Daylight Time),377750.40000009537,A,f,O,f,481,1,499.7000000476837,377250.7000000477,7773,WL,C,12.0
3,26.60800004005432,learn,33391.99995994568,Tue Mar 24 2026 10:21:25 GMT-0500 (Central Daylight Time),377916.60000014305,A,fl,O,l,155,1,665.9000000953674,377250.7000000477,7773,WL,C,12.0
3,26.89199995994568,learn,33108.00004005432,Tue Mar 24 2026 10:21:25 GMT-0500 (Central Daylight Time),378200.40000009537,A,fla,O,a,278,1,949.7000000476837,377250.7000000477,7773,WL,C,12.0
3,27.125,learn,32875.0,Tue Mar 24 2026 10:21:25 GMT-0500 (Central Daylight Time),378433.90000009537,A,flad,O,d,226,1,1183.2000000476837,377250.7000000477,7773,WL,C,12.0
3,27.657999992370605,learn,32342.000007629395,Tue Mar 24 2026 10:21:25 GMT-0500 (Central Daylight Time),378966.60000014305,A,fla,O,backspace,517,1,1715.9000000953674,377250.7000000477,7773,WL,C,12.0
3,27.807999849319458,learn,32192.000150680542,Tue Mar 24 2026 10:21:25 GMT-0500 (Central Daylight Time),379116.2000000477,A,flag,O,g,140,1,1865.5,377250.7000000477,7773,WL,C,12.0
3,28.05900001525879,learn,31940.99998474121,Tue Mar 24 2026 10:21:25 GMT-0500 (Central Daylight Time),379367.2000000477,A,flagenter,O,enter,238,1,2116.5,377250.7000000477,7773,WL,C,12.0
3,28.591000080108643,learn,31408.999919891357,Tue Mar 24 2026 10:21:25 GMT-0500 (Central Daylight Time),379899.40000009537,A,c,O,c,515,1,531.9000000953674,379367.5,7773,WL,C,13.0
3,28.655999898910522,learn,31344.000101089478,Tue Mar 24 2026 10:21:25 GMT-0500 (Central Daylight Time),379964.80000019073,A,co,O,o,54,1,597.3000001907349,379367.5,7773,WL,C,13.0
3,28.957000017166138,learn,31042.999982833862,Tue Mar 24 2026 10:21:25 GMT-0500 (Central Daylight Time),380265.7000000477,A,cor,O,r,285,1,898.2000000476837,379367.5,7773,WL,C,13.0
3,29.19099998474121,learn,30809.00001525879,Tue Mar 24 2026 10:21:25 GMT-0500 (Central Daylight Time),380499.10000014305,A,corn,O,n,215,1,1131.6000001430511,379367.5,7773,WL,C,13.0
3,29.72499990463257,learn,30275.00009536743,Tue Mar 24 2026 10:21:25 GMT-0500 (Central Daylight Time),381033.10000014305,A,cornenter,O,enter,520,1,1665.6000001430511,379367.5,7773,WL,C,13.0
3,30.457000017166138,learn,29542.999982833862,Tue Mar 24 2026 10:21:25 GMT-0500 (Central Daylight Time),381765.60000014305,A,c,O,c,713,1,732.2999999523163,381033.30000019073,7773,WL,C,14.0
3,30.624000072479248,learn,29375.999927520752,Tue Mar 24 2026 10:21:25 GMT-0500 (Central Daylight Time),381932.5,A,ca,O,a,147,1,899.1999998092651,381033.30000019073,7773,WL,C,14.0
3,30.823999881744385,learn,29176.000118255615,Tue Mar 24 2026 10:21:25 GMT-0500 (Central Daylight Time),382132.5,A,cat,O,t,181,1,1099.1999998092651,381033.30000019073,7773,WL,C,14.0
3,30.990000009536743,learn,29009.999990463257,Tue Mar 24 2026 10:21:25 GMT-0500 (Central Daylight Time),382298.2000000477,A,catt,O,t,157,1,1264.8999998569489,381033.30000019073,7773,WL,C,14.0
3,31.20799994468689,learn,28792.00005531311,Tue Mar 24 2026 10:21:25 GMT-0500 (Central Daylight Time),382516.5,A,cattl,O,l,197,1,1483.1999998092651,381033.30000019073,7773,WL,C,14.0
3,31.33999991416931,learn,28660.00008583069,Tue Mar 24 2026 10:21:25 GMT-0500 (Central Daylight Time),382648.40000009537,A,cattle,O,e,118,1,1615.0999999046326,381033.30000019073,7773,WL,C,14.0
3,31.973999977111816,learn,28026.000022888184,Tue Mar 24 2026 10:21:25 GMT-0500 (Central Daylight Time),383282.10000014305,A,cattleenter,O,enter,619,1,2248.7999999523163,381033.30000019073,7773,WL,C,14.0
3,52.91700005531311,learn,7082.99994468689,Tue Mar 24 2026 10:21:25 GMT-0500 (Central Daylight Time),404225.30000019073,A,f,O,f,20923,1,20943.0,383282.30000019073,7773,WL,C,15.0
3,53.098999977111816,learn,6901.000022888184,Tue Mar 24 2026 10:21:25 GMT-0500 (Central Daylight Time),404407.7000000477,A,fl,O,l,163,1,21125.39999985695,383282.30000019073,7773,WL,C,15.0
3,53.33299994468689,learn,6667.00005531311,Tue Mar 24 2026 10:21:25 GMT-0500 (Central Daylight Time),404641.0,A,fla,O,a,219,1,21358.699999809265,383282.30000019073,7773,WL,C,15.0
3,53.54900002479553,learn,6450.999975204468,Tue Mar 24 2026 10:21:25 GMT-0500 (Central Daylight Time),404857.7000000477,A,flag,O,g,202,1,21575.39999985695,383282.30000019073,7773,WL,C,15.0
3,53.78200006484985,learn,6217.9999351501465,Tue Mar 24 2026 10:21:25 GMT-0500 (Central Daylight Time),405090.30000019073,A,flagenter,O,enter,216,1,21808.0,383282.30000019073,7773,WL,C,15.0
4,1.3340001106262207,learn,58665.99988937378,Tue Mar 24 2026 10:21:25 GMT-0500 (Central Daylight Time),478786.0,A,t,O,t,1328,1,1333.6999998092651,477452.30000019073,7773,WL,C,1.0
4,1.5150001049041748,learn,58484.999895095825,Tue Mar 24 2026 10:21:25 GMT-0500 (Central Daylight Time),478967.5,A,to,O,o,167,1,1515.1999998092651,477452.30000019073,7773,WL,C,1.0
4,1.7170000076293945,learn,58282.999992370605,Tue Mar 24 2026 10:21:25 GMT-0500 (Central Daylight Time),479168.90000009537,A,tow,O,w,194,1,1716.5999999046326,477452.30000019073,7773,WL,C,1.0
4,1.8819999694824219,learn,58118.00003051758,Tue Mar 24 2026 10:21:25 GMT-0500 (Central Daylight Time),479334.5,A,towe,O,e,145,1,1882.1999998092651,477452.30000019073,7773,WL,C,1.0
4,2.015000104904175,learn,57984.999895095825,Tue Mar 24 2026 10:21:25 GMT-0500 (Central Daylight Time),479467.30000019073,A,tower,O,r,114,1,2015.0,477452.30000019073,7773,WL,C,1.0
4,2.515000104904175,learn,57484.999895095825,Tue Mar 24 2026 10:21:25 GMT-0500 (Central Daylight Time),479967.30000019073,A,towerenter,O,enter,480,1,2515.0,477452.30000019073,7773,WL,C,1.0
4,3.0329999923706055,learn,56967.000007629395,Tue Mar 24 2026 10:21:25 GMT-0500 (Central Daylight Time),480485.30000019073,A,w,O,w,499,1,517.8000001907349,479967.5,7773,WL,C,2.0
4,3.315999984741211,learn,56684.00001525879,Tue Mar 24 2026 10:21:25 GMT-0500 (Central Daylight Time),480768.0,A,wh,O,h,278,1,800.5,479967.5,7773,WL,C,2.0
4,3.615000009536743,learn,56384.99999046326,Tue Mar 24 2026 10:21:25 GMT-0500 (Central Daylight Time),481067.2000000477,A,whe,O,e,290,1,1099.7000000476837,479967.5,7773,WL,C,2.0
4,3.7970001697540283,learn,56202.99983024597,Tue Mar 24 2026 10:21:25 GMT-0500 (Central Daylight Time),481249.40000009537,A,whea,O,a,174,1,1281.9000000953674,479967.5,7773,WL,C,2.0
4,4.0320000648498535,learn,55967.99993515015,Tue Mar 24 2026 10:21:25 GMT-0500 (Central Daylight Time),481484.10000014305,A,wheat,O,t,218,1,1516.6000001430511,479967.5,7773,WL,C,2.0
4,4.366000175476074,learn,55633.999824523926,Tue Mar 24 2026 10:21:25 GMT-0500 (Central Daylight Time),481817.7000000477,A,wheatenter,O,enter,319,1,1850.2000000476837,479967.5,7773,WL,C,2.0
4,4.930999994277954,learn,55069.000005722046,Tue Mar 24 2026 10:21:25 GMT-0500 (Central Daylight Time),482383.7000000477,A,q,O,q,554,1,565.7000000476837,481818.0,7773,WL,C,3.0
4,5.114000082015991,learn,54885.99991798401,Tue Mar 24 2026 10:21:25 GMT-0500 (Central Daylight Time),482566.7000000477,A,qu,O,u,161,1,748.7000000476837,481818.0,7773,WL,C,3.0
4,5.297000169754028,learn,54702.99983024597,Tue Mar 24 2026 10:21:25 GMT-0500 (Central Daylight Time),482749.40000009537,A,que,O,e,163,1,931.4000000953674,481818.0,7773,WL,C,3.0
4,5.432000160217285,learn,54567.999839782715,Tue Mar 24 2026 10:21:25 GMT-0500 (Central Daylight Time),482883.80000019073,A,quee,O,e,116,1,1065.8000001907349,481818.0,7773,WL,C,3.0
4,5.648000001907349,learn,54351.99999809265,Tue Mar 24 2026 10:21:25 GMT-0500 (Central Daylight Time),483099.80000019073,A,queen,O,n,196,1,1281.8000001907349,481818.0,7773,WL,C,3.0
4,5.998000144958496,learn,54001.999855041504,Tue Mar 24 2026 10:21:25 GMT-0500 (Central Daylight Time),483450.0,A,queenenter,O,enter,335,1,1632.0,481818.0,7773,WL,C,3.0
4,6.3470001220703125,learn,53652.99987792969,Tue Mar 24 2026 10:21:25 GMT-0500 (Central Daylight Time),483798.80000019073,A,s,O,s,335,1,348.5,483450.30000019073,7773,WL,C,4.0
4,6.864000082015991,learn,53135.99991798401,Tue Mar 24 2026 10:21:25 GMT-0500 (Central Daylight Time),484316.40000009537,A,su,O,u,501,1,866.0999999046326,483450.30000019073,7773,WL,C,4.0
4,7.047000169754028,learn,52952.99983024597,Tue Mar 24 2026 10:21:25 GMT-0500 (Central Daylight Time),484498.80000019073,A,sug,O,g,165,1,1048.5,483450.30000019073,7773,WL,C,4.0
4,7.264000177383423,learn,52735.99982261658,Tue Mar 24 2026 10:21:25 GMT-0500 (Central Daylight Time),484716.0,A,suga,O,a,206,1,1265.6999998092651,483450.30000019073,7773,WL,C,4.0
4,7.414000034332275,learn,52585.999965667725,Tue Mar 24 2026 10:21:25 GMT-0500 (Central Daylight Time),484866.10000014305,A,sugar,O,r,135,1,1415.7999999523163,483450.30000019073,7773,WL,C,4.0
4,7.746999979019165,learn,52253.000020980835,Tue Mar 24 2026 10:21:25 GMT-0500 (Central Daylight Time),485199.2000000477,A,sugarenter,O,enter,319,1,1748.8999998569489,483450.30000019073,7773,WL,C,4.0
4,8.19700002670288,learn,51802.99997329712,Tue Mar 24 2026 10:21:25 GMT-0500 (Central Daylight Time),485649.40000009537,A,h,O,h,435,1,449.90000009536743,485199.5,7773,WL,C,5.0
4,8.381999969482422,learn,51618.00003051758,Tue Mar 24 2026 10:21:25 GMT-0500 (Central Daylight Time),485834.0,A,ho,O,o,177,1,634.5,485199.5,7773,WL,C,5.0
4,8.54800009727478,learn,51451.99990272522,Tue Mar 24 2026 10:21:25 GMT-0500 (Central Daylight Time),485999.80000019073,A,hom,O,m,153,1,800.3000001907349,485199.5,7773,WL,C,5.0
4,8.730000019073486,learn,51269.999980926514,Tue Mar 24 2026 10:21:25 GMT-0500 (Central Daylight Time),486182.10000014305,A,home,O,e,163,1,982.6000001430511,485199.5,7773,WL,C,5.0
4,9.781000137329102,learn,50218.9998626709,Tue Mar 24 2026 10:21:25 GMT-0500 (Central Daylight Time),487233.10000014305,A,homeenter,O,enter,1037,1,2033.6000001430511,485199.5,7773,WL,C,5.0
4,10.230000019073486,learn,49769.999980926514,Tue Mar 24 2026 10:21:25 GMT-0500 (Central Daylight Time),487681.80000019073,A,b,O,b,441,1,448.5,487233.30000019073,7773,WL,C,6.0
4,10.364000082015991,learn,49635.99991798401,Tue Mar 24 2026 10:21:25 GMT-0500 (Central Daylight Time),487816.40000009537,A,bo,O,o,119,1,583.0999999046326,487233.30000019073,7773,WL,C,6.0
4,10.644999980926514,learn,49355.000019073486,Tue Mar 24 2026 10:21:25 GMT-0500 (Central Daylight Time),488097.40000009537,A,boy,O,y,264,1,864.0999999046326,487233.30000019073,7773,WL,C,6.0
4,12.09500002861023,learn,47904.99997138977,Tue Mar 24 2026 10:21:25 GMT-0500 (Central Daylight Time),489546.80000019073,A,boyenter,O,enter,1441,1,2313.5,487233.30000019073,7773,WL,C,6.0
4,12.67900013923645,learn,47320.99986076355,Tue Mar 24 2026 10:21:25 GMT-0500 (Central Daylight Time),490131.2000000477,A,d,O,d,569,1,584.0999999046326,489547.10000014305,7773,WL,C,7.0
4,12.76200008392334,learn,47237.99991607666,Tue Mar 24 2026 10:21:25 GMT-0500 (Central Daylight Time),490213.90000009537,A,do,O,o,67,1,666.7999999523163,489547.10000014305,7773,WL,C,7.0
4,12.945000171661377,learn,47054.99982833862,Tue Mar 24 2026 10:21:25 GMT-0500 (Central Daylight Time),490397.0,A,doc,O,c,165,1,849.8999998569489,489547.10000014305,7773,WL,C,7.0
4,13.328999996185303,learn,46671.0000038147,Tue Mar 24 2026 10:21:25 GMT-0500 (Central Daylight Time),490780.7000000477,A,doct,O,t,364,1,1233.5999999046326,489547.10000014305,7773,WL,C,7.0
4,13.460999965667725,learn,46539.000034332275,Tue Mar 24 2026 10:21:25 GMT-0500 (Central Daylight Time),490913.5,A,docto,O,o,125,1,1366.3999998569489,489547.10000014305,7773,WL,C,7.0
4,13.57800006866455,learn,46421.99993133545,Tue Mar 24 2026 10:21:25 GMT-0500 (Central Daylight Time),491030.2000000477,A,doctor,O,r,106,1,1483.0999999046326,489547.10000014305,7773,WL,C,7.0
4,14.046000003814697,learn,45953.9999961853,Tue Mar 24 2026 10:21:25 GMT-0500 (Central Daylight Time),491498.0,A,doctorenter,O,enter,460,1,1950.8999998569489,489547.10000014305,7773,WL,C,7.0
4,15.129000186920166,learn,44870.999813079834,Tue Mar 24 2026 10:21:25 GMT-0500 (Central Daylight Time),492580.7000000477,A,c,O,c,1062,1,1082.5,491498.2000000477,7773,WL,C,8.0
4,15.229000091552734,learn,44770.999908447266,Tue Mar 24 2026 10:21:25 GMT-0500 (Central Daylight Time),492681.5,A,ca,O,a,95,1,1183.2999999523163,491498.2000000477,7773,WL,C,8.0
4,15.378000020980835,learn,44621.999979019165,Tue Mar 24 2026 10:21:25 GMT-0500 (Central Daylight Time),492830.30000019073,A,cam,O,m,127,1,1332.1000001430511,491498.2000000477,7773,WL,C,8.0
4,15.511000156402588,learn,44488.99984359741,Tue Mar 24 2026 10:21:25 GMT-0500 (Central Daylight Time),492963.40000009537,A,camp,O,p,124,1,1465.2000000476837,491498.2000000477,7773,WL,C,8.0
4,15.99399995803833,learn,44006.00004196167,Tue Mar 24 2026 10:21:25 GMT-0500 (Central Daylight Time),493446.10000014305,A,campenter,O,enter,472,1,1947.9000000953674,491498.2000000477,7773,WL,C,8.0
4,16.66100001335144,learn,43338.99998664856,Tue Mar 24 2026 10:21:25 GMT-0500 (Central Daylight Time),494113.30000019073,A,f,O,f,651,1,666.9000000953674,493446.40000009537,7773,WL,C,9.0
4,16.82800006866455,learn,43171.99993133545,Tue Mar 24 2026 10:21:25 GMT-0500 (Central Daylight Time),494280.10000014305,A,fl,O,l,163,1,833.7000000476837,493446.40000009537,7773,WL,C,9.0
4,17.07800006866455,learn,42921.99993133545,Tue Mar 24 2026 10:21:25 GMT-0500 (Central Daylight Time),494529.7000000477,A,fla,O,a,234,1,1083.2999999523163,493446.40000009537,7773,WL,C,9.0
4,17.47699999809265,learn,42523.00000190735,Tue Mar 24 2026 10:21:25 GMT-0500 (Central Daylight Time),494928.7000000477,A,flag,O,g,383,1,1482.2999999523163,493446.40000009537,7773,WL,C,9.0
4,17.91000008583069,learn,42089.99991416931,Tue Mar 24 2026 10:21:25 GMT-0500 (Central Daylight Time),495362.30000019073,A,flagenter,O,enter,418,1,1915.9000000953674,493446.40000009537,7773,WL,C,9.0
4,20.111000061035156,learn,39888.999938964844,Tue Mar 24 2026 10:21:25 GMT-0500 (Central Daylight Time),497562.7000000477,A,c,O,c,2194,1,2200.0999999046326,495362.60000014305,7773,WL,C,10.0
4,20.243000030517578,learn,39756.99996948242,Tue Mar 24 2026 10:21:25 GMT-0500 (Central Daylight Time),497694.90000009537,A,co,O,o,119,1,2332.2999999523163,495362.60000014305,7773,WL,C,10.0
4,20.460000038146973,learn,39539.99996185303,Tue Mar 24 2026 10:21:25 GMT-0500 (Central Daylight Time),497912.40000009537,A,cor,O,r,202,1,2549.7999999523163,495362.60000014305,7773,WL,C,10.0
4,20.64300012588501,learn,39356.99987411499,Tue Mar 24 2026 10:21:25 GMT-0500 (Central Daylight Time),498095.2000000477,A,corn,O,n,162,1,2732.5999999046326,495362.60000014305,7773,WL,C,10.0
4,21.026000022888184,learn,38973.99997711182,Tue Mar 24 2026 10:21:25 GMT-0500 (Central Daylight Time),498478.60000014305,A,cornenter,O,enter,370,1,3116.0,495362.60000014305,7773,WL,C,10.0
4,21.66000008583069,learn,38339.99991416931,Tue Mar 24 2026 10:21:25 GMT-0500 (Central Daylight Time),499111.90000009537,A,c,O,c,613,1,633.2000000476837,498478.7000000477,7773,WL,C,11.0
4,21.87600016593933,learn,38123.99983406067,Tue Mar 24 2026 10:21:25 GMT-0500 (Central Daylight Time),499328.10000014305,A,ca,O,a,204,1,849.4000000953674,498478.7000000477,7773,WL,C,11.0
4,22.14199995994568,learn,37858.00004005432,Tue Mar 24 2026 10:21:25 GMT-0500 (Central Daylight Time),499593.80000019073,A,cat,O,t,258,1,1115.1000001430511,498478.7000000477,7773,WL,C,11.0
4,22.325999975204468,learn,37674.00002479553,Tue Mar 24 2026 10:21:25 GMT-0500 (Central Daylight Time),499777.80000019073,A,catt,O,t,169,1,1299.1000001430511,498478.7000000477,7773,WL,C,11.0
4,22.45900011062622,learn,37540.99988937378,Tue Mar 24 2026 10:21:25 GMT-0500 (Central Daylight Time),499911.7000000477,A,cattl,O,l,121,1,1433.0,498478.7000000477,7773,WL,C,11.0
4,22.608999967575073,learn,37391.00003242493,Tue Mar 24 2026 10:21:25 GMT-0500 (Central Daylight Time),500061.40000009537,A,cattle,O,e,139,1,1582.7000000476837,498478.7000000477,7773,WL,C,11.0
4,22.909000158309937,learn,37090.99984169006,Tue Mar 24 2026 10:21:25 GMT-0500 (Central Daylight Time),500360.60000014305,A,cattleenter,O,enter,293,1,1881.9000000953674,498478.7000000477,7773,WL,C,11.0
4,26.075999975204468,learn,33924.00002479553,Tue Mar 24 2026 10:21:25 GMT-0500 (Central Daylight Time),503528.0,A,n,O,n,3146,1,3167.0999999046326,500360.90000009537,7773,WL,C,12.0
4,26.225000143051147,learn,33774.99985694885,Tue Mar 24 2026 10:21:25 GMT-0500 (Central Daylight Time),503677.2000000477,A,na,O,a,130,1,3316.2999999523163,500360.90000009537,7773,WL,C,12.0
4,26.358999967575073,learn,33641.00003242493,Tue Mar 24 2026 10:21:25 GMT-0500 (Central Daylight Time),503810.7000000477,A,nai,O,i,124,1,3449.7999999523163,500360.90000009537,7773,WL,C,12.0
4,26.54200005531311,learn,33457.99994468689,Tue Mar 24 2026 10:21:25 GMT-0500 (Central Daylight Time),503994.2000000477,A,nail,O,l,168,1,3633.2999999523163,500360.90000009537,7773,WL,C,12.0
4,26.85700011253357,learn,33142.99988746643,Tue Mar 24 2026 10:21:25 GMT-0500 (Central Daylight Time),504308.7000000477,A,nailenter,O,enter,295,1,3947.7999999523163,500360.90000009537,7773,WL,C,12.0
4,27.942000150680542,learn,32057.999849319458,Tue Mar 24 2026 10:21:25 GMT-0500 (Central Daylight Time),505393.80000019073,A,s,O,s,1079,1,1084.9000000953674,504308.90000009537,7773,WL,C,13.0
4,28.10800004005432,learn,31891.99995994568,Tue Mar 24 2026 10:21:25 GMT-0500 (Central Daylight Time),505560.5,A,sh,O,h,144,1,1251.5999999046326,504308.90000009537,7773,WL,C,13.0
4,28.256999969482422,learn,31743.000030517578,Tue Mar 24 2026 10:21:25 GMT-0500 (Central Daylight Time),505709.5,A,sho,O,o,129,1,1400.5999999046326,504308.90000009537,7773,WL,C,13.0
4,28.390000104904175,learn,31609.999895095825,Tue Mar 24 2026 10:21:25 GMT-0500 (Central Daylight Time),505842.30000019073,A,shor,O,r,123,1,1533.4000000953674,504308.90000009537,7773,WL,C,13.0
4,28.52500009536743,learn,31474.99990463257,Tue Mar 24 2026 10:21:25 GMT-0500 (Central Daylight Time),505976.7000000477,A,shore,O,e,121,1,1667.7999999523163,504308.90000009537,7773,WL,C,13.0
4,28.957000017166138,learn,31042.999982833862,Tue Mar 24 2026 10:21:25 GMT-0500 (Central Daylight Time),506409.5,A,shoreenter,O,enter,424,1,2100.5999999046326,504308.90000009537,7773,WL,C,13.0
4,30.057000160217285,learn,29942.999839782715,Tue Mar 24 2026 10:21:25 GMT-0500 (Central Daylight Time),507509.5,A,b,O,b,1091,1,1099.7999999523163,506409.7000000477,7773,WL,C,14.0
4,30.240000009536743,learn,29759.999990463257,Tue Mar 24 2026 10:21:25 GMT-0500 (Central Daylight Time),507692.30000019073,A,bo,O,o,162,1,1282.6000001430511,506409.7000000477,7773,WL,C,14.0
4,30.54100012779236,learn,29458.99987220764,Tue Mar 24 2026 10:21:25 GMT-0500 (Central Daylight Time),507992.80000019073,A,bod,O,d,288,1,1583.1000001430511,506409.7000000477,7773,WL,C,14.0
4,30.723000049591064,learn,29276.999950408936,Tue Mar 24 2026 10:21:25 GMT-0500 (Central Daylight Time),508174.90000009537,A,body,O,y,170,1,1765.2000000476837,506409.7000000477,7773,WL,C,14.0
4,31.157000064849854,learn,28842.999935150146,Tue Mar 24 2026 10:21:25 GMT-0500 (Central Daylight Time),508609.5,A,bodyenter,O,enter,422,1,2199.7999999523163,506409.7000000477,7773,WL,C,14.0
4,45.26800012588501,learn,14731.99987411499,Tue Mar 24 2026 10:21:25 GMT-0500 (Central Daylight Time),522720.7000000477,A,l,O,l,14098,1,14110.899999856949,508609.80000019073,7773,WL,C,15.0
4,45.55200004577637,learn,14447.999954223633,Tue Mar 24 2026 10:21:25 GMT-0500 (Central Daylight Time),523004.5,A,le,O,e,266,1,14394.699999809265,508609.80000019073,7773,WL,C,15.0
4,45.801000118255615,learn,14198.999881744385,Tue Mar 24 2026 10:21:25 GMT-0500 (Central Daylight Time),523253.2000000477,A,let,O,t,230,1,14643.399999856949,508609.80000019073,7773,WL,C,15.0
4,45.95099997520447,learn,14049.000024795532,Tue Mar 24 2026 10:21:25 GMT-0500 (Central Daylight Time),523403.0,A,lett,O,t,142,1,14793.199999809265,508609.80000019073,7773,WL,C,15.0
4,46.187000036239624,learn,13812.999963760376,Tue Mar 24 2026 10:21:25 GMT-0500 (Central Daylight Time),523639.0,A,lette,O,e,215,1,15029.199999809265,508609.80000019073,7773,WL,C,15.0
4,46.25100016593933,learn,13748.999834060669,Tue Mar 24 2026 10:21:25 GMT-0500 (Central Daylight Time),523702.90000009537,A,letter,O,r,49,1,15093.099999904633,508609.80000019073,7773,WL,C,15.0
4,47.88300013542175,learn,12116.999864578247,Tue Mar 24 2026 10:21:25 GMT-0500 (Central Daylight Time),525335.3000001907,A,letterenter,O,enter,1626,1,16725.5,508609.80000019073,7773,WL,C,15.0
5,1.7160000801086426,learn,60000.0,Tue Mar 24 2026 10:21:25 GMT-0500 (Central Daylight Time),596197.600000143,A,t,O,t,1705,1,1716.0,594481.600000143,7773,WL,C,1.0
5,1.9479999542236328,learn,60000.0,Tue Mar 24 2026 10:21:25 GMT-0500 (Central Daylight Time),596430.3000001907,A,to,O,o,211,1,1948.7000000476837,594481.600000143,7773,WL,C,1.0
5,2.1500000953674316,learn,60000.0,Tue Mar 24 2026 10:21:25 GMT-0500 (Central Daylight Time),596632.0,A,tow,O,w,195,1,2150.399999856949,594481.600000143,7773,WL,C,1.0
5,2.2980000972747803,learn,60000.0,Tue Mar 24 2026 10:21:25 GMT-0500 (Central Daylight Time),596780.0,A,towe,O,e,128,1,2298.399999856949,594481.600000143,7773,WL,C,1.0
5,2.4809999465942383,learn,60000.0,Tue Mar 24 2026 10:21:25 GMT-0500 (Central Daylight Time),596963.0,A,tower,O,r,173,1,2481.399999856949,594481.600000143,7773,WL,C,1.0
5,3.115000009536743,learn,60000.0,Tue Mar 24 2026 10:21:25 GMT-0500 (Central Daylight Time),597596.9000000954,A,towerenter,O,enter,620,1,3115.2999999523163,594481.600000143,7773,WL,C,1.0
5,3.7300000190734863,learn,60000.0,Tue Mar 24 2026 10:21:25 GMT-0500 (Central Daylight Time),598212.2000000477,A,w,O,w,606,1,615.0999999046326,597597.100000143,7773,WL,C,2.0
5,4.065000057220459,learn,60000.0,Tue Mar 24 2026 10:21:25 GMT-0500 (Central Daylight Time),598547.100000143,A,wh,O,h,323,1,950.0,597597.100000143,7773,WL,C,2.0
5,4.383000135421753,learn,60000.0,Tue Mar 24 2026 10:21:25 GMT-0500 (Central Daylight Time),598864.5,A,whe,O,e,311,1,1267.3999998569489,597597.100000143,7773,WL,C,2.0
5,4.63100004196167,learn,60000.0,Tue Mar 24 2026 10:21:25 GMT-0500 (Central Daylight Time),599112.9000000954,A,whea,O,a,235,1,1515.7999999523163,597597.100000143,7773,WL,C,2.0
5,4.848999977111816,learn,60000.0,Tue Mar 24 2026 10:21:25 GMT-0500 (Central Daylight Time),599330.7000000477,A,wheat,O,t,200,1,1733.5999999046326,597597.100000143,7773,WL,C,2.0
5,5.148000001907349,learn,60000.0,Tue Mar 24 2026 10:21:25 GMT-0500 (Central Daylight Time),599629.4000000954,A,wheatenter,O,enter,288,1,2032.2999999523163,597597.100000143,7773,WL,C,2.0
5,5.763999938964844,learn,60000.0,Tue Mar 24 2026 10:21:25 GMT-0500 (Central Daylight Time),600246.3000001907,A,q,O,q,608,1,616.6000001430511,599629.7000000477,7773,WL,C,3.0
5,5.96399998664856,learn,60000.0,Tue Mar 24 2026 10:21:25 GMT-0500 (Central Daylight Time),600445.5,A,qu,O,u,189,1,815.7999999523163,599629.7000000477,7773,WL,C,3.0
5,6.147000074386597,learn,60000.0,Tue Mar 24 2026 10:21:25 GMT-0500 (Central Daylight Time),600629.0,A,que,O,e,173,1,999.2999999523163,599629.7000000477,7773,WL,C,3.0
5,6.296999931335449,learn,60000.0,Tue Mar 24 2026 10:21:25 GMT-0500 (Central Daylight Time),600779.3000001907,A,quee,O,e,141,1,1149.6000001430511,599629.7000000477,7773,WL,C,3.0
5,6.513999938964844,learn,60000.0,Tue Mar 24 2026 10:21:25 GMT-0500 (Central Daylight Time),600996.2000000477,A,queen,O,n,206,1,1366.5,599629.7000000477,7773,WL,C,3.0
5,7.248000144958496,learn,60000.0,Tue Mar 24 2026 10:21:25 GMT-0500 (Central Daylight Time),601729.7000000477,A,queenenter,O,enter,717,1,2100.0,599629.7000000477,7773,WL,C,3.0
5,8.414000034332275,learn,60000.0,Tue Mar 24 2026 10:21:25 GMT-0500 (Central Daylight Time),602896.2000000477,A,s,O,s,1154,1,1166.2000000476837,601730.0,7773,WL,C,4.0
5,8.880000114440918,learn,60000.0,Tue Mar 24 2026 10:21:25 GMT-0500 (Central Daylight Time),603361.4000000954,A,su,O,u,450,1,1631.4000000953674,601730.0,7773,WL,C,4.0
5,9.097000122070312,learn,60000.0,Tue Mar 24 2026 10:21:25 GMT-0500 (Central Daylight Time),603579.2000000477,A,sug,O,g,208,1,1849.2000000476837,601730.0,7773,WL,C,4.0
5,9.396000146865845,learn,60000.0,Tue Mar 24 2026 10:21:25 GMT-0500 (Central Daylight Time),603877.600000143,A,suga,O,a,287,1,2147.600000143051,601730.0,7773,WL,C,4.0
5,9.529000043869019,learn,60000.0,Tue Mar 24 2026 10:21:25 GMT-0500 (Central Daylight Time),604010.8000001907,A,sugar,O,r,122,1,2280.800000190735,601730.0,7773,WL,C,4.0
5,9.896000146865845,learn,60000.0,Tue Mar 24 2026 10:21:25 GMT-0500 (Central Daylight Time),604377.600000143,A,sugarenter,O,enter,351,1,2647.600000143051,601730.0,7773,WL,C,4.0
5,10.52999997138977,learn,60000.0,Tue Mar 24 2026 10:21:25 GMT-0500 (Central Daylight Time),605011.7000000477,A,h,O,h,619,1,633.7000000476837,604378.0,7773,WL,C,5.0
5,10.713000059127808,learn,60000.0,Tue Mar 24 2026 10:21:25 GMT-0500 (Central Daylight Time),605194.4000000954,A,ho,O,o,166,1,816.4000000953674,604378.0,7773,WL,C,5.0
5,10.878999948501587,learn,60000.0,Tue Mar 24 2026 10:21:25 GMT-0500 (Central Daylight Time),605361.3000001907,A,hom,O,m,150,1,983.3000001907349,604378.0,7773,WL,C,5.0
5,11.04699993133545,learn,60000.0,Tue Mar 24 2026 10:21:25 GMT-0500 (Central Daylight Time),605528.9000000954,A,home,O,e,144,1,1150.9000000953674,604378.0,7773,WL,C,5.0
5,11.44700002670288,learn,60000.0,Tue Mar 24 2026 10:21:25 GMT-0500 (Central Daylight Time),605928.4000000954,A,homeenter,O,enter,385,1,1550.4000000953674,604378.0,7773,WL,C,5.0
5,11.847000122070312,learn,60000.0,Tue Mar 24 2026 10:21:25 GMT-0500 (Central Daylight Time),606328.4000000954,A,b,O,b,388,1,399.7999999523163,605928.600000143,7773,WL,C,6.0
5,11.996000051498413,learn,60000.0,Tue Mar 24 2026 10:21:25 GMT-0500 (Central Daylight Time),606477.8000001907,A,bo,O,o,130,1,549.2000000476837,605928.600000143,7773,WL,C,6.0
5,12.213000059127808,learn,60000.0,Tue Mar 24 2026 10:21:25 GMT-0500 (Central Daylight Time),606694.600000143,A,boy,O,y,202,1,766.0,605928.600000143,7773,WL,C,6.0
5,12.611999988555908,learn,60000.0,Tue Mar 24 2026 10:21:25 GMT-0500 (Central Daylight Time),607093.600000143,A,boyenter,O,enter,378,1,1165.0,605928.600000143,7773,WL,C,6.0
5,13.062999963760376,learn,60000.0,Tue Mar 24 2026 10:21:25 GMT-0500 (Central Daylight Time),607544.5,A,d,O,d,430,1,450.69999980926514,607093.8000001907,7773,WL,C,7.0
5,13.196000099182129,learn,60000.0,Tue Mar 24 2026 10:21:25 GMT-0500 (Central Daylight Time),607677.600000143,A,do,O,o,112,1,583.7999999523163,607093.8000001907,7773,WL,C,7.0
5,13.378999948501587,learn,60000.0,Tue Mar 24 2026 10:21:25 GMT-0500 (Central Daylight Time),607860.5,A,doc,O,c,171,1,766.6999998092651,607093.8000001907,7773,WL,C,7.0
5,13.730000019073486,learn,60000.0,Tue Mar 24 2026 10:21:25 GMT-0500 (Central Daylight Time),608211.8000001907,A,doct,O,t,335,1,1118.0,607093.8000001907,7773,WL,C,7.0
5,13.861999988555908,learn,60000.0,Tue Mar 24 2026 10:21:25 GMT-0500 (Central Daylight Time),608343.8000001907,A,docto,O,o,125,1,1250.0,607093.8000001907,7773,WL,C,7.0
5,14.028000116348267,learn,60000.0,Tue Mar 24 2026 10:21:25 GMT-0500 (Central Daylight Time),608510.2000000477,A,doctor,O,r,154,1,1416.3999998569489,607093.8000001907,7773,WL,C,7.0
5,14.67799997329712,learn,60000.0,Tue Mar 24 2026 10:21:25 GMT-0500 (Central Daylight Time),609160.2000000477,A,doctorenter,O,enter,635,1,2066.399999856949,607093.8000001907,7773,WL,C,7.0
5,18.09500002861023,learn,60000.0,Tue Mar 24 2026 10:21:25 GMT-0500 (Central Daylight Time),612576.9000000954,A,c,O,c,3410,1,3416.5,609160.4000000954,7773,WL,C,8.0
5,18.259999990463257,learn,60000.0,Tue Mar 24 2026 10:21:25 GMT-0500 (Central Daylight Time),612742.100000143,A,ca,O,a,154,1,3581.7000000476837,609160.4000000954,7773,WL,C,8.0
5,18.377000093460083,learn,60000.0,Tue Mar 24 2026 10:21:25 GMT-0500 (Central Daylight Time),612858.5,A,cam,O,m,99,1,3698.0999999046326,609160.4000000954,7773,WL,C,8.0
5,18.561000108718872,learn,60000.0,Tue Mar 24 2026 10:21:25 GMT-0500 (Central Daylight Time),613042.8000001907,A,camp,O,p,161,1,3882.4000000953674,609160.4000000954,7773,WL,C,8.0
5,18.979000091552734,learn,60000.0,Tue Mar 24 2026 10:21:25 GMT-0500 (Central Daylight Time),613460.5,A,campenter,O,enter,400,1,4300.099999904633,609160.4000000954,7773,WL,C,8.0
5,20.8270001411438,learn,60000.0,Tue Mar 24 2026 10:21:25 GMT-0500 (Central Daylight Time),615308.600000143,A,l,O,l,1842,1,1847.9000000953674,613460.7000000477,7773,WL,C,9.0
5,20.9760000705719,learn,60000.0,Tue Mar 24 2026 10:21:25 GMT-0500 (Central Daylight Time),615458.4000000954,A,le,O,e,143,1,1997.7000000476837,613460.7000000477,7773,WL,C,9.0
5,21.177000045776367,learn,60000.0,Tue Mar 24 2026 10:21:25 GMT-0500 (Central Daylight Time),615659.4000000954,A,let,O,t,194,1,2198.7000000476837,613460.7000000477,7773,WL,C,9.0
5,21.358999967575073,learn,60000.0,Tue Mar 24 2026 10:21:25 GMT-0500 (Central Daylight Time),615841.2000000477,A,lett,O,t,164,1,2380.5,613460.7000000477,7773,WL,C,9.0
5,21.52500009536743,learn,60000.0,Tue Mar 24 2026 10:21:25 GMT-0500 (Central Daylight Time),616007.3000001907,A,lette,O,e,161,1,2546.600000143051,613460.7000000477,7773,WL,C,9.0
5,21.608999967575073,learn,60000.0,Tue Mar 24 2026 10:21:25 GMT-0500 (Central Daylight Time),616090.7000000477,A,letter,O,r,77,1,2630.0,613460.7000000477,7773,WL,C,9.0
5,21.977999925613403,learn,60000.0,Tue Mar 24 2026 10:21:25 GMT-0500 (Central Daylight Time),616459.600000143,A,letterenter,O,enter,362,1,2998.9000000953674,613460.7000000477,7773,WL,C,9.0
5,22.778000116348267,learn,60000.0,Tue Mar 24 2026 10:21:25 GMT-0500 (Central Daylight Time),617260.100000143,A,f,O,f,796,1,800.2000000476837,616459.9000000954,7773,WL,C,10.0
5,22.975000143051147,learn,60000.0,Tue Mar 24 2026 10:21:25 GMT-0500 (Central Daylight Time),617457.0,A,fl,O,l,183,1,997.0999999046326,616459.9000000954,7773,WL,C,10.0
5,23.193000078201294,learn,60000.0,Tue Mar 24 2026 10:21:25 GMT-0500 (Central Daylight Time),617675.100000143,A,fla,O,a,200,1,1215.2000000476837,616459.9000000954,7773,WL,C,10.0
5,23.443000078201294,learn,60000.0,Tue Mar 24 2026 10:21:25 GMT-0500 (Central Daylight Time),617924.600000143,A,flag,O,g,231,1,1464.7000000476837,616459.9000000954,7773,WL,C,10.0
5,23.758000135421753,learn,60000.0,Tue Mar 24 2026 10:21:25 GMT-0500 (Central Daylight Time),618239.4000000954,A,flagenter,O,enter,293,1,1779.5,616459.9000000954,7773,WL,C,10.0
5,24.174999952316284,learn,60000.0,Tue Mar 24 2026 10:21:25 GMT-0500 (Central Daylight Time),618656.9000000954,A,n,O,n,405,1,417.2999999523163,618239.600000143,7773,WL,C,11.0
5,24.375999927520752,learn,60000.0,Tue Mar 24 2026 10:21:25 GMT-0500 (Central Daylight Time),618858.100000143,A,na,O,a,194,1,618.5,618239.600000143,7773,WL,C,11.0
5,24.526000022888184,learn,60000.0,Tue Mar 24 2026 10:21:25 GMT-0500 (Central Daylight Time),619007.8000001907,A,nai,O,i,126,1,768.2000000476837,618239.600000143,7773,WL,C,11.0
5,24.70900011062622,learn,60000.0,Tue Mar 24 2026 10:21:25 GMT-0500 (Central Daylight Time),619191.0,A,nail,O,l,171,1,951.3999998569489,618239.600000143,7773,WL,C,11.0
5,25.058000087738037,learn,60000.0,Tue Mar 24 2026 10:21:25 GMT-0500 (Central Daylight Time),619539.8000001907,A,nailenter,O,enter,340,1,1300.2000000476837,618239.600000143,7773,WL,C,11.0
5,25.52500009536743,learn,60000.0,Tue Mar 24 2026 10:21:25 GMT-0500 (Central Daylight Time),620006.3000001907,A,s,O,s,457,1,466.30000019073486,619540.0,7773,WL,C,12.0
5,25.674999952316284,learn,60000.0,Tue Mar 24 2026 10:21:25 GMT-0500 (Central Daylight Time),620156.8000001907,A,sh,O,h,131,1,616.8000001907349,619540.0,7773,WL,C,12.0
5,25.85800004005432,learn,60000.0,Tue Mar 24 2026 10:21:25 GMT-0500 (Central Daylight Time),620340.2000000477,A,sho,O,o,171,1,800.2000000476837,619540.0,7773,WL,C,12.0
5,26.0239999294281,learn,60000.0,Tue Mar 24 2026 10:21:25 GMT-0500 (Central Daylight Time),620506.0,A,shor,O,r,149,1,966.0,619540.0,7773,WL,C,12.0
5,26.141000032424927,learn,60000.0,Tue Mar 24 2026 10:21:25 GMT-0500 (Central Daylight Time),620622.9000000954,A,shore,O,e,102,1,1082.9000000953674,619540.0,7773,WL,C,12.0
5,27.157999992370605,learn,60000.0,Tue Mar 24 2026 10:21:25 GMT-0500 (Central Daylight Time),621639.9000000954,A,shoreenter,O,enter,1010,1,2099.9000000953674,619540.0,7773,WL,C,12.0
5,29.990000009536743,learn,60000.0,Tue Mar 24 2026 10:21:25 GMT-0500 (Central Daylight Time),624471.4000000954,A,b,O,b,2819,1,2831.2999999523163,621640.100000143,7773,WL,C,13.0
5,30.207000017166138,learn,60000.0,Tue Mar 24 2026 10:21:25 GMT-0500 (Central Daylight Time),624688.7000000477,A,bo,O,o,204,1,3048.5999999046326,621640.100000143,7773,WL,C,13.0
5,30.407999992370605,learn,60000.0,Tue Mar 24 2026 10:21:25 GMT-0500 (Central Daylight Time),624889.5,A,bod,O,d,180,1,3249.399999856949,621640.100000143,7773,WL,C,13.0
5,30.621999979019165,learn,60000.0,Tue Mar 24 2026 10:21:25 GMT-0500 (Central Daylight Time),625104.3000001907,A,body,O,y,194,1,3464.2000000476837,621640.100000143,7773,WL,C,13.0
5,31.33999991416931,learn,60000.0,Tue Mar 24 2026 10:21:25 GMT-0500 (Central Daylight Time),625821.600000143,A,bodyenter,O,enter,706,1,4181.5,621640.100000143,7773,WL,C,13.0
5,51.81599998474121,learn,60000.0,Tue Mar 24 2026 10:21:25 GMT-0500 (Central Daylight Time),646298.2000000477,A,c,O,c,20472,1,20476.39999985695,625821.8000001907,7773,WL,C,14.0
5,52.06599998474121,learn,60000.0,Tue Mar 24 2026 10:21:25 GMT-0500 (Central Daylight Time),646547.8000001907,A,ca,O,a,231,1,20726.0,625821.8000001907,7773,WL,C,14.0
5,52.3510000705719,learn,60000.0,Tue Mar 24 2026 10:21:25 GMT-0500 (Central Daylight Time),646832.4000000954,A,cat,O,t,279,1,21010.599999904633,625821.8000001907,7773,WL,C,14.0
5,52.5,learn,60000.0,Tue Mar 24 2026 10:21:25 GMT-0500 (Central Daylight Time),646981.600000143,A,catt,O,t,137,1,21159.799999952316,625821.8000001907,7773,WL,C,14.0
5,52.699000120162964,learn,60000.0,Tue Mar 24 2026 10:21:25 GMT-0500 (Central Daylight Time),647180.9000000954,A,cattl,O,l,181,1,21359.099999904633,625821.8000001907,7773,WL,C,14.0
5,52.83200001716614,learn,60000.0,Tue Mar 24 2026 10:21:25 GMT-0500 (Central Daylight Time),647314.0,A,cattle,O,e,119,1,21492.199999809265,625821.8000001907,7773,WL,C,14.0
5,53.949000120162964,learn,60000.0,Tue Mar 24 2026 10:21:25 GMT-0500 (Central Daylight Time),648430.9000000954,A,cattleenter,O,enter,1104,1,22609.099999904633,625821.8000001907,7773,WL,C,14.0
5,69.97699999809265,learn,60000.0,Tue Mar 24 2026 10:21:25 GMT-0500 (Central Daylight Time),664458.8000001907,A,f,O,f,16023,1,16027.700000047684,648431.100000143,7773,WL,C,15.0
6,1.7159998416900635,distr,58284.00015830994,Tue Mar 24 2026 10:21:25 GMT-0500 (Central Daylight Time),734137.9000000954,B,s,O,s,1708,1,1716.5,732421.4000000954,7773,WL,C,1.0
6,2.4149999618530273,distr,57585.00003814697,Tue Mar 24 2026 10:21:25 GMT-0500 (Central Daylight Time),734836.8000001907,B,sk,O,k,678,1,2415.4000000953674,732421.4000000954,7773,WL,C,1.0
6,3.131999969482422,distr,56868.00003051758,Tue Mar 24 2026 10:21:25 GMT-0500 (Central Daylight Time),735553.2000000477,B,sky,O,y,703,1,3131.7999999523163,732421.4000000954,7773,WL,C,1.0
6,3.997999906539917,distr,56002.00009346008,Tue Mar 24 2026 10:21:25 GMT-0500 (Central Daylight Time),736419.5,B,skyenter,O,enter,857,1,3998.0999999046326,732421.4000000954,7773,WL,C,1.0
6,5.0299999713897705,distr,54970.00002861023,Tue Mar 24 2026 10:21:25 GMT-0500 (Central Daylight Time),737451.4000000954,B,d,O,d,1015,1,1031.5999999046326,736419.8000001907,7773,WL,C,2.0
6,5.196999788284302,distr,54803.0002117157,Tue Mar 24 2026 10:21:25 GMT-0500 (Central Daylight Time),737618.9000000954,B,do,O,o,159,1,1199.0999999046326,736419.8000001907,7773,WL,C,2.0
6,5.46399998664856,distr,54536.00001335144,Tue Mar 24 2026 10:21:25 GMT-0500 (Central Daylight Time),737885.9000000954,B,dol,O,l,254,1,1466.0999999046326,736419.8000001907,7773,WL,C,2.0
6,5.664999961853027,distr,54335.00003814697,Tue Mar 24 2026 10:21:25 GMT-0500 (Central Daylight Time),738086.2000000477,B,doll,O,l,191,1,1666.3999998569489,736419.8000001907,7773,WL,C,2.0
6,5.828999996185303,distr,54171.0000038147,Tue Mar 24 2026 10:21:25 GMT-0500 (Central Daylight Time),738251.0,B,dolla,O,a,155,1,1831.1999998092651,736419.8000001907,7773,WL,C,2.0
6,5.930999994277954,distr,54069.000005722046,Tue Mar 24 2026 10:21:25 GMT-0500 (Central Daylight Time),738353.0,B,dollar,O,r,94,1,1933.1999998092651,736419.8000001907,7773,WL,C,2.0
6,6.298999786376953,distr,53701.00021362305,Tue Mar 24 2026 10:21:25 GMT-0500 (Central Daylight Time),738720.4000000954,B,dollarenter,O,enter,361,1,2300.5999999046326,736419.8000001907,7773,WL,C,2.0
6,7.31499981880188,distr,52685.00018119812,Tue Mar 24 2026 10:21:25 GMT-0500 (Central Daylight Time),739736.9000000954,B,v,O,v,994,1,1016.2999999523163,738720.600000143,7773,WL,C,3.0
6,7.5309998989105225,distr,52469.00010108948,Tue Mar 24 2026 10:21:25 GMT-0500 (Central Daylight Time),739952.2000000477,B,va,O,a,193,1,1231.5999999046326,738720.600000143,7773,WL,C,3.0
6,7.697999954223633,distr,52302.00004577637,Tue Mar 24 2026 10:21:25 GMT-0500 (Central Daylight Time),740119.9000000954,B,val,O,l,143,1,1399.2999999523163,738720.600000143,7773,WL,C,3.0
6,7.846999883651733,distr,52153.00011634827,Tue Mar 24 2026 10:21:25 GMT-0500 (Central Daylight Time),740268.9000000954,B,vall,O,l,130,1,1548.2999999523163,738720.600000143,7773,WL,C,3.0
6,7.929999828338623,distr,52070.00017166138,Tue Mar 24 2026 10:21:25 GMT-0500 (Central Daylight Time),740351.2000000477,B,valle,O,e,68,1,1630.5999999046326,738720.600000143,7773,WL,C,3.0
6,8.446999788284302,distr,51553.0002117157,Tue Mar 24 2026 10:21:25 GMT-0500 (Central Daylight Time),740868.2000000477,B,valley,O,y,498,1,2147.5999999046326,738720.600000143,7773,WL,C,3.0
6,9.02899980545044,distr,50971.00019454956,Tue Mar 24 2026 10:21:25 GMT-0500 (Central Daylight Time),741450.600000143,B,valleyenter,O,enter,566,1,2730.0,738720.600000143,7773,WL,C,3.0
6,9.51199984550476,distr,50488.00015449524,Tue Mar 24 2026 10:21:25 GMT-0500 (Central Daylight Time),741933.100000143,B,w,O,w,471,1,482.2999999523163,741450.8000001907,7773,WL,C,4.0
6,9.662999868392944,distr,50337.000131607056,Tue Mar 24 2026 10:21:25 GMT-0500 (Central Daylight Time),742084.3000001907,B,wi,O,i,144,1,633.5,741450.8000001907,7773,WL,C,4.0
6,9.878999948501587,distr,50121.00005149841,Tue Mar 24 2026 10:21:25 GMT-0500 (Central Daylight Time),742300.2000000477,B,win,O,n,206,1,849.3999998569489,741450.8000001907,7773,WL,C,4.0
6,10.013000011444092,distr,49986.99998855591,Tue Mar 24 2026 10:21:25 GMT-0500 (Central Daylight Time),742434.3000001907,B,wint,O,t,117,1,983.5,741450.8000001907,7773,WL,C,4.0
6,10.228999853134155,distr,49771.000146865845,Tue Mar 24 2026 10:21:25 GMT-0500 (Central Daylight Time),742650.600000143,B,winte,O,e,200,1,1199.7999999523163,741450.8000001907,7773,WL,C,4.0
6,10.311999797821045,distr,49688.000202178955,Tue Mar 24 2026 10:21:25 GMT-0500 (Central Daylight Time),742733.5,B,winter,O,r,71,1,1282.6999998092651,741450.8000001907,7773,WL,C,4.0
6,10.878999948501587,distr,49121.00005149841,Tue Mar 24 2026 10:21:25 GMT-0500 (Central Daylight Time),743300.8000001907,B,winterenter,O,enter,549,1,1850.0,741450.8000001907,7773,WL,C,4.0
6,15.578999996185303,distr,44421.0000038147,Tue Mar 24 2026 10:21:25 GMT-0500 (Central Daylight Time),748000.4000000954,B,c,O,c,4677,1,4699.299999952316,743301.100000143,7773,WL,C,5.0
6,15.694000005722046,distr,44305.999994277954,Tue Mar 24 2026 10:21:25 GMT-0500 (Central Daylight Time),748115.9000000954,B,ch,O,h,105,1,4814.799999952316,743301.100000143,7773,WL,C,5.0
6,16.110999822616577,distr,43889.00017738342,Tue Mar 24 2026 10:21:25 GMT-0500 (Central Daylight Time),748532.3000001907,B,chr,O,r,399,1,5231.200000047684,743301.100000143,7773,WL,C,5.0
6,16.277999877929688,distr,43722.00012207031,Tue Mar 24 2026 10:21:25 GMT-0500 (Central Daylight Time),748699.4000000954,B,chri,O,i,161,1,5398.299999952316,743301.100000143,7773,WL,C,5.0
6,16.42799997329712,distr,43572.00002670288,Tue Mar 24 2026 10:21:25 GMT-0500 (Central Daylight Time),748849.7000000477,B,chris,O,s,136,1,5548.599999904633,743301.100000143,7773,WL,C,5.0
6,16.610999822616577,distr,43389.00017738342,Tue Mar 24 2026 10:21:25 GMT-0500 (Central Daylight Time),749032.600000143,B,christ,O,t,170,1,5731.5,743301.100000143,7773,WL,C,5.0
6,16.810999870300293,distr,43189.00012969971,Tue Mar 24 2026 10:21:25 GMT-0500 (Central Daylight Time),749232.2000000477,B,christm,O,m,188,1,5931.099999904633,743301.100000143,7773,WL,C,5.0
6,16.960999965667725,distr,43039.000034332275,Tue Mar 24 2026 10:21:25 GMT-0500 (Central Daylight Time),749382.600000143,B,christma,O,a,130,1,6081.5,743301.100000143,7773,WL,C,5.0
6,17.126999855041504,distr,42873.000144958496,Tue Mar 24 2026 10:21:25 GMT-0500 (Central Daylight Time),749548.600000143,B,christmas,O,s,154,1,6247.5,743301.100000143,7773,WL,C,5.0
6,17.49399995803833,distr,42506.00004196167,Tue Mar 24 2026 10:21:25 GMT-0500 (Central Daylight Time),749915.8000001907,B,christmasenter,O,enter,350,1,6614.700000047684,743301.100000143,7773,WL,C,5.0
6,19.825999975204468,distr,40174.00002479553,Tue Mar 24 2026 10:21:25 GMT-0500 (Central Daylight Time),752247.600000143,B,w,O,w,2320,1,2331.600000143051,749916.0,7773,WL,C,6.0
6,19.992999792099,distr,40007.000207901,Tue Mar 24 2026 10:21:25 GMT-0500 (Central Daylight Time),752414.7000000477,B,wi,O,i,145,1,2498.7000000476837,749916.0,7773,WL,C,6.0
6,20.175999879837036,distr,39824.000120162964,Tue Mar 24 2026 10:21:25 GMT-0500 (Central Daylight Time),752598.0,B,win,O,n,171,1,2682.0,749916.0,7773,WL,C,6.0
6,20.325999975204468,distr,39674.00002479553,Tue Mar 24 2026 10:21:25 GMT-0500 (Central Daylight Time),752747.3000001907,B,wint,O,t,140,1,2831.300000190735,749916.0,7773,WL,C,6.0
6,20.54199981689453,distr,39458.00018310547,Tue Mar 24 2026 10:21:25 GMT-0500 (Central Daylight Time),752963.5,B,winte,O,e,206,1,3047.5,749916.0,7773,WL,C,6.0
6,20.64199995994568,distr,39358.00004005432,Tue Mar 24 2026 10:21:25 GMT-0500 (Central Daylight Time),753063.3000001907,B,winter,O,r,87,1,3147.300000190735,749916.0,7773,WL,C,6.0
6,21.276999950408936,distr,38723.000049591064,Tue Mar 24 2026 10:21:25 GMT-0500 (Central Daylight Time),753698.3000001907,B,winterenter,O,enter,619,1,3782.300000190735,749916.0,7773,WL,C,6.0
6,23.107999801635742,distr,36892.00019836426,Tue Mar 24 2026 10:21:25 GMT-0500 (Central Daylight Time),755529.3000001907,B,m,O,m,1816,1,1830.8000001907349,753698.5,7773,WL,C,7.0
6,23.328999996185303,distr,36671.0000038147,Tue Mar 24 2026 10:21:25 GMT-0500 (Central Daylight Time),755750.2000000477,B,mo,O,o,199,1,2051.7000000476837,753698.5,7773,WL,C,7.0
6,23.509999990463257,distr,36490.00000953674,Tue Mar 24 2026 10:21:25 GMT-0500 (Central Daylight Time),755931.100000143,B,mot,O,t,172,1,2232.600000143051,753698.5,7773,WL,C,7.0
6,23.592000007629395,distr,36407.999992370605,Tue Mar 24 2026 10:21:25 GMT-0500 (Central Daylight Time),756013.7000000477,B,moth,O,h,72,1,2315.2000000476837,753698.5,7773,WL,C,7.0
6,23.741999864578247,distr,36258.00013542175,Tue Mar 24 2026 10:21:25 GMT-0500 (Central Daylight Time),756163.3000001907,B,mothe,O,e,131,1,2464.800000190735,753698.5,7773,WL,C,7.0
6,23.824999809265137,distr,36175.00019073486,Tue Mar 24 2026 10:21:25 GMT-0500 (Central Daylight Time),756246.9000000954,B,mother,O,r,70,1,2548.4000000953674,753698.5,7773,WL,C,7.0
6,24.174999952316284,distr,35825.000047683716,Tue Mar 24 2026 10:21:25 GMT-0500 (Central Daylight Time),756596.4000000954,B,motherenter,O,enter,331,1,2897.9000000953674,753698.5,7773,WL,C,7.0
6,44.03399991989136,distr,15966.000080108643,Tue Mar 24 2026 10:21:25 GMT-0500 (Central Daylight Time),776455.9000000954,B,enter,O,enter,19846,1,19859.299999952316,756596.600000143,7773,WL,C,8.0
6,44.549999952316284,distr,15450.000047683716,Tue Mar 24 2026 10:21:25 GMT-0500 (Central Daylight Time),776972.2000000477,B,enter,O,enter,497,1,516.0,776456.2000000477,7773,WL,C,9.0
6,44.9689998626709,distr,15031.000137329102,Tue Mar 24 2026 10:21:25 GMT-0500 (Central Daylight Time),777390.5,B,enter,O,enter,409,1,418.09999990463257,776972.4000000954,7773,WL,C,10.0
6,45.401999950408936,distr,14598.000049591064,Tue Mar 24 2026 10:21:25 GMT-0500 (Central Daylight Time),777824.0,B,enter,O,enter,413,1,433.19999980926514,777390.8000001907,7773,WL,C,11.0
6,45.800999879837036,distr,14199.000120162964,Tue Mar 24 2026 10:21:25 GMT-0500 (Central Daylight Time),778222.8000001907,B,enter,O,enter,387,1,398.60000014305115,777824.2000000477,7773,WL,C,12.0
6,46.19999980926514,distr,13800.000190734863,Tue Mar 24 2026 10:21:25 GMT-0500 (Central Daylight Time),778622.100000143,B,enter,O,enter,379,1,399.10000014305115,778223.0,7773,WL,C,13.0
6,46.567999839782715,distr,13432.000160217285,Tue Mar 24 2026 10:21:25 GMT-0500 (Central Daylight Time),778989.5,B,enter,O,enter,356,1,367.09999990463257,778622.4000000954,7773,WL,C,14.0
6,46.98299980163574,distr,13017.000198364258,Tue Mar 24 2026 10:21:25 GMT-0500 (Central Daylight Time),779405.100000143,B,enter,O,enter,398,1,415.40000009536743,778989.7000000477,7773,WL,C,15.0
7,16.2979998588562,immed,43702.0001411438,Tue Mar 24 2026 10:21:25 GMT-0500 (Central Daylight Time),797785.600000143,A,s,O,s,16276,1,16297.100000143051,781488.5,7773,WL,C,1.0
7,16.626999855041504,immed,43373.000144958496,Tue Mar 24 2026 10:21:25 GMT-0500 (Central Daylight Time),798115.3000001907,A,sk,O,k,312,1,16626.800000190735,781488.5,7773,WL,C,1.0
7,16.894999980926514,immed,43105.000019073486,Tue Mar 24 2026 10:21:25 GMT-0500 (Central Daylight Time),798383.3000001907,A,sky,O,y,262,1,16894.800000190735,781488.5,7773,WL,C,1.0
7,17.478999853134155,immed,42521.000146865845,Tue Mar 24 2026 10:21:25 GMT-0500 (Central Daylight Time),798966.5,A,skyenter,O,enter,572,1,17478.0,781488.5,7773,WL,C,1.0
7,18.227999925613403,immed,41772.0000743866,Tue Mar 24 2026 10:21:25 GMT-0500 (Central Daylight Time),799716.0,A,v,O,v,733,1,749.1999998092651,798966.8000001907,7773,WL,C,2.0
7,18.411999940872192,immed,41588.00005912781,Tue Mar 24 2026 10:21:25 GMT-0500 (Central Daylight Time),799899.4000000954,A,va,O,a,162,1,932.5999999046326,798966.8000001907,7773,WL,C,2.0
7,18.562000036239624,immed,41437.999963760376,Tue Mar 24 2026 10:21:25 GMT-0500 (Central Daylight Time),800049.9000000954,A,val,O,l,146,1,1083.0999999046326,798966.8000001907,7773,WL,C,2.0
7,18.69599986076355,immed,41304.00013923645,Tue Mar 24 2026 10:21:25 GMT-0500 (Central Daylight Time),800183.7000000477,A,vall,O,l,127,1,1216.8999998569489,798966.8000001907,7773,WL,C,2.0
7,18.812000036239624,immed,41187.999963760376,Tue Mar 24 2026 10:21:25 GMT-0500 (Central Daylight Time),800299.8000001907,A,valle,O,e,100,1,1333.0,798966.8000001907,7773,WL,C,2.0
7,19.01099991798401,immed,40989.00008201599,Tue Mar 24 2026 10:21:25 GMT-0500 (Central Daylight Time),800498.9000000954,A,valley,O,y,190,1,1532.0999999046326,798966.8000001907,7773,WL,C,2.0
7,19.361999988555908,immed,40638.00001144409,Tue Mar 24 2026 10:21:25 GMT-0500 (Central Daylight Time),800849.9000000954,A,valleyenter,O,enter,345,1,1883.0999999046326,798966.8000001907,7773,WL,C,2.0
7,20.527999877929688,immed,39472.00012207031,Tue Mar 24 2026 10:21:25 GMT-0500 (Central Daylight Time),802015.8000001907,A,d,O,d,1153,1,1165.6000001430511,800850.2000000477,7773,WL,C,3.0
7,20.628000020980835,immed,39371.999979019165,Tue Mar 24 2026 10:21:25 GMT-0500 (Central Daylight Time),802116.2000000477,A,do,O,o,82,1,1266.0,800850.2000000477,7773,WL,C,3.0
7,20.76199984550476,immed,39238.00015449524,Tue Mar 24 2026 10:21:25 GMT-0500 (Central Daylight Time),802249.8000001907,A,dol,O,l,125,1,1399.6000001430511,800850.2000000477,7773,WL,C,3.0
7,20.908999919891357,immed,39091.00008010864,Tue Mar 24 2026 10:21:25 GMT-0500 (Central Daylight Time),802396.600000143,A,doll,O,l,135,1,1546.4000000953674,800850.2000000477,7773,WL,C,3.0
7,20.99399995803833,immed,39006.00004196167,Tue Mar 24 2026 10:21:25 GMT-0500 (Central Daylight Time),802481.4000000954,A,dolla,O,a,71,1,1631.2000000476837,800850.2000000477,7773,WL,C,3.0
7,21.07699990272522,immed,38923.00009727478,Tue Mar 24 2026 10:21:25 GMT-0500 (Central Daylight Time),802564.600000143,A,dollar,O,r,72,1,1714.4000000953674,800850.2000000477,7773,WL,C,3.0
7,21.376999855041504,immed,38623.000144958496,Tue Mar 24 2026 10:21:25 GMT-0500 (Central Daylight Time),802864.600000143,A,dollarenter,O,enter,286,1,2014.4000000953674,800850.2000000477,7773,WL,C,3.0
7,21.875999927520752,immed,38124.00007247925,Tue Mar 24 2026 10:21:25 GMT-0500 (Central Daylight Time),803364.4000000954,A,w,O,w,490,1,499.5,802864.9000000954,7773,WL,C,4.0
7,22.01199984550476,immed,37988.00015449524,Tue Mar 24 2026 10:21:25 GMT-0500 (Central Daylight Time),803500.0,A,wi,O,i,125,1,635.0999999046326,802864.9000000954,7773,WL,C,4.0
7,22.17899990081787,immed,37821.00009918213,Tue Mar 24 2026 10:21:25 GMT-0500 (Central Daylight Time),803666.600000143,A,win,O,n,159,1,801.7000000476837,802864.9000000954,7773,WL,C,4.0
7,22.276999950408936,immed,37723.000049591064,Tue Mar 24 2026 10:21:25 GMT-0500 (Central Daylight Time),803764.7000000477,A,wint,O,t,77,1,899.7999999523163,802864.9000000954,7773,WL,C,4.0
7,22.47599983215332,immed,37524.00016784668,Tue Mar 24 2026 10:21:25 GMT-0500 (Central Daylight Time),803964.100000143,A,winte,O,e,178,1,1099.2000000476837,802864.9000000954,7773,WL,C,4.0
7,22.55999994277954,immed,37440.00005722046,Tue Mar 24 2026 10:21:25 GMT-0500 (Central Daylight Time),804047.7000000477,A,winter,O,r,68,1,1182.7999999523163,802864.9000000954,7773,WL,C,4.0
7,22.925999879837036,immed,37074.000120162964,Tue Mar 24 2026 10:21:25 GMT-0500 (Central Daylight Time),804413.9000000954,A,winterenter,O,enter,351,1,1549.0,802864.9000000954,7773,WL,C,4.0
7,23.842999935150146,immed,36157.00006484985,Tue Mar 24 2026 10:21:25 GMT-0500 (Central Daylight Time),805331.3000001907,A,c,O,c,902,1,917.2000000476837,804414.100000143,7773,WL,C,5.0
7,23.961999893188477,immed,36038.00010681152,Tue Mar 24 2026 10:21:25 GMT-0500 (Central Daylight Time),805450.100000143,A,ch,O,h,111,1,1036.0,804414.100000143,7773,WL,C,5.0
7,24.210999965667725,immed,35789.000034332275,Tue Mar 24 2026 10:21:25 GMT-0500 (Central Daylight Time),805699.0,A,chr,O,r,242,1,1284.8999998569489,804414.100000143,7773,WL,C,5.0
7,24.30999994277954,immed,35690.00005722046,Tue Mar 24 2026 10:21:25 GMT-0500 (Central Daylight Time),805797.5,A,chri,O,i,86,1,1383.3999998569489,804414.100000143,7773,WL,C,5.0
7,24.55900001525879,immed,35440.99998474121,Tue Mar 24 2026 10:21:25 GMT-0500 (Central Daylight Time),806046.7000000477,A,chris,O,s,225,1,1632.5999999046326,804414.100000143,7773,WL,C,5.0
7,24.743000030517578,immed,35256.99996948242,Tue Mar 24 2026 10:21:25 GMT-0500 (Central Daylight Time),806230.5,A,christ,O,t,162,1,1816.3999998569489,804414.100000143,7773,WL,C,5.0
7,24.89299988746643,immed,35107.00011253357,Tue Mar 24 2026 10:21:25 GMT-0500 (Central Daylight Time),806380.9000000954,A,christm,O,m,129,1,1966.7999999523163,804414.100000143,7773,WL,C,5.0
7,25.026000022888184,immed,34973.99997711182,Tue Mar 24 2026 10:21:25 GMT-0500 (Central Daylight Time),806513.7000000477,A,christma,O,a,125,1,2099.5999999046326,804414.100000143,7773,WL,C,5.0
7,25.175999879837036,immed,34824.000120162964,Tue Mar 24 2026 10:21:25 GMT-0500 (Central Daylight Time),806664.0,A,christmas,O,s,134,1,2249.899999856949,804414.100000143,7773,WL,C,5.0
7,25.55900001525879,immed,34440.99998474121,Tue Mar 24 2026 10:21:25 GMT-0500 (Central Daylight Time),807047.0,A,christmasenter,O,enter,369,1,2632.899999856949,804414.100000143,7773,WL,C,5.0
7,26.39199995994568,immed,33608.00004005432,Tue Mar 24 2026 10:21:25 GMT-0500 (Central Daylight Time),807879.600000143,A,m,O,m,813,1,832.2999999523163,807047.3000001907,7773,WL,C,6.0
7,26.557999849319458,immed,33442.00015068054,Tue Mar 24 2026 10:21:25 GMT-0500 (Central Daylight Time),808046.3000001907,A,mo,O,o,153,1,999.0,807047.3000001907,7773,WL,C,6.0
7,26.72499990463257,immed,33275.00009536743,Tue Mar 24 2026 10:21:25 GMT-0500 (Central Daylight Time),808212.9000000954,A,mot,O,t,155,1,1165.5999999046326,807047.3000001907,7773,WL,C,6.0
7,26.807999849319458,immed,33192.00015068054,Tue Mar 24 2026 10:21:25 GMT-0500 (Central Daylight Time),808296.3000001907,A,moth,O,h,59,1,1249.0,807047.3000001907,7773,WL,C,6.0
7,26.94099998474121,immed,33059.00001525879,Tue Mar 24 2026 10:21:25 GMT-0500 (Central Daylight Time),808429.3000001907,A,mothe,O,e,119,1,1382.0,807047.3000001907,7773,WL,C,6.0
7,27.04199981689453,immed,32958.00018310547,Tue Mar 24 2026 10:21:25 GMT-0500 (Central Daylight Time),808529.8000001907,A,mother,O,r,87,1,1482.5,807047.3000001907,7773,WL,C,6.0
7,27.408999919891357,immed,32591.000080108643,Tue Mar 24 2026 10:21:25 GMT-0500 (Central Daylight Time),808897.100000143,A,motherenter,O,enter,351,1,1849.7999999523163,807047.3000001907,7773,WL,C,6.0
7,28.007999897003174,immed,31992.000102996826,Tue Mar 24 2026 10:21:25 GMT-0500 (Central Daylight Time),809495.8000001907,A,f,O,f,586,1,598.5,808897.3000001907,7773,WL,C,7.0
7,28.19099998474121,immed,31809.00001525879,Tue Mar 24 2026 10:21:25 GMT-0500 (Central Daylight Time),809679.2000000477,A,fi,O,i,162,1,781.8999998569489,808897.3000001907,7773,WL,C,7.0
7,28.507999897003174,immed,31492.000102996826,Tue Mar 24 2026 10:21:25 GMT-0500 (Central Daylight Time),809995.4000000954,A,fie,O,e,305,1,1098.0999999046326,808897.3000001907,7773,WL,C,7.0
7,28.674999952316284,immed,31325.000047683716,Tue Mar 24 2026 10:21:25 GMT-0500 (Central Daylight Time),810163.100000143,A,fiel,O,l,150,1,1265.7999999523163,808897.3000001907,7773,WL,C,7.0
7,28.824999809265137,immed,31175.000190734863,Tue Mar 24 2026 10:21:25 GMT-0500 (Central Daylight Time),810313.0,A,field,O,d,136,1,1415.6999998092651,808897.3000001907,7773,WL,C,7.0
7,29.274999856948853,immed,30725.000143051147,Tue Mar 24 2026 10:21:25 GMT-0500 (Central Daylight Time),810762.4000000954,A,fieldenter,O,enter,433,1,1865.0999999046326,808897.3000001907,7773,WL,C,7.0
7,34.84299993515015,immed,25157.000064849854,Tue Mar 24 2026 10:21:25 GMT-0500 (Central Daylight Time),816330.9000000954,A,m,O,m,5564,1,5568.200000047684,810762.7000000477,7773,WL,C,8.0
7,35.056999921798706,immed,24943.000078201294,Tue Mar 24 2026 10:21:25 GMT-0500 (Central Daylight Time),816545.100000143,A,mo,O,o,205,1,5782.400000095367,810762.7000000477,7773,WL,C,8.0
7,35.27300000190735,immed,24726.99999809265,Tue Mar 24 2026 10:21:25 GMT-0500 (Central Daylight Time),816761.2000000477,A,mot,O,t,191,1,5998.5,810762.7000000477,7773,WL,C,8.0
7,35.33799982070923,immed,24662.00017929077,Tue Mar 24 2026 10:21:25 GMT-0500 (Central Daylight Time),816825.5,A,moth,O,h,54,1,6062.799999952316,810762.7000000477,7773,WL,C,8.0
7,35.49000000953674,immed,24509.999990463257,Tue Mar 24 2026 10:21:25 GMT-0500 (Central Daylight Time),816977.9000000954,A,mothe,O,e,134,1,6215.200000047684,810762.7000000477,7773,WL,C,8.0
7,35.57299995422363,immed,24427.000045776367,Tue Mar 24 2026 10:21:25 GMT-0500 (Central Daylight Time),817060.600000143,A,mother,O,r,63,1,6297.900000095367,810762.7000000477,7773,WL,C,8.0
7,36.371999979019165,immed,23628.000020980835,Tue Mar 24 2026 10:21:25 GMT-0500 (Central Daylight Time),817859.7000000477,A,motherenter,O,enter,787,1,7097.0,810762.7000000477,7773,WL,C,8.0
7,60.01600003242493,immed,-16.000032424926758,Tue Mar 24 2026 10:21:25 GMT-0500 (Central Daylight Time),841504.100000143,A,None,O,None,23639,1,23644.0,817860.100000143,7773,WL,C,9.0
