block_c,block_dur,condition,countdown,datetime,endtime,list,multichar_response,project,response,response_time,session_number,start_end,starttime,subject_id,task,task_vers,trial
,,,,Wed Aug 13 2025 18:36:48 GMT-0500 (Central Daylight Time),,,,I,space,765,3,,,8019,WL,B,
prac,,0,,Wed Aug 13 2025 18:36:48 GMT-0500 (Central Daylight Time),,NA,b,I,b,3213,3,,,8019,WL,B,1.0
prac,,0,,Wed Aug 13 2025 18:36:48 GMT-0500 (Central Daylight Time),,NA,bo,I,o,255,3,,,8019,WL,B,1.0
prac,,0,,Wed Aug 13 2025 18:36:48 GMT-0500 (Central Daylight Time),,NA,boo,I,o,118,3,,,8019,WL,B,1.0
prac,,0,,Wed Aug 13 2025 18:36:48 GMT-0500 (Central Daylight Time),,NA,boos,I,s,594,3,,,8019,WL,B,1.0
prac,,0,,Wed Aug 13 2025 18:36:48 GMT-0500 (Central Daylight Time),,NA,boost,I,t,577,3,,,8019,WL,B,1.0
prac,,0,,Wed Aug 13 2025 18:36:48 GMT-0500 (Central Daylight Time),,NA,boostenter,I,enter,2533,3,,,8019,WL,B,1.0
1,1.6000001430511475,learn,58399.99985694885,Wed Aug 13 2025 18:36:48 GMT-0500 (Central Daylight Time),130938.60000002384,A,p,I,p,1593,3,1599.1000000238419,129339.5,8019,WL,B,1.0
1,1.7170000076293945,learn,58282.999992370605,Wed Aug 13 2025 18:36:48 GMT-0500 (Central Daylight Time),131055.5,A,pi,I,i,97,3,1716.0,129339.5,8019,WL,B,1.0
1,1.8500001430511475,learn,58149.99985694885,Wed Aug 13 2025 18:36:48 GMT-0500 (Central Daylight Time),131188.80000001192,A,pip,I,p,125,3,1849.300000011921,129339.5,8019,WL,B,1.0
1,2.4670000076293945,learn,57532.999992370605,Wed Aug 13 2025 18:36:48 GMT-0500 (Central Daylight Time),131805.30000001192,A,pipe,I,e,608,3,2465.800000011921,129339.5,8019,WL,B,1.0
1,4.999000072479248,learn,55000.99992752075,Wed Aug 13 2025 18:36:48 GMT-0500 (Central Daylight Time),134337.69999998808,A,pipef,I,f,2526,3,4998.199999988079,129339.5,8019,WL,B,1.0
1,5.14900016784668,learn,54850.99983215332,Wed Aug 13 2025 18:36:48 GMT-0500 (Central Daylight Time),134487.69999998808,A,pipefi,I,i,131,3,5148.199999988079,129339.5,8019,WL,B,1.0
1,5.2820000648498535,learn,54717.99993515015,Wed Aug 13 2025 18:36:48 GMT-0500 (Central Daylight Time),134620.80000001192,A,pipefir,I,r,117,3,5281.300000011921,129339.5,8019,WL,B,1.0
1,5.348999977111816,learn,54651.00002288818,Wed Aug 13 2025 18:36:48 GMT-0500 (Central Daylight Time),134687.69999998808,A,pipefire,I,e,48,3,5348.199999988079,129339.5,8019,WL,B,1.0
1,10.597000122070312,learn,49402.99987792969,Wed Aug 13 2025 18:36:48 GMT-0500 (Central Daylight Time),139935.80000001192,A,pipefires,I,s,5237,3,10596.300000011921,129339.5,8019,WL,B,1.0
1,10.781000137329102,learn,49218.9998626709,Wed Aug 13 2025 18:36:48 GMT-0500 (Central Daylight Time),140119.5,A,pipefirest,I,t,165,3,10780.0,129339.5,8019,WL,B,1.0
1,11.19700002670288,learn,48802.99997329712,Wed Aug 13 2025 18:36:48 GMT-0500 (Central Daylight Time),140535.60000002384,A,pipefirestr,I,r,396,3,11196.100000023842,129339.5,8019,WL,B,1.0
1,11.53000020980835,learn,48469.99979019165,Wed Aug 13 2025 18:36:48 GMT-0500 (Central Daylight Time),140869.0,A,pipefirestre,I,e,316,3,11529.5,129339.5,8019,WL,B,1.0
1,11.647000074386597,learn,48352.9999256134,Wed Aug 13 2025 18:36:48 GMT-0500 (Central Daylight Time),140985.69999998808,A,pipefirestree,I,e,104,3,11646.199999988079,129339.5,8019,WL,B,1.0
1,11.814000129699707,learn,48185.99987030029,Wed Aug 13 2025 18:36:48 GMT-0500 (Central Daylight Time),141152.40000003576,A,pipefirestreet,I,t,147,3,11812.900000035763,129339.5,8019,WL,B,1.0
1,14.729000091552734,learn,45270.999908447266,Wed Aug 13 2025 18:36:48 GMT-0500 (Central Daylight Time),144068.0,A,pipefirestree,I,backspace,2908,3,14728.5,129339.5,8019,WL,B,1.0
1,15.029000043869019,learn,44970.99995613098,Wed Aug 13 2025 18:36:48 GMT-0500 (Central Daylight Time),144367.90000003576,A,pipefirestre,I,backspace,288,3,15028.400000035763,129339.5,8019,WL,B,1.0
1,15.196000099182129,learn,44803.99990081787,Wed Aug 13 2025 18:36:48 GMT-0500 (Central Daylight Time),144534.60000002384,A,pipefirestr,I,backspace,156,3,15195.100000023842,129339.5,8019,WL,B,1.0
1,15.34600019454956,learn,44653.99980545044,Wed Aug 13 2025 18:36:48 GMT-0500 (Central Daylight Time),144684.5,A,pipefirest,I,backspace,134,3,15345.0,129339.5,8019,WL,B,1.0
1,15.479000091552734,learn,44520.999908447266,Wed Aug 13 2025 18:36:48 GMT-0500 (Central Daylight Time),144817.80000001192,A,pipefires,I,backspace,120,3,15478.300000011921,129339.5,8019,WL,B,1.0
1,15.629000186920166,learn,44370.999813079834,Wed Aug 13 2025 18:36:48 GMT-0500 (Central Daylight Time),144967.69999998808,A,pipefire,I,backspace,131,3,15628.199999988079,129339.5,8019,WL,B,1.0
1,15.76200008392334,learn,44237.99991607666,Wed Aug 13 2025 18:36:48 GMT-0500 (Central Daylight Time),145101.0,A,pipefir,I,backspace,125,3,15761.5,129339.5,8019,WL,B,1.0
1,16.111999988555908,learn,43888.00001144409,Wed Aug 13 2025 18:36:48 GMT-0500 (Central Daylight Time),145451.10000002384,A,pipefi,I,backspace,336,3,16111.600000023842,129339.5,8019,WL,B,1.0
1,16.379000186920166,learn,43620.999813079834,Wed Aug 13 2025 18:36:48 GMT-0500 (Central Daylight Time),145717.60000002384,A,pipef,I,backspace,250,3,16378.100000023842,129339.5,8019,WL,B,1.0
1,16.66200017929077,learn,43337.99982070923,Wed Aug 13 2025 18:36:48 GMT-0500 (Central Daylight Time),146000.69999998808,A,pipe,I,backspace,262,3,16661.19999998808,129339.5,8019,WL,B,1.0
1,17.628000020980835,learn,42371.999979019165,Wed Aug 13 2025 18:36:48 GMT-0500 (Central Daylight Time),146967.0,A,pipeenter,I,enter,956,3,17627.5,129339.5,8019,WL,B,1.0
1,20.32800006866455,learn,39671.99993133545,Wed Aug 13 2025 18:36:48 GMT-0500 (Central Daylight Time),149666.5,A,s,I,s,2678,3,2699.099999964237,146967.40000003576,8019,WL,B,2.0
1,20.544000148773193,learn,39455.99985122681,Wed Aug 13 2025 18:36:48 GMT-0500 (Central Daylight Time),149883.10000002384,A,st,I,t,202,3,2915.699999988079,146967.40000003576,8019,WL,B,2.0
1,20.811000108718872,learn,39188.99989128113,Wed Aug 13 2025 18:36:48 GMT-0500 (Central Daylight Time),150149.5,A,str,I,r,258,3,3182.099999964237,146967.40000003576,8019,WL,B,2.0
1,21.027000188827515,learn,38972.999811172485,Wed Aug 13 2025 18:36:48 GMT-0500 (Central Daylight Time),150366.10000002384,A,stre,I,e,207,3,3398.699999988079,146967.40000003576,8019,WL,B,2.0
1,21.177000045776367,learn,38822.99995422363,Wed Aug 13 2025 18:36:48 GMT-0500 (Central Daylight Time),150516.10000002384,A,stree,I,e,142,3,3548.699999988079,146967.40000003576,8019,WL,B,2.0
1,21.311000108718872,learn,38688.99989128113,Wed Aug 13 2025 18:36:48 GMT-0500 (Central Daylight Time),150649.80000001192,A,street,I,t,112,3,3682.399999976158,146967.40000003576,8019,WL,B,2.0
1,21.927000045776367,learn,38072.99995422363,Wed Aug 13 2025 18:36:48 GMT-0500 (Central Daylight Time),151265.90000003576,A,streetenter,I,enter,603,3,4298.5,146967.40000003576,8019,WL,B,2.0
1,22.627000093460083,learn,37372.99990653992,Wed Aug 13 2025 18:36:48 GMT-0500 (Central Daylight Time),151965.60000002384,A,f,I,f,683,3,699.3000000119209,151266.30000001192,8019,WL,B,3.0
1,22.72699999809265,learn,37273.00000190735,Wed Aug 13 2025 18:36:48 GMT-0500 (Central Daylight Time),152065.5,A,fi,I,i,78,3,799.1999999880791,151266.30000001192,8019,WL,B,3.0
1,22.860000133514404,learn,37139.999866485596,Wed Aug 13 2025 18:36:48 GMT-0500 (Central Daylight Time),152199.0,A,fir,I,r,115,3,932.6999999880791,151266.30000001192,8019,WL,B,3.0
1,22.927000045776367,learn,37072.99995422363,Wed Aug 13 2025 18:36:48 GMT-0500 (Central Daylight Time),152265.69999998808,A,fire,I,e,45,3,999.3999999761581,151266.30000001192,8019,WL,B,3.0
1,23.1780002117157,learn,36821.9997882843,Wed Aug 13 2025 18:36:48 GMT-0500 (Central Daylight Time),152516.40000003576,A,fireenter,I,enter,243,3,1250.1000000238419,151266.30000001192,8019,WL,B,3.0
1,24.2260000705719,learn,35773.9999294281,Wed Aug 13 2025 18:36:48 GMT-0500 (Central Daylight Time),153565.10000002384,A,c,I,c,1041,3,1048.300000011921,152516.80000001192,8019,WL,B,4.0
1,24.343000173568726,learn,35656.999826431274,Wed Aug 13 2025 18:36:48 GMT-0500 (Central Daylight Time),153681.80000001192,A,ca,I,a,96,3,1165.0,152516.80000001192,8019,WL,B,4.0
1,24.55900001525879,learn,35440.99998474121,Wed Aug 13 2025 18:36:48 GMT-0500 (Central Daylight Time),153898.10000002384,A,can,I,n,211,3,1381.300000011921,152516.80000001192,8019,WL,B,4.0
1,25.14300012588501,learn,34856.99987411499,Wed Aug 13 2025 18:36:48 GMT-0500 (Central Daylight Time),154481.5,A,canb,I,b,571,3,1964.699999988079,152516.80000001192,8019,WL,B,4.0
1,25.360000133514404,learn,34639.999866485596,Wed Aug 13 2025 18:36:48 GMT-0500 (Central Daylight Time),154698.19999998808,A,canbi,I,i,211,3,2181.399999976158,152516.80000001192,8019,WL,B,4.0
1,25.443000078201294,learn,34556.999921798706,Wed Aug 13 2025 18:36:48 GMT-0500 (Central Daylight Time),154781.40000003576,A,canbin,I,n,67,3,2264.600000023842,152516.80000001192,8019,WL,B,4.0
1,25.9760000705719,learn,34023.9999294281,Wed Aug 13 2025 18:36:48 GMT-0500 (Central Daylight Time),155314.60000002384,A,canbinenter,I,enter,520,3,2797.800000011921,152516.80000001192,8019,WL,B,4.0
1,26.442000150680542,learn,33557.99984931946,Wed Aug 13 2025 18:36:48 GMT-0500 (Central Daylight Time),155781.0,A,p,I,p,459,3,465.89999997615814,155315.10000002384,8019,WL,B,5.0
1,26.77500009536743,learn,33224.99990463257,Wed Aug 13 2025 18:36:48 GMT-0500 (Central Daylight Time),156113.90000003576,A,pu,I,u,327,3,798.8000000119209,155315.10000002384,8019,WL,B,5.0
1,27.29200005531311,learn,32707.99994468689,Wed Aug 13 2025 18:36:48 GMT-0500 (Central Daylight Time),156631.0,A,pup,I,p,508,3,1315.8999999761581,155315.10000002384,8019,WL,B,5.0
1,27.52500009536743,learn,32474.99990463257,Wed Aug 13 2025 18:36:48 GMT-0500 (Central Daylight Time),156864.0,A,pupi,I,i,213,3,1548.8999999761581,155315.10000002384,8019,WL,B,5.0
1,27.70900011062622,learn,32290.99988937378,Wed Aug 13 2025 18:36:48 GMT-0500 (Central Daylight Time),157047.40000003576,A,pupil,I,l,173,3,1732.300000011921,155315.10000002384,8019,WL,B,5.0
1,28.592000007629395,learn,31407.999992370605,Wed Aug 13 2025 18:36:48 GMT-0500 (Central Daylight Time),157930.30000001192,A,pupilenter,I,enter,870,3,2615.199999988079,155315.10000002384,8019,WL,B,5.0
1,31.491000175476074,learn,28508.999824523926,Wed Aug 13 2025 18:36:48 GMT-0500 (Central Daylight Time),160829.5,A,g,I,g,2882,3,2898.899999976158,157930.60000002384,8019,WL,B,6.0
1,31.707000017166138,learn,28292.999982833862,Wed Aug 13 2025 18:36:48 GMT-0500 (Central Daylight Time),161046.10000002384,A,gr,I,r,208,3,3115.5,157930.60000002384,8019,WL,B,6.0
1,31.79100012779236,learn,28208.99987220764,Wed Aug 13 2025 18:36:48 GMT-0500 (Central Daylight Time),161129.5,A,gra,I,a,78,3,3198.899999976158,157930.60000002384,8019,WL,B,6.0
1,32.09100008010864,learn,27908.999919891357,Wed Aug 13 2025 18:36:48 GMT-0500 (Central Daylight Time),161429.30000001192,A,gras,I,s,283,3,3498.699999988079,157930.60000002384,8019,WL,B,6.0
1,32.20700001716614,learn,27792.999982833862,Wed Aug 13 2025 18:36:48 GMT-0500 (Central Daylight Time),161545.90000003576,A,grass,I,s,112,3,3615.300000011921,157930.60000002384,8019,WL,B,6.0
1,32.69000005722046,learn,27309.99994277954,Wed Aug 13 2025 18:36:48 GMT-0500 (Central Daylight Time),162029.10000002384,A,grassenter,I,enter,468,3,4098.5,157930.60000002384,8019,WL,B,6.0
1,35.25600004196167,learn,24743.99995803833,Wed Aug 13 2025 18:36:48 GMT-0500 (Central Daylight Time),164594.60000002384,A,d,I,d,2560,3,2565.100000023842,162029.5,8019,WL,B,7.0
1,35.473000049591064,learn,24526.999950408936,Wed Aug 13 2025 18:36:48 GMT-0500 (Central Daylight Time),164811.60000002384,A,do,I,o,203,3,2782.100000023842,162029.5,8019,WL,B,7.0
1,35.60600018501282,learn,24393.999814987183,Wed Aug 13 2025 18:36:48 GMT-0500 (Central Daylight Time),164944.90000003576,A,doo,I,o,121,3,2915.400000035763,162029.5,8019,WL,B,7.0
1,35.69000005722046,learn,24309.99994277954,Wed Aug 13 2025 18:36:48 GMT-0500 (Central Daylight Time),165028.30000001192,A,door,I,r,77,3,2998.800000011921,162029.5,8019,WL,B,7.0
1,36.43900012969971,learn,23560.999870300293,Wed Aug 13 2025 18:36:48 GMT-0500 (Central Daylight Time),165777.90000003576,A,doorenter,I,enter,729,3,3748.400000035763,162029.5,8019,WL,B,7.0
1,37.57200002670288,learn,22427.99997329712,Wed Aug 13 2025 18:36:48 GMT-0500 (Central Daylight Time),166911.10000002384,A,s,I,s,1123,3,1132.800000011921,165778.30000001192,8019,WL,B,8.0
1,37.75500011444092,learn,22244.999885559082,Wed Aug 13 2025 18:36:48 GMT-0500 (Central Daylight Time),167093.90000003576,A,st,I,t,166,3,1315.6000000238419,165778.30000001192,8019,WL,B,8.0
1,37.90500020980835,learn,22094.99979019165,Wed Aug 13 2025 18:36:48 GMT-0500 (Central Daylight Time),167244.10000002384,A,sta,I,a,136,3,1465.800000011921,165778.30000001192,8019,WL,B,8.0
1,38.33800005912781,learn,21661.999940872192,Wed Aug 13 2025 18:36:48 GMT-0500 (Central Daylight Time),167677.19999998808,A,star,I,r,425,3,1898.8999999761581,165778.30000001192,8019,WL,B,8.0
1,39.72100019454956,learn,20278.99980545044,Wed Aug 13 2025 18:36:48 GMT-0500 (Central Daylight Time),169060.19999998808,A,starenter,I,enter,1375,3,3281.899999976158,165778.30000001192,8019,WL,B,8.0
1,41.504000186920166,learn,18495.999813079834,Wed Aug 13 2025 18:36:48 GMT-0500 (Central Daylight Time),170842.60000002384,A,a,I,a,1778,3,1782.0,169060.60000002384,8019,WL,B,9.0
1,41.63700008392334,learn,18362.99991607666,Wed Aug 13 2025 18:36:48 GMT-0500 (Central Daylight Time),170976.30000001192,A,ar,I,r,114,3,1915.699999988079,169060.60000002384,8019,WL,B,9.0
1,42.104000091552734,learn,17895.999908447266,Wed Aug 13 2025 18:36:48 GMT-0500 (Central Daylight Time),171442.90000003576,A,arm,I,m,452,3,2382.300000011921,169060.60000002384,8019,WL,B,9.0
1,43.53700017929077,learn,16462.99982070923,Wed Aug 13 2025 18:36:48 GMT-0500 (Central Daylight Time),172875.60000002384,A,armenter,I,enter,1419,3,3815.0,169060.60000002384,8019,WL,B,9.0
1,48.76800012588501,learn,11231.99987411499,Wed Aug 13 2025 18:36:48 GMT-0500 (Central Daylight Time),178107.30000001192,A,c,I,c,5226,3,5231.399999976158,172875.90000003576,8019,WL,B,10.0
1,48.86800003051758,learn,11131.999969482422,Wed Aug 13 2025 18:36:48 GMT-0500 (Central Daylight Time),178207.30000001192,A,ca,I,a,89,3,5331.399999976158,172875.90000003576,8019,WL,B,10.0
1,49.068000078201294,learn,10931.999921798706,Wed Aug 13 2025 18:36:48 GMT-0500 (Central Daylight Time),178407.19999998808,A,cab,I,b,190,3,5531.299999952316,172875.90000003576,8019,WL,B,10.0
1,49.60199999809265,learn,10398.000001907349,Wed Aug 13 2025 18:36:48 GMT-0500 (Central Daylight Time),178940.80000001192,A,cabi,I,i,518,3,6064.899999976158,172875.90000003576,8019,WL,B,10.0
1,49.735000133514404,learn,10264.999866485596,Wed Aug 13 2025 18:36:48 GMT-0500 (Central Daylight Time),179073.69999998808,A,cabin,I,n,127,3,6197.799999952316,172875.90000003576,8019,WL,B,10.0
1,50.401000022888184,learn,9598.999977111816,Wed Aug 13 2025 18:36:48 GMT-0500 (Central Daylight Time),179740.19999998808,A,cabinenter,I,enter,652,3,6864.299999952316,172875.90000003576,8019,WL,B,10.0
1,57.99900007247925,learn,2000.999927520752,Wed Aug 13 2025 18:36:48 GMT-0500 (Central Daylight Time),187338.10000002384,A,w,I,w,7586,3,7597.600000023842,179740.5,8019,WL,B,11.0
1,58.132000207901,learn,1867.999792098999,Wed Aug 13 2025 18:36:48 GMT-0500 (Central Daylight Time),187471.10000002384,A,wi,I,i,123,3,7730.600000023842,179740.5,8019,WL,B,11.0
1,58.199000120162964,learn,1800.9998798370361,Wed Aug 13 2025 18:36:48 GMT-0500 (Central Daylight Time),187537.69999998808,A,win,I,n,54,3,7797.199999988079,179740.5,8019,WL,B,11.0
1,58.665000200271606,learn,1334.9997997283936,Wed Aug 13 2025 18:36:48 GMT-0500 (Central Daylight Time),188004.19999998808,A,wind,I,d,452,3,8263.699999988079,179740.5,8019,WL,B,11.0
1,58.81500005722046,learn,1184.999942779541,Wed Aug 13 2025 18:36:48 GMT-0500 (Central Daylight Time),188154.30000001192,A,windo,I,o,137,3,8413.800000011921,179740.5,8019,WL,B,11.0
1,58.99900007247925,learn,1000.999927520752,Wed Aug 13 2025 18:36:48 GMT-0500 (Central Daylight Time),188337.80000001192,A,window,I,w,170,3,8597.300000011921,179740.5,8019,WL,B,11.0
1,59.61500000953674,learn,384.99999046325684,Wed Aug 13 2025 18:36:48 GMT-0500 (Central Daylight Time),188953.90000003576,A,windowenter,I,enter,595,3,9213.400000035763,179740.5,8019,WL,B,11.0
1,60.015000104904175,learn,-15.000104904174805,Wed Aug 13 2025 18:36:48 GMT-0500 (Central Daylight Time),189354.0,A,None,I,None,396,3,399.80000001192093,188954.19999998808,8019,WL,B,12.0
2,2.4160001277923584,learn,57583.99987220764,Wed Aug 13 2025 18:36:48 GMT-0500 (Central Daylight Time),263264.10000002384,A,s,I,s,2398,3,2415.900000035763,260848.19999998808,8019,WL,B,1.0
2,2.5820000171661377,learn,57417.99998283386,Wed Aug 13 2025 18:36:48 GMT-0500 (Central Daylight Time),263430.60000002384,A,st,I,t,156,3,2582.400000035763,260848.19999998808,8019,WL,B,1.0
2,2.7829999923706055,learn,57217.000007629395,Wed Aug 13 2025 18:36:48 GMT-0500 (Central Daylight Time),263630.60000002384,A,str,I,r,182,3,2782.400000035763,260848.19999998808,8019,WL,B,1.0
2,3.015000104904175,learn,56984.999895095825,Wed Aug 13 2025 18:36:48 GMT-0500 (Central Daylight Time),263863.5,A,stre,I,e,215,3,3015.300000011921,260848.19999998808,8019,WL,B,1.0
2,3.133000135421753,learn,56866.99986457825,Wed Aug 13 2025 18:36:48 GMT-0500 (Central Daylight Time),263980.6999999881,A,stree,I,e,102,3,3132.5,260848.19999998808,8019,WL,B,1.0
2,3.2820000648498535,learn,56717.99993515015,Wed Aug 13 2025 18:36:48 GMT-0500 (Central Daylight Time),264130.1999999881,A,street,I,t,145,3,3282.0,260848.19999998808,8019,WL,B,1.0
2,3.8989999294281006,learn,56101.0000705719,Wed Aug 13 2025 18:36:48 GMT-0500 (Central Daylight Time),264747.1999999881,A,streetenter,I,enter,603,3,3899.0,260848.19999998808,8019,WL,B,1.0
2,4.249000072479248,learn,55750.99992752075,Wed Aug 13 2025 18:36:48 GMT-0500 (Central Daylight Time),265096.8000000119,A,g,I,g,338,3,349.19999998807907,264747.60000002384,8019,WL,B,2.0
2,4.447999954223633,learn,55552.00004577637,Wed Aug 13 2025 18:36:48 GMT-0500 (Central Daylight Time),265296.5,A,gr,I,r,180,3,548.8999999761581,264747.60000002384,8019,WL,B,2.0
2,4.615000009536743,learn,55384.99999046326,Wed Aug 13 2025 18:36:48 GMT-0500 (Central Daylight Time),265463.10000002384,A,gra,I,a,157,3,715.5,264747.60000002384,8019,WL,B,2.0
2,5.697999954223633,learn,54302.00004577637,Wed Aug 13 2025 18:36:48 GMT-0500 (Central Daylight Time),266546.3000000119,A,gras,I,s,1070,3,1798.699999988079,264747.60000002384,8019,WL,B,2.0
2,6.299000024795532,learn,53700.99997520447,Wed Aug 13 2025 18:36:48 GMT-0500 (Central Daylight Time),267147.0,A,grass,I,s,594,3,2399.399999976158,264747.60000002384,8019,WL,B,2.0
2,6.648000001907349,learn,53351.99999809265,Wed Aug 13 2025 18:36:48 GMT-0500 (Central Daylight Time),267496.10000002384,A,grassenter,I,enter,338,3,2748.5,264747.60000002384,8019,WL,B,2.0
2,7.397000074386597,learn,52602.9999256134,Wed Aug 13 2025 18:36:48 GMT-0500 (Central Daylight Time),268245.40000003576,A,d,I,d,732,3,749.0,267496.40000003576,8019,WL,B,3.0
2,7.614000082015991,learn,52385.99991798401,Wed Aug 13 2025 18:36:48 GMT-0500 (Central Daylight Time),268462.1999999881,A,do,I,o,199,3,965.7999999523163,267496.40000003576,8019,WL,B,3.0
2,7.748000144958496,learn,52251.999855041504,Wed Aug 13 2025 18:36:48 GMT-0500 (Central Daylight Time),268595.6999999881,A,doo,I,o,119,3,1099.2999999523163,267496.40000003576,8019,WL,B,3.0
2,7.88100004196167,learn,52118.99995803833,Wed Aug 13 2025 18:36:48 GMT-0500 (Central Daylight Time),268729.3000000119,A,door,I,r,113,3,1232.8999999761581,267496.40000003576,8019,WL,B,3.0
2,8.364000082015991,learn,51635.99991798401,Wed Aug 13 2025 18:36:48 GMT-0500 (Central Daylight Time),269212.10000002384,A,doorenter,I,enter,475,3,1715.699999988079,267496.40000003576,8019,WL,B,3.0
2,12.796000003814697,learn,47203.9999961853,Wed Aug 13 2025 18:36:48 GMT-0500 (Central Daylight Time),273644.10000002384,A,w,I,w,4417,3,4431.600000023842,269212.5,8019,WL,B,4.0
2,12.92900013923645,learn,47070.99986076355,Wed Aug 13 2025 18:36:48 GMT-0500 (Central Daylight Time),273777.40000003576,A,wi,I,i,121,3,4564.900000035763,269212.5,8019,WL,B,4.0
2,13.128999948501587,learn,46871.00005149841,Wed Aug 13 2025 18:36:48 GMT-0500 (Central Daylight Time),273977.3000000119,A,wif,I,f,180,3,4764.800000011921,269212.5,8019,WL,B,4.0
2,14.194999933242798,learn,45805.0000667572,Wed Aug 13 2025 18:36:48 GMT-0500 (Central Daylight Time),275043.5,A,wife,I,e,1060,3,5831.0,269212.5,8019,WL,B,4.0
2,14.34500002861023,learn,45654.99997138977,Wed Aug 13 2025 18:36:48 GMT-0500 (Central Daylight Time),275193.5,A,wifeenter,I,enter,137,3,5981.0,269212.5,8019,WL,B,4.0
2,15.34500002861023,learn,44654.99997138977,Wed Aug 13 2025 18:36:48 GMT-0500 (Central Daylight Time),276193.10000002384,A,s,I,s,979,3,999.1999999880791,275193.90000003576,8019,WL,B,5.0
2,15.528000116348267,learn,44471.99988365173,Wed Aug 13 2025 18:36:48 GMT-0500 (Central Daylight Time),276376.60000002384,A,st,I,t,171,3,1182.699999988079,275193.90000003576,8019,WL,B,5.0
2,15.644999980926514,learn,44355.000019073486,Wed Aug 13 2025 18:36:48 GMT-0500 (Central Daylight Time),276493.3000000119,A,sta,I,a,101,3,1299.3999999761581,275193.90000003576,8019,WL,B,5.0
2,16.51099991798401,learn,43489.00008201599,Wed Aug 13 2025 18:36:48 GMT-0500 (Central Daylight Time),277359.5,A,star,I,r,855,3,2165.599999964237,275193.90000003576,8019,WL,B,5.0
2,17.278000116348267,learn,42721.99988365173,Wed Aug 13 2025 18:36:48 GMT-0500 (Central Daylight Time),278126.10000002384,A,starenter,I,enter,750,3,2932.199999988079,275193.90000003576,8019,WL,B,5.0
2,17.977999925613403,learn,42022.0000743866,Wed Aug 13 2025 18:36:48 GMT-0500 (Central Daylight Time),278825.90000003576,A,a,I,a,696,3,699.4000000357628,278126.5,8019,WL,B,6.0
2,18.07800006866455,learn,41921.99993133545,Wed Aug 13 2025 18:36:48 GMT-0500 (Central Daylight Time),278925.6999999881,A,ar,I,r,84,3,799.1999999880791,278126.5,8019,WL,B,6.0
2,18.528000116348267,learn,41471.99988365173,Wed Aug 13 2025 18:36:48 GMT-0500 (Central Daylight Time),279375.8000000119,A,arm,I,m,440,3,1249.300000011921,278126.5,8019,WL,B,6.0
2,19.111000061035156,learn,40888.999938964844,Wed Aug 13 2025 18:36:48 GMT-0500 (Central Daylight Time),279958.90000003576,A,armenter,I,enter,574,3,1832.4000000357628,278126.5,8019,WL,B,6.0
2,21.842999935150146,learn,38157.00006484985,Wed Aug 13 2025 18:36:48 GMT-0500 (Central Daylight Time),282691.1999999881,A,p,I,p,2719,3,2732.0,279959.1999999881,8019,WL,B,7.0
2,22.210000038146973,learn,37789.99996185303,Wed Aug 13 2025 18:36:48 GMT-0500 (Central Daylight Time),283057.8000000119,A,pu,I,u,362,3,3098.600000023842,279959.1999999881,8019,WL,B,7.0
2,22.89300012588501,learn,37106.99987411499,Wed Aug 13 2025 18:36:48 GMT-0500 (Central Daylight Time),283740.6999999881,A,pup,I,p,676,3,3781.5,279959.1999999881,8019,WL,B,7.0
2,23.176000118255615,learn,36823.999881744385,Wed Aug 13 2025 18:36:48 GMT-0500 (Central Daylight Time),284024.1999999881,A,pupu,I,u,271,3,4065.0,279959.1999999881,8019,WL,B,7.0
2,23.625999927520752,learn,36374.00007247925,Wed Aug 13 2025 18:36:48 GMT-0500 (Central Daylight Time),284474.1999999881,A,pupul,I,l,445,3,4515.0,279959.1999999881,8019,WL,B,7.0
2,24.259000062942505,learn,35740.999937057495,Wed Aug 13 2025 18:36:48 GMT-0500 (Central Daylight Time),285107.5,A,pupulenter,I,enter,619,3,5148.300000011921,279959.1999999881,8019,WL,B,7.0
2,26.125,learn,33875.0,Wed Aug 13 2025 18:36:48 GMT-0500 (Central Daylight Time),286973.1999999881,A,c,I,c,1850,3,1865.5,285107.6999999881,8019,WL,B,8.0
2,26.240999937057495,learn,33759.000062942505,Wed Aug 13 2025 18:36:48 GMT-0500 (Central Daylight Time),287089.8000000119,A,ci,I,i,96,3,1982.1000000238419,285107.6999999881,8019,WL,B,8.0
2,26.52500009536743,learn,33474.99990463257,Wed Aug 13 2025 18:36:48 GMT-0500 (Central Daylight Time),287373.0,A,ciy,I,y,276,3,2265.300000011921,285107.6999999881,8019,WL,B,8.0
2,27.758000135421753,learn,32241.999864578247,Wed Aug 13 2025 18:36:48 GMT-0500 (Central Daylight Time),288606.0,A,ci,I,backspace,1216,3,3498.300000011921,285107.6999999881,8019,WL,B,8.0
2,28.69000005722046,learn,31309.99994277954,Wed Aug 13 2025 18:36:48 GMT-0500 (Central Daylight Time),289538.6999999881,A,cit,I,t,928,3,4431.0,285107.6999999881,8019,WL,B,8.0
2,28.824000120162964,learn,31175.999879837036,Wed Aug 13 2025 18:36:48 GMT-0500 (Central Daylight Time),289672.3000000119,A,city,I,y,123,3,4564.600000023842,285107.6999999881,8019,WL,B,8.0
2,29.407000064849854,learn,30592.999935150146,Wed Aug 13 2025 18:36:48 GMT-0500 (Central Daylight Time),290255.5,A,cityenter,I,enter,564,3,5147.800000011921,285107.6999999881,8019,WL,B,8.0
2,32.375,learn,27625.0,Wed Aug 13 2025 18:36:48 GMT-0500 (Central Daylight Time),293223.1999999881,A,c,I,c,2963,3,2967.399999976158,290255.8000000119,8019,WL,B,9.0
2,32.388999938964844,learn,27611.000061035156,Wed Aug 13 2025 18:36:48 GMT-0500 (Central Daylight Time),293237.40000003576,A,ca,I,a,5,3,2981.600000023842,290255.8000000119,8019,WL,B,9.0
2,32.93900012969971,learn,27060.999870300293,Wed Aug 13 2025 18:36:48 GMT-0500 (Central Daylight Time),293787.8000000119,A,cab,I,b,545,3,3532.0,290255.8000000119,8019,WL,B,9.0
2,33.1560001373291,learn,26843.9998626709,Wed Aug 13 2025 18:36:48 GMT-0500 (Central Daylight Time),294004.40000003576,A,cabi,I,i,210,3,3748.600000023842,290255.8000000119,8019,WL,B,9.0
2,33.305999994277954,learn,26694.000005722046,Wed Aug 13 2025 18:36:48 GMT-0500 (Central Daylight Time),294154.1999999881,A,cabin,I,n,136,3,3898.399999976158,290255.8000000119,8019,WL,B,9.0
2,33.888999938964844,learn,26111.000061035156,Wed Aug 13 2025 18:36:48 GMT-0500 (Central Daylight Time),294737.5,A,cabinenter,I,enter,579,3,4481.699999988079,290255.8000000119,8019,WL,B,9.0
2,34.638999938964844,learn,25361.000061035156,Wed Aug 13 2025 18:36:48 GMT-0500 (Central Daylight Time),295487.1999999881,A,l,I,l,740,3,749.3999999761581,294737.8000000119,8019,WL,B,10.0
2,34.789000034332275,learn,25210.999965667725,Wed Aug 13 2025 18:36:48 GMT-0500 (Central Daylight Time),295637.40000003576,A,la,I,a,134,3,899.6000000238419,294737.8000000119,8019,WL,B,10.0
2,34.92199993133545,learn,25078.00006866455,Wed Aug 13 2025 18:36:48 GMT-0500 (Central Daylight Time),295770.10000002384,A,lak,I,k,127,3,1032.300000011921,294737.8000000119,8019,WL,B,10.0
2,35.388999938964844,learn,24611.000061035156,Wed Aug 13 2025 18:36:48 GMT-0500 (Central Daylight Time),296236.90000003576,A,lake,I,e,451,3,1499.1000000238419,294737.8000000119,8019,WL,B,10.0
2,35.82200002670288,learn,24177.99997329712,Wed Aug 13 2025 18:36:48 GMT-0500 (Central Daylight Time),296670.10000002384,A,lakeenter,I,enter,425,3,1932.300000011921,294737.8000000119,8019,WL,B,10.0
2,37.937999963760376,learn,22062.000036239624,Wed Aug 13 2025 18:36:48 GMT-0500 (Central Daylight Time),298786.1999999881,A,p,I,p,2104,3,2115.699999988079,296670.5,8019,WL,B,11.0
2,38.00500011444092,learn,21994.999885559082,Wed Aug 13 2025 18:36:48 GMT-0500 (Central Daylight Time),298852.90000003576,A,pi,I,i,58,3,2182.400000035763,296670.5,8019,WL,B,11.0
2,38.82100009918213,learn,21178.99990081787,Wed Aug 13 2025 18:36:48 GMT-0500 (Central Daylight Time),299669.1999999881,A,pip,I,p,801,3,2998.699999988079,296670.5,8019,WL,B,11.0
2,38.97099995613098,learn,21029.00004386902,Wed Aug 13 2025 18:36:48 GMT-0500 (Central Daylight Time),299819.0,A,pipe,I,e,144,3,3148.5,296670.5,8019,WL,B,11.0
2,39.80400013923645,learn,20195.99986076355,Wed Aug 13 2025 18:36:48 GMT-0500 (Central Daylight Time),300652.0,A,pipeenter,I,enter,818,3,3981.5,296670.5,8019,WL,B,11.0
2,40.98699998855591,learn,19013.00001144409,Wed Aug 13 2025 18:36:48 GMT-0500 (Central Daylight Time),301835.3000000119,A,s,I,s,1170,3,1182.8999999761581,300652.40000003576,8019,WL,B,12.0
2,41.13700008392334,learn,18862.99991607666,Wed Aug 13 2025 18:36:48 GMT-0500 (Central Daylight Time),301985.1999999881,A,sk,I,k,129,3,1332.7999999523163,300652.40000003576,8019,WL,B,12.0
2,41.3529999256134,learn,18647.000074386597,Wed Aug 13 2025 18:36:48 GMT-0500 (Central Daylight Time),302201.5,A,ski,I,i,204,3,1549.0999999642372,300652.40000003576,8019,WL,B,12.0
2,41.47000002861023,learn,18529.99997138977,Wed Aug 13 2025 18:36:48 GMT-0500 (Central Daylight Time),302318.1999999881,A,skin,I,n,99,3,1665.7999999523163,300652.40000003576,8019,WL,B,12.0
2,42.170000076293945,learn,17829.999923706055,Wed Aug 13 2025 18:36:48 GMT-0500 (Central Daylight Time),303018.1999999881,A,skinenter,I,enter,686,3,2365.7999999523163,300652.40000003576,8019,WL,B,12.0
2,44.401999950408936,learn,15598.000049591064,Wed Aug 13 2025 18:36:48 GMT-0500 (Central Daylight Time),305250.60000002384,A,f,I,f,2228,3,2232.100000023842,303018.5,8019,WL,B,13.0
2,44.51900005340576,learn,15480.999946594238,Wed Aug 13 2025 18:36:48 GMT-0500 (Central Daylight Time),305367.1999999881,A,fi,I,i,107,3,2348.699999988079,303018.5,8019,WL,B,13.0
2,44.66900014877319,learn,15330.999851226807,Wed Aug 13 2025 18:36:48 GMT-0500 (Central Daylight Time),305517.40000003576,A,fir,I,r,134,3,2498.900000035763,303018.5,8019,WL,B,13.0
2,44.736000061035156,learn,15263.999938964844,Wed Aug 13 2025 18:36:48 GMT-0500 (Central Daylight Time),305583.90000003576,A,fire,I,e,55,3,2565.400000035763,303018.5,8019,WL,B,13.0
2,46.38499999046326,learn,13615.000009536743,Wed Aug 13 2025 18:36:48 GMT-0500 (Central Daylight Time),307233.40000003576,A,fireenter,I,enter,1644,3,4214.900000035763,303018.5,8019,WL,B,13.0
2,50.467000007629395,learn,9532.999992370605,Wed Aug 13 2025 18:36:48 GMT-0500 (Central Daylight Time),311315.5,A,c,I,c,4067,3,4081.899999976158,307233.60000002384,8019,WL,B,14.0
2,50.6010000705719,learn,9398.9999294281,Wed Aug 13 2025 18:36:48 GMT-0500 (Central Daylight Time),311448.90000003576,A,cl,I,l,122,3,4215.300000011921,307233.60000002384,8019,WL,B,14.0
2,50.85000014305115,learn,9149.999856948853,Wed Aug 13 2025 18:36:48 GMT-0500 (Central Daylight Time),311698.5,A,clo,I,o,245,3,4464.899999976158,307233.60000002384,8019,WL,B,14.0
2,51.049999952316284,learn,8950.000047683716,Wed Aug 13 2025 18:36:48 GMT-0500 (Central Daylight Time),311898.40000003576,A,cloc,I,c,194,3,4664.800000011921,307233.60000002384,8019,WL,B,14.0
2,51.18400001525879,learn,8815.999984741211,Wed Aug 13 2025 18:36:48 GMT-0500 (Central Daylight Time),312032.0,A,clock,I,k,114,3,4798.399999976158,307233.60000002384,8019,WL,B,14.0
2,52.01699995994568,learn,7983.000040054321,Wed Aug 13 2025 18:36:48 GMT-0500 (Central Daylight Time),312865.10000002384,A,clockenter,I,enter,822,3,5631.5,307233.60000002384,8019,WL,B,14.0
2,60.013999938964844,learn,-13.99993896484375,Wed Aug 13 2025 18:36:48 GMT-0500 (Central Daylight Time),320862.8000000119,A,None,I,None,7993,3,7997.300000011921,312865.5,8019,WL,B,15.0
3,1.2160000801086426,learn,58783.99991989136,Wed Aug 13 2025 18:36:48 GMT-0500 (Central Daylight Time),389307.6999999881,A,s,I,s,1211,3,1216.5,388091.1999999881,8019,WL,B,1.0
3,1.4660000801086426,learn,58533.99991989136,Wed Aug 13 2025 18:36:48 GMT-0500 (Central Daylight Time),389557.60000002384,A,st,I,t,242,3,1466.4000000357628,388091.1999999881,8019,WL,B,1.0
3,2.382999897003174,learn,57617.000102996826,Wed Aug 13 2025 18:36:48 GMT-0500 (Central Daylight Time),390474.10000002384,A,str,I,r,903,3,2382.900000035763,388091.1999999881,8019,WL,B,1.0
3,2.5160000324249268,learn,57483.99996757507,Wed Aug 13 2025 18:36:48 GMT-0500 (Central Daylight Time),390607.6999999881,A,strr,I,r,116,3,2516.5,388091.1999999881,8019,WL,B,1.0
3,2.632999897003174,learn,57367.000102996826,Wed Aug 13 2025 18:36:48 GMT-0500 (Central Daylight Time),390724.0,A,strre,I,e,110,3,2632.800000011921,388091.1999999881,8019,WL,B,1.0
3,3.7320001125335693,learn,56267.99988746643,Wed Aug 13 2025 18:36:48 GMT-0500 (Central Daylight Time),391823.6999999881,A,strr,I,backspace,1090,3,3732.5,388091.1999999881,8019,WL,B,1.0
3,4.2149999141693115,learn,55785.00008583069,Wed Aug 13 2025 18:36:48 GMT-0500 (Central Daylight Time),392306.90000003576,A,str,I,backspace,470,3,4215.700000047684,388091.1999999881,8019,WL,B,1.0
3,5.732000112533569,learn,54267.99988746643,Wed Aug 13 2025 18:36:48 GMT-0500 (Central Daylight Time),393823.0,A,stre,I,e,1499,3,5731.800000011921,388091.1999999881,8019,WL,B,1.0
3,5.865000009536743,learn,54134.99999046326,Wed Aug 13 2025 18:36:48 GMT-0500 (Central Daylight Time),393956.3000000119,A,stree,I,e,126,3,5865.100000023842,388091.1999999881,8019,WL,B,1.0
3,6.015000104904175,learn,53984.999895095825,Wed Aug 13 2025 18:36:48 GMT-0500 (Central Daylight Time),394106.0,A,street,I,t,144,3,6014.800000011921,388091.1999999881,8019,WL,B,1.0
3,6.88100004196167,learn,53118.99995803833,Wed Aug 13 2025 18:36:48 GMT-0500 (Central Daylight Time),394972.60000002384,A,streetenter,I,enter,860,3,6881.400000035763,388091.1999999881,8019,WL,B,1.0
3,7.88100004196167,learn,52118.99995803833,Wed Aug 13 2025 18:36:48 GMT-0500 (Central Daylight Time),395972.1999999881,A,g,I,g,985,3,999.2999999523163,394972.90000003576,8019,WL,B,2.0
3,8.280999898910522,learn,51719.00010108948,Wed Aug 13 2025 18:36:48 GMT-0500 (Central Daylight Time),396372.1999999881,A,gr,I,r,385,3,1399.2999999523163,394972.90000003576,8019,WL,B,2.0
3,8.414000034332275,learn,51585.999965667725,Wed Aug 13 2025 18:36:48 GMT-0500 (Central Daylight Time),396505.5,A,gra,I,a,112,3,1532.5999999642372,394972.90000003576,8019,WL,B,2.0
3,8.846999883651733,learn,51153.00011634827,Wed Aug 13 2025 18:36:48 GMT-0500 (Central Daylight Time),396938.8000000119,A,gras,I,s,412,3,1965.8999999761581,394972.90000003576,8019,WL,B,2.0
3,8.94700002670288,learn,51052.99997329712,Wed Aug 13 2025 18:36:48 GMT-0500 (Central Daylight Time),397038.6999999881,A,grass,I,s,82,3,2065.7999999523163,394972.90000003576,8019,WL,B,2.0
3,9.46399998664856,learn,50536.00001335144,Wed Aug 13 2025 18:36:48 GMT-0500 (Central Daylight Time),397555.10000002384,A,grassenter,I,enter,503,3,2582.199999988079,394972.90000003576,8019,WL,B,2.0
3,10.496999979019165,learn,49503.000020980835,Wed Aug 13 2025 18:36:48 GMT-0500 (Central Daylight Time),398588.10000002384,A,d,I,d,1027,3,1032.6000000238419,397555.5,8019,WL,B,3.0
3,11.04699993133545,learn,48953.00006866455,Wed Aug 13 2025 18:36:48 GMT-0500 (Central Daylight Time),399138.1999999881,A,do,I,o,545,3,1582.699999988079,397555.5,8019,WL,B,3.0
3,11.180000066757202,learn,48819.9999332428,Wed Aug 13 2025 18:36:48 GMT-0500 (Central Daylight Time),399271.1999999881,A,doo,I,o,124,3,1715.699999988079,397555.5,8019,WL,B,3.0
3,11.812999963760376,learn,48187.000036239624,Wed Aug 13 2025 18:36:48 GMT-0500 (Central Daylight Time),399904.5,A,door,I,r,622,3,2349.0,397555.5,8019,WL,B,3.0
3,12.513000011444092,learn,47486.99998855591,Wed Aug 13 2025 18:36:48 GMT-0500 (Central Daylight Time),400604.1999999881,A,doorenter,I,enter,685,3,3048.699999988079,397555.5,8019,WL,B,3.0
3,14.079999923706055,learn,45920.000076293945,Wed Aug 13 2025 18:36:48 GMT-0500 (Central Daylight Time),402171.40000003576,A,a,I,a,1560,3,1566.9000000357628,400604.5,8019,WL,B,4.0
3,14.279000043869019,learn,45720.99995613098,Wed Aug 13 2025 18:36:48 GMT-0500 (Central Daylight Time),402370.10000002384,A,ar,I,r,193,3,1765.6000000238419,400604.5,8019,WL,B,4.0
3,14.611999988555908,learn,45388.00001144409,Wed Aug 13 2025 18:36:48 GMT-0500 (Central Daylight Time),402703.6999999881,A,arm,I,m,324,3,2099.199999988079,400604.5,8019,WL,B,4.0
3,15.778000116348267,learn,44221.99988365173,Wed Aug 13 2025 18:36:48 GMT-0500 (Central Daylight Time),403869.8000000119,A,armenter,I,enter,1158,3,3265.300000011921,400604.5,8019,WL,B,4.0
3,16.92799997329712,learn,43072.00002670288,Wed Aug 13 2025 18:36:48 GMT-0500 (Central Daylight Time),405019.60000002384,A,s,I,s,1135,3,1149.4000000357628,403870.1999999881,8019,WL,B,5.0
3,17.09500002861023,learn,42904.99997138977,Wed Aug 13 2025 18:36:48 GMT-0500 (Central Daylight Time),405186.1999999881,A,st,I,t,154,3,1316.0,403870.1999999881,8019,WL,B,5.0
3,17.528000116348267,learn,42471.99988365173,Wed Aug 13 2025 18:36:48 GMT-0500 (Central Daylight Time),405618.90000003576,A,sta,I,a,428,3,1748.7000000476837,403870.1999999881,8019,WL,B,5.0
3,17.76099991798401,learn,42239.00008201599,Wed Aug 13 2025 18:36:48 GMT-0500 (Central Daylight Time),405852.40000003576,A,star,I,r,227,3,1982.2000000476837,403870.1999999881,8019,WL,B,5.0
3,18.39400005340576,learn,41605.99994659424,Wed Aug 13 2025 18:36:48 GMT-0500 (Central Daylight Time),406485.5,A,starenter,I,enter,624,3,2615.300000011921,403870.1999999881,8019,WL,B,5.0
3,19.344000101089478,learn,40655.99989891052,Wed Aug 13 2025 18:36:48 GMT-0500 (Central Daylight Time),407435.5,A,w,I,w,936,3,949.5999999642372,406485.90000003576,8019,WL,B,6.0
3,19.543999910354614,learn,40456.000089645386,Wed Aug 13 2025 18:36:48 GMT-0500 (Central Daylight Time),407635.60000002384,A,wi,I,i,185,3,1149.699999988079,406485.90000003576,8019,WL,B,6.0
3,19.776999950408936,learn,40223.000049591064,Wed Aug 13 2025 18:36:48 GMT-0500 (Central Daylight Time),407868.40000003576,A,wif,I,f,225,3,1382.5,406485.90000003576,8019,WL,B,6.0
3,19.89299988746643,learn,40107.00011253357,Wed Aug 13 2025 18:36:48 GMT-0500 (Central Daylight Time),407985.10000002384,A,wife,I,e,105,3,1499.199999988079,406485.90000003576,8019,WL,B,6.0
3,20.47699999809265,learn,39523.00000190735,Wed Aug 13 2025 18:36:48 GMT-0500 (Central Daylight Time),408568.5,A,wifeenter,I,enter,572,3,2082.599999964237,406485.90000003576,8019,WL,B,6.0
3,22.492000102996826,learn,37507.999897003174,Wed Aug 13 2025 18:36:48 GMT-0500 (Central Daylight Time),410584.5,A,w,I,w,2004,3,2015.699999988079,408568.8000000119,8019,WL,B,7.0
3,22.742000102996826,learn,37257.999897003174,Wed Aug 13 2025 18:36:48 GMT-0500 (Central Daylight Time),410834.1999999881,A,wi,I,i,245,3,2265.399999976158,408568.8000000119,8019,WL,B,7.0
3,23.043999910354614,learn,36956.000089645386,Wed Aug 13 2025 18:36:48 GMT-0500 (Central Daylight Time),411136.1999999881,A,win,I,n,298,3,2567.399999976158,408568.8000000119,8019,WL,B,7.0
3,23.19099998474121,learn,36809.00001525879,Wed Aug 13 2025 18:36:48 GMT-0500 (Central Daylight Time),411283.0,A,wind,I,d,142,3,2714.199999988079,408568.8000000119,8019,WL,B,7.0
3,23.95799994468689,learn,36042.00005531311,Wed Aug 13 2025 18:36:48 GMT-0500 (Central Daylight Time),412050.3000000119,A,windo,I,o,761,3,3481.5,408568.8000000119,8019,WL,B,7.0
3,24.608999967575073,learn,35391.00003242493,Wed Aug 13 2025 18:36:48 GMT-0500 (Central Daylight Time),412700.5,A,window,I,w,642,3,4131.699999988079,408568.8000000119,8019,WL,B,7.0
3,24.992000102996826,learn,35007.999897003174,Wed Aug 13 2025 18:36:48 GMT-0500 (Central Daylight Time),413083.60000002384,A,windowenter,I,enter,376,3,4514.800000011921,408568.8000000119,8019,WL,B,7.0
3,26.924000024795532,learn,33075.99997520447,Wed Aug 13 2025 18:36:48 GMT-0500 (Central Daylight Time),415016.3000000119,A,c,I,c,1913,3,1932.3999999761581,413083.90000003576,8019,WL,B,8.0
3,27.073999881744385,learn,32926.000118255615,Wed Aug 13 2025 18:36:48 GMT-0500 (Central Daylight Time),415166.1999999881,A,ci,I,i,133,3,2082.2999999523163,413083.90000003576,8019,WL,B,8.0
3,27.2739999294281,learn,32726.0000705719,Wed Aug 13 2025 18:36:48 GMT-0500 (Central Daylight Time),415366.3000000119,A,cit,I,t,191,3,2282.399999976158,413083.90000003576,8019,WL,B,8.0
3,27.391000032424927,learn,32608.999967575073,Wed Aug 13 2025 18:36:48 GMT-0500 (Central Daylight Time),415482.90000003576,A,city,I,y,102,3,2399.0,413083.90000003576,8019,WL,B,8.0
3,28.157000064849854,learn,31842.999935150146,Wed Aug 13 2025 18:36:48 GMT-0500 (Central Daylight Time),416249.1999999881,A,cityenter,I,enter,746,3,3165.2999999523163,413083.90000003576,8019,WL,B,8.0
3,28.7739999294281,learn,31226.0000705719,Wed Aug 13 2025 18:36:48 GMT-0500 (Central Daylight Time),416866.10000002384,A,p,I,p,613,3,616.6999999880791,416249.40000003576,8019,WL,B,9.0
3,29.141000032424927,learn,30858.999967575073,Wed Aug 13 2025 18:36:48 GMT-0500 (Central Daylight Time),417232.5,A,pu,I,u,356,3,983.0999999642372,416249.40000003576,8019,WL,B,9.0
3,30.289999961853027,learn,29710.000038146973,Wed Aug 13 2025 18:36:48 GMT-0500 (Central Daylight Time),418382.10000002384,A,pup,I,p,1141,3,2132.699999988079,416249.40000003576,8019,WL,B,9.0
3,31.055999994277954,learn,28944.000005722046,Wed Aug 13 2025 18:36:48 GMT-0500 (Central Daylight Time),419148.3000000119,A,pupi,I,i,751,3,2898.899999976158,416249.40000003576,8019,WL,B,9.0
3,31.206000089645386,learn,28793.999910354614,Wed Aug 13 2025 18:36:48 GMT-0500 (Central Daylight Time),419298.1999999881,A,pupil,I,l,137,3,3048.7999999523163,416249.40000003576,8019,WL,B,9.0
3,31.822999954223633,learn,28177.000045776367,Wed Aug 13 2025 18:36:48 GMT-0500 (Central Daylight Time),419914.5,A,pupilenter,I,enter,611,3,3665.099999964237,416249.40000003576,8019,WL,B,9.0
3,32.50600004196167,learn,27493.99995803833,Wed Aug 13 2025 18:36:48 GMT-0500 (Central Daylight Time),420598.0,A,c,I,c,667,3,683.1999999880791,419914.8000000119,8019,WL,B,10.0
3,32.60599994659424,learn,27394.00005340576,Wed Aug 13 2025 18:36:48 GMT-0500 (Central Daylight Time),420697.90000003576,A,ca,I,a,80,3,783.1000000238419,419914.8000000119,8019,WL,B,10.0
3,32.74000000953674,learn,27259.999990463257,Wed Aug 13 2025 18:36:48 GMT-0500 (Central Daylight Time),420832.40000003576,A,cab,I,b,116,3,917.6000000238419,419914.8000000119,8019,WL,B,10.0
3,33.10599994659424,learn,26894.00005340576,Wed Aug 13 2025 18:36:48 GMT-0500 (Central Daylight Time),421197.6999999881,A,cabi,I,i,357,3,1282.8999999761581,419914.8000000119,8019,WL,B,10.0
3,33.35599994659424,learn,26644.00005340576,Wed Aug 13 2025 18:36:48 GMT-0500 (Central Daylight Time),421447.6999999881,A,cabin,I,n,239,3,1532.8999999761581,419914.8000000119,8019,WL,B,10.0
3,33.956000089645386,learn,26043.999910354614,Wed Aug 13 2025 18:36:48 GMT-0500 (Central Daylight Time),422047.60000002384,A,cabinenter,I,enter,590,3,2132.800000011921,419914.8000000119,8019,WL,B,10.0
3,34.90499997138977,learn,25095.00002861023,Wed Aug 13 2025 18:36:48 GMT-0500 (Central Daylight Time),422997.3000000119,A,k,I,k,934,3,949.3000000119209,422048.0,8019,WL,B,11.0
3,35.33800005912781,learn,24661.999940872192,Wed Aug 13 2025 18:36:48 GMT-0500 (Central Daylight Time),423430.3000000119,A,,I,backspace,424,3,1382.300000011921,422048.0,8019,WL,B,11.0
3,35.90499997138977,learn,24095.00002861023,Wed Aug 13 2025 18:36:48 GMT-0500 (Central Daylight Time),423996.90000003576,A,l,I,l,560,3,1948.9000000357628,422048.0,8019,WL,B,11.0
3,36.03800010681152,learn,23961.999893188477,Wed Aug 13 2025 18:36:48 GMT-0500 (Central Daylight Time),424130.0,A,la,I,a,120,3,2082.0,422048.0,8019,WL,B,11.0
3,36.15499997138977,learn,23845.00002861023,Wed Aug 13 2025 18:36:48 GMT-0500 (Central Daylight Time),424246.5,A,lak,I,k,107,3,2198.5,422048.0,8019,WL,B,11.0
3,36.32200002670288,learn,23677.99997329712,Wed Aug 13 2025 18:36:48 GMT-0500 (Central Daylight Time),424413.5,A,lake,I,e,159,3,2365.5,422048.0,8019,WL,B,11.0
3,36.5550000667572,learn,23444.999933242798,Wed Aug 13 2025 18:36:48 GMT-0500 (Central Daylight Time),424646.60000002384,A,lakeenter,I,enter,224,3,2598.600000023842,422048.0,8019,WL,B,11.0
3,38.58699989318848,learn,21413.000106811523,Wed Aug 13 2025 18:36:48 GMT-0500 (Central Daylight Time),426679.3000000119,A,p,I,p,2022,3,2032.3999999761581,424646.90000003576,8019,WL,B,12.0
3,38.687000036239624,learn,21312.999963760376,Wed Aug 13 2025 18:36:48 GMT-0500 (Central Daylight Time),426779.40000003576,A,pi,I,i,86,3,2132.5,424646.90000003576,8019,WL,B,12.0
3,38.83699989318848,learn,21163.000106811523,Wed Aug 13 2025 18:36:48 GMT-0500 (Central Daylight Time),426929.3000000119,A,pip,I,p,138,3,2282.399999976158,424646.90000003576,8019,WL,B,12.0
3,39.5699999332428,learn,20430.000066757202,Wed Aug 13 2025 18:36:48 GMT-0500 (Central Daylight Time),427662.10000002384,A,pipe,I,e,715,3,3015.199999988079,424646.90000003576,8019,WL,B,12.0
3,40.28699994087219,learn,19713.000059127808,Wed Aug 13 2025 18:36:48 GMT-0500 (Central Daylight Time),428378.6999999881,A,pipeenter,I,enter,710,3,3731.7999999523163,424646.90000003576,8019,WL,B,12.0
3,41.08699989318848,learn,18913.000106811523,Wed Aug 13 2025 18:36:48 GMT-0500 (Central Daylight Time),429178.6999999881,A,s,I,s,779,3,799.5999999642372,428379.10000002384,8019,WL,B,13.0
3,41.20300006866455,learn,18796.99993133545,Wed Aug 13 2025 18:36:48 GMT-0500 (Central Daylight Time),429295.3000000119,A,sk,I,k,107,3,916.1999999880791,428379.10000002384,8019,WL,B,13.0
3,41.38599991798401,learn,18614.00008201599,Wed Aug 13 2025 18:36:48 GMT-0500 (Central Daylight Time),429478.40000003576,A,ski,I,i,174,3,1099.300000011921,428379.10000002384,8019,WL,B,13.0
3,41.63599991798401,learn,18364.00008201599,Wed Aug 13 2025 18:36:48 GMT-0500 (Central Daylight Time),429728.3000000119,A,skin,I,n,230,3,1349.199999988079,428379.10000002384,8019,WL,B,13.0
3,42.670000076293945,learn,17329.999923706055,Wed Aug 13 2025 18:36:48 GMT-0500 (Central Daylight Time),430761.5,A,skinenter,I,enter,1020,3,2382.399999976158,428379.10000002384,8019,WL,B,13.0
3,43.569000005722046,learn,16430.999994277954,Wed Aug 13 2025 18:36:48 GMT-0500 (Central Daylight Time),431661.10000002384,A,f,I,f,884,3,899.3000000119209,430761.8000000119,8019,WL,B,14.0
3,43.70199990272522,learn,16298.00009727478,Wed Aug 13 2025 18:36:48 GMT-0500 (Central Daylight Time),431794.1999999881,A,fi,I,i,112,3,1032.3999999761581,430761.8000000119,8019,WL,B,14.0
3,43.86899995803833,learn,16131.00004196167,Wed Aug 13 2025 18:36:48 GMT-0500 (Central Daylight Time),431961.0,A,fir,I,r,156,3,1199.199999988079,430761.8000000119,8019,WL,B,14.0
3,43.93600010871887,learn,16063.999891281128,Wed Aug 13 2025 18:36:48 GMT-0500 (Central Daylight Time),432027.6999999881,A,fire,I,e,60,3,1265.8999999761581,430761.8000000119,8019,WL,B,14.0
3,44.918999910354614,learn,15081.000089645386,Wed Aug 13 2025 18:36:48 GMT-0500 (Central Daylight Time),433010.40000003576,A,fireenter,I,enter,978,3,2248.600000023842,430761.8000000119,8019,WL,B,14.0
3,45.734999895095825,learn,14265.000104904175,Wed Aug 13 2025 18:36:48 GMT-0500 (Central Daylight Time),433826.60000002384,A,c,I,c,803,3,815.9000000357628,433010.6999999881,8019,WL,B,15.0
3,45.85199999809265,learn,14148.000001907349,Wed Aug 13 2025 18:36:48 GMT-0500 (Central Daylight Time),433943.60000002384,A,cl,I,l,107,3,932.9000000357628,433010.6999999881,8019,WL,B,15.0
3,46.03500008583069,learn,13964.999914169312,Wed Aug 13 2025 18:36:48 GMT-0500 (Central Daylight Time),434127.0,A,clo,I,o,174,3,1116.300000011921,433010.6999999881,8019,WL,B,15.0
3,46.11800003051758,learn,13881.999969482422,Wed Aug 13 2025 18:36:48 GMT-0500 (Central Daylight Time),434210.3000000119,A,cloc,I,c,71,3,1199.6000000238419,433010.6999999881,8019,WL,B,15.0
3,46.26799988746643,learn,13732.00011253357,Wed Aug 13 2025 18:36:48 GMT-0500 (Central Daylight Time),434360.10000002384,A,clock,I,k,131,3,1349.4000000357628,433010.6999999881,8019,WL,B,15.0
3,47.11800003051758,learn,12881.999969482422,Wed Aug 13 2025 18:36:48 GMT-0500 (Central Daylight Time),435210.0,A,clockenter,I,enter,845,3,2199.300000011921,433010.6999999881,8019,WL,B,15.0
4,1.2339999675750732,learn,58766.00003242493,Wed Aug 13 2025 18:36:48 GMT-0500 (Central Daylight Time),502188.90000003576,A,s,I,s,1218,3,1233.2000000476837,500955.6999999881,8019,WL,B,1.0
4,1.434000015258789,learn,58565.99998474121,Wed Aug 13 2025 18:36:48 GMT-0500 (Central Daylight Time),502388.8000000119,A,st,I,t,192,3,1433.1000000238419,500955.6999999881,8019,WL,B,1.0
4,2.2669999599456787,learn,57733.00004005432,Wed Aug 13 2025 18:36:48 GMT-0500 (Central Daylight Time),503221.90000003576,A,str,I,r,817,3,2266.2000000476837,500955.6999999881,8019,WL,B,1.0
4,2.5169999599456787,learn,57483.00004005432,Wed Aug 13 2025 18:36:48 GMT-0500 (Central Daylight Time),503471.90000003576,A,stre,I,e,232,3,2516.2000000476837,500955.6999999881,8019,WL,B,1.0
4,2.6670000553131104,learn,57332.99994468689,Wed Aug 13 2025 18:36:48 GMT-0500 (Central Daylight Time),503621.90000003576,A,stree,I,e,133,3,2666.2000000476837,500955.6999999881,8019,WL,B,1.0
4,2.7829999923706055,learn,57217.000007629395,Wed Aug 13 2025 18:36:48 GMT-0500 (Central Daylight Time),503738.1999999881,A,street,I,t,111,3,2782.5,500955.6999999881,8019,WL,B,1.0
4,3.4830000400543213,learn,56516.99995994568,Wed Aug 13 2025 18:36:48 GMT-0500 (Central Daylight Time),504438.10000002384,A,streetenter,I,enter,683,3,3482.400000035763,500955.6999999881,8019,WL,B,1.0
4,4.132999897003174,learn,55867.000102996826,Wed Aug 13 2025 18:36:48 GMT-0500 (Central Daylight Time),505087.90000003576,A,g,I,g,631,3,649.6000000238419,504438.3000000119,8019,WL,B,2.0
4,4.5929999351501465,learn,55407.00006484985,Wed Aug 13 2025 18:36:48 GMT-0500 (Central Daylight Time),505548.5,A,gr,I,r,309,3,1110.199999988079,504438.3000000119,8019,WL,B,2.0
4,4.733000040054321,learn,55266.99995994568,Wed Aug 13 2025 18:36:48 GMT-0500 (Central Daylight Time),505687.6999999881,A,gra,I,a,121,3,1249.3999999761581,504438.3000000119,8019,WL,B,2.0
4,5.08299994468689,learn,54917.00005531311,Wed Aug 13 2025 18:36:48 GMT-0500 (Central Daylight Time),506037.6999999881,A,gras,I,s,341,3,1599.3999999761581,504438.3000000119,8019,WL,B,2.0
4,5.216000080108643,learn,54783.99991989136,Wed Aug 13 2025 18:36:48 GMT-0500 (Central Daylight Time),506171.0,A,grass,I,s,127,3,1732.699999988079,504438.3000000119,8019,WL,B,2.0
4,5.565999984741211,learn,54434.00001525879,Wed Aug 13 2025 18:36:48 GMT-0500 (Central Daylight Time),506520.8000000119,A,grassenter,I,enter,338,3,2082.5,504438.3000000119,8019,WL,B,2.0
4,7.098999977111816,learn,52901.00002288818,Wed Aug 13 2025 18:36:48 GMT-0500 (Central Daylight Time),508053.8000000119,A,d,I,d,1517,3,1532.6000000238419,506521.1999999881,8019,WL,B,3.0
4,7.664999961853027,learn,52335.00003814697,Wed Aug 13 2025 18:36:48 GMT-0500 (Central Daylight Time),508620.3000000119,A,do,I,o,559,3,2099.100000023842,506521.1999999881,8019,WL,B,3.0
4,8.315000057220459,learn,51684.99994277954,Wed Aug 13 2025 18:36:48 GMT-0500 (Central Daylight Time),509270.1999999881,A,doo,I,o,640,3,2749.0,506521.1999999881,8019,WL,B,3.0
4,8.447999954223633,learn,51552.00004577637,Wed Aug 13 2025 18:36:48 GMT-0500 (Central Daylight Time),509403.40000003576,A,door,I,r,126,3,2882.2000000476837,506521.1999999881,8019,WL,B,3.0
4,8.931999921798706,learn,51068.000078201294,Wed Aug 13 2025 18:36:48 GMT-0500 (Central Daylight Time),509886.6999999881,A,doorenter,I,enter,474,3,3365.5,506521.1999999881,8019,WL,B,3.0
4,9.54800009727478,learn,50451.99990272522,Wed Aug 13 2025 18:36:48 GMT-0500 (Central Daylight Time),510502.8000000119,A,a,I,a,599,3,615.8000000119209,509887.0,8019,WL,B,4.0
4,10.331000089645386,learn,49668.999910354614,Wed Aug 13 2025 18:36:48 GMT-0500 (Central Daylight Time),511286.10000002384,A,ar,I,r,767,3,1399.1000000238419,509887.0,8019,WL,B,4.0
4,10.430999994277954,learn,49569.000005722046,Wed Aug 13 2025 18:36:48 GMT-0500 (Central Daylight Time),511385.90000003576,A,arm,I,m,80,3,1498.9000000357628,509887.0,8019,WL,B,4.0
4,10.96399998664856,learn,49036.00001335144,Wed Aug 13 2025 18:36:48 GMT-0500 (Central Daylight Time),511919.3000000119,A,armenter,I,enter,524,3,2032.300000011921,509887.0,8019,WL,B,4.0
4,12.597000122070312,learn,47402.99987792969,Wed Aug 13 2025 18:36:48 GMT-0500 (Central Daylight Time),513552.3000000119,A,s,I,s,1622,3,1632.6000000238419,511919.6999999881,8019,WL,B,5.0
4,12.897000074386597,learn,47102.9999256134,Wed Aug 13 2025 18:36:48 GMT-0500 (Central Daylight Time),513851.90000003576,A,st,I,t,292,3,1932.2000000476837,511919.6999999881,8019,WL,B,5.0
4,13.065000057220459,learn,46934.99994277954,Wed Aug 13 2025 18:36:48 GMT-0500 (Central Daylight Time),514019.60000002384,A,sta,I,a,161,3,2099.900000035763,511919.6999999881,8019,WL,B,5.0
4,13.19700002670288,learn,46802.99997329712,Wed Aug 13 2025 18:36:48 GMT-0500 (Central Daylight Time),514151.8000000119,A,star,I,r,121,3,2232.100000023842,511919.6999999881,8019,WL,B,5.0
4,13.895999908447266,learn,46104.000091552734,Wed Aug 13 2025 18:36:48 GMT-0500 (Central Daylight Time),514851.5,A,starenter,I,enter,693,3,2931.800000011921,511919.6999999881,8019,WL,B,5.0
4,15.046000003814697,learn,44953.9999961853,Wed Aug 13 2025 18:36:48 GMT-0500 (Central Daylight Time),516001.40000003576,A,w,I,w,1137,3,1149.5,514851.90000003576,8019,WL,B,6.0
4,15.196000099182129,learn,44803.99990081787,Wed Aug 13 2025 18:36:48 GMT-0500 (Central Daylight Time),516151.3000000119,A,wi,I,i,140,3,1299.3999999761581,514851.90000003576,8019,WL,B,6.0
4,15.345999956130981,learn,44654.00004386902,Wed Aug 13 2025 18:36:48 GMT-0500 (Central Daylight Time),516301.1999999881,A,wif,I,f,135,3,1449.2999999523163,514851.90000003576,8019,WL,B,6.0
4,15.529000043869019,learn,44470.99995613098,Wed Aug 13 2025 18:36:48 GMT-0500 (Central Daylight Time),516484.5,A,wife,I,e,169,3,1632.5999999642372,514851.90000003576,8019,WL,B,6.0
4,16.161999940872192,learn,43838.00005912781,Wed Aug 13 2025 18:36:48 GMT-0500 (Central Daylight Time),517117.40000003576,A,wifeenter,I,enter,624,3,2265.5,514851.90000003576,8019,WL,B,6.0
4,18.545000076293945,learn,41454.999923706055,Wed Aug 13 2025 18:36:48 GMT-0500 (Central Daylight Time),519500.40000003576,A,w,I,w,2368,3,2382.7000000476837,517117.6999999881,8019,WL,B,7.0
4,18.727999925613403,learn,41272.0000743866,Wed Aug 13 2025 18:36:48 GMT-0500 (Central Daylight Time),519683.1999999881,A,wi,I,i,177,3,2565.5,517117.6999999881,8019,WL,B,7.0
4,18.82800006866455,learn,41171.99993133545,Wed Aug 13 2025 18:36:48 GMT-0500 (Central Daylight Time),519783.5,A,win,I,n,82,3,2665.800000011921,517117.6999999881,8019,WL,B,7.0
4,19.01200008392334,learn,40987.99991607666,Wed Aug 13 2025 18:36:48 GMT-0500 (Central Daylight Time),519966.6999999881,A,wind,I,d,166,3,2849.0,517117.6999999881,8019,WL,B,7.0
4,19.82800006866455,learn,40171.99993133545,Wed Aug 13 2025 18:36:48 GMT-0500 (Central Daylight Time),520783.3000000119,A,windo,I,o,807,3,3665.600000023842,517117.6999999881,8019,WL,B,7.0
4,20.194999933242798,learn,39805.0000667572,Wed Aug 13 2025 18:36:48 GMT-0500 (Central Daylight Time),521149.6999999881,A,window,I,w,348,3,4032.0,517117.6999999881,8019,WL,B,7.0
4,20.394999980926514,learn,39605.000019073486,Wed Aug 13 2025 18:36:48 GMT-0500 (Central Daylight Time),521349.8000000119,A,windowenter,I,enter,192,3,4232.100000023842,517117.6999999881,8019,WL,B,7.0
4,21.194000005722046,learn,38805.999994277954,Wed Aug 13 2025 18:36:48 GMT-0500 (Central Daylight Time),522149.40000003576,A,c,I,c,784,3,799.3000000119209,521350.10000002384,8019,WL,B,8.0
4,21.32800006866455,learn,38671.99993133545,Wed Aug 13 2025 18:36:48 GMT-0500 (Central Daylight Time),522282.60000002384,A,ci,I,i,120,3,932.5,521350.10000002384,8019,WL,B,8.0
4,21.561000108718872,learn,38438.99989128113,Wed Aug 13 2025 18:36:48 GMT-0500 (Central Daylight Time),522516.0,A,cit,I,t,226,3,1165.8999999761581,521350.10000002384,8019,WL,B,8.0
4,21.72699999809265,learn,38273.00000190735,Wed Aug 13 2025 18:36:48 GMT-0500 (Central Daylight Time),522682.5,A,city,I,y,146,3,1332.3999999761581,521350.10000002384,8019,WL,B,8.0
4,23.276999950408936,learn,36723.000049591064,Wed Aug 13 2025 18:36:48 GMT-0500 (Central Daylight Time),524232.10000002384,A,cityenter,I,enter,1539,3,2882.0,521350.10000002384,8019,WL,B,8.0
4,28.591000080108643,learn,31408.999919891357,Wed Aug 13 2025 18:36:48 GMT-0500 (Central Daylight Time),529547.1000000238,A,p,I,p,5308,3,5314.600000023842,524232.5,8019,WL,B,9.0
4,28.957000017166138,learn,31042.999982833862,Wed Aug 13 2025 18:36:48 GMT-0500 (Central Daylight Time),529913.6999999881,A,pu,I,u,346,3,5681.199999988079,524232.5,8019,WL,B,9.0
4,29.574000120162964,learn,30425.999879837036,Wed Aug 13 2025 18:36:48 GMT-0500 (Central Daylight Time),530529.8000000119,A,pup,I,p,611,3,6297.300000011921,524232.5,8019,WL,B,9.0
4,29.7739999294281,learn,30226.0000705719,Wed Aug 13 2025 18:36:48 GMT-0500 (Central Daylight Time),530730.0,A,pupi,I,i,188,3,6497.5,524232.5,8019,WL,B,9.0
4,29.973999977111816,learn,30026.000022888184,Wed Aug 13 2025 18:36:48 GMT-0500 (Central Daylight Time),530930.1000000238,A,pupil,I,l,188,3,6697.600000023842,524232.5,8019,WL,B,9.0
4,30.457000017166138,learn,29542.999982833862,Wed Aug 13 2025 18:36:48 GMT-0500 (Central Daylight Time),531413.3000000119,A,pupilenter,I,enter,468,3,7180.800000011921,524232.5,8019,WL,B,9.0
4,32.44000005722046,learn,27559.99994277954,Wed Aug 13 2025 18:36:48 GMT-0500 (Central Daylight Time),533396.0,A,c,I,c,1969,3,1982.300000011921,531413.6999999881,8019,WL,B,10.0
4,32.52300000190735,learn,27476.99999809265,Wed Aug 13 2025 18:36:48 GMT-0500 (Central Daylight Time),533479.3000000119,A,ca,I,a,73,3,2065.600000023842,531413.6999999881,8019,WL,B,10.0
4,32.67300009727478,learn,27326.99990272522,Wed Aug 13 2025 18:36:48 GMT-0500 (Central Daylight Time),533629.1999999881,A,cab,I,b,133,3,2215.5,531413.6999999881,8019,WL,B,10.0
4,33.15599989891052,learn,26844.000101089478,Wed Aug 13 2025 18:36:48 GMT-0500 (Central Daylight Time),534112.1999999881,A,cabi,I,i,473,3,2698.5,531413.6999999881,8019,WL,B,10.0
4,33.33899998664856,learn,26661.00001335144,Wed Aug 13 2025 18:36:48 GMT-0500 (Central Daylight Time),534295.6000000238,A,cabin,I,n,173,3,2881.900000035763,531413.6999999881,8019,WL,B,10.0
4,33.60599994659424,learn,26394.00005340576,Wed Aug 13 2025 18:36:48 GMT-0500 (Central Daylight Time),534562.1999999881,A,cabinenter,I,enter,262,3,3148.5,531413.6999999881,8019,WL,B,10.0
4,34.388999938964844,learn,25611.000061035156,Wed Aug 13 2025 18:36:48 GMT-0500 (Central Daylight Time),535345.4000000358,A,k,I,k,772,3,782.9000000357628,534562.5,8019,WL,B,11.0
4,34.8050000667572,learn,25194.999933242798,Wed Aug 13 2025 18:36:48 GMT-0500 (Central Daylight Time),535761.6999999881,A,,I,backspace,396,3,1199.199999988079,534562.5,8019,WL,B,11.0
4,35.621999979019165,learn,24378.000020980835,Wed Aug 13 2025 18:36:48 GMT-0500 (Central Daylight Time),536578.1999999881,A,l,I,l,796,3,2015.699999988079,534562.5,8019,WL,B,11.0
4,35.72200012207031,learn,24277.999877929688,Wed Aug 13 2025 18:36:48 GMT-0500 (Central Daylight Time),536678.1999999881,A,la,I,a,91,3,2115.699999988079,534562.5,8019,WL,B,11.0
4,35.82100009918213,learn,24178.99990081787,Wed Aug 13 2025 18:36:48 GMT-0500 (Central Daylight Time),536777.6999999881,A,lak,I,k,94,3,2215.199999988079,534562.5,8019,WL,B,11.0
4,36.00500011444092,learn,23994.999885559082,Wed Aug 13 2025 18:36:48 GMT-0500 (Central Daylight Time),536961.4000000358,A,lake,I,e,171,3,2398.900000035763,534562.5,8019,WL,B,11.0
4,36.855000019073486,learn,23144.999980926514,Wed Aug 13 2025 18:36:48 GMT-0500 (Central Daylight Time),537811.4000000358,A,lakeenter,I,enter,836,3,3248.900000035763,534562.5,8019,WL,B,11.0
4,37.605000019073486,learn,22394.999980926514,Wed Aug 13 2025 18:36:48 GMT-0500 (Central Daylight Time),538561.0,A,p,I,p,729,3,749.1999999880791,537811.8000000119,8019,WL,B,12.0
4,37.8050000667572,learn,22194.999933242798,Wed Aug 13 2025 18:36:48 GMT-0500 (Central Daylight Time),538761.0,A,pi,I,i,189,3,949.1999999880791,537811.8000000119,8019,WL,B,12.0
4,38.270999908447266,learn,21729.000091552734,Wed Aug 13 2025 18:36:48 GMT-0500 (Central Daylight Time),539227.4000000358,A,pip,I,p,453,3,1415.6000000238419,537811.8000000119,8019,WL,B,12.0
4,38.605000019073486,learn,21394.999980926514,Wed Aug 13 2025 18:36:48 GMT-0500 (Central Daylight Time),539560.8000000119,A,pipe,I,e,313,3,1749.0,537811.8000000119,8019,WL,B,12.0
4,39.1710000038147,learn,20828.999996185303,Wed Aug 13 2025 18:36:48 GMT-0500 (Central Daylight Time),540127.1999999881,A,pipeenter,I,enter,557,3,2315.399999976158,537811.8000000119,8019,WL,B,12.0
4,42.8199999332428,learn,17180.000066757202,Wed Aug 13 2025 18:36:48 GMT-0500 (Central Daylight Time),543776.0,A,s,I,s,3638,3,3648.5,540127.5,8019,WL,B,13.0
4,42.937000036239624,learn,17062.999963760376,Wed Aug 13 2025 18:36:48 GMT-0500 (Central Daylight Time),543892.6999999881,A,sk,I,k,101,3,3765.199999988079,540127.5,8019,WL,B,13.0
4,43.13599991798401,learn,16864.00008201599,Wed Aug 13 2025 18:36:48 GMT-0500 (Central Daylight Time),544092.5,A,ski,I,i,184,3,3965.0,540127.5,8019,WL,B,13.0
4,43.253000020980835,learn,16746.999979019165,Wed Aug 13 2025 18:36:48 GMT-0500 (Central Daylight Time),544209.1000000238,A,skin,I,n,104,3,4081.600000023842,540127.5,8019,WL,B,13.0
4,43.75200009346008,learn,16247.999906539917,Wed Aug 13 2025 18:36:48 GMT-0500 (Central Daylight Time),544708.6999999881,A,skinenter,I,enter,493,3,4581.199999988079,540127.5,8019,WL,B,13.0
4,44.986000061035156,learn,15013.999938964844,Wed Aug 13 2025 18:36:48 GMT-0500 (Central Daylight Time),545942.1999999881,A,f,I,f,1217,3,1233.0999999642372,544709.1000000238,8019,WL,B,14.0
4,45.13599991798401,learn,14864.000082015991,Wed Aug 13 2025 18:36:48 GMT-0500 (Central Daylight Time),546091.9000000358,A,fi,I,i,144,3,1382.800000011921,544709.1000000238,8019,WL,B,14.0
4,45.28600001335144,learn,14713.99998664856,Wed Aug 13 2025 18:36:48 GMT-0500 (Central Daylight Time),546241.9000000358,A,fir,I,r,146,3,1532.800000011921,544709.1000000238,8019,WL,B,14.0
4,45.36899995803833,learn,14631.00004196167,Wed Aug 13 2025 18:36:48 GMT-0500 (Central Daylight Time),546325.0,A,fire,I,e,75,3,1615.8999999761581,544709.1000000238,8019,WL,B,14.0
4,45.91799998283386,learn,14082.000017166138,Wed Aug 13 2025 18:36:48 GMT-0500 (Central Daylight Time),546874.6999999881,A,fireenter,I,enter,545,3,2165.599999964237,544709.1000000238,8019,WL,B,14.0
4,48.00099992752075,learn,11999.000072479248,Wed Aug 13 2025 18:36:48 GMT-0500 (Central Daylight Time),548957.6000000238,A,c,I,c,2075,3,2082.600000023842,546875.0,8019,WL,B,15.0
4,48.18499994277954,learn,11815.000057220459,Wed Aug 13 2025 18:36:48 GMT-0500 (Central Daylight Time),549141.1999999881,A,cl,I,l,168,3,2266.199999988079,546875.0,8019,WL,B,15.0
4,48.33400011062622,learn,11665.99988937378,Wed Aug 13 2025 18:36:48 GMT-0500 (Central Daylight Time),549290.6000000238,A,clo,I,o,144,3,2415.600000023842,546875.0,8019,WL,B,15.0
4,48.484999895095825,learn,11515.000104904175,Wed Aug 13 2025 18:36:48 GMT-0500 (Central Daylight Time),549440.8000000119,A,cloc,I,c,139,3,2565.800000011921,546875.0,8019,WL,B,15.0
4,48.6010000705719,learn,11398.9999294281,Wed Aug 13 2025 18:36:48 GMT-0500 (Central Daylight Time),549557.6999999881,A,clock,I,k,99,3,2682.699999988079,546875.0,8019,WL,B,15.0
4,49.38499999046326,learn,10615.000009536743,Wed Aug 13 2025 18:36:48 GMT-0500 (Central Daylight Time),550341.0,A,clockenter,I,enter,768,3,3466.0,546875.0,8019,WL,B,15.0
5,0.7660000324249268,learn,60000.0,Wed Aug 13 2025 18:36:48 GMT-0500 (Central Daylight Time),616969.8000000119,A,s,I,s,747,3,766.3999999761581,616203.4000000358,8019,WL,B,1.0
5,0.9489998817443848,learn,60000.0,Wed Aug 13 2025 18:36:48 GMT-0500 (Central Daylight Time),617152.6999999881,A,st,I,t,171,3,949.2999999523163,616203.4000000358,8019,WL,B,1.0
5,1.2330000400543213,learn,60000.0,Wed Aug 13 2025 18:36:48 GMT-0500 (Central Daylight Time),617436.0,A,str,I,r,269,3,1232.5999999642372,616203.4000000358,8019,WL,B,1.0
5,1.499000072479248,learn,60000.0,Wed Aug 13 2025 18:36:48 GMT-0500 (Central Daylight Time),617702.8000000119,A,stre,I,e,249,3,1499.3999999761581,616203.4000000358,8019,WL,B,1.0
5,1.6159999370574951,learn,60000.0,Wed Aug 13 2025 18:36:48 GMT-0500 (Central Daylight Time),617819.1000000238,A,stree,I,e,111,3,1615.699999988079,616203.4000000358,8019,WL,B,1.0
5,1.7660000324249268,learn,60000.0,Wed Aug 13 2025 18:36:48 GMT-0500 (Central Daylight Time),617969.5,A,street,I,t,146,3,1766.0999999642372,616203.4000000358,8019,WL,B,1.0
5,2.2990000247955322,learn,60000.0,Wed Aug 13 2025 18:36:48 GMT-0500 (Central Daylight Time),618502.5,A,streetenter,I,enter,524,3,2299.099999964237,616203.4000000358,8019,WL,B,1.0
5,2.865999937057495,learn,60000.0,Wed Aug 13 2025 18:36:48 GMT-0500 (Central Daylight Time),619069.1000000238,A,g,I,g,559,3,566.3000000119209,618502.8000000119,8019,WL,B,2.0
5,3.0820000171661377,learn,60000.0,Wed Aug 13 2025 18:36:48 GMT-0500 (Central Daylight Time),619285.4000000358,A,gr,I,r,209,3,782.6000000238419,618502.8000000119,8019,WL,B,2.0
5,3.1659998893737793,learn,60000.0,Wed Aug 13 2025 18:36:48 GMT-0500 (Central Daylight Time),619369.0,A,gra,I,a,73,3,866.1999999880791,618502.8000000119,8019,WL,B,2.0
5,3.431999921798706,learn,60000.0,Wed Aug 13 2025 18:36:48 GMT-0500 (Central Daylight Time),619635.1999999881,A,gras,I,s,261,3,1132.3999999761581,618502.8000000119,8019,WL,B,2.0
5,3.5989999771118164,learn,60000.0,Wed Aug 13 2025 18:36:48 GMT-0500 (Central Daylight Time),619802.1000000238,A,grass,I,s,147,3,1299.300000011921,618502.8000000119,8019,WL,B,2.0
5,3.9489998817443848,learn,60000.0,Wed Aug 13 2025 18:36:48 GMT-0500 (Central Daylight Time),620152.0,A,grassenter,I,enter,331,3,1649.199999988079,618502.8000000119,8019,WL,B,2.0
5,5.514999866485596,learn,60000.0,Wed Aug 13 2025 18:36:48 GMT-0500 (Central Daylight Time),621718.1000000238,A,d,I,d,1550,3,1565.699999988079,620152.4000000358,8019,WL,B,3.0
5,5.7149999141693115,learn,60000.0,Wed Aug 13 2025 18:36:48 GMT-0500 (Central Daylight Time),621918.1999999881,A,do,I,o,183,3,1765.7999999523163,620152.4000000358,8019,WL,B,3.0
5,5.8480000495910645,learn,60000.0,Wed Aug 13 2025 18:36:48 GMT-0500 (Central Daylight Time),622051.1000000238,A,doo,I,o,128,3,1898.699999988079,620152.4000000358,8019,WL,B,3.0
5,5.9649999141693115,learn,60000.0,Wed Aug 13 2025 18:36:48 GMT-0500 (Central Daylight Time),622168.0,A,door,I,r,98,3,2015.5999999642372,620152.4000000358,8019,WL,B,3.0
5,6.730999946594238,learn,60000.0,Wed Aug 13 2025 18:36:48 GMT-0500 (Central Daylight Time),622934.4000000358,A,doorenter,I,enter,748,3,2782.0,620152.4000000358,8019,WL,B,3.0
5,7.746999979019165,learn,60000.0,Wed Aug 13 2025 18:36:48 GMT-0500 (Central Daylight Time),623950.6000000238,A,a,I,a,998,3,1015.9000000357628,622934.6999999881,8019,WL,B,4.0
5,7.846999883651733,learn,60000.0,Wed Aug 13 2025 18:36:48 GMT-0500 (Central Daylight Time),624050.4000000358,A,ar,I,r,94,3,1115.7000000476837,622934.6999999881,8019,WL,B,4.0
5,8.363999843597412,learn,60000.0,Wed Aug 13 2025 18:36:48 GMT-0500 (Central Daylight Time),624567.1999999881,A,arm,I,m,507,3,1632.5,622934.6999999881,8019,WL,B,4.0
5,8.914000034332275,learn,60000.0,Wed Aug 13 2025 18:36:48 GMT-0500 (Central Daylight Time),625117.0,A,armenter,I,enter,543,3,2182.300000011921,622934.6999999881,8019,WL,B,4.0
5,9.397000074386597,learn,60000.0,Wed Aug 13 2025 18:36:48 GMT-0500 (Central Daylight Time),625600.5,A,s,I,s,465,3,483.0999999642372,625117.4000000358,8019,WL,B,5.0
5,9.61299991607666,learn,60000.0,Wed Aug 13 2025 18:36:48 GMT-0500 (Central Daylight Time),625816.8000000119,A,st,I,t,205,3,699.3999999761581,625117.4000000358,8019,WL,B,5.0
5,9.79699993133545,learn,60000.0,Wed Aug 13 2025 18:36:48 GMT-0500 (Central Daylight Time),626000.3000000119,A,sta,I,a,164,3,882.8999999761581,625117.4000000358,8019,WL,B,5.0
5,9.980000019073486,learn,60000.0,Wed Aug 13 2025 18:36:48 GMT-0500 (Central Daylight Time),626183.3000000119,A,star,I,r,166,3,1065.8999999761581,625117.4000000358,8019,WL,B,5.0
5,10.69700002670288,learn,60000.0,Wed Aug 13 2025 18:36:48 GMT-0500 (Central Daylight Time),626900.3000000119,A,starenter,I,enter,702,3,1782.8999999761581,625117.4000000358,8019,WL,B,5.0
5,12.078999996185303,learn,60000.0,Wed Aug 13 2025 18:36:48 GMT-0500 (Central Daylight Time),628282.3000000119,A,w,I,w,1368,3,1381.800000011921,626900.5,8019,WL,B,6.0
5,12.246000051498413,learn,60000.0,Wed Aug 13 2025 18:36:48 GMT-0500 (Central Daylight Time),628449.1999999881,A,wi,I,i,146,3,1548.699999988079,626900.5,8019,WL,B,6.0
5,12.395999908447266,learn,60000.0,Wed Aug 13 2025 18:36:48 GMT-0500 (Central Daylight Time),628599.3000000119,A,wif,I,f,141,3,1698.800000011921,626900.5,8019,WL,B,6.0
5,12.645999908447266,learn,60000.0,Wed Aug 13 2025 18:36:48 GMT-0500 (Central Daylight Time),628849.3000000119,A,wife,I,e,229,3,1948.800000011921,626900.5,8019,WL,B,6.0
5,13.428999900817871,learn,60000.0,Wed Aug 13 2025 18:36:48 GMT-0500 (Central Daylight Time),629632.4000000358,A,wifeenter,I,enter,764,3,2731.900000035763,626900.5,8019,WL,B,6.0
5,16.711999893188477,learn,60000.0,Wed Aug 13 2025 18:36:48 GMT-0500 (Central Daylight Time),632915.6000000238,A,w,I,w,3276,3,3282.800000011921,629632.8000000119,8019,WL,B,7.0
5,16.84500002861023,learn,60000.0,Wed Aug 13 2025 18:36:48 GMT-0500 (Central Daylight Time),633047.9000000358,A,wi,I,i,113,3,3415.100000023842,629632.8000000119,8019,WL,B,7.0
5,16.92799997329712,learn,60000.0,Wed Aug 13 2025 18:36:48 GMT-0500 (Central Daylight Time),633131.5,A,win,I,n,70,3,3498.699999988079,629632.8000000119,8019,WL,B,7.0
5,17.24399995803833,learn,60000.0,Wed Aug 13 2025 18:36:48 GMT-0500 (Central Daylight Time),633447.8000000119,A,wind,I,d,306,3,3815.0,629632.8000000119,8019,WL,B,7.0
5,17.39400005340576,learn,60000.0,Wed Aug 13 2025 18:36:48 GMT-0500 (Central Daylight Time),633597.9000000358,A,windo,I,o,142,3,3965.100000023842,629632.8000000119,8019,WL,B,7.0
5,18.01099991798401,learn,60000.0,Wed Aug 13 2025 18:36:48 GMT-0500 (Central Daylight Time),634214.0,A,window,I,w,607,3,4581.199999988079,629632.8000000119,8019,WL,B,7.0
5,18.444000005722046,learn,60000.0,Wed Aug 13 2025 18:36:48 GMT-0500 (Central Daylight Time),634647.6000000238,A,windowenter,I,enter,415,3,5014.800000011921,629632.8000000119,8019,WL,B,7.0
5,20.15999984741211,learn,60000.0,Wed Aug 13 2025 18:36:48 GMT-0500 (Central Daylight Time),636363.6000000238,A,c,I,c,1701,3,1715.6000000238419,634648.0,8019,WL,B,8.0
5,20.30999994277954,learn,60000.0,Wed Aug 13 2025 18:36:48 GMT-0500 (Central Daylight Time),636513.5,A,ci,I,i,138,3,1865.5,634648.0,8019,WL,B,8.0
5,20.509999990463257,learn,60000.0,Wed Aug 13 2025 18:36:48 GMT-0500 (Central Daylight Time),636713.4000000358,A,cit,I,t,179,3,2065.400000035763,634648.0,8019,WL,B,8.0
5,20.710000038146973,learn,60000.0,Wed Aug 13 2025 18:36:48 GMT-0500 (Central Daylight Time),636913.1999999881,A,city,I,y,179,3,2265.199999988079,634648.0,8019,WL,B,8.0
5,21.542999982833862,learn,60000.0,Wed Aug 13 2025 18:36:48 GMT-0500 (Central Daylight Time),637746.1000000238,A,cityenter,I,enter,819,3,3098.100000023842,634648.0,8019,WL,B,8.0
5,22.443000078201294,learn,60000.0,Wed Aug 13 2025 18:36:48 GMT-0500 (Central Daylight Time),638646.1000000238,A,p,I,p,882,3,899.6000000238419,637746.5,8019,WL,B,9.0
5,22.759999990463257,learn,60000.0,Wed Aug 13 2025 18:36:48 GMT-0500 (Central Daylight Time),638963.8000000119,A,pu,I,u,311,3,1217.300000011921,637746.5,8019,WL,B,9.0
5,23.125999927520752,learn,60000.0,Wed Aug 13 2025 18:36:48 GMT-0500 (Central Daylight Time),639329.4000000358,A,pup,I,p,354,3,1582.9000000357628,637746.5,8019,WL,B,9.0
5,23.342999935150146,learn,60000.0,Wed Aug 13 2025 18:36:48 GMT-0500 (Central Daylight Time),639546.0,A,pupi,I,i,212,3,1799.5,637746.5,8019,WL,B,9.0
5,23.608999967575073,learn,60000.0,Wed Aug 13 2025 18:36:48 GMT-0500 (Central Daylight Time),639812.5,A,pupil,I,l,252,3,2066.0,637746.5,8019,WL,B,9.0
5,24.54200005531311,learn,60000.0,Wed Aug 13 2025 18:36:48 GMT-0500 (Central Daylight Time),640745.5,A,pupilenter,I,enter,928,3,2999.0,637746.5,8019,WL,B,9.0
5,27.22499990463257,learn,60000.0,Wed Aug 13 2025 18:36:48 GMT-0500 (Central Daylight Time),643428.1999999881,A,c,I,c,2669,3,2682.399999976158,640745.8000000119,8019,WL,B,10.0
5,27.35800004005432,learn,60000.0,Wed Aug 13 2025 18:36:48 GMT-0500 (Central Daylight Time),643561.3000000119,A,ca,I,a,113,3,2815.5,640745.8000000119,8019,WL,B,10.0
5,27.641000032424927,learn,60000.0,Wed Aug 13 2025 18:36:48 GMT-0500 (Central Daylight Time),643844.6000000238,A,cab,I,b,277,3,3098.800000011921,640745.8000000119,8019,WL,B,10.0
5,28.124000072479248,learn,60000.0,Wed Aug 13 2025 18:36:48 GMT-0500 (Central Daylight Time),644327.6999999881,A,cabi,I,i,473,3,3581.899999976158,640745.8000000119,8019,WL,B,10.0
5,28.223999977111816,learn,60000.0,Wed Aug 13 2025 18:36:48 GMT-0500 (Central Daylight Time),644427.5,A,cabin,I,n,94,3,3681.699999988079,640745.8000000119,8019,WL,B,10.0
5,28.60699987411499,learn,60000.0,Wed Aug 13 2025 18:36:48 GMT-0500 (Central Daylight Time),644810.9000000358,A,cabinenter,I,enter,370,3,4065.100000023842,640745.8000000119,8019,WL,B,10.0
5,29.79099988937378,learn,60000.0,Wed Aug 13 2025 18:36:48 GMT-0500 (Central Daylight Time),645994.9000000358,A,l,I,l,1162,3,1183.7000000476837,644811.1999999881,8019,WL,B,11.0
5,29.888999938964844,learn,60000.0,Wed Aug 13 2025 18:36:48 GMT-0500 (Central Daylight Time),646093.8000000119,A,la,I,a,83,3,1282.6000000238419,644811.1999999881,8019,WL,B,11.0
5,30.799000024795532,learn,60000.0,Wed Aug 13 2025 18:36:48 GMT-0500 (Central Daylight Time),647003.6000000238,A,lae,I,e,905,3,2192.400000035763,644811.1999999881,8019,WL,B,11.0
5,31.805999994277954,learn,60000.0,Wed Aug 13 2025 18:36:48 GMT-0500 (Central Daylight Time),648010.1999999881,A,la,I,backspace,1000,3,3199.0,644811.1999999881,8019,WL,B,11.0
5,32.38800001144409,learn,60000.0,Wed Aug 13 2025 18:36:48 GMT-0500 (Central Daylight Time),648593.0,A,lak,I,k,571,3,3781.800000011921,644811.1999999881,8019,WL,B,11.0
5,32.50600004196167,learn,60000.0,Wed Aug 13 2025 18:36:48 GMT-0500 (Central Daylight Time),648710.6999999881,A,lake,I,e,108,3,3899.5,644811.1999999881,8019,WL,B,11.0
5,32.82200002670288,learn,60000.0,Wed Aug 13 2025 18:36:48 GMT-0500 (Central Daylight Time),649026.4000000358,A,lakeenter,I,enter,303,3,4215.200000047684,644811.1999999881,8019,WL,B,11.0
5,35.037999868392944,learn,60000.0,Wed Aug 13 2025 18:36:48 GMT-0500 (Central Daylight Time),651242.4000000358,A,p,I,p,2211,3,2215.600000023842,649026.8000000119,8019,WL,B,12.0
5,35.13800001144409,learn,60000.0,Wed Aug 13 2025 18:36:48 GMT-0500 (Central Daylight Time),651342.1999999881,A,pi,I,i,91,3,2315.399999976158,649026.8000000119,8019,WL,B,12.0
5,35.287999868392944,learn,60000.0,Wed Aug 13 2025 18:36:48 GMT-0500 (Central Daylight Time),651492.1000000238,A,pip,I,p,142,3,2465.300000011921,649026.8000000119,8019,WL,B,12.0
5,35.520999908447266,learn,60000.0,Wed Aug 13 2025 18:36:48 GMT-0500 (Central Daylight Time),651725.1999999881,A,pipe,I,e,226,3,2698.399999976158,649026.8000000119,8019,WL,B,12.0
5,36.037999868392944,learn,60000.0,Wed Aug 13 2025 18:36:48 GMT-0500 (Central Daylight Time),652242.1000000238,A,pipeenter,I,enter,503,3,3215.300000011921,649026.8000000119,8019,WL,B,12.0
5,37.187000036239624,learn,60000.0,Wed Aug 13 2025 18:36:48 GMT-0500 (Central Daylight Time),653391.5,A,s,I,s,1130,3,1149.0999999642372,652242.4000000358,8019,WL,B,13.0
5,37.30299997329712,learn,60000.0,Wed Aug 13 2025 18:36:48 GMT-0500 (Central Daylight Time),653508.1000000238,A,sk,I,k,102,3,1265.699999988079,652242.4000000358,8019,WL,B,13.0
5,37.47000002861023,learn,60000.0,Wed Aug 13 2025 18:36:48 GMT-0500 (Central Daylight Time),653675.1000000238,A,ski,I,i,154,3,1432.699999988079,652242.4000000358,8019,WL,B,13.0
5,37.55399990081787,learn,60000.0,Wed Aug 13 2025 18:36:48 GMT-0500 (Central Daylight Time),653758.3000000119,A,skin,I,n,67,3,1515.8999999761581,652242.4000000358,8019,WL,B,13.0
5,38.253000020980835,learn,60000.0,Wed Aug 13 2025 18:36:48 GMT-0500 (Central Daylight Time),654457.9000000358,A,skinenter,I,enter,679,3,2215.5,652242.4000000358,8019,WL,B,13.0
5,39.72000002861023,learn,60000.0,Wed Aug 13 2025 18:36:48 GMT-0500 (Central Daylight Time),655924.4000000358,A,f,I,f,1452,3,1466.1000000238419,654458.3000000119,8019,WL,B,14.0
5,39.8529999256134,learn,60000.0,Wed Aug 13 2025 18:36:48 GMT-0500 (Central Daylight Time),656057.6000000238,A,fi,I,i,121,3,1599.300000011921,654458.3000000119,8019,WL,B,14.0
5,40.003000020980835,learn,60000.0,Wed Aug 13 2025 18:36:48 GMT-0500 (Central Daylight Time),656207.3000000119,A,fir,I,r,140,3,1749.0,654458.3000000119,8019,WL,B,14.0
5,40.085999965667725,learn,60000.0,Wed Aug 13 2025 18:36:48 GMT-0500 (Central Daylight Time),656290.5,A,fire,I,e,79,3,1832.199999988079,654458.3000000119,8019,WL,B,14.0
5,40.503000020980835,learn,60000.0,Wed Aug 13 2025 18:36:48 GMT-0500 (Central Daylight Time),656707.1999999881,A,fireenter,I,enter,410,3,2248.899999976158,654458.3000000119,8019,WL,B,14.0
5,41.45199990272522,learn,60000.0,Wed Aug 13 2025 18:36:48 GMT-0500 (Central Daylight Time),657656.9000000358,A,c,I,c,929,3,949.4000000357628,656707.5,8019,WL,B,15.0
5,41.63599991798401,learn,60000.0,Wed Aug 13 2025 18:36:48 GMT-0500 (Central Daylight Time),657840.1000000238,A,cl,I,l,164,3,1132.6000000238419,656707.5,8019,WL,B,15.0
5,41.86899995803833,learn,60000.0,Wed Aug 13 2025 18:36:48 GMT-0500 (Central Daylight Time),658073.4000000358,A,clo,I,o,220,3,1365.9000000357628,656707.5,8019,WL,B,15.0
5,42.818000078201294,learn,60000.0,Wed Aug 13 2025 18:36:48 GMT-0500 (Central Daylight Time),659023.1000000238,A,cloc,I,c,940,3,2315.600000023842,656707.5,8019,WL,B,15.0
5,42.93499994277954,learn,60000.0,Wed Aug 13 2025 18:36:48 GMT-0500 (Central Daylight Time),659139.8000000119,A,clock,I,k,103,3,2432.300000011921,656707.5,8019,WL,B,15.0
5,43.43499994277954,learn,60000.0,Wed Aug 13 2025 18:36:48 GMT-0500 (Central Daylight Time),659639.4000000358,A,clockenter,I,enter,490,3,2931.900000035763,656707.5,8019,WL,B,15.0
6,0.8159999847412109,distr,59184.00001525879,Wed Aug 13 2025 18:36:48 GMT-0500 (Central Daylight Time),728034.6000000238,B,c,I,c,804,3,816.0,727218.6000000238,8019,WL,B,1.0
6,0.932999849319458,distr,59067.00015068054,Wed Aug 13 2025 18:36:48 GMT-0500 (Central Daylight Time),728151.6999999881,B,ce,I,e,99,3,933.0999999642372,727218.6000000238,8019,WL,B,1.0
6,1.3489999771118164,distr,58651.00002288818,Wed Aug 13 2025 18:36:48 GMT-0500 (Central Daylight Time),728568.0,B,cel,I,l,398,3,1349.3999999761581,727218.6000000238,8019,WL,B,1.0
6,1.4819998741149902,distr,58518.00012588501,Wed Aug 13 2025 18:36:48 GMT-0500 (Central Daylight Time),728701.0,B,cell,I,l,124,3,1482.3999999761581,727218.6000000238,8019,WL,B,1.0
6,2.0820000171661377,distr,57917.99998283386,Wed Aug 13 2025 18:36:48 GMT-0500 (Central Daylight Time),729300.9000000358,B,cellenter,I,enter,585,3,2082.300000011921,727218.6000000238,8019,WL,B,1.0
6,2.681999921798706,distr,57318.000078201294,Wed Aug 13 2025 18:36:48 GMT-0500 (Central Daylight Time),729900.6999999881,B,v,I,v,585,3,599.5,729301.1999999881,8019,WL,B,2.0
6,2.8489999771118164,distr,57151.00002288818,Wed Aug 13 2025 18:36:48 GMT-0500 (Central Daylight Time),730067.3000000119,B,vi,I,i,160,3,766.1000000238419,729301.1999999881,8019,WL,B,2.0
6,3.115000009536743,distr,56884.99999046326,Wed Aug 13 2025 18:36:48 GMT-0500 (Central Daylight Time),730334.0,B,vil,I,l,257,3,1032.800000011921,729301.1999999881,8019,WL,B,2.0
6,3.2649998664855957,distr,56735.000133514404,Wed Aug 13 2025 18:36:48 GMT-0500 (Central Daylight Time),730484.0,B,vill,I,l,135,3,1182.800000011921,729301.1999999881,8019,WL,B,2.0
6,3.3989999294281006,distr,56601.0000705719,Wed Aug 13 2025 18:36:48 GMT-0500 (Central Daylight Time),730617.5,B,villa,I,a,113,3,1316.300000011921,729301.1999999881,8019,WL,B,2.0
6,3.5490000247955322,distr,56450.99997520447,Wed Aug 13 2025 18:36:48 GMT-0500 (Central Daylight Time),730767.3000000119,B,villag,I,g,132,3,1466.1000000238419,729301.1999999881,8019,WL,B,2.0
6,3.6649999618530273,distr,56335.00003814697,Wed Aug 13 2025 18:36:48 GMT-0500 (Central Daylight Time),730883.8000000119,B,village,I,e,110,3,1582.6000000238419,729301.1999999881,8019,WL,B,2.0
6,4.247999906539917,distr,55752.00009346008,Wed Aug 13 2025 18:36:48 GMT-0500 (Central Daylight Time),731466.8000000119,B,villageenter,I,enter,578,3,2165.600000023842,729301.1999999881,8019,WL,B,2.0
6,5.430999994277954,distr,54569.000005722046,Wed Aug 13 2025 18:36:48 GMT-0500 (Central Daylight Time),732649.9000000358,B,s,I,s,1179,3,1182.800000011921,731467.1000000238,8019,WL,B,3.0
6,5.615000009536743,distr,54384.99999046326,Wed Aug 13 2025 18:36:48 GMT-0500 (Central Daylight Time),732833.3000000119,B,st,I,t,163,3,1366.199999988079,731467.1000000238,8019,WL,B,3.0
6,6.013999938964844,distr,53986.000061035156,Wed Aug 13 2025 18:36:48 GMT-0500 (Central Daylight Time),733233.0,B,sto,I,o,389,3,1765.8999999761581,731467.1000000238,8019,WL,B,3.0
6,6.180999994277954,distr,53819.000005722046,Wed Aug 13 2025 18:36:48 GMT-0500 (Central Daylight Time),733399.9000000358,B,stor,I,r,149,3,1932.800000011921,731467.1000000238,8019,WL,B,3.0
6,6.796999931335449,distr,53203.00006866455,Wed Aug 13 2025 18:36:48 GMT-0500 (Central Daylight Time),734016.0,B,storm,I,m,597,3,2548.899999976158,731467.1000000238,8019,WL,B,3.0
6,8.098000049591064,distr,51901.999950408936,Wed Aug 13 2025 18:36:48 GMT-0500 (Central Daylight Time),735316.5,B,stormenter,I,enter,1292,3,3849.399999976158,731467.1000000238,8019,WL,B,3.0
6,9.27999997138977,distr,50720.00002861023,Wed Aug 13 2025 18:36:48 GMT-0500 (Central Daylight Time),736498.6999999881,B,c,I,c,1168,3,1182.0,735316.6999999881,8019,WL,B,4.0
6,9.430000066757202,distr,50569.9999332428,Wed Aug 13 2025 18:36:48 GMT-0500 (Central Daylight Time),736648.6999999881,B,co,I,o,130,3,1332.0,735316.6999999881,8019,WL,B,4.0
6,9.645999908447266,distr,50354.000091552734,Wed Aug 13 2025 18:36:48 GMT-0500 (Central Daylight Time),736865.1999999881,B,coi,I,i,196,3,1548.5,735316.6999999881,8019,WL,B,4.0
6,9.896999835968018,distr,50103.00016403198,Wed Aug 13 2025 18:36:48 GMT-0500 (Central Daylight Time),737115.4000000358,B,coin,I,n,237,3,1798.7000000476837,735316.6999999881,8019,WL,B,4.0
6,10.44599986076355,distr,49554.00013923645,Wed Aug 13 2025 18:36:48 GMT-0500 (Central Daylight Time),737665.1000000238,B,coinenter,I,enter,538,3,2348.400000035763,735316.6999999881,8019,WL,B,4.0
6,11.062999963760376,distr,48937.000036239624,Wed Aug 13 2025 18:36:48 GMT-0500 (Central Daylight Time),738281.3000000119,B,a,I,a,605,3,615.8999999761581,737665.4000000358,8019,WL,B,5.0
6,11.178999900817871,distr,48821.00009918213,Wed Aug 13 2025 18:36:48 GMT-0500 (Central Daylight Time),738398.1999999881,B,ar,I,r,108,3,732.7999999523163,737665.4000000358,8019,WL,B,5.0
6,11.845999956130981,distr,48154.00004386902,Wed Aug 13 2025 18:36:48 GMT-0500 (Central Daylight Time),739064.6000000238,B,arm,I,m,647,3,1399.199999988079,737665.4000000358,8019,WL,B,5.0
6,12.279000043869019,distr,47720.99995613098,Wed Aug 13 2025 18:36:48 GMT-0500 (Central Daylight Time),739498.0,B,army,I,y,413,3,1832.5999999642372,737665.4000000358,8019,WL,B,5.0
6,12.861999988555908,distr,47138.00001144409,Wed Aug 13 2025 18:36:48 GMT-0500 (Central Daylight Time),740080.9000000358,B,armyenter,I,enter,563,3,2415.5,737665.4000000358,8019,WL,B,5.0
6,18.97699999809265,distr,41023.00000190735,Wed Aug 13 2025 18:36:48 GMT-0500 (Central Daylight Time),746195.8000000119,B,b,I,b,6100,3,6114.600000023842,740081.1999999881,8019,WL,B,6.0
6,19.0939998626709,distr,40906.0001373291,Wed Aug 13 2025 18:36:48 GMT-0500 (Central Daylight Time),746312.4000000358,B,ba,I,a,98,3,6231.200000047684,740081.1999999881,8019,WL,B,6.0
6,19.194000005722046,distr,40805.999994277954,Wed Aug 13 2025 18:36:48 GMT-0500 (Central Daylight Time),746412.3000000119,B,bab,I,b,85,3,6331.100000023842,740081.1999999881,8019,WL,B,6.0
6,19.293999910354614,distr,40706.000089645386,Wed Aug 13 2025 18:36:48 GMT-0500 (Central Daylight Time),746512.5,B,baba,I,a,80,3,6431.300000011921,740081.1999999881,8019,WL,B,6.0
6,19.80999994277954,distr,40190.00005722046,Wed Aug 13 2025 18:36:48 GMT-0500 (Central Daylight Time),747028.8000000119,B,bab,I,backspace,509,3,6947.600000023842,740081.1999999881,8019,WL,B,6.0
6,20.442999839782715,distr,39557.000160217285,Wed Aug 13 2025 18:36:48 GMT-0500 (Central Daylight Time),747661.9000000358,B,baby,I,y,625,3,7580.700000047684,740081.1999999881,8019,WL,B,6.0
6,20.97599983215332,distr,39024.00016784668,Wed Aug 13 2025 18:36:48 GMT-0500 (Central Daylight Time),748194.6000000238,B,babyenter,I,enter,527,3,8113.400000035763,740081.1999999881,8019,WL,B,6.0
6,23.491999864578247,distr,36508.00013542175,Wed Aug 13 2025 18:36:48 GMT-0500 (Central Daylight Time),750711.0,B,o,I,o,2507,3,2516.199999988079,748194.8000000119,8019,WL,B,7.0
6,23.592000007629395,distr,36407.999992370605,Wed Aug 13 2025 18:36:48 GMT-0500 (Central Daylight Time),750810.9000000358,B,oc,I,c,95,3,2616.100000023842,748194.8000000119,8019,WL,B,7.0
6,23.80900001525879,distr,36190.99998474121,Wed Aug 13 2025 18:36:48 GMT-0500 (Central Daylight Time),751027.8000000119,B,oce,I,e,202,3,2833.0,748194.8000000119,8019,WL,B,7.0
6,24.175999879837036,distr,35824.000120162964,Wed Aug 13 2025 18:36:48 GMT-0500 (Central Daylight Time),751394.3000000119,B,ocea,I,a,362,3,3199.5,748194.8000000119,8019,WL,B,7.0
6,24.325999975204468,distr,35674.00002479553,Wed Aug 13 2025 18:36:48 GMT-0500 (Central Daylight Time),751544.3000000119,B,ocean,I,n,132,3,3349.5,748194.8000000119,8019,WL,B,7.0
6,25.092000007629395,distr,34907.999992370605,Wed Aug 13 2025 18:36:48 GMT-0500 (Central Daylight Time),752310.5,B,oceanenter,I,enter,749,3,4115.699999988079,748194.8000000119,8019,WL,B,7.0
6,26.04099988937378,distr,33959.00011062622,Wed Aug 13 2025 18:36:48 GMT-0500 (Central Daylight Time),753260.1999999881,B,p,I,p,935,3,949.3999999761581,752310.8000000119,8019,WL,B,8.0
6,26.29099988937378,distr,33709.00011062622,Wed Aug 13 2025 18:36:48 GMT-0500 (Central Daylight Time),753510.1999999881,B,pa,I,a,242,3,1199.3999999761581,752310.8000000119,8019,WL,B,8.0
6,26.524999856948853,distr,33475.00014305115,Wed Aug 13 2025 18:36:48 GMT-0500 (Central Daylight Time),753743.1999999881,B,pal,I,l,216,3,1432.3999999761581,752310.8000000119,8019,WL,B,8.0
6,26.625,distr,33375.0,Wed Aug 13 2025 18:36:48 GMT-0500 (Central Daylight Time),753843.6000000238,B,pala,I,a,86,3,1532.800000011921,752310.8000000119,8019,WL,B,8.0
6,26.840999841690063,distr,33159.00015830994,Wed Aug 13 2025 18:36:48 GMT-0500 (Central Daylight Time),754059.9000000358,B,palac,I,c,210,3,1749.1000000238419,752310.8000000119,8019,WL,B,8.0
6,26.94099998474121,distr,33059.00001525879,Wed Aug 13 2025 18:36:48 GMT-0500 (Central Daylight Time),754159.8000000119,B,palace,I,e,81,3,1849.0,752310.8000000119,8019,WL,B,8.0
6,27.740999937057495,distr,32259.000062942505,Wed Aug 13 2025 18:36:48 GMT-0500 (Central Daylight Time),754959.6999999881,B,palaceenter,I,enter,789,3,2648.899999976158,752310.8000000119,8019,WL,B,8.0
6,34.72199988365173,distr,25278.000116348267,Wed Aug 13 2025 18:36:48 GMT-0500 (Central Daylight Time),761940.6999999881,B,b,I,b,6973,3,6980.699999988079,754960.0,8019,WL,B,9.0
6,34.83899998664856,distr,25161.00001335144,Wed Aug 13 2025 18:36:48 GMT-0500 (Central Daylight Time),762057.6000000238,B,ba,I,a,95,3,7097.600000023842,754960.0,8019,WL,B,9.0
6,34.97199988365173,distr,25028.000116348267,Wed Aug 13 2025 18:36:48 GMT-0500 (Central Daylight Time),762190.8000000119,B,bar,I,r,116,3,7230.800000011921,754960.0,8019,WL,B,9.0
6,37.00499987602234,distr,22995.00012397766,Wed Aug 13 2025 18:36:48 GMT-0500 (Central Daylight Time),764223.5,B,barenter,I,enter,2013,3,9263.5,754960.0,8019,WL,B,9.0
6,37.770999908447266,distr,22229.000091552734,Wed Aug 13 2025 18:36:48 GMT-0500 (Central Daylight Time),764989.6999999881,B,s,I,s,757,3,765.7999999523163,764223.9000000358,8019,WL,B,10.0
6,37.97099995613098,distr,22029.00004386902,Wed Aug 13 2025 18:36:48 GMT-0500 (Central Daylight Time),765189.6999999881,B,st,I,t,192,3,965.7999999523163,764223.9000000358,8019,WL,B,10.0
6,38.32099986076355,distr,21679.00013923645,Wed Aug 13 2025 18:36:48 GMT-0500 (Central Daylight Time),765539.4000000358,B,ste,I,e,336,3,1315.5,764223.9000000358,8019,WL,B,10.0
6,38.98699998855591,distr,21013.00001144409,Wed Aug 13 2025 18:36:48 GMT-0500 (Central Daylight Time),766206.0,B,stea,I,a,650,3,1982.0999999642372,764223.9000000358,8019,WL,B,10.0
6,39.13699984550476,distr,20863.00015449524,Wed Aug 13 2025 18:36:48 GMT-0500 (Central Daylight Time),766356.0,B,steam,I,m,143,3,2132.099999964237,764223.9000000358,8019,WL,B,10.0
6,39.63699984550476,distr,20363.00015449524,Wed Aug 13 2025 18:36:48 GMT-0500 (Central Daylight Time),766855.9000000358,B,steamenter,I,enter,490,3,2632.0,764223.9000000358,8019,WL,B,10.0
6,40.40299987792969,distr,19597.000122070312,Wed Aug 13 2025 18:36:48 GMT-0500 (Central Daylight Time),767622.4000000358,B,d,I,d,750,3,766.2000000476837,766856.1999999881,8019,WL,B,11.0
6,40.63599991798401,distr,19364.00008201599,Wed Aug 13 2025 18:36:48 GMT-0500 (Central Daylight Time),767855.6999999881,B,dr,I,r,223,3,999.5,766856.1999999881,8019,WL,B,11.0
6,40.73699998855591,distr,19263.00001144409,Wed Aug 13 2025 18:36:48 GMT-0500 (Central Daylight Time),767955.8000000119,B,dre,I,e,85,3,1099.6000000238419,766856.1999999881,8019,WL,B,11.0
6,41.003000020980835,distr,18996.999979019165,Wed Aug 13 2025 18:36:48 GMT-0500 (Central Daylight Time),768222.1999999881,B,dres,I,s,249,3,1366.0,766856.1999999881,8019,WL,B,11.0
6,41.419999837875366,distr,18580.000162124634,Wed Aug 13 2025 18:36:48 GMT-0500 (Central Daylight Time),768638.8000000119,B,dress,I,s,399,3,1782.6000000238419,766856.1999999881,8019,WL,B,11.0
6,41.80299997329712,distr,18197.00002670288,Wed Aug 13 2025 18:36:48 GMT-0500 (Central Daylight Time),769021.6999999881,B,dressenter,I,enter,367,3,2165.5,766856.1999999881,8019,WL,B,11.0
6,52.81599998474121,distr,7184.000015258789,Wed Aug 13 2025 18:36:48 GMT-0500 (Central Daylight Time),780034.8000000119,B,enter,I,enter,11008,3,11012.800000011921,769022.0,8019,WL,B,12.0
6,52.98300004005432,distr,7016.999959945679,Wed Aug 13 2025 18:36:48 GMT-0500 (Central Daylight Time),780201.8000000119,B,enter,I,enter,162,3,166.69999998807907,780035.1000000238,8019,WL,B,13.0
6,53.1489999294281,distr,6851.000070571899,Wed Aug 13 2025 18:36:48 GMT-0500 (Central Daylight Time),780368.1000000238,B,enter,I,enter,156,3,166.10000002384186,780202.0,8019,WL,B,14.0
6,53.31599998474121,distr,6684.000015258789,Wed Aug 13 2025 18:36:48 GMT-0500 (Central Daylight Time),780534.9000000358,B,enter,I,enter,150,3,166.5,780368.4000000358,8019,WL,B,15.0
7,2.615999937057495,immed,57384.000062942505,Wed Aug 13 2025 18:36:48 GMT-0500 (Central Daylight Time),791897.8000000119,A,s,I,s,2612,3,2615.600000023842,789282.1999999881,8019,WL,B,1.0
7,2.8489999771118164,immed,57151.00002288818,Wed Aug 13 2025 18:36:48 GMT-0500 (Central Daylight Time),792131.1999999881,A,st,I,t,219,3,2849.0,789282.1999999881,8019,WL,B,1.0
7,3.1659998893737793,immed,56834.00011062622,Wed Aug 13 2025 18:36:48 GMT-0500 (Central Daylight Time),792448.1999999881,A,str,I,r,297,3,3166.0,789282.1999999881,8019,WL,B,1.0
7,3.499000072479248,immed,56500.99992752075,Wed Aug 13 2025 18:36:48 GMT-0500 (Central Daylight Time),792781.1000000238,A,stre,I,e,317,3,3498.900000035763,789282.1999999881,8019,WL,B,1.0
7,3.631999969482422,immed,56368.00003051758,Wed Aug 13 2025 18:36:48 GMT-0500 (Central Daylight Time),792914.4000000358,A,stree,I,e,121,3,3632.2000000476837,789282.1999999881,8019,WL,B,1.0
7,3.7660000324249268,immed,56233.99996757507,Wed Aug 13 2025 18:36:48 GMT-0500 (Central Daylight Time),793047.8000000119,A,street,I,t,114,3,3765.600000023842,789282.1999999881,8019,WL,B,1.0
7,5.815000057220459,immed,54184.99994277954,Wed Aug 13 2025 18:36:48 GMT-0500 (Central Daylight Time),795097.0,A,streetenter,I,enter,2029,3,5814.800000011921,789282.1999999881,8019,WL,B,1.0
7,6.430999994277954,immed,53569.000005722046,Wed Aug 13 2025 18:36:48 GMT-0500 (Central Daylight Time),795713.1999999881,A,g,I,g,597,3,615.7999999523163,795097.4000000358,8019,WL,B,2.0
7,7.04800009727478,immed,52951.99990272522,Wed Aug 13 2025 18:36:48 GMT-0500 (Central Daylight Time),796330.0,A,gr,I,r,605,3,1232.5999999642372,795097.4000000358,8019,WL,B,2.0
7,7.2809998989105225,immed,52719.00010108948,Wed Aug 13 2025 18:36:48 GMT-0500 (Central Daylight Time),796563.1000000238,A,gra,I,a,220,3,1465.699999988079,795097.4000000358,8019,WL,B,2.0
7,7.831000089645386,immed,52168.999910354614,Wed Aug 13 2025 18:36:48 GMT-0500 (Central Daylight Time),797113.0,A,gras,I,s,530,3,2015.5999999642372,795097.4000000358,8019,WL,B,2.0
7,7.947000026702881,immed,52052.99997329712,Wed Aug 13 2025 18:36:48 GMT-0500 (Central Daylight Time),797229.6999999881,A,grass,I,s,109,3,2132.2999999523163,795097.4000000358,8019,WL,B,2.0
7,8.096999883651733,immed,51903.00011634827,Wed Aug 13 2025 18:36:48 GMT-0500 (Central Daylight Time),797379.6999999881,A,grassenter,I,enter,136,3,2282.2999999523163,795097.4000000358,8019,WL,B,2.0
7,9.063999891281128,immed,50936.00010871887,Wed Aug 13 2025 18:36:48 GMT-0500 (Central Daylight Time),798346.3000000119,A,d,I,d,946,3,966.3999999761581,797379.9000000358,8019,WL,B,3.0
7,9.263999938964844,immed,50736.000061035156,Wed Aug 13 2025 18:36:48 GMT-0500 (Central Daylight Time),798545.8000000119,A,do,I,o,178,3,1165.8999999761581,797379.9000000358,8019,WL,B,3.0
7,9.379999876022339,immed,50620.00012397766,Wed Aug 13 2025 18:36:48 GMT-0500 (Central Daylight Time),798662.5,A,doo,I,o,108,3,1282.5999999642372,797379.9000000358,8019,WL,B,3.0
7,9.513999938964844,immed,50486.000061035156,Wed Aug 13 2025 18:36:48 GMT-0500 (Central Daylight Time),798796.0,A,door,I,r,119,3,1416.0999999642372,797379.9000000358,8019,WL,B,3.0
7,10.129999876022339,immed,49870.00012397766,Wed Aug 13 2025 18:36:48 GMT-0500 (Central Daylight Time),799412.4000000358,A,doorenter,I,enter,608,3,2032.5,797379.9000000358,8019,WL,B,3.0
7,11.296000003814697,immed,48703.9999961853,Wed Aug 13 2025 18:36:48 GMT-0500 (Central Daylight Time),800578.6000000238,A,a,I,a,1145,3,1165.9000000357628,799412.6999999881,8019,WL,B,4.0
7,11.496999979019165,immed,48503.000020980835,Wed Aug 13 2025 18:36:48 GMT-0500 (Central Daylight Time),800778.8000000119,A,ar,I,r,187,3,1366.1000000238419,799412.6999999881,8019,WL,B,4.0
7,11.746000051498413,immed,48253.99994850159,Wed Aug 13 2025 18:36:48 GMT-0500 (Central Daylight Time),801028.4000000358,A,arm,I,m,243,3,1615.7000000476837,799412.6999999881,8019,WL,B,4.0
7,12.196000099182129,immed,47803.99990081787,Wed Aug 13 2025 18:36:48 GMT-0500 (Central Daylight Time),801478.1999999881,A,armenter,I,enter,441,3,2065.5,799412.6999999881,8019,WL,B,4.0
7,13.095999956130981,immed,46904.00004386902,Wed Aug 13 2025 18:36:48 GMT-0500 (Central Daylight Time),802378.0,A,s,I,s,896,3,899.5,801478.5,8019,WL,B,5.0
7,13.463000059127808,immed,46536.99994087219,Wed Aug 13 2025 18:36:48 GMT-0500 (Central Daylight Time),802744.9000000358,A,st,I,t,356,3,1266.4000000357628,801478.5,8019,WL,B,5.0
7,13.628999948501587,immed,46371.00005149841,Wed Aug 13 2025 18:36:48 GMT-0500 (Central Daylight Time),802911.4000000358,A,sta,I,a,157,3,1432.9000000357628,801478.5,8019,WL,B,5.0
7,13.895999908447266,immed,46104.000091552734,Wed Aug 13 2025 18:36:48 GMT-0500 (Central Daylight Time),803177.9000000358,A,star,I,r,253,3,1699.4000000357628,801478.5,8019,WL,B,5.0
7,14.494999885559082,immed,45505.00011444092,Wed Aug 13 2025 18:36:48 GMT-0500 (Central Daylight Time),803777.5,A,starenter,I,enter,579,3,2299.0,801478.5,8019,WL,B,5.0
7,15.26200008392334,immed,44737.99991607666,Wed Aug 13 2025 18:36:48 GMT-0500 (Central Daylight Time),804544.3000000119,A,w,I,w,748,3,766.5,803777.8000000119,8019,WL,B,6.0
7,15.76200008392334,immed,44237.99991607666,Wed Aug 13 2025 18:36:48 GMT-0500 (Central Daylight Time),805043.8000000119,A,wi,I,i,486,3,1266.0,803777.8000000119,8019,WL,B,6.0
7,15.894999980926514,immed,44105.000019073486,Wed Aug 13 2025 18:36:48 GMT-0500 (Central Daylight Time),805177.1999999881,A,wif,I,f,113,3,1399.3999999761581,803777.8000000119,8019,WL,B,6.0
7,16.545000076293945,immed,43454.999923706055,Wed Aug 13 2025 18:36:48 GMT-0500 (Central Daylight Time),805827.1000000238,A,wife,I,e,637,3,2049.300000011921,803777.8000000119,8019,WL,B,6.0
7,16.710999965667725,immed,43289.000034332275,Wed Aug 13 2025 18:36:48 GMT-0500 (Central Daylight Time),805993.6999999881,A,wifeenter,I,enter,155,3,2215.899999976158,803777.8000000119,8019,WL,B,6.0
7,17.276999950408936,immed,42723.000049591064,Wed Aug 13 2025 18:36:48 GMT-0500 (Central Daylight Time),806559.6000000238,A,w,I,w,555,3,565.6999999880791,805993.9000000358,8019,WL,B,7.0
7,18.027999877929688,immed,41972.00012207031,Wed Aug 13 2025 18:36:48 GMT-0500 (Central Daylight Time),807309.8000000119,A,wi,I,i,733,3,1315.8999999761581,805993.9000000358,8019,WL,B,7.0
7,18.127000093460083,immed,41872.99990653992,Wed Aug 13 2025 18:36:48 GMT-0500 (Central Daylight Time),807409.6999999881,A,win,I,n,95,3,1415.7999999523163,805993.9000000358,8019,WL,B,7.0
7,18.39400005340576,immed,41605.99994659424,Wed Aug 13 2025 18:36:48 GMT-0500 (Central Daylight Time),807676.4000000358,A,wind,I,d,259,3,1682.5,805993.9000000358,8019,WL,B,7.0
7,18.543999910354614,immed,41456.000089645386,Wed Aug 13 2025 18:36:48 GMT-0500 (Central Daylight Time),807826.1999999881,A,windo,I,o,137,3,1832.2999999523163,805993.9000000358,8019,WL,B,7.0
7,18.710999965667725,immed,41289.000034332275,Wed Aug 13 2025 18:36:48 GMT-0500 (Central Daylight Time),807993.1000000238,A,window,I,w,147,3,1999.199999988079,805993.9000000358,8019,WL,B,7.0
7,19.74399995803833,immed,40256.00004196167,Wed Aug 13 2025 18:36:48 GMT-0500 (Central Daylight Time),809026.1999999881,A,windowenter,I,enter,1013,3,3032.2999999523163,805993.9000000358,8019,WL,B,7.0
7,20.943000078201294,immed,39056.999921798706,Wed Aug 13 2025 18:36:48 GMT-0500 (Central Daylight Time),810225.5,A,c,I,c,1180,3,1199.0999999642372,809026.4000000358,8019,WL,B,8.0
7,21.05999994277954,immed,38940.00005722046,Wed Aug 13 2025 18:36:48 GMT-0500 (Central Daylight Time),810342.1999999881,A,ci,I,i,108,3,1315.7999999523163,809026.4000000358,8019,WL,B,8.0
7,21.276999950408936,immed,38723.000049591064,Wed Aug 13 2025 18:36:48 GMT-0500 (Central Daylight Time),810558.8000000119,A,cit,I,t,199,3,1532.3999999761581,809026.4000000358,8019,WL,B,8.0
7,21.41000008583069,immed,38589.99991416931,Wed Aug 13 2025 18:36:48 GMT-0500 (Central Daylight Time),810692.1000000238,A,city,I,y,119,3,1665.699999988079,809026.4000000358,8019,WL,B,8.0
7,22.743000030517578,immed,37256.99996948242,Wed Aug 13 2025 18:36:48 GMT-0500 (Central Daylight Time),812025.1999999881,A,cityenter,I,enter,1183,3,2998.7999999523163,809026.4000000358,8019,WL,B,8.0
7,23.509000062942505,immed,36490.999937057495,Wed Aug 13 2025 18:36:48 GMT-0500 (Central Daylight Time),812791.5,A,p,I,p,747,3,765.8999999761581,812025.6000000238,8019,WL,B,9.0
7,23.759999990463257,immed,36240.00000953674,Wed Aug 13 2025 18:36:48 GMT-0500 (Central Daylight Time),813041.6999999881,A,pu,I,u,245,3,1016.0999999642372,812025.6000000238,8019,WL,B,9.0
7,24.026000022888184,immed,35973.99997711182,Wed Aug 13 2025 18:36:48 GMT-0500 (Central Daylight Time),813308.5,A,pup,I,p,252,3,1282.8999999761581,812025.6000000238,8019,WL,B,9.0
7,24.30900001525879,immed,35690.99998474121,Wed Aug 13 2025 18:36:48 GMT-0500 (Central Daylight Time),813591.4000000358,A,pupi,I,i,265,3,1565.800000011921,812025.6000000238,8019,WL,B,9.0
7,24.509999990463257,immed,35490.00000953674,Wed Aug 13 2025 18:36:48 GMT-0500 (Central Daylight Time),813791.6999999881,A,pupil,I,l,190,3,1766.0999999642372,812025.6000000238,8019,WL,B,9.0
7,25.108999967575073,immed,34891.00003242493,Wed Aug 13 2025 18:36:48 GMT-0500 (Central Daylight Time),814391.1000000238,A,pupilenter,I,enter,590,3,2365.5,812025.6000000238,8019,WL,B,9.0
7,27.091000080108643,immed,32908.99991989136,Wed Aug 13 2025 18:36:48 GMT-0500 (Central Daylight Time),816373.5,A,c,I,c,1967,3,1982.0999999642372,814391.4000000358,8019,WL,B,10.0
7,27.191999912261963,immed,32808.00008773804,Wed Aug 13 2025 18:36:48 GMT-0500 (Central Daylight Time),816473.8000000119,A,ca,I,a,79,3,2082.399999976158,814391.4000000358,8019,WL,B,10.0
7,27.325000047683716,immed,32674.999952316284,Wed Aug 13 2025 18:36:48 GMT-0500 (Central Daylight Time),816607.0,A,cab,I,b,124,3,2215.599999964237,814391.4000000358,8019,WL,B,10.0
7,27.841000080108643,immed,32158.999919891357,Wed Aug 13 2025 18:36:48 GMT-0500 (Central Daylight Time),817123.4000000358,A,cabi,I,i,510,3,2732.0,814391.4000000358,8019,WL,B,10.0
7,28.058000087738037,immed,31941.999912261963,Wed Aug 13 2025 18:36:48 GMT-0500 (Central Daylight Time),817339.9000000358,A,cabin,I,n,203,3,2948.5,814391.4000000358,8019,WL,B,10.0
7,28.7739999294281,immed,31226.0000705719,Wed Aug 13 2025 18:36:48 GMT-0500 (Central Daylight Time),818056.6000000238,A,cabinenter,I,enter,697,3,3665.199999988079,814391.4000000358,8019,WL,B,10.0
7,29.323999881744385,immed,30676.000118255615,Wed Aug 13 2025 18:36:48 GMT-0500 (Central Daylight Time),818606.0,A,l,I,l,532,3,548.8000000119209,818057.1999999881,8019,WL,B,11.0
