acc_sum,block,block_c,block_cond,con_img,correct,correct_response,datetime,endtime,face,jitter,line,project,response,response_time,row_sel,session_number,start_end,starttime,subject_id,task,task_vers,trial
1,prac,1,A,haborder.png,1,z,Wed Dec 03 2025 13:41:08 GMT-0600 (Central Standard Time),86891.30000001192,CFD-WF-037-016-A.jpg,1600,solid,O,z,1448,10,1,3850.4000000059605,83040.90000000596,7716,ATS,C,1
2,prac,1,A,haborder.png,1,m,Wed Dec 03 2025 13:41:08 GMT-0600 (Central Standard Time),90572.90000000596,CFD-WM-035-036-HC.jpg,1700,solid,O,m,1169,9,1,7532.0,83040.90000000596,7716,ATS,C,2
3,prac,1,A,haborder.png,1,z,Wed Dec 03 2025 13:41:08 GMT-0600 (Central Standard Time),93138.09999999404,CFD-WF-023-013-A.jpg,1000,solid,O,z,764,12,1,10097.199999988079,83040.90000000596,7716,ATS,C,3
4,prac,1,A,haborder.png,1,m,Wed Dec 03 2025 13:41:08 GMT-0600 (Central Standard Time),96353.80000001192,CFD-WF-013-009-HC.jpg,1500,solid,O,m,942,11,1,13312.90000000596,83040.90000000596,7716,ATS,C,4
5,prac,1,A,haborder.png,1,z,Wed Dec 03 2025 13:41:08 GMT-0600 (Central Standard Time),98851.30000001192,CFD-BF-031-020-A.jpg,1000,solid,O,z,712,4,1,15810.40000000596,83040.90000000596,7716,ATS,C,5
6,prac,1,A,haborder.png,1,m,Wed Dec 03 2025 13:41:08 GMT-0600 (Central Standard Time),101685.0,CFD-WM-028-005-HC.jpg,1400,solid,O,m,635,7,1,18644.09999999404,83040.90000000596,7716,ATS,C,6
7,prac,1,A,haborder.png,1,z,Wed Dec 03 2025 13:41:08 GMT-0600 (Central Standard Time),104817.20000001788,CFD-BM-043-014-A.jpg,1600,solid,O,z,740,2,1,21776.30000001192,83040.90000000596,7716,ATS,C,7
8,prac,1,A,haborder.png,1,z,Wed Dec 03 2025 13:41:08 GMT-0600 (Central Standard Time),108114.90000000596,CFD-WM-036-018-A.jpg,1900,solid,O,z,601,8,1,25074.0,83040.90000000596,7716,ATS,C,8
9,prac,1,A,haborder.png,1,m,Wed Dec 03 2025 13:41:08 GMT-0600 (Central Standard Time),111614.20000001788,CFD-BM-034-035-HC.jpg,1700,solid,O,m,1011,1,1,28573.30000001192,83040.90000000596,7716,ATS,C,9
10,prac,1,A,haborder.png,1,z,Wed Dec 03 2025 13:41:08 GMT-0600 (Central Standard Time),114280.30000001192,CFD-BF-002-018-A.jpg,1200,solid,O,z,676,6,1,31239.40000000596,83040.90000000596,7716,ATS,C,10
11,prac,1,A,haborder.png,1,m,Wed Dec 03 2025 13:41:08 GMT-0600 (Central Standard Time),117328.0,CFD-BM-022-004-HC.jpg,1500,solid,O,m,735,3,1,34287.09999999404,83040.90000000596,7716,ATS,C,11
12,prac,1,A,haborder.png,1,m,Wed Dec 03 2025 13:41:08 GMT-0600 (Central Standard Time),120911.40000000596,CFD-BF-019-004-HC.jpg,2000,solid,O,m,793,5,1,37870.5,83040.90000000596,7716,ATS,C,12
1,prac,1,B,mfborder.png,1,z,Wed Dec 03 2025 13:41:08 GMT-0600 (Central Standard Time),154950.90000000596,CFD-BF-031-020-A.jpg,1000,4,O,z,710,dash,1,2499.699999988079,152451.20000001788,7716,ATS,C,1
2,prac,1,B,mfborder.png,1,m,Wed Dec 03 2025 13:41:08 GMT-0600 (Central Standard Time),158134.09999999404,CFD-BM-021-026-A.jpg,1600,2,O,m,811,dash,1,5682.899999976158,152451.20000001788,7716,ATS,C,2
3,prac,1,B,mfborder.png,1,m,Wed Dec 03 2025 13:41:08 GMT-0600 (Central Standard Time),161616.5,CFD-BM-043-014-A.jpg,2000,5,O,m,701,dash,1,9165.299999982119,152451.20000001788,7716,ATS,C,3
4,prac,1,B,mfborder.png,1,m,Wed Dec 03 2025 13:41:08 GMT-0600 (Central Standard Time),164780.59999999404,CFD-WM-035-036-HC.jpg,1600,10,O,m,778,dash,1,12329.399999976158,152451.20000001788,7716,ATS,C,4
5,prac,1,B,mfborder.png,1,z,Wed Dec 03 2025 13:41:08 GMT-0600 (Central Standard Time),168263.09999999404,CFD-WF-001-010-HC.jpg,1900,8,O,z,793,dash,1,15811.899999976158,152451.20000001788,7716,ATS,C,5
5,prac,1,B,mfborder.png,0,z,Wed Dec 03 2025 13:41:08 GMT-0600 (Central Standard Time),171963.0,CFD-BF-019-004-HC.jpg,1400,7,O,None,1514,dash,1,19511.79999998212,152451.20000001788,7716,ATS,C,6
6,prac,1,B,mfborder.png,1,z,Wed Dec 03 2025 13:41:08 GMT-0600 (Central Standard Time),175162.09999999404,CFD-WF-037-016-A.jpg,1500,11,O,z,906,dash,1,22710.899999976158,152451.20000001788,7716,ATS,C,7
7,prac,1,B,mfborder.png,1,m,Wed Dec 03 2025 13:41:08 GMT-0600 (Central Standard Time),177876.90000000596,CFD-WM-034-040-A.jpg,1200,6,O,m,726,dash,1,25425.69999998808,152451.20000001788,7716,ATS,C,8
8,prac,1,B,mfborder.png,1,m,Wed Dec 03 2025 13:41:08 GMT-0600 (Central Standard Time),181177.09999999404,CFD-BM-022-004-HC.jpg,1700,1,O,m,808,dash,1,28725.899999976158,152451.20000001788,7716,ATS,C,9
9,prac,1,B,mfborder.png,1,z,Wed Dec 03 2025 13:41:08 GMT-0600 (Central Standard Time),184308.80000001192,CFD-BF-042-031-HC.jpg,1500,3,O,z,861,dash,1,31857.59999999404,152451.20000001788,7716,ATS,C,10
10,prac,1,B,mfborder.png,1,z,Wed Dec 03 2025 13:41:08 GMT-0600 (Central Standard Time),186891.09999999404,CFD-WF-013-009-HC.jpg,1000,12,O,z,782,dash,1,34439.89999997616,152451.20000001788,7716,ATS,C,11
11,prac,1,B,mfborder.png,1,m,Wed Dec 03 2025 13:41:08 GMT-0600 (Central Standard Time),190090.5,CFD-WM-036-018-A.jpg,1700,9,O,m,687,dash,1,37639.29999998212,152451.20000001788,7716,ATS,C,12
1,test,1,A,haborder.png,1,z,Wed Dec 03 2025 13:41:08 GMT-0600 (Central Standard Time),216498.30000001192,CFD-WM-036-018-A.jpg,1900,solid,O,z,1149,8,1,3065.9000000059605,213432.40000000596,7716,ATS,C,1
2,test,1,A,haborder.png,1,z,Wed Dec 03 2025 13:41:08 GMT-0600 (Central Standard Time),219198.59999999404,CFD-BF-002-018-A.jpg,1200,solid,O,z,1483,6,1,5766.199999988079,213432.40000000596,7716,ATS,C,2
3,test,1,A,haborder.png,1,m,Wed Dec 03 2025 13:41:08 GMT-0600 (Central Standard Time),221279.40000000596,CFD-WM-028-005-HC.jpg,1400,solid,O,m,659,7,1,7847.0,213432.40000000596,7716,ATS,C,3
4,test,1,A,haborder.png,1,m,Wed Dec 03 2025 13:41:08 GMT-0600 (Central Standard Time),224112.09999999404,CFD-BF-019-004-HC.jpg,2000,solid,O,m,802,5,1,10679.699999988079,213432.40000000596,7716,ATS,C,4
5,test,1,A,haborder.png,1,z,Wed Dec 03 2025 13:41:08 GMT-0600 (Central Standard Time),225812.70000001788,CFD-BF-031-020-A.jpg,1000,solid,O,z,669,4,1,12380.300000011921,213432.40000000596,7716,ATS,C,5
6,test,1,A,haborder.png,1,z,Wed Dec 03 2025 13:41:08 GMT-0600 (Central Standard Time),228211.30000001192,CFD-BM-043-014-A.jpg,1600,solid,O,z,774,2,1,14778.90000000596,213432.40000000596,7716,ATS,C,6
7,test,1,A,haborder.png,1,z,Wed Dec 03 2025 13:41:08 GMT-0600 (Central Standard Time),230044.09999999404,CFD-WF-023-013-A.jpg,1000,solid,O,z,801,12,1,16611.69999998808,213432.40000000596,7716,ATS,C,7
8,test,1,A,haborder.png,1,m,Wed Dec 03 2025 13:41:08 GMT-0600 (Central Standard Time),232409.70000001788,CFD-BM-034-035-HC.jpg,1700,solid,O,m,641,1,1,18977.30000001192,213432.40000000596,7716,ATS,C,8
9,test,1,A,haborder.png,1,z,Wed Dec 03 2025 13:41:08 GMT-0600 (Central Standard Time),234325.20000001788,CFD-BF-031-020-A.jpg,1000,solid,O,z,889,4,1,20892.80000001192,213432.40000000596,7716,ATS,C,9
10,test,1,A,haborder.png,1,m,Wed Dec 03 2025 13:41:08 GMT-0600 (Central Standard Time),236774.80000001192,CFD-BM-022-004-HC.jpg,1500,solid,O,m,913,3,1,23342.40000000596,213432.40000000596,7716,ATS,C,10
11,test,1,A,haborder.png,1,m,Wed Dec 03 2025 13:41:08 GMT-0600 (Central Standard Time),238840.59999999404,CFD-WM-028-005-HC.jpg,1400,solid,O,m,636,7,1,25408.19999998808,213432.40000000596,7716,ATS,C,11
12,test,1,A,haborder.png,1,m,Wed Dec 03 2025 13:41:08 GMT-0600 (Central Standard Time),241255.70000001788,CFD-WM-035-036-HC.jpg,1700,solid,O,m,692,9,1,27823.30000001192,213432.40000000596,7716,ATS,C,12
13,test,1,A,haborder.png,1,z,Wed Dec 03 2025 13:41:08 GMT-0600 (Central Standard Time),243572.30000001192,CFD-WF-037-016-A.jpg,1600,solid,O,z,691,10,1,30139.90000000596,213432.40000000596,7716,ATS,C,13
13,test,1,A,haborder.png,0,z,Wed Dec 03 2025 13:41:08 GMT-0600 (Central Standard Time),246254.70000001788,CFD-WM-036-018-A.jpg,1900,solid,O,m,753,8,1,32822.30000001192,213432.40000000596,7716,ATS,C,14
14,test,1,A,haborder.png,1,z,Wed Dec 03 2025 13:41:08 GMT-0600 (Central Standard Time),248221.40000000596,CFD-BF-002-018-A.jpg,1200,solid,O,z,748,6,1,34789.0,213432.40000000596,7716,ATS,C,15
15,test,1,A,haborder.png,1,z,Wed Dec 03 2025 13:41:08 GMT-0600 (Central Standard Time),250570.20000001788,CFD-WF-037-016-A.jpg,1600,solid,O,z,718,10,1,37137.80000001192,213432.40000000596,7716,ATS,C,16
16,test,1,A,haborder.png,1,m,Wed Dec 03 2025 13:41:08 GMT-0600 (Central Standard Time),253552.70000001788,CFD-BF-019-004-HC.jpg,2000,solid,O,m,951,5,1,40120.30000001192,213432.40000000596,7716,ATS,C,17
17,test,1,A,haborder.png,1,m,Wed Dec 03 2025 13:41:08 GMT-0600 (Central Standard Time),256419.30000001192,CFD-WF-013-009-HC.jpg,1500,solid,O,m,1334,11,1,42986.90000000596,213432.40000000596,7716,ATS,C,18
18,test,1,A,haborder.png,1,m,Wed Dec 03 2025 13:41:08 GMT-0600 (Central Standard Time),258584.40000000596,CFD-BM-022-004-HC.jpg,1500,solid,O,m,635,3,1,45152.0,213432.40000000596,7716,ATS,C,19
19,test,1,A,haborder.png,1,z,Wed Dec 03 2025 13:41:08 GMT-0600 (Central Standard Time),260850.5,CFD-BM-043-014-A.jpg,1600,solid,O,z,641,2,1,47418.09999999404,213432.40000000596,7716,ATS,C,20
20,test,1,A,haborder.png,1,m,Wed Dec 03 2025 13:41:08 GMT-0600 (Central Standard Time),263183.0,CFD-WM-035-036-HC.jpg,1700,solid,O,m,600,9,1,49750.59999999404,213432.40000000596,7716,ATS,C,21
21,test,1,A,haborder.png,1,m,Wed Dec 03 2025 13:41:08 GMT-0600 (Central Standard Time),265565.3000000119,CFD-BM-034-035-HC.jpg,1700,solid,O,m,647,1,1,52132.90000000596,213432.40000000596,7716,ATS,C,22
22,test,1,A,haborder.png,1,z,Wed Dec 03 2025 13:41:08 GMT-0600 (Central Standard Time),267231.8000000119,CFD-WF-023-013-A.jpg,1000,solid,O,z,646,12,1,53799.40000000596,213432.40000000596,7716,ATS,C,23
23,test,1,A,haborder.png,1,m,Wed Dec 03 2025 13:41:08 GMT-0600 (Central Standard Time),269614.59999999404,CFD-WF-013-009-HC.jpg,1500,solid,O,m,855,11,1,56182.19999998808,213432.40000000596,7716,ATS,C,24
0,test,1,B,mfborder.png,0,z,Wed Dec 03 2025 13:41:08 GMT-0600 (Central Standard Time),278312.7000000179,CFD-WF-037-016-A.jpg,1500,dash,O,None,1516,11,1,3033.9000000059605,275278.8000000119,7716,ATS,C,1
1,test,1,B,mfborder.png,1,z,Wed Dec 03 2025 13:41:08 GMT-0600 (Central Standard Time),279627.09999999404,CFD-BF-031-020-A.jpg,1000,dash,O,z,282,4,1,4348.299999982119,275278.8000000119,7716,ATS,C,2
2,test,1,B,mfborder.png,1,z,Wed Dec 03 2025 13:41:08 GMT-0600 (Central Standard Time),282643.3000000119,CFD-WF-001-010-HC.jpg,1900,dash,O,z,1098,8,1,7364.5,275278.8000000119,7716,ATS,C,3
3,test,1,B,mfborder.png,1,m,Wed Dec 03 2025 13:41:08 GMT-0600 (Central Standard Time),285276.09999999404,CFD-WM-036-018-A.jpg,1700,dash,O,m,900,9,1,9997.299999982119,275278.8000000119,7716,ATS,C,4
4,test,1,B,mfborder.png,1,m,Wed Dec 03 2025 13:41:08 GMT-0600 (Central Standard Time),287574.59999999404,CFD-WM-035-036-HC.jpg,1600,dash,O,m,669,10,1,12295.799999982119,275278.8000000119,7716,ATS,C,5
5,test,1,B,mfborder.png,1,m,Wed Dec 03 2025 13:41:08 GMT-0600 (Central Standard Time),289774.90000000596,CFD-WM-035-036-HC.jpg,1600,dash,O,m,571,10,1,14496.09999999404,275278.8000000119,7716,ATS,C,6
6,test,1,B,mfborder.png,1,z,Wed Dec 03 2025 13:41:08 GMT-0600 (Central Standard Time),291824.2000000179,CFD-BF-042-031-HC.jpg,1500,dash,O,z,518,3,1,16545.40000000596,275278.8000000119,7716,ATS,C,7
7,test,1,B,mfborder.png,1,m,Wed Dec 03 2025 13:41:08 GMT-0600 (Central Standard Time),293707.09999999404,CFD-WM-034-040-A.jpg,1200,dash,O,m,651,6,1,18428.29999998212,275278.8000000119,7716,ATS,C,8
8,test,1,B,mfborder.png,1,m,Wed Dec 03 2025 13:41:08 GMT-0600 (Central Standard Time),296273.09999999404,CFD-BM-043-014-A.jpg,2000,dash,O,m,541,5,1,20994.29999998212,275278.8000000119,7716,ATS,C,9
9,test,1,B,mfborder.png,1,z,Wed Dec 03 2025 13:41:08 GMT-0600 (Central Standard Time),298438.5,CFD-BF-019-004-HC.jpg,1400,dash,O,z,735,7,1,23159.69999998808,275278.8000000119,7716,ATS,C,10
10,test,1,B,mfborder.png,1,m,Wed Dec 03 2025 13:41:08 GMT-0600 (Central Standard Time),300706.3000000119,CFD-WM-036-018-A.jpg,1700,dash,O,m,551,9,1,25427.5,275278.8000000119,7716,ATS,C,11
11,test,1,B,mfborder.png,1,z,Wed Dec 03 2025 13:41:08 GMT-0600 (Central Standard Time),302286.90000000596,CFD-WF-013-009-HC.jpg,1000,dash,O,z,559,12,1,27008.09999999404,275278.8000000119,7716,ATS,C,12
12,test,1,B,mfborder.png,1,m,Wed Dec 03 2025 13:41:08 GMT-0600 (Central Standard Time),304720.5,CFD-BM-022-004-HC.jpg,1700,dash,O,m,699,1,1,29441.69999998808,275278.8000000119,7716,ATS,C,13
13,test,1,B,mfborder.png,1,z,Wed Dec 03 2025 13:41:08 GMT-0600 (Central Standard Time),306392.7000000179,CFD-BF-031-020-A.jpg,1000,dash,O,z,638,4,1,31113.90000000596,275278.8000000119,7716,ATS,C,14
14,test,1,B,mfborder.png,1,m,Wed Dec 03 2025 13:41:08 GMT-0600 (Central Standard Time),308635.7000000179,CFD-BM-021-026-A.jpg,1600,dash,O,m,615,2,1,33356.90000000596,275278.8000000119,7716,ATS,C,15
15,test,1,B,mfborder.png,1,m,Wed Dec 03 2025 13:41:08 GMT-0600 (Central Standard Time),311317.5,CFD-BM-043-014-A.jpg,2000,dash,O,m,662,5,1,36038.69999998808,275278.8000000119,7716,ATS,C,16
16,test,1,B,mfborder.png,1,z,Wed Dec 03 2025 13:41:08 GMT-0600 (Central Standard Time),313300.40000000596,CFD-WF-037-016-A.jpg,1500,dash,O,z,455,11,1,38021.59999999404,275278.8000000119,7716,ATS,C,17
17,test,1,B,mfborder.png,1,z,Wed Dec 03 2025 13:41:08 GMT-0600 (Central Standard Time),314916.7000000179,CFD-WF-013-009-HC.jpg,1000,dash,O,z,583,12,1,39637.90000000596,275278.8000000119,7716,ATS,C,18
18,test,1,B,mfborder.png,1,m,Wed Dec 03 2025 13:41:08 GMT-0600 (Central Standard Time),317149.59999999404,CFD-BM-021-026-A.jpg,1600,dash,O,m,606,2,1,41870.79999998212,275278.8000000119,7716,ATS,C,19
19,test,1,B,mfborder.png,1,m,Wed Dec 03 2025 13:41:08 GMT-0600 (Central Standard Time),319497.90000000596,CFD-BM-022-004-HC.jpg,1700,dash,O,m,624,1,1,44219.09999999404,275278.8000000119,7716,ATS,C,20
20,test,1,B,mfborder.png,1,m,Wed Dec 03 2025 13:41:08 GMT-0600 (Central Standard Time),321430.8000000119,CFD-WM-034-040-A.jpg,1200,dash,O,m,702,6,1,46152.0,275278.8000000119,7716,ATS,C,21
21,test,1,B,mfborder.png,1,z,Wed Dec 03 2025 13:41:08 GMT-0600 (Central Standard Time),324130.59999999404,CFD-WF-001-010-HC.jpg,1900,dash,O,z,768,8,1,48851.79999998212,275278.8000000119,7716,ATS,C,22
22,test,1,B,mfborder.png,1,z,Wed Dec 03 2025 13:41:08 GMT-0600 (Central Standard Time),326330.09999999404,CFD-BF-042-031-HC.jpg,1500,dash,O,z,676,3,1,51051.29999998212,275278.8000000119,7716,ATS,C,23
23,test,1,B,mfborder.png,1,z,Wed Dec 03 2025 13:41:08 GMT-0600 (Central Standard Time),328463.5,CFD-BF-019-004-HC.jpg,1400,dash,O,z,711,7,1,53184.69999998808,275278.8000000119,7716,ATS,C,24
0,prac,1,C,haborder.png,0,z,Wed Dec 03 2025 13:41:08 GMT-0600 (Central Standard Time),381328.3000000119,CFD-BF-031-020-A.jpg,1900,dash,O,None,1514,7,1,4198.5,377129.8000000119,7716,ATS,C,1
1,prac,1,C,haborder.png,1,m,Wed Dec 03 2025 13:41:08 GMT-0600 (Central Standard Time),385010.8000000119,CFD-BM-022-004-HC.jpg,1500,solid,O,m,1397,7,1,7881.0,377129.8000000119,7716,ATS,C,2
1,prac,1,C,mfborder.png,0,z,Wed Dec 03 2025 13:41:08 GMT-0600 (Central Standard Time),388309.7000000179,CFD-BF-019-004-HC.jpg,1000,dash,O,None,1513,7,1,11179.90000000596,377129.8000000119,7716,ATS,C,3
2,prac,1,C,mfborder.png,1,m,Wed Dec 03 2025 13:41:08 GMT-0600 (Central Standard Time),391409.90000000596,CFD-BM-043-014-A.jpg,1200,dash,O,m,1123,7,1,14280.09999999404,377129.8000000119,7716,ATS,C,4
3,prac,1,C,haborder.png,1,z,Wed Dec 03 2025 13:41:08 GMT-0600 (Central Standard Time),394742.40000000596,CFD-WF-037-016-A.jpg,1600,dash,O,z,951,7,1,17612.59999999404,377129.8000000119,7716,ATS,C,5
4,prac,1,C,mfborder.png,1,z,Wed Dec 03 2025 13:41:08 GMT-0600 (Central Standard Time),398190.7000000179,CFD-WF-023-013-A.jpg,1500,solid,O,z,1153,7,1,21060.90000000596,377129.8000000119,7716,ATS,C,6
5,prac,1,C,mfborder.png,1,m,Wed Dec 03 2025 13:41:08 GMT-0600 (Central Standard Time),401756.59999999404,CFD-BM-034-035-HC.jpg,2000,solid,O,m,794,7,1,24626.79999998212,377129.8000000119,7716,ATS,C,7
6,prac,1,C,mfborder.png,1,m,Wed Dec 03 2025 13:41:08 GMT-0600 (Central Standard Time),404987.90000000596,CFD-WM-036-018-A.jpg,1700,solid,O,m,738,7,1,27858.09999999404,377129.8000000119,7716,ATS,C,8
7,prac,1,C,haborder.png,1,m,Wed Dec 03 2025 13:41:08 GMT-0600 (Central Standard Time),407886.90000000596,CFD-WM-028-005-HC.jpg,1400,solid,O,m,702,7,1,30757.09999999404,377129.8000000119,7716,ATS,C,9
8,prac,1,C,haborder.png,1,z,Wed Dec 03 2025 13:41:08 GMT-0600 (Central Standard Time),411185.8000000119,CFD-BF-002-018-A.jpg,1700,solid,O,z,815,7,1,34056.0,377129.8000000119,7716,ATS,C,10
9,prac,1,C,mfborder.png,1,z,Wed Dec 03 2025 13:41:08 GMT-0600 (Central Standard Time),414168.40000000596,CFD-WF-013-009-HC.jpg,1600,dash,O,z,567,7,1,37038.59999999404,377129.8000000119,7716,ATS,C,11
10,prac,1,C,haborder.png,1,m,Wed Dec 03 2025 13:41:08 GMT-0600 (Central Standard Time),416534.3000000119,CFD-WM-028-005-HC.jpg,1000,dash,O,m,568,7,1,39404.5,377129.8000000119,7716,ATS,C,12
1,test,1,C,mfborder.png,1,m,Wed Dec 03 2025 13:41:08 GMT-0600 (Central Standard Time),434944.7000000179,CFD-WM-035-036-HC.jpg,1000,dash,O,m,601,4,1,1632.2000000178814,433312.5,7716,ATS,C,1
2,test,1,C,haborder.png,1,m,Wed Dec 03 2025 13:41:08 GMT-0600 (Central Standard Time),436795.8000000119,CFD-WF-013-009-HC.jpg,1000,solid,O,m,824,12,1,3483.300000011921,433312.5,7716,ATS,C,2
2,test,1,C,mfborder.png,0,z,Wed Dec 03 2025 13:41:08 GMT-0600 (Central Standard Time),439827.3000000119,CFD-WF-037-016-A.jpg,1500,dash,O,None,1516,3,1,6514.800000011921,433312.5,7716,ATS,C,3
2,test,1,C,haborder.png,0,z,Wed Dec 03 2025 13:41:08 GMT-0600 (Central Standard Time),442409.7000000179,CFD-WM-036-018-A.jpg,1400,solid,O,m,1157,7,1,9097.200000017881,433312.5,7716,ATS,C,4
3,test,1,C,mfborder.png,1,z,Wed Dec 03 2025 13:41:08 GMT-0600 (Central Standard Time),445610.0,CFD-BF-042-031-HC.jpg,1700,dash,O,z,1476,1,1,12297.5,433312.5,7716,ATS,C,5
4,test,1,C,haborder.png,1,m,Wed Dec 03 2025 13:41:08 GMT-0600 (Central Standard Time),447974.90000000596,CFD-WF-013-009-HC.jpg,1000,solid,O,m,1344,12,1,14662.40000000596,433312.5,7716,ATS,C,6
5,test,1,C,mfborder.png,1,z,Wed Dec 03 2025 13:41:08 GMT-0600 (Central Standard Time),450656.0,CFD-BF-042-031-HC.jpg,1700,dash,O,z,961,1,1,17343.5,433312.5,7716,ATS,C,7
5,test,1,C,mfborder.png,0,z,Wed Dec 03 2025 13:41:08 GMT-0600 (Central Standard Time),453790.90000000596,CFD-BF-031-020-A.jpg,1600,dash,O,None,1517,2,1,20478.40000000596,433312.5,7716,ATS,C,8
6,test,1,C,mfborder.png,1,z,Wed Dec 03 2025 13:41:08 GMT-0600 (Central Standard Time),456721.0,CFD-BF-031-020-A.jpg,1600,dash,O,z,1307,2,1,23408.5,433312.5,7716,ATS,C,9
7,test,1,C,mfborder.png,1,m,Wed Dec 03 2025 13:41:08 GMT-0600 (Central Standard Time),460020.0,CFD-WM-034-040-A.jpg,2000,dash,O,m,1273,5,1,26707.5,433312.5,7716,ATS,C,10
8,test,1,C,haborder.png,1,z,Wed Dec 03 2025 13:41:08 GMT-0600 (Central Standard Time),462570.8000000119,CFD-BM-021-026-A.jpg,1700,solid,O,z,833,9,1,29258.30000001192,433312.5,7716,ATS,C,11
9,test,1,C,mfborder.png,1,m,Wed Dec 03 2025 13:41:08 GMT-0600 (Central Standard Time),464719.59999999404,CFD-BM-022-004-HC.jpg,1200,dash,O,m,918,6,1,31407.09999999404,433312.5,7716,ATS,C,12
10,test,1,C,mfborder.png,1,m,Wed Dec 03 2025 13:41:08 GMT-0600 (Central Standard Time),468000.59999999404,CFD-WM-034-040-A.jpg,2000,dash,O,m,1251,5,1,34688.09999999404,433312.5,7716,ATS,C,13
11,test,1,C,haborder.png,1,m,Wed Dec 03 2025 13:41:08 GMT-0600 (Central Standard Time),470783.3000000119,CFD-BF-019-004-HC.jpg,1600,solid,O,m,1161,10,1,37470.80000001192,433312.5,7716,ATS,C,14
11,test,1,C,haborder.png,0,z,Wed Dec 03 2025 13:41:08 GMT-0600 (Central Standard Time),474224.3000000119,CFD-BM-043-014-A.jpg,1900,solid,O,None,1516,8,1,40911.80000001192,433312.5,7716,ATS,C,15
12,test,1,C,haborder.png,1,z,Wed Dec 03 2025 13:41:08 GMT-0600 (Central Standard Time),476615.3000000119,CFD-WM-036-018-A.jpg,1400,solid,O,z,977,7,1,43302.80000001192,433312.5,7716,ATS,C,16
12,test,1,C,mfborder.png,0,m,Wed Dec 03 2025 13:41:08 GMT-0600 (Central Standard Time),479147.3000000119,CFD-WM-035-036-HC.jpg,1000,dash,O,None,1515,4,1,45834.80000001192,433312.5,7716,ATS,C,17
12,test,1,C,haborder.png,0,m,Wed Dec 03 2025 13:41:08 GMT-0600 (Central Standard Time),482064.59999999404,CFD-WF-001-010-HC.jpg,1500,solid,O,z,1388,11,1,48752.09999999404,433312.5,7716,ATS,C,18
13,test,1,C,haborder.png,1,m,Wed Dec 03 2025 13:41:08 GMT-0600 (Central Standard Time),484263.90000000596,CFD-WF-001-010-HC.jpg,1500,solid,O,m,679,11,1,50951.40000000596,433312.5,7716,ATS,C,19
14,test,1,C,mfborder.png,1,z,Wed Dec 03 2025 13:41:08 GMT-0600 (Central Standard Time),486795.0,CFD-WF-037-016-A.jpg,1500,dash,O,z,984,3,1,53482.5,433312.5,7716,ATS,C,20
15,test,1,C,haborder.png,1,z,Wed Dec 03 2025 13:41:08 GMT-0600 (Central Standard Time),489844.09999999404,CFD-BM-021-026-A.jpg,1700,solid,O,z,1331,9,1,56531.59999999404,433312.5,7716,ATS,C,21
16,test,1,C,haborder.png,1,z,Wed Dec 03 2025 13:41:08 GMT-0600 (Central Standard Time),492493.0,CFD-BM-043-014-A.jpg,1900,solid,O,z,730,8,1,59180.5,433312.5,7716,ATS,C,22
17,test,1,C,mfborder.png,1,m,Wed Dec 03 2025 13:41:08 GMT-0600 (Central Standard Time),494342.7000000179,CFD-BM-022-004-HC.jpg,1200,dash,O,m,627,6,1,61030.20000001788,433312.5,7716,ATS,C,23
17,test,1,C,haborder.png,0,m,Wed Dec 03 2025 13:41:08 GMT-0600 (Central Standard Time),496692.7000000179,CFD-BF-019-004-HC.jpg,1600,solid,O,z,733,10,1,63380.20000001788,433312.5,7716,ATS,C,24
0,test,2,C,haborder.png,0,z,Wed Dec 03 2025 13:41:08 GMT-0600 (Central Standard Time),506373.40000000596,CFD-WF-037-016-A.jpg,1700,solid,O,None,1516,9,1,3232.5,503140.90000000596,7716,ATS,C,1
1,test,2,C,haborder.png,1,m,Wed Dec 03 2025 13:41:08 GMT-0600 (Central Standard Time),508771.3000000119,CFD-WM-028-005-HC.jpg,1000,solid,O,m,1368,12,1,5630.4000000059605,503140.90000000596,7716,ATS,C,2
2,test,2,C,mfborder.png,1,z,Wed Dec 03 2025 13:41:08 GMT-0600 (Central Standard Time),511171.0,CFD-WF-023-013-A.jpg,1600,dash,O,z,768,2,1,8030.0999999940395,503140.90000000596,7716,ATS,C,3
3,test,2,C,haborder.png,1,m,Wed Dec 03 2025 13:41:08 GMT-0600 (Central Standard Time),513154.0,CFD-WM-028-005-HC.jpg,1000,solid,O,m,959,12,1,10013.09999999404,503140.90000000596,7716,ATS,C,4
4,test,2,C,haborder.png,1,m,Wed Dec 03 2025 13:41:08 GMT-0600 (Central Standard Time),515836.59999999404,CFD-BM-022-004-HC.jpg,1600,solid,O,m,1057,10,1,12695.699999988079,503140.90000000596,7716,ATS,C,5
5,test,2,C,mfborder.png,1,z,Wed Dec 03 2025 13:41:08 GMT-0600 (Central Standard Time),518321.5,CFD-WF-023-013-A.jpg,1600,dash,O,z,853,2,1,15180.59999999404,503140.90000000596,7716,ATS,C,6
6,test,2,C,haborder.png,1,z,Wed Dec 03 2025 13:41:08 GMT-0600 (Central Standard Time),520517.90000000596,CFD-BF-031-020-A.jpg,1400,solid,O,z,780,7,1,17377.0,503140.90000000596,7716,ATS,C,7
7,test,2,C,haborder.png,1,z,Wed Dec 03 2025 13:41:08 GMT-0600 (Central Standard Time),522868.5,CFD-BF-031-020-A.jpg,1400,solid,O,z,934,7,1,19727.59999999404,503140.90000000596,7716,ATS,C,8
8,test,2,C,mfborder.png,1,m,Wed Dec 03 2025 13:41:08 GMT-0600 (Central Standard Time),525616.099999994,CFD-BM-043-014-A.jpg,2000,dash,O,m,728,5,1,22475.19999998808,503140.90000000596,7716,ATS,C,9
9,test,2,C,haborder.png,1,z,Wed Dec 03 2025 13:41:08 GMT-0600 (Central Standard Time),528249.099999994,CFD-WF-037-016-A.jpg,1700,solid,O,z,909,9,1,25108.19999998808,503140.90000000596,7716,ATS,C,10
10,test,2,C,haborder.png,1,m,Wed Dec 03 2025 13:41:08 GMT-0600 (Central Standard Time),530964.5,CFD-BM-022-004-HC.jpg,1600,solid,O,m,1085,10,1,27823.59999999404,503140.90000000596,7716,ATS,C,11
11,test,2,C,haborder.png,1,z,Wed Dec 03 2025 13:41:08 GMT-0600 (Central Standard Time),533879.900000006,CFD-BF-002-018-A.jpg,1900,solid,O,z,983,8,1,30739.0,503140.90000000596,7716,ATS,C,12
12,test,2,C,haborder.png,1,m,Wed Dec 03 2025 13:41:08 GMT-0600 (Central Standard Time),536246.099999994,CFD-WM-028-005-HC.jpg,1500,solid,O,m,846,11,1,33105.19999998808,503140.90000000596,7716,ATS,C,13
13,test,2,C,mfborder.png,1,z,Wed Dec 03 2025 13:41:08 GMT-0600 (Central Standard Time),538812.0,CFD-BF-019-004-HC.jpg,1500,dash,O,z,1033,3,1,35671.09999999404,503140.90000000596,7716,ATS,C,14
13,test,2,C,mfborder.png,0,m,Wed Dec 03 2025 13:41:08 GMT-0600 (Central Standard Time),541378.400000006,CFD-WM-036-018-A.jpg,1200,dash,O,z,1341,6,1,38237.5,503140.90000000596,7716,ATS,C,15
14,test,2,C,mfborder.png,1,m,Wed Dec 03 2025 13:41:08 GMT-0600 (Central Standard Time),543794.7000000179,CFD-WM-036-018-A.jpg,1200,dash,O,m,1183,6,1,40653.80000001192,503140.90000000596,7716,ATS,C,16
15,test,2,C,mfborder.png,1,z,Wed Dec 03 2025 13:41:08 GMT-0600 (Central Standard Time),546359.5,CFD-WF-013-009-HC.jpg,1700,dash,O,z,844,1,1,43218.59999999404,503140.90000000596,7716,ATS,C,17
16,test,2,C,mfborder.png,1,m,Wed Dec 03 2025 13:41:08 GMT-0600 (Central Standard Time),548593.0,CFD-BM-034-035-HC.jpg,1000,dash,O,m,1208,4,1,45452.09999999404,503140.90000000596,7716,ATS,C,18
17,test,2,C,haborder.png,1,m,Wed Dec 03 2025 13:41:08 GMT-0600 (Central Standard Time),551292.2000000179,CFD-WM-028-005-HC.jpg,1500,solid,O,m,1173,11,1,48151.30000001192,503140.90000000596,7716,ATS,C,19
17,test,2,C,mfborder.png,0,z,Wed Dec 03 2025 13:41:08 GMT-0600 (Central Standard Time),554324.3000000119,CFD-BF-019-004-HC.jpg,1500,dash,O,None,1513,3,1,51183.40000000596,503140.90000000596,7716,ATS,C,20
18,test,2,C,mfborder.png,1,m,Wed Dec 03 2025 13:41:08 GMT-0600 (Central Standard Time),556474.599999994,CFD-BM-034-035-HC.jpg,1000,dash,O,m,1125,4,1,53333.69999998808,503140.90000000596,7716,ATS,C,21
19,test,2,C,haborder.png,1,z,Wed Dec 03 2025 13:41:08 GMT-0600 (Central Standard Time),559405.099999994,CFD-BF-002-018-A.jpg,1900,solid,O,z,1012,8,1,56264.19999998808,503140.90000000596,7716,ATS,C,22
20,test,2,C,mfborder.png,1,m,Wed Dec 03 2025 13:41:08 GMT-0600 (Central Standard Time),562453.7000000179,CFD-BM-043-014-A.jpg,2000,dash,O,m,1030,5,1,59312.80000001192,503140.90000000596,7716,ATS,C,23
21,test,2,C,mfborder.png,1,z,Wed Dec 03 2025 13:41:08 GMT-0600 (Central Standard Time),565070.5,CFD-WF-013-009-HC.jpg,1700,dash,O,z,884,1,1,61929.59999999404,503140.90000000596,7716,ATS,C,24
0,test,3,C,mfborder.png,0,z,Wed Dec 03 2025 13:41:08 GMT-0600 (Central Standard Time),576435.599999994,CFD-BF-031-020-A.jpg,1600,dash,O,None,1501,2,1,3116.5,573319.099999994,7716,ATS,C,1
1,test,3,C,mfborder.png,1,m,Wed Dec 03 2025 13:41:08 GMT-0600 (Central Standard Time),578549.599999994,CFD-WM-035-036-HC.jpg,1000,dash,O,m,1096,4,1,5230.5,573319.099999994,7716,ATS,C,2
2,test,3,C,haborder.png,1,z,Wed Dec 03 2025 13:41:08 GMT-0600 (Central Standard Time),581165.099999994,CFD-WM-036-018-A.jpg,1400,solid,O,z,1182,7,1,7846.0,573319.099999994,7716,ATS,C,3
3,test,3,C,haborder.png,1,z,Wed Dec 03 2025 13:41:08 GMT-0600 (Central Standard Time),583613.0,CFD-WM-036-018-A.jpg,1400,solid,O,z,1027,7,1,10293.90000000596,573319.099999994,7716,ATS,C,4
3,test,3,C,mfborder.png,0,z,Wed Dec 03 2025 13:41:08 GMT-0600 (Central Standard Time),586847.5,CFD-BF-042-031-HC.jpg,1700,dash,O,None,1515,1,1,13528.40000000596,573319.099999994,7716,ATS,C,5
4,test,3,C,mfborder.png,1,m,Wed Dec 03 2025 13:41:08 GMT-0600 (Central Standard Time),588981.599999994,CFD-WM-035-036-HC.jpg,1000,dash,O,m,1102,4,1,15662.5,573319.099999994,7716,ATS,C,6
5,test,3,C,haborder.png,1,z,Wed Dec 03 2025 13:41:08 GMT-0600 (Central Standard Time),591844.7000000179,CFD-BM-021-026-A.jpg,1700,solid,O,z,1146,9,1,18525.600000023842,573319.099999994,7716,ATS,C,7
6,test,3,C,mfborder.png,1,m,Wed Dec 03 2025 13:41:08 GMT-0600 (Central Standard Time),594111.400000006,CFD-BM-022-004-HC.jpg,1200,dash,O,m,1045,6,1,20792.30000001192,573319.099999994,7716,ATS,C,8
7,test,3,C,haborder.png,1,z,Wed Dec 03 2025 13:41:08 GMT-0600 (Central Standard Time),596760.099999994,CFD-BM-021-026-A.jpg,1700,solid,O,z,926,9,1,23441.0,573319.099999994,7716,ATS,C,9
7,test,3,C,haborder.png,0,m,Wed Dec 03 2025 13:41:08 GMT-0600 (Central Standard Time),598676.7000000179,CFD-WF-013-009-HC.jpg,1000,solid,O,z,899,12,1,25357.600000023842,573319.099999994,7716,ATS,C,10
7,test,3,C,haborder.png,0,z,Wed Dec 03 2025 13:41:08 GMT-0600 (Central Standard Time),601975.599999994,CFD-BM-043-014-A.jpg,1900,solid,O,m,1370,8,1,28656.5,573319.099999994,7716,ATS,C,11
7,test,3,C,haborder.png,0,m,Wed Dec 03 2025 13:41:08 GMT-0600 (Central Standard Time),604291.2000000179,CFD-WF-001-010-HC.jpg,1500,solid,O,z,783,11,1,30972.100000023842,573319.099999994,7716,ATS,C,12
8,test,3,C,mfborder.png,1,m,Wed Dec 03 2025 13:41:08 GMT-0600 (Central Standard Time),606958.7000000179,CFD-BM-022-004-HC.jpg,1200,dash,O,m,1434,6,1,33639.60000002384,573319.099999994,7716,ATS,C,13
9,test,3,C,mfborder.png,1,z,Wed Dec 03 2025 13:41:08 GMT-0600 (Central Standard Time),609505.8000000119,CFD-WF-037-016-A.jpg,1500,dash,O,z,1026,3,1,36186.70000001788,573319.099999994,7716,ATS,C,14
9,test,3,C,haborder.png,0,m,Wed Dec 03 2025 13:41:08 GMT-0600 (Central Standard Time),612355.0,CFD-BF-019-004-HC.jpg,1600,solid,O,z,1224,10,1,39035.90000000596,573319.099999994,7716,ATS,C,15
10,test,3,C,haborder.png,1,m,Wed Dec 03 2025 13:41:08 GMT-0600 (Central Standard Time),614404.3000000119,CFD-WF-013-009-HC.jpg,1000,solid,O,m,1021,12,1,41085.20000001788,573319.099999994,7716,ATS,C,16
11,test,3,C,mfborder.png,1,z,Wed Dec 03 2025 13:41:08 GMT-0600 (Central Standard Time),616786.8000000119,CFD-WF-037-016-A.jpg,1500,dash,O,z,851,3,1,43467.70000001788,573319.099999994,7716,ATS,C,17
11,test,3,C,mfborder.png,0,m,Wed Dec 03 2025 13:41:08 GMT-0600 (Central Standard Time),620327.8000000119,CFD-WM-034-040-A.jpg,2000,dash,O,None,1514,5,1,47008.70000001788,573319.099999994,7716,ATS,C,18
12,test,3,C,haborder.png,1,m,Wed Dec 03 2025 13:41:08 GMT-0600 (Central Standard Time),623302.400000006,CFD-BF-019-004-HC.jpg,1600,solid,O,m,1350,10,1,49983.30000001192,573319.099999994,7716,ATS,C,19
12,test,3,C,mfborder.png,0,m,Wed Dec 03 2025 13:41:08 GMT-0600 (Central Standard Time),626401.400000006,CFD-WM-034-040-A.jpg,2000,dash,O,z,1075,5,1,53082.30000001192,573319.099999994,7716,ATS,C,20
13,test,3,C,mfborder.png,1,z,Wed Dec 03 2025 13:41:08 GMT-0600 (Central Standard Time),629099.8000000119,CFD-BF-031-020-A.jpg,1600,dash,O,z,1074,2,1,55780.70000001788,573319.099999994,7716,ATS,C,21
14,test,3,C,haborder.png,1,m,Wed Dec 03 2025 13:41:08 GMT-0600 (Central Standard Time),631765.900000006,CFD-WF-001-010-HC.jpg,1500,solid,O,m,1145,11,1,58446.80000001192,573319.099999994,7716,ATS,C,22
15,test,3,C,haborder.png,1,z,Wed Dec 03 2025 13:41:08 GMT-0600 (Central Standard Time),635180.0,CFD-BM-043-014-A.jpg,1900,solid,O,z,1488,8,1,61860.90000000596,573319.099999994,7716,ATS,C,23
16,test,3,C,mfborder.png,1,z,Wed Dec 03 2025 13:41:08 GMT-0600 (Central Standard Time),638397.5,CFD-BF-042-031-HC.jpg,1700,dash,O,z,1488,1,1,65078.40000000596,573319.099999994,7716,ATS,C,24
0,test,4,C,mfborder.png,0,m,Wed Dec 03 2025 13:41:08 GMT-0600 (Central Standard Time),645594.5,CFD-BM-034-035-HC.jpg,1000,dash,O,None,1515,4,1,2530.7999999821186,643063.7000000179,7716,ATS,C,1
1,test,4,C,mfborder.png,1,z,Wed Dec 03 2025 13:41:08 GMT-0600 (Central Standard Time),648576.5,CFD-WF-013-009-HC.jpg,1700,dash,O,z,1259,1,1,5512.799999982119,643063.7000000179,7716,ATS,C,2
2,test,4,C,mfborder.png,1,m,Wed Dec 03 2025 13:41:08 GMT-0600 (Central Standard Time),651242.900000006,CFD-WM-036-018-A.jpg,1200,dash,O,m,1439,6,1,8179.199999988079,643063.7000000179,7716,ATS,C,3
3,test,4,C,mfborder.png,1,z,Wed Dec 03 2025 13:41:08 GMT-0600 (Central Standard Time),654193.5,CFD-WF-013-009-HC.jpg,1700,dash,O,z,1219,1,1,11129.799999982119,643063.7000000179,7716,ATS,C,4
4,test,4,C,haborder.png,1,z,Wed Dec 03 2025 13:41:08 GMT-0600 (Central Standard Time),657024.599999994,CFD-WF-037-016-A.jpg,1700,solid,O,z,1106,9,1,13960.899999976158,643063.7000000179,7716,ATS,C,5
5,test,4,C,mfborder.png,1,z,Wed Dec 03 2025 13:41:08 GMT-0600 (Central Standard Time),659891.2000000179,CFD-WF-023-013-A.jpg,1600,dash,O,z,1242,2,1,16827.5,643063.7000000179,7716,ATS,C,6
5,test,4,C,mfborder.png,0,m,Wed Dec 03 2025 13:41:08 GMT-0600 (Central Standard Time),663039.5,CFD-BM-043-014-A.jpg,2000,dash,O,z,1102,5,1,19975.79999998212,643063.7000000179,7716,ATS,C,7
5,test,4,C,haborder.png,0,z,Wed Dec 03 2025 13:41:08 GMT-0600 (Central Standard Time),665638.900000006,CFD-BF-031-020-A.jpg,1400,solid,O,m,1170,7,1,22575.19999998808,643063.7000000179,7716,ATS,C,8
6,test,4,C,haborder.png,1,z,Wed Dec 03 2025 13:41:08 GMT-0600 (Central Standard Time),668472.0,CFD-BF-002-018-A.jpg,1900,solid,O,z,910,8,1,25408.29999998212,643063.7000000179,7716,ATS,C,9
6,test,4,C,haborder.png,0,m,Wed Dec 03 2025 13:41:08 GMT-0600 (Central Standard Time),671003.400000006,CFD-WM-028-005-HC.jpg,1000,solid,O,None,1515,12,1,27939.69999998808,643063.7000000179,7716,ATS,C,10
6,test,4,C,mfborder.png,0,z,Wed Dec 03 2025 13:41:08 GMT-0600 (Central Standard Time),674036.5,CFD-BF-019-004-HC.jpg,1500,dash,O,None,1516,3,1,30972.79999998212,643063.7000000179,7716,ATS,C,11
7,test,4,C,haborder.png,1,z,Wed Dec 03 2025 13:41:08 GMT-0600 (Central Standard Time),676734.400000006,CFD-BF-031-020-A.jpg,1400,solid,O,z,1277,7,1,33670.69999998808,643063.7000000179,7716,ATS,C,12
7,test,4,C,mfborder.png,0,m,Wed Dec 03 2025 13:41:08 GMT-0600 (Central Standard Time),679467.8000000119,CFD-WM-036-018-A.jpg,1200,dash,O,None,1517,6,1,36404.09999999404,643063.7000000179,7716,ATS,C,13
8,test,4,C,haborder.png,1,m,Wed Dec 03 2025 13:41:08 GMT-0600 (Central Standard Time),681866.599999994,CFD-BM-022-004-HC.jpg,1600,solid,O,m,771,10,1,38802.89999997616,643063.7000000179,7716,ATS,C,14
9,test,4,C,haborder.png,1,m,Wed Dec 03 2025 13:41:08 GMT-0600 (Central Standard Time),684049.099999994,CFD-WM-028-005-HC.jpg,1500,solid,O,m,667,11,1,40985.39999997616,643063.7000000179,7716,ATS,C,15
9,test,4,C,mfborder.png,0,m,Wed Dec 03 2025 13:41:08 GMT-0600 (Central Standard Time),687081.3000000119,CFD-BM-043-014-A.jpg,2000,dash,O,z,1009,5,1,44017.59999999404,643063.7000000179,7716,ATS,C,16
9,test,4,C,haborder.png,0,m,Wed Dec 03 2025 13:41:08 GMT-0600 (Central Standard Time),690114.099999994,CFD-WM-028-005-HC.jpg,1500,solid,O,None,1516,11,1,47050.39999997616,643063.7000000179,7716,ATS,C,17
10,test,4,C,haborder.png,1,z,Wed Dec 03 2025 13:41:08 GMT-0600 (Central Standard Time),692597.400000006,CFD-WF-037-016-A.jpg,1700,solid,O,z,767,9,1,49533.69999998808,643063.7000000179,7716,ATS,C,18
11,test,4,C,haborder.png,1,z,Wed Dec 03 2025 13:41:08 GMT-0600 (Central Standard Time),695446.900000006,CFD-BF-002-018-A.jpg,1900,solid,O,z,920,8,1,52383.19999998808,643063.7000000179,7716,ATS,C,19
11,test,4,C,mfborder.png,0,m,Wed Dec 03 2025 13:41:08 GMT-0600 (Central Standard Time),697980.900000006,CFD-BM-034-035-HC.jpg,1000,dash,O,None,1501,4,1,54917.19999998808,643063.7000000179,7716,ATS,C,20
12,test,4,C,mfborder.png,1,z,Wed Dec 03 2025 13:41:08 GMT-0600 (Central Standard Time),700560.7000000179,CFD-WF-023-013-A.jpg,1600,dash,O,z,960,2,1,57497.0,643063.7000000179,7716,ATS,C,21
12,test,4,C,mfborder.png,0,z,Wed Dec 03 2025 13:41:08 GMT-0600 (Central Standard Time),703359.3000000119,CFD-BF-019-004-HC.jpg,1500,dash,O,m,1276,3,1,60295.59999999404,643063.7000000179,7716,ATS,C,22
13,test,4,C,haborder.png,1,m,Wed Dec 03 2025 13:41:08 GMT-0600 (Central Standard Time),705659.5,CFD-WM-028-005-HC.jpg,1000,solid,O,m,1282,12,1,62595.79999998212,643063.7000000179,7716,ATS,C,23
14,test,4,C,haborder.png,1,m,Wed Dec 03 2025 13:41:08 GMT-0600 (Central Standard Time),708023.900000006,CFD-BM-022-004-HC.jpg,1600,solid,O,m,727,10,1,64960.19999998808,643063.7000000179,7716,ATS,C,24
