acc_sum,block,block_c,change,condition,correct,correct_response,datetime,endtime,face,project,response,response_time,row_sel,session_number,start_end,starttime,subject_id,task,task_vers,trial
0,prac,1,,1-Back,,,Mon May 11 2026 17:10:19 GMT-0500 (Central Daylight Time),,097_m_f_n_a.png,I,space,6595,1,3,,,8066,NNB,B,0
1,prac,1,0.0,1-Back,1.0,m,Mon May 11 2026 17:10:19 GMT-0500 (Central Daylight Time),93927.20000004768,152_y_f_n_a.png,I,m,810,2,3,1671.1000000238419,92256.10000002384,8066,NNB,B,1
2,prac,1,1.0,1-Back,1.0,z,Mon May 11 2026 17:10:19 GMT-0500 (Central Daylight Time),95859.89999997616,152_y_f_n_a.png,I,z,1153,3,3,1924.6999999284744,93935.20000004768,8066,NNB,B,2
3,prac,1,0.0,1-Back,1.0,m,Mon May 11 2026 17:10:19 GMT-0500 (Central Daylight Time),97542.60000002384,176_o_m_n_a.png,I,m,808,4,3,1673.6000000238419,95869.0,8066,NNB,B,3
4,prac,1,0.0,1-Back,1.0,m,Mon May 11 2026 17:10:19 GMT-0500 (Central Daylight Time),99308.80000007153,126_m_m_n_a.png,I,m,985,5,3,1757.6000000238419,97551.20000004768,8066,NNB,B,4
5,prac,1,1.0,1-Back,1.0,z,Mon May 11 2026 17:10:19 GMT-0500 (Central Daylight Time),100924.80000007153,126_m_m_n_a.png,I,z,827,6,3,1606.5,99318.30000007153,8066,NNB,B,5
6,prac,1,0.0,1-Back,1.0,m,Mon May 11 2026 17:10:19 GMT-0500 (Central Daylight Time),103024.20000004768,086_o_f_n_a.png,I,m,1315,7,3,2091.2000000476837,100933.0,8066,NNB,B,6
7,prac,1,0.0,1-Back,1.0,m,Mon May 11 2026 17:10:19 GMT-0500 (Central Daylight Time),104806.89999997616,178_m_m_n_a.png,I,m,920,8,3,1774.0999999046326,103032.80000007153,8066,NNB,B,7
8,prac,1,0.0,1-Back,1.0,m,Mon May 11 2026 17:10:19 GMT-0500 (Central Daylight Time),106289.70000004768,097_m_f_n_a.png,I,m,697,9,3,1474.3999999761581,104815.30000007153,8066,NNB,B,8
9,prac,1,1.0,1-Back,1.0,z,Mon May 11 2026 17:10:19 GMT-0500 (Central Daylight Time),107822.80000007153,097_m_f_n_a.png,I,z,743,10,3,1525.6000000238419,106297.20000004768,8066,NNB,B,9
10,prac,1,0.0,1-Back,1.0,m,Mon May 11 2026 17:10:19 GMT-0500 (Central Daylight Time),109322.30000007153,176_o_m_n_a.png,I,m,721,11,3,1490.8000000715256,107831.5,8066,NNB,B,10
11,prac,1,0.0,1-Back,1.0,m,Mon May 11 2026 17:10:19 GMT-0500 (Central Daylight Time),110855.0,173_y_f_n_a.png,I,m,659,12,3,1522.7999999523163,109332.20000004768,8066,NNB,B,11
0,test,1,0.0,1-Back,,,Mon May 11 2026 17:10:19 GMT-0500 (Central Daylight Time),110855.0,152_y_f_n_a.png,I,space,8107,1,3,1522.7999999523163,109332.20000004768,8066,NNB,B,0
1,test,1,0.0,1-Back,1.0,m,Mon May 11 2026 17:10:19 GMT-0500 (Central Daylight Time),131015.39999997616,029_m_f_n_a.png,I,m,1110,2,3,2127.5999999046326,128887.80000007153,8066,NNB,B,1
2,test,1,0.0,1-Back,1.0,m,Mon May 11 2026 17:10:19 GMT-0500 (Central Daylight Time),132714.89999997616,173_y_f_n_a.png,I,m,673,3,3,1696.2999999523163,131018.60000002384,8066,NNB,B,2
3,test,1,1.0,1-Back,1.0,z,Mon May 11 2026 17:10:19 GMT-0500 (Central Daylight Time),134397.70000004768,173_y_f_n_a.png,I,z,655,4,3,1680.2000000476837,132717.5,8066,NNB,B,3
4,test,1,0.0,1-Back,1.0,m,Mon May 11 2026 17:10:19 GMT-0500 (Central Daylight Time),136113.70000004768,029_m_f_n_a.png,I,m,691,5,3,1713.6000000238419,134400.10000002384,8066,NNB,B,4
5,test,1,0.0,1-Back,1.0,m,Mon May 11 2026 17:10:19 GMT-0500 (Central Daylight Time),137763.10000002384,176_o_m_n_a.png,I,m,632,6,3,1646.5,136116.60000002384,8066,NNB,B,5
6,test,1,1.0,1-Back,1.0,z,Mon May 11 2026 17:10:19 GMT-0500 (Central Daylight Time),139246.0,176_o_m_n_a.png,I,z,453,7,3,1480.2999999523163,137765.70000004768,8066,NNB,B,6
7,test,1,0.0,1-Back,1.0,m,Mon May 11 2026 17:10:19 GMT-0500 (Central Daylight Time),140845.60000002384,126_m_m_n_a.png,I,m,570,8,3,1596.8999999761581,139248.70000004768,8066,NNB,B,7
8,test,1,0.0,1-Back,1.0,m,Mon May 11 2026 17:10:19 GMT-0500 (Central Daylight Time),142528.60000002384,086_o_f_n_a.png,I,m,652,9,3,1680.3999999761581,140848.20000004768,8066,NNB,B,8
9,test,1,0.0,1-Back,1.0,m,Mon May 11 2026 17:10:19 GMT-0500 (Central Daylight Time),144161.30000007153,126_m_m_n_a.png,I,m,608,10,3,1629.8000000715256,142531.5,8066,NNB,B,9
10,test,1,0.0,1-Back,1.0,m,Mon May 11 2026 17:10:19 GMT-0500 (Central Daylight Time),145827.30000007153,153_y_m_n_a.png,I,m,647,11,3,1663.5,144163.80000007153,8066,NNB,B,10
11,test,1,1.0,1-Back,1.0,z,Mon May 11 2026 17:10:19 GMT-0500 (Central Daylight Time),147610.20000004768,153_y_m_n_a.png,I,z,765,12,3,1780.2000000476837,145830.0,8066,NNB,B,11
12,test,1,0.0,1-Back,1.0,m,Mon May 11 2026 17:10:19 GMT-0500 (Central Daylight Time),149459.70000004768,110_o_f_n_a.png,I,m,823,13,3,1846.7000000476837,147613.0,8066,NNB,B,12
13,test,1,1.0,1-Back,1.0,z,Mon May 11 2026 17:10:19 GMT-0500 (Central Daylight Time),151109.0,110_o_f_n_a.png,I,z,629,14,3,1646.8999999761581,149462.10000002384,8066,NNB,B,13
14,test,1,0.0,1-Back,1.0,m,Mon May 11 2026 17:10:19 GMT-0500 (Central Daylight Time),152558.60000002384,013_y_m_n_a.png,I,m,419,15,3,1446.7000000476837,151111.89999997616,8066,NNB,B,14
14,test,1,0.0,1-Back,0.0,m,Mon May 11 2026 17:10:19 GMT-0500 (Central Daylight Time),154174.70000004768,097_m_f_n_a.png,I,z,586,16,3,1612.7000000476837,152562.0,8066,NNB,B,15
15,test,1,0.0,1-Back,1.0,m,Mon May 11 2026 17:10:19 GMT-0500 (Central Daylight Time),155857.60000002384,065_o_m_n_a.png,I,m,650,17,3,1680.1000000238419,154177.5,8066,NNB,B,16
16,test,1,0.0,1-Back,1.0,m,Mon May 11 2026 17:10:19 GMT-0500 (Central Daylight Time),157623.70000004768,097_m_f_n_a.png,I,m,743,18,3,1763.6000000238419,155860.10000002384,8066,NNB,B,17
0,test,2,0.0,1-Back,,,Mon May 11 2026 17:10:19 GMT-0500 (Central Daylight Time),157623.70000004768,126_m_m_n_a.png,I,space,1313,1,3,1763.6000000238419,155860.10000002384,8066,NNB,B,0
1,test,2,0.0,1-Back,1.0,m,Mon May 11 2026 17:10:19 GMT-0500 (Central Daylight Time),162622.20000004768,029_m_f_n_a.png,I,m,637,2,3,1662.7000000476837,160959.5,8066,NNB,B,1
2,test,2,1.0,1-Back,1.0,z,Mon May 11 2026 17:10:19 GMT-0500 (Central Daylight Time),164488.5,029_m_f_n_a.png,I,z,835,3,3,1863.6999999284744,162624.80000007153,8066,NNB,B,2
3,test,2,0.0,1-Back,1.0,m,Mon May 11 2026 17:10:19 GMT-0500 (Central Daylight Time),166071.5,126_m_m_n_a.png,I,m,561,4,3,1580.3999999761581,164491.10000002384,8066,NNB,B,3
4,test,2,0.0,1-Back,1.0,m,Mon May 11 2026 17:10:19 GMT-0500 (Central Daylight Time),167755.39999997616,153_y_m_n_a.png,I,m,658,5,3,1681.0999999046326,166074.30000007153,8066,NNB,B,4
5,test,2,0.0,1-Back,1.0,m,Mon May 11 2026 17:10:19 GMT-0500 (Central Daylight Time),169388.10000002384,152_y_f_n_a.png,I,m,615,6,3,1629.8999999761581,167758.20000004768,8066,NNB,B,5
6,test,2,1.0,1-Back,1.0,z,Mon May 11 2026 17:10:19 GMT-0500 (Central Daylight Time),170953.30000007153,152_y_f_n_a.png,I,z,533,7,3,1562.5,169390.80000007153,8066,NNB,B,6
7,test,2,0.0,1-Back,1.0,m,Mon May 11 2026 17:10:19 GMT-0500 (Central Daylight Time),172586.20000004768,153_y_m_n_a.png,I,m,608,8,3,1630.3999999761581,170955.80000007153,8066,NNB,B,7
8,test,2,0.0,1-Back,1.0,m,Mon May 11 2026 17:10:19 GMT-0500 (Central Daylight Time),174168.89999997616,110_o_f_n_a.png,I,m,559,9,3,1580.2999999523163,172588.60000002384,8066,NNB,B,8
9,test,2,0.0,1-Back,1.0,m,Mon May 11 2026 17:10:19 GMT-0500 (Central Daylight Time),175701.80000007153,178_m_m_n_a.png,I,m,512,10,3,1530.0,174171.80000007153,8066,NNB,B,9
10,test,2,1.0,1-Back,1.0,z,Mon May 11 2026 17:10:19 GMT-0500 (Central Daylight Time),177434.70000004768,178_m_m_n_a.png,I,z,699,11,3,1730.3999999761581,175704.30000007153,8066,NNB,B,10
11,test,2,0.0,1-Back,1.0,m,Mon May 11 2026 17:10:19 GMT-0500 (Central Daylight Time),178917.5,110_o_f_n_a.png,I,m,463,12,3,1480.1999999284744,177437.30000007153,8066,NNB,B,11
12,test,2,0.0,1-Back,1.0,m,Mon May 11 2026 17:10:19 GMT-0500 (Central Daylight Time),180483.5,086_o_f_n_a.png,I,m,539,13,3,1563.3999999761581,178920.10000002384,8066,NNB,B,12
13,test,2,0.0,1-Back,1.0,m,Mon May 11 2026 17:10:19 GMT-0500 (Central Daylight Time),182116.20000004768,176_o_m_n_a.png,I,m,614,14,3,1630.1000000238419,180486.10000002384,8066,NNB,B,13
14,test,2,0.0,1-Back,1.0,m,Mon May 11 2026 17:10:19 GMT-0500 (Central Daylight Time),183855.89999997616,065_o_m_n_a.png,I,m,589,15,3,1737.1999999284744,182118.70000004768,8066,NNB,B,14
15,test,2,1.0,1-Back,1.0,z,Mon May 11 2026 17:10:19 GMT-0500 (Central Daylight Time),185465.39999997616,065_o_m_n_a.png,I,z,592,16,3,1604.0999999046326,183861.30000007153,8066,NNB,B,15
16,test,2,0.0,1-Back,1.0,m,Mon May 11 2026 17:10:19 GMT-0500 (Central Daylight Time),187065.60000002384,013_y_m_n_a.png,I,m,583,17,3,1597.3999999761581,185468.20000004768,8066,NNB,B,16
17,test,2,1.0,1-Back,1.0,z,Mon May 11 2026 17:10:19 GMT-0500 (Central Daylight Time),188898.10000002384,013_y_m_n_a.png,I,z,817,18,3,1829.7999999523163,187068.30000007153,8066,NNB,B,17
0,test,3,1.0,1-Back,,,Mon May 11 2026 17:10:19 GMT-0500 (Central Daylight Time),188898.10000002384,173_y_f_n_a.png,I,space,1352,1,3,1829.7999999523163,187068.30000007153,8066,NNB,B,0
1,test,3,0.0,1-Back,1.0,m,Mon May 11 2026 17:10:19 GMT-0500 (Central Daylight Time),194012.60000002384,065_o_m_n_a.png,I,m,639,1,3,1662.2999999523163,192350.30000007153,8066,NNB,B,1
2,test,3,1.0,1-Back,1.0,z,Mon May 11 2026 17:10:19 GMT-0500 (Central Daylight Time),195662.0,065_o_m_n_a.png,I,z,621,1,3,1646.7999999523163,194015.20000004768,8066,NNB,B,2
3,test,3,0.0,1-Back,1.0,m,Mon May 11 2026 17:10:19 GMT-0500 (Central Daylight Time),197244.89999997616,097_m_f_n_a.png,I,m,556,1,3,1580.1999999284744,195664.70000004768,8066,NNB,B,3
4,test,3,1.0,1-Back,1.0,z,Mon May 11 2026 17:10:19 GMT-0500 (Central Daylight Time),198844.60000002384,097_m_f_n_a.png,I,z,573,1,3,1597.0,197247.60000002384,8066,NNB,B,4
5,test,3,0.0,1-Back,1.0,m,Mon May 11 2026 17:10:19 GMT-0500 (Central Daylight Time),200427.10000002384,110_o_f_n_a.png,I,m,565,1,3,1580.1000000238419,198847.0,8066,NNB,B,5
6,test,3,0.0,1-Back,1.0,m,Mon May 11 2026 17:10:19 GMT-0500 (Central Daylight Time),202026.89999997616,153_y_m_n_a.png,I,m,574,1,3,1597.2999999523163,200429.60000002384,8066,NNB,B,6
7,test,3,0.0,1-Back,1.0,m,Mon May 11 2026 17:10:19 GMT-0500 (Central Daylight Time),203692.80000007153,110_o_f_n_a.png,I,m,639,1,3,1663.5,202029.30000007153,8066,NNB,B,7
8,test,3,0.0,1-Back,1.0,m,Mon May 11 2026 17:10:19 GMT-0500 (Central Daylight Time),205308.60000002384,013_y_m_n_a.png,I,m,588,1,3,1612.8999999761581,203695.70000004768,8066,NNB,B,8
9,test,3,1.0,1-Back,1.0,z,Mon May 11 2026 17:10:19 GMT-0500 (Central Daylight Time),206941.89999997616,013_y_m_n_a.png,I,z,612,1,3,1630.7999999523163,205311.10000002384,8066,NNB,B,9
10,test,3,0.0,1-Back,1.0,m,Mon May 11 2026 17:10:19 GMT-0500 (Central Daylight Time),208541.20000004768,029_m_f_n_a.png,I,m,580,1,3,1596.3000000715256,206944.89999997616,8066,NNB,B,10
11,test,3,0.0,1-Back,1.0,m,Mon May 11 2026 17:10:19 GMT-0500 (Central Daylight Time),210074.10000002384,152_y_f_n_a.png,I,m,516,1,3,1529.8999999761581,208544.20000004768,8066,NNB,B,11
12,test,3,1.0,1-Back,1.0,z,Mon May 11 2026 17:10:19 GMT-0500 (Central Daylight Time),211790.39999997616,152_y_f_n_a.png,I,z,695,1,3,1713.7999999523163,210076.60000002384,8066,NNB,B,12
13,test,3,0.0,1-Back,1.0,m,Mon May 11 2026 17:10:19 GMT-0500 (Central Daylight Time),213390.20000004768,029_m_f_n_a.png,I,m,571,1,3,1597.2000000476837,211793.0,8066,NNB,B,13
14,test,3,0.0,1-Back,1.0,m,Mon May 11 2026 17:10:19 GMT-0500 (Central Daylight Time),214989.39999997616,126_m_m_n_a.png,I,m,579,1,3,1596.5,213392.89999997616,8066,NNB,B,14
15,test,3,1.0,1-Back,1.0,z,Mon May 11 2026 17:10:19 GMT-0500 (Central Daylight Time),216588.89999997616,126_m_m_n_a.png,I,z,580,1,3,1597.0,214991.89999997616,8066,NNB,B,15
16,test,3,0.0,1-Back,1.0,m,Mon May 11 2026 17:10:19 GMT-0500 (Central Daylight Time),218255.20000004768,086_o_f_n_a.png,I,m,645,1,3,1663.7000000476837,216591.5,8066,NNB,B,16
17,test,3,1.0,1-Back,1.0,z,Mon May 11 2026 17:10:19 GMT-0500 (Central Daylight Time),220037.89999997616,086_o_f_n_a.png,I,z,755,1,3,1780.0999999046326,218257.80000007153,8066,NNB,B,17
0,test,4,1.0,1-Back,,,Mon May 11 2026 17:10:19 GMT-0500 (Central Daylight Time),220037.89999997616,097_m_f_n_a.png,I,space,1236,1,3,1780.0999999046326,218257.80000007153,8066,NNB,B,0
1,test,4,0.0,1-Back,1.0,m,Mon May 11 2026 17:10:19 GMT-0500 (Central Daylight Time),224969.89999997616,065_o_m_n_a.png,I,m,575,2,3,1595.2999999523163,223374.60000002384,8066,NNB,B,1
2,test,4,0.0,1-Back,1.0,m,Mon May 11 2026 17:10:19 GMT-0500 (Central Daylight Time),226469.30000007153,097_m_f_n_a.png,I,m,479,3,3,1497.0,224972.30000007153,8066,NNB,B,2
3,test,4,0.0,1-Back,1.0,m,Mon May 11 2026 17:10:19 GMT-0500 (Central Daylight Time),228068.70000004768,110_o_f_n_a.png,I,m,572,4,3,1596.8999999761581,226471.80000007153,8066,NNB,B,3
4,test,4,1.0,1-Back,1.0,z,Mon May 11 2026 17:10:19 GMT-0500 (Central Daylight Time),229718.39999997616,110_o_f_n_a.png,I,z,621,5,3,1647.5,228070.89999997616,8066,NNB,B,4
5,test,4,0.0,1-Back,1.0,m,Mon May 11 2026 17:10:19 GMT-0500 (Central Daylight Time),231167.80000007153,152_y_f_n_a.png,I,m,428,6,3,1446.9000000953674,229720.89999997616,8066,NNB,B,5
6,test,4,0.0,1-Back,1.0,m,Mon May 11 2026 17:10:19 GMT-0500 (Central Daylight Time),232683.89999997616,153_y_m_n_a.png,I,m,496,7,3,1513.1999999284744,231170.70000004768,8066,NNB,B,6
7,test,4,1.0,1-Back,1.0,z,Mon May 11 2026 17:10:19 GMT-0500 (Central Daylight Time),234316.60000002384,153_y_m_n_a.png,I,z,606,8,3,1630.2999999523163,232686.30000007153,8066,NNB,B,7
8,test,4,0.0,1-Back,1.0,m,Mon May 11 2026 17:10:19 GMT-0500 (Central Daylight Time),235882.89999997616,152_y_f_n_a.png,I,m,533,9,3,1563.7999999523163,234319.10000002384,8066,NNB,B,8
9,test,4,0.0,1-Back,1.0,m,Mon May 11 2026 17:10:19 GMT-0500 (Central Daylight Time),237482.30000007153,178_m_m_n_a.png,I,m,566,10,3,1596.9000000953674,235885.39999997616,8066,NNB,B,9
10,test,4,1.0,1-Back,1.0,z,Mon May 11 2026 17:10:19 GMT-0500 (Central Daylight Time),239215.20000004768,178_m_m_n_a.png,I,z,711,11,3,1730.3000000715256,237484.89999997616,8066,NNB,B,10
11,test,4,0.0,1-Back,1.0,m,Mon May 11 2026 17:10:19 GMT-0500 (Central Daylight Time),240814.89999997616,086_o_f_n_a.png,I,m,570,12,3,1596.7999999523163,239218.10000002384,8066,NNB,B,11
12,test,4,0.0,1-Back,1.0,m,Mon May 11 2026 17:10:19 GMT-0500 (Central Daylight Time),242364.20000004768,176_o_m_n_a.png,I,m,523,13,3,1546.7000000476837,240817.5,8066,NNB,B,12
13,test,4,0.0,1-Back,1.0,m,Mon May 11 2026 17:10:19 GMT-0500 (Central Daylight Time),243897.0,086_o_f_n_a.png,I,m,509,14,3,1530.2999999523163,242366.70000004768,8066,NNB,B,13
14,test,4,0.0,1-Back,1.0,m,Mon May 11 2026 17:10:19 GMT-0500 (Central Daylight Time),245463.20000004768,173_y_f_n_a.png,I,m,544,15,3,1563.7000000476837,243899.5,8066,NNB,B,14
15,test,4,1.0,1-Back,1.0,z,Mon May 11 2026 17:10:19 GMT-0500 (Central Daylight Time),247129.30000007153,173_y_f_n_a.png,I,z,642,16,3,1662.7000000476837,245466.60000002384,8066,NNB,B,15
16,test,4,0.0,1-Back,1.0,m,Mon May 11 2026 17:10:19 GMT-0500 (Central Daylight Time),248795.30000007153,029_m_f_n_a.png,I,m,646,17,3,1663.4000000953674,247131.89999997616,8066,NNB,B,16
17,test,4,1.0,1-Back,1.0,z,Mon May 11 2026 17:10:19 GMT-0500 (Central Daylight Time),250594.70000004768,029_m_f_n_a.png,I,z,774,18,3,1796.5,248798.20000004768,8066,NNB,B,17
0,test,5,1.0,1-Back,,,Mon May 11 2026 17:10:19 GMT-0500 (Central Daylight Time),250594.70000004768,176_o_m_n_a.png,I,space,1159,1,3,1796.5,248798.20000004768,8066,NNB,B,0
1,test,5,1.0,1-Back,1.0,z,Mon May 11 2026 17:10:19 GMT-0500 (Central Daylight Time),255610.5,176_o_m_n_a.png,I,z,816,2,3,1828.3999999761581,253782.10000002384,8066,NNB,B,1
2,test,5,0.0,1-Back,1.0,m,Mon May 11 2026 17:10:19 GMT-0500 (Central Daylight Time),257126.30000007153,152_y_f_n_a.png,I,m,495,3,3,1513.0,255613.30000007153,8066,NNB,B,2
3,test,5,0.0,1-Back,1.0,m,Mon May 11 2026 17:10:19 GMT-0500 (Central Daylight Time),258642.30000007153,153_y_m_n_a.png,I,m,491,4,3,1513.5,257128.80000007153,8066,NNB,B,3
4,test,5,0.0,1-Back,1.0,m,Mon May 11 2026 17:10:19 GMT-0500 (Central Daylight Time),260141.89999997616,152_y_f_n_a.png,I,m,479,5,3,1496.8999999761581,258645.0,8066,NNB,B,4
5,test,5,0.0,1-Back,1.0,m,Mon May 11 2026 17:10:19 GMT-0500 (Central Daylight Time),262457.89999997616,126_m_m_n_a.png,I,m,1284,6,3,2313.5999999046326,260144.30000007153,8066,NNB,B,5
6,test,5,1.0,1-Back,1.0,z,Mon May 11 2026 17:10:19 GMT-0500 (Central Daylight Time),264091.8000000715,126_m_m_n_a.png,I,z,616,7,3,1631.3000000715256,262460.5,8066,NNB,B,6
7,test,5,0.0,1-Back,1.0,m,Mon May 11 2026 17:10:19 GMT-0500 (Central Daylight Time),265706.7000000477,173_y_f_n_a.png,I,m,599,8,3,1612.1000000238419,264094.60000002384,8066,NNB,B,7
8,test,5,0.0,1-Back,1.0,m,Mon May 11 2026 17:10:19 GMT-0500 (Central Daylight Time),267356.39999997616,013_y_m_n_a.png,I,m,623,9,3,1647.3999999761581,265709.0,8066,NNB,B,8
9,test,5,0.0,1-Back,1.0,m,Mon May 11 2026 17:10:19 GMT-0500 (Central Daylight Time),269139.10000002384,173_y_f_n_a.png,I,m,749,10,3,1780.2000000476837,267358.89999997616,8066,NNB,B,9
10,test,5,0.0,1-Back,1.0,m,Mon May 11 2026 17:10:19 GMT-0500 (Central Daylight Time),270721.89999997616,086_o_f_n_a.png,I,m,550,11,3,1580.0,269141.89999997616,8066,NNB,B,10
11,test,5,1.0,1-Back,1.0,z,Mon May 11 2026 17:10:19 GMT-0500 (Central Daylight Time),272254.89999997616,086_o_f_n_a.png,I,z,511,12,3,1530.0999999046326,270724.8000000715,8066,NNB,B,11
12,test,5,0.0,1-Back,1.0,m,Mon May 11 2026 17:10:19 GMT-0500 (Central Daylight Time),273821.10000002384,065_o_m_n_a.png,I,m,540,13,3,1563.5,272257.60000002384,8066,NNB,B,12
13,test,5,0.0,1-Back,1.0,m,Mon May 11 2026 17:10:19 GMT-0500 (Central Daylight Time),275354.2000000477,097_m_f_n_a.png,I,m,516,14,3,1530.7000000476837,273823.5,8066,NNB,B,13
14,test,5,1.0,1-Back,1.0,z,Mon May 11 2026 17:10:19 GMT-0500 (Central Daylight Time),276953.39999997616,097_m_f_n_a.png,I,z,576,15,3,1596.6999999284744,275356.7000000477,8066,NNB,B,14
15,test,5,0.0,1-Back,1.0,m,Mon May 11 2026 17:10:19 GMT-0500 (Central Daylight Time),278569.7000000477,065_o_m_n_a.png,I,m,547,16,3,1613.7000000476837,276956.0,8066,NNB,B,15
16,test,5,0.0,1-Back,1.0,m,Mon May 11 2026 17:10:19 GMT-0500 (Central Daylight Time),280135.60000002384,029_m_f_n_a.png,I,m,536,17,3,1563.3999999761581,278572.2000000477,8066,NNB,B,16
17,test,5,0.0,1-Back,1.0,m,Mon May 11 2026 17:10:19 GMT-0500 (Central Daylight Time),281635.3000000715,178_m_m_n_a.png,I,m,473,18,3,1497.1000000238419,280138.2000000477,8066,NNB,B,17
0,prac,1,0.0,2-Back,,,Mon May 11 2026 17:10:19 GMT-0500 (Central Daylight Time),281635.3000000715,013_y_m_n_a.png,I,space,7116,1,3,1497.1000000238419,280138.2000000477,8066,NNB,B,0
0,prac,1,0.0,2-Back,,,Mon May 11 2026 17:10:19 GMT-0500 (Central Daylight Time),281635.3000000715,029_m_f_n_a.png,I,space,7116,2,3,1497.1000000238419,280138.2000000477,8066,NNB,B,0
1,prac,1,1.0,2-Back,1.0,m,Mon May 11 2026 17:10:19 GMT-0500 (Central Daylight Time),385003.10000002384,065_o_m_n_a.png,I,m,851,3,3,1706.8999999761581,383296.2000000477,8066,NNB,B,1
2,prac,1,0.0,2-Back,1.0,m,Mon May 11 2026 17:10:19 GMT-0500 (Central Daylight Time),386686.0,086_o_f_n_a.png,I,m,798,4,3,1673.8999999761581,385012.10000002384,8066,NNB,B,2
3,prac,1,0.0,2-Back,1.0,z,Mon May 11 2026 17:10:19 GMT-0500 (Central Daylight Time),388101.8000000715,065_o_m_n_a.png,I,z,628,5,3,1407.8000000715256,386694.0,8066,NNB,B,3
4,prac,1,1.0,2-Back,1.0,z,Mon May 11 2026 17:10:19 GMT-0500 (Central Daylight Time),389734.7000000477,086_o_f_n_a.png,I,z,844,6,3,1624.7000000476837,388110.0,8066,NNB,B,4
5,prac,1,0.0,2-Back,1.0,m,Mon May 11 2026 17:10:19 GMT-0500 (Central Daylight Time),392100.7000000477,178_m_m_n_a.png,I,m,1507,7,3,2356.8000000715256,389743.89999997616,8066,NNB,B,5
6,prac,1,0.0,2-Back,1.0,m,Mon May 11 2026 17:10:19 GMT-0500 (Central Daylight Time),393883.7000000477,176_o_m_n_a.png,I,m,924,8,3,1777.5,392106.2000000477,8066,NNB,B,6
7,prac,1,0.0,2-Back,1.0,m,Mon May 11 2026 17:10:19 GMT-0500 (Central Daylight Time),395516.39999997616,173_y_f_n_a.png,I,m,771,9,3,1626.3999999761581,393890.0,8066,NNB,B,7
8,prac,1,1.0,2-Back,1.0,z,Mon May 11 2026 17:10:19 GMT-0500 (Central Daylight Time),397032.5,176_o_m_n_a.png,I,z,741,10,3,1508.3999999761581,395524.10000002384,8066,NNB,B,8
9,prac,1,0.0,2-Back,1.0,m,Mon May 11 2026 17:10:19 GMT-0500 (Central Daylight Time),398598.89999997616,152_y_f_n_a.png,I,m,709,11,3,1558.2999999523163,397040.60000002384,8066,NNB,B,9
10,prac,1,0.0,2-Back,1.0,m,Mon May 11 2026 17:10:19 GMT-0500 (Central Daylight Time),400764.39999997616,178_m_m_n_a.png,I,m,1380,12,3,2159.0,398605.39999997616,8066,NNB,B,10
0,test,1,0.0,2-Back,,,Mon May 11 2026 17:10:19 GMT-0500 (Central Daylight Time),400764.39999997616,153_y_m_n_a.png,I,space,6646,1,3,2159.0,398605.39999997616,8066,NNB,B,0
0,test,1,0.0,2-Back,,,Mon May 11 2026 17:10:19 GMT-0500 (Central Daylight Time),400764.39999997616,153_y_m_n_a.png,I,space,6646,2,3,2159.0,398605.39999997616,8066,NNB,B,0
1,test,1,0.0,2-Back,1.0,m,Mon May 11 2026 17:10:19 GMT-0500 (Central Daylight Time),421558.2000000477,086_o_f_n_a.png,I,m,579,3,3,1596.2000000476837,419962.0,8066,NNB,B,1
2,test,1,0.0,2-Back,1.0,m,Mon May 11 2026 17:10:19 GMT-0500 (Central Daylight Time),423241.10000002384,126_m_m_n_a.png,I,m,659,4,3,1680.2000000476837,421560.89999997616,8066,NNB,B,2
3,test,1,1.0,2-Back,1.0,z,Mon May 11 2026 17:10:19 GMT-0500 (Central Daylight Time),424807.10000002384,086_o_f_n_a.png,I,z,537,5,3,1563.7000000476837,423243.39999997616,8066,NNB,B,3
4,test,1,0.0,2-Back,1.0,m,Mon May 11 2026 17:10:19 GMT-0500 (Central Daylight Time),426623.3000000715,152_y_f_n_a.png,I,m,795,6,3,1813.8000000715256,424809.5,8066,NNB,B,4
4,test,1,0.0,2-Back,0.0,m,Mon May 11 2026 17:10:19 GMT-0500 (Central Daylight Time),428556.0,126_m_m_n_a.png,I,z,906,7,3,1930.1000000238419,426625.89999997616,8066,NNB,B,5
5,test,1,1.0,2-Back,1.0,z,Mon May 11 2026 17:10:19 GMT-0500 (Central Daylight Time),430738.5,152_y_f_n_a.png,I,z,1165,8,3,2180.0,428558.5,8066,NNB,B,6
6,test,1,0.0,2-Back,1.0,m,Mon May 11 2026 17:10:19 GMT-0500 (Central Daylight Time),432954.60000002384,013_y_m_n_a.png,I,m,1183,9,3,2213.7999999523163,430740.8000000715,8066,NNB,B,7
7,test,1,0.0,2-Back,1.0,m,Mon May 11 2026 17:10:19 GMT-0500 (Central Daylight Time),434753.7000000477,110_o_f_n_a.png,I,m,767,10,3,1796.5,432957.2000000477,8066,NNB,B,8
8,test,1,1.0,2-Back,1.0,z,Mon May 11 2026 17:10:19 GMT-0500 (Central Daylight Time),436370.2000000477,013_y_m_n_a.png,I,z,584,11,3,1614.1000000238419,434756.10000002384,8066,NNB,B,9
9,test,1,0.0,2-Back,1.0,m,Mon May 11 2026 17:10:19 GMT-0500 (Central Daylight Time),438036.60000002384,029_m_f_n_a.png,I,m,639,12,3,1663.7999999523163,436372.8000000715,8066,NNB,B,10
10,test,1,0.0,2-Back,1.0,m,Mon May 11 2026 17:10:19 GMT-0500 (Central Daylight Time),440785.5,029_m_f_n_a.png,I,m,1725,13,3,2746.6999999284744,438038.8000000715,8066,NNB,B,11
11,test,1,0.0,2-Back,1.0,m,Mon May 11 2026 17:10:19 GMT-0500 (Central Daylight Time),443501.3000000715,065_o_m_n_a.png,I,m,1688,14,3,2713.2000000476837,440788.10000002384,8066,NNB,B,12
11,test,1,0.0,2-Back,0.0,m,Mon May 11 2026 17:10:19 GMT-0500 (Central Daylight Time),446317.10000002384,110_o_f_n_a.png,I,z,1796,15,3,2813.2999999523163,443503.8000000715,8066,NNB,B,13
12,test,1,1.0,2-Back,1.0,z,Mon May 11 2026 17:10:19 GMT-0500 (Central Daylight Time),448349.7000000477,065_o_m_n_a.png,I,z,1005,16,3,2030.1000000238419,446319.60000002384,8066,NNB,B,14
13,test,1,0.0,2-Back,1.0,m,Mon May 11 2026 17:10:19 GMT-0500 (Central Daylight Time),450182.39999997616,097_m_f_n_a.png,I,m,804,17,3,1830.1999999284744,448352.2000000477,8066,NNB,B,15
14,test,1,0.0,2-Back,1.0,m,Mon May 11 2026 17:10:19 GMT-0500 (Central Daylight Time),452498.5,178_m_m_n_a.png,I,m,1291,18,3,2313.6999999284744,450184.8000000715,8066,NNB,B,16
0,test,2,0.0,2-Back,,,Mon May 11 2026 17:10:19 GMT-0500 (Central Daylight Time),452498.5,178_m_m_n_a.png,I,space,1815,1,3,2313.6999999284744,450184.8000000715,8066,NNB,B,0
0,test,2,0.0,2-Back,,,Mon May 11 2026 17:10:19 GMT-0500 (Central Daylight Time),452498.5,173_y_f_n_a.png,I,space,1815,2,3,2313.6999999284744,450184.8000000715,8066,NNB,B,0
1,test,2,1.0,2-Back,1.0,z,Mon May 11 2026 17:10:19 GMT-0500 (Central Daylight Time),461395.3000000715,178_m_m_n_a.png,I,z,948,3,3,1961.8000000715256,459433.5,8066,NNB,B,1
2,test,2,0.0,2-Back,1.0,m,Mon May 11 2026 17:10:19 GMT-0500 (Central Daylight Time),463311.7000000477,097_m_f_n_a.png,I,m,894,4,3,1913.8000000715256,461397.89999997616,8066,NNB,B,2
2,test,2,0.0,2-Back,0.0,m,Mon May 11 2026 17:10:19 GMT-0500 (Central Daylight Time),465577.89999997616,173_y_f_n_a.png,I,z,1234,5,3,2263.5,463314.39999997616,8066,NNB,B,3
3,test,2,0.0,2-Back,1.0,m,Mon May 11 2026 17:10:19 GMT-0500 (Central Daylight Time),467443.5,065_o_m_n_a.png,I,m,786,6,3,1863.0,465580.5,8066,NNB,B,4
4,test,2,0.0,2-Back,1.0,m,Mon May 11 2026 17:10:19 GMT-0500 (Central Daylight Time),469809.60000002384,152_y_f_n_a.png,I,m,1342,7,3,2363.7000000476837,467445.89999997616,8066,NNB,B,5
5,test,2,1.0,2-Back,1.0,z,Mon May 11 2026 17:10:19 GMT-0500 (Central Daylight Time),471825.7000000477,065_o_m_n_a.png,I,z,984,8,3,2013.8000000715256,469811.89999997616,8066,NNB,B,6
6,test,2,0.0,2-Back,1.0,m,Mon May 11 2026 17:10:19 GMT-0500 (Central Daylight Time),474075.10000002384,013_y_m_n_a.png,I,m,1224,9,3,2246.899999976158,471828.2000000477,8066,NNB,B,7
7,test,2,0.0,2-Back,1.0,m,Mon May 11 2026 17:10:19 GMT-0500 (Central Daylight Time),476707.39999997616,013_y_m_n_a.png,I,m,1606,10,3,2629.7999999523163,474077.60000002384,8066,NNB,B,8
8,test,2,0.0,2-Back,1.0,m,Mon May 11 2026 17:10:19 GMT-0500 (Central Daylight Time),479290.2000000477,029_m_f_n_a.png,I,m,1550,11,3,2580.399999976158,476709.8000000715,8066,NNB,B,9
8,test,2,0.0,2-Back,0.0,m,Mon May 11 2026 17:10:19 GMT-0500 (Central Daylight Time),481157.0,173_y_f_n_a.png,I,z,848,12,3,1864.2999999523163,479292.7000000477,8066,NNB,B,10
8,test,2,1.0,2-Back,0.0,z,Mon May 11 2026 17:10:19 GMT-0500 (Central Daylight Time),484188.7000000477,029_m_f_n_a.png,I,None,2016,13,3,3029.100000023842,481159.60000002384,8066,NNB,B,11
9,test,2,0.0,2-Back,1.0,m,Mon May 11 2026 17:10:19 GMT-0500 (Central Daylight Time),486154.60000002384,176_o_m_n_a.png,I,m,949,14,3,1961.2000000476837,484193.39999997616,8066,NNB,B,12
10,test,2,0.0,2-Back,1.0,m,Mon May 11 2026 17:10:19 GMT-0500 (Central Daylight Time),487987.39999997616,176_o_m_n_a.png,I,m,799,15,3,1830.5999999046326,486156.8000000715,8066,NNB,B,13
11,test,2,0.0,2-Back,1.0,m,Mon May 11 2026 17:10:19 GMT-0500 (Central Daylight Time),490068.2000000477,110_o_f_n_a.png,I,m,1064,16,3,2078.3000000715256,487989.89999997616,8066,NNB,B,14
12,test,2,0.0,2-Back,1.0,m,Mon May 11 2026 17:10:19 GMT-0500 (Central Daylight Time),492136.2000000477,126_m_m_n_a.png,I,m,1045,17,3,2064.600000023842,490071.60000002384,8066,NNB,B,15
13,test,2,1.0,2-Back,1.0,z,Mon May 11 2026 17:10:19 GMT-0500 (Central Daylight Time),493735.7000000477,110_o_f_n_a.png,I,z,578,18,3,1597.1000000238419,492138.60000002384,8066,NNB,B,16
0,test,3,1.0,2-Back,,,Mon May 11 2026 17:10:19 GMT-0500 (Central Daylight Time),493735.7000000477,153_y_m_n_a.png,I,space,1475,1,3,1597.1000000238419,492138.60000002384,8066,NNB,B,0
0,test,3,1.0,2-Back,,,Mon May 11 2026 17:10:19 GMT-0500 (Central Daylight Time),493735.7000000477,153_y_m_n_a.png,I,space,1475,2,3,1597.1000000238419,492138.60000002384,8066,NNB,B,0
1,test,3,0.0,2-Back,1.0,m,Mon May 11 2026 17:10:19 GMT-0500 (Central Daylight Time),501932.8000000715,110_o_f_n_a.png,I,m,572,3,3,1595.0,500337.8000000715,8066,NNB,B,1
2,test,3,0.0,2-Back,1.0,m,Mon May 11 2026 17:10:19 GMT-0500 (Central Daylight Time),503615.8000000715,178_m_m_n_a.png,I,m,661,4,3,1680.3000000715256,501935.5,8066,NNB,B,2
2,test,3,1.0,2-Back,0.0,z,Mon May 11 2026 17:10:19 GMT-0500 (Central Daylight Time),505664.7000000477,110_o_f_n_a.png,I,m,1018,5,3,2046.6000000238419,503618.10000002384,8066,NNB,B,3
3,test,3,0.0,2-Back,1.0,m,Mon May 11 2026 17:10:19 GMT-0500 (Central Daylight Time),507847.8000000715,013_y_m_n_a.png,I,m,1160,6,3,2180.600000023842,505667.2000000477,8066,NNB,B,4
3,test,3,0.0,2-Back,0.0,m,Mon May 11 2026 17:10:19 GMT-0500 (Central Daylight Time),510430.10000002384,178_m_m_n_a.png,I,z,1563,7,3,2579.899999976158,507850.2000000477,8066,NNB,B,5
4,test,3,1.0,2-Back,1.0,z,Mon May 11 2026 17:10:19 GMT-0500 (Central Daylight Time),512346.3000000715,013_y_m_n_a.png,I,z,891,8,3,1913.8000000715256,510432.5,8066,NNB,B,6
5,test,3,0.0,2-Back,1.0,m,Mon May 11 2026 17:10:19 GMT-0500 (Central Daylight Time),515278.60000002384,173_y_f_n_a.png,I,m,1903,9,3,2929.7999999523163,512348.8000000715,8066,NNB,B,7
5,test,3,0.0,2-Back,0.0,m,Mon May 11 2026 17:10:19 GMT-0500 (Central Daylight Time),518311.2000000477,126_m_m_n_a.png,I,None,2014,10,3,3030.100000023842,515281.10000002384,8066,NNB,B,8
6,test,3,1.0,2-Back,1.0,z,Mon May 11 2026 17:10:19 GMT-0500 (Central Daylight Time),520360.60000002384,173_y_f_n_a.png,I,z,1017,11,3,2045.2000000476837,518315.39999997616,8066,NNB,B,9
7,test,3,1.0,2-Back,1.0,z,Mon May 11 2026 17:10:19 GMT-0500 (Central Daylight Time),522226.60000002384,126_m_m_n_a.png,I,z,833,12,3,1863.5,520363.10000002384,8066,NNB,B,10
8,test,3,0.0,2-Back,1.0,m,Mon May 11 2026 17:10:19 GMT-0500 (Central Daylight Time),524059.5,110_o_f_n_a.png,I,m,808,13,3,1830.2999999523163,522229.2000000477,8066,NNB,B,11
9,test,3,0.0,2-Back,1.0,m,Mon May 11 2026 17:10:19 GMT-0500 (Central Daylight Time),525791.8999999762,097_m_f_n_a.png,I,m,702,14,3,1730.0,524061.89999997616,8066,NNB,B,12
10,test,3,0.0,2-Back,1.0,m,Mon May 11 2026 17:10:19 GMT-0500 (Central Daylight Time),527541.7000000477,065_o_m_n_a.png,I,m,721,15,3,1747.6000000238419,525794.1000000238,8066,NNB,B,13
11,test,3,1.0,2-Back,1.0,z,Mon May 11 2026 17:10:19 GMT-0500 (Central Daylight Time),529107.8000000715,097_m_f_n_a.png,I,z,548,16,3,1563.7000000476837,527544.1000000238,8066,NNB,B,14
12,test,3,0.0,2-Back,1.0,m,Mon May 11 2026 17:10:19 GMT-0500 (Central Daylight Time),531007.3000000715,086_o_f_n_a.png,I,m,870,17,3,1897.1000000238419,529110.2000000477,8066,NNB,B,15
13,test,3,0.0,2-Back,1.0,m,Mon May 11 2026 17:10:19 GMT-0500 (Central Daylight Time),532806.8000000715,086_o_f_n_a.png,I,m,778,18,3,1796.8000000715256,531010.0,8066,NNB,B,16
0,test,4,0.0,2-Back,,,Mon May 11 2026 17:10:19 GMT-0500 (Central Daylight Time),532806.8000000715,176_o_m_n_a.png,I,space,1531,1,3,1796.8000000715256,531010.0,8066,NNB,B,0
0,test,4,0.0,2-Back,,,Mon May 11 2026 17:10:19 GMT-0500 (Central Daylight Time),532806.8000000715,152_y_f_n_a.png,I,space,1531,2,3,1796.8000000715256,531010.0,8066,NNB,B,0
0,test,4,1.0,2-Back,0.0,z,Mon May 11 2026 17:10:19 GMT-0500 (Central Daylight Time),541437.3999999762,176_o_m_n_a.png,I,m,879,3,3,1895.3999999761581,539542.0,8066,NNB,B,1
1,test,4,1.0,2-Back,1.0,z,Mon May 11 2026 17:10:19 GMT-0500 (Central Daylight Time),543486.7000000477,152_y_f_n_a.png,I,z,1020,4,3,2046.8000000715256,541439.8999999762,8066,NNB,B,2
2,test,4,0.0,2-Back,1.0,m,Mon May 11 2026 17:10:19 GMT-0500 (Central Daylight Time),545186.3999999762,110_o_f_n_a.png,I,m,679,5,3,1696.8999999761581,543489.5,8066,NNB,B,3
3,test,4,0.0,2-Back,1.0,m,Mon May 11 2026 17:10:19 GMT-0500 (Central Daylight Time),547002.3000000715,110_o_f_n_a.png,I,m,792,6,3,1813.4000000953674,545188.8999999762,8066,NNB,B,4
4,test,4,0.0,2-Back,1.0,m,Mon May 11 2026 17:10:19 GMT-0500 (Central Daylight Time),548768.5,029_m_f_n_a.png,I,m,744,7,3,1763.7999999523163,547004.7000000477,8066,NNB,B,5
5,test,4,0.0,2-Back,1.0,m,Mon May 11 2026 17:10:19 GMT-0500 (Central Daylight Time),550384.1000000238,013_y_m_n_a.png,I,m,593,8,3,1613.2000000476837,548770.8999999762,8066,NNB,B,6
6,test,4,1.0,2-Back,1.0,z,Mon May 11 2026 17:10:19 GMT-0500 (Central Daylight Time),552283.8999999762,029_m_f_n_a.png,I,z,873,9,3,1897.1999999284744,550386.7000000477,8066,NNB,B,7
6,test,4,0.0,2-Back,0.0,m,Mon May 11 2026 17:10:19 GMT-0500 (Central Daylight Time),554216.7000000477,126_m_m_n_a.png,I,z,909,10,3,1930.3000000715256,552286.3999999762,8066,NNB,B,8
7,test,4,0.0,2-Back,1.0,m,Mon May 11 2026 17:10:19 GMT-0500 (Central Daylight Time),556216.0,013_y_m_n_a.png,I,m,977,11,3,1996.7999999523163,554219.2000000477,8066,NNB,B,9
8,test,4,0.0,2-Back,1.0,m,Mon May 11 2026 17:10:19 GMT-0500 (Central Daylight Time),558431.8999999762,086_o_f_n_a.png,I,m,1193,12,3,2213.399999976158,556218.5,8066,NNB,B,10
9,test,4,0.0,2-Back,1.0,m,Mon May 11 2026 17:10:19 GMT-0500 (Central Daylight Time),560448.0,153_y_m_n_a.png,I,m,986,13,3,2013.7999999523163,558434.2000000477,8066,NNB,B,11
10,test,4,1.0,2-Back,1.0,z,Mon May 11 2026 17:10:19 GMT-0500 (Central Daylight Time),561997.3999999762,086_o_f_n_a.png,I,z,529,14,3,1546.5999999046326,560450.8000000715,8066,NNB,B,12
11,test,4,1.0,2-Back,1.0,z,Mon May 11 2026 17:10:19 GMT-0500 (Central Daylight Time),563646.8999999762,153_y_m_n_a.png,I,z,620,15,3,1647.1999999284744,561999.7000000477,8066,NNB,B,13
12,test,4,0.0,2-Back,1.0,m,Mon May 11 2026 17:10:19 GMT-0500 (Central Daylight Time),565662.6000000238,178_m_m_n_a.png,I,m,994,16,3,2012.8999999761581,563649.7000000477,8066,NNB,B,14
13,test,4,0.0,2-Back,1.0,m,Mon May 11 2026 17:10:19 GMT-0500 (Central Daylight Time),567679.3000000715,097_m_f_n_a.png,I,m,987,17,3,2013.8000000715256,565665.5,8066,NNB,B,15
13,test,4,1.0,2-Back,0.0,z,Mon May 11 2026 17:10:19 GMT-0500 (Central Daylight Time),569511.7000000477,178_m_m_n_a.png,I,m,802,18,3,1829.8999999761581,567681.8000000715,8066,NNB,B,16
0,test,5,1.0,2-Back,,,Mon May 11 2026 17:10:19 GMT-0500 (Central Daylight Time),569511.7000000477,153_y_m_n_a.png,I,space,1258,1,3,1829.8999999761581,567681.8000000715,8066,NNB,B,0
0,test,5,1.0,2-Back,,,Mon May 11 2026 17:10:19 GMT-0500 (Central Daylight Time),569511.7000000477,097_m_f_n_a.png,I,space,1258,2,3,1829.8999999761581,567681.8000000715,8066,NNB,B,0
1,test,5,1.0,2-Back,1.0,z,Mon May 11 2026 17:10:19 GMT-0500 (Central Daylight Time),577426.1000000238,153_y_m_n_a.png,I,z,575,3,3,1595.3999999761581,575830.7000000477,8066,NNB,B,1
2,test,5,1.0,2-Back,1.0,z,Mon May 11 2026 17:10:19 GMT-0500 (Central Daylight Time),578992.1000000238,097_m_f_n_a.png,I,z,545,4,3,1563.6000000238419,577428.5,8066,NNB,B,2
3,test,5,0.0,2-Back,1.0,m,Mon May 11 2026 17:10:19 GMT-0500 (Central Daylight Time),580775.0,086_o_f_n_a.png,I,m,753,5,3,1780.3999999761581,578994.6000000238,8066,NNB,B,3
3,test,5,0.0,2-Back,0.0,m,Mon May 11 2026 17:10:19 GMT-0500 (Central Daylight Time),583807.2000000477,153_y_m_n_a.png,I,None,2015,6,3,3029.8000000715256,580777.3999999762,8066,NNB,B,4
4,test,5,0.0,2-Back,1.0,m,Mon May 11 2026 17:10:19 GMT-0500 (Central Daylight Time),585623.5,173_y_f_n_a.png,I,m,794,7,3,1812.2999999523163,583811.2000000477,8066,NNB,B,5
5,test,5,0.0,2-Back,1.0,m,Mon May 11 2026 17:10:19 GMT-0500 (Central Daylight Time),587606.0,086_o_f_n_a.png,I,m,954,8,3,1980.1000000238419,585625.8999999762,8066,NNB,B,6
6,test,5,1.0,2-Back,1.0,z,Mon May 11 2026 17:10:19 GMT-0500 (Central Daylight Time),589322.3999999762,173_y_f_n_a.png,I,z,699,9,3,1713.8999999761581,587608.5,8066,NNB,B,7
6,test,5,0.0,2-Back,0.0,m,Mon May 11 2026 17:10:19 GMT-0500 (Central Daylight Time),591021.7000000477,065_o_m_n_a.png,I,z,679,10,3,1697.0,589324.7000000477,8066,NNB,B,8
7,test,5,0.0,2-Back,1.0,m,Mon May 11 2026 17:10:19 GMT-0500 (Central Daylight Time),592854.6000000238,029_m_f_n_a.png,I,m,804,11,3,1830.3999999761581,591024.2000000477,8066,NNB,B,9
8,test,5,0.0,2-Back,1.0,m,Mon May 11 2026 17:10:19 GMT-0500 (Central Daylight Time),594820.7000000477,126_m_m_n_a.png,I,m,939,12,3,1963.7000000476837,592857.0,8066,NNB,B,10
9,test,5,0.0,2-Back,1.0,m,Mon May 11 2026 17:10:19 GMT-0500 (Central Daylight Time),597170.0,065_o_m_n_a.png,I,m,1326,13,3,2346.6999999284744,594823.3000000715,8066,NNB,B,11
10,test,5,1.0,2-Back,1.0,z,Mon May 11 2026 17:10:19 GMT-0500 (Central Daylight Time),599119.0,126_m_m_n_a.png,I,z,929,14,3,1946.6000000238419,597172.3999999762,8066,NNB,B,12
11,test,5,0.0,2-Back,1.0,m,Mon May 11 2026 17:10:19 GMT-0500 (Central Daylight Time),601118.5,152_y_f_n_a.png,I,m,970,15,3,1997.1000000238419,599121.3999999762,8066,NNB,B,13
12,test,5,0.0,2-Back,1.0,m,Mon May 11 2026 17:10:19 GMT-0500 (Central Daylight Time),603334.8000000715,176_o_m_n_a.png,I,m,1188,16,3,2213.9000000953674,601120.8999999762,8066,NNB,B,14
13,test,5,0.0,2-Back,1.0,m,Mon May 11 2026 17:10:19 GMT-0500 (Central Daylight Time),604967.3000000715,029_m_f_n_a.png,I,m,604,17,3,1630.1000000238419,603337.2000000477,8066,NNB,B,15
14,test,5,1.0,2-Back,1.0,z,Mon May 11 2026 17:10:19 GMT-0500 (Central Daylight Time),607016.8000000715,176_o_m_n_a.png,I,z,1018,18,3,2047.0,604969.8000000715,8066,NNB,B,16
