block_c,block_dur,condition,countdown,datetime,endtime,list,multichar_response,project,response,response_time,session_number,start_end,starttime,subject_id,task,task_vers,trial
,,,,Wed Apr 22 2026 14:10:49 GMT-0500 (Central Daylight Time),,,,O,space,364,1,,,7758,WL,C,
prac,,0,,Wed Apr 22 2026 14:10:49 GMT-0500 (Central Daylight Time),,NA,b,O,b,1297,1,,,7758,WL,C,1.0
prac,,0,,Wed Apr 22 2026 14:10:49 GMT-0500 (Central Daylight Time),,NA,bo,O,o,356,1,,,7758,WL,C,1.0
prac,,0,,Wed Apr 22 2026 14:10:49 GMT-0500 (Central Daylight Time),,NA,boo,O,o,160,1,,,7758,WL,C,1.0
prac,,0,,Wed Apr 22 2026 14:10:49 GMT-0500 (Central Daylight Time),,NA,boos,O,s,599,1,,,7758,WL,C,1.0
prac,,0,,Wed Apr 22 2026 14:10:49 GMT-0500 (Central Daylight Time),,NA,boost,O,t,311,1,,,7758,WL,C,1.0
prac,,0,,Wed Apr 22 2026 14:10:49 GMT-0500 (Central Daylight Time),,NA,boostenter,O,enter,1043,1,,,7758,WL,C,1.0
1,1.1490001678466797,learn,58850.99983215332,Wed Apr 22 2026 14:10:49 GMT-0500 (Central Daylight Time),87318.60000002384,A,q,O,q,1140,1,1149.0,86169.60000002384,7758,WL,C,1.0
1,1.565999984741211,learn,58434.00001525879,Wed Apr 22 2026 14:10:49 GMT-0500 (Central Daylight Time),87735.60000002384,A,qu,O,u,398,1,1566.0,86169.60000002384,7758,WL,C,1.0
1,1.8849999904632568,learn,58115.00000953674,Wed Apr 22 2026 14:10:49 GMT-0500 (Central Daylight Time),88054.10000002384,A,que,O,e,302,1,1884.5,86169.60000002384,7758,WL,C,1.0
1,2.0829999446868896,learn,57917.00005531311,Wed Apr 22 2026 14:10:49 GMT-0500 (Central Daylight Time),88252.79999995232,A,quee,O,e,191,1,2083.1999999284744,86169.60000002384,7758,WL,C,1.0
1,2.3329999446868896,learn,57667.00005531311,Wed Apr 22 2026 14:10:49 GMT-0500 (Central Daylight Time),88502.10000002384,A,queen,O,n,232,1,2332.5,86169.60000002384,7758,WL,C,1.0
1,4.817000150680542,learn,55182.99984931946,Wed Apr 22 2026 14:10:49 GMT-0500 (Central Daylight Time),90985.79999995232,A,queenenter,O,enter,2465,1,4816.199999928474,86169.60000002384,7758,WL,C,1.0
1,5.664000034332275,learn,54335.999965667725,Wed Apr 22 2026 14:10:49 GMT-0500 (Central Daylight Time),91833.5,A,t,O,t,836,1,847.3000000715256,90986.19999992847,7758,WL,C,2.0
1,5.980999946594238,learn,54019.00005340576,Wed Apr 22 2026 14:10:49 GMT-0500 (Central Daylight Time),92150.39999997616,A,to,O,o,307,1,1164.2000000476837,90986.19999992847,7758,WL,C,2.0
1,6.89900016784668,learn,53100.99983215332,Wed Apr 22 2026 14:10:49 GMT-0500 (Central Daylight Time),93068.60000002384,A,tow,O,w,895,1,2082.4000000953674,90986.19999992847,7758,WL,C,2.0
1,7.180999994277954,learn,52819.000005722046,Wed Apr 22 2026 14:10:49 GMT-0500 (Central Daylight Time),93349.89999997616,A,towe,O,e,265,1,2363.7000000476837,90986.19999992847,7758,WL,C,2.0
1,7.46399998664856,learn,52536.00001335144,Wed Apr 22 2026 14:10:49 GMT-0500 (Central Daylight Time),93633.19999992847,A,tower,O,r,264,1,2647.0,90986.19999992847,7758,WL,C,2.0
1,8.716000080108643,learn,51283.99991989136,Wed Apr 22 2026 14:10:49 GMT-0500 (Central Daylight Time),94885.10000002384,A,towerenter,O,enter,1246,1,3898.9000000953674,90986.19999992847,7758,WL,C,2.0
1,9.27999997138977,learn,50720.00002861023,Wed Apr 22 2026 14:10:49 GMT-0500 (Central Daylight Time),95449.29999995232,A,w,O,w,544,1,563.8999999761581,94885.39999997616,7758,WL,C,3.0
1,9.61300015449524,learn,50386.99984550476,Wed Apr 22 2026 14:10:49 GMT-0500 (Central Daylight Time),95782.69999992847,A,wh,O,h,315,1,897.2999999523163,94885.39999997616,7758,WL,C,3.0
1,9.748000144958496,learn,50251.999855041504,Wed Apr 22 2026 14:10:49 GMT-0500 (Central Daylight Time),95916.89999997616,A,whe,O,e,120,1,1031.5,94885.39999997616,7758,WL,C,3.0
1,10.078999996185303,learn,49921.0000038147,Wed Apr 22 2026 14:10:49 GMT-0500 (Central Daylight Time),96248.79999995232,A,whea,O,a,320,1,1363.3999999761581,94885.39999997616,7758,WL,C,3.0
1,10.318000078201294,learn,49681.999921798706,Wed Apr 22 2026 14:10:49 GMT-0500 (Central Daylight Time),96487.29999995232,A,wheat,O,t,230,1,1601.8999999761581,94885.39999997616,7758,WL,C,3.0
1,11.380000114440918,learn,48619.99988555908,Wed Apr 22 2026 14:10:49 GMT-0500 (Central Daylight Time),97549.19999992847,A,wheatenter,O,enter,1047,1,2663.7999999523163,94885.39999997616,7758,WL,C,3.0
1,11.71500015258789,learn,48284.99984741211,Wed Apr 22 2026 14:10:49 GMT-0500 (Central Daylight Time),97884.79999995232,A,s,O,s,313,1,335.2999999523163,97549.5,7758,WL,C,4.0
1,12.062999963760376,learn,47937.000036239624,Wed Apr 22 2026 14:10:49 GMT-0500 (Central Daylight Time),98231.79999995232,A,su,O,u,336,1,682.2999999523163,97549.5,7758,WL,C,4.0
1,12.27999997138977,learn,47720.00002861023,Wed Apr 22 2026 14:10:49 GMT-0500 (Central Daylight Time),98449.10000002384,A,sug,O,g,199,1,899.6000000238419,97549.5,7758,WL,C,4.0
1,12.480000019073486,learn,47519.999980926514,Wed Apr 22 2026 14:10:49 GMT-0500 (Central Daylight Time),98649.0,A,suga,O,a,181,1,1099.5,97549.5,7758,WL,C,4.0
1,12.729000091552734,learn,47270.999908447266,Wed Apr 22 2026 14:10:49 GMT-0500 (Central Daylight Time),98898.79999995232,A,sugar,O,r,228,1,1349.2999999523163,97549.5,7758,WL,C,4.0
1,13.17900013923645,learn,46820.99986076355,Wed Apr 22 2026 14:10:49 GMT-0500 (Central Daylight Time),99348.60000002384,A,sugarenter,O,enter,442,1,1799.1000000238419,97549.5,7758,WL,C,4.0
1,13.628999948501587,learn,46371.00005149841,Wed Apr 22 2026 14:10:49 GMT-0500 (Central Daylight Time),99798.39999997616,A,b,O,b,434,1,449.39999997615814,99349.0,7758,WL,C,5.0
1,13.979000091552734,learn,46020.999908447266,Wed Apr 22 2026 14:10:49 GMT-0500 (Central Daylight Time),100148.5,A,bo,O,o,336,1,799.5,99349.0,7758,WL,C,5.0
1,14.328999996185303,learn,45671.0000038147,Wed Apr 22 2026 14:10:49 GMT-0500 (Central Daylight Time),100498.0,A,boy,O,y,328,1,1149.0,99349.0,7758,WL,C,5.0
1,15.378999948501587,learn,44621.00005149841,Wed Apr 22 2026 14:10:49 GMT-0500 (Central Daylight Time),101548.69999992847,A,boyenter,O,enter,1045,1,2199.6999999284744,99349.0,7758,WL,C,5.0
1,15.86300015449524,learn,44136.99984550476,Wed Apr 22 2026 14:10:49 GMT-0500 (Central Daylight Time),102032.69999992847,A,d,O,d,466,1,483.59999990463257,101549.10000002384,7758,WL,C,6.0
1,16.09599995613098,learn,43904.00004386902,Wed Apr 22 2026 14:10:49 GMT-0500 (Central Daylight Time),102265.19999992847,A,do,O,o,221,1,716.0999999046326,101549.10000002384,7758,WL,C,6.0
1,16.261000156402588,learn,43738.99984359741,Wed Apr 22 2026 14:10:49 GMT-0500 (Central Daylight Time),102430.89999997616,A,doc,O,c,149,1,881.7999999523163,101549.10000002384,7758,WL,C,6.0
1,16.545000076293945,learn,43454.999923706055,Wed Apr 22 2026 14:10:49 GMT-0500 (Central Daylight Time),102714.39999997616,A,doct,O,t,271,1,1165.2999999523163,101549.10000002384,7758,WL,C,6.0
1,16.712000131607056,learn,43287.999868392944,Wed Apr 22 2026 14:10:49 GMT-0500 (Central Daylight Time),102881.39999997616,A,docto,O,o,148,1,1332.2999999523163,101549.10000002384,7758,WL,C,6.0
1,16.878000020980835,learn,43121.999979019165,Wed Apr 22 2026 14:10:49 GMT-0500 (Central Daylight Time),103047.19999992847,A,doctor,O,r,148,1,1498.0999999046326,101549.10000002384,7758,WL,C,6.0
1,17.611000061035156,learn,42388.999938964844,Wed Apr 22 2026 14:10:49 GMT-0500 (Central Daylight Time),103780.0,A,doctorenter,O,enter,725,1,2230.899999976158,101549.10000002384,7758,WL,C,6.0
1,19.795000076293945,learn,40204.999923706055,Wed Apr 22 2026 14:10:49 GMT-0500 (Central Daylight Time),105964.69999992847,A,f,O,f,2180,1,2184.5,103780.19999992847,7758,WL,C,7.0
1,20.044000148773193,learn,39955.99985122681,Wed Apr 22 2026 14:10:49 GMT-0500 (Central Daylight Time),106212.89999997616,A,fl,O,l,234,1,2432.7000000476837,103780.19999992847,7758,WL,C,7.0
1,20.193000078201294,learn,39806.999921798706,Wed Apr 22 2026 14:10:49 GMT-0500 (Central Daylight Time),106362.29999995232,A,fla,O,a,130,1,2582.100000023842,103780.19999992847,7758,WL,C,7.0
1,20.39300012588501,learn,39606.99987411499,Wed Apr 22 2026 14:10:49 GMT-0500 (Central Daylight Time),106562.79999995232,A,flag,O,g,188,1,2782.600000023842,103780.19999992847,7758,WL,C,7.0
1,21.12600016593933,learn,38873.99983406067,Wed Apr 22 2026 14:10:49 GMT-0500 (Central Daylight Time),107294.89999997616,A,flagenter,O,enter,722,1,3514.7000000476837,103780.19999992847,7758,WL,C,7.0
1,25.20799994468689,learn,34792.00005531311,Wed Apr 22 2026 14:10:49 GMT-0500 (Central Daylight Time),111377.29999995232,A,c,O,c,4070,1,4082.100000023842,107295.19999992847,7758,WL,C,8.0
1,25.442000150680542,learn,34557.99984931946,Wed Apr 22 2026 14:10:49 GMT-0500 (Central Daylight Time),111611.39999997616,A,ca,O,a,229,1,4316.200000047684,107295.19999992847,7758,WL,C,8.0
1,25.625,learn,34375.0,Wed Apr 22 2026 14:10:49 GMT-0500 (Central Daylight Time),111794.0,A,cat,O,t,164,1,4498.800000071526,107295.19999992847,7758,WL,C,8.0
1,25.80900001525879,learn,34190.99998474121,Wed Apr 22 2026 14:10:49 GMT-0500 (Central Daylight Time),111978.10000002384,A,catt,O,t,175,1,4682.900000095367,107295.19999992847,7758,WL,C,8.0
1,25.94099998474121,learn,34059.00001525879,Wed Apr 22 2026 14:10:49 GMT-0500 (Central Daylight Time),112110.60000002384,A,cattl,O,l,125,1,4815.400000095367,107295.19999992847,7758,WL,C,8.0
1,26.159000158309937,learn,33840.99984169006,Wed Apr 22 2026 14:10:49 GMT-0500 (Central Daylight Time),112328.0,A,cattle,O,e,211,1,5032.800000071526,107295.19999992847,7758,WL,C,8.0
1,26.841000080108643,learn,33158.99991989136,Wed Apr 22 2026 14:10:49 GMT-0500 (Central Daylight Time),113010.39999997616,A,cattleenter,O,enter,664,1,5715.200000047684,107295.19999992847,7758,WL,C,8.0
1,30.990000009536743,learn,29009.999990463257,Wed Apr 22 2026 14:10:49 GMT-0500 (Central Daylight Time),117159.5,A,s,O,s,4140,1,4148.800000071526,113010.69999992847,7758,WL,C,9.0
1,31.124000072479248,learn,28875.999927520752,Wed Apr 22 2026 14:10:49 GMT-0500 (Central Daylight Time),117293.10000002384,A,sh,O,h,119,1,4282.400000095367,113010.69999992847,7758,WL,C,9.0
1,31.289999961853027,learn,28710.000038146973,Wed Apr 22 2026 14:10:49 GMT-0500 (Central Daylight Time),117459.69999992847,A,sho,O,o,145,1,4449.0,113010.69999992847,7758,WL,C,9.0
1,31.48900008201599,learn,28510.99991798401,Wed Apr 22 2026 14:10:49 GMT-0500 (Central Daylight Time),117658.0,A,shor,O,r,176,1,4647.300000071526,113010.69999992847,7758,WL,C,9.0
1,31.555999994277954,learn,28444.000005722046,Wed Apr 22 2026 14:10:49 GMT-0500 (Central Daylight Time),117725.19999992847,A,shore,O,e,60,1,4714.5,113010.69999992847,7758,WL,C,9.0
1,32.22000002861023,learn,27779.99997138977,Wed Apr 22 2026 14:10:49 GMT-0500 (Central Daylight Time),118389.60000002384,A,shoreenter,O,enter,659,1,5378.900000095367,113010.69999992847,7758,WL,C,9.0
1,41.604000091552734,learn,18395.999908447266,Wed Apr 22 2026 14:10:49 GMT-0500 (Central Daylight Time),127773.29999995232,A,t,O,t,9368,1,9383.399999976158,118389.89999997616,7758,WL,C,10.0
1,41.72000002861023,learn,18279.99997138977,Wed Apr 22 2026 14:10:49 GMT-0500 (Central Daylight Time),127889.29999995232,A,to,O,o,96,1,9499.399999976158,118389.89999997616,7758,WL,C,10.0
1,41.90499997138977,learn,18095.00002861023,Wed Apr 22 2026 14:10:49 GMT-0500 (Central Daylight Time),128074.29999995232,A,tow,O,w,164,1,9684.399999976158,118389.89999997616,7758,WL,C,10.0
1,42.039000034332275,learn,17960.999965667725,Wed Apr 22 2026 14:10:49 GMT-0500 (Central Daylight Time),128208.19999992847,A,towe,O,e,117,1,9818.299999952316,118389.89999997616,7758,WL,C,10.0
1,42.20300006866455,learn,17796.99993133545,Wed Apr 22 2026 14:10:49 GMT-0500 (Central Daylight Time),128372.89999997616,A,tower,O,r,149,1,9983.0,118389.89999997616,7758,WL,C,10.0
1,42.835999965667725,learn,17164.000034332275,Wed Apr 22 2026 14:10:49 GMT-0500 (Central Daylight Time),129005.79999995232,A,towerenter,O,enter,619,1,10615.899999976158,118389.89999997616,7758,WL,C,10.0
1,60.01300001144409,learn,-13.000011444091797,Wed Apr 22 2026 14:10:49 GMT-0500 (Central Daylight Time),146182.79999995232,A,None,O,None,17172,1,17176.799999952316,129006.0,7758,WL,C,11.0
2,0.5659999847412109,learn,59434.00001525879,Wed Apr 22 2026 14:10:49 GMT-0500 (Central Daylight Time),215429.60000002384,A,q,O,q,552,1,565.9000000953674,214863.69999992847,7758,WL,C,1.0
2,0.7820000648498535,learn,59217.99993515015,Wed Apr 22 2026 14:10:49 GMT-0500 (Central Daylight Time),215645.5,A,qu,O,u,210,1,781.8000000715256,214863.69999992847,7758,WL,C,1.0
2,0.9650001525878906,learn,59034.99984741211,Wed Apr 22 2026 14:10:49 GMT-0500 (Central Daylight Time),215828.60000002384,A,que,O,e,178,1,964.9000000953674,214863.69999992847,7758,WL,C,1.0
2,1.1649999618530273,learn,58835.00003814697,Wed Apr 22 2026 14:10:49 GMT-0500 (Central Daylight Time),216029.10000002384,A,quee,O,e,195,1,1165.4000000953674,214863.69999992847,7758,WL,C,1.0
2,1.3640000820159912,learn,58635.99991798401,Wed Apr 22 2026 14:10:49 GMT-0500 (Central Daylight Time),216227.60000002384,A,queen,O,n,178,1,1363.9000000953674,214863.69999992847,7758,WL,C,1.0
2,2.0139999389648438,learn,57986.000061035156,Wed Apr 22 2026 14:10:49 GMT-0500 (Central Daylight Time),216878.0,A,queenenter,O,enter,641,1,2014.3000000715256,214863.69999992847,7758,WL,C,1.0
2,2.4820001125335693,learn,57517.99988746643,Wed Apr 22 2026 14:10:49 GMT-0500 (Central Daylight Time),217345.29999995232,A,t,O,t,448,1,467.0,216878.29999995232,7758,WL,C,2.0
2,2.9149999618530273,learn,57085.00003814697,Wed Apr 22 2026 14:10:49 GMT-0500 (Central Daylight Time),217778.39999997616,A,to,O,o,411,1,900.1000000238419,216878.29999995232,7758,WL,C,2.0
2,3.114000082015991,learn,56885.99991798401,Wed Apr 22 2026 14:10:49 GMT-0500 (Central Daylight Time),217977.39999997616,A,tow,O,w,189,1,1099.1000000238419,216878.29999995232,7758,WL,C,2.0
2,3.246000051498413,learn,56753.99994850159,Wed Apr 22 2026 14:10:49 GMT-0500 (Central Daylight Time),218109.60000002384,A,towe,O,e,125,1,1231.3000000715256,216878.29999995232,7758,WL,C,2.0
2,3.430000066757202,learn,56569.9999332428,Wed Apr 22 2026 14:10:49 GMT-0500 (Central Daylight Time),218293.29999995232,A,tower,O,r,180,1,1415.0,216878.29999995232,7758,WL,C,2.0
2,4.462000131607056,learn,55537.999868392944,Wed Apr 22 2026 14:10:49 GMT-0500 (Central Daylight Time),219326.10000002384,A,towerenter,O,enter,1026,1,2447.8000000715256,216878.29999995232,7758,WL,C,2.0
2,5.031000137329102,learn,54968.9998626709,Wed Apr 22 2026 14:10:49 GMT-0500 (Central Daylight Time),219894.89999997616,A,s,O,s,563,1,568.5,219326.39999997616,7758,WL,C,3.0
2,5.246999979019165,learn,54753.000020980835,Wed Apr 22 2026 14:10:49 GMT-0500 (Central Daylight Time),220111.0,A,su,O,u,194,1,784.6000000238419,219326.39999997616,7758,WL,C,3.0
2,5.480000019073486,learn,54519.999980926514,Wed Apr 22 2026 14:10:49 GMT-0500 (Central Daylight Time),220343.39999997616,A,sug,O,g,218,1,1017.0,219326.39999997616,7758,WL,C,3.0
2,5.646000146865845,learn,54353.999853134155,Wed Apr 22 2026 14:10:49 GMT-0500 (Central Daylight Time),220509.10000002384,A,suga,O,a,149,1,1182.7000000476837,219326.39999997616,7758,WL,C,3.0
2,5.927999973297119,learn,54072.00002670288,Wed Apr 22 2026 14:10:49 GMT-0500 (Central Daylight Time),220792.0,A,sugar,O,r,266,1,1465.6000000238419,219326.39999997616,7758,WL,C,3.0
2,6.712000131607056,learn,53287.999868392944,Wed Apr 22 2026 14:10:49 GMT-0500 (Central Daylight Time),221575.39999997616,A,sugarenter,O,enter,767,1,2249.0,219326.39999997616,7758,WL,C,3.0
2,7.0290000438690186,learn,52970.99995613098,Wed Apr 22 2026 14:10:49 GMT-0500 (Central Daylight Time),221892.29999995232,A,b,O,b,303,1,316.6999999284744,221575.60000002384,7758,WL,C,4.0
2,7.427999973297119,learn,52572.00002670288,Wed Apr 22 2026 14:10:49 GMT-0500 (Central Daylight Time),222291.79999995232,A,bo,O,o,396,1,716.1999999284744,221575.60000002384,7758,WL,C,4.0
2,7.729000091552734,learn,52270.999908447266,Wed Apr 22 2026 14:10:49 GMT-0500 (Central Daylight Time),222592.19999992847,A,boy,O,y,283,1,1016.5999999046326,221575.60000002384,7758,WL,C,4.0
2,8.478000164031982,learn,51521.99983596802,Wed Apr 22 2026 14:10:49 GMT-0500 (Central Daylight Time),223341.29999995232,A,boyenter,O,enter,743,1,1765.6999999284744,221575.60000002384,7758,WL,C,4.0
2,8.99399995803833,learn,51006.00004196167,Wed Apr 22 2026 14:10:49 GMT-0500 (Central Daylight Time),223858.10000002384,A,c,O,c,506,1,516.5,223341.60000002384,7758,WL,C,5.0
2,9.194000005722046,learn,50805.999994277954,Wed Apr 22 2026 14:10:49 GMT-0500 (Central Daylight Time),224058.10000002384,A,ca,O,a,187,1,716.5,223341.60000002384,7758,WL,C,5.0
2,9.42900013923645,learn,50570.99986076355,Wed Apr 22 2026 14:10:49 GMT-0500 (Central Daylight Time),224292.39999997616,A,cat,O,t,230,1,950.7999999523163,223341.60000002384,7758,WL,C,5.0
2,9.611000061035156,learn,50388.999938964844,Wed Apr 22 2026 14:10:49 GMT-0500 (Central Daylight Time),224474.5,A,catt,O,t,170,1,1132.8999999761581,223341.60000002384,7758,WL,C,5.0
2,9.794000148773193,learn,50205.99985122681,Wed Apr 22 2026 14:10:49 GMT-0500 (Central Daylight Time),224657.19999992847,A,cattl,O,l,173,1,1315.5999999046326,223341.60000002384,7758,WL,C,5.0
2,9.960999965667725,learn,50039.000034332275,Wed Apr 22 2026 14:10:49 GMT-0500 (Central Daylight Time),224824.39999997616,A,cattle,O,e,158,1,1482.7999999523163,223341.60000002384,7758,WL,C,5.0
2,10.509999990463257,learn,49490.00000953674,Wed Apr 22 2026 14:10:49 GMT-0500 (Central Daylight Time),225373.79999995232,A,cattleenter,O,enter,543,1,2032.1999999284744,223341.60000002384,7758,WL,C,5.0
2,15.128999948501587,learn,44871.00005149841,Wed Apr 22 2026 14:10:49 GMT-0500 (Central Daylight Time),229992.19999992847,A,f,O,f,4613,1,4618.199999928474,225374.0,7758,WL,C,6.0
2,15.278000116348267,learn,44721.99988365173,Wed Apr 22 2026 14:10:49 GMT-0500 (Central Daylight Time),230141.19999992847,A,fl,O,l,135,1,4767.199999928474,225374.0,7758,WL,C,6.0
2,15.509999990463257,learn,44490.00000953674,Wed Apr 22 2026 14:10:49 GMT-0500 (Central Daylight Time),230373.60000002384,A,fla,O,a,228,1,4999.600000023842,225374.0,7758,WL,C,6.0
2,15.725000143051147,learn,44274.99985694885,Wed Apr 22 2026 14:10:49 GMT-0500 (Central Daylight Time),230588.79999995232,A,flag,O,g,210,1,5214.799999952316,225374.0,7758,WL,C,6.0
2,16.29200005531311,learn,43707.99994468689,Wed Apr 22 2026 14:10:49 GMT-0500 (Central Daylight Time),231156.10000002384,A,flagenter,O,enter,552,1,5782.100000023842,225374.0,7758,WL,C,6.0
2,21.108999967575073,learn,38891.00003242493,Wed Apr 22 2026 14:10:49 GMT-0500 (Central Daylight Time),235972.39999997616,A,s,O,s,4804,1,4816.0,231156.39999997616,7758,WL,C,7.0
2,21.223999977111816,learn,38776.00002288818,Wed Apr 22 2026 14:10:49 GMT-0500 (Central Daylight Time),236088.10000002384,A,sh,O,h,107,1,4931.700000047684,231156.39999997616,7758,WL,C,7.0
2,21.374000072479248,learn,38625.99992752075,Wed Apr 22 2026 14:10:49 GMT-0500 (Central Daylight Time),236238.0,A,sho,O,o,143,1,5081.600000023842,231156.39999997616,7758,WL,C,7.0
2,21.54100012779236,learn,38458.99987220764,Wed Apr 22 2026 14:10:49 GMT-0500 (Central Daylight Time),236405.0,A,shor,O,r,154,1,5248.600000023842,231156.39999997616,7758,WL,C,7.0
2,21.641000032424927,learn,38358.99996757507,Wed Apr 22 2026 14:10:49 GMT-0500 (Central Daylight Time),236504.60000002384,A,shore,O,e,82,1,5348.200000047684,231156.39999997616,7758,WL,C,7.0
2,22.27300000190735,learn,37726.99999809265,Wed Apr 22 2026 14:10:49 GMT-0500 (Central Daylight Time),237136.89999997616,A,shoreenter,O,enter,619,1,5980.5,231156.39999997616,7758,WL,C,7.0
2,31.92300009727478,learn,28076.99990272522,Wed Apr 22 2026 14:10:49 GMT-0500 (Central Daylight Time),246786.39999997616,A,f,O,f,9638,1,9649.299999952316,237137.10000002384,7758,WL,C,8.0
2,32.07100009918213,learn,27928.99990081787,Wed Apr 22 2026 14:10:49 GMT-0500 (Central Daylight Time),246934.60000002384,A,fl,O,l,141,1,9797.5,237137.10000002384,7758,WL,C,8.0
2,32.28800010681152,learn,27711.999893188477,Wed Apr 22 2026 14:10:49 GMT-0500 (Central Daylight Time),247151.39999997616,A,fla,O,a,193,1,10014.299999952316,237137.10000002384,7758,WL,C,8.0
2,32.4539999961853,learn,27546.000003814697,Wed Apr 22 2026 14:10:49 GMT-0500 (Central Daylight Time),247317.89999997616,A,flag,O,g,161,1,10180.799999952316,237137.10000002384,7758,WL,C,8.0
2,33.0550000667572,learn,26944.999933242798,Wed Apr 22 2026 14:10:49 GMT-0500 (Central Daylight Time),247918.5,A,flagenter,O,enter,586,1,10781.399999976158,237137.10000002384,7758,WL,C,8.0
2,33.40499997138977,learn,26595.00002861023,Wed Apr 22 2026 14:10:49 GMT-0500 (Central Daylight Time),248268.89999997616,A,d,O,d,345,1,350.10000002384186,247918.79999995232,7758,WL,C,9.0
2,33.687999963760376,learn,26312.000036239624,Wed Apr 22 2026 14:10:49 GMT-0500 (Central Daylight Time),248551.29999995232,A,do,O,o,265,1,632.5,247918.79999995232,7758,WL,C,9.0
2,33.97099995613098,learn,26029.00004386902,Wed Apr 22 2026 14:10:49 GMT-0500 (Central Daylight Time),248835.19999992847,A,doc,O,c,262,1,916.3999999761581,247918.79999995232,7758,WL,C,9.0
2,34.23699998855591,learn,25763.00001144409,Wed Apr 22 2026 14:10:49 GMT-0500 (Central Daylight Time),249101.19999992847,A,doct,O,t,251,1,1182.3999999761581,247918.79999995232,7758,WL,C,9.0
2,34.37100005149841,learn,25628.999948501587,Wed Apr 22 2026 14:10:49 GMT-0500 (Central Daylight Time),249234.79999995232,A,docto,O,o,113,1,1316.0,247918.79999995232,7758,WL,C,9.0
2,34.519999980926514,learn,25480.000019073486,Wed Apr 22 2026 14:10:49 GMT-0500 (Central Daylight Time),249384.0,A,doctor,O,r,132,1,1465.2000000476837,247918.79999995232,7758,WL,C,9.0
2,35.07000017166138,learn,24929.999828338623,Wed Apr 22 2026 14:10:49 GMT-0500 (Central Daylight Time),249933.5,A,doctorenter,O,enter,542,1,2014.7000000476837,247918.79999995232,7758,WL,C,9.0
2,40.30299997329712,learn,19697.00002670288,Wed Apr 22 2026 14:10:49 GMT-0500 (Central Daylight Time),255166.60000002384,A,c,O,c,5218,1,5232.800000071526,249933.79999995232,7758,WL,C,10.0
2,40.51800012588501,learn,19481.99987411499,Wed Apr 22 2026 14:10:49 GMT-0500 (Central Daylight Time),255381.79999995232,A,ca,O,a,197,1,5448.0,249933.79999995232,7758,WL,C,10.0
2,40.70099997520447,learn,19299.000024795532,Wed Apr 22 2026 14:10:49 GMT-0500 (Central Daylight Time),255565.0,A,cam,O,m,178,1,5631.200000047684,249933.79999995232,7758,WL,C,10.0
2,41.05200004577637,learn,18947.999954223633,Wed Apr 22 2026 14:10:49 GMT-0500 (Central Daylight Time),255915.69999992847,A,camp,O,p,338,1,5981.899999976158,249933.79999995232,7758,WL,C,10.0
2,41.634000062942505,learn,18365.999937057495,Wed Apr 22 2026 14:10:49 GMT-0500 (Central Daylight Time),256497.69999992847,A,campenter,O,enter,570,1,6563.899999976158,249933.79999995232,7758,WL,C,10.0
2,60.01300001144409,learn,-13.000011444091797,Wed Apr 22 2026 14:10:49 GMT-0500 (Central Daylight Time),274876.39999997616,A,None,O,None,18374,1,18378.5,256497.89999997616,7758,WL,C,11.0
3,1.4490001201629639,learn,58550.999879837036,Wed Apr 22 2026 14:10:49 GMT-0500 (Central Daylight Time),342438.10000002384,A,q,O,q,1435,1,1449.2000000476837,340988.89999997616,7758,WL,C,1.0
3,1.749000072479248,learn,58250.99992752075,Wed Apr 22 2026 14:10:49 GMT-0500 (Central Daylight Time),342738.1999999285,A,qu,O,u,282,1,1749.2999999523163,340988.89999997616,7758,WL,C,1.0
3,1.9160001277923584,learn,58083.99987220764,Wed Apr 22 2026 14:10:49 GMT-0500 (Central Daylight Time),342904.5,A,que,O,e,148,1,1915.6000000238419,340988.89999997616,7758,WL,C,1.0
3,2.115000009536743,learn,57884.99999046326,Wed Apr 22 2026 14:10:49 GMT-0500 (Central Daylight Time),343104.0,A,quee,O,e,190,1,2115.100000023842,340988.89999997616,7758,WL,C,1.0
3,2.265000104904175,learn,57734.999895095825,Wed Apr 22 2026 14:10:49 GMT-0500 (Central Daylight Time),343254.2999999523,A,queen,O,n,143,1,2265.399999976158,340988.89999997616,7758,WL,C,1.0
3,2.881999969482422,learn,57118.00003051758,Wed Apr 22 2026 14:10:49 GMT-0500 (Central Daylight Time),343871.2999999523,A,queenenter,O,enter,601,1,2882.399999976158,340988.89999997616,7758,WL,C,1.0
3,3.565000057220459,learn,56434.99994277954,Wed Apr 22 2026 14:10:49 GMT-0500 (Central Daylight Time),344553.60000002384,A,w,O,w,671,1,682.0,343871.60000002384,7758,WL,C,2.0
3,3.748000144958496,learn,56251.999855041504,Wed Apr 22 2026 14:10:49 GMT-0500 (Central Daylight Time),344736.60000002384,A,wh,O,h,174,1,865.0,343871.60000002384,7758,WL,C,2.0
3,3.932000160217285,learn,56067.999839782715,Wed Apr 22 2026 14:10:49 GMT-0500 (Central Daylight Time),344920.5,A,whe,O,e,166,1,1048.8999999761581,343871.60000002384,7758,WL,C,2.0
3,4.0980000495910645,learn,55901.999950408936,Wed Apr 22 2026 14:10:49 GMT-0500 (Central Daylight Time),345087.10000002384,A,whea,O,a,156,1,1215.5,343871.60000002384,7758,WL,C,2.0
3,4.29800009727478,learn,55701.99990272522,Wed Apr 22 2026 14:10:49 GMT-0500 (Central Daylight Time),345287.10000002384,A,wheat,O,t,192,1,1415.5,343871.60000002384,7758,WL,C,2.0
3,4.746999979019165,learn,55253.000020980835,Wed Apr 22 2026 14:10:49 GMT-0500 (Central Daylight Time),345736.2999999523,A,wheatenter,O,enter,438,1,1864.6999999284744,343871.60000002384,7758,WL,C,2.0
3,5.0980000495910645,learn,54901.999950408936,Wed Apr 22 2026 14:10:49 GMT-0500 (Central Daylight Time),346086.89999997616,A,t,O,t,334,1,350.2999999523163,345736.60000002384,7758,WL,C,3.0
3,5.364000082015991,learn,54635.99991798401,Wed Apr 22 2026 14:10:49 GMT-0500 (Central Daylight Time),346353.10000002384,A,to,O,o,246,1,616.5,345736.60000002384,7758,WL,C,3.0
3,5.513999938964844,learn,54486.000061035156,Wed Apr 22 2026 14:10:49 GMT-0500 (Central Daylight Time),346503.1999999285,A,tow,O,w,134,1,766.5999999046326,345736.60000002384,7758,WL,C,3.0
3,5.63100004196167,learn,54368.99995803833,Wed Apr 22 2026 14:10:49 GMT-0500 (Central Daylight Time),346620.39999997616,A,towe,O,e,104,1,883.7999999523163,345736.60000002384,7758,WL,C,3.0
3,5.781000137329102,learn,54218.9998626709,Wed Apr 22 2026 14:10:49 GMT-0500 (Central Daylight Time),346770.1999999285,A,tower,O,r,129,1,1033.5999999046326,345736.60000002384,7758,WL,C,3.0
3,6.0320000648498535,learn,53967.99993515015,Wed Apr 22 2026 14:10:49 GMT-0500 (Central Daylight Time),347021.2999999523,A,towerenter,O,enter,244,1,1284.6999999284744,345736.60000002384,7758,WL,C,3.0
3,6.398000001907349,learn,53601.99999809265,Wed Apr 22 2026 14:10:49 GMT-0500 (Central Daylight Time),347386.60000002384,A,s,O,s,346,1,365.10000002384186,347021.5,7758,WL,C,4.0
3,6.613000154495239,learn,53386.99984550476,Wed Apr 22 2026 14:10:49 GMT-0500 (Central Daylight Time),347602.1999999285,A,su,O,u,204,1,580.6999999284744,347021.5,7758,WL,C,4.0
3,6.930000066757202,learn,53069.9999332428,Wed Apr 22 2026 14:10:49 GMT-0500 (Central Daylight Time),347918.39999997616,A,sug,O,g,308,1,896.8999999761581,347021.5,7758,WL,C,4.0
3,7.180999994277954,learn,52819.000005722046,Wed Apr 22 2026 14:10:49 GMT-0500 (Central Daylight Time),348169.60000002384,A,suga,O,a,233,1,1148.1000000238419,347021.5,7758,WL,C,4.0
3,7.380000114440918,learn,52619.99988555908,Wed Apr 22 2026 14:10:49 GMT-0500 (Central Daylight Time),348368.89999997616,A,sugar,O,r,180,1,1347.3999999761581,347021.5,7758,WL,C,4.0
3,7.5970001220703125,learn,52402.99987792969,Wed Apr 22 2026 14:10:49 GMT-0500 (Central Daylight Time),348585.6999999285,A,sugarenter,O,enter,208,1,1564.1999999284744,347021.5,7758,WL,C,4.0
3,7.864000082015991,learn,52135.99991798401,Wed Apr 22 2026 14:10:49 GMT-0500 (Central Daylight Time),348853.39999997616,A,b,O,b,262,1,267.39999997615814,348586.0,7758,WL,C,5.0
3,8.062999963760376,learn,51937.000036239624,Wed Apr 22 2026 14:10:49 GMT-0500 (Central Daylight Time),349052.5,A,bo,O,o,177,1,466.5,348586.0,7758,WL,C,5.0
3,8.29800009727478,learn,51701.99990272522,Wed Apr 22 2026 14:10:49 GMT-0500 (Central Daylight Time),349287.1999999285,A,boy,O,y,228,1,701.1999999284744,348586.0,7758,WL,C,5.0
3,8.69700002670288,learn,51302.99997329712,Wed Apr 22 2026 14:10:49 GMT-0500 (Central Daylight Time),349685.89999997616,A,boyenter,O,enter,391,1,1099.8999999761581,348586.0,7758,WL,C,5.0
3,10.013000011444092,learn,49986.99998855591,Wed Apr 22 2026 14:10:49 GMT-0500 (Central Daylight Time),351001.5,A,f,O,f,1296,1,1315.3000000715256,349686.1999999285,7758,WL,C,6.0
3,10.163000106811523,learn,49836.99989318848,Wed Apr 22 2026 14:10:49 GMT-0500 (Central Daylight Time),351151.6999999285,A,fl,O,l,142,1,1465.5,349686.1999999285,7758,WL,C,6.0
3,10.312999963760376,learn,49687.000036239624,Wed Apr 22 2026 14:10:49 GMT-0500 (Central Daylight Time),351302.39999997616,A,fla,O,a,145,1,1616.2000000476837,349686.1999999285,7758,WL,C,6.0
3,10.529000043869019,learn,49470.99995613098,Wed Apr 22 2026 14:10:49 GMT-0500 (Central Daylight Time),351518.39999997616,A,flag,O,g,198,1,1832.2000000476837,349686.1999999285,7758,WL,C,6.0
3,10.745000123977661,learn,49254.99987602234,Wed Apr 22 2026 14:10:49 GMT-0500 (Central Daylight Time),351734.1999999285,A,flagenter,O,enter,208,1,2048.0,349686.1999999285,7758,WL,C,6.0
3,11.430000066757202,learn,48569.9999332428,Wed Apr 22 2026 14:10:49 GMT-0500 (Central Daylight Time),352418.60000002384,A,n,O,n,672,1,684.1000000238419,351734.5,7758,WL,C,7.0
3,11.59500002861023,learn,48404.99997138977,Wed Apr 22 2026 14:10:49 GMT-0500 (Central Daylight Time),352584.10000002384,A,na,O,a,148,1,849.6000000238419,351734.5,7758,WL,C,7.0
3,11.746000051498413,learn,48253.99994850159,Wed Apr 22 2026 14:10:49 GMT-0500 (Central Daylight Time),352734.5,A,nai,O,i,139,1,1000.0,351734.5,7758,WL,C,7.0
3,12.111000061035156,learn,47888.999938964844,Wed Apr 22 2026 14:10:49 GMT-0500 (Central Daylight Time),353100.10000002384,A,nail,O,l,351,1,1365.6000000238419,351734.5,7758,WL,C,7.0
3,12.411999940872192,learn,47588.00005912781,Wed Apr 22 2026 14:10:49 GMT-0500 (Central Daylight Time),353401.10000002384,A,nailenter,O,enter,284,1,1666.6000000238419,351734.5,7758,WL,C,7.0
3,12.611999988555908,learn,47388.00001144409,Wed Apr 22 2026 14:10:49 GMT-0500 (Central Daylight Time),353601.39999997616,A,s,O,s,182,1,200.0,353401.39999997616,7758,WL,C,8.0
3,12.745000123977661,learn,47254.99987602234,Wed Apr 22 2026 14:10:49 GMT-0500 (Central Daylight Time),353733.6999999285,A,sh,O,h,117,1,332.2999999523163,353401.39999997616,7758,WL,C,8.0
3,12.979000091552734,learn,47020.999908447266,Wed Apr 22 2026 14:10:49 GMT-0500 (Central Daylight Time),353967.89999997616,A,sho,O,o,217,1,566.5,353401.39999997616,7758,WL,C,8.0
3,13.144999980926514,learn,46855.000019073486,Wed Apr 22 2026 14:10:49 GMT-0500 (Central Daylight Time),354133.89999997616,A,shor,O,r,163,1,732.5,353401.39999997616,7758,WL,C,8.0
3,13.210999965667725,learn,46789.000034332275,Wed Apr 22 2026 14:10:49 GMT-0500 (Central Daylight Time),354199.89999997616,A,shore,O,e,55,1,798.5,353401.39999997616,7758,WL,C,8.0
3,13.644000053405762,learn,46355.99994659424,Wed Apr 22 2026 14:10:49 GMT-0500 (Central Daylight Time),354632.60000002384,A,shoreenter,O,enter,421,1,1231.2000000476837,353401.39999997616,7758,WL,C,8.0
3,15.111000061035156,learn,44888.999938964844,Wed Apr 22 2026 14:10:49 GMT-0500 (Central Daylight Time),356099.89999997616,A,d,O,d,1447,1,1467.0,354632.89999997616,7758,WL,C,9.0
3,15.228000164031982,learn,44771.99983596802,Wed Apr 22 2026 14:10:49 GMT-0500 (Central Daylight Time),356217.2999999523,A,do,O,o,107,1,1584.3999999761581,354632.89999997616,7758,WL,C,9.0
3,15.411999940872192,learn,44588.00005912781,Wed Apr 22 2026 14:10:49 GMT-0500 (Central Daylight Time),356400.89999997616,A,doc,O,c,165,1,1768.0,354632.89999997616,7758,WL,C,9.0
3,15.67900013923645,learn,44320.99986076355,Wed Apr 22 2026 14:10:49 GMT-0500 (Central Daylight Time),356667.6999999285,A,doct,O,t,253,1,2034.7999999523163,354632.89999997616,7758,WL,C,9.0
3,15.811000108718872,learn,44188.99989128113,Wed Apr 22 2026 14:10:49 GMT-0500 (Central Daylight Time),356800.1999999285,A,docto,O,o,116,1,2167.2999999523163,354632.89999997616,7758,WL,C,9.0
3,15.99399995803833,learn,44006.00004196167,Wed Apr 22 2026 14:10:49 GMT-0500 (Central Daylight Time),356982.89999997616,A,doctor,O,r,166,1,2350.0,354632.89999997616,7758,WL,C,9.0
3,16.312999963760376,learn,43687.000036239624,Wed Apr 22 2026 14:10:49 GMT-0500 (Central Daylight Time),357301.5,A,doctorenter,O,enter,312,1,2668.600000023842,354632.89999997616,7758,WL,C,9.0
3,16.610000133514404,learn,43389.999866485596,Wed Apr 22 2026 14:10:49 GMT-0500 (Central Daylight Time),357599.39999997616,A,c,O,c,290,1,297.7000000476837,357301.6999999285,7758,WL,C,10.0
3,16.761000156402588,learn,43238.99984359741,Wed Apr 22 2026 14:10:49 GMT-0500 (Central Daylight Time),357749.89999997616,A,co,O,o,144,1,448.2000000476837,357301.6999999285,7758,WL,C,10.0
3,16.927000045776367,learn,43072.99995422363,Wed Apr 22 2026 14:10:49 GMT-0500 (Central Daylight Time),357916.5,A,cor,O,r,152,1,614.8000000715256,357301.6999999285,7758,WL,C,10.0
3,17.110000133514404,learn,42889.999866485596,Wed Apr 22 2026 14:10:49 GMT-0500 (Central Daylight Time),358099.0,A,corn,O,n,171,1,797.3000000715256,357301.6999999285,7758,WL,C,10.0
3,17.427000045776367,learn,42572.99995422363,Wed Apr 22 2026 14:10:49 GMT-0500 (Central Daylight Time),358416.2999999523,A,cornenter,O,enter,299,1,1114.6000000238419,357301.6999999285,7758,WL,C,10.0
3,20.292999982833862,learn,39707.00001716614,Wed Apr 22 2026 14:10:49 GMT-0500 (Central Daylight Time),361282.6999999285,A,b,O,b,2847,1,2866.0999999046326,358416.60000002384,7758,WL,C,11.0
3,20.45900011062622,learn,39540.99988937378,Wed Apr 22 2026 14:10:49 GMT-0500 (Central Daylight Time),361447.7999999523,A,bo,O,o,147,1,3031.1999999284744,358416.60000002384,7758,WL,C,11.0
3,20.561000108718872,learn,39438.99989128113,Wed Apr 22 2026 14:10:49 GMT-0500 (Central Daylight Time),361549.89999997616,A,bod,O,d,99,1,3133.2999999523163,358416.60000002384,7758,WL,C,11.0
3,20.776999950408936,learn,39223.000049591064,Wed Apr 22 2026 14:10:49 GMT-0500 (Central Daylight Time),361766.60000002384,A,body,O,y,209,1,3350.0,358416.60000002384,7758,WL,C,11.0
3,21.0770001411438,learn,38922.9998588562,Wed Apr 22 2026 14:10:49 GMT-0500 (Central Daylight Time),362065.60000002384,A,bodyenter,O,enter,288,1,3649.0,358416.60000002384,7758,WL,C,11.0
3,60.01300001144409,learn,-13.000011444091797,Wed Apr 22 2026 14:10:49 GMT-0500 (Central Daylight Time),401002.60000002384,A,None,O,None,38931,1,38936.60000002384,362066.0,7758,WL,C,12.0
4,0.6489999294281006,learn,59351.0000705719,Wed Apr 22 2026 14:10:49 GMT-0500 (Central Daylight Time),467414.5,A,h,O,h,635,1,649.1000000238419,466765.39999997616,7758,WL,C,1.0
4,1.2650001049041748,learn,58734.999895095825,Wed Apr 22 2026 14:10:49 GMT-0500 (Central Daylight Time),468030.39999997616,A,ho,O,o,607,1,1265.0,466765.39999997616,7758,WL,C,1.0
4,1.5820000171661377,learn,58417.99998283386,Wed Apr 22 2026 14:10:49 GMT-0500 (Central Daylight Time),468347.2999999523,A,hom,O,m,297,1,1581.8999999761581,466765.39999997616,7758,WL,C,1.0
4,1.9160001277923584,learn,58083.99987220764,Wed Apr 22 2026 14:10:49 GMT-0500 (Central Daylight Time),468681.39999997616,A,home,O,e,326,1,1916.0,466765.39999997616,7758,WL,C,1.0
4,2.180999994277954,learn,57819.000005722046,Wed Apr 22 2026 14:10:49 GMT-0500 (Central Daylight Time),468946.1999999285,A,homeenter,O,enter,254,1,2180.7999999523163,466765.39999997616,7758,WL,C,1.0
4,2.515000104904175,learn,57484.999895095825,Wed Apr 22 2026 14:10:49 GMT-0500 (Central Daylight Time),469280.39999997616,A,c,O,c,317,1,333.7999999523163,468946.60000002384,7758,WL,C,2.0
4,2.7149999141693115,learn,57285.00008583069,Wed Apr 22 2026 14:10:49 GMT-0500 (Central Daylight Time),469480.6999999285,A,ca,O,a,190,1,534.0999999046326,468946.60000002384,7758,WL,C,2.0
4,2.8480000495910645,learn,57151.999950408936,Wed Apr 22 2026 14:10:49 GMT-0500 (Central Daylight Time),469613.60000002384,A,cam,O,m,119,1,667.0,468946.60000002384,7758,WL,C,2.0
4,3.0320000648498535,learn,56967.99993515015,Wed Apr 22 2026 14:10:49 GMT-0500 (Central Daylight Time),469796.7999999523,A,camp,O,p,167,1,850.1999999284744,468946.60000002384,7758,WL,C,2.0
4,3.5820000171661377,learn,56417.99998283386,Wed Apr 22 2026 14:10:49 GMT-0500 (Central Daylight Time),470346.89999997616,A,campenter,O,enter,538,1,1400.2999999523163,468946.60000002384,7758,WL,C,2.0
4,4.799999952316284,learn,55200.000047683716,Wed Apr 22 2026 14:10:49 GMT-0500 (Central Daylight Time),471564.89999997616,A,l,O,l,1204,1,1217.7000000476837,470347.1999999285,7758,WL,C,3.0
4,4.914999961853027,learn,55085.00003814697,Wed Apr 22 2026 14:10:49 GMT-0500 (Central Daylight Time),471680.60000002384,A,le,O,e,98,1,1333.4000000953674,470347.1999999285,7758,WL,C,3.0
4,5.081000089645386,learn,54918.999910354614,Wed Apr 22 2026 14:10:49 GMT-0500 (Central Daylight Time),471846.39999997616,A,let,O,t,149,1,1499.2000000476837,470347.1999999285,7758,WL,C,3.0
4,5.296999931335449,learn,54703.00006866455,Wed Apr 22 2026 14:10:49 GMT-0500 (Central Daylight Time),472062.39999997616,A,lett,O,t,208,1,1715.2000000476837,470347.1999999285,7758,WL,C,3.0
4,5.380000114440918,learn,54619.99988555908,Wed Apr 22 2026 14:10:49 GMT-0500 (Central Daylight Time),472145.5,A,lette,O,e,63,1,1798.3000000715256,470347.1999999285,7758,WL,C,3.0
4,5.564000129699707,learn,54435.99987030029,Wed Apr 22 2026 14:10:49 GMT-0500 (Central Daylight Time),472329.6999999285,A,letter,O,r,164,1,1982.5,470347.1999999285,7758,WL,C,3.0
4,6.013999938964844,learn,53986.000061035156,Wed Apr 22 2026 14:10:49 GMT-0500 (Central Daylight Time),472779.60000002384,A,letterenter,O,enter,442,1,2432.4000000953674,470347.1999999285,7758,WL,C,3.0
4,6.281000137329102,learn,53718.9998626709,Wed Apr 22 2026 14:10:49 GMT-0500 (Central Daylight Time),473046.5,A,b,O,b,259,1,266.7000000476837,472779.7999999523,7758,WL,C,4.0
4,6.414999961853027,learn,53585.00003814697,Wed Apr 22 2026 14:10:49 GMT-0500 (Central Daylight Time),473179.7999999523,A,bo,O,o,110,1,400.0,472779.7999999523,7758,WL,C,4.0
4,6.8480000495910645,learn,53151.999950408936,Wed Apr 22 2026 14:10:49 GMT-0500 (Central Daylight Time),473612.89999997616,A,bod,O,d,417,1,833.1000000238419,472779.7999999523,7758,WL,C,4.0
4,7.031000137329102,learn,52968.9998626709,Wed Apr 22 2026 14:10:49 GMT-0500 (Central Daylight Time),473796.5,A,body,O,y,169,1,1016.7000000476837,472779.7999999523,7758,WL,C,4.0
4,7.546999931335449,learn,52453.00006866455,Wed Apr 22 2026 14:10:49 GMT-0500 (Central Daylight Time),474312.5,A,bodyenter,O,enter,496,1,1532.7000000476837,472779.7999999523,7758,WL,C,4.0
4,8.380000114440918,learn,51619.99988555908,Wed Apr 22 2026 14:10:49 GMT-0500 (Central Daylight Time),475145.2999999523,A,q,O,q,822,1,832.5,474312.7999999523,7758,WL,C,5.0
4,8.54699993133545,learn,51453.00006866455,Wed Apr 22 2026 14:10:49 GMT-0500 (Central Daylight Time),475312.10000002384,A,qu,O,u,156,1,999.3000000715256,474312.7999999523,7758,WL,C,5.0
4,8.680999994277954,learn,51319.000005722046,Wed Apr 22 2026 14:10:49 GMT-0500 (Central Daylight Time),475446.5,A,que,O,e,119,1,1133.7000000476837,474312.7999999523,7758,WL,C,5.0
4,8.848000049591064,learn,51151.999950408936,Wed Apr 22 2026 14:10:49 GMT-0500 (Central Daylight Time),475612.7999999523,A,ques,O,s,153,1,1300.0,474312.7999999523,7758,WL,C,5.0
4,9.430000066757202,learn,50569.9999332428,Wed Apr 22 2026 14:10:49 GMT-0500 (Central Daylight Time),476195.0,A,que,O,backspace,561,1,1882.2000000476837,474312.7999999523,7758,WL,C,5.0
4,9.578999996185303,learn,50421.0000038147,Wed Apr 22 2026 14:10:49 GMT-0500 (Central Daylight Time),476344.39999997616,A,quee,O,e,138,1,2031.6000000238419,474312.7999999523,7758,WL,C,5.0
4,9.845999956130981,learn,50154.00004386902,Wed Apr 22 2026 14:10:49 GMT-0500 (Central Daylight Time),476611.60000002384,A,queen,O,n,246,1,2298.8000000715256,474312.7999999523,7758,WL,C,5.0
4,10.263000011444092,learn,49736.99998855591,Wed Apr 22 2026 14:10:49 GMT-0500 (Central Daylight Time),477028.7999999523,A,queenenter,O,enter,404,1,2716.0,474312.7999999523,7758,WL,C,5.0
4,10.513000011444092,learn,49486.99998855591,Wed Apr 22 2026 14:10:49 GMT-0500 (Central Daylight Time),477278.6999999285,A,w,O,w,245,1,249.79999995231628,477028.89999997616,7758,WL,C,6.0
4,10.661999940872192,learn,49338.00005912781,Wed Apr 22 2026 14:10:49 GMT-0500 (Central Daylight Time),477427.39999997616,A,wh,O,h,135,1,398.5,477028.89999997616,7758,WL,C,6.0
4,10.996000051498413,learn,49003.99994850159,Wed Apr 22 2026 14:10:49 GMT-0500 (Central Daylight Time),477760.89999997616,A,whe,O,e,317,1,732.0,477028.89999997616,7758,WL,C,6.0
4,11.196000099182129,learn,48803.99990081787,Wed Apr 22 2026 14:10:49 GMT-0500 (Central Daylight Time),477961.89999997616,A,whea,O,a,181,1,933.0,477028.89999997616,7758,WL,C,6.0
4,11.36299991607666,learn,48637.00008392334,Wed Apr 22 2026 14:10:49 GMT-0500 (Central Daylight Time),478128.1999999285,A,wheat,O,t,157,1,1099.2999999523163,477028.89999997616,7758,WL,C,6.0
4,11.663000106811523,learn,48336.99989318848,Wed Apr 22 2026 14:10:49 GMT-0500 (Central Daylight Time),478428.2999999523,A,wheatenter,O,enter,295,1,1399.3999999761581,477028.89999997616,7758,WL,C,6.0
4,12.146000146865845,learn,47853.999853134155,Wed Apr 22 2026 14:10:49 GMT-0500 (Central Daylight Time),478911.0,A,t,O,t,476,1,482.39999997615814,478428.60000002384,7758,WL,C,7.0
4,12.263000011444092,learn,47736.99998855591,Wed Apr 22 2026 14:10:49 GMT-0500 (Central Daylight Time),479027.89999997616,A,to,O,o,104,1,599.2999999523163,478428.60000002384,7758,WL,C,7.0
4,12.446000099182129,learn,47553.99990081787,Wed Apr 22 2026 14:10:49 GMT-0500 (Central Daylight Time),479211.1999999285,A,tow,O,w,171,1,782.5999999046326,478428.60000002384,7758,WL,C,7.0
4,12.545000076293945,learn,47454.999923706055,Wed Apr 22 2026 14:10:49 GMT-0500 (Central Daylight Time),479310.10000002384,A,towe,O,e,82,1,881.5,478428.60000002384,7758,WL,C,7.0
4,12.696000099182129,learn,47303.99990081787,Wed Apr 22 2026 14:10:49 GMT-0500 (Central Daylight Time),479461.89999997616,A,tower,O,r,142,1,1033.2999999523163,478428.60000002384,7758,WL,C,7.0
4,13.044000148773193,learn,46955.99985122681,Wed Apr 22 2026 14:10:49 GMT-0500 (Central Daylight Time),479809.39999997616,A,towerenter,O,enter,337,1,1380.7999999523163,478428.60000002384,7758,WL,C,7.0
4,14.361999988555908,learn,45638.00001144409,Wed Apr 22 2026 14:10:49 GMT-0500 (Central Daylight Time),481127.6999999285,A,s,O,s,1296,1,1318.0999999046326,479809.60000002384,7758,WL,C,8.0
4,14.460999965667725,learn,45539.000034332275,Wed Apr 22 2026 14:10:49 GMT-0500 (Central Daylight Time),481226.1999999285,A,su,O,u,85,1,1416.5999999046326,479809.60000002384,7758,WL,C,8.0
4,14.694999933242798,learn,45305.0000667572,Wed Apr 22 2026 14:10:49 GMT-0500 (Central Daylight Time),481460.1999999285,A,sug,O,g,228,1,1650.5999999046326,479809.60000002384,7758,WL,C,8.0
4,15.028000116348267,learn,44971.99988365173,Wed Apr 22 2026 14:10:49 GMT-0500 (Central Daylight Time),481793.7999999523,A,suga,O,a,314,1,1984.1999999284744,479809.60000002384,7758,WL,C,8.0
4,15.194999933242798,learn,44805.0000667572,Wed Apr 22 2026 14:10:49 GMT-0500 (Central Daylight Time),481960.1999999285,A,sugar,O,r,159,1,2150.5999999046326,479809.60000002384,7758,WL,C,8.0
4,15.67799997329712,learn,44322.00002670288,Wed Apr 22 2026 14:10:49 GMT-0500 (Central Daylight Time),482443.2999999523,A,sugarenter,O,enter,477,1,2633.6999999284744,479809.60000002384,7758,WL,C,8.0
4,17.67799997329712,learn,42322.00002670288,Wed Apr 22 2026 14:10:49 GMT-0500 (Central Daylight Time),484443.2999999523,A,b,O,b,1988,1,1999.6999999284744,482443.60000002384,7758,WL,C,9.0
4,17.8270001411438,learn,42172.9998588562,Wed Apr 22 2026 14:10:49 GMT-0500 (Central Daylight Time),484592.2999999523,A,bo,O,o,131,1,2148.6999999284744,482443.60000002384,7758,WL,C,9.0
4,18.028000116348267,learn,41971.99988365173,Wed Apr 22 2026 14:10:49 GMT-0500 (Central Daylight Time),484793.39999997616,A,boy,O,y,191,1,2349.7999999523163,482443.60000002384,7758,WL,C,9.0
4,18.377000093460083,learn,41622.99990653992,Wed Apr 22 2026 14:10:49 GMT-0500 (Central Daylight Time),485142.39999997616,A,boyenter,O,enter,340,1,2698.7999999523163,482443.60000002384,7758,WL,C,9.0
4,21.4760000705719,learn,38523.9999294281,Wed Apr 22 2026 14:10:49 GMT-0500 (Central Daylight Time),488241.60000002384,A,f,O,f,3081,1,3099.0,485142.60000002384,7758,WL,C,10.0
4,21.610000133514404,learn,38389.999866485596,Wed Apr 22 2026 14:10:49 GMT-0500 (Central Daylight Time),488375.7999999523,A,fl,O,l,126,1,3233.1999999284744,485142.60000002384,7758,WL,C,10.0
4,21.776000022888184,learn,38223.99997711182,Wed Apr 22 2026 14:10:49 GMT-0500 (Central Daylight Time),488541.60000002384,A,fla,O,a,160,1,3399.0,485142.60000002384,7758,WL,C,10.0
4,22.009000062942505,learn,37990.999937057495,Wed Apr 22 2026 14:10:49 GMT-0500 (Central Daylight Time),488774.1999999285,A,flag,O,g,223,1,3631.5999999046326,485142.60000002384,7758,WL,C,10.0
4,22.14300012588501,learn,37856.99987411499,Wed Apr 22 2026 14:10:49 GMT-0500 (Central Daylight Time),488908.0,A,flagenter,O,enter,118,1,3765.399999976158,485142.60000002384,7758,WL,C,10.0
4,27.289999961853027,learn,32710.000038146973,Wed Apr 22 2026 14:10:49 GMT-0500 (Central Daylight Time),494055.5,A,d,O,d,5139,1,5147.200000047684,488908.2999999523,7758,WL,C,11.0
4,27.457000017166138,learn,32542.999982833862,Wed Apr 22 2026 14:10:49 GMT-0500 (Central Daylight Time),494222.60000002384,A,do,O,o,148,1,5314.300000071526,488908.2999999523,7758,WL,C,11.0
4,27.60800004005432,learn,32391.99995994568,Wed Apr 22 2026 14:10:49 GMT-0500 (Central Daylight Time),494373.89999997616,A,doc,O,c,144,1,5465.600000023842,488908.2999999523,7758,WL,C,11.0
4,27.874000072479248,learn,32125.999927520752,Wed Apr 22 2026 14:10:49 GMT-0500 (Central Daylight Time),494639.2999999523,A,doct,O,t,248,1,5731.0,488908.2999999523,7758,WL,C,11.0
4,28.0239999294281,learn,31976.0000705719,Wed Apr 22 2026 14:10:49 GMT-0500 (Central Daylight Time),494789.1999999285,A,docto,O,o,136,1,5880.899999976158,488908.2999999523,7758,WL,C,11.0
4,28.375999927520752,learn,31624.000072479248,Wed Apr 22 2026 14:10:49 GMT-0500 (Central Daylight Time),495141.2999999523,A,doctor,O,r,347,1,6233.0,488908.2999999523,7758,WL,C,11.0
4,28.891000032424927,learn,31108.999967575073,Wed Apr 22 2026 14:10:49 GMT-0500 (Central Daylight Time),495656.1999999285,A,doctorenter,O,enter,506,1,6747.899999976158,488908.2999999523,7758,WL,C,11.0
4,29.306999921798706,learn,30693.000078201294,Wed Apr 22 2026 14:10:49 GMT-0500 (Central Daylight Time),496072.10000002384,A,s,O,s,407,1,415.60000002384186,495656.5,7758,WL,C,12.0
4,29.473999977111816,learn,30526.000022888184,Wed Apr 22 2026 14:10:49 GMT-0500 (Central Daylight Time),496239.5,A,sh,O,h,159,1,583.0,495656.5,7758,WL,C,12.0
4,29.657000064849854,learn,30342.999935150146,Wed Apr 22 2026 14:10:49 GMT-0500 (Central Daylight Time),496422.2999999523,A,sho,O,o,174,1,765.7999999523163,495656.5,7758,WL,C,12.0
4,29.789999961853027,learn,30210.000038146973,Wed Apr 22 2026 14:10:49 GMT-0500 (Central Daylight Time),496555.7999999523,A,shor,O,r,119,1,899.2999999523163,495656.5,7758,WL,C,12.0
4,29.85599994659424,learn,30144.00005340576,Wed Apr 22 2026 14:10:49 GMT-0500 (Central Daylight Time),496621.1999999285,A,shore,O,e,50,1,964.6999999284744,495656.5,7758,WL,C,12.0
4,30.1560001373291,learn,29843.9998626709,Wed Apr 22 2026 14:10:49 GMT-0500 (Central Daylight Time),496921.89999997616,A,shoreenter,O,enter,280,1,1265.3999999761581,495656.5,7758,WL,C,12.0
4,33.605000019073486,learn,26394.999980926514,Wed Apr 22 2026 14:10:49 GMT-0500 (Central Daylight Time),500370.5,A,f,O,f,3437,1,3448.399999976158,496922.10000002384,7758,WL,C,13.0
4,33.72099995613098,learn,26279.00004386902,Wed Apr 22 2026 14:10:49 GMT-0500 (Central Daylight Time),500486.60000002384,A,fl,O,l,107,1,3564.5,496922.10000002384,7758,WL,C,13.0
4,33.871999979019165,learn,26128.000020980835,Wed Apr 22 2026 14:10:49 GMT-0500 (Central Daylight Time),500637.89999997616,A,fla,O,a,136,1,3715.7999999523163,496922.10000002384,7758,WL,C,13.0
4,34.03999996185303,learn,25960.000038146973,Wed Apr 22 2026 14:10:49 GMT-0500 (Central Daylight Time),500805.5,A,flag,O,g,143,1,3883.399999976158,496922.10000002384,7758,WL,C,13.0
4,34.15499997138977,learn,25845.00002861023,Wed Apr 22 2026 14:10:49 GMT-0500 (Central Daylight Time),500920.89999997616,A,flagenter,O,enter,97,1,3998.7999999523163,496922.10000002384,7758,WL,C,13.0
4,42.71900010108948,learn,17280.999898910522,Wed Apr 22 2026 14:10:49 GMT-0500 (Central Daylight Time),509484.5,A,c,O,c,8549,1,8563.300000071526,500921.1999999285,7758,WL,C,14.0
4,42.88499999046326,learn,17115.000009536743,Wed Apr 22 2026 14:10:49 GMT-0500 (Central Daylight Time),509650.6999999285,A,ca,O,a,148,1,8729.5,500921.1999999285,7758,WL,C,14.0
4,42.96799993515015,learn,17032.000064849854,Wed Apr 22 2026 14:10:49 GMT-0500 (Central Daylight Time),509733.89999997616,A,cam,O,m,64,1,8812.700000047684,500921.1999999285,7758,WL,C,14.0
4,43.235000133514404,learn,16764.999866485596,Wed Apr 22 2026 14:10:49 GMT-0500 (Central Daylight Time),510000.5,A,camp,O,p,247,1,9079.300000071526,500921.1999999285,7758,WL,C,14.0
4,43.568000078201294,learn,16431.999921798706,Wed Apr 22 2026 14:10:49 GMT-0500 (Central Daylight Time),510333.10000002384,A,campenter,O,enter,326,1,9411.900000095367,500921.1999999285,7758,WL,C,14.0
4,44.003000020980835,learn,15996.999979019165,Wed Apr 22 2026 14:10:49 GMT-0500 (Central Daylight Time),510768.60000002384,A,b,O,b,426,1,435.2000000476837,510333.39999997616,7758,WL,C,15.0
4,44.170000076293945,learn,15829.999923706055,Wed Apr 22 2026 14:10:49 GMT-0500 (Central Daylight Time),510935.0,A,bo,O,o,143,1,601.6000000238419,510333.39999997616,7758,WL,C,15.0
4,44.3199999332428,learn,15680.000066757202,Wed Apr 22 2026 14:10:49 GMT-0500 (Central Daylight Time),511085.5,A,bod,O,d,128,1,752.1000000238419,510333.39999997616,7758,WL,C,15.0
4,44.485000133514404,learn,15514.999866485596,Wed Apr 22 2026 14:10:49 GMT-0500 (Central Daylight Time),511250.39999997616,A,body,O,y,152,1,917.0,510333.39999997616,7758,WL,C,15.0
4,44.73699998855591,learn,15263.000011444092,Wed Apr 22 2026 14:10:49 GMT-0500 (Central Daylight Time),511502.0,A,bodyenter,O,enter,246,1,1168.6000000238419,510333.39999997616,7758,WL,C,15.0
5,0.6329998970031738,learn,60000.0,Wed Apr 22 2026 14:10:49 GMT-0500 (Central Daylight Time),578213.0,A,c,O,c,621,1,633.6000000238419,577579.3999999762,7758,WL,C,1.0
5,0.8489999771118164,learn,60000.0,Wed Apr 22 2026 14:10:49 GMT-0500 (Central Daylight Time),578428.6000000238,A,ca,O,a,200,1,849.2000000476837,577579.3999999762,7758,WL,C,1.0
5,0.9819998741149902,learn,60000.0,Wed Apr 22 2026 14:10:49 GMT-0500 (Central Daylight Time),578562.1000000238,A,cam,O,m,113,1,982.7000000476837,577579.3999999762,7758,WL,C,1.0
5,1.2339999675750732,learn,60000.0,Wed Apr 22 2026 14:10:49 GMT-0500 (Central Daylight Time),578813.5,A,camp,O,p,236,1,1234.1000000238419,577579.3999999762,7758,WL,C,1.0
5,1.7689998149871826,learn,60000.0,Wed Apr 22 2026 14:10:49 GMT-0500 (Central Daylight Time),579348.2999999523,A,campenter,O,enter,522,1,1768.8999999761581,577579.3999999762,7758,WL,C,1.0
5,2.2839999198913574,learn,60000.0,Wed Apr 22 2026 14:10:49 GMT-0500 (Central Daylight Time),579863.2999999523,A,f,O,f,499,1,514.7999999523163,579348.5,7758,WL,C,2.0
5,3.115000009536743,learn,60000.0,Wed Apr 22 2026 14:10:49 GMT-0500 (Central Daylight Time),580694.7999999523,A,fl,O,l,815,1,1346.2999999523163,579348.5,7758,WL,C,2.0
5,3.2669999599456787,learn,60000.0,Wed Apr 22 2026 14:10:49 GMT-0500 (Central Daylight Time),580846.2999999523,A,fla,O,a,137,1,1497.7999999523163,579348.5,7758,WL,C,2.0
5,3.4659998416900635,learn,60000.0,Wed Apr 22 2026 14:10:49 GMT-0500 (Central Daylight Time),581045.1000000238,A,flag,O,g,193,1,1696.6000000238419,579348.5,7758,WL,C,2.0
5,3.6489999294281006,learn,60000.0,Wed Apr 22 2026 14:10:49 GMT-0500 (Central Daylight Time),581229.1000000238,A,flagenter,O,enter,165,1,1880.6000000238419,579348.5,7758,WL,C,2.0
5,4.196999788284302,learn,60000.0,Wed Apr 22 2026 14:10:49 GMT-0500 (Central Daylight Time),581776.8999999762,A,l,O,l,536,1,547.6000000238419,581229.2999999523,7758,WL,C,3.0
5,4.313999891281128,learn,60000.0,Wed Apr 22 2026 14:10:49 GMT-0500 (Central Daylight Time),581893.2999999523,A,le,O,e,102,1,664.0,581229.2999999523,7758,WL,C,3.0
5,4.46399998664856,learn,60000.0,Wed Apr 22 2026 14:10:49 GMT-0500 (Central Daylight Time),582043.3999999762,A,let,O,t,138,1,814.1000000238419,581229.2999999523,7758,WL,C,3.0
5,4.664999961853027,learn,60000.0,Wed Apr 22 2026 14:10:49 GMT-0500 (Central Daylight Time),582244.1999999285,A,lett,O,t,187,1,1014.8999999761581,581229.2999999523,7758,WL,C,3.0
5,4.796999931335449,learn,60000.0,Wed Apr 22 2026 14:10:49 GMT-0500 (Central Daylight Time),582376.1999999285,A,lette,O,e,111,1,1146.8999999761581,581229.2999999523,7758,WL,C,3.0
5,4.929999828338623,learn,60000.0,Wed Apr 22 2026 14:10:49 GMT-0500 (Central Daylight Time),582510.0,A,letter,O,r,119,1,1280.7000000476837,581229.2999999523,7758,WL,C,3.0
5,5.163999795913696,learn,60000.0,Wed Apr 22 2026 14:10:49 GMT-0500 (Central Daylight Time),582743.5,A,letterenter,O,enter,217,1,1514.2000000476837,581229.2999999523,7758,WL,C,3.0
5,5.680999994277954,learn,60000.0,Wed Apr 22 2026 14:10:49 GMT-0500 (Central Daylight Time),583260.5,A,n,O,n,511,1,516.7000000476837,582743.7999999523,7758,WL,C,4.0
5,5.812999963760376,learn,60000.0,Wed Apr 22 2026 14:10:49 GMT-0500 (Central Daylight Time),583392.6999999285,A,na,O,a,123,1,648.8999999761581,582743.7999999523,7758,WL,C,4.0
5,6.097999811172485,learn,60000.0,Wed Apr 22 2026 14:10:49 GMT-0500 (Central Daylight Time),583677.1999999285,A,nai,O,i,280,1,933.3999999761581,582743.7999999523,7758,WL,C,4.0
5,6.613999843597412,learn,60000.0,Wed Apr 22 2026 14:10:49 GMT-0500 (Central Daylight Time),584194.1000000238,A,nail,O,l,508,1,1450.3000000715256,582743.7999999523,7758,WL,C,4.0
5,6.980999946594238,learn,60000.0,Wed Apr 22 2026 14:10:49 GMT-0500 (Central Daylight Time),584560.3999999762,A,nailenter,O,enter,351,1,1816.6000000238419,582743.7999999523,7758,WL,C,4.0
5,7.2809998989105225,learn,60000.0,Wed Apr 22 2026 14:10:49 GMT-0500 (Central Daylight Time),584860.2999999523,A,t,O,t,296,1,299.6999999284744,584560.6000000238,7758,WL,C,5.0
5,7.46399998664856,learn,60000.0,Wed Apr 22 2026 14:10:49 GMT-0500 (Central Daylight Time),585043.5,A,to,O,o,161,1,482.89999997615814,584560.6000000238,7758,WL,C,5.0
5,7.617999792098999,learn,60000.0,Wed Apr 22 2026 14:10:49 GMT-0500 (Central Daylight Time),585197.8999999762,A,tow,O,w,149,1,637.2999999523163,584560.6000000238,7758,WL,C,5.0
5,7.747999906539917,learn,60000.0,Wed Apr 22 2026 14:10:49 GMT-0500 (Central Daylight Time),585327.1000000238,A,towe,O,e,109,1,766.5,584560.6000000238,7758,WL,C,5.0
5,7.8999998569488525,learn,60000.0,Wed Apr 22 2026 14:10:49 GMT-0500 (Central Daylight Time),585479.7999999523,A,tower,O,r,129,1,919.1999999284744,584560.6000000238,7758,WL,C,5.0
5,8.080999851226807,learn,60000.0,Wed Apr 22 2026 14:10:49 GMT-0500 (Central Daylight Time),585660.6999999285,A,towerenter,O,enter,175,1,1100.0999999046326,584560.6000000238,7758,WL,C,5.0
5,8.579999923706055,learn,60000.0,Wed Apr 22 2026 14:10:49 GMT-0500 (Central Daylight Time),586160.0,A,q,O,q,490,1,499.10000002384186,585660.8999999762,7758,WL,C,6.0
5,8.745999813079834,learn,60000.0,Wed Apr 22 2026 14:10:49 GMT-0500 (Central Daylight Time),586325.8999999762,A,qu,O,u,160,1,665.0,585660.8999999762,7758,WL,C,6.0
5,8.865000009536743,learn,60000.0,Wed Apr 22 2026 14:10:49 GMT-0500 (Central Daylight Time),586444.6999999285,A,que,O,e,113,1,783.7999999523163,585660.8999999762,7758,WL,C,6.0
5,9.145999908447266,learn,60000.0,Wed Apr 22 2026 14:10:49 GMT-0500 (Central Daylight Time),586725.7999999523,A,quee,O,e,273,1,1064.8999999761581,585660.8999999762,7758,WL,C,6.0
5,9.38099980354309,learn,60000.0,Wed Apr 22 2026 14:10:49 GMT-0500 (Central Daylight Time),586960.2999999523,A,queen,O,n,215,1,1299.3999999761581,585660.8999999762,7758,WL,C,6.0
5,10.09499979019165,learn,60000.0,Wed Apr 22 2026 14:10:49 GMT-0500 (Central Daylight Time),587675.0,A,queenenter,O,enter,693,1,2014.1000000238419,585660.8999999762,7758,WL,C,6.0
5,10.932999849319458,learn,60000.0,Wed Apr 22 2026 14:10:49 GMT-0500 (Central Daylight Time),588512.2999999523,A,b,O,b,830,1,837.0,587675.2999999523,7758,WL,C,7.0
5,11.063999891281128,learn,60000.0,Wed Apr 22 2026 14:10:49 GMT-0500 (Central Daylight Time),588643.8999999762,A,bo,O,o,110,1,968.6000000238419,587675.2999999523,7758,WL,C,7.0
5,11.277999877929688,learn,60000.0,Wed Apr 22 2026 14:10:49 GMT-0500 (Central Daylight Time),588858.0,A,boy,O,y,202,1,1182.7000000476837,587675.2999999523,7758,WL,C,7.0
5,11.61299991607666,learn,60000.0,Wed Apr 22 2026 14:10:49 GMT-0500 (Central Daylight Time),589192.2999999523,A,boyenter,O,enter,326,1,1517.0,587675.2999999523,7758,WL,C,7.0
5,11.94599986076355,learn,60000.0,Wed Apr 22 2026 14:10:49 GMT-0500 (Central Daylight Time),589525.6000000238,A,f,O,f,319,1,333.10000002384186,589192.5,7758,WL,C,8.0
5,12.062999963760376,learn,60000.0,Wed Apr 22 2026 14:10:49 GMT-0500 (Central Daylight Time),589642.8999999762,A,fl,O,l,97,1,450.39999997615814,589192.5,7758,WL,C,8.0
5,12.263000011444092,learn,60000.0,Wed Apr 22 2026 14:10:49 GMT-0500 (Central Daylight Time),589842.8999999762,A,fla,O,a,178,1,650.3999999761581,589192.5,7758,WL,C,8.0
5,12.646999835968018,learn,60000.0,Wed Apr 22 2026 14:10:49 GMT-0500 (Central Daylight Time),590226.1999999285,A,flag,O,g,365,1,1033.6999999284744,589192.5,7758,WL,C,8.0
5,12.995999813079834,learn,60000.0,Wed Apr 22 2026 14:10:49 GMT-0500 (Central Daylight Time),590575.1999999285,A,flagenter,O,enter,332,1,1382.6999999284744,589192.5,7758,WL,C,8.0
5,14.03499984741211,learn,60000.0,Wed Apr 22 2026 14:10:49 GMT-0500 (Central Daylight Time),591614.5,A,d,O,d,1016,1,1039.0,590575.5,7758,WL,C,9.0
5,14.166999816894531,learn,60000.0,Wed Apr 22 2026 14:10:49 GMT-0500 (Central Daylight Time),591747.1000000238,A,do,O,o,122,1,1171.6000000238419,590575.5,7758,WL,C,9.0
5,14.327999830245972,learn,60000.0,Wed Apr 22 2026 14:10:49 GMT-0500 (Central Daylight Time),591907.6999999285,A,doc,O,c,157,1,1332.1999999284744,590575.5,7758,WL,C,9.0
5,14.610999822616577,learn,60000.0,Wed Apr 22 2026 14:10:49 GMT-0500 (Central Daylight Time),592191.0,A,doct,O,t,266,1,1615.5,590575.5,7758,WL,C,9.0
5,14.745999813079834,learn,60000.0,Wed Apr 22 2026 14:10:49 GMT-0500 (Central Daylight Time),592325.1999999285,A,docto,O,o,120,1,1749.6999999284744,590575.5,7758,WL,C,9.0
5,14.878000020980835,learn,60000.0,Wed Apr 22 2026 14:10:49 GMT-0500 (Central Daylight Time),592458.0,A,doctor,O,r,121,1,1882.5,590575.5,7758,WL,C,9.0
5,15.163999795913696,learn,60000.0,Wed Apr 22 2026 14:10:49 GMT-0500 (Central Daylight Time),592743.3999999762,A,doctorenter,O,enter,262,1,2167.899999976158,590575.5,7758,WL,C,9.0
5,17.628000020980835,learn,60000.0,Wed Apr 22 2026 14:10:49 GMT-0500 (Central Daylight Time),595207.2999999523,A,b,O,b,2448,1,2463.600000023842,592743.6999999285,7758,WL,C,10.0
5,17.793999910354614,learn,60000.0,Wed Apr 22 2026 14:10:49 GMT-0500 (Central Daylight Time),595373.6000000238,A,bo,O,o,151,1,2629.9000000953674,592743.6999999285,7758,WL,C,10.0
5,17.893999814987183,learn,60000.0,Wed Apr 22 2026 14:10:49 GMT-0500 (Central Daylight Time),595474.0,A,bod,O,d,90,1,2730.3000000715256,592743.6999999285,7758,WL,C,10.0
5,18.05999994277954,learn,60000.0,Wed Apr 22 2026 14:10:49 GMT-0500 (Central Daylight Time),595639.8999999762,A,body,O,y,157,1,2896.2000000476837,592743.6999999285,7758,WL,C,10.0
5,18.426999807357788,learn,60000.0,Wed Apr 22 2026 14:10:49 GMT-0500 (Central Daylight Time),596006.1999999285,A,bodyenter,O,enter,359,1,3262.5,592743.6999999285,7758,WL,C,10.0
5,19.194000005722046,learn,60000.0,Wed Apr 22 2026 14:10:49 GMT-0500 (Central Daylight Time),596773.7999999523,A,c,O,c,763,1,767.3999999761581,596006.3999999762,7758,WL,C,11.0
5,19.311999797821045,learn,60000.0,Wed Apr 22 2026 14:10:49 GMT-0500 (Central Daylight Time),596891.5,A,co,O,o,97,1,885.1000000238419,596006.3999999762,7758,WL,C,11.0
5,19.459999799728394,learn,60000.0,Wed Apr 22 2026 14:10:49 GMT-0500 (Central Daylight Time),597039.3999999762,A,cor,O,r,139,1,1033.0,596006.3999999762,7758,WL,C,11.0
5,19.611999988555908,learn,60000.0,Wed Apr 22 2026 14:10:49 GMT-0500 (Central Daylight Time),597191.1000000238,A,corn,O,n,145,1,1184.7000000476837,596006.3999999762,7758,WL,C,11.0
5,19.908999919891357,learn,60000.0,Wed Apr 22 2026 14:10:49 GMT-0500 (Central Daylight Time),597489.1000000238,A,cornenter,O,enter,277,1,1482.7000000476837,596006.3999999762,7758,WL,C,11.0
5,20.609999895095825,learn,60000.0,Wed Apr 22 2026 14:10:49 GMT-0500 (Central Daylight Time),598190.1000000238,A,c,O,c,686,1,700.8000000715256,597489.2999999523,7758,WL,C,12.0
5,20.76099991798401,learn,60000.0,Wed Apr 22 2026 14:10:49 GMT-0500 (Central Daylight Time),598340.7999999523,A,ca,O,a,138,1,851.5,597489.2999999523,7758,WL,C,12.0
5,20.959999799728394,learn,60000.0,Wed Apr 22 2026 14:10:49 GMT-0500 (Central Daylight Time),598540.1000000238,A,cam,O,m,186,1,1050.8000000715256,597489.2999999523,7758,WL,C,12.0
5,21.176999807357788,learn,60000.0,Wed Apr 22 2026 14:10:49 GMT-0500 (Central Daylight Time),598757.1000000238,A,camp,O,p,203,1,1267.8000000715256,597489.2999999523,7758,WL,C,12.0
5,21.508999824523926,learn,60000.0,Wed Apr 22 2026 14:10:49 GMT-0500 (Central Daylight Time),599088.7999999523,A,campenter,O,enter,322,1,1599.5,597489.2999999523,7758,WL,C,12.0
5,22.691999912261963,learn,60000.0,Wed Apr 22 2026 14:10:49 GMT-0500 (Central Daylight Time),600271.3999999762,A,s,O,s,1165,1,1182.3999999761581,599089.0,7758,WL,C,13.0
5,22.80900001525879,learn,60000.0,Wed Apr 22 2026 14:10:49 GMT-0500 (Central Daylight Time),600388.6999999285,A,sh,O,h,112,1,1299.6999999284744,599089.0,7758,WL,C,13.0
5,22.925999879837036,learn,60000.0,Wed Apr 22 2026 14:10:49 GMT-0500 (Central Daylight Time),600505.3999999762,A,sho,O,o,105,1,1416.3999999761581,599089.0,7758,WL,C,13.0
5,23.074999809265137,learn,60000.0,Wed Apr 22 2026 14:10:49 GMT-0500 (Central Daylight Time),600655.1999999285,A,shor,O,r,129,1,1566.1999999284744,599089.0,7758,WL,C,13.0
5,23.15999984741211,learn,60000.0,Wed Apr 22 2026 14:10:49 GMT-0500 (Central Daylight Time),600739.3999999762,A,shore,O,e,62,1,1650.3999999761581,599089.0,7758,WL,C,13.0
5,23.37399983406067,learn,60000.0,Wed Apr 22 2026 14:10:49 GMT-0500 (Central Daylight Time),600954.2999999523,A,shoreenter,O,enter,201,1,1865.2999999523163,599089.0,7758,WL,C,13.0
5,26.191999912261963,learn,60000.0,Wed Apr 22 2026 14:10:49 GMT-0500 (Central Daylight Time),603771.5,A,w,O,w,2806,1,2817.0,600954.5,7758,WL,C,14.0
5,26.307999849319458,learn,60000.0,Wed Apr 22 2026 14:10:49 GMT-0500 (Central Daylight Time),603887.6000000238,A,wh,O,h,99,1,2933.100000023842,600954.5,7758,WL,C,14.0
5,26.441999912261963,learn,60000.0,Wed Apr 22 2026 14:10:49 GMT-0500 (Central Daylight Time),604022.1999999285,A,whe,O,e,128,1,3067.6999999284744,600954.5,7758,WL,C,14.0
5,26.674999952316284,learn,60000.0,Wed Apr 22 2026 14:10:49 GMT-0500 (Central Daylight Time),604255.1999999285,A,whea,O,a,215,1,3300.6999999284744,600954.5,7758,WL,C,14.0
5,26.87399983406067,learn,60000.0,Wed Apr 22 2026 14:10:49 GMT-0500 (Central Daylight Time),604453.5,A,wheat,O,t,183,1,3499.0,600954.5,7758,WL,C,14.0
5,27.12399983406067,learn,60000.0,Wed Apr 22 2026 14:10:49 GMT-0500 (Central Daylight Time),604704.1999999285,A,wheatenter,O,enter,243,1,3749.6999999284744,600954.5,7758,WL,C,14.0
5,30.62399983406067,learn,60000.0,Wed Apr 22 2026 14:10:49 GMT-0500 (Central Daylight Time),608203.3999999762,A,s,O,s,3487,1,3499.100000023842,604704.2999999523,7758,WL,C,15.0
5,30.757999897003174,learn,60000.0,Wed Apr 22 2026 14:10:49 GMT-0500 (Central Daylight Time),608337.2999999523,A,su,O,u,116,1,3633.0,604704.2999999523,7758,WL,C,15.0
5,30.93999981880188,learn,60000.0,Wed Apr 22 2026 14:10:49 GMT-0500 (Central Daylight Time),608520.2999999523,A,sug,O,g,164,1,3816.0,604704.2999999523,7758,WL,C,15.0
5,31.257999897003174,learn,60000.0,Wed Apr 22 2026 14:10:49 GMT-0500 (Central Daylight Time),608837.3999999762,A,suga,O,a,302,1,4133.100000023842,604704.2999999523,7758,WL,C,15.0
5,31.58999991416931,learn,60000.0,Wed Apr 22 2026 14:10:49 GMT-0500 (Central Daylight Time),609170.1000000238,A,sugar,O,r,313,1,4465.800000071526,604704.2999999523,7758,WL,C,15.0
5,31.789999961853027,learn,60000.0,Wed Apr 22 2026 14:10:49 GMT-0500 (Central Daylight Time),609369.3999999762,A,sugarenter,O,enter,179,1,4665.100000023842,604704.2999999523,7758,WL,C,15.0
6,0.7999999523162842,distr,59200.000047683716,Wed Apr 22 2026 14:10:49 GMT-0500 (Central Daylight Time),687744.8999999762,B,s,O,s,783,1,799.7000000476837,686945.1999999285,7758,WL,C,1.0
6,1.1339998245239258,distr,58866.000175476074,Wed Apr 22 2026 14:10:49 GMT-0500 (Central Daylight Time),688078.6999999285,B,sk,O,k,317,1,1133.5,686945.1999999285,7758,WL,C,1.0
6,1.4659998416900635,distr,58534.00015830994,Wed Apr 22 2026 14:10:49 GMT-0500 (Central Daylight Time),688411.1999999285,B,sky,O,y,312,1,1466.0,686945.1999999285,7758,WL,C,1.0
6,2.3489999771118164,distr,57651.00002288818,Wed Apr 22 2026 14:10:49 GMT-0500 (Central Daylight Time),689294.1999999285,B,skyenter,O,enter,875,1,2349.0,686945.1999999285,7758,WL,C,1.0
6,2.6989998817443848,distr,57301.000118255615,Wed Apr 22 2026 14:10:49 GMT-0500 (Central Daylight Time),689643.6000000238,B,h,O,h,336,1,349.10000002384186,689294.5,7758,WL,C,2.0
6,2.8319997787475586,distr,57168.00022125244,Wed Apr 22 2026 14:10:49 GMT-0500 (Central Daylight Time),689776.6000000238,B,ha,O,a,123,1,482.10000002384186,689294.5,7758,WL,C,2.0
6,3.0319998264312744,distr,56968.000173568726,Wed Apr 22 2026 14:10:49 GMT-0500 (Central Daylight Time),689977.0,B,hal,O,l,182,1,682.5,689294.5,7758,WL,C,2.0
6,3.2149999141693115,distr,56785.00008583069,Wed Apr 22 2026 14:10:49 GMT-0500 (Central Daylight Time),690159.8999999762,B,hall,O,l,172,1,865.3999999761581,689294.5,7758,WL,C,2.0
6,3.4809999465942383,distr,56519.00005340576,Wed Apr 22 2026 14:10:49 GMT-0500 (Central Daylight Time),690425.6999999285,B,hallenter,O,enter,244,1,1131.1999999284744,689294.5,7758,WL,C,2.0
6,3.797999858856201,distr,56202.0001411438,Wed Apr 22 2026 14:10:49 GMT-0500 (Central Daylight Time),690742.8999999762,B,c,O,c,300,1,317.0,690425.8999999762,7758,WL,C,3.0
6,3.9649999141693115,distr,56035.00008583069,Wed Apr 22 2026 14:10:49 GMT-0500 (Central Daylight Time),690910.0,B,ch,O,h,162,1,484.10000002384186,690425.8999999762,7758,WL,C,3.0
6,4.21399998664856,distr,55786.00001335144,Wed Apr 22 2026 14:10:49 GMT-0500 (Central Daylight Time),691159.1000000238,B,chr,O,r,240,1,733.2000000476837,690425.8999999762,7758,WL,C,3.0
6,4.447999954223633,distr,55552.00004577637,Wed Apr 22 2026 14:10:49 GMT-0500 (Central Daylight Time),691392.6999999285,B,chri,O,i,225,1,966.7999999523163,690425.8999999762,7758,WL,C,3.0
6,4.648000001907349,distr,55351.99999809265,Wed Apr 22 2026 14:10:49 GMT-0500 (Central Daylight Time),691592.5,B,chris,O,s,183,1,1166.6000000238419,690425.8999999762,7758,WL,C,3.0
6,4.865000009536743,distr,55134.99999046326,Wed Apr 22 2026 14:10:49 GMT-0500 (Central Daylight Time),691809.3999999762,B,christ,O,t,198,1,1383.5,690425.8999999762,7758,WL,C,3.0
6,5.098999977111816,distr,54901.00002288818,Wed Apr 22 2026 14:10:49 GMT-0500 (Central Daylight Time),692043.6999999285,B,christm,O,m,213,1,1617.7999999523163,690425.8999999762,7758,WL,C,3.0
6,5.264999866485596,distr,54735.000133514404,Wed Apr 22 2026 14:10:49 GMT-0500 (Central Daylight Time),692210.1999999285,B,christma,O,a,154,1,1784.2999999523163,690425.8999999762,7758,WL,C,3.0
6,5.5329999923706055,distr,54467.000007629395,Wed Apr 22 2026 14:10:49 GMT-0500 (Central Daylight Time),692477.6000000238,B,christmas,O,s,251,1,2051.7000000476837,690425.8999999762,7758,WL,C,3.0
6,5.73199987411499,distr,54268.00012588501,Wed Apr 22 2026 14:10:49 GMT-0500 (Central Daylight Time),692677.0,B,christmasenter,O,enter,194,1,2251.100000023842,690425.8999999762,7758,WL,C,3.0
6,6.197999954223633,distr,53802.00004577637,Wed Apr 22 2026 14:10:49 GMT-0500 (Central Daylight Time),693142.6000000238,B,m,O,m,451,1,465.3000000715256,692677.2999999523,7758,WL,C,4.0
6,6.430999994277954,distr,53569.000005722046,Wed Apr 22 2026 14:10:49 GMT-0500 (Central Daylight Time),693376.1000000238,B,mo,O,o,216,1,698.8000000715256,692677.2999999523,7758,WL,C,4.0
6,6.5309998989105225,distr,53469.00010108948,Wed Apr 22 2026 14:10:49 GMT-0500 (Central Daylight Time),693475.6000000238,B,mot,O,t,95,1,798.3000000715256,692677.2999999523,7758,WL,C,4.0
6,6.732999801635742,distr,53267.00019836426,Wed Apr 22 2026 14:10:49 GMT-0500 (Central Daylight Time),693677.6999999285,B,moth,O,h,180,1,1000.3999999761581,692677.2999999523,7758,WL,C,4.0
6,6.847999811172485,distr,53152.000188827515,Wed Apr 22 2026 14:10:49 GMT-0500 (Central Daylight Time),693792.6999999285,B,mothe,O,e,109,1,1115.3999999761581,692677.2999999523,7758,WL,C,4.0
6,6.948999881744385,distr,53051.000118255615,Wed Apr 22 2026 14:10:49 GMT-0500 (Central Daylight Time),693893.6999999285,B,mother,O,r,95,1,1216.3999999761581,692677.2999999523,7758,WL,C,4.0
6,7.164999961853027,distr,52835.00003814697,Wed Apr 22 2026 14:10:49 GMT-0500 (Central Daylight Time),694110.2999999523,B,motherenter,O,enter,202,1,1433.0,692677.2999999523,7758,WL,C,4.0
6,17.710999965667725,distr,42289.000034332275,Wed Apr 22 2026 14:10:49 GMT-0500 (Central Daylight Time),704655.5,B,h,O,h,10524,1,10545.0,694110.5,7758,WL,C,5.0
6,17.8439998626709,distr,42156.0001373291,Wed Apr 22 2026 14:10:49 GMT-0500 (Central Daylight Time),704789.1999999285,B,ha,O,a,119,1,10678.699999928474,694110.5,7758,WL,C,5.0
6,18.01099991798401,distr,41989.00008201599,Wed Apr 22 2026 14:10:49 GMT-0500 (Central Daylight Time),704956.3999999762,B,hal,O,l,145,1,10845.899999976158,694110.5,7758,WL,C,5.0
6,18.194000005722046,distr,41805.999994277954,Wed Apr 22 2026 14:10:49 GMT-0500 (Central Daylight Time),705138.6000000238,B,hall,O,l,161,1,11028.100000023842,694110.5,7758,WL,C,5.0
6,18.41099977493286,distr,41589.00022506714,Wed Apr 22 2026 14:10:49 GMT-0500 (Central Daylight Time),705355.7999999523,B,hallenter,O,enter,205,1,11245.299999952316,694110.5,7758,WL,C,5.0
6,60.013999938964844,distr,-13.99993896484375,Wed Apr 22 2026 14:10:49 GMT-0500 (Central Daylight Time),746958.7999999523,B,None,O,None,41597,1,41602.799999952316,705356.0,7758,WL,C,6.0
7,0.7999999523162842,immed,59200.000047683716,Wed Apr 22 2026 14:10:49 GMT-0500 (Central Daylight Time),749857.7999999523,A,q,O,q,783,1,799.7999999523163,749058.0,7758,WL,C,1.0
7,0.999000072479248,immed,59000.99992752075,Wed Apr 22 2026 14:10:49 GMT-0500 (Central Daylight Time),750057.5,A,qi,O,i,188,1,999.5,749058.0,7758,WL,C,1.0
7,1.2829999923706055,immed,58717.000007629395,Wed Apr 22 2026 14:10:49 GMT-0500 (Central Daylight Time),750340.6999999285,A,qie,O,e,268,1,1282.6999999284744,749058.0,7758,WL,C,1.0
7,1.3989999294281006,immed,58601.0000705719,Wed Apr 22 2026 14:10:49 GMT-0500 (Central Daylight Time),750457.3999999762,A,qiee,O,e,96,1,1399.3999999761581,749058.0,7758,WL,C,1.0
7,2.0329999923706055,immed,57967.000007629395,Wed Apr 22 2026 14:10:49 GMT-0500 (Central Daylight Time),751090.6999999285,A,qie,O,backspace,621,1,2032.6999999284744,749058.0,7758,WL,C,1.0
7,2.365000009536743,immed,57634.99999046326,Wed Apr 22 2026 14:10:49 GMT-0500 (Central Daylight Time),751423.2999999523,A,qi,O,backspace,313,1,2365.2999999523163,749058.0,7758,WL,C,1.0
7,2.5829999446868896,immed,57417.00005531311,Wed Apr 22 2026 14:10:49 GMT-0500 (Central Daylight Time),751641.2999999523,A,q,O,backspace,209,1,2583.2999999523163,749058.0,7758,WL,C,1.0
7,3.2149999141693115,immed,56785.00008583069,Wed Apr 22 2026 14:10:49 GMT-0500 (Central Daylight Time),752273.0,A,qu,O,u,620,1,3215.0,749058.0,7758,WL,C,1.0
7,3.365999937057495,immed,56634.000062942505,Wed Apr 22 2026 14:10:49 GMT-0500 (Central Daylight Time),752424.1000000238,A,que,O,e,138,1,3366.100000023842,749058.0,7758,WL,C,1.0
7,3.5490000247955322,immed,56450.99997520447,Wed Apr 22 2026 14:10:49 GMT-0500 (Central Daylight Time),752606.8999999762,A,quee,O,e,177,1,3548.899999976158,749058.0,7758,WL,C,1.0
7,3.747999906539917,immed,56252.00009346008,Wed Apr 22 2026 14:10:49 GMT-0500 (Central Daylight Time),752806.5,A,queen,O,n,193,1,3748.5,749058.0,7758,WL,C,1.0
7,4.148000001907349,immed,55851.99999809265,Wed Apr 22 2026 14:10:49 GMT-0500 (Central Daylight Time),753206.5,A,queenenter,O,enter,392,1,4148.5,749058.0,7758,WL,C,1.0
7,4.516000032424927,immed,55483.99996757507,Wed Apr 22 2026 14:10:49 GMT-0500 (Central Daylight Time),753574.1999999285,A,t,O,t,353,1,367.59999990463257,753206.6000000238,7758,WL,C,2.0
7,4.665999889373779,immed,55334.00011062622,Wed Apr 22 2026 14:10:49 GMT-0500 (Central Daylight Time),753723.8999999762,A,to,O,o,128,1,517.2999999523163,753206.6000000238,7758,WL,C,2.0
7,4.898000001907349,immed,55101.99999809265,Wed Apr 22 2026 14:10:49 GMT-0500 (Central Daylight Time),753956.2999999523,A,tow,O,w,210,1,749.6999999284744,753206.6000000238,7758,WL,C,2.0
7,5.0329999923706055,immed,54967.000007629395,Wed Apr 22 2026 14:10:49 GMT-0500 (Central Daylight Time),754091.0,A,towe,O,e,113,1,884.3999999761581,753206.6000000238,7758,WL,C,2.0
7,5.180999994277954,immed,54819.000005722046,Wed Apr 22 2026 14:10:49 GMT-0500 (Central Daylight Time),754239.3999999762,A,tower,O,r,129,1,1032.7999999523163,753206.6000000238,7758,WL,C,2.0
7,5.447999954223633,immed,54552.00004577637,Wed Apr 22 2026 14:10:49 GMT-0500 (Central Daylight Time),754506.0,A,towerenter,O,enter,245,1,1299.3999999761581,753206.6000000238,7758,WL,C,2.0
7,6.997999906539917,immed,53002.00009346008,Wed Apr 22 2026 14:10:49 GMT-0500 (Central Daylight Time),756055.8999999762,A,w,O,w,1542,1,1549.7000000476837,754506.1999999285,7758,WL,C,3.0
7,7.148000001907349,immed,52851.99999809265,Wed Apr 22 2026 14:10:49 GMT-0500 (Central Daylight Time),756206.1000000238,A,wh,O,h,134,1,1699.9000000953674,754506.1999999285,7758,WL,C,3.0
7,7.247999906539917,immed,52752.00009346008,Wed Apr 22 2026 14:10:49 GMT-0500 (Central Daylight Time),756306.1999999285,A,whe,O,e,82,1,1800.0,754506.1999999285,7758,WL,C,3.0
7,7.401000022888184,immed,52598.99997711182,Wed Apr 22 2026 14:10:49 GMT-0500 (Central Daylight Time),756459.5,A,whee,O,e,131,1,1953.3000000715256,754506.1999999285,7758,WL,C,3.0
7,7.585999965667725,immed,52414.000034332275,Wed Apr 22 2026 14:10:49 GMT-0500 (Central Daylight Time),756644.5,A,wheea,O,a,163,1,2138.3000000715256,754506.1999999285,7758,WL,C,3.0
7,8.04699993133545,immed,51953.00006866455,Wed Apr 22 2026 14:10:49 GMT-0500 (Central Daylight Time),757105.1000000238,A,whee,O,backspace,452,1,2598.9000000953674,754506.1999999285,7758,WL,C,3.0
7,8.249000072479248,immed,51750.99992752075,Wed Apr 22 2026 14:10:49 GMT-0500 (Central Daylight Time),757307.0,A,whe,O,backspace,188,1,2800.8000000715256,754506.1999999285,7758,WL,C,3.0
7,8.513000011444092,immed,51486.99998855591,Wed Apr 22 2026 14:10:49 GMT-0500 (Central Daylight Time),757570.8999999762,A,whea,O,a,242,1,3064.7000000476837,754506.1999999285,7758,WL,C,3.0
7,8.797999858856201,immed,51202.0001411438,Wed Apr 22 2026 14:10:49 GMT-0500 (Central Daylight Time),757855.6999999285,A,wheat,O,t,268,1,3349.5,754506.1999999285,7758,WL,C,3.0
7,8.996999979019165,immed,51003.000020980835,Wed Apr 22 2026 14:10:49 GMT-0500 (Central Daylight Time),758055.3999999762,A,wheatenter,O,enter,189,1,3549.2000000476837,754506.1999999285,7758,WL,C,3.0
7,9.247999906539917,immed,50752.00009346008,Wed Apr 22 2026 14:10:49 GMT-0500 (Central Daylight Time),758305.6000000238,A,c,O,c,240,1,250.0,758055.6000000238,7758,WL,C,4.0
7,9.412999868392944,immed,50587.000131607056,Wed Apr 22 2026 14:10:49 GMT-0500 (Central Daylight Time),758471.3999999762,A,ca,O,a,157,1,415.7999999523163,758055.6000000238,7758,WL,C,4.0
7,9.52999997138977,immed,50470.00002861023,Wed Apr 22 2026 14:10:49 GMT-0500 (Central Daylight Time),758587.7999999523,A,cam,O,m,104,1,532.1999999284744,758055.6000000238,7758,WL,C,4.0
7,9.730000019073486,immed,50269.999980926514,Wed Apr 22 2026 14:10:49 GMT-0500 (Central Daylight Time),758788.0,A,camp,O,p,178,1,732.3999999761581,758055.6000000238,7758,WL,C,4.0
7,10.44700002670288,immed,49552.99997329712,Wed Apr 22 2026 14:10:49 GMT-0500 (Central Daylight Time),759504.5,A,campenter,O,enter,705,1,1448.8999999761581,758055.6000000238,7758,WL,C,4.0
7,11.128999948501587,immed,48871.00005149841,Wed Apr 22 2026 14:10:49 GMT-0500 (Central Daylight Time),760186.8999999762,A,b,O,b,661,1,682.1000000238419,759504.7999999523,7758,WL,C,5.0
7,11.361000061035156,immed,48638.999938964844,Wed Apr 22 2026 14:10:49 GMT-0500 (Central Daylight Time),760419.3999999762,A,bo,O,o,212,1,914.6000000238419,759504.7999999523,7758,WL,C,5.0
7,11.645999908447266,immed,48354.000091552734,Wed Apr 22 2026 14:10:49 GMT-0500 (Central Daylight Time),760704.0,A,boy,O,y,269,1,1199.2000000476837,759504.7999999523,7758,WL,C,5.0
7,12.013000011444092,immed,47986.99998855591,Wed Apr 22 2026 14:10:49 GMT-0500 (Central Daylight Time),761070.7999999523,A,boyenter,O,enter,356,1,1566.0,759504.7999999523,7758,WL,C,5.0
7,13.378999948501587,immed,46621.00005149841,Wed Apr 22 2026 14:10:49 GMT-0500 (Central Daylight Time),762437.1000000238,A,b,O,b,1353,1,1366.1000000238419,761071.0,7758,WL,C,6.0
7,13.529000043869019,immed,46470.99995613098,Wed Apr 22 2026 14:10:49 GMT-0500 (Central Daylight Time),762587.1000000238,A,bo,O,o,129,1,1516.1000000238419,761071.0,7758,WL,C,6.0
7,13.729000091552734,immed,46270.999908447266,Wed Apr 22 2026 14:10:49 GMT-0500 (Central Daylight Time),762786.8999999762,A,bod,O,d,180,1,1715.8999999761581,761071.0,7758,WL,C,6.0
7,14.02999997138977,immed,45970.00002861023,Wed Apr 22 2026 14:10:49 GMT-0500 (Central Daylight Time),763087.6000000238,A,body,O,y,293,1,2016.6000000238419,761071.0,7758,WL,C,6.0
7,14.378000020980835,immed,45621.999979019165,Wed Apr 22 2026 14:10:49 GMT-0500 (Central Daylight Time),763436.1999999285,A,bodyenter,O,enter,343,1,2365.1999999284744,761071.0,7758,WL,C,6.0
7,14.746000051498413,immed,45253.99994850159,Wed Apr 22 2026 14:10:49 GMT-0500 (Central Daylight Time),763804.5,A,s,O,s,363,1,368.0,763436.5,7758,WL,C,7.0
7,14.963000059127808,immed,45036.99994087219,Wed Apr 22 2026 14:10:49 GMT-0500 (Central Daylight Time),764020.6000000238,A,sh,O,h,194,1,584.1000000238419,763436.5,7758,WL,C,7.0
7,15.51200008392334,immed,44487.99991607666,Wed Apr 22 2026 14:10:49 GMT-0500 (Central Daylight Time),764570.6000000238,A,sho,O,o,529,1,1134.1000000238419,763436.5,7758,WL,C,7.0
7,15.694999933242798,immed,44305.0000667572,Wed Apr 22 2026 14:10:49 GMT-0500 (Central Daylight Time),764752.8999999762,A,shor,O,r,161,1,1316.3999999761581,763436.5,7758,WL,C,7.0
7,15.76200008392334,immed,44237.99991607666,Wed Apr 22 2026 14:10:49 GMT-0500 (Central Daylight Time),764820.2999999523,A,shore,O,e,60,1,1383.7999999523163,763436.5,7758,WL,C,7.0
7,16.078999996185303,immed,43921.0000038147,Wed Apr 22 2026 14:10:49 GMT-0500 (Central Daylight Time),765137.3999999762,A,shoreenter,O,enter,304,1,1700.8999999761581,763436.5,7758,WL,C,7.0
7,16.677000045776367,immed,43322.99995422363,Wed Apr 22 2026 14:10:49 GMT-0500 (Central Daylight Time),765735.2999999523,A,c,O,c,581,1,597.6000000238419,765137.6999999285,7758,WL,C,8.0
7,16.812000036239624,immed,43187.999963760376,Wed Apr 22 2026 14:10:49 GMT-0500 (Central Daylight Time),765869.7999999523,A,co,O,o,119,1,732.1000000238419,765137.6999999285,7758,WL,C,8.0
7,16.99399995803833,immed,43006.00004196167,Wed Apr 22 2026 14:10:49 GMT-0500 (Central Daylight Time),766052.5,A,cor,O,r,175,1,914.8000000715256,765137.6999999285,7758,WL,C,8.0
7,17.161999940872192,immed,42838.00005912781,Wed Apr 22 2026 14:10:49 GMT-0500 (Central Daylight Time),766220.2999999523,A,corn,O,n,161,1,1082.6000000238419,765137.6999999285,7758,WL,C,8.0
7,17.411999940872192,immed,42588.00005912781,Wed Apr 22 2026 14:10:49 GMT-0500 (Central Daylight Time),766469.8999999762,A,cornenter,O,enter,233,1,1332.2000000476837,765137.6999999285,7758,WL,C,8.0
7,20.460000038146973,immed,39539.99996185303,Wed Apr 22 2026 14:10:49 GMT-0500 (Central Daylight Time),769518.1999999285,A,s,O,s,3041,1,3048.0999999046326,766470.1000000238,7758,WL,C,9.0
7,20.625999927520752,immed,39374.00007247925,Wed Apr 22 2026 14:10:49 GMT-0500 (Central Daylight Time),769684.5,A,su,O,u,154,1,3214.399999976158,766470.1000000238,7758,WL,C,9.0
7,20.793999910354614,immed,39206.000089645386,Wed Apr 22 2026 14:10:49 GMT-0500 (Central Daylight Time),769851.6000000238,A,sug,O,g,152,1,3381.5,766470.1000000238,7758,WL,C,9.0
7,21.043999910354614,immed,38956.000089645386,Wed Apr 22 2026 14:10:49 GMT-0500 (Central Daylight Time),770102.5,A,suga,O,a,235,1,3632.399999976158,766470.1000000238,7758,WL,C,9.0
7,21.22699999809265,immed,38773.00000190735,Wed Apr 22 2026 14:10:49 GMT-0500 (Central Daylight Time),770284.6999999285,A,sugar,O,r,167,1,3814.5999999046326,766470.1000000238,7758,WL,C,9.0
7,21.509000062942505,immed,38490.999937057495,Wed Apr 22 2026 14:10:49 GMT-0500 (Central Daylight Time),770567.5,A,sugarenter,O,enter,273,1,4097.399999976158,766470.1000000238,7758,WL,C,9.0
7,21.658999919891357,immed,38341.00008010864,Wed Apr 22 2026 14:10:49 GMT-0500 (Central Daylight Time),770717.5,A,d,O,d,144,1,149.70000004768372,770567.7999999523,7758,WL,C,10.0
7,21.858999967575073,immed,38141.00003242493,Wed Apr 22 2026 14:10:49 GMT-0500 (Central Daylight Time),770917.5,A,do,O,o,183,1,349.7000000476837,770567.7999999523,7758,WL,C,10.0
7,22.05999994277954,immed,37940.00005722046,Wed Apr 22 2026 14:10:49 GMT-0500 (Central Daylight Time),771118.1999999285,A,doc,O,c,193,1,550.3999999761581,770567.7999999523,7758,WL,C,10.0
7,22.310999870300293,immed,37689.00012969971,Wed Apr 22 2026 14:10:49 GMT-0500 (Central Daylight Time),771369.0,A,doct,O,t,238,1,801.2000000476837,770567.7999999523,7758,WL,C,10.0
7,22.444000005722046,immed,37555.999994277954,Wed Apr 22 2026 14:10:49 GMT-0500 (Central Daylight Time),771502.0,A,docto,O,o,115,1,934.2000000476837,770567.7999999523,7758,WL,C,10.0
7,22.575999975204468,immed,37424.00002479553,Wed Apr 22 2026 14:10:49 GMT-0500 (Central Daylight Time),771634.3999999762,A,doctor,O,r,116,1,1066.6000000238419,770567.7999999523,7758,WL,C,10.0
7,22.80900001525879,immed,37190.99998474121,Wed Apr 22 2026 14:10:49 GMT-0500 (Central Daylight Time),771867.2999999523,A,doctorenter,O,enter,219,1,1299.5,770567.7999999523,7758,WL,C,10.0
7,60.014999866485596,immed,-14.999866485595703,Wed Apr 22 2026 14:10:49 GMT-0500 (Central Daylight Time),809073.0,A,None,O,None,37201,1,37205.5,771867.5,7758,WL,C,11.0
