block_c,block_dur,condition,countdown,datetime,endtime,list,multichar_response,project,response,response_time,session_number,start_end,starttime,subject_id,task,task_vers,trial
,,,,Fri Sep 12 2025 15:09:06 GMT-0500 (Central Daylight Time),,,,O,space,591,1,,,7223,WL,A,
prac,,0,,Fri Sep 12 2025 15:09:06 GMT-0500 (Central Daylight Time),,NA,b,O,b,1677,1,,,7223,WL,A,1.0
prac,,0,,Fri Sep 12 2025 15:09:06 GMT-0500 (Central Daylight Time),,NA,bo,O,o,265,1,,,7223,WL,A,1.0
prac,,0,,Fri Sep 12 2025 15:09:06 GMT-0500 (Central Daylight Time),,NA,boo,O,o,167,1,,,7223,WL,A,1.0
prac,,0,,Fri Sep 12 2025 15:09:06 GMT-0500 (Central Daylight Time),,NA,boos,O,s,111,1,,,7223,WL,A,1.0
prac,,0,,Fri Sep 12 2025 15:09:06 GMT-0500 (Central Daylight Time),,NA,boost,O,t,195,1,,,7223,WL,A,1.0
prac,,0,,Fri Sep 12 2025 15:09:06 GMT-0500 (Central Daylight Time),,NA,boostenter,O,enter,1311,1,,,7223,WL,A,1.0
1,0.7829999923706055,learn,59217.000007629395,Fri Sep 12 2025 15:09:06 GMT-0500 (Central Daylight Time),157004.0,A,b,O,b,769,1,783.0,156221.0,7223,WL,A,1.0
1,1.1660001277923584,learn,58833.99987220764,Fri Sep 12 2025 15:09:06 GMT-0500 (Central Daylight Time),157386.70000004768,A,bo,O,o,368,1,1165.7000000476837,156221.0,7223,WL,A,1.0
1,1.3330001831054688,learn,58666.99981689453,Fri Sep 12 2025 15:09:06 GMT-0500 (Central Daylight Time),157553.90000009537,A,boo,O,o,144,1,1332.9000000953674,156221.0,7223,WL,A,1.0
1,1.5830001831054688,learn,58416.99981689453,Fri Sep 12 2025 15:09:06 GMT-0500 (Central Daylight Time),157803.60000002384,A,book,O,k,242,1,1582.6000000238419,156221.0,7223,WL,A,1.0
1,2.6660001277923584,learn,57333.99987220764,Fri Sep 12 2025 15:09:06 GMT-0500 (Central Daylight Time),158886.10000002384,A,bookenter,O,enter,1064,1,2665.100000023842,156221.0,7223,WL,A,1.0
1,3.246999979019165,learn,56753.000020980835,Fri Sep 12 2025 15:09:06 GMT-0500 (Central Daylight Time),159468.0,A,t,O,t,573,1,581.5,158886.5,7223,WL,A,2.0
1,3.4820001125335693,learn,56517.99988746643,Fri Sep 12 2025 15:09:06 GMT-0500 (Central Daylight Time),159702.70000004768,A,tr,O,r,218,1,816.2000000476837,158886.5,7223,WL,A,2.0
1,3.8990001678466797,learn,56100.99983215332,Fri Sep 12 2025 15:09:06 GMT-0500 (Central Daylight Time),160119.30000007153,A,tra,O,a,396,1,1232.8000000715256,158886.5,7223,WL,A,2.0
1,4.047000169754028,learn,55952.99983024597,Fri Sep 12 2025 15:09:06 GMT-0500 (Central Daylight Time),160267.60000002384,A,trai,O,i,141,1,1381.1000000238419,158886.5,7223,WL,A,2.0
1,4.265000104904175,learn,55734.999895095825,Fri Sep 12 2025 15:09:06 GMT-0500 (Central Daylight Time),160485.30000007153,A,train,O,n,201,1,1598.8000000715256,158886.5,7223,WL,A,2.0
1,4.680000066757202,learn,55319.9999332428,Fri Sep 12 2025 15:09:06 GMT-0500 (Central Daylight Time),160900.40000009537,A,trainenter,O,enter,400,1,2013.9000000953674,158886.5,7223,WL,A,2.0
1,5.271000146865845,learn,54728.999853134155,Fri Sep 12 2025 15:09:06 GMT-0500 (Central Daylight Time),161491.40000009537,A,f,O,f,568,1,590.7000000476837,160900.70000004768,7223,WL,A,3.0
1,5.386000156402588,learn,54613.99984359741,Fri Sep 12 2025 15:09:06 GMT-0500 (Central Daylight Time),161606.80000007153,A,fl,O,l,112,1,706.1000000238419,160900.70000004768,7223,WL,A,3.0
1,5.581000089645386,learn,54418.999910354614,Fri Sep 12 2025 15:09:06 GMT-0500 (Central Daylight Time),161801.80000007153,A,flo,O,o,182,1,901.1000000238419,160900.70000004768,7223,WL,A,3.0
1,5.71399998664856,learn,54286.00001335144,Fri Sep 12 2025 15:09:06 GMT-0500 (Central Daylight Time),161934.5,A,flow,O,w,124,1,1033.7999999523163,160900.70000004768,7223,WL,A,3.0
1,6.047000169754028,learn,53952.99983024597,Fri Sep 12 2025 15:09:06 GMT-0500 (Central Daylight Time),162267.70000004768,A,flowe,O,e,316,1,1367.0,160900.70000004768,7223,WL,A,3.0
1,6.1650002002716064,learn,53834.99979972839,Fri Sep 12 2025 15:09:06 GMT-0500 (Central Daylight Time),162385.40000009537,A,flower,O,r,104,1,1484.7000000476837,160900.70000004768,7223,WL,A,3.0
1,6.865000009536743,learn,53134.99999046326,Fri Sep 12 2025 15:09:06 GMT-0500 (Central Daylight Time),163085.30000007153,A,flowerenter,O,enter,677,1,2184.600000023842,160900.70000004768,7223,WL,A,3.0
1,7.231000185012817,learn,52768.99981498718,Fri Sep 12 2025 15:09:06 GMT-0500 (Central Daylight Time),163451.40000009537,A,m,O,m,351,1,365.8000000715256,163085.60000002384,7223,WL,A,4.0
1,7.430999994277954,learn,52569.000005722046,Fri Sep 12 2025 15:09:06 GMT-0500 (Central Daylight Time),163651.80000007153,A,me,O,e,183,1,566.2000000476837,163085.60000002384,7223,WL,A,4.0
1,7.698000192642212,learn,52301.99980735779,Fri Sep 12 2025 15:09:06 GMT-0500 (Central Daylight Time),163918.70000004768,A,met,O,t,249,1,833.1000000238419,163085.60000002384,7223,WL,A,4.0
1,7.88100004196167,learn,52118.99995803833,Fri Sep 12 2025 15:09:06 GMT-0500 (Central Daylight Time),164101.70000004768,A,meta,O,a,165,1,1016.1000000238419,163085.60000002384,7223,WL,A,4.0
1,8.046000003814697,learn,51953.9999961853,Fri Sep 12 2025 15:09:06 GMT-0500 (Central Daylight Time),164266.20000004768,A,metal,O,l,158,1,1180.6000000238419,163085.60000002384,7223,WL,A,4.0
1,8.480000019073486,learn,51519.999980926514,Fri Sep 12 2025 15:09:06 GMT-0500 (Central Daylight Time),164700.70000004768,A,metalenter,O,enter,427,1,1615.1000000238419,163085.60000002384,7223,WL,A,4.0
1,8.979000091552734,learn,51020.999908447266,Fri Sep 12 2025 15:09:06 GMT-0500 (Central Daylight Time),165199.90000009537,A,f,O,f,490,1,498.90000009536743,164701.0,7223,WL,A,5.0
1,9.097000122070312,learn,50902.99987792969,Fri Sep 12 2025 15:09:06 GMT-0500 (Central Daylight Time),165317.40000009537,A,fi,O,i,98,1,616.4000000953674,164701.0,7223,WL,A,5.0
1,9.279000043869019,learn,50720.99995613098,Fri Sep 12 2025 15:09:06 GMT-0500 (Central Daylight Time),165499.20000004768,A,fin,O,n,173,1,798.2000000476837,164701.0,7223,WL,A,5.0
1,9.51200008392334,learn,50487.99991607666,Fri Sep 12 2025 15:09:06 GMT-0500 (Central Daylight Time),165732.5,A,fing,O,g,218,1,1031.5,164701.0,7223,WL,A,5.0
1,9.76200008392334,learn,50237.99991607666,Fri Sep 12 2025 15:09:06 GMT-0500 (Central Daylight Time),165982.30000007153,A,finge,O,e,241,1,1281.3000000715256,164701.0,7223,WL,A,5.0
1,9.897000074386597,learn,50102.9999256134,Fri Sep 12 2025 15:09:06 GMT-0500 (Central Daylight Time),166117.70000004768,A,finger,O,r,120,1,1416.7000000476837,164701.0,7223,WL,A,5.0
1,10.347000122070312,learn,49652.99987792969,Fri Sep 12 2025 15:09:06 GMT-0500 (Central Daylight Time),166567.70000004768,A,fingerenter,O,enter,438,1,1866.7000000476837,164701.0,7223,WL,A,5.0
1,12.34600019454956,learn,47653.99980545044,Fri Sep 12 2025 15:09:06 GMT-0500 (Central Daylight Time),168566.0,A,r,O,r,1990,1,1998.0,166568.0,7223,WL,A,6.0
1,12.462000131607056,learn,47537.999868392944,Fri Sep 12 2025 15:09:06 GMT-0500 (Central Daylight Time),168682.0,A,ru,O,u,111,1,2114.0,166568.0,7223,WL,A,6.0
1,12.696000099182129,learn,47303.99990081787,Fri Sep 12 2025 15:09:06 GMT-0500 (Central Daylight Time),168916.80000007153,A,rug,O,g,213,1,2348.8000000715256,166568.0,7223,WL,A,6.0
1,13.146000146865845,learn,46853.999853134155,Fri Sep 12 2025 15:09:06 GMT-0500 (Central Daylight Time),169367.0,A,rugenter,O,enter,429,1,2799.0,166568.0,7223,WL,A,6.0
1,14.029000043869019,learn,45970.99995613098,Fri Sep 12 2025 15:09:06 GMT-0500 (Central Daylight Time),170249.5,A,a,O,a,877,1,882.1999999284744,169367.30000007153,7223,WL,A,7.0
1,14.17900013923645,learn,45820.99986076355,Fri Sep 12 2025 15:09:06 GMT-0500 (Central Daylight Time),170399.30000007153,A,ap,O,p,141,1,1032.0,169367.30000007153,7223,WL,A,7.0
1,14.412000179290771,learn,45587.99982070923,Fri Sep 12 2025 15:09:06 GMT-0500 (Central Daylight Time),170632.70000004768,A,app,O,p,212,1,1265.3999999761581,169367.30000007153,7223,WL,A,7.0
1,14.644999980926514,learn,45355.000019073486,Fri Sep 12 2025 15:09:06 GMT-0500 (Central Daylight Time),170865.70000004768,A,appl,O,l,220,1,1498.3999999761581,169367.30000007153,7223,WL,A,7.0
1,14.84500002861023,learn,45154.99997138977,Fri Sep 12 2025 15:09:06 GMT-0500 (Central Daylight Time),171065.60000002384,A,apple,O,e,188,1,1698.2999999523163,169367.30000007153,7223,WL,A,7.0
1,15.195000171661377,learn,44804.99982833862,Fri Sep 12 2025 15:09:06 GMT-0500 (Central Daylight Time),171415.5,A,appleenter,O,enter,338,1,2048.1999999284744,169367.30000007153,7223,WL,A,7.0
1,21.442000150680542,learn,38557.99984931946,Fri Sep 12 2025 15:09:06 GMT-0500 (Central Daylight Time),177663.90000009537,A,t,O,t,6239,1,6248.100000023842,171415.80000007153,7223,WL,A,8.0
1,21.676000118255615,learn,38323.999881744385,Fri Sep 12 2025 15:09:06 GMT-0500 (Central Daylight Time),177897.5,A,tr,O,r,213,1,6481.699999928474,171415.80000007153,7223,WL,A,8.0
1,21.875,learn,38125.0,Fri Sep 12 2025 15:09:06 GMT-0500 (Central Daylight Time),178096.20000004768,A,tra,O,a,178,1,6680.399999976158,171415.80000007153,7223,WL,A,8.0
1,22.04100012779236,learn,37958.99987220764,Fri Sep 12 2025 15:09:06 GMT-0500 (Central Daylight Time),178263.0,A,trai,O,i,148,1,6847.199999928474,171415.80000007153,7223,WL,A,8.0
1,22.27500009536743,learn,37724.99990463257,Fri Sep 12 2025 15:09:06 GMT-0500 (Central Daylight Time),178496.20000004768,A,train,O,n,222,1,7080.399999976158,171415.80000007153,7223,WL,A,8.0
1,22.725000143051147,learn,37274.99985694885,Fri Sep 12 2025 15:09:06 GMT-0500 (Central Daylight Time),178947.0,A,trainenter,O,enter,436,1,7531.199999928474,171415.80000007153,7223,WL,A,8.0
1,25.957000017166138,learn,34042.99998283386,Fri Sep 12 2025 15:09:06 GMT-0500 (Central Daylight Time),182179.0,A,d,O,d,3226,1,3231.6999999284744,178947.30000007153,7223,WL,A,9.0
1,26.558000087738037,learn,33441.99991226196,Fri Sep 12 2025 15:09:06 GMT-0500 (Central Daylight Time),182779.40000009537,A,,O,backspace,595,1,3832.100000023842,178947.30000007153,7223,WL,A,9.0
1,26.990000009536743,learn,33009.99999046326,Fri Sep 12 2025 15:09:06 GMT-0500 (Central Daylight Time),183211.30000007153,A,m,O,m,418,1,4264.0,178947.30000007153,7223,WL,A,9.0
1,27.140000104904175,learn,32859.999895095825,Fri Sep 12 2025 15:09:06 GMT-0500 (Central Daylight Time),183361.60000002384,A,md,O,d,139,1,4414.299999952316,178947.30000007153,7223,WL,A,9.0
1,27.342000007629395,learn,32657.999992370605,Fri Sep 12 2025 15:09:06 GMT-0500 (Central Daylight Time),183563.20000004768,A,mde,O,e,188,1,4615.899999976158,178947.30000007153,7223,WL,A,9.0
1,27.558000087738037,learn,32441.999912261963,Fri Sep 12 2025 15:09:06 GMT-0500 (Central Daylight Time),183779.40000009537,A,mdea,O,a,210,1,4832.100000023842,178947.30000007153,7223,WL,A,9.0
1,27.892000198364258,learn,32107.999801635742,Fri Sep 12 2025 15:09:06 GMT-0500 (Central Daylight Time),184113.20000004768,A,mde,O,backspace,321,1,5165.899999976158,178947.30000007153,7223,WL,A,9.0
1,28.040000200271606,learn,31959.999799728394,Fri Sep 12 2025 15:09:06 GMT-0500 (Central Daylight Time),184261.30000007153,A,md,O,backspace,142,1,5314.0,178947.30000007153,7223,WL,A,9.0
1,28.20800018310547,learn,31791.99981689453,Fri Sep 12 2025 15:09:06 GMT-0500 (Central Daylight Time),184429.60000002384,A,m,O,backspace,162,1,5482.299999952316,178947.30000007153,7223,WL,A,9.0
1,28.48900008201599,learn,31510.99991798401,Fri Sep 12 2025 15:09:06 GMT-0500 (Central Daylight Time),184710.80000007153,A,me,O,e,271,1,5763.5,178947.30000007153,7223,WL,A,9.0
1,28.938000202178955,learn,31061.999797821045,Fri Sep 12 2025 15:09:06 GMT-0500 (Central Daylight Time),185159.80000007153,A,med,O,d,428,1,6212.5,178947.30000007153,7223,WL,A,9.0
1,29.091000080108643,learn,30908.999919891357,Fri Sep 12 2025 15:09:06 GMT-0500 (Central Daylight Time),185312.10000002384,A,meda,O,a,136,1,6364.799999952316,178947.30000007153,7223,WL,A,9.0
1,29.23900008201599,learn,30760.99991798401,Fri Sep 12 2025 15:09:06 GMT-0500 (Central Daylight Time),185460.80000007153,A,medal,O,l,135,1,6513.5,178947.30000007153,7223,WL,A,9.0
1,29.938000202178955,learn,30061.999797821045,Fri Sep 12 2025 15:09:06 GMT-0500 (Central Daylight Time),186159.60000002384,A,medalenter,O,enter,685,1,7212.299999952316,178947.30000007153,7223,WL,A,9.0
1,40.70300006866455,learn,19296.99993133545,Fri Sep 12 2025 15:09:06 GMT-0500 (Central Daylight Time),196924.30000007153,A,c,O,c,10750,1,10764.399999976158,186159.90000009537,7223,WL,A,10.0
1,40.85300016403198,learn,19146.999835968018,Fri Sep 12 2025 15:09:06 GMT-0500 (Central Daylight Time),197074.80000007153,A,ch,O,h,136,1,10914.899999976158,186159.90000009537,7223,WL,A,10.0
1,41.07000017166138,learn,18929.999828338623,Fri Sep 12 2025 15:09:06 GMT-0500 (Central Daylight Time),197291.10000002384,A,chi,O,i,202,1,11131.199999928474,186159.90000009537,7223,WL,A,10.0
1,41.269999980926514,learn,18730.000019073486,Fri Sep 12 2025 15:09:06 GMT-0500 (Central Daylight Time),197492.0,A,chim,O,m,195,1,11332.099999904633,186159.90000009537,7223,WL,A,10.0
1,41.503000020980835,learn,18496.999979019165,Fri Sep 12 2025 15:09:06 GMT-0500 (Central Daylight Time),197724.40000009537,A,chimn,O,n,218,1,11564.5,186159.90000009537,7223,WL,A,10.0
1,41.63700008392334,learn,18362.99991607666,Fri Sep 12 2025 15:09:06 GMT-0500 (Central Daylight Time),197858.70000004768,A,chimne,O,e,126,1,11698.799999952316,186159.90000009537,7223,WL,A,10.0
1,41.78600001335144,learn,18213.99998664856,Fri Sep 12 2025 15:09:06 GMT-0500 (Central Daylight Time),198007.40000009537,A,chimney,O,y,131,1,11847.5,186159.90000009537,7223,WL,A,10.0
1,42.1010000705719,learn,17898.9999294281,Fri Sep 12 2025 15:09:06 GMT-0500 (Central Daylight Time),198322.80000007153,A,chimneyenter,O,enter,307,1,12162.899999976158,186159.90000009537,7223,WL,A,10.0
1,46.73400020599365,learn,13265.999794006348,Fri Sep 12 2025 15:09:06 GMT-0500 (Central Daylight Time),202955.90000009537,A,f,O,f,4618,1,4632.800000071526,198323.10000002384,7223,WL,A,11.0
1,46.85000014305115,learn,13149.999856948853,Fri Sep 12 2025 15:09:06 GMT-0500 (Central Daylight Time),203071.90000009537,A,fi,O,i,95,1,4748.800000071526,198323.10000002384,7223,WL,A,11.0
1,47.051000118255615,learn,12948.999881744385,Fri Sep 12 2025 15:09:06 GMT-0500 (Central Daylight Time),203272.20000004768,A,fin,O,n,187,1,4949.100000023842,198323.10000002384,7223,WL,A,11.0
1,47.18400001525879,learn,12815.999984741211,Fri Sep 12 2025 15:09:06 GMT-0500 (Central Daylight Time),203405.60000002384,A,fing,O,g,111,1,5082.5,198323.10000002384,7223,WL,A,11.0
1,47.3510000705719,learn,12648.9999294281,Fri Sep 12 2025 15:09:06 GMT-0500 (Central Daylight Time),203572.10000002384,A,finge,O,e,160,1,5249.0,198323.10000002384,7223,WL,A,11.0
1,47.45100021362305,learn,12548.999786376953,Fri Sep 12 2025 15:09:06 GMT-0500 (Central Daylight Time),203672.10000002384,A,finger,O,r,88,1,5349.0,198323.10000002384,7223,WL,A,11.0
1,47.60000014305115,learn,12399.999856948853,Fri Sep 12 2025 15:09:06 GMT-0500 (Central Daylight Time),203821.40000009537,A,fingerenter,O,enter,132,1,5498.300000071526,198323.10000002384,7223,WL,A,11.0
1,60.01300001144409,learn,-13.000011444091797,Fri Sep 12 2025 15:09:06 GMT-0500 (Central Daylight Time),216234.70000004768,A,None,O,None,12408,1,12413.0,203821.70000004768,7223,WL,A,12.0
2,0.7000000476837158,learn,59299.999952316284,Fri Sep 12 2025 15:09:06 GMT-0500 (Central Daylight Time),286978.90000009537,A,b,O,b,687,1,699.7000000476837,286279.2000000477,7223,WL,A,1.0
2,0.9500000476837158,learn,59049.999952316284,Fri Sep 12 2025 15:09:06 GMT-0500 (Central Daylight Time),287228.10000002384,A,bo,O,o,244,1,948.8999999761581,286279.2000000477,7223,WL,A,1.0
2,1.133000135421753,learn,58866.99986457825,Fri Sep 12 2025 15:09:06 GMT-0500 (Central Daylight Time),287412.0,A,boo,O,o,170,1,1132.7999999523163,286279.2000000477,7223,WL,A,1.0
2,1.3500001430511475,learn,58649.99985694885,Fri Sep 12 2025 15:09:06 GMT-0500 (Central Daylight Time),287628.3000000715,A,book,O,k,199,1,1349.1000000238419,286279.2000000477,7223,WL,A,1.0
2,2.1010000705718994,learn,57898.9999294281,Fri Sep 12 2025 15:09:06 GMT-0500 (Central Daylight Time),288379.5,A,bookenter,O,enter,729,1,2100.2999999523163,286279.2000000477,7223,WL,A,1.0
2,2.449000120162964,learn,57550.999879837036,Fri Sep 12 2025 15:09:06 GMT-0500 (Central Daylight Time),288728.0,A,f,O,f,329,1,348.2999999523163,288379.7000000477,7223,WL,A,2.0
2,2.517000198364258,learn,57482.99980163574,Fri Sep 12 2025 15:09:06 GMT-0500 (Central Daylight Time),288795.60000002384,A,fl,O,l,61,1,415.89999997615814,288379.7000000477,7223,WL,A,2.0
2,2.7170000076293945,learn,57282.999992370605,Fri Sep 12 2025 15:09:06 GMT-0500 (Central Daylight Time),288995.90000009537,A,flo,O,o,194,1,616.2000000476837,288379.7000000477,7223,WL,A,2.0
2,2.883000135421753,learn,57116.99986457825,Fri Sep 12 2025 15:09:06 GMT-0500 (Central Daylight Time),289161.90000009537,A,flow,O,w,145,1,782.2000000476837,288379.7000000477,7223,WL,A,2.0
2,3.0320000648498535,learn,56967.99993515015,Fri Sep 12 2025 15:09:06 GMT-0500 (Central Daylight Time),289310.60000002384,A,flowe,O,e,140,1,930.8999999761581,288379.7000000477,7223,WL,A,2.0
2,3.1500000953674316,learn,56849.99990463257,Fri Sep 12 2025 15:09:06 GMT-0500 (Central Daylight Time),289429.0,A,flower,O,r,113,1,1049.2999999523163,288379.7000000477,7223,WL,A,2.0
2,3.4820001125335693,learn,56517.99988746643,Fri Sep 12 2025 15:09:06 GMT-0500 (Central Daylight Time),289760.8000000715,A,flowerenter,O,enter,319,1,1381.1000000238419,288379.7000000477,7223,WL,A,2.0
2,3.815000057220459,learn,56184.99994277954,Fri Sep 12 2025 15:09:06 GMT-0500 (Central Daylight Time),290093.8000000715,A,t,O,t,317,1,332.7000000476837,289761.10000002384,7223,WL,A,3.0
2,4.016000032424927,learn,55983.99996757507,Fri Sep 12 2025 15:09:06 GMT-0500 (Central Daylight Time),290294.10000002384,A,tr,O,r,181,1,533.0,289761.10000002384,7223,WL,A,3.0
2,4.182000160217285,learn,55817.999839782715,Fri Sep 12 2025 15:09:06 GMT-0500 (Central Daylight Time),290460.40000009537,A,tra,O,a,149,1,699.3000000715256,289761.10000002384,7223,WL,A,3.0
2,4.299000024795532,learn,55700.99997520447,Fri Sep 12 2025 15:09:06 GMT-0500 (Central Daylight Time),290577.10000002384,A,trai,O,i,104,1,816.0,289761.10000002384,7223,WL,A,3.0
2,4.499000072479248,learn,55500.99992752075,Fri Sep 12 2025 15:09:06 GMT-0500 (Central Daylight Time),290777.8000000715,A,train,O,n,184,1,1016.7000000476837,289761.10000002384,7223,WL,A,3.0
2,4.965000152587891,learn,55034.99984741211,Fri Sep 12 2025 15:09:06 GMT-0500 (Central Daylight Time),291243.60000002384,A,trainenter,O,enter,459,1,1482.5,289761.10000002384,7223,WL,A,3.0
2,5.815000057220459,learn,54184.99994277954,Fri Sep 12 2025 15:09:06 GMT-0500 (Central Daylight Time),292093.8000000715,A,r,O,r,841,1,849.8000000715256,291244.0,7223,WL,A,4.0
2,5.948000192642212,learn,54051.99980735779,Fri Sep 12 2025 15:09:06 GMT-0500 (Central Daylight Time),292226.5,A,ru,O,u,120,1,982.5,291244.0,7223,WL,A,4.0
2,6.315999984741211,learn,53684.00001525879,Fri Sep 12 2025 15:09:06 GMT-0500 (Central Daylight Time),292594.40000009537,A,rug,O,g,346,1,1350.4000000953674,291244.0,7223,WL,A,4.0
2,6.934000015258789,learn,53065.99998474121,Fri Sep 12 2025 15:09:06 GMT-0500 (Central Daylight Time),293212.10000002384,A,rugenter,O,enter,610,1,1968.1000000238419,291244.0,7223,WL,A,4.0
2,7.331000089645386,learn,52668.999910354614,Fri Sep 12 2025 15:09:06 GMT-0500 (Central Daylight Time),293609.8000000715,A,m,O,m,386,1,397.39999997615814,293212.40000009537,7223,WL,A,5.0
2,7.414000034332275,learn,52585.999965667725,Fri Sep 12 2025 15:09:06 GMT-0500 (Central Daylight Time),293693.0,A,me,O,e,75,1,480.59999990463257,293212.40000009537,7223,WL,A,5.0
2,7.71399998664856,learn,52286.00001335144,Fri Sep 12 2025 15:09:06 GMT-0500 (Central Daylight Time),293992.90000009537,A,mea,O,a,279,1,780.5,293212.40000009537,7223,WL,A,5.0
2,8.199000120162964,learn,51800.999879837036,Fri Sep 12 2025 15:09:06 GMT-0500 (Central Daylight Time),294477.90000009537,A,mead,O,d,479,1,1265.5,293212.40000009537,7223,WL,A,5.0
2,8.331000089645386,learn,51668.999910354614,Fri Sep 12 2025 15:09:06 GMT-0500 (Central Daylight Time),294609.3000000715,A,meado,O,o,116,1,1396.8999999761581,293212.40000009537,7223,WL,A,5.0
2,8.514000177383423,learn,51485.99982261658,Fri Sep 12 2025 15:09:06 GMT-0500 (Central Daylight Time),294792.40000009537,A,meadow,O,w,171,1,1580.0,293212.40000009537,7223,WL,A,5.0
2,8.981000185012817,learn,51018.99981498718,Fri Sep 12 2025 15:09:06 GMT-0500 (Central Daylight Time),295259.60000002384,A,meadowenter,O,enter,461,1,2047.1999999284744,293212.40000009537,7223,WL,A,5.0
2,9.366000175476074,learn,50633.999824523926,Fri Sep 12 2025 15:09:06 GMT-0500 (Central Daylight Time),295644.60000002384,A,l,O,l,379,1,384.6999999284744,295259.90000009537,7223,WL,A,6.0
2,9.564000129699707,learn,50435.99987030029,Fri Sep 12 2025 15:09:06 GMT-0500 (Central Daylight Time),295843.0,A,lo,O,o,182,1,583.0999999046326,295259.90000009537,7223,WL,A,6.0
2,9.781000137329102,learn,50218.9998626709,Fri Sep 12 2025 15:09:06 GMT-0500 (Central Daylight Time),296059.7000000477,A,lon,O,n,203,1,799.7999999523163,295259.90000009537,7223,WL,A,6.0
2,10.230000019073486,learn,49769.999980926514,Fri Sep 12 2025 15:09:06 GMT-0500 (Central Daylight Time),296508.7000000477,A,lo,O,backspace,433,1,1248.7999999523163,295259.90000009537,7223,WL,A,6.0
2,10.396000146865845,learn,49603.999853134155,Fri Sep 12 2025 15:09:06 GMT-0500 (Central Daylight Time),296674.8000000715,A,log,O,g,161,1,1414.8999999761581,295259.90000009537,7223,WL,A,6.0
2,10.978000164031982,learn,49021.99983596802,Fri Sep 12 2025 15:09:06 GMT-0500 (Central Daylight Time),297257.40000009537,A,logenter,O,enter,571,1,1997.5,295259.90000009537,7223,WL,A,6.0
2,11.46399998664856,learn,48536.00001335144,Fri Sep 12 2025 15:09:06 GMT-0500 (Central Daylight Time),297743.3000000715,A,b,O,b,468,1,485.7000000476837,297257.60000002384,7223,WL,A,7.0
2,11.713000059127808,learn,48286.99994087219,Fri Sep 12 2025 15:09:06 GMT-0500 (Central Daylight Time),297991.90000009537,A,bu,O,u,227,1,734.3000000715256,297257.60000002384,7223,WL,A,7.0
2,11.915000200271606,learn,48084.99979972839,Fri Sep 12 2025 15:09:06 GMT-0500 (Central Daylight Time),298193.8000000715,A,but,O,t,178,1,936.2000000476837,297257.60000002384,7223,WL,A,7.0
2,12.078999996185303,learn,47921.0000038147,Fri Sep 12 2025 15:09:06 GMT-0500 (Central Daylight Time),298358.5,A,butt,O,t,146,1,1100.8999999761581,297257.60000002384,7223,WL,A,7.0
2,12.19700002670288,learn,47802.99997329712,Fri Sep 12 2025 15:09:06 GMT-0500 (Central Daylight Time),298475.90000009537,A,butto,O,o,101,1,1218.3000000715256,297257.60000002384,7223,WL,A,7.0
2,12.413000106811523,learn,47586.99989318848,Fri Sep 12 2025 15:09:06 GMT-0500 (Central Daylight Time),298692.0,A,button,O,n,209,1,1434.3999999761581,297257.60000002384,7223,WL,A,7.0
2,12.698000192642212,learn,47301.99980735779,Fri Sep 12 2025 15:09:06 GMT-0500 (Central Daylight Time),298976.8000000715,A,buttonenter,O,enter,271,1,1719.2000000476837,297257.60000002384,7223,WL,A,7.0
2,15.195000171661377,learn,44804.99982833862,Fri Sep 12 2025 15:09:06 GMT-0500 (Central Daylight Time),301474.10000002384,A,c,O,c,2476,1,2497.0,298977.10000002384,7223,WL,A,8.0
2,15.29800009727478,learn,44701.99990272522,Fri Sep 12 2025 15:09:06 GMT-0500 (Central Daylight Time),301577.2000000477,A,ch,O,h,81,1,2600.100000023842,298977.10000002384,7223,WL,A,8.0
2,15.478000164031982,learn,44521.99983596802,Fri Sep 12 2025 15:09:06 GMT-0500 (Central Daylight Time),301757.2000000477,A,chi,O,i,172,1,2780.100000023842,298977.10000002384,7223,WL,A,8.0
2,15.695000171661377,learn,44304.99982833862,Fri Sep 12 2025 15:09:06 GMT-0500 (Central Daylight Time),301974.40000009537,A,chim,O,m,198,1,2997.3000000715256,298977.10000002384,7223,WL,A,8.0
2,16.295000076293945,learn,43704.999923706055,Fri Sep 12 2025 15:09:06 GMT-0500 (Central Daylight Time),302574.2000000477,A,chimn,O,n,589,1,3597.100000023842,298977.10000002384,7223,WL,A,8.0
2,16.430000066757202,learn,43569.9999332428,Fri Sep 12 2025 15:09:06 GMT-0500 (Central Daylight Time),302712.3000000715,A,chimne,O,e,128,1,3735.2000000476837,298977.10000002384,7223,WL,A,8.0
2,17.24400019645691,learn,42755.99980354309,Fri Sep 12 2025 15:09:06 GMT-0500 (Central Daylight Time),303523.5,A,chimney,O,y,799,1,4546.399999976158,298977.10000002384,7223,WL,A,8.0
2,17.84500002861023,learn,42154.99997138977,Fri Sep 12 2025 15:09:06 GMT-0500 (Central Daylight Time),304123.90000009537,A,chimneyenter,O,enter,586,1,5146.800000071526,298977.10000002384,7223,WL,A,8.0
2,18.14400005340576,learn,41855.99994659424,Fri Sep 12 2025 15:09:06 GMT-0500 (Central Daylight Time),304423.10000002384,A,s,O,s,282,1,299.0,304124.10000002384,7223,WL,A,9.0
2,18.311000108718872,learn,41688.99989128113,Fri Sep 12 2025 15:09:06 GMT-0500 (Central Daylight Time),304589.8000000715,A,sa,O,a,149,1,465.7000000476837,304124.10000002384,7223,WL,A,9.0
2,18.41100001335144,learn,41588.99998664856,Fri Sep 12 2025 15:09:06 GMT-0500 (Central Daylight Time),304689.8000000715,A,sal,O,l,78,1,565.7000000476837,304124.10000002384,7223,WL,A,9.0
2,18.728000164031982,learn,41271.99983596802,Fri Sep 12 2025 15:09:06 GMT-0500 (Central Daylight Time),305007.10000002384,A,salt,O,t,298,1,883.0,304124.10000002384,7223,WL,A,9.0
2,18.91000008583069,learn,41089.99991416931,Fri Sep 12 2025 15:09:06 GMT-0500 (Central Daylight Time),305188.8000000715,A,saltenter,O,enter,172,1,1064.7000000476837,304124.10000002384,7223,WL,A,9.0
2,22.377000093460083,learn,37622.99990653992,Fri Sep 12 2025 15:09:06 GMT-0500 (Central Daylight Time),308655.5,A,r,O,r,3461,1,3466.399999976158,305189.10000002384,7223,WL,A,10.0
2,22.592000007629395,learn,37407.999992370605,Fri Sep 12 2025 15:09:06 GMT-0500 (Central Daylight Time),308871.2000000477,A,ra,O,a,197,1,3682.100000023842,305189.10000002384,7223,WL,A,10.0
2,22.742000102996826,learn,37257.999897003174,Fri Sep 12 2025 15:09:06 GMT-0500 (Central Daylight Time),309021.40000009537,A,rat,O,t,139,1,3832.3000000715256,305189.10000002384,7223,WL,A,10.0
2,22.960000038146973,learn,37039.99996185303,Fri Sep 12 2025 15:09:06 GMT-0500 (Central Daylight Time),309239.5,A,ratt,O,t,208,1,4050.399999976158,305189.10000002384,7223,WL,A,10.0
2,23.259000062942505,learn,36740.999937057495,Fri Sep 12 2025 15:09:06 GMT-0500 (Central Daylight Time),309538.2000000477,A,rattl,O,l,278,1,4349.100000023842,305189.10000002384,7223,WL,A,10.0
2,23.39300012588501,learn,36606.99987411499,Fri Sep 12 2025 15:09:06 GMT-0500 (Central Daylight Time),309672.0,A,rattle,O,e,121,1,4482.899999976158,305189.10000002384,7223,WL,A,10.0
2,23.54200005531311,learn,36457.99994468689,Fri Sep 12 2025 15:09:06 GMT-0500 (Central Daylight Time),309821.0,A,rattleenter,O,enter,124,1,4631.899999976158,305189.10000002384,7223,WL,A,10.0
2,39.13700008392334,learn,20862.99991607666,Fri Sep 12 2025 15:09:06 GMT-0500 (Central Daylight Time),325416.3000000715,A,h,O,h,15576,1,15595.100000023842,309821.2000000477,7223,WL,A,11.0
2,39.22000002861023,learn,20779.99997138977,Fri Sep 12 2025 15:09:06 GMT-0500 (Central Daylight Time),325499.40000009537,A,ha,O,a,66,1,15678.200000047684,309821.2000000477,7223,WL,A,11.0
2,39.37100005149841,learn,20628.999948501587,Fri Sep 12 2025 15:09:06 GMT-0500 (Central Daylight Time),325650.0,A,har,O,r,129,1,15828.799999952316,309821.2000000477,7223,WL,A,11.0
2,39.504000186920166,learn,20495.999813079834,Fri Sep 12 2025 15:09:06 GMT-0500 (Central Daylight Time),325782.5,A,harp,O,p,115,1,15961.299999952316,309821.2000000477,7223,WL,A,11.0
2,39.78800010681152,learn,20211.999893188477,Fri Sep 12 2025 15:09:06 GMT-0500 (Central Daylight Time),326067.40000009537,A,harpenter,O,enter,277,1,16246.200000047684,309821.2000000477,7223,WL,A,11.0
2,44.15300011634827,learn,15846.999883651733,Fri Sep 12 2025 15:09:06 GMT-0500 (Central Daylight Time),330432.10000002384,A,l,O,l,4345,1,4364.5,326067.60000002384,7223,WL,A,12.0
2,44.33500003814697,learn,15664.999961853027,Fri Sep 12 2025 15:09:06 GMT-0500 (Central Daylight Time),330613.90000009537,A,lo,O,o,161,1,4546.300000071526,326067.60000002384,7223,WL,A,12.0
2,44.46900010108948,learn,15530.999898910522,Fri Sep 12 2025 15:09:06 GMT-0500 (Central Daylight Time),330747.8000000715,A,log,O,g,118,1,4680.200000047684,326067.60000002384,7223,WL,A,12.0
2,44.60199999809265,learn,15398.000001907349,Fri Sep 12 2025 15:09:06 GMT-0500 (Central Daylight Time),330881.3000000715,A,logenter,O,enter,117,1,4813.700000047684,326067.60000002384,7223,WL,A,12.0
2,60.01400017738342,learn,-14.000177383422852,Fri Sep 12 2025 15:09:06 GMT-0500 (Central Daylight Time),346293.0,A,None,O,None,15407,1,15411.5,330881.5,7223,WL,A,13.0
3,0.9690001010894775,learn,59030.99989891052,Fri Sep 12 2025 15:09:06 GMT-0500 (Central Daylight Time),424853.5,A,r,O,r,961,1,967.8999999761581,423885.60000002384,7223,WL,A,1.0
3,1.183000087738037,learn,58816.99991226196,Fri Sep 12 2025 15:09:06 GMT-0500 (Central Daylight Time),425067.40000009537,A,ru,O,u,199,1,1181.8000000715256,423885.60000002384,7223,WL,A,1.0
3,1.5170001983642578,learn,58482.99980163574,Fri Sep 12 2025 15:09:06 GMT-0500 (Central Daylight Time),425402.2000000477,A,rug,O,g,312,1,1516.6000000238419,423885.60000002384,7223,WL,A,1.0
3,2.315999984741211,learn,57684.00001525879,Fri Sep 12 2025 15:09:06 GMT-0500 (Central Daylight Time),426201.10000002384,A,rugenter,O,enter,776,1,2315.5,423885.60000002384,7223,WL,A,1.0
3,2.683000087738037,learn,57316.99991226196,Fri Sep 12 2025 15:09:06 GMT-0500 (Central Daylight Time),426567.90000009537,A,a,O,a,356,1,366.5,426201.40000009537,7223,WL,A,2.0
3,2.7990000247955322,learn,57200.99997520447,Fri Sep 12 2025 15:09:06 GMT-0500 (Central Daylight Time),426683.60000002384,A,ap,O,p,102,1,482.1999999284744,426201.40000009537,7223,WL,A,2.0
3,3.0160000324249268,learn,56983.99996757507,Fri Sep 12 2025 15:09:06 GMT-0500 (Central Daylight Time),426900.7000000477,A,app,O,p,201,1,699.2999999523163,426201.40000009537,7223,WL,A,2.0
3,3.3000001907348633,learn,56699.99980926514,Fri Sep 12 2025 15:09:06 GMT-0500 (Central Daylight Time),427184.90000009537,A,appl,O,l,271,1,983.5,426201.40000009537,7223,WL,A,2.0
3,3.449000120162964,learn,56550.999879837036,Fri Sep 12 2025 15:09:06 GMT-0500 (Central Daylight Time),427333.60000002384,A,apple,O,e,141,1,1132.1999999284744,426201.40000009537,7223,WL,A,2.0
3,4.448000192642212,learn,55551.99980735779,Fri Sep 12 2025 15:09:06 GMT-0500 (Central Daylight Time),428333.10000002384,A,appleenter,O,enter,990,1,2131.6999999284744,426201.40000009537,7223,WL,A,2.0
3,6.200000047683716,learn,53799.999952316284,Fri Sep 12 2025 15:09:06 GMT-0500 (Central Daylight Time),430085.2000000477,A,b,O,b,1747,1,1751.8999999761581,428333.3000000715,7223,WL,A,3.0
3,6.5,learn,53500.0,Fri Sep 12 2025 15:09:06 GMT-0500 (Central Daylight Time),430385.0,A,bo,O,o,288,1,2051.6999999284744,428333.3000000715,7223,WL,A,3.0
3,7.014000177383423,learn,52985.99982261658,Fri Sep 12 2025 15:09:06 GMT-0500 (Central Daylight Time),430899.10000002384,A,boo,O,o,492,1,2565.7999999523163,428333.3000000715,7223,WL,A,3.0
3,7.380000114440918,learn,52619.99988555908,Fri Sep 12 2025 15:09:06 GMT-0500 (Central Daylight Time),431265.2000000477,A,book,O,k,352,1,2931.899999976158,428333.3000000715,7223,WL,A,3.0
3,8.86300015449524,learn,51136.99984550476,Fri Sep 12 2025 15:09:06 GMT-0500 (Central Daylight Time),432747.7000000477,A,bookenter,O,enter,1469,1,4414.399999976158,428333.3000000715,7223,WL,A,3.0
3,9.432000160217285,learn,50567.999839782715,Fri Sep 12 2025 15:09:06 GMT-0500 (Central Daylight Time),433316.40000009537,A,m,O,m,563,1,568.5,432747.90000009537,7223,WL,A,4.0
3,9.581000089645386,learn,50418.999910354614,Fri Sep 12 2025 15:09:06 GMT-0500 (Central Daylight Time),433465.90000009537,A,me,O,e,127,1,718.0,432747.90000009537,7223,WL,A,4.0
3,9.848000049591064,learn,50151.999950408936,Fri Sep 12 2025 15:09:06 GMT-0500 (Central Daylight Time),433733.10000002384,A,med,O,d,259,1,985.1999999284744,432747.90000009537,7223,WL,A,4.0
3,10.180999994277954,learn,49819.000005722046,Fri Sep 12 2025 15:09:06 GMT-0500 (Central Daylight Time),434066.3000000715,A,meda,O,a,310,1,1318.3999999761581,432747.90000009537,7223,WL,A,4.0
3,10.614000082015991,learn,49385.99991798401,Fri Sep 12 2025 15:09:06 GMT-0500 (Central Daylight Time),434499.0,A,med,O,backspace,408,1,1751.0999999046326,432747.90000009537,7223,WL,A,4.0
3,10.779000043869019,learn,49220.99995613098,Fri Sep 12 2025 15:09:06 GMT-0500 (Central Daylight Time),434664.40000009537,A,me,O,backspace,145,1,1916.5,432747.90000009537,7223,WL,A,4.0
3,10.897000074386597,learn,49102.9999256134,Fri Sep 12 2025 15:09:06 GMT-0500 (Central Daylight Time),434781.5,A,mea,O,a,108,1,2033.5999999046326,432747.90000009537,7223,WL,A,4.0
3,11.031000137329102,learn,48968.9998626709,Fri Sep 12 2025 15:09:06 GMT-0500 (Central Daylight Time),434915.60000002384,A,mead,O,d,128,1,2167.6999999284744,432747.90000009537,7223,WL,A,4.0
3,11.246999979019165,learn,48753.000020980835,Fri Sep 12 2025 15:09:06 GMT-0500 (Central Daylight Time),435132.0,A,meado,O,o,200,1,2384.0999999046326,432747.90000009537,7223,WL,A,4.0
3,11.728000164031982,learn,48271.99983596802,Fri Sep 12 2025 15:09:06 GMT-0500 (Central Daylight Time),435613.2000000477,A,meadow,O,w,465,1,2865.2999999523163,432747.90000009537,7223,WL,A,4.0
3,12.147000074386597,learn,47852.9999256134,Fri Sep 12 2025 15:09:06 GMT-0500 (Central Daylight Time),436031.7000000477,A,meadowenter,O,enter,410,1,3283.7999999523163,432747.90000009537,7223,WL,A,4.0
3,13.04800009727478,learn,46951.99990272522,Fri Sep 12 2025 15:09:06 GMT-0500 (Central Daylight Time),436932.5,A,t,O,t,895,1,900.3999999761581,436032.10000002384,7223,WL,A,5.0
3,13.263000011444092,learn,46736.99998855591,Fri Sep 12 2025 15:09:06 GMT-0500 (Central Daylight Time),437148.3000000715,A,tr,O,r,209,1,1116.2000000476837,436032.10000002384,7223,WL,A,5.0
3,13.430999994277954,learn,46569.000005722046,Fri Sep 12 2025 15:09:06 GMT-0500 (Central Daylight Time),437315.5,A,tra,O,a,159,1,1283.3999999761581,436032.10000002384,7223,WL,A,5.0
3,13.529000043869019,learn,46470.99995613098,Fri Sep 12 2025 15:09:06 GMT-0500 (Central Daylight Time),437414.3000000715,A,trai,O,i,90,1,1382.2000000476837,436032.10000002384,7223,WL,A,5.0
3,13.763000011444092,learn,46236.99998855591,Fri Sep 12 2025 15:09:06 GMT-0500 (Central Daylight Time),437647.90000009537,A,train,O,n,214,1,1615.8000000715256,436032.10000002384,7223,WL,A,5.0
3,14.163000106811523,learn,45836.99989318848,Fri Sep 12 2025 15:09:06 GMT-0500 (Central Daylight Time),438047.90000009537,A,trainenter,O,enter,389,1,2015.8000000715256,436032.10000002384,7223,WL,A,5.0
3,14.547000169754028,learn,45452.99983024597,Fri Sep 12 2025 15:09:06 GMT-0500 (Central Daylight Time),438431.8000000715,A,r,O,r,366,1,383.60000002384186,438048.2000000477,7223,WL,A,6.0
3,14.646000146865845,learn,45353.999853134155,Fri Sep 12 2025 15:09:06 GMT-0500 (Central Daylight Time),438530.5,A,ru,O,u,85,1,482.2999999523163,438048.2000000477,7223,WL,A,6.0
3,15.046000003814697,learn,44953.9999961853,Fri Sep 12 2025 15:09:06 GMT-0500 (Central Daylight Time),438930.90000009537,A,rug,O,g,377,1,882.7000000476837,438048.2000000477,7223,WL,A,6.0
3,16.3270001411438,learn,43672.9998588562,Fri Sep 12 2025 15:09:06 GMT-0500 (Central Daylight Time),440211.8000000715,A,rugenter,O,enter,1265,1,2163.600000023842,438048.2000000477,7223,WL,A,6.0
3,20.593000173568726,learn,39406.999826431274,Fri Sep 12 2025 15:09:06 GMT-0500 (Central Daylight Time),444477.8000000715,A,f,O,f,4249,1,4265.700000047684,440212.10000002384,7223,WL,A,7.0
3,20.710000038146973,learn,39289.99996185303,Fri Sep 12 2025 15:09:06 GMT-0500 (Central Daylight Time),444595.40000009537,A,fi,O,i,103,1,4383.300000071526,440212.10000002384,7223,WL,A,7.0
3,20.927000045776367,learn,39072.99995422363,Fri Sep 12 2025 15:09:06 GMT-0500 (Central Daylight Time),444811.40000009537,A,fin,O,n,202,1,4599.300000071526,440212.10000002384,7223,WL,A,7.0
3,21.0770001411438,learn,38922.9998588562,Fri Sep 12 2025 15:09:06 GMT-0500 (Central Daylight Time),444962.2000000477,A,fing,O,g,143,1,4750.100000023842,440212.10000002384,7223,WL,A,7.0
3,21.47699999809265,learn,38523.00000190735,Fri Sep 12 2025 15:09:06 GMT-0500 (Central Daylight Time),445362.3000000715,A,finge,O,e,378,1,5150.200000047684,440212.10000002384,7223,WL,A,7.0
3,21.575999975204468,learn,38424.00002479553,Fri Sep 12 2025 15:09:06 GMT-0500 (Central Daylight Time),445461.3000000715,A,finger,O,r,89,1,5249.200000047684,440212.10000002384,7223,WL,A,7.0
3,21.861000061035156,learn,38138.999938964844,Fri Sep 12 2025 15:09:06 GMT-0500 (Central Daylight Time),445745.40000009537,A,fingerenter,O,enter,271,1,5533.300000071526,440212.10000002384,7223,WL,A,7.0
3,22.093000173568726,learn,37906.999826431274,Fri Sep 12 2025 15:09:06 GMT-0500 (Central Daylight Time),445978.10000002384,A,a,O,a,212,1,232.39999997615814,445745.7000000477,7223,WL,A,8.0
3,22.259999990463257,learn,37740.00000953674,Fri Sep 12 2025 15:09:06 GMT-0500 (Central Daylight Time),446144.60000002384,A,ap,O,p,153,1,398.89999997615814,445745.7000000477,7223,WL,A,8.0
3,22.526000022888184,learn,37473.99997711182,Fri Sep 12 2025 15:09:06 GMT-0500 (Central Daylight Time),446411.10000002384,A,app,O,p,253,1,665.3999999761581,445745.7000000477,7223,WL,A,8.0
3,22.927000045776367,learn,37072.99995422363,Fri Sep 12 2025 15:09:06 GMT-0500 (Central Daylight Time),446811.90000009537,A,appl,O,l,385,1,1066.2000000476837,445745.7000000477,7223,WL,A,8.0
3,23.343000173568726,learn,36656.999826431274,Fri Sep 12 2025 15:09:06 GMT-0500 (Central Daylight Time),447227.60000002384,A,apple,O,e,401,1,1481.8999999761581,445745.7000000477,7223,WL,A,8.0
3,23.676000118255615,learn,36323.999881744385,Fri Sep 12 2025 15:09:06 GMT-0500 (Central Daylight Time),447560.60000002384,A,appleenter,O,enter,314,1,1814.8999999761581,445745.7000000477,7223,WL,A,8.0
3,24.692000150680542,learn,35307.99984931946,Fri Sep 12 2025 15:09:06 GMT-0500 (Central Daylight Time),448576.90000009537,A,l,O,l,995,1,1015.9000000953674,447561.0,7223,WL,A,9.0
3,24.841000080108643,learn,35158.99991989136,Fri Sep 12 2025 15:09:06 GMT-0500 (Central Daylight Time),448726.2000000477,A,lo,O,o,137,1,1165.2000000476837,447561.0,7223,WL,A,9.0
3,25.04200005531311,learn,34957.99994468689,Fri Sep 12 2025 15:09:06 GMT-0500 (Central Daylight Time),448927.0,A,log,O,g,186,1,1366.0,447561.0,7223,WL,A,9.0
3,25.225000143051147,learn,34774.99985694885,Fri Sep 12 2025 15:09:06 GMT-0500 (Central Daylight Time),449109.8000000715,A,logenter,O,enter,172,1,1548.8000000715256,447561.0,7223,WL,A,9.0
3,26.19099998474121,learn,33809.00001525879,Fri Sep 12 2025 15:09:06 GMT-0500 (Central Daylight Time),450075.90000009537,A,g,O,g,959,1,965.8000000715256,449110.10000002384,7223,WL,A,10.0
3,26.35800004005432,learn,33641.99995994568,Fri Sep 12 2025 15:09:06 GMT-0500 (Central Daylight Time),450242.5,A,go,O,o,138,1,1132.3999999761581,449110.10000002384,7223,WL,A,10.0
3,26.54100012779236,learn,33458.99987220764,Fri Sep 12 2025 15:09:06 GMT-0500 (Central Daylight Time),450425.7000000477,A,gol,O,l,175,1,1315.6000000238419,449110.10000002384,7223,WL,A,10.0
3,26.675000190734863,learn,33324.99980926514,Fri Sep 12 2025 15:09:06 GMT-0500 (Central Daylight Time),450559.7000000477,A,gold,O,d,116,1,1449.6000000238419,449110.10000002384,7223,WL,A,10.0
3,26.824000120162964,learn,33175.999879837036,Fri Sep 12 2025 15:09:06 GMT-0500 (Central Daylight Time),450708.7000000477,A,goldenter,O,enter,137,1,1598.6000000238419,449110.10000002384,7223,WL,A,10.0
3,31.44000005722046,learn,28559.99994277954,Fri Sep 12 2025 15:09:06 GMT-0500 (Central Daylight Time),455325.0,A,k,O,k,4595,1,4616.0,450709.0,7223,WL,A,11.0
3,31.67300009727478,learn,28326.99990272522,Fri Sep 12 2025 15:09:06 GMT-0500 (Central Daylight Time),455558.3000000715,A,ke,O,e,215,1,4849.300000071526,450709.0,7223,WL,A,11.0
3,31.77300000190735,learn,28226.99999809265,Fri Sep 12 2025 15:09:06 GMT-0500 (Central Daylight Time),455657.5,A,key,O,y,76,1,4948.5,450709.0,7223,WL,A,11.0
3,32.055999994277954,learn,27944.000005722046,Fri Sep 12 2025 15:09:06 GMT-0500 (Central Daylight Time),455941.40000009537,A,keyenter,O,enter,271,1,5232.400000095367,450709.0,7223,WL,A,11.0
3,33.305999994277954,learn,26694.000005722046,Fri Sep 12 2025 15:09:06 GMT-0500 (Central Daylight Time),457191.10000002384,A,f,O,f,1241,1,1249.5,455941.60000002384,7223,WL,A,12.0
3,33.38900017738342,learn,26610.999822616577,Fri Sep 12 2025 15:09:06 GMT-0500 (Central Daylight Time),457273.90000009537,A,fi,O,i,61,1,1332.3000000715256,455941.60000002384,7223,WL,A,12.0
3,33.58899998664856,learn,26411.00001335144,Fri Sep 12 2025 15:09:06 GMT-0500 (Central Daylight Time),457473.90000009537,A,fin,O,n,184,1,1532.3000000715256,455941.60000002384,7223,WL,A,12.0
3,33.90700006484985,learn,26092.999935150146,Fri Sep 12 2025 15:09:06 GMT-0500 (Central Daylight Time),457791.7000000477,A,fing,O,g,305,1,1850.1000000238419,455941.60000002384,7223,WL,A,12.0
3,34.08899998664856,learn,25911.00001335144,Fri Sep 12 2025 15:09:06 GMT-0500 (Central Daylight Time),457974.2000000477,A,finge,O,e,171,1,2032.6000000238419,455941.60000002384,7223,WL,A,12.0
3,34.205000162124634,learn,25794.999837875366,Fri Sep 12 2025 15:09:06 GMT-0500 (Central Daylight Time),458090.10000002384,A,finger,O,r,99,1,2148.5,455941.60000002384,7223,WL,A,12.0
3,34.30400013923645,learn,25695.99986076355,Fri Sep 12 2025 15:09:06 GMT-0500 (Central Daylight Time),458189.40000009537,A,fingerenter,O,enter,82,1,2247.8000000715256,455941.60000002384,7223,WL,A,12.0
3,44.88499999046326,learn,15115.000009536743,Fri Sep 12 2025 15:09:06 GMT-0500 (Central Daylight Time),468770.2000000477,A,r,O,r,10561,1,10580.600000023842,458189.60000002384,7223,WL,A,13.0
3,45.03600001335144,learn,14963.99998664856,Fri Sep 12 2025 15:09:06 GMT-0500 (Central Daylight Time),468920.8000000715,A,ru,O,u,127,1,10731.200000047684,458189.60000002384,7223,WL,A,13.0
3,45.16900014877319,learn,14830.999851226807,Fri Sep 12 2025 15:09:06 GMT-0500 (Central Daylight Time),469054.40000009537,A,rug,O,g,110,1,10864.800000071526,458189.60000002384,7223,WL,A,13.0
3,45.37100005149841,learn,14628.999948501587,Fri Sep 12 2025 15:09:06 GMT-0500 (Central Daylight Time),469256.2000000477,A,rugenter,O,enter,182,1,11066.600000023842,458189.60000002384,7223,WL,A,13.0
3,46.718000173568726,learn,13281.999826431274,Fri Sep 12 2025 15:09:06 GMT-0500 (Central Daylight Time),470602.5,A,f,O,f,1333,1,1346.0,469256.5,7223,WL,A,14.0
3,46.818000078201294,learn,13181.999921798706,Fri Sep 12 2025 15:09:06 GMT-0500 (Central Daylight Time),470703.2000000477,A,fl,O,l,89,1,1446.7000000476837,469256.5,7223,WL,A,14.0
3,47.01800012588501,learn,12981.99987411499,Fri Sep 12 2025 15:09:06 GMT-0500 (Central Daylight Time),470902.60000002384,A,flo,O,o,178,1,1646.1000000238419,469256.5,7223,WL,A,14.0
3,47.13499999046326,learn,12865.000009536743,Fri Sep 12 2025 15:09:06 GMT-0500 (Central Daylight Time),471019.60000002384,A,flow,O,w,107,1,1763.1000000238419,469256.5,7223,WL,A,14.0
3,47.319000005722046,learn,12680.999994277954,Fri Sep 12 2025 15:09:06 GMT-0500 (Central Daylight Time),471203.60000002384,A,flowe,O,e,165,1,1947.1000000238419,469256.5,7223,WL,A,14.0
3,47.450000047683716,learn,12549.999952316284,Fri Sep 12 2025 15:09:06 GMT-0500 (Central Daylight Time),471335.2000000477,A,flower,O,r,121,1,2078.7000000476837,469256.5,7223,WL,A,14.0
3,47.551000118255615,learn,12448.999881744385,Fri Sep 12 2025 15:09:06 GMT-0500 (Central Daylight Time),471436.0,A,flowerenter,O,enter,93,1,2179.5,469256.5,7223,WL,A,14.0
3,52.116000175476074,learn,7883.999824523926,Fri Sep 12 2025 15:09:06 GMT-0500 (Central Daylight Time),476001.10000002384,A,s,O,s,4545,1,4564.799999952316,471436.3000000715,7223,WL,A,15.0
3,52.31500005722046,learn,7684.999942779541,Fri Sep 12 2025 15:09:06 GMT-0500 (Central Daylight Time),476200.2000000477,A,sa,O,a,181,1,4763.899999976158,471436.3000000715,7223,WL,A,15.0
3,52.450000047683716,learn,7549.999952316284,Fri Sep 12 2025 15:09:06 GMT-0500 (Central Daylight Time),476334.8000000715,A,sal,O,l,118,1,4898.5,471436.3000000715,7223,WL,A,15.0
3,52.63199996948242,learn,7368.000030517578,Fri Sep 12 2025 15:09:06 GMT-0500 (Central Daylight Time),476516.90000009537,A,salt,O,t,166,1,5080.600000023842,471436.3000000715,7223,WL,A,15.0
3,52.79800009727478,learn,7201.99990272522,Fri Sep 12 2025 15:09:06 GMT-0500 (Central Daylight Time),476683.2000000477,A,saltenter,O,enter,162,1,5246.899999976158,471436.3000000715,7223,WL,A,15.0
4,0.7170000076293945,learn,59282.999992370605,Fri Sep 12 2025 15:09:06 GMT-0500 (Central Daylight Time),543014.4000000954,A,b,O,b,694,1,716.4000000953674,542298.0,7223,WL,A,1.0
4,0.9149999618530273,learn,59085.00003814697,Fri Sep 12 2025 15:09:06 GMT-0500 (Central Daylight Time),543212.5,A,bo,O,o,187,1,914.5,542298.0,7223,WL,A,1.0
4,1.0829999446868896,learn,58917.00005531311,Fri Sep 12 2025 15:09:06 GMT-0500 (Central Daylight Time),543380.6000000238,A,boo,O,o,155,1,1082.6000000238419,542298.0,7223,WL,A,1.0
4,1.3320000171661377,learn,58667.99998283386,Fri Sep 12 2025 15:09:06 GMT-0500 (Central Daylight Time),543629.5,A,book,O,k,231,1,1331.5,542298.0,7223,WL,A,1.0
4,1.5989999771118164,learn,58401.00002288818,Fri Sep 12 2025 15:09:06 GMT-0500 (Central Daylight Time),543897.0,A,bookenter,O,enter,254,1,1599.0,542298.0,7223,WL,A,1.0
4,1.9149999618530273,learn,58085.00003814697,Fri Sep 12 2025 15:09:06 GMT-0500 (Central Daylight Time),544212.6000000238,A,f,O,f,308,1,315.2999999523163,543897.3000000715,7223,WL,A,2.0
4,1.998999834060669,learn,58001.00016593933,Fri Sep 12 2025 15:09:06 GMT-0500 (Central Daylight Time),544296.7000000477,A,fl,O,l,73,1,399.39999997615814,543897.3000000715,7223,WL,A,2.0
4,2.1989998817443848,learn,57801.000118255615,Fri Sep 12 2025 15:09:06 GMT-0500 (Central Daylight Time),544497.2000000477,A,flo,O,o,188,1,599.8999999761581,543897.3000000715,7223,WL,A,2.0
4,2.3320000171661377,learn,57667.99998283386,Fri Sep 12 2025 15:09:06 GMT-0500 (Central Daylight Time),544630.0,A,flow,O,w,125,1,732.6999999284744,543897.3000000715,7223,WL,A,2.0
4,2.5149998664855957,learn,57485.000133514404,Fri Sep 12 2025 15:09:06 GMT-0500 (Central Daylight Time),544813.1000000238,A,flowe,O,e,165,1,915.7999999523163,543897.3000000715,7223,WL,A,2.0
4,2.615000009536743,learn,57384.99999046326,Fri Sep 12 2025 15:09:06 GMT-0500 (Central Daylight Time),544912.9000000954,A,flower,O,r,89,1,1015.6000000238419,543897.3000000715,7223,WL,A,2.0
4,2.881999969482422,learn,57118.00003051758,Fri Sep 12 2025 15:09:06 GMT-0500 (Central Daylight Time),545179.9000000954,A,flowerenter,O,enter,252,1,1282.6000000238419,543897.3000000715,7223,WL,A,2.0
4,3.546999931335449,learn,56453.00006866455,Fri Sep 12 2025 15:09:06 GMT-0500 (Central Daylight Time),545844.7000000477,A,t,O,t,656,1,664.5,545180.2000000477,7223,WL,A,3.0
4,3.746999979019165,learn,56253.000020980835,Fri Sep 12 2025 15:09:06 GMT-0500 (Central Daylight Time),546045.0,A,ta,O,a,194,1,864.7999999523163,545180.2000000477,7223,WL,A,3.0
4,3.931999921798706,learn,56068.000078201294,Fri Sep 12 2025 15:09:06 GMT-0500 (Central Daylight Time),546229.4000000954,A,tai,O,i,178,1,1049.2000000476837,545180.2000000477,7223,WL,A,3.0
4,4.4659998416900635,learn,55534.00015830994,Fri Sep 12 2025 15:09:06 GMT-0500 (Central Daylight Time),546764.0,A,ta,O,backspace,513,1,1583.7999999523163,545180.2000000477,7223,WL,A,3.0
4,4.632999897003174,learn,55367.000102996826,Fri Sep 12 2025 15:09:06 GMT-0500 (Central Daylight Time),546930.3000000715,A,t,O,backspace,152,1,1750.1000000238419,545180.2000000477,7223,WL,A,3.0
4,4.796999931335449,learn,55203.00006866455,Fri Sep 12 2025 15:09:06 GMT-0500 (Central Daylight Time),547095.2000000477,A,tr,O,r,146,1,1915.0,545180.2000000477,7223,WL,A,3.0
4,4.980999946594238,learn,55019.00005340576,Fri Sep 12 2025 15:09:06 GMT-0500 (Central Daylight Time),547279.1000000238,A,tra,O,a,165,1,2098.899999976158,545180.2000000477,7223,WL,A,3.0
4,5.082000017166138,learn,54917.99998283386,Fri Sep 12 2025 15:09:06 GMT-0500 (Central Daylight Time),547380.1000000238,A,trai,O,i,94,1,2199.899999976158,545180.2000000477,7223,WL,A,3.0
4,5.31499981880188,learn,54685.00018119812,Fri Sep 12 2025 15:09:06 GMT-0500 (Central Daylight Time),547612.7000000477,A,train,O,n,217,1,2432.5,545180.2000000477,7223,WL,A,3.0
4,5.648000001907349,learn,54351.99999809265,Fri Sep 12 2025 15:09:06 GMT-0500 (Central Daylight Time),547945.3000000715,A,trainenter,O,enter,312,1,2765.100000023842,545180.2000000477,7223,WL,A,3.0
4,5.928999900817871,learn,54071.00009918213,Fri Sep 12 2025 15:09:06 GMT-0500 (Central Daylight Time),548227.1000000238,A,r,O,r,275,1,281.60000002384186,547945.5,7223,WL,A,4.0
4,6.031999826431274,learn,53968.000173568726,Fri Sep 12 2025 15:09:06 GMT-0500 (Central Daylight Time),548330.2000000477,A,ru,O,u,91,1,384.7000000476837,547945.5,7223,WL,A,4.0
4,6.264999866485596,learn,53735.000133514404,Fri Sep 12 2025 15:09:06 GMT-0500 (Central Daylight Time),548563.0,A,rug,O,g,227,1,617.5,547945.5,7223,WL,A,4.0
4,6.898999929428101,learn,53101.0000705719,Fri Sep 12 2025 15:09:06 GMT-0500 (Central Daylight Time),549197.2000000477,A,rugenter,O,enter,618,1,1251.7000000476837,547945.5,7223,WL,A,4.0
4,7.663999795913696,learn,52336.000204086304,Fri Sep 12 2025 15:09:06 GMT-0500 (Central Daylight Time),549961.3000000715,A,m,O,m,744,1,763.8000000715256,549197.5,7223,WL,A,5.0
4,7.763000011444092,learn,52236.99998855591,Fri Sep 12 2025 15:09:06 GMT-0500 (Central Daylight Time),550060.9000000954,A,me,O,e,90,1,863.4000000953674,549197.5,7223,WL,A,5.0
4,7.997999906539917,learn,52002.00009346008,Fri Sep 12 2025 15:09:06 GMT-0500 (Central Daylight Time),550295.4000000954,A,med,O,d,222,1,1097.9000000953674,549197.5,7223,WL,A,5.0
4,8.280999898910522,learn,51719.00010108948,Fri Sep 12 2025 15:09:06 GMT-0500 (Central Daylight Time),550578.5,A,medo,O,o,261,1,1381.0,549197.5,7223,WL,A,5.0
4,8.794999837875366,learn,51205.000162124634,Fri Sep 12 2025 15:09:06 GMT-0500 (Central Daylight Time),551092.5,A,med,O,backspace,503,1,1895.0,549197.5,7223,WL,A,5.0
4,8.961999893188477,learn,51038.00010681152,Fri Sep 12 2025 15:09:06 GMT-0500 (Central Daylight Time),551259.3000000715,A,me,O,backspace,162,1,2061.8000000715256,549197.5,7223,WL,A,5.0
4,9.078999996185303,learn,50921.0000038147,Fri Sep 12 2025 15:09:06 GMT-0500 (Central Daylight Time),551376.8000000715,A,mea,O,a,108,1,2179.3000000715256,549197.5,7223,WL,A,5.0
4,9.228999853134155,learn,50771.000146865845,Fri Sep 12 2025 15:09:06 GMT-0500 (Central Daylight Time),551526.8000000715,A,mead,O,d,142,1,2329.3000000715256,549197.5,7223,WL,A,5.0
4,9.44599986076355,learn,50554.00013923645,Fri Sep 12 2025 15:09:06 GMT-0500 (Central Daylight Time),551743.9000000954,A,meado,O,o,200,1,2546.4000000953674,549197.5,7223,WL,A,5.0
4,10.080999851226807,learn,49919.00014877319,Fri Sep 12 2025 15:09:06 GMT-0500 (Central Daylight Time),552379.2000000477,A,meadow,O,w,613,1,3181.7000000476837,549197.5,7223,WL,A,5.0
4,10.429999828338623,learn,49570.00017166138,Fri Sep 12 2025 15:09:06 GMT-0500 (Central Daylight Time),552727.8000000715,A,meadowenter,O,enter,330,1,3530.3000000715256,549197.5,7223,WL,A,5.0
4,10.978999853134155,learn,49021.000146865845,Fri Sep 12 2025 15:09:06 GMT-0500 (Central Daylight Time),553276.8000000715,A,h,O,h,533,1,548.7000000476837,552728.1000000238,7223,WL,A,6.0
4,11.078999996185303,learn,48921.0000038147,Fri Sep 12 2025 15:09:06 GMT-0500 (Central Daylight Time),553376.5,A,ha,O,a,79,1,648.3999999761581,552728.1000000238,7223,WL,A,6.0
4,11.263000011444092,learn,48736.99998855591,Fri Sep 12 2025 15:09:06 GMT-0500 (Central Daylight Time),553560.8000000715,A,hal,O,l,164,1,832.7000000476837,552728.1000000238,7223,WL,A,6.0
4,12.546000003814697,learn,47453.9999961853,Fri Sep 12 2025 15:09:06 GMT-0500 (Central Daylight Time),554843.8000000715,A,ha,O,backspace,1267,1,2115.7000000476837,552728.1000000238,7223,WL,A,6.0
4,12.928999900817871,learn,47071.00009918213,Fri Sep 12 2025 15:09:06 GMT-0500 (Central Daylight Time),555226.8000000715,A,har,O,r,371,1,2498.7000000476837,552728.1000000238,7223,WL,A,6.0
4,13.02899980545044,learn,46971.00019454956,Fri Sep 12 2025 15:09:06 GMT-0500 (Central Daylight Time),555326.4000000954,A,harp,O,p,91,1,2598.3000000715256,552728.1000000238,7223,WL,A,6.0
4,13.378999948501587,learn,46621.00005149841,Fri Sep 12 2025 15:09:06 GMT-0500 (Central Daylight Time),555677.2000000477,A,harpenter,O,enter,335,1,2949.100000023842,552728.1000000238,7223,WL,A,6.0
4,13.728999853134155,learn,46271.000146865845,Fri Sep 12 2025 15:09:06 GMT-0500 (Central Daylight Time),556026.7000000477,A,s,O,s,329,1,349.2999999523163,555677.4000000954,7223,WL,A,7.0
4,13.928999900817871,learn,46071.00009918213,Fri Sep 12 2025 15:09:06 GMT-0500 (Central Daylight Time),556226.8000000715,A,sl,O,l,186,1,549.3999999761581,555677.4000000954,7223,WL,A,7.0
4,14.043999910354614,learn,45956.000089645386,Fri Sep 12 2025 15:09:06 GMT-0500 (Central Daylight Time),556341.7000000477,A,sla,O,a,96,1,664.2999999523163,555677.4000000954,7223,WL,A,7.0
4,14.644999980926514,learn,45355.000019073486,Fri Sep 12 2025 15:09:06 GMT-0500 (Central Daylight Time),556942.4000000954,A,sl,O,backspace,594,1,1265.0,555677.4000000954,7223,WL,A,7.0
4,14.810999870300293,learn,45189.00012969971,Fri Sep 12 2025 15:09:06 GMT-0500 (Central Daylight Time),557108.4000000954,A,s,O,backspace,149,1,1431.0,555677.4000000954,7223,WL,A,7.0
4,14.89299988746643,learn,45107.00011253357,Fri Sep 12 2025 15:09:06 GMT-0500 (Central Daylight Time),557190.6000000238,A,sa,O,a,74,1,1513.1999999284744,555677.4000000954,7223,WL,A,7.0
4,15.51199984550476,learn,44488.00015449524,Fri Sep 12 2025 15:09:06 GMT-0500 (Central Daylight Time),557809.7000000477,A,sal,O,l,600,1,2132.2999999523163,555677.4000000954,7223,WL,A,7.0
4,15.66100001335144,learn,44338.99998664856,Fri Sep 12 2025 15:09:06 GMT-0500 (Central Daylight Time),557958.9000000954,A,salf,O,f,131,1,2281.5,555677.4000000954,7223,WL,A,7.0
4,16.328999996185303,learn,43671.0000038147,Fri Sep 12 2025 15:09:06 GMT-0500 (Central Daylight Time),558626.6000000238,A,sal,O,backspace,661,1,2949.1999999284744,555677.4000000954,7223,WL,A,7.0
4,16.492999792099,learn,43507.000207901,Fri Sep 12 2025 15:09:06 GMT-0500 (Central Daylight Time),558791.2000000477,A,salt,O,t,145,1,3113.7999999523163,555677.4000000954,7223,WL,A,7.0
4,17.144999980926514,learn,42855.000019073486,Fri Sep 12 2025 15:09:06 GMT-0500 (Central Daylight Time),559443.1000000238,A,saltenter,O,enter,645,1,3765.6999999284744,555677.4000000954,7223,WL,A,7.0
4,18.176999807357788,learn,41823.00019264221,Fri Sep 12 2025 15:09:06 GMT-0500 (Central Daylight Time),560475.3000000715,A,c,O,c,1018,1,1031.8999999761581,559443.4000000954,7223,WL,A,8.0
4,18.276999950408936,learn,41723.000049591064,Fri Sep 12 2025 15:09:06 GMT-0500 (Central Daylight Time),560574.9000000954,A,ch,O,h,83,1,1131.5,559443.4000000954,7223,WL,A,8.0
4,18.442999839782715,learn,41557.000160217285,Fri Sep 12 2025 15:09:06 GMT-0500 (Central Daylight Time),560740.7000000477,A,chi,O,i,157,1,1297.2999999523163,559443.4000000954,7223,WL,A,8.0
4,18.710999965667725,learn,41289.000034332275,Fri Sep 12 2025 15:09:06 GMT-0500 (Central Daylight Time),561009.1000000238,A,chim,O,m,247,1,1565.6999999284744,559443.4000000954,7223,WL,A,8.0
4,19.509999990463257,learn,40490.00000953674,Fri Sep 12 2025 15:09:06 GMT-0500 (Central Daylight Time),561808.3000000715,A,chimn,O,n,778,1,2364.899999976158,559443.4000000954,7223,WL,A,8.0
4,20.143999814987183,learn,39856.00018501282,Fri Sep 12 2025 15:09:06 GMT-0500 (Central Daylight Time),562442.1000000238,A,chimne,O,e,613,1,2998.6999999284744,559443.4000000954,7223,WL,A,8.0
4,20.276999950408936,learn,39723.000049591064,Fri Sep 12 2025 15:09:06 GMT-0500 (Central Daylight Time),562574.7000000477,A,chimney,O,y,122,1,3131.2999999523163,559443.4000000954,7223,WL,A,8.0
4,20.72699999809265,learn,39273.00000190735,Fri Sep 12 2025 15:09:06 GMT-0500 (Central Daylight Time),563024.5,A,chimneyenter,O,enter,440,1,3581.0999999046326,559443.4000000954,7223,WL,A,8.0
4,21.125,learn,38875.0,Fri Sep 12 2025 15:09:06 GMT-0500 (Central Daylight Time),563422.9000000954,A,f,O,f,390,1,398.10000002384186,563024.8000000715,7223,WL,A,9.0
4,21.676999807357788,learn,38323.00019264221,Fri Sep 12 2025 15:09:06 GMT-0500 (Central Daylight Time),563974.6000000238,A,fi,O,i,535,1,949.7999999523163,563024.8000000715,7223,WL,A,9.0
4,21.893999814987183,learn,38106.00018501282,Fri Sep 12 2025 15:09:06 GMT-0500 (Central Daylight Time),564191.3000000715,A,fin,O,n,211,1,1166.5,563024.8000000715,7223,WL,A,9.0
4,22.074999809265137,learn,37925.00019073486,Fri Sep 12 2025 15:09:06 GMT-0500 (Central Daylight Time),564373.0,A,fing,O,g,174,1,1348.1999999284744,563024.8000000715,7223,WL,A,9.0
4,22.276000022888184,learn,37723.99997711182,Fri Sep 12 2025 15:09:06 GMT-0500 (Central Daylight Time),564573.4000000954,A,finge,O,e,195,1,1548.6000000238419,563024.8000000715,7223,WL,A,9.0
4,22.375999927520752,learn,37624.00007247925,Fri Sep 12 2025 15:09:06 GMT-0500 (Central Daylight Time),564674.2000000477,A,finger,O,r,79,1,1649.3999999761581,563024.8000000715,7223,WL,A,9.0
4,22.625,learn,37375.0,Fri Sep 12 2025 15:09:06 GMT-0500 (Central Daylight Time),564922.7000000477,A,fingerenter,O,enter,226,1,1897.8999999761581,563024.8000000715,7223,WL,A,9.0
4,23.342000007629395,learn,36657.999992370605,Fri Sep 12 2025 15:09:06 GMT-0500 (Central Daylight Time),565639.6000000238,A,r,O,r,708,1,716.6999999284744,564922.9000000954,7223,WL,A,10.0
4,23.54099988937378,learn,36459.00011062622,Fri Sep 12 2025 15:09:06 GMT-0500 (Central Daylight Time),565839.1000000238,A,ra,O,a,181,1,916.1999999284744,564922.9000000954,7223,WL,A,10.0
4,23.72499990463257,learn,36275.00009536743,Fri Sep 12 2025 15:09:06 GMT-0500 (Central Daylight Time),566022.7000000477,A,rat,O,t,164,1,1099.7999999523163,564922.9000000954,7223,WL,A,10.0
4,23.908999919891357,learn,36091.00008010864,Fri Sep 12 2025 15:09:06 GMT-0500 (Central Daylight Time),566206.5,A,ratt,O,t,171,1,1283.5999999046326,564922.9000000954,7223,WL,A,10.0
4,24.125,learn,35875.0,Fri Sep 12 2025 15:09:06 GMT-0500 (Central Daylight Time),566422.4000000954,A,rattl,O,l,205,1,1499.5,564922.9000000954,7223,WL,A,10.0
4,24.257999897003174,learn,35742.000102996826,Fri Sep 12 2025 15:09:06 GMT-0500 (Central Daylight Time),566555.8000000715,A,rattle,O,e,122,1,1632.8999999761581,564922.9000000954,7223,WL,A,10.0
4,24.407999992370605,learn,35592.000007629395,Fri Sep 12 2025 15:09:06 GMT-0500 (Central Daylight Time),566706.1000000238,A,rattleenter,O,enter,135,1,1783.1999999284744,564922.9000000954,7223,WL,A,10.0
4,25.69099998474121,learn,34309.00001525879,Fri Sep 12 2025 15:09:06 GMT-0500 (Central Daylight Time),567988.3000000715,A,k,O,k,1277,1,1281.8999999761581,566706.4000000954,7223,WL,A,11.0
4,25.83999991416931,learn,34160.00008583069,Fri Sep 12 2025 15:09:06 GMT-0500 (Central Daylight Time),568138.2000000477,A,ke,O,e,136,1,1431.7999999523163,566706.4000000954,7223,WL,A,11.0
4,25.990999937057495,learn,34009.000062942505,Fri Sep 12 2025 15:09:06 GMT-0500 (Central Daylight Time),568288.8000000715,A,key,O,y,128,1,1582.3999999761581,566706.4000000954,7223,WL,A,11.0
4,26.257999897003174,learn,33742.000102996826,Fri Sep 12 2025 15:09:06 GMT-0500 (Central Daylight Time),568555.3000000715,A,keyenter,O,enter,253,1,1848.8999999761581,566706.4000000954,7223,WL,A,11.0
4,26.55900001525879,learn,33440.99998474121,Fri Sep 12 2025 15:09:06 GMT-0500 (Central Daylight Time),568856.9000000954,A,l,O,l,291,1,301.40000009536743,568555.5,7223,WL,A,12.0
4,26.756999969482422,learn,33243.00003051758,Fri Sep 12 2025 15:09:06 GMT-0500 (Central Daylight Time),569054.6000000238,A,lo,O,o,179,1,499.10000002384186,568555.5,7223,WL,A,12.0
4,26.925999879837036,learn,33074.000120162964,Fri Sep 12 2025 15:09:06 GMT-0500 (Central Daylight Time),569223.5,A,log,O,g,149,1,668.0,568555.5,7223,WL,A,12.0
4,27.173999786376953,learn,32826.00021362305,Fri Sep 12 2025 15:09:06 GMT-0500 (Central Daylight Time),569471.4000000954,A,logenter,O,enter,236,1,915.9000000953674,568555.5,7223,WL,A,12.0
4,30.907999992370605,learn,29092.000007629395,Fri Sep 12 2025 15:09:06 GMT-0500 (Central Daylight Time),573206.0,A,g,O,g,3719,1,3734.399999976158,569471.6000000238,7223,WL,A,13.0
4,31.021999835968018,learn,28978.000164031982,Fri Sep 12 2025 15:09:06 GMT-0500 (Central Daylight Time),573320.0,A,go,O,o,93,1,3848.399999976158,569471.6000000238,7223,WL,A,13.0
4,31.240000009536743,learn,28759.999990463257,Fri Sep 12 2025 15:09:06 GMT-0500 (Central Daylight Time),573537.6000000238,A,gol,O,l,194,1,4066.0,569471.6000000238,7223,WL,A,13.0
4,31.371999979019165,learn,28628.000020980835,Fri Sep 12 2025 15:09:06 GMT-0500 (Central Daylight Time),573670.0,A,gold,O,d,112,1,4198.399999976158,569471.6000000238,7223,WL,A,13.0
4,31.50599980354309,learn,28494.00019645691,Fri Sep 12 2025 15:09:06 GMT-0500 (Central Daylight Time),573803.4000000954,A,goldenter,O,enter,118,1,4331.800000071526,569471.6000000238,7223,WL,A,13.0
4,31.971999883651733,learn,28028.000116348267,Fri Sep 12 2025 15:09:06 GMT-0500 (Central Daylight Time),574270.1000000238,A,r,O,r,458,1,466.39999997615814,573803.7000000477,7223,WL,A,14.0
4,32.138999938964844,learn,27861.000061035156,Fri Sep 12 2025 15:09:06 GMT-0500 (Central Daylight Time),574436.3000000715,A,ra,O,a,156,1,632.6000000238419,573803.7000000477,7223,WL,A,14.0
4,32.25499987602234,learn,27745.00012397766,Fri Sep 12 2025 15:09:06 GMT-0500 (Central Daylight Time),574552.9000000954,A,rat,O,t,96,1,749.2000000476837,573803.7000000477,7223,WL,A,14.0
4,32.43899989128113,learn,27561.000108718872,Fri Sep 12 2025 15:09:06 GMT-0500 (Central Daylight Time),574737.2000000477,A,ratt,O,t,169,1,933.5,573803.7000000477,7223,WL,A,14.0
4,32.65599989891052,learn,27344.000101089478,Fri Sep 12 2025 15:09:06 GMT-0500 (Central Daylight Time),574953.7000000477,A,rattl,O,l,202,1,1150.0,573803.7000000477,7223,WL,A,14.0
4,32.787999868392944,learn,27212.000131607056,Fri Sep 12 2025 15:09:06 GMT-0500 (Central Daylight Time),575085.7000000477,A,rattle,O,e,120,1,1282.0,573803.7000000477,7223,WL,A,14.0
4,32.93899989128113,learn,27061.000108718872,Fri Sep 12 2025 15:09:06 GMT-0500 (Central Daylight Time),575236.3000000715,A,rattleenter,O,enter,131,1,1432.6000000238419,573803.7000000477,7223,WL,A,14.0
4,37.09099984169006,learn,22909.000158309937,Fri Sep 12 2025 15:09:06 GMT-0500 (Central Daylight Time),579389.0,A,a,O,a,4129,1,4152.399999976158,575236.6000000238,7223,WL,A,15.0
4,37.169999837875366,learn,22830.000162124634,Fri Sep 12 2025 15:09:06 GMT-0500 (Central Daylight Time),579467.9000000954,A,ap,O,p,54,1,4231.300000071526,575236.6000000238,7223,WL,A,15.0
4,37.53699994087219,learn,22463.000059127808,Fri Sep 12 2025 15:09:06 GMT-0500 (Central Daylight Time),579834.7000000477,A,app,O,p,352,1,4598.100000023842,575236.6000000238,7223,WL,A,15.0
4,37.806999921798706,learn,22193.000078201294,Fri Sep 12 2025 15:09:06 GMT-0500 (Central Daylight Time),580104.9000000954,A,appl,O,l,257,1,4868.300000071526,575236.6000000238,7223,WL,A,15.0
4,38.003000020980835,learn,21996.999979019165,Fri Sep 12 2025 15:09:06 GMT-0500 (Central Daylight Time),580301.0,A,apple,O,e,185,1,5064.399999976158,575236.6000000238,7223,WL,A,15.0
4,38.13699984550476,learn,21863.00015449524,Fri Sep 12 2025 15:09:06 GMT-0500 (Central Daylight Time),580434.6000000238,A,appleenter,O,enter,112,1,5198.0,575236.6000000238,7223,WL,A,15.0
5,0.6329998970031738,learn,60000.0,Fri Sep 12 2025 15:09:06 GMT-0500 (Central Daylight Time),645197.9000000954,A,b,O,b,621,1,632.5,644565.4000000954,7223,WL,A,1.0
5,0.8659999370574951,learn,60000.0,Fri Sep 12 2025 15:09:06 GMT-0500 (Central Daylight Time),645431.0,A,bo,O,o,225,1,865.5999999046326,644565.4000000954,7223,WL,A,1.0
5,1.0329999923706055,learn,60000.0,Fri Sep 12 2025 15:09:06 GMT-0500 (Central Daylight Time),645597.5,A,boo,O,o,158,1,1032.0999999046326,644565.4000000954,7223,WL,A,1.0
5,1.2660000324249268,learn,60000.0,Fri Sep 12 2025 15:09:06 GMT-0500 (Central Daylight Time),645830.8000000715,A,book,O,k,223,1,1265.3999999761581,644565.4000000954,7223,WL,A,1.0
5,1.8650000095367432,learn,60000.0,Fri Sep 12 2025 15:09:06 GMT-0500 (Central Daylight Time),646430.3000000715,A,bookenter,O,enter,581,1,1864.8999999761581,644565.4000000954,7223,WL,A,1.0
5,2.315999984741211,learn,60000.0,Fri Sep 12 2025 15:09:06 GMT-0500 (Central Daylight Time),646881.0,A,f,O,f,431,1,450.5,646430.5,7223,WL,A,2.0
5,2.3989999294281006,learn,60000.0,Fri Sep 12 2025 15:09:06 GMT-0500 (Central Daylight Time),646963.6000000238,A,fl,O,l,70,1,533.1000000238419,646430.5,7223,WL,A,2.0
5,2.5829999446868896,learn,60000.0,Fri Sep 12 2025 15:09:06 GMT-0500 (Central Daylight Time),647147.6000000238,A,flo,O,o,171,1,717.1000000238419,646430.5,7223,WL,A,2.0
5,2.7159998416900635,learn,60000.0,Fri Sep 12 2025 15:09:06 GMT-0500 (Central Daylight Time),647281.0,A,flow,O,w,112,1,850.5,646430.5,7223,WL,A,2.0
5,2.8489999771118164,learn,60000.0,Fri Sep 12 2025 15:09:06 GMT-0500 (Central Daylight Time),647414.2000000477,A,flowe,O,e,115,1,983.7000000476837,646430.5,7223,WL,A,2.0
5,2.950000047683716,learn,60000.0,Fri Sep 12 2025 15:09:06 GMT-0500 (Central Daylight Time),647514.9000000954,A,flower,O,r,78,1,1084.4000000953674,646430.5,7223,WL,A,2.0
5,3.2319998741149902,learn,60000.0,Fri Sep 12 2025 15:09:06 GMT-0500 (Central Daylight Time),647796.8000000715,A,flowerenter,O,enter,265,1,1366.3000000715256,646430.5,7223,WL,A,2.0
5,3.6480000019073486,learn,60000.0,Fri Sep 12 2025 15:09:06 GMT-0500 (Central Daylight Time),648212.5,A,t,O,t,400,1,415.5,647797.0,7223,WL,A,3.0
5,3.865000009536743,learn,60000.0,Fri Sep 12 2025 15:09:06 GMT-0500 (Central Daylight Time),648429.7000000477,A,tr,O,r,199,1,632.7000000476837,647797.0,7223,WL,A,3.0
5,4.0329999923706055,learn,60000.0,Fri Sep 12 2025 15:09:06 GMT-0500 (Central Daylight Time),648597.5,A,tra,O,a,159,1,800.5,647797.0,7223,WL,A,3.0
5,4.16700005531311,learn,60000.0,Fri Sep 12 2025 15:09:06 GMT-0500 (Central Daylight Time),648732.0,A,trai,O,i,128,1,935.0,647797.0,7223,WL,A,3.0
5,4.38100004196167,learn,60000.0,Fri Sep 12 2025 15:09:06 GMT-0500 (Central Daylight Time),648946.3000000715,A,train,O,n,200,1,1149.3000000715256,647797.0,7223,WL,A,3.0
5,4.799000024795532,learn,60000.0,Fri Sep 12 2025 15:09:06 GMT-0500 (Central Daylight Time),649363.8000000715,A,trainenter,O,enter,402,1,1566.8000000715256,647797.0,7223,WL,A,3.0
5,5.1499998569488525,learn,60000.0,Fri Sep 12 2025 15:09:06 GMT-0500 (Central Daylight Time),649714.8000000715,A,r,O,r,338,1,350.8000000715256,649364.0,7223,WL,A,4.0
5,5.264999866485596,learn,60000.0,Fri Sep 12 2025 15:09:06 GMT-0500 (Central Daylight Time),649829.9000000954,A,ru,O,u,99,1,465.90000009536743,649364.0,7223,WL,A,4.0
5,5.697999954223633,learn,60000.0,Fri Sep 12 2025 15:09:06 GMT-0500 (Central Daylight Time),650262.7000000477,A,rug,O,g,415,1,898.7000000476837,649364.0,7223,WL,A,4.0
5,5.88100004196167,learn,60000.0,Fri Sep 12 2025 15:09:06 GMT-0500 (Central Daylight Time),650445.7000000477,A,rugenter,O,enter,174,1,1081.7000000476837,649364.0,7223,WL,A,4.0
5,6.4649999141693115,learn,60000.0,Fri Sep 12 2025 15:09:06 GMT-0500 (Central Daylight Time),651029.8000000715,A,m,O,m,578,1,583.7000000476837,650446.1000000238,7223,WL,A,5.0
5,6.580999851226807,learn,60000.0,Fri Sep 12 2025 15:09:06 GMT-0500 (Central Daylight Time),651145.8000000715,A,me,O,e,102,1,699.7000000476837,650446.1000000238,7223,WL,A,5.0
5,6.799000024795532,learn,60000.0,Fri Sep 12 2025 15:09:06 GMT-0500 (Central Daylight Time),651363.6000000238,A,med,O,d,210,1,917.5,650446.1000000238,7223,WL,A,5.0
5,7.031999826431274,learn,60000.0,Fri Sep 12 2025 15:09:06 GMT-0500 (Central Daylight Time),651596.7000000477,A,medo,O,o,225,1,1150.6000000238419,650446.1000000238,7223,WL,A,5.0
5,7.648000001907349,learn,60000.0,Fri Sep 12 2025 15:09:06 GMT-0500 (Central Daylight Time),652212.5,A,med,O,backspace,611,1,1766.3999999761581,650446.1000000238,7223,WL,A,5.0
5,7.813999891281128,learn,60000.0,Fri Sep 12 2025 15:09:06 GMT-0500 (Central Daylight Time),652379.3000000715,A,me,O,backspace,152,1,1933.2000000476837,650446.1000000238,7223,WL,A,5.0
5,7.914000034332275,learn,60000.0,Fri Sep 12 2025 15:09:06 GMT-0500 (Central Daylight Time),652479.0,A,mea,O,a,82,1,2032.8999999761581,650446.1000000238,7223,WL,A,5.0
5,8.047999858856201,learn,60000.0,Fri Sep 12 2025 15:09:06 GMT-0500 (Central Daylight Time),652613.4000000954,A,mead,O,d,126,1,2167.3000000715256,650446.1000000238,7223,WL,A,5.0
5,8.565000057220459,learn,60000.0,Fri Sep 12 2025 15:09:06 GMT-0500 (Central Daylight Time),653129.6000000238,A,meado,O,o,496,1,2683.5,650446.1000000238,7223,WL,A,5.0
5,8.713000059127808,learn,60000.0,Fri Sep 12 2025 15:09:06 GMT-0500 (Central Daylight Time),653278.5,A,meadow,O,w,131,1,2832.399999976158,650446.1000000238,7223,WL,A,5.0
5,8.879999876022339,learn,60000.0,Fri Sep 12 2025 15:09:06 GMT-0500 (Central Daylight Time),653445.4000000954,A,meadown,O,n,150,1,2999.3000000715256,650446.1000000238,7223,WL,A,5.0
5,9.312999963760376,learn,60000.0,Fri Sep 12 2025 15:09:06 GMT-0500 (Central Daylight Time),653877.6000000238,A,meadow,O,backspace,414,1,3431.5,650446.1000000238,7223,WL,A,5.0
5,10.079999923706055,learn,60000.0,Fri Sep 12 2025 15:09:06 GMT-0500 (Central Daylight Time),654644.5,A,meadowenter,O,enter,751,1,4198.399999976158,650446.1000000238,7223,WL,A,5.0
5,10.613999843597412,learn,60000.0,Fri Sep 12 2025 15:09:06 GMT-0500 (Central Daylight Time),655179.2000000477,A,s,O,s,530,1,534.2999999523163,654644.9000000954,7223,WL,A,6.0
5,10.815000057220459,learn,60000.0,Fri Sep 12 2025 15:09:06 GMT-0500 (Central Daylight Time),655379.6000000238,A,sa,O,a,185,1,734.6999999284744,654644.9000000954,7223,WL,A,6.0
5,11.04699993133545,learn,60000.0,Fri Sep 12 2025 15:09:06 GMT-0500 (Central Daylight Time),655611.8000000715,A,sal,O,l,219,1,966.8999999761581,654644.9000000954,7223,WL,A,6.0
5,11.51799988746643,learn,60000.0,Fri Sep 12 2025 15:09:06 GMT-0500 (Central Daylight Time),656082.7000000477,A,salt,O,t,456,1,1437.7999999523163,654644.9000000954,7223,WL,A,6.0
5,11.91100001335144,learn,60000.0,Fri Sep 12 2025 15:09:06 GMT-0500 (Central Daylight Time),656476.0,A,saltenter,O,enter,388,1,1831.0999999046326,654644.9000000954,7223,WL,A,6.0
5,12.378999948501587,learn,60000.0,Fri Sep 12 2025 15:09:06 GMT-0500 (Central Daylight Time),656944.1000000238,A,a,O,a,450,1,467.6999999284744,656476.4000000954,7223,WL,A,7.0
5,12.496000051498413,learn,60000.0,Fri Sep 12 2025 15:09:06 GMT-0500 (Central Daylight Time),657060.9000000954,A,ap,O,p,94,1,584.5,656476.4000000954,7223,WL,A,7.0
5,12.644999980926514,learn,60000.0,Fri Sep 12 2025 15:09:06 GMT-0500 (Central Daylight Time),657210.6000000238,A,app,O,p,136,1,734.1999999284744,656476.4000000954,7223,WL,A,7.0
5,12.977999925613403,learn,60000.0,Fri Sep 12 2025 15:09:06 GMT-0500 (Central Daylight Time),657543.1000000238,A,appl,O,l,324,1,1066.6999999284744,656476.4000000954,7223,WL,A,7.0
5,14.327999830245972,learn,60000.0,Fri Sep 12 2025 15:09:06 GMT-0500 (Central Daylight Time),658893.0,A,apple,O,e,1333,1,2416.5999999046326,656476.4000000954,7223,WL,A,7.0
5,14.527999877929688,learn,60000.0,Fri Sep 12 2025 15:09:06 GMT-0500 (Central Daylight Time),659093.2000000477,A,appleenter,O,enter,191,1,2616.7999999523163,656476.4000000954,7223,WL,A,7.0
5,15.01199984550476,learn,60000.0,Fri Sep 12 2025 15:09:06 GMT-0500 (Central Daylight Time),659577.6000000238,A,h,O,h,464,1,484.10000002384186,659093.5,7223,WL,A,8.0
5,15.077999830245972,learn,60000.0,Fri Sep 12 2025 15:09:06 GMT-0500 (Central Daylight Time),659643.1000000238,A,ha,O,a,40,1,549.6000000238419,659093.5,7223,WL,A,8.0
5,15.244999885559082,learn,60000.0,Fri Sep 12 2025 15:09:06 GMT-0500 (Central Daylight Time),659810.3000000715,A,har,O,r,156,1,716.8000000715256,659093.5,7223,WL,A,8.0
5,15.394000053405762,learn,60000.0,Fri Sep 12 2025 15:09:06 GMT-0500 (Central Daylight Time),659959.0,A,harp,O,p,130,1,865.5,659093.5,7223,WL,A,8.0
5,15.812000036239624,learn,60000.0,Fri Sep 12 2025 15:09:06 GMT-0500 (Central Daylight Time),660376.8000000715,A,harpenter,O,enter,396,1,1283.3000000715256,659093.5,7223,WL,A,8.0
5,16.17799997329712,learn,60000.0,Fri Sep 12 2025 15:09:06 GMT-0500 (Central Daylight Time),660743.5,A,f,O,f,349,1,366.5,660377.0,7223,WL,A,9.0
5,16.26099991798401,learn,60000.0,Fri Sep 12 2025 15:09:06 GMT-0500 (Central Daylight Time),660826.4000000954,A,fi,O,i,61,1,449.40000009536743,660377.0,7223,WL,A,9.0
5,16.461999893188477,learn,60000.0,Fri Sep 12 2025 15:09:06 GMT-0500 (Central Daylight Time),661026.7000000477,A,fin,O,n,177,1,649.7000000476837,660377.0,7223,WL,A,9.0
5,16.64400005340576,learn,60000.0,Fri Sep 12 2025 15:09:06 GMT-0500 (Central Daylight Time),661209.3000000715,A,fing,O,g,159,1,832.3000000715256,660377.0,7223,WL,A,9.0
5,16.82699990272522,learn,60000.0,Fri Sep 12 2025 15:09:06 GMT-0500 (Central Daylight Time),661392.5,A,finge,O,e,170,1,1015.5,660377.0,7223,WL,A,9.0
5,16.927000045776367,learn,60000.0,Fri Sep 12 2025 15:09:06 GMT-0500 (Central Daylight Time),661492.6000000238,A,finger,O,r,83,1,1115.6000000238419,660377.0,7223,WL,A,9.0
5,17.092999935150146,learn,60000.0,Fri Sep 12 2025 15:09:06 GMT-0500 (Central Daylight Time),661658.6000000238,A,fingerenter,O,enter,151,1,1281.6000000238419,660377.0,7223,WL,A,9.0
5,17.42899990081787,learn,60000.0,Fri Sep 12 2025 15:09:06 GMT-0500 (Central Daylight Time),661993.9000000954,A,c,O,c,315,1,335.10000002384186,661658.8000000715,7223,WL,A,10.0
5,17.543999910354614,learn,60000.0,Fri Sep 12 2025 15:09:06 GMT-0500 (Central Daylight Time),662109.4000000954,A,ch,O,h,108,1,450.60000002384186,661658.8000000715,7223,WL,A,10.0
5,17.792999982833862,learn,60000.0,Fri Sep 12 2025 15:09:06 GMT-0500 (Central Daylight Time),662358.6000000238,A,chi,O,i,230,1,699.7999999523163,661658.8000000715,7223,WL,A,10.0
5,17.993000030517578,learn,60000.0,Fri Sep 12 2025 15:09:06 GMT-0500 (Central Daylight Time),662558.6000000238,A,chim,O,m,189,1,899.7999999523163,661658.8000000715,7223,WL,A,10.0
5,18.39299988746643,learn,60000.0,Fri Sep 12 2025 15:09:06 GMT-0500 (Central Daylight Time),662958.6000000238,A,chimn,O,n,381,1,1299.7999999523163,661658.8000000715,7223,WL,A,10.0
5,19.177000045776367,learn,60000.0,Fri Sep 12 2025 15:09:06 GMT-0500 (Central Daylight Time),663742.0,A,chimne,O,e,772,1,2083.1999999284744,661658.8000000715,7223,WL,A,10.0
5,19.310999870300293,learn,60000.0,Fri Sep 12 2025 15:09:06 GMT-0500 (Central Daylight Time),663875.8000000715,A,chimney,O,y,120,1,2217.0,661658.8000000715,7223,WL,A,10.0
5,19.70899987220764,learn,60000.0,Fri Sep 12 2025 15:09:06 GMT-0500 (Central Daylight Time),664274.4000000954,A,chimneyenter,O,enter,384,1,2615.600000023842,661658.8000000715,7223,WL,A,10.0
5,20.45899987220764,learn,60000.0,Fri Sep 12 2025 15:09:06 GMT-0500 (Central Daylight Time),665024.8000000715,A,k,O,k,741,1,750.2000000476837,664274.6000000238,7223,WL,A,11.0
5,20.66100001335144,learn,60000.0,Fri Sep 12 2025 15:09:06 GMT-0500 (Central Daylight Time),665225.7000000477,A,ke,O,e,178,1,951.1000000238419,664274.6000000238,7223,WL,A,11.0
5,20.79200005531311,learn,60000.0,Fri Sep 12 2025 15:09:06 GMT-0500 (Central Daylight Time),665357.1000000238,A,key,O,y,122,1,1082.5,664274.6000000238,7223,WL,A,11.0
5,21.858999967575073,learn,60000.0,Fri Sep 12 2025 15:09:06 GMT-0500 (Central Daylight Time),666424.0,A,keyenter,O,enter,1046,1,2149.399999976158,664274.6000000238,7223,WL,A,11.0
5,22.658999919891357,learn,60000.0,Fri Sep 12 2025 15:09:06 GMT-0500 (Central Daylight Time),667224.3000000715,A,r,O,r,790,1,800.2000000476837,666424.1000000238,7223,WL,A,12.0
5,22.840999841690063,learn,60000.0,Fri Sep 12 2025 15:09:06 GMT-0500 (Central Daylight Time),667406.5,A,ra,O,a,173,1,982.3999999761581,666424.1000000238,7223,WL,A,12.0
5,23.22599983215332,learn,60000.0,Fri Sep 12 2025 15:09:06 GMT-0500 (Central Daylight Time),667791.4000000954,A,rat,O,t,373,1,1367.3000000715256,666424.1000000238,7223,WL,A,12.0
5,23.39199995994568,learn,60000.0,Fri Sep 12 2025 15:09:06 GMT-0500 (Central Daylight Time),667957.6000000238,A,ratt,O,t,150,1,1533.5,666424.1000000238,7223,WL,A,12.0
5,23.674999952316284,learn,60000.0,Fri Sep 12 2025 15:09:06 GMT-0500 (Central Daylight Time),668240.3000000715,A,rattl,O,l,269,1,1816.2000000476837,666424.1000000238,7223,WL,A,12.0
5,23.875,learn,60000.0,Fri Sep 12 2025 15:09:06 GMT-0500 (Central Daylight Time),668440.3000000715,A,rattle,O,e,187,1,2016.2000000476837,666424.1000000238,7223,WL,A,12.0
5,24.092000007629395,learn,60000.0,Fri Sep 12 2025 15:09:06 GMT-0500 (Central Daylight Time),668656.7000000477,A,rattleenter,O,enter,196,1,2232.600000023842,666424.1000000238,7223,WL,A,12.0
5,25.29099988937378,learn,60000.0,Fri Sep 12 2025 15:09:06 GMT-0500 (Central Daylight Time),669856.6000000238,A,l,O,l,1181,1,1199.6999999284744,668656.9000000954,7223,WL,A,13.0
5,25.45899987220764,learn,60000.0,Fri Sep 12 2025 15:09:06 GMT-0500 (Central Daylight Time),670024.2000000477,A,lo,O,o,146,1,1367.2999999523163,668656.9000000954,7223,WL,A,13.0
5,25.626999855041504,learn,60000.0,Fri Sep 12 2025 15:09:06 GMT-0500 (Central Daylight Time),670192.5,A,log,O,g,156,1,1535.5999999046326,668656.9000000954,7223,WL,A,13.0
5,26.057999849319458,learn,60000.0,Fri Sep 12 2025 15:09:06 GMT-0500 (Central Daylight Time),670622.7000000477,A,logenter,O,enter,420,1,1965.7999999523163,668656.9000000954,7223,WL,A,13.0
5,27.424999952316284,learn,60000.0,Fri Sep 12 2025 15:09:06 GMT-0500 (Central Daylight Time),671990.1000000238,A,k,O,k,1346,1,1367.1000000238419,670623.0,7223,WL,A,14.0
5,27.573999881744385,learn,60000.0,Fri Sep 12 2025 15:09:06 GMT-0500 (Central Daylight Time),672139.2000000477,A,ke,O,e,132,1,1516.2000000476837,670623.0,7223,WL,A,14.0
5,27.707000017166138,learn,60000.0,Fri Sep 12 2025 15:09:06 GMT-0500 (Central Daylight Time),672272.1000000238,A,key,O,y,121,1,1649.1000000238419,670623.0,7223,WL,A,14.0
5,28.12399983406067,learn,60000.0,Fri Sep 12 2025 15:09:06 GMT-0500 (Central Daylight Time),672689.6000000238,A,keyenter,O,enter,394,1,2066.600000023842,670623.0,7223,WL,A,14.0
5,29.174000024795532,learn,60000.0,Fri Sep 12 2025 15:09:06 GMT-0500 (Central Daylight Time),673739.5,A,g,O,g,1037,1,1049.6999999284744,672689.8000000715,7223,WL,A,15.0
5,29.306999921798706,learn,60000.0,Fri Sep 12 2025 15:09:06 GMT-0500 (Central Daylight Time),673872.0,A,go,O,o,120,1,1182.1999999284744,672689.8000000715,7223,WL,A,15.0
5,29.50600004196167,learn,60000.0,Fri Sep 12 2025 15:09:06 GMT-0500 (Central Daylight Time),674071.2000000477,A,gol,O,l,187,1,1381.3999999761581,672689.8000000715,7223,WL,A,15.0
5,29.705999851226807,learn,60000.0,Fri Sep 12 2025 15:09:06 GMT-0500 (Central Daylight Time),674271.6000000238,A,gold,O,d,183,1,1581.7999999523163,672689.8000000715,7223,WL,A,15.0
5,30.58899998664856,learn,60000.0,Fri Sep 12 2025 15:09:06 GMT-0500 (Central Daylight Time),675153.7000000477,A,goldenter,O,enter,871,1,2463.899999976158,672689.8000000715,7223,WL,A,15.0
6,0.8829998970031738,distr,59117.000102996826,Fri Sep 12 2025 15:09:06 GMT-0500 (Central Daylight Time),755129.8000000715,B,b,O,b,871,1,883.0,754246.8000000715,7223,WL,A,1.0
6,1.116999864578247,distr,58883.00013542175,Fri Sep 12 2025 15:09:06 GMT-0500 (Central Daylight Time),755363.8000000715,B,bo,O,o,228,1,1117.0,754246.8000000715,7223,WL,A,1.0
6,1.366999864578247,distr,58633.00013542175,Fri Sep 12 2025 15:09:06 GMT-0500 (Central Daylight Time),755612.9000000954,B,bow,O,w,243,1,1366.1000000238419,754246.8000000715,7223,WL,A,1.0
6,1.7189998626708984,distr,58281.0001373291,Fri Sep 12 2025 15:09:06 GMT-0500 (Central Daylight Time),755964.8000000715,B,bowl,O,l,343,1,1718.0,754246.8000000715,7223,WL,A,1.0
6,2.0139999389648438,distr,57986.000061035156,Fri Sep 12 2025 15:09:06 GMT-0500 (Central Daylight Time),756260.3000000715,B,bowlenter,O,enter,287,1,2013.5,754246.8000000715,7223,WL,A,1.0
6,2.381999969482422,distr,57618.00003051758,Fri Sep 12 2025 15:09:06 GMT-0500 (Central Daylight Time),756628.6000000238,B,j,O,j,355,1,368.10000002384186,756260.5,7223,WL,A,2.0
6,2.5989999771118164,distr,57401.00002288818,Fri Sep 12 2025 15:09:06 GMT-0500 (Central Daylight Time),756845.0,B,ju,O,u,210,1,584.5,756260.5,7223,WL,A,2.0
6,3.0850000381469727,distr,56914.99996185303,Fri Sep 12 2025 15:09:06 GMT-0500 (Central Daylight Time),757330.9000000954,B,jud,O,d,472,1,1070.4000000953674,756260.5,7223,WL,A,2.0
6,3.382999897003174,distr,56617.000102996826,Fri Sep 12 2025 15:09:06 GMT-0500 (Central Daylight Time),757629.2000000477,B,judg,O,g,282,1,1368.7000000476837,756260.5,7223,WL,A,2.0
6,4.049000024795532,distr,55950.99997520447,Fri Sep 12 2025 15:09:06 GMT-0500 (Central Daylight Time),758295.2000000477,B,judge,O,e,648,1,2034.7000000476837,756260.5,7223,WL,A,2.0
6,4.348999977111816,distr,55651.00002288818,Fri Sep 12 2025 15:09:06 GMT-0500 (Central Daylight Time),758595.4000000954,B,judgeenter,O,enter,295,1,2334.9000000953674,756260.5,7223,WL,A,2.0
6,4.915999889373779,distr,55084.00011062622,Fri Sep 12 2025 15:09:06 GMT-0500 (Central Daylight Time),759162.4000000954,B,i,O,i,554,1,566.7000000476837,758595.7000000477,7223,WL,A,3.0
6,5.134000062942505,distr,54865.999937057495,Fri Sep 12 2025 15:09:06 GMT-0500 (Central Daylight Time),759380.7000000477,B,in,O,n,197,1,785.0,758595.7000000477,7223,WL,A,3.0
6,5.33299994468689,distr,54667.00005531311,Fri Sep 12 2025 15:09:06 GMT-0500 (Central Daylight Time),759579.3000000715,B,ins,O,s,178,1,983.6000000238419,758595.7000000477,7223,WL,A,3.0
6,5.565999984741211,distr,54434.00001525879,Fri Sep 12 2025 15:09:06 GMT-0500 (Central Daylight Time),759812.1000000238,B,inse,O,e,218,1,1216.3999999761581,758595.7000000477,7223,WL,A,3.0
6,6.014999866485596,distr,53985.000133514404,Fri Sep 12 2025 15:09:06 GMT-0500 (Central Daylight Time),760260.9000000954,B,insec,O,c,433,1,1665.2000000476837,758595.7000000477,7223,WL,A,3.0
6,6.299000024795532,distr,53700.99997520447,Fri Sep 12 2025 15:09:06 GMT-0500 (Central Daylight Time),760545.6000000238,B,insect,O,t,272,1,1949.8999999761581,758595.7000000477,7223,WL,A,3.0
6,6.5309998989105225,distr,53469.00010108948,Fri Sep 12 2025 15:09:06 GMT-0500 (Central Daylight Time),760777.1000000238,B,insectenter,O,enter,212,1,2181.399999976158,758595.7000000477,7223,WL,A,3.0
6,6.747999906539917,distr,53252.00009346008,Fri Sep 12 2025 15:09:06 GMT-0500 (Central Daylight Time),760994.5,B,s,O,s,198,1,217.09999990463257,760777.4000000954,7223,WL,A,4.0
6,6.997999906539917,distr,53002.00009346008,Fri Sep 12 2025 15:09:06 GMT-0500 (Central Daylight Time),761244.0,B,se,O,e,236,1,466.59999990463257,760777.4000000954,7223,WL,A,4.0
6,7.182999849319458,distr,52817.00015068054,Fri Sep 12 2025 15:09:06 GMT-0500 (Central Daylight Time),761429.2000000477,B,see,O,e,179,1,651.7999999523163,760777.4000000954,7223,WL,A,4.0
6,7.414999961853027,distr,52585.00003814697,Fri Sep 12 2025 15:09:06 GMT-0500 (Central Daylight Time),761661.1000000238,B,seed,O,d,224,1,883.6999999284744,760777.4000000954,7223,WL,A,4.0
6,7.813999891281128,distr,52186.00010871887,Fri Sep 12 2025 15:09:06 GMT-0500 (Central Daylight Time),762060.2000000477,B,seedenter,O,enter,383,1,1282.7999999523163,760777.4000000954,7223,WL,A,4.0
6,8.21399998664856,distr,51786.00001335144,Fri Sep 12 2025 15:09:06 GMT-0500 (Central Daylight Time),762460.4000000954,B,s,O,s,384,1,399.90000009536743,762060.5,7223,WL,A,5.0
6,8.365000009536743,distr,51634.99999046326,Fri Sep 12 2025 15:09:06 GMT-0500 (Central Daylight Time),762611.2000000477,B,sh,O,h,138,1,550.7000000476837,762060.5,7223,WL,A,5.0
6,8.580999851226807,distr,51419.00014877319,Fri Sep 12 2025 15:09:06 GMT-0500 (Central Daylight Time),762827.2000000477,B,she,O,e,201,1,766.7000000476837,762060.5,7223,WL,A,5.0
6,8.780999898910522,distr,51219.00010108948,Fri Sep 12 2025 15:09:06 GMT-0500 (Central Daylight Time),763027.6000000238,B,shee,O,e,186,1,967.1000000238419,762060.5,7223,WL,A,5.0
6,8.947999954223633,distr,51052.00004577637,Fri Sep 12 2025 15:09:06 GMT-0500 (Central Daylight Time),763194.3000000715,B,sheep,O,p,155,1,1133.8000000715256,762060.5,7223,WL,A,5.0
6,9.69700002670288,distr,50302.99997329712,Fri Sep 12 2025 15:09:06 GMT-0500 (Central Daylight Time),763943.2000000477,B,sheepenter,O,enter,739,1,1882.7000000476837,762060.5,7223,WL,A,5.0
6,14.062999963760376,distr,45937.000036239624,Fri Sep 12 2025 15:09:06 GMT-0500 (Central Daylight Time),768309.3000000715,B,d,O,d,4351,1,4365.800000071526,763943.5,7223,WL,A,6.0
6,14.230999946594238,distr,45769.00005340576,Fri Sep 12 2025 15:09:06 GMT-0500 (Central Daylight Time),768477.2000000477,B,du,O,u,153,1,4533.700000047684,763943.5,7223,WL,A,6.0
6,14.379999876022339,distr,45620.00012397766,Fri Sep 12 2025 15:09:06 GMT-0500 (Central Daylight Time),768626.7000000477,B,dug,O,g,129,1,4683.200000047684,763943.5,7223,WL,A,6.0
6,14.578999996185303,distr,45421.0000038147,Fri Sep 12 2025 15:09:06 GMT-0500 (Central Daylight Time),768825.2000000477,B,dugenter,O,enter,178,1,4881.700000047684,763943.5,7223,WL,A,6.0
6,19.89400005340576,distr,40105.99994659424,Fri Sep 12 2025 15:09:06 GMT-0500 (Central Daylight Time),774140.7000000477,B,j,O,j,5300,1,5315.299999952316,768825.4000000954,7223,WL,A,7.0
6,20.07800006866455,distr,39921.99993133545,Fri Sep 12 2025 15:09:06 GMT-0500 (Central Daylight Time),774324.1000000238,B,ju,O,u,178,1,5498.699999928474,768825.4000000954,7223,WL,A,7.0
6,20.259999990463257,distr,39740.00000953674,Fri Sep 12 2025 15:09:06 GMT-0500 (Central Daylight Time),774506.1000000238,B,jud,O,d,167,1,5680.699999928474,768825.4000000954,7223,WL,A,7.0
6,20.494999885559082,distr,39505.00011444092,Fri Sep 12 2025 15:09:06 GMT-0500 (Central Daylight Time),774741.2000000477,B,jude,O,e,219,1,5915.799999952316,768825.4000000954,7223,WL,A,7.0
6,21.14299988746643,distr,38857.00011253357,Fri Sep 12 2025 15:09:06 GMT-0500 (Central Daylight Time),775388.9000000954,B,jud,O,backspace,639,1,6563.5,768825.4000000954,7223,WL,A,7.0
6,21.276999950408936,distr,38723.000049591064,Fri Sep 12 2025 15:09:06 GMT-0500 (Central Daylight Time),775524.0,B,judg,O,g,121,1,6698.599999904633,768825.4000000954,7223,WL,A,7.0
6,21.47699999809265,distr,38523.00000190735,Fri Sep 12 2025 15:09:06 GMT-0500 (Central Daylight Time),775723.1000000238,B,judge,O,e,186,1,6897.699999928474,768825.4000000954,7223,WL,A,7.0
6,21.743000030517578,distr,38256.99996948242,Fri Sep 12 2025 15:09:06 GMT-0500 (Central Daylight Time),775989.3000000715,B,judgeenter,O,enter,249,1,7163.899999976158,768825.4000000954,7223,WL,A,7.0
6,25.47699999809265,distr,34523.00000190735,Fri Sep 12 2025 15:09:06 GMT-0500 (Central Daylight Time),779723.8000000715,B,p,O,p,3713,1,3734.3000000715256,775989.5,7223,WL,A,8.0
6,25.692999839782715,distr,34307.000160217285,Fri Sep 12 2025 15:09:06 GMT-0500 (Central Daylight Time),779940.0,B,pl,O,l,193,1,3950.5,775989.5,7223,WL,A,8.0
6,25.79200005531311,distr,34207.99994468689,Fri Sep 12 2025 15:09:06 GMT-0500 (Central Daylight Time),780038.6000000238,B,pla,O,a,89,1,4049.100000023842,775989.5,7223,WL,A,8.0
6,25.960000038146973,distr,34039.99996185303,Fri Sep 12 2025 15:09:06 GMT-0500 (Central Daylight Time),780207.1000000238,B,plan,O,n,150,1,4217.600000023842,775989.5,7223,WL,A,8.0
6,26.10800004005432,distr,33891.99995994568,Fri Sep 12 2025 15:09:06 GMT-0500 (Central Daylight Time),780354.7000000477,B,plane,O,e,134,1,4365.200000047684,775989.5,7223,WL,A,8.0
6,26.29200005531311,distr,33707.99994468689,Fri Sep 12 2025 15:09:06 GMT-0500 (Central Daylight Time),780538.4000000954,B,planeenter,O,enter,163,1,4548.900000095367,775989.5,7223,WL,A,8.0
6,27.573999881744385,distr,32426.000118255615,Fri Sep 12 2025 15:09:06 GMT-0500 (Central Daylight Time),781820.8000000715,B,enter,O,enter,1261,1,1282.1000000238419,780538.7000000477,7223,WL,A,9.0
6,27.79099988937378,distr,32209.00011062622,Fri Sep 12 2025 15:09:06 GMT-0500 (Central Daylight Time),782037.5,B,enter,O,enter,195,1,216.29999995231628,781821.2000000477,7223,WL,A,10.0
6,28.274999856948853,distr,31725.000143051147,Fri Sep 12 2025 15:09:06 GMT-0500 (Central Daylight Time),782521.5,B,enter,O,enter,464,1,483.7999999523163,782037.7000000477,7223,WL,A,11.0
6,28.45799994468689,distr,31542.00005531311,Fri Sep 12 2025 15:09:06 GMT-0500 (Central Daylight Time),782704.4000000954,B,enter,O,enter,173,1,182.60000002384186,782521.8000000715,7223,WL,A,12.0
6,28.674000024795532,distr,31325.999975204468,Fri Sep 12 2025 15:09:06 GMT-0500 (Central Daylight Time),782920.2000000477,B,enter,O,enter,197,1,215.60000002384186,782704.6000000238,7223,WL,A,13.0
6,28.83999991416931,distr,31160.00008583069,Fri Sep 12 2025 15:09:06 GMT-0500 (Central Daylight Time),783086.9000000954,B,enter,O,enter,149,1,166.40000009536743,782920.5,7223,WL,A,14.0
6,29.039999961853027,distr,30960.000038146973,Fri Sep 12 2025 15:09:06 GMT-0500 (Central Daylight Time),783286.9000000954,B,enter,O,enter,182,1,199.60000002384186,783087.3000000715,7223,WL,A,15.0
7,1.2450001239776611,immed,58754.99987602234,Fri Sep 12 2025 15:09:06 GMT-0500 (Central Daylight Time),822174.0,A,r,O,r,1237,1,1244.3999999761581,820929.6000000238,7223,WL,A,1.0
7,1.3450000286102295,immed,58654.99997138977,Fri Sep 12 2025 15:09:06 GMT-0500 (Central Daylight Time),822273.8000000715,A,ru,O,u,85,1,1344.2000000476837,820929.6000000238,7223,WL,A,1.0
7,1.562999963760376,immed,58437.000036239624,Fri Sep 12 2025 15:09:06 GMT-0500 (Central Daylight Time),822491.7000000477,A,rug,O,g,194,1,1562.1000000238419,820929.6000000238,7223,WL,A,1.0
7,1.9620001316070557,immed,58037.999868392944,Fri Sep 12 2025 15:09:06 GMT-0500 (Central Daylight Time),822890.9000000954,A,rugenter,O,enter,383,1,1961.3000000715256,820929.6000000238,7223,WL,A,1.0
7,2.8949999809265137,immed,57105.000019073486,Fri Sep 12 2025 15:09:06 GMT-0500 (Central Daylight Time),823823.6000000238,A,r,O,r,914,1,932.5,822891.1000000238,7223,WL,A,2.0
7,3.0789999961853027,immed,56921.0000038147,Fri Sep 12 2025 15:09:06 GMT-0500 (Central Daylight Time),824008.0,A,ra,O,a,172,1,1116.8999999761581,822891.1000000238,7223,WL,A,2.0
7,3.246000051498413,immed,56753.99994850159,Fri Sep 12 2025 15:09:06 GMT-0500 (Central Daylight Time),824174.3000000715,A,rat,O,t,156,1,1283.2000000476837,822891.1000000238,7223,WL,A,2.0
7,3.3949999809265137,immed,56605.000019073486,Fri Sep 12 2025 15:09:06 GMT-0500 (Central Daylight Time),824323.6000000238,A,ratt,O,t,140,1,1432.5,822891.1000000238,7223,WL,A,2.0
7,3.6610000133514404,immed,56338.99998664856,Fri Sep 12 2025 15:09:06 GMT-0500 (Central Daylight Time),824589.8000000715,A,rattl,O,l,258,1,1698.7000000476837,822891.1000000238,7223,WL,A,2.0
7,3.8289999961853027,immed,56171.0000038147,Fri Sep 12 2025 15:09:06 GMT-0500 (Central Daylight Time),824757.3000000715,A,rattle,O,e,157,1,1866.2000000476837,822891.1000000238,7223,WL,A,2.0
7,3.9769999980926514,immed,56023.00000190735,Fri Sep 12 2025 15:09:06 GMT-0500 (Central Daylight Time),824905.8000000715,A,rattleenter,O,enter,135,1,2014.7000000476837,822891.1000000238,7223,WL,A,2.0
7,5.144000053405762,immed,54855.99994659424,Fri Sep 12 2025 15:09:06 GMT-0500 (Central Daylight Time),826072.6000000238,A,f,O,f,1147,1,1166.6000000238419,824906.0,7223,WL,A,3.0
7,5.24399995803833,immed,54756.00004196167,Fri Sep 12 2025 15:09:06 GMT-0500 (Central Daylight Time),826172.6000000238,A,fi,O,i,81,1,1266.6000000238419,824906.0,7223,WL,A,3.0
7,5.444000005722046,immed,54555.999994277954,Fri Sep 12 2025 15:09:06 GMT-0500 (Central Daylight Time),826372.5,A,fin,O,n,182,1,1466.5,824906.0,7223,WL,A,3.0
7,5.543999910354614,immed,54456.000089645386,Fri Sep 12 2025 15:09:06 GMT-0500 (Central Daylight Time),826472.6000000238,A,fing,O,g,79,1,1566.6000000238419,824906.0,7223,WL,A,3.0
7,5.74399995803833,immed,54256.00004196167,Fri Sep 12 2025 15:09:06 GMT-0500 (Central Daylight Time),826673.1000000238,A,finge,O,e,189,1,1767.1000000238419,824906.0,7223,WL,A,3.0
7,5.8440001010894775,immed,54155.99989891052,Fri Sep 12 2025 15:09:06 GMT-0500 (Central Daylight Time),826772.4000000954,A,finger,O,r,83,1,1866.4000000953674,824906.0,7223,WL,A,3.0
7,6.062000036239624,immed,53937.999963760376,Fri Sep 12 2025 15:09:06 GMT-0500 (Central Daylight Time),826990.4000000954,A,fingerenter,O,enter,197,1,2084.4000000953674,824906.0,7223,WL,A,3.0
7,7.077000141143799,immed,52922.9998588562,Fri Sep 12 2025 15:09:06 GMT-0500 (Central Daylight Time),828005.4000000954,A,s,O,s,999,1,1014.7000000476837,826990.7000000477,7223,WL,A,4.0
7,7.259999990463257,immed,52740.00000953674,Fri Sep 12 2025 15:09:06 GMT-0500 (Central Daylight Time),828188.8000000715,A,sa,O,a,172,1,1198.1000000238419,826990.7000000477,7223,WL,A,4.0
7,7.41100001335144,immed,52588.99998664856,Fri Sep 12 2025 15:09:06 GMT-0500 (Central Daylight Time),828339.4000000954,A,sal,O,l,135,1,1348.7000000476837,826990.7000000477,7223,WL,A,4.0
7,8.292999982833862,immed,51707.00001716614,Fri Sep 12 2025 15:09:06 GMT-0500 (Central Daylight Time),829221.4000000954,A,salt,O,t,866,1,2230.7000000476837,826990.7000000477,7223,WL,A,4.0
7,8.91100001335144,immed,51088.99998664856,Fri Sep 12 2025 15:09:06 GMT-0500 (Central Daylight Time),829839.3000000715,A,saltenter,O,enter,607,1,2848.600000023842,826990.7000000477,7223,WL,A,4.0
7,9.309000015258789,immed,50690.99998474121,Fri Sep 12 2025 15:09:06 GMT-0500 (Central Daylight Time),830237.4000000954,A,h,O,h,381,1,397.7000000476837,829839.7000000477,7223,WL,A,5.0
7,9.39300012588501,immed,50606.99987411499,Fri Sep 12 2025 15:09:06 GMT-0500 (Central Daylight Time),830321.4000000954,A,ha,O,a,61,1,481.7000000476837,829839.7000000477,7223,WL,A,5.0
7,9.509999990463257,immed,50490.00000953674,Fri Sep 12 2025 15:09:06 GMT-0500 (Central Daylight Time),830438.4000000954,A,har,O,r,94,1,598.7000000476837,829839.7000000477,7223,WL,A,5.0
7,9.759000062942505,immed,50240.999937057495,Fri Sep 12 2025 15:09:06 GMT-0500 (Central Daylight Time),830687.6000000238,A,harp,O,p,227,1,847.8999999761581,829839.7000000477,7223,WL,A,5.0
7,10.427000045776367,immed,49572.99995422363,Fri Sep 12 2025 15:09:06 GMT-0500 (Central Daylight Time),831355.1000000238,A,harpenter,O,enter,651,1,1515.3999999761581,829839.7000000477,7223,WL,A,5.0
7,10.910000085830688,immed,49089.99991416931,Fri Sep 12 2025 15:09:06 GMT-0500 (Central Daylight Time),831838.6000000238,A,g,O,g,474,1,483.10000002384186,831355.5,7223,WL,A,6.0
7,11.026000022888184,immed,48973.99997711182,Fri Sep 12 2025 15:09:06 GMT-0500 (Central Daylight Time),831954.5,A,go,O,o,99,1,599.0,831355.5,7223,WL,A,6.0
7,11.2260000705719,immed,48773.9999294281,Fri Sep 12 2025 15:09:06 GMT-0500 (Central Daylight Time),832154.9000000954,A,gol,O,l,183,1,799.4000000953674,831355.5,7223,WL,A,6.0
7,11.377000093460083,immed,48622.99990653992,Fri Sep 12 2025 15:09:06 GMT-0500 (Central Daylight Time),832305.0,A,gold,O,d,135,1,949.5,831355.5,7223,WL,A,6.0
7,11.54200005531311,immed,48457.99994468689,Fri Sep 12 2025 15:09:06 GMT-0500 (Central Daylight Time),832470.9000000954,A,goldenter,O,enter,154,1,1115.4000000953674,831355.5,7223,WL,A,6.0
7,16.824000120162964,immed,43175.999879837036,Fri Sep 12 2025 15:09:06 GMT-0500 (Central Daylight Time),837752.9000000954,A,l,O,l,5270,1,5281.700000047684,832471.2000000477,7223,WL,A,7.0
7,17.008000135421753,immed,42991.99986457825,Fri Sep 12 2025 15:09:06 GMT-0500 (Central Daylight Time),837936.4000000954,A,lo,O,o,170,1,5465.200000047684,832471.2000000477,7223,WL,A,7.0
7,17.157999992370605,immed,42842.000007629395,Fri Sep 12 2025 15:09:06 GMT-0500 (Central Daylight Time),838086.5,A,log,O,g,132,1,5615.299999952316,832471.2000000477,7223,WL,A,7.0
7,17.324000120162964,immed,42675.999879837036,Fri Sep 12 2025 15:09:06 GMT-0500 (Central Daylight Time),838252.4000000954,A,logenter,O,enter,158,1,5781.200000047684,832471.2000000477,7223,WL,A,7.0
7,17.7260000705719,immed,42273.9999294281,Fri Sep 12 2025 15:09:06 GMT-0500 (Central Daylight Time),838654.6000000238,A,k,O,k,397,1,402.0,838252.6000000238,7223,WL,A,8.0
7,17.926000118255615,immed,42073.999881744385,Fri Sep 12 2025 15:09:06 GMT-0500 (Central Daylight Time),838854.3000000715,A,ke,O,e,194,1,601.7000000476837,838252.6000000238,7223,WL,A,8.0
7,18.02300000190735,immed,41976.99999809265,Fri Sep 12 2025 15:09:06 GMT-0500 (Central Daylight Time),838951.8000000715,A,key,O,y,87,1,699.2000000476837,838252.6000000238,7223,WL,A,8.0
7,18.33899998664856,immed,41661.00001335144,Fri Sep 12 2025 15:09:06 GMT-0500 (Central Daylight Time),839268.0,A,keyenter,O,enter,301,1,1015.3999999761581,838252.6000000238,7223,WL,A,8.0
7,19.075000047683716,immed,40924.999952316284,Fri Sep 12 2025 15:09:06 GMT-0500 (Central Daylight Time),840003.2000000477,A,c,O,c,730,1,735.0,839268.2000000477,7223,WL,A,9.0
7,19.17300009727478,immed,40826.99990272522,Fri Sep 12 2025 15:09:06 GMT-0500 (Central Daylight Time),840102.2000000477,A,ch,O,h,89,1,834.0,839268.2000000477,7223,WL,A,9.0
7,19.456000089645386,immed,40543.999910354614,Fri Sep 12 2025 15:09:06 GMT-0500 (Central Daylight Time),840385.3000000715,A,chi,O,i,263,1,1117.1000000238419,839268.2000000477,7223,WL,A,9.0
7,19.674000024795532,immed,40325.99997520447,Fri Sep 12 2025 15:09:06 GMT-0500 (Central Daylight Time),840602.5,A,chim,O,m,209,1,1334.2999999523163,839268.2000000477,7223,WL,A,9.0
7,20.256999969482422,immed,39743.00003051758,Fri Sep 12 2025 15:09:06 GMT-0500 (Central Daylight Time),841186.0,A,chimn,O,n,570,1,1917.7999999523163,839268.2000000477,7223,WL,A,9.0
7,20.42300009727478,immed,39576.99990272522,Fri Sep 12 2025 15:09:06 GMT-0500 (Central Daylight Time),841352.2000000477,A,chimne,O,e,147,1,2084.0,839268.2000000477,7223,WL,A,9.0
7,20.539000034332275,immed,39460.999965667725,Fri Sep 12 2025 15:09:06 GMT-0500 (Central Daylight Time),841467.5,A,chimney,O,y,99,1,2199.2999999523163,839268.2000000477,7223,WL,A,9.0
7,21.506999969482422,immed,38493.00003051758,Fri Sep 12 2025 15:09:06 GMT-0500 (Central Daylight Time),842435.8000000715,A,chimneyenter,O,enter,965,1,3167.600000023842,839268.2000000477,7223,WL,A,9.0
7,23.855000019073486,immed,36144.999980926514,Fri Sep 12 2025 15:09:06 GMT-0500 (Central Daylight Time),844784.3000000715,A,r,O,r,2338,1,2348.3000000715256,842436.0,7223,WL,A,10.0
7,23.937999963760376,immed,36062.000036239624,Fri Sep 12 2025 15:09:06 GMT-0500 (Central Daylight Time),844867.3000000715,A,ru,O,u,69,1,2431.3000000715256,842436.0,7223,WL,A,10.0
7,24.123000144958496,immed,35876.999855041504,Fri Sep 12 2025 15:09:06 GMT-0500 (Central Daylight Time),845051.7000000477,A,rug,O,g,168,1,2615.7000000476837,842436.0,7223,WL,A,10.0
7,24.32200002670288,immed,35677.99997329712,Fri Sep 12 2025 15:09:06 GMT-0500 (Central Daylight Time),845250.5,A,rugenter,O,enter,192,1,2814.5,842436.0,7223,WL,A,10.0
7,26.704999923706055,immed,33295.000076293945,Fri Sep 12 2025 15:09:06 GMT-0500 (Central Daylight Time),847633.4000000954,A,m,O,m,2371,1,2382.600000023842,845250.8000000715,7223,WL,A,11.0
7,26.871000051498413,immed,33128.99994850159,Fri Sep 12 2025 15:09:06 GMT-0500 (Central Daylight Time),847799.7000000477,A,me,O,e,155,1,2548.899999976158,845250.8000000715,7223,WL,A,11.0
7,27.105000019073486,immed,32894.999980926514,Fri Sep 12 2025 15:09:06 GMT-0500 (Central Daylight Time),848033.8000000715,A,med,O,d,219,1,2783.0,845250.8000000715,7223,WL,A,11.0
7,27.954999923706055,immed,32045.000076293945,Fri Sep 12 2025 15:09:06 GMT-0500 (Central Daylight Time),848883.9000000954,A,me,O,backspace,837,1,3633.100000023842,845250.8000000715,7223,WL,A,11.0
7,28.05400013923645,immed,31945.99986076355,Fri Sep 12 2025 15:09:06 GMT-0500 (Central Daylight Time),848982.6000000238,A,mea,O,a,82,1,3731.7999999523163,845250.8000000715,7223,WL,A,11.0
7,28.20300006866455,immed,31796.99993133545,Fri Sep 12 2025 15:09:06 GMT-0500 (Central Daylight Time),849132.1000000238,A,mead,O,d,133,1,3881.2999999523163,845250.8000000715,7223,WL,A,11.0
7,28.503999948501587,immed,31496.000051498413,Fri Sep 12 2025 15:09:06 GMT-0500 (Central Daylight Time),849432.9000000954,A,meado,O,o,278,1,4182.100000023842,845250.8000000715,7223,WL,A,11.0
7,28.769999980926514,immed,31230.000019073486,Fri Sep 12 2025 15:09:06 GMT-0500 (Central Daylight Time),849699.1000000238,A,meadow,O,w,260,1,4448.299999952316,845250.8000000715,7223,WL,A,11.0
7,29.653000116348267,immed,30346.999883651733,Fri Sep 12 2025 15:09:06 GMT-0500 (Central Daylight Time),850581.9000000954,A,meadowenter,O,enter,865,1,5331.100000023842,845250.8000000715,7223,WL,A,11.0
7,37.05200004577637,immed,22947.999954223633,Fri Sep 12 2025 15:09:06 GMT-0500 (Central Daylight Time),857980.8000000715,A,r,O,r,7385,1,7398.600000023842,850582.2000000477,7223,WL,A,12.0
