Q,Q1,Q2,Q3,Q4,acc_sum,block,block_c,correct,correct_response,datetime,endtime,project,response,response_time,row_sel,session_number,squiggle1,squiggle1x,squiggle1y,squiggle2,squiggle2x,squiggle2y,squiggle3,squiggle3x,squiggle3y,squiggle4,squiggle4x,squiggle4y,start_end,starttime,subject_id,target_congruent,task,task_vers,testsquiggle,testsquigglex,testsquiggley,time_practice_delay,time_practice_fixation,time_practice_stimuli,time_practice_study,time_test_delay,time_test_fixation,time_test_stimuli,time_test_study,trial
1,1,0,0,0,0,prac,1,0,z,Wed Apr 01 2026 16:23:36 GMT-0400 (Eastern Daylight Time),162870.60000014305,I,m,1497,1,1,116.bmp,-120,-120,117.bmp,120,-120,118.bmp,-120,120,119.bmp,120,120,10309.800000190735,152560.79999995232,9076,yes,SM,A,116.bmp,-120,-120,155388,149362,157405,151372,,,,,1
3,0,0,1,0,0,prac,1,0,m,Wed Apr 01 2026 16:23:36 GMT-0400 (Eastern Daylight Time),173703.60000014305,I,None,2016,2,1,120.bmp,-120,-120,121.bmp,120,-120,122.bmp,-120,120,123.bmp,120,120,10824.800000190735,162878.79999995232,9076,no,SM,A,123.bmp,-120,120,165705,159680,167722,161689,,,,,2
4,0,0,0,1,0,prac,1,0,m,Wed Apr 01 2026 16:23:36 GMT-0400 (Eastern Daylight Time),184536.90000009537,I,None,2016,3,1,124.bmp,-120,-120,125.bmp,120,-120,126.bmp,-120,120,127.bmp,120,120,10825.799999952316,173711.10000014305,9076,no,SM,A,124.bmp,120,120,176538,170512,178555,172522,,,,,3
2,0,1,0,0,0,prac,1,0,z,Wed Apr 01 2026 16:23:36 GMT-0400 (Eastern Daylight Time),195370.10000014305,I,None,2015,4,1,128.bmp,-120,-120,129.bmp,120,-120,130.bmp,-120,120,131.bmp,120,120,10822.300000190735,184547.79999995232,9076,yes,SM,A,129.bmp,120,-120,187372,181350,189389,183355,,,,,4
3,0,0,1,0,0,prac,1,0,z,Wed Apr 01 2026 16:23:36 GMT-0400 (Eastern Daylight Time),205753.60000014305,I,m,1561,5,1,132.bmp,-120,-120,133.bmp,120,-120,134.bmp,-120,120,135.bmp,120,120,10375.400000095367,195378.20000004768,9076,yes,SM,A,134.bmp,-120,120,198205,192179,200222,194189,,,,,5
1,1,0,0,0,0,prac,1,0,m,Wed Apr 01 2026 16:23:36 GMT-0400 (Eastern Daylight Time),215936.90000009537,I,z,1354,6,1,136.bmp,-120,-120,137.bmp,120,-120,138.bmp,-120,120,139.bmp,120,120,10173.0,205763.90000009537,9076,no,SM,A,139.bmp,-120,-120,208588,202565,210605,204572,,,,,6
2,0,1,0,0,0,prac,1,0,m,Wed Apr 01 2026 16:23:36 GMT-0400 (Eastern Daylight Time),226336.79999995232,I,z,1571,7,1,140.bmp,-120,-120,141.bmp,120,-120,142.bmp,-120,120,143.bmp,120,120,10392.599999904633,215944.20000004768,9076,no,SM,A,140.bmp,120,-120,218771,212746,220788,214755,,,,,7
4,0,0,0,1,0,prac,1,0,z,Wed Apr 01 2026 16:23:36 GMT-0400 (Eastern Daylight Time),237170.29999995232,I,None,2015,8,1,144.bmp,-120,-120,145.bmp,120,-120,146.bmp,-120,120,147.bmp,120,120,10824.5,226345.79999995232,9076,yes,SM,A,147.bmp,120,120,229171,223147,231189,225155,,,,,8
1,1,0,0,0,1,prac,2,1,z,Wed Apr 01 2026 16:23:36 GMT-0400 (Eastern Daylight Time),267070.2999999523,I,z,1656,1,1,116.bmp,-120,-120,117.bmp,120,-120,118.bmp,-120,120,119.bmp,120,120,10476.399999856949,256593.90000009537,9076,yes,SM,A,116.bmp,-120,-120,259421,253395,261438,255405,,,,,1
3,0,0,1,0,1,prac,2,0,m,Wed Apr 01 2026 16:23:36 GMT-0400 (Eastern Daylight Time),276936.7999999523,I,z,1045,2,1,120.bmp,-120,-120,121.bmp,120,-120,122.bmp,-120,120,123.bmp,120,120,9859.599999904633,267077.2000000477,9076,no,SM,A,123.bmp,-120,120,269905,263878,271922,265888,,,,,2
4,0,0,0,1,2,prac,2,1,m,Wed Apr 01 2026 16:23:36 GMT-0400 (Eastern Daylight Time),287603.5,I,m,1835,3,1,124.bmp,-120,-120,125.bmp,120,-120,126.bmp,-120,120,127.bmp,120,120,10659.5,276944.0,9076,no,SM,A,124.bmp,120,120,279772,273745,281788,275755,,,,,3
2,0,1,0,0,3,prac,2,1,z,Wed Apr 01 2026 16:23:36 GMT-0400 (Eastern Daylight Time),297920.2000000477,I,z,1488,4,1,128.bmp,-120,-120,129.bmp,120,-120,130.bmp,-120,120,131.bmp,120,120,10309.700000047684,287610.5,9076,yes,SM,A,129.bmp,120,-120,290438,284412,292455,286422,,,,,4
3,0,0,1,0,4,prac,2,1,z,Wed Apr 01 2026 16:23:36 GMT-0400 (Eastern Daylight Time),308220.2999999523,I,z,1476,5,1,132.bmp,-120,-120,133.bmp,120,-120,134.bmp,-120,120,135.bmp,120,120,10290.799999952316,297929.5,9076,yes,SM,A,134.bmp,-120,120,300755,294731,302771,296738,,,,,5
1,1,0,0,0,5,prac,2,1,m,Wed Apr 01 2026 16:23:36 GMT-0400 (Eastern Daylight Time),318536.7999999523,I,m,1494,6,1,136.bmp,-120,-120,137.bmp,120,-120,138.bmp,-120,120,139.bmp,120,120,10308.899999856949,308227.90000009537,9076,no,SM,A,139.bmp,-120,-120,311055,305029,313072,307038,,,,,6
2,0,1,0,0,6,prac,2,1,m,Wed Apr 01 2026 16:23:36 GMT-0400 (Eastern Daylight Time),329020.2000000477,I,m,1658,7,1,140.bmp,-120,-120,141.bmp,120,-120,142.bmp,-120,120,143.bmp,120,120,10477.0,318543.2000000477,9076,no,SM,A,140.bmp,120,-120,321371,315344,323388,317355,,,,,7
4,0,0,0,1,7,prac,2,1,z,Wed Apr 01 2026 16:23:36 GMT-0400 (Eastern Daylight Time),339520.2000000477,I,z,1672,8,1,144.bmp,-120,-120,145.bmp,120,-120,146.bmp,-120,120,147.bmp,120,120,10492.5,329027.7000000477,9076,yes,SM,A,147.bmp,120,120,331855,325829,333871,327838,,,,,8
4,0,0,0,1,1,test,1,1,m,Wed Apr 01 2026 16:23:36 GMT-0400 (Eastern Daylight Time),367086.7999999523,I,m,1623,1,1,148.bmp,-120,-120,149.bmp,120,-120,150.bmp,-120,120,143.bmp,120,120,9677.099999904633,357409.7000000477,9076,no,SM,A,150.bmp,120,120,331855,325829,333871,327838,360238.0,354211.0,362255.0,356222.0,1
2,0,1,0,0,2,test,1,1,m,Wed Apr 01 2026 16:23:36 GMT-0400 (Eastern Daylight Time),376553.2999999523,I,m,1412,2,1,101.bmp,-120,-120,102.bmp,120,-120,103.bmp,-120,120,104.bmp,120,120,9455.5,367097.7999999523,9076,no,SM,A,103.bmp,120,-120,331855,325829,333871,327838,369921.0,363899.0,371938.0,365905.0,2
1,1,0,0,0,3,test,1,1,z,Wed Apr 01 2026 16:23:36 GMT-0400 (Eastern Daylight Time),386503.2000000477,I,z,1897,3,1,105.bmp,-120,-120,106.bmp,120,-120,107.bmp,-120,120,108.bmp,120,120,9943.200000047684,376560.0,9076,yes,SM,A,105.bmp,-120,-120,331855,325829,333871,327838,379388.0,373361.0,381405.0,375371.0,3
3,0,0,1,0,4,test,1,1,m,Wed Apr 01 2026 16:23:36 GMT-0400 (Eastern Daylight Time),396053.2000000477,I,m,1484,4,1,109.bmp,-120,-120,110.bmp,120,-120,111.bmp,-120,120,112.bmp,120,120,9543.5,386509.7000000477,9076,no,SM,A,109.bmp,-120,120,331855,325829,333871,327838,389338.0,383311.0,391355.0,385321.0,4
2,0,1,0,0,5,test,1,1,z,Wed Apr 01 2026 16:23:36 GMT-0400 (Eastern Daylight Time),405986.5,I,z,1869,5,1,113.bmp,-120,-120,114.bmp,120,-120,115.bmp,-120,120,116.bmp,120,120,9926.5,396060.0,9076,yes,SM,A,114.bmp,120,-120,331855,325829,333871,327838,398888.0,392861.0,400905.0,394872.0,5
3,0,0,1,0,6,test,1,1,z,Wed Apr 01 2026 16:23:36 GMT-0400 (Eastern Daylight Time),415269.7999999523,I,z,1232,6,1,117.bmp,-120,-120,118.bmp,120,-120,119.bmp,-120,120,120.bmp,120,120,9275.399999856949,405994.40000009537,9076,yes,SM,A,119.bmp,-120,120,331855,325829,333871,327838,408821.0,402796.0,410838.0,404805.0,6
4,0,0,0,1,7,test,1,1,z,Wed Apr 01 2026 16:23:36 GMT-0400 (Eastern Daylight Time),424286.60000014305,I,z,956,7,1,121.bmp,-120,-120,122.bmp,120,-120,123.bmp,-120,120,124.bmp,120,120,9010.800000190735,415275.7999999523,9076,yes,SM,A,124.bmp,120,120,331855,325829,333871,327838,418104.0,412077.0,420122.0,414088.0,7
2,0,1,0,0,7,test,1,0,m,Wed Apr 01 2026 16:23:36 GMT-0400 (Eastern Daylight Time),434353.2999999523,I,None,2016,8,1,125.bmp,-120,-120,126.bmp,120,-120,127.bmp,-120,120,128.bmp,120,120,10060.0,424293.2999999523,9076,no,SM,A,125.bmp,120,-120,331855,325829,333871,327838,427121.0,421095.0,429138.0,423105.0,8
3,0,0,1,0,7,test,1,0,m,Wed Apr 01 2026 16:23:36 GMT-0400 (Eastern Daylight Time),444419.90000009537,I,None,2016,9,1,129.bmp,-120,-120,130.bmp,120,-120,131.bmp,-120,120,132.bmp,120,120,10060.100000143051,434359.7999999523,9076,no,SM,A,130.bmp,-120,120,331855,325829,333871,327838,437188.0,431161.0,439205.0,433171.0,9
4,0,0,0,1,8,test,1,1,z,Wed Apr 01 2026 16:23:36 GMT-0400 (Eastern Daylight Time),454086.2000000477,I,z,1615,10,1,137.bmp,-120,-120,138.bmp,120,-120,139.bmp,-120,120,140.bmp,120,120,9659.0,444427.2000000477,9076,yes,SM,A,140.bmp,120,120,331855,325829,333871,327838,447254.0,441228.0,449271.0,443238.0,10
3,0,0,1,0,8,test,1,0,z,Wed Apr 01 2026 16:23:36 GMT-0400 (Eastern Daylight Time),464153.2000000477,I,None,2016,11,1,133.bmp,-120,-120,134.bmp,120,-120,135.bmp,-120,120,136.bmp,120,120,10060.200000047684,454093.0,9076,yes,SM,A,135.bmp,-120,120,331855,325829,333871,327838,456921.0,450894.0,458938.0,452905.0,11
2,0,1,0,0,8,test,1,0,m,Wed Apr 01 2026 16:23:36 GMT-0400 (Eastern Daylight Time),474219.5,I,None,2016,12,1,141.bmp,-120,-120,142.bmp,120,-120,143.bmp,-120,120,144.bmp,120,120,10056.599999904633,464162.90000009537,9076,no,SM,A,141.bmp,120,-120,331855,325829,333871,327838,466988.0,460964.0,469005.0,462971.0,12
3,0,0,1,0,9,test,1,1,m,Wed Apr 01 2026 16:23:36 GMT-0400 (Eastern Daylight Time),483736.5,I,m,1463,13,1,145.bmp,-120,-120,146.bmp,120,-120,147.bmp,-120,120,148.bmp,120,120,9512.899999856949,474223.60000014305,9076,no,SM,A,146.bmp,-120,120,331855,325829,333871,327838,477054.0,471025.0,479071.0,473037.0,13
1,1,0,0,0,10,test,1,1,z,Wed Apr 01 2026 16:23:36 GMT-0400 (Eastern Daylight Time),493269.60000014305,I,z,1482,14,1,149.bmp,-120,-120,150.bmp,120,-120,104.bmp,-120,120,101.bmp,120,120,9525.400000095367,483744.2000000477,9076,yes,SM,A,149.bmp,-120,-120,331855,325829,333871,327838,486571.0,480546.0,488588.0,482555.0,14
4,0,0,0,1,10,test,1,0,m,Wed Apr 01 2026 16:23:36 GMT-0400 (Eastern Daylight Time),502886.2000000477,I,z,1565,15,1,110.bmp,-120,-120,111.bmp,120,-120,112.bmp,-120,120,113.bmp,120,120,9611.0,493275.2000000477,9076,no,SM,A,111.bmp,120,120,331855,325829,333871,327838,496104.0,490076.0,498121.0,492088.0,15
1,1,0,0,0,11,test,1,1,m,Wed Apr 01 2026 16:23:36 GMT-0400 (Eastern Daylight Time),512519.7999999523,I,m,1580,16,1,102.bmp,-120,-120,103.bmp,120,-120,104.bmp,-120,120,105.bmp,120,120,9626.799999952316,502893.0,9076,no,SM,A,105.bmp,-120,-120,331855,325829,333871,327838,505721.0,499694.0,507738.0,501705.0,16
3,0,0,1,0,12,test,1,1,m,Wed Apr 01 2026 16:23:36 GMT-0400 (Eastern Daylight Time),521819.7000000477,I,m,1243,17,1,122.bmp,-120,-120,123.bmp,120,-120,124.bmp,-120,120,125.bmp,120,120,9289.5,512530.2000000477,9076,no,SM,A,122.bmp,-120,120,331855,325829,333871,327838,515354.0,509332.0,517371.0,511338.0,17
1,1,0,0,0,13,test,1,1,z,Wed Apr 01 2026 16:23:36 GMT-0400 (Eastern Daylight Time),531236.5,I,z,1351,18,1,106.bmp,-120,-120,107.bmp,120,-120,108.bmp,-120,120,109.bmp,120,120,9409.599999904633,521826.90000009537,9076,yes,SM,A,106.bmp,-120,-120,331855,325829,333871,327838,524654.0,518628.0,526671.0,520638.0,18
2,0,1,0,0,13,test,1,0,z,Wed Apr 01 2026 16:23:36 GMT-0400 (Eastern Daylight Time),540403.0,I,m,1102,19,1,126.bmp,-120,-120,127.bmp,120,-120,128.bmp,-120,120,129.bmp,120,120,9159.099999904633,531243.9000000954,9076,yes,SM,A,127.bmp,120,-120,331855,325829,333871,327838,534071.0,528045.0,536088.0,530055.0,19
3,0,0,1,0,14,test,1,1,z,Wed Apr 01 2026 16:23:36 GMT-0400 (Eastern Daylight Time),549603.100000143,I,z,1135,20,1,130.bmp,-120,-120,131.bmp,120,-120,132.bmp,-120,120,133.bmp,120,120,9193.300000190735,540409.7999999523,9076,yes,SM,A,132.bmp,-120,120,331855,325829,333871,327838,543238.0,537211.0,545255.0,539221.0,20
1,1,0,0,0,14,test,1,0,m,Wed Apr 01 2026 16:23:36 GMT-0400 (Eastern Daylight Time),559503.0,I,z,1840,21,1,114.bmp,-120,-120,115.bmp,120,-120,116.bmp,-120,120,117.bmp,120,120,9890.399999856949,549612.600000143,9076,no,SM,A,116.bmp,-120,-120,331855,325829,333871,327838,552438.0,546414.0,554454.0,548421.0,21
4,0,0,0,1,15,test,1,1,z,Wed Apr 01 2026 16:23:36 GMT-0400 (Eastern Daylight Time),568703.100000143,I,z,1140,22,1,118.bmp,-120,-120,119.bmp,120,-120,120.bmp,-120,120,121.bmp,120,120,9192.800000190735,559510.2999999523,9076,yes,SM,A,121.bmp,120,120,331855,325829,333871,327838,562338.0,556312.0,564354.0,558321.0,22
1,1,0,0,0,15,test,1,0,m,Wed Apr 01 2026 16:23:36 GMT-0400 (Eastern Daylight Time),578769.7000000477,I,None,2017,23,1,134.bmp,-120,-120,135.bmp,120,-120,136.bmp,-120,120,137.bmp,120,120,10059.200000047684,568710.5,9076,no,SM,A,137.bmp,-120,-120,331855,325829,333871,327838,571538.0,565512.0,573554.0,567521.0,23
2,0,1,0,0,16,test,1,1,z,Wed Apr 01 2026 16:23:36 GMT-0400 (Eastern Daylight Time),588069.7000000477,I,z,1249,24,1,142.bmp,-120,-120,143.bmp,120,-120,144.bmp,-120,120,145.bmp,120,120,9293.099999904633,578776.600000143,9076,yes,SM,A,143.bmp,120,-120,331855,325829,333871,327838,581604.0,575578.0,583621.0,577589.0,24
4,0,0,0,1,17,test,1,1,m,Wed Apr 01 2026 16:23:36 GMT-0400 (Eastern Daylight Time),597569.600000143,I,m,1437,25,1,146.bmp,-120,-120,147.bmp,120,-120,148.bmp,-120,120,149.bmp,120,120,9493.800000190735,588075.7999999523,9076,no,SM,A,148.bmp,120,120,331855,325829,333871,327838,590904.0,584877.0,592921.0,586888.0,25
1,1,0,0,0,18,test,1,1,z,Wed Apr 01 2026 16:23:36 GMT-0400 (Eastern Daylight Time),606769.5,I,z,1137,26,1,138.bmp,-120,-120,139.bmp,120,-120,140.bmp,-120,120,141.bmp,120,120,9192.5,597577.0,9076,yes,SM,A,138.bmp,-120,-120,331855,325829,333871,327838,600404.0,594378.0,602421.0,596388.0,26
4,0,0,0,1,19,test,1,1,z,Wed Apr 01 2026 16:23:36 GMT-0400 (Eastern Daylight Time),616219.600000143,I,z,1393,27,1,150.bmp,-120,-120,111.bmp,120,-120,101.bmp,-120,120,102.bmp,120,120,9442.700000047684,606776.9000000954,9076,yes,SM,A,102.bmp,120,120,331855,325829,333871,327838,609604.0,603578.0,611621.0,605588.0,27
3,0,0,1,0,20,test,1,1,m,Wed Apr 01 2026 16:23:36 GMT-0400 (Eastern Daylight Time),625536.2000000477,I,m,1255,28,1,103.bmp,-120,-120,104.bmp,120,-120,105.bmp,-120,120,106.bmp,120,120,9309.5,616226.7000000477,9076,no,SM,A,103.bmp,-120,120,331855,325829,333871,327838,619054.0,613028.0,621071.0,615038.0,28
2,0,1,0,0,21,test,1,1,z,Wed Apr 01 2026 16:23:36 GMT-0400 (Eastern Daylight Time),635286.0,I,z,1698,29,1,107.bmp,-120,-120,108.bmp,120,-120,109.bmp,-120,120,110.bmp,120,120,9743.299999952316,625542.7000000477,9076,yes,SM,A,108.bmp,120,-120,331855,325829,333871,327838,628371.0,622344.0,630388.0,624354.0,29
3,0,0,1,0,21,test,1,0,z,Wed Apr 01 2026 16:23:36 GMT-0400 (Eastern Daylight Time),645352.9000000954,I,None,2016,30,1,111.bmp,-120,-120,112.bmp,120,-120,113.bmp,-120,120,114.bmp,120,120,10060.900000095367,635292.0,9076,yes,SM,A,113.bmp,-120,120,331855,325829,333871,327838,638121.0,632093.0,640138.0,634104.0,30
1,1,0,0,0,22,test,1,1,z,Wed Apr 01 2026 16:23:36 GMT-0400 (Eastern Daylight Time),654702.9000000954,I,z,1290,31,1,115.bmp,-120,-120,116.bmp,120,-120,117.bmp,-120,120,118.bmp,120,120,9340.600000143051,645362.2999999523,9076,yes,SM,A,115.bmp,-120,-120,331855,325829,333871,327838,648187.0,642164.0,650204.0,644171.0,31
2,0,1,0,0,23,test,1,1,m,Wed Apr 01 2026 16:23:36 GMT-0400 (Eastern Daylight Time),664302.9000000954,I,m,1540,32,1,119.bmp,-120,-120,120.bmp,120,-120,121.bmp,-120,120,122.bmp,120,120,9593.400000095367,654709.5,9076,no,SM,A,119.bmp,120,-120,331855,325829,333871,327838,657537.0,651511.0,659554.0,653521.0,32
4,0,0,0,1,24,test,1,1,z,Wed Apr 01 2026 16:23:36 GMT-0400 (Eastern Daylight Time),673819.5,I,z,1460,33,1,131.bmp,-120,-120,132.bmp,120,-120,133.bmp,-120,120,134.bmp,120,120,9509.5,664310.0,9076,yes,SM,A,134.bmp,120,120,331855,325829,333871,327838,667137.0,661111.0,669154.0,663121.0,33
2,0,1,0,0,25,test,1,1,z,Wed Apr 01 2026 16:23:36 GMT-0400 (Eastern Daylight Time),683336.2000000477,I,z,1463,34,1,123.bmp,-120,-120,124.bmp,120,-120,125.bmp,-120,120,126.bmp,120,120,9509.900000095367,673826.2999999523,9076,yes,SM,A,124.bmp,120,-120,331855,325829,333871,327838,676654.0,670628.0,678671.0,672638.0,34
4,0,0,0,1,25,test,1,0,m,Wed Apr 01 2026 16:23:36 GMT-0400 (Eastern Daylight Time),693402.7999999523,I,None,2016,35,1,127.bmp,-120,-120,128.bmp,120,-120,129.bmp,-120,120,130.bmp,120,120,10057.299999952316,683345.5,9076,no,SM,A,129.bmp,120,120,331855,325829,333871,327838,686171.0,680147.0,688188.0,682154.0,35
3,0,0,1,0,26,test,1,1,m,Wed Apr 01 2026 16:23:36 GMT-0400 (Eastern Daylight Time),703119.5,I,m,1656,36,1,135.bmp,-120,-120,136.bmp,120,-120,137.bmp,-120,120,138.bmp,120,120,9708.399999856949,693411.100000143,9076,no,SM,A,135.bmp,-120,120,331855,325829,333871,327838,696237.0,690212.0,698254.0,692221.0,36
1,1,0,0,0,27,test,1,1,m,Wed Apr 01 2026 16:23:36 GMT-0400 (Eastern Daylight Time),712652.7999999523,I,m,1475,37,1,139.bmp,-120,-120,140.bmp,120,-120,141.bmp,-120,120,142.bmp,120,120,9526.799999952316,703126.0,9076,no,SM,A,140.bmp,-120,-120,331855,325829,333871,327838,705954.0,699927.0,707971.0,701938.0,37
2,0,1,0,0,27,test,1,0,m,Wed Apr 01 2026 16:23:36 GMT-0400 (Eastern Daylight Time),722719.2999999523,I,None,2016,38,1,143.bmp,-120,-120,144.bmp,120,-120,145.bmp,-120,120,146.bmp,120,120,10057.299999952316,712662.0,9076,no,SM,A,145.bmp,120,-120,331855,325829,333871,327838,715487.0,709463.0,717504.0,711471.0,38
4,0,0,0,1,28,test,1,1,z,Wed Apr 01 2026 16:23:36 GMT-0400 (Eastern Daylight Time),732686.0,I,z,1907,39,1,147.bmp,-120,-120,148.bmp,120,-120,149.bmp,-120,120,150.bmp,120,120,9959.5,722726.5,9076,yes,SM,A,150.bmp,120,120,331855,325829,333871,327838,725554.0,719528.0,727571.0,721537.0,39
3,0,0,1,0,29,test,1,1,m,Wed Apr 01 2026 16:23:36 GMT-0400 (Eastern Daylight Time),742219.4000000954,I,m,1476,40,1,104.bmp,-120,-120,105.bmp,120,-120,106.bmp,-120,120,107.bmp,120,120,9524.900000095367,732694.5,9076,no,SM,A,105.bmp,-120,120,331855,325829,333871,327838,735521.0,729496.0,737537.0,731504.0,40
1,1,0,0,0,30,test,1,1,z,Wed Apr 01 2026 16:23:36 GMT-0400 (Eastern Daylight Time),751285.9000000954,I,z,1015,41,1,108.bmp,-120,-120,109.bmp,120,-120,110.bmp,-120,120,111.bmp,120,120,9057.900000095367,742228.0,9076,yes,SM,A,108.bmp,-120,-120,331855,325829,333871,327838,745054.0,739029.0,747071.0,741038.0,41
4,0,0,0,1,31,test,1,1,z,Wed Apr 01 2026 16:23:36 GMT-0400 (Eastern Daylight Time),761069.4000000954,I,z,1724,42,1,112.bmp,-120,-120,113.bmp,120,-120,114.bmp,-120,120,115.bmp,120,120,9776.900000095367,751292.5,9076,yes,SM,A,115.bmp,120,120,331855,325829,333871,327838,754121.0,748094.0,756138.0,750104.0,42
1,1,0,0,0,32,test,1,1,z,Wed Apr 01 2026 16:23:36 GMT-0400 (Eastern Daylight Time),770802.7000000477,I,z,1669,43,1,116.bmp,-120,-120,117.bmp,120,-120,118.bmp,-120,120,119.bmp,120,120,9723.200000047684,761079.5,9076,yes,SM,A,116.bmp,-120,-120,331855,325829,333871,327838,763904.0,757881.0,765921.0,759887.0,43
4,0,0,0,1,33,test,1,1,m,Wed Apr 01 2026 16:23:36 GMT-0400 (Eastern Daylight Time),780186.0,I,m,1328,44,1,104.bmp,-120,-120,101.bmp,120,-120,102.bmp,-120,120,103.bmp,120,120,9376.099999904633,770809.9000000954,9076,no,SM,A,104.bmp,120,120,331855,325829,333871,327838,773637.0,767611.0,775654.0,769621.0,44
1,1,0,0,0,34,test,1,1,m,Wed Apr 01 2026 16:23:36 GMT-0400 (Eastern Daylight Time),789469.2999999523,I,m,1225,45,1,128.bmp,-120,-120,129.bmp,120,-120,130.bmp,-120,120,131.bmp,120,120,9276.299999952316,780193.0,9076,no,SM,A,131.bmp,-120,-120,331855,325829,333871,327838,783020.0,776994.0,785037.0,779004.0,45
1,1,0,0,0,35,test,1,1,m,Wed Apr 01 2026 16:23:36 GMT-0400 (Eastern Daylight Time),799019.100000143,I,m,1493,46,1,120.bmp,-120,-120,121.bmp,120,-120,122.bmp,-120,120,123.bmp,120,120,9542.300000190735,789476.7999999523,9076,no,SM,A,121.bmp,-120,-120,331855,325829,333871,327838,792304.0,786278.0,794321.0,788288.0,46
3,0,0,1,0,35,test,1,0,z,Wed Apr 01 2026 16:23:36 GMT-0400 (Eastern Daylight Time),809085.9000000954,I,None,2016,47,1,124.bmp,-120,-120,125.bmp,120,-120,126.bmp,-120,120,127.bmp,120,120,10059.200000047684,799026.7000000477,9076,yes,SM,A,126.bmp,-120,120,331855,325829,333871,327838,801854.0,795828.0,803871.0,797838.0,47
3,0,0,1,0,35,test,1,0,z,Wed Apr 01 2026 16:23:36 GMT-0400 (Eastern Daylight Time),818669.2000000477,I,m,1524,48,1,140.bmp,-120,-120,141.bmp,120,-120,142.bmp,-120,120,143.bmp,120,120,9574.0,809095.2000000477,9076,yes,SM,A,142.bmp,-120,120,331855,325829,333871,327838,811920.0,805897.0,813938.0,807904.0,48
2,0,1,0,0,36,test,1,1,z,Wed Apr 01 2026 16:23:36 GMT-0400 (Eastern Daylight Time),827769.2999999523,I,z,1045,49,1,136.bmp,-120,-120,137.bmp,120,-120,138.bmp,-120,120,139.bmp,120,120,9094.099999904633,818675.2000000477,9076,yes,SM,A,137.bmp,120,-120,331855,325829,333871,327838,821504.0,815477.0,823521.0,817487.0,49
3,0,0,1,0,36,test,1,0,m,Wed Apr 01 2026 16:23:36 GMT-0400 (Eastern Daylight Time),837552.4000000954,I,z,1721,50,1,132.bmp,-120,-120,133.bmp,120,-120,134.bmp,-120,120,135.bmp,120,120,9775.600000143051,827776.7999999523,9076,no,SM,A,132.bmp,-120,120,331855,325829,333871,327838,830604.0,824578.0,832621.0,826587.0,50
2,0,1,0,0,37,test,1,1,z,Wed Apr 01 2026 16:23:36 GMT-0400 (Eastern Daylight Time),846736.0,I,z,1122,51,1,144.bmp,-120,-120,145.bmp,120,-120,146.bmp,-120,120,147.bmp,120,120,9177.200000047684,837558.7999999523,9076,yes,SM,A,145.bmp,120,-120,331855,325829,333871,327838,840387.0,834360.0,842404.0,836371.0,51
4,0,0,0,1,38,test,1,1,m,Wed Apr 01 2026 16:23:36 GMT-0400 (Eastern Daylight Time),856469.100000143,I,m,1683,52,1,148.bmp,-120,-120,149.bmp,120,-120,150.bmp,-120,120,131.bmp,120,120,9724.400000095367,846744.7000000477,9076,no,SM,A,148.bmp,120,120,331855,325829,333871,327838,849570.0,843546.0,851587.0,845554.0,52
3,0,0,1,0,39,test,1,1,z,Wed Apr 01 2026 16:23:36 GMT-0400 (Eastern Daylight Time),865852.4000000954,I,z,1325,53,1,101.bmp,-120,-120,102.bmp,120,-120,103.bmp,-120,120,104.bmp,120,120,9376.400000095367,856476.0,9076,yes,SM,A,103.bmp,-120,120,331855,325829,333871,327838,859304.0,853277.0,861321.0,855287.0,53
1,1,0,0,0,40,test,1,1,m,Wed Apr 01 2026 16:23:36 GMT-0400 (Eastern Daylight Time),875169.100000143,I,m,1254,54,1,105.bmp,-120,-120,106.bmp,120,-120,107.bmp,-120,120,108.bmp,120,120,9308.100000143051,865861.0,9076,no,SM,A,107.bmp,-120,-120,331855,325829,333871,327838,868687.0,862662.0,870704.0,864671.0,54
4,0,0,0,1,41,test,1,1,z,Wed Apr 01 2026 16:23:36 GMT-0400 (Eastern Daylight Time),884752.5,I,z,1521,55,1,109.bmp,-120,-120,110.bmp,120,-120,111.bmp,-120,120,112.bmp,120,120,9576.299999952316,875176.2000000477,9076,yes,SM,A,112.bmp,120,120,331855,325829,333871,327838,878004.0,871977.0,880021.0,873987.0,55
2,0,1,0,0,42,test,1,1,m,Wed Apr 01 2026 16:23:36 GMT-0400 (Eastern Daylight Time),894502.4000000954,I,m,1697,56,1,113.bmp,-120,-120,114.bmp,120,-120,115.bmp,-120,120,116.bmp,120,120,9743.400000095367,884759.0,9076,no,SM,A,113.bmp,120,-120,331855,325829,333871,327838,887587.0,881560.0,889604.0,883571.0,56
4,0,0,0,1,42,test,1,0,m,Wed Apr 01 2026 16:23:36 GMT-0400 (Eastern Daylight Time),903585.9000000954,I,z,1020,57,1,117.bmp,-120,-120,118.bmp,120,-120,119.bmp,-120,120,120.bmp,120,120,9074.600000143051,894511.2999999523,9076,no,SM,A,118.bmp,120,120,331855,325829,333871,327838,897337.0,891313.0,899354.0,893321.0,57
3,0,0,1,0,43,test,1,1,z,Wed Apr 01 2026 16:23:36 GMT-0400 (Eastern Daylight Time),912885.5,I,z,1249,58,1,121.bmp,-120,-120,122.bmp,120,-120,123.bmp,-120,120,124.bmp,120,120,9293.200000047684,903592.2999999523,9076,yes,SM,A,123.bmp,-120,120,331855,325829,333871,327838,906420.0,900393.0,908437.0,902404.0,58
2,0,1,0,0,44,test,1,1,m,Wed Apr 01 2026 16:23:36 GMT-0400 (Eastern Daylight Time),922519.100000143,I,m,1581,59,1,125.bmp,-120,-120,126.bmp,120,-120,127.bmp,-120,120,128.bmp,120,120,9627.100000143051,912892.0,9076,no,SM,A,128.bmp,120,-120,331855,325829,333871,327838,915720.0,909693.0,917737.0,911704.0,59
1,1,0,0,0,45,test,1,1,z,Wed Apr 01 2026 16:23:36 GMT-0400 (Eastern Daylight Time),932285.7000000477,I,z,1706,60,1,129.bmp,-120,-120,130.bmp,120,-120,131.bmp,-120,120,132.bmp,120,120,9758.099999904633,922527.600000143,9076,yes,SM,A,129.bmp,-120,-120,331855,325829,333871,327838,925354.0,919329.0,927371.0,921337.0,60
2,0,1,0,0,46,test,1,1,z,Wed Apr 01 2026 16:23:36 GMT-0400 (Eastern Daylight Time),941585.7000000477,I,z,1237,61,1,133.bmp,-120,-120,134.bmp,120,-120,135.bmp,-120,120,136.bmp,120,120,9290.900000095367,932294.7999999523,9076,yes,SM,A,134.bmp,120,-120,331855,325829,333871,327838,935120.0,929096.0,937137.0,931104.0,61
4,0,0,0,1,47,test,1,1,z,Wed Apr 01 2026 16:23:36 GMT-0400 (Eastern Daylight Time),951468.9000000954,I,z,1824,62,1,141.bmp,-120,-120,142.bmp,120,-120,143.bmp,-120,120,144.bmp,120,120,9874.400000095367,941594.5,9076,yes,SM,A,144.bmp,120,120,331855,325829,333871,327838,944420.0,938396.0,946437.0,940404.0,62
1,1,0,0,0,47,test,1,0,m,Wed Apr 01 2026 16:23:36 GMT-0400 (Eastern Daylight Time),961335.7000000477,I,z,1813,63,1,145.bmp,-120,-120,146.bmp,120,-120,147.bmp,-120,120,148.bmp,120,120,9861.099999904633,951474.600000143,9076,no,SM,A,145.bmp,-120,120,331855,325829,333871,327838,954304.0,948276.0,956321.0,950287.0,63
2,0,1,0,0,47,test,1,0,z,Wed Apr 01 2026 16:23:36 GMT-0400 (Eastern Daylight Time),971285.5,I,m,1898,64,1,149.bmp,-120,-120,150.bmp,120,-120,112.bmp,-120,120,101.bmp,120,120,9943.5,961342.0,9076,yes,SM,A,150.bmp,120,-120,331855,325829,333871,327838,964170.0,958143.0,966187.0,960154.0,64
4,0,0,0,1,48,test,1,1,m,Wed Apr 01 2026 16:23:36 GMT-0400 (Eastern Daylight Time),980869.100000143,I,m,1533,65,1,102.bmp,-120,-120,103.bmp,120,-120,104.bmp,-120,120,105.bmp,120,120,9576.700000047684,971292.4000000954,9076,no,SM,A,104.bmp,120,120,331855,325829,333871,327838,974120.0,968094.0,976137.0,970104.0,65
3,0,0,1,0,49,test,1,1,m,Wed Apr 01 2026 16:23:36 GMT-0400 (Eastern Daylight Time),990086.4000000954,I,m,1165,66,1,106.bmp,-120,-120,107.bmp,120,-120,108.bmp,-120,120,109.bmp,120,120,9210.799999952316,980875.600000143,9076,no,SM,A,109.bmp,-120,120,331855,325829,333871,327838,983704.0,977677.0,985720.0,979687.0,66
2,0,1,0,0,50,test,1,1,m,Wed Apr 01 2026 16:23:36 GMT-0400 (Eastern Daylight Time),999852.2000000477,I,m,1709,67,1,137.bmp,-120,-120,138.bmp,120,-120,139.bmp,-120,120,140.bmp,120,120,9758.599999904633,990093.600000143,9076,no,SM,A,139.bmp,120,-120,331855,325829,333871,327838,992920.0,986895.0,994937.0,988904.0,67
3,0,0,1,0,51,test,1,1,z,Wed Apr 01 2026 16:23:36 GMT-0400 (Eastern Daylight Time),1009185.7000000477,I,z,1269,68,1,110.bmp,-120,-120,111.bmp,120,-120,112.bmp,-120,120,113.bmp,120,120,9325.900000095367,999859.7999999523,9076,yes,SM,A,112.bmp,-120,120,331855,325829,333871,327838,1002687.0,996661.0,1004704.0,998671.0,68
1,1,0,0,0,52,test,1,1,m,Wed Apr 01 2026 16:23:36 GMT-0400 (Eastern Daylight Time),1018969.0,I,m,1729,69,1,114.bmp,-120,-120,115.bmp,120,-120,116.bmp,-120,120,117.bmp,120,120,9774.599999904633,1009194.4000000954,9076,no,SM,A,115.bmp,-120,-120,331855,325829,333871,327838,1012020.0,1005996.0,1014037.0,1008004.0,69
2,0,1,0,0,53,test,1,1,m,Wed Apr 01 2026 16:23:36 GMT-0400 (Eastern Daylight Time),1028118.7000000477,I,m,1097,70,1,118.bmp,-120,-120,119.bmp,120,-120,120.bmp,-120,120,121.bmp,120,120,9140.599999904633,1018978.100000143,9076,no,SM,A,120.bmp,120,-120,331855,325829,333871,327838,1021803.0,1015780.0,1023820.0,1017787.0,70
4,0,0,0,1,54,test,1,1,z,Wed Apr 01 2026 16:23:36 GMT-0400 (Eastern Daylight Time),1037835.600000143,I,z,1660,71,1,122.bmp,-120,-120,123.bmp,120,-120,124.bmp,-120,120,125.bmp,120,120,9707.100000143051,1028128.5,9076,yes,SM,A,125.bmp,120,120,331855,325829,333871,327838,1030953.0,1024930.0,1032970.0,1026937.0,71
1,1,0,0,0,55,test,1,1,z,Wed Apr 01 2026 16:23:36 GMT-0400 (Eastern Daylight Time),1046951.7000000477,I,z,1062,72,1,126.bmp,-120,-120,127.bmp,120,-120,128.bmp,-120,120,129.bmp,120,120,9106.200000047684,1037845.5,9076,yes,SM,A,126.bmp,-120,-120,331855,325829,333871,327838,1040670.0,1034647.0,1042687.0,1036654.0,72
2,0,1,0,0,56,test,1,1,z,Wed Apr 01 2026 16:23:36 GMT-0400 (Eastern Daylight Time),1056152.2000000477,I,z,1146,73,1,130.bmp,-120,-120,131.bmp,120,-120,132.bmp,-120,120,133.bmp,120,120,9196.599999904633,1046955.600000143,9076,yes,SM,A,131.bmp,120,-120,331855,325829,333871,327838,1049787.0,1043757.0,1051804.0,1045770.0,73
4,0,0,0,1,57,test,1,1,m,Wed Apr 01 2026 16:23:36 GMT-0400 (Eastern Daylight Time),1065252.2999999523,I,m,1033,74,1,134.bmp,-120,-120,135.bmp,120,-120,136.bmp,-120,120,137.bmp,120,120,9093.299999952316,1056159.0,9076,no,SM,A,136.bmp,120,120,331855,325829,333871,327838,1058987.0,1052960.0,1061004.0,1054970.0,74
2,0,1,0,0,57,test,1,0,m,Wed Apr 01 2026 16:23:36 GMT-0400 (Eastern Daylight Time),1075319.0,I,None,2016,75,1,138.bmp,-120,-120,139.bmp,120,-120,140.bmp,-120,120,141.bmp,120,120,10060.399999856949,1065258.600000143,9076,no,SM,A,141.bmp,120,-120,331855,325829,333871,327838,1068087.0,1062060.0,1070104.0,1064071.0,75
1,1,0,0,0,58,test,1,1,z,Wed Apr 01 2026 16:23:36 GMT-0400 (Eastern Daylight Time),1084468.7999999523,I,z,1083,76,1,142.bmp,-120,-120,143.bmp,120,-120,144.bmp,-120,120,145.bmp,120,120,9141.5,1075327.2999999523,9076,yes,SM,A,142.bmp,-120,-120,331855,325829,333871,327838,1078153.0,1072129.0,1080170.0,1074137.0,76
3,0,0,1,0,59,test,1,1,z,Wed Apr 01 2026 16:23:36 GMT-0400 (Eastern Daylight Time),1093519.0,I,z,990,77,1,150.bmp,-120,-120,111.bmp,120,-120,101.bmp,-120,120,102.bmp,120,120,9043.200000047684,1084475.7999999523,9076,yes,SM,A,101.bmp,-120,120,331855,325829,333871,327838,1087303.0,1081277.0,1089320.0,1083287.0,77
1,1,0,0,0,60,test,1,1,m,Wed Apr 01 2026 16:23:36 GMT-0400 (Eastern Daylight Time),1102952.100000143,I,m,1379,78,1,146.bmp,-120,-120,147.bmp,120,-120,148.bmp,-120,120,149.bmp,120,120,9425.5,1093526.600000143,9076,no,SM,A,147.bmp,-120,-120,331855,325829,333871,327838,1096353.0,1090328.0,1098370.0,1092337.0,78
4,0,0,0,1,61,test,1,1,m,Wed Apr 01 2026 16:23:36 GMT-0400 (Eastern Daylight Time),1112635.5,I,m,1626,79,1,107.bmp,-120,-120,108.bmp,120,-120,109.bmp,-120,120,110.bmp,120,120,9677.299999952316,1102958.2000000477,9076,no,SM,A,107.bmp,120,120,331855,325829,333871,327838,1105787.0,1099759.0,1107804.0,1101770.0,79
3,0,0,1,0,62,test,1,1,m,Wed Apr 01 2026 16:23:36 GMT-0400 (Eastern Daylight Time),1122052.2000000477,I,m,1350,80,1,103.bmp,-120,-120,104.bmp,120,-120,105.bmp,-120,120,106.bmp,120,120,9409.900000095367,1112642.2999999523,9076,no,SM,A,106.bmp,-120,120,331855,325829,333871,327838,1115470.0,1109443.0,1117487.0,1111454.0,80
