acc_sum,block,block_c,change,condition,correct,correct_response,datetime,endtime,face,project,response,response_time,row_sel,session_number,start_end,starttime,subject_id,task,task_vers,trial
0,prac,1,,1-Back,,,Mon Oct 06 2025 15:21:09 GMT-0400 (Eastern Daylight Time),,093_m_f_n_a.png,I,space,18696,1,1,,,9028,NNB,C,0
1,prac,1,0.0,1-Back,1.0,m,Mon Oct 06 2025 15:21:09 GMT-0400 (Eastern Daylight Time),6810035.899999999,098_y_f_n_a.png,I,m,1069,2,1,2002.0999999996275,6808033.8,9028,NNB,C,1
2,prac,1,1.0,1-Back,1.0,z,Mon Oct 06 2025 15:21:09 GMT-0400 (Eastern Daylight Time),6811836.2,098_y_f_n_a.png,I,z,1015,3,1,1789.300000000745,6810046.899999999,9028,NNB,C,2
3,prac,1,0.0,1-Back,1.0,m,Mon Oct 06 2025 15:21:09 GMT-0400 (Eastern Daylight Time),6813719.600000001,059_o_m_n_a.png,I,m,955,4,1,1869.0999999996275,6811850.500000001,9028,NNB,C,3
4,prac,1,0.0,1-Back,1.0,m,Mon Oct 06 2025 15:21:09 GMT-0400 (Eastern Daylight Time),6815636.3,092_m_m_n_a.png,I,m,912,5,1,1901.7999999988824,6813734.500000001,9028,NNB,C,4
5,prac,1,1.0,1-Back,1.0,z,Mon Oct 06 2025 15:21:09 GMT-0400 (Eastern Daylight Time),6817303.000000001,092_m_m_n_a.png,I,z,866,6,1,1650.300000000745,6815652.7,9028,NNB,C,5
6,prac,1,0.0,1-Back,1.0,m,Mon Oct 06 2025 15:21:09 GMT-0400 (Eastern Daylight Time),6819436.3,130_o_f_n_a.png,I,m,1124,7,1,2115.199999999255,6817321.100000001,9028,NNB,C,6
7,prac,1,0.0,1-Back,1.0,m,Mon Oct 06 2025 15:21:09 GMT-0400 (Eastern Daylight Time),6821519.2,082_m_m_n_a.png,I,m,1148,8,1,2066.699999999255,6819452.500000001,9028,NNB,C,7
7,prac,1,0.0,1-Back,0.0,m,Mon Oct 06 2025 15:21:09 GMT-0400 (Eastern Daylight Time),6824302.7,093_m_f_n_a.png,I,None,2002,9,1,2769.5,6821533.2,9028,NNB,C,8
8,prac,1,1.0,1-Back,1.0,z,Mon Oct 06 2025 15:21:09 GMT-0400 (Eastern Daylight Time),6826002.899999999,093_m_f_n_a.png,I,z,904,10,1,1684.699999999255,6824318.2,9028,NNB,C,9
9,prac,1,0.0,1-Back,1.0,m,Mon Oct 06 2025 15:21:09 GMT-0400 (Eastern Daylight Time),6828102.899999999,059_o_m_n_a.png,I,m,1319,11,1,2086.699999999255,6826016.2,9028,NNB,C,10
10,prac,1,0.0,1-Back,1.0,m,Mon Oct 06 2025 15:21:09 GMT-0400 (Eastern Daylight Time),6830069.399999999,028_y_f_n_a.png,I,m,1028,12,1,1951.2999999988824,6828118.100000001,9028,NNB,C,11
0,test,1,0.0,1-Back,,,Mon Oct 06 2025 15:21:09 GMT-0400 (Eastern Daylight Time),6830069.399999999,098_y_f_n_a.png,I,space,14290,1,1,1951.2999999988824,6828118.100000001,9028,NNB,C,0
1,test,1,0.0,1-Back,1.0,m,Mon Oct 06 2025 15:21:09 GMT-0400 (Eastern Daylight Time),6885736.000000001,006_m_f_n_a.png,I,m,598,2,1,1612.800000000745,6884123.2,9028,NNB,C,1
2,test,1,0.0,1-Back,1.0,m,Mon Oct 06 2025 15:21:09 GMT-0400 (Eastern Daylight Time),6887768.7,028_y_f_n_a.png,I,m,1013,3,1,2023.199999999255,6885745.500000001,9028,NNB,C,2
3,test,1,1.0,1-Back,1.0,z,Mon Oct 06 2025 15:21:09 GMT-0400 (Eastern Daylight Time),6889519.3,028_y_f_n_a.png,I,z,724,4,1,1746.0999999996275,6887773.2,9028,NNB,C,3
4,test,1,0.0,1-Back,1.0,m,Mon Oct 06 2025 15:21:09 GMT-0400 (Eastern Daylight Time),6891736.899999999,006_m_f_n_a.png,I,m,1198,5,1,2208.199999999255,6889528.7,9028,NNB,C,4
5,test,1,0.0,1-Back,1.0,m,Mon Oct 06 2025 15:21:09 GMT-0400 (Eastern Daylight Time),6893835.899999999,059_o_m_n_a.png,I,m,1078,6,1,2085.2999999988824,6891750.600000001,9028,NNB,C,5
6,test,1,1.0,1-Back,1.0,z,Mon Oct 06 2025 15:21:09 GMT-0400 (Eastern Daylight Time),6895719.2,059_o_m_n_a.png,I,z,866,7,1,1872.300000000745,6893846.899999999,9028,NNB,C,6
7,test,1,0.0,1-Back,1.0,m,Mon Oct 06 2025 15:21:09 GMT-0400 (Eastern Daylight Time),6897686.000000001,092_m_m_n_a.png,I,m,934,8,1,1959.300000000745,6895726.7,9028,NNB,C,7
8,test,1,0.0,1-Back,1.0,m,Mon Oct 06 2025 15:21:09 GMT-0400 (Eastern Daylight Time),6899419.399999999,130_o_f_n_a.png,I,m,711,9,1,1722.3999999985099,6897697.000000001,9028,NNB,C,8
9,test,1,0.0,1-Back,1.0,m,Mon Oct 06 2025 15:21:09 GMT-0400 (Eastern Daylight Time),6901335.8,092_m_m_n_a.png,I,m,898,10,1,1904.699999999255,6899431.100000001,9028,NNB,C,9
10,test,1,0.0,1-Back,1.0,m,Mon Oct 06 2025 15:21:09 GMT-0400 (Eastern Daylight Time),6903186.000000001,057_y_m_n_a.png,I,m,821,11,1,1839.2000000011176,6901346.8,9028,NNB,C,10
11,test,1,1.0,1-Back,1.0,z,Mon Oct 06 2025 15:21:09 GMT-0400 (Eastern Daylight Time),6904869.3,057_y_m_n_a.png,I,z,651,12,1,1671.7999999988824,6903197.500000001,9028,NNB,C,11
12,test,1,0.0,1-Back,1.0,m,Mon Oct 06 2025 15:21:09 GMT-0400 (Eastern Daylight Time),6906485.899999999,030_o_f_n_a.png,I,m,584,13,1,1606.5999999996275,6904879.3,9028,NNB,C,12
13,test,1,1.0,1-Back,1.0,z,Mon Oct 06 2025 15:21:09 GMT-0400 (Eastern Daylight Time),6908269.3,030_o_f_n_a.png,I,z,760,14,1,1771.5999999996275,6906497.7,9028,NNB,C,13
14,test,1,0.0,1-Back,1.0,m,Mon Oct 06 2025 15:21:09 GMT-0400 (Eastern Daylight Time),6910019.399999999,031_y_m_n_a.png,I,m,720,15,1,1737.5999999996275,6908281.8,9028,NNB,C,14
15,test,1,0.0,1-Back,1.0,m,Mon Oct 06 2025 15:21:09 GMT-0400 (Eastern Daylight Time),6911735.7,093_m_f_n_a.png,I,m,698,16,1,1706.199999999255,6910029.500000001,9028,NNB,C,15
16,test,1,0.0,1-Back,1.0,m,Mon Oct 06 2025 15:21:09 GMT-0400 (Eastern Daylight Time),6913269.3,146_o_m_n_a.png,I,m,502,17,1,1525.7999999988824,6911743.500000001,9028,NNB,C,16
17,test,1,0.0,1-Back,1.0,m,Mon Oct 06 2025 15:21:09 GMT-0400 (Eastern Daylight Time),6915085.899999999,093_m_f_n_a.png,I,m,792,18,1,1801.0999999996275,6913284.8,9028,NNB,C,17
0,test,2,0.0,1-Back,,,Mon Oct 06 2025 15:21:09 GMT-0400 (Eastern Daylight Time),6915085.899999999,092_m_m_n_a.png,I,space,2199,1,1,1801.0999999996275,6913284.8,9028,NNB,C,0
1,test,2,0.0,1-Back,1.0,m,Mon Oct 06 2025 15:21:09 GMT-0400 (Eastern Daylight Time),6921552.7,006_m_f_n_a.png,I,m,1206,2,1,2219.800000000745,6919332.899999999,9028,NNB,C,1
2,test,2,1.0,1-Back,1.0,z,Mon Oct 06 2025 15:21:09 GMT-0400 (Eastern Daylight Time),6923418.899999999,006_m_f_n_a.png,I,z,844,3,1,1855.3999999985099,6921563.500000001,9028,NNB,C,2
3,test,2,0.0,1-Back,1.0,m,Mon Oct 06 2025 15:21:09 GMT-0400 (Eastern Daylight Time),6925319.399999999,092_m_m_n_a.png,I,m,866,4,1,1891.699999999255,6923427.7,9028,NNB,C,3
4,test,2,0.0,1-Back,1.0,m,Mon Oct 06 2025 15:21:09 GMT-0400 (Eastern Daylight Time),6927035.8,057_y_m_n_a.png,I,m,694,5,1,1705.0999999996275,6925330.7,9028,NNB,C,4
5,test,2,0.0,1-Back,1.0,m,Mon Oct 06 2025 15:21:09 GMT-0400 (Eastern Daylight Time),6928869.399999999,098_y_f_n_a.png,I,m,802,6,1,1822.199999999255,6927047.2,9028,NNB,C,5
6,test,2,1.0,1-Back,1.0,z,Mon Oct 06 2025 15:21:09 GMT-0400 (Eastern Daylight Time),6930619.2,098_y_f_n_a.png,I,z,728,7,1,1737.0,6928882.2,9028,NNB,C,6
7,test,2,0.0,1-Back,1.0,m,Mon Oct 06 2025 15:21:09 GMT-0400 (Eastern Daylight Time),6932369.3,057_y_m_n_a.png,I,m,722,8,1,1741.199999999255,6930628.100000001,9028,NNB,C,7
8,test,2,0.0,1-Back,1.0,m,Mon Oct 06 2025 15:21:09 GMT-0400 (Eastern Daylight Time),6934002.500000001,030_o_f_n_a.png,I,m,604,9,1,1620.800000000745,6932381.7,9028,NNB,C,8
9,test,2,0.0,1-Back,1.0,m,Mon Oct 06 2025 15:21:09 GMT-0400 (Eastern Daylight Time),6935686.000000001,082_m_m_n_a.png,I,m,651,10,1,1672.800000000745,6934013.2,9028,NNB,C,9
10,test,2,1.0,1-Back,1.0,z,Mon Oct 06 2025 15:21:09 GMT-0400 (Eastern Daylight Time),6937286.000000001,082_m_m_n_a.png,I,z,568,11,1,1588.4000000003725,6935697.600000001,9028,NNB,C,10
11,test,2,0.0,1-Back,1.0,m,Mon Oct 06 2025 15:21:09 GMT-0400 (Eastern Daylight Time),6938852.600000001,030_o_f_n_a.png,I,m,536,12,1,1557.0,6937295.600000001,9028,NNB,C,11
12,test,2,0.0,1-Back,1.0,m,Mon Oct 06 2025 15:21:09 GMT-0400 (Eastern Daylight Time),6940635.899999999,130_o_f_n_a.png,I,m,761,13,1,1770.5999999996275,6938865.3,9028,NNB,C,12
13,test,2,0.0,1-Back,1.0,m,Mon Oct 06 2025 15:21:09 GMT-0400 (Eastern Daylight Time),6942335.899999999,059_o_m_n_a.png,I,m,674,14,1,1688.8999999985099,6940647.000000001,9028,NNB,C,13
14,test,2,0.0,1-Back,1.0,m,Mon Oct 06 2025 15:21:09 GMT-0400 (Eastern Daylight Time),6944052.600000001,146_o_m_n_a.png,I,m,685,15,1,1704.800000000745,6942347.8,9028,NNB,C,14
15,test,2,1.0,1-Back,1.0,z,Mon Oct 06 2025 15:21:09 GMT-0400 (Eastern Daylight Time),6945685.8,146_o_m_n_a.png,I,z,601,16,1,1621.5999999996275,6944064.2,9028,NNB,C,15
16,test,2,0.0,1-Back,1.0,m,Mon Oct 06 2025 15:21:09 GMT-0400 (Eastern Daylight Time),6947302.7,031_y_m_n_a.png,I,m,585,17,1,1605.199999999255,6945697.500000001,9028,NNB,C,16
17,test,2,1.0,1-Back,1.0,z,Mon Oct 06 2025 15:21:09 GMT-0400 (Eastern Daylight Time),6949236.000000001,031_y_m_n_a.png,I,z,903,18,1,1924.4000000003725,6947311.600000001,9028,NNB,C,17
0,test,3,1.0,1-Back,,,Mon Oct 06 2025 15:21:09 GMT-0400 (Eastern Daylight Time),6949236.000000001,028_y_f_n_a.png,I,space,1522,1,1,1924.4000000003725,6947311.600000001,9028,NNB,C,0
1,test,3,0.0,1-Back,1.0,m,Mon Oct 06 2025 15:21:09 GMT-0400 (Eastern Daylight Time),6954919.3,146_o_m_n_a.png,I,m,966,1,1,1988.4000000003725,6952930.899999999,9028,NNB,C,1
2,test,3,1.0,1-Back,1.0,z,Mon Oct 06 2025 15:21:09 GMT-0400 (Eastern Daylight Time),6956602.500000001,146_o_m_n_a.png,I,z,662,1,1,1674.4000000003725,6954928.100000001,9028,NNB,C,2
3,test,3,0.0,1-Back,1.0,m,Mon Oct 06 2025 15:21:09 GMT-0400 (Eastern Daylight Time),6958219.2,093_m_f_n_a.png,I,m,595,1,1,1605.199999999255,6956614.000000001,9028,NNB,C,3
4,test,3,1.0,1-Back,1.0,z,Mon Oct 06 2025 15:21:09 GMT-0400 (Eastern Daylight Time),6960036.000000001,093_m_f_n_a.png,I,z,786,1,1,1806.6000000014901,6958229.399999999,9028,NNB,C,4
5,test,3,0.0,1-Back,1.0,m,Mon Oct 06 2025 15:21:09 GMT-0400 (Eastern Daylight Time),6962135.8,030_o_f_n_a.png,I,m,1082,1,1,2087.2999999988824,6960048.500000001,9028,NNB,C,5
6,test,3,0.0,1-Back,1.0,m,Mon Oct 06 2025 15:21:09 GMT-0400 (Eastern Daylight Time),6963819.2,057_y_m_n_a.png,I,m,662,1,1,1673.699999999255,6962145.500000001,9028,NNB,C,6
7,test,3,0.0,1-Back,1.0,m,Mon Oct 06 2025 15:21:09 GMT-0400 (Eastern Daylight Time),6965385.8,030_o_f_n_a.png,I,m,546,1,1,1553.7999999988824,6963832.000000001,9028,NNB,C,7
8,test,3,0.0,1-Back,1.0,m,Mon Oct 06 2025 15:21:09 GMT-0400 (Eastern Daylight Time),6966985.8,031_y_m_n_a.png,I,m,580,1,1,1589.4000000003725,6965396.399999999,9028,NNB,C,8
9,test,3,1.0,1-Back,1.0,z,Mon Oct 06 2025 15:21:09 GMT-0400 (Eastern Daylight Time),6968536.000000001,031_y_m_n_a.png,I,z,532,1,1,1541.5,6966994.500000001,9028,NNB,C,9
10,test,3,0.0,1-Back,1.0,m,Mon Oct 06 2025 15:21:09 GMT-0400 (Eastern Daylight Time),6970119.399999999,006_m_f_n_a.png,I,m,566,1,1,1571.8999999985099,6968547.500000001,9028,NNB,C,10
11,test,3,0.0,1-Back,1.0,m,Mon Oct 06 2025 15:21:09 GMT-0400 (Eastern Daylight Time),6971735.600000001,098_y_f_n_a.png,I,m,599,1,1,1605.0999999996275,6970130.500000001,9028,NNB,C,11
12,test,3,1.0,1-Back,1.0,z,Mon Oct 06 2025 15:21:09 GMT-0400 (Eastern Daylight Time),6973485.399999999,098_y_f_n_a.png,I,z,725,1,1,1735.5999999996275,6971749.8,9028,NNB,C,12
13,test,3,0.0,1-Back,1.0,m,Mon Oct 06 2025 15:21:09 GMT-0400 (Eastern Daylight Time),6975136.000000001,006_m_f_n_a.png,I,m,624,1,1,1644.5,6973491.500000001,9028,NNB,C,13
14,test,3,0.0,1-Back,1.0,m,Mon Oct 06 2025 15:21:09 GMT-0400 (Eastern Daylight Time),6976752.600000001,092_m_m_n_a.png,I,m,590,1,1,1605.7000000011176,6975146.899999999,9028,NNB,C,14
15,test,3,1.0,1-Back,1.0,z,Mon Oct 06 2025 15:21:09 GMT-0400 (Eastern Daylight Time),6978419.2,092_m_m_n_a.png,I,z,636,1,1,1655.5,6976763.7,9028,NNB,C,15
16,test,3,0.0,1-Back,1.0,m,Mon Oct 06 2025 15:21:09 GMT-0400 (Eastern Daylight Time),6980036.000000001,130_o_f_n_a.png,I,m,586,1,1,1607.2000000011176,6978428.8,9028,NNB,C,16
17,test,3,1.0,1-Back,1.0,z,Mon Oct 06 2025 15:21:09 GMT-0400 (Eastern Daylight Time),6981802.500000001,130_o_f_n_a.png,I,z,746,1,1,1753.9000000003725,6980048.600000001,9028,NNB,C,17
0,test,4,1.0,1-Back,,,Mon Oct 06 2025 15:21:09 GMT-0400 (Eastern Daylight Time),6981802.500000001,093_m_f_n_a.png,I,space,1435,1,1,1753.9000000003725,6980048.600000001,9028,NNB,C,0
1,test,4,0.0,1-Back,1.0,m,Mon Oct 06 2025 15:21:09 GMT-0400 (Eastern Daylight Time),6987019.100000001,146_o_m_n_a.png,I,m,595,2,1,1602.800000000745,6985416.3,9028,NNB,C,1
2,test,4,0.0,1-Back,1.0,m,Mon Oct 06 2025 15:21:09 GMT-0400 (Eastern Daylight Time),6988752.600000001,093_m_f_n_a.png,I,m,707,3,1,1721.0,6987031.600000001,9028,NNB,C,2
3,test,4,0.0,1-Back,1.0,m,Mon Oct 06 2025 15:21:09 GMT-0400 (Eastern Daylight Time),6990452.399999999,030_o_f_n_a.png,I,m,670,4,1,1689.0999999996275,6988763.3,9028,NNB,C,3
4,test,4,1.0,1-Back,1.0,z,Mon Oct 06 2025 15:21:09 GMT-0400 (Eastern Daylight Time),6992119.500000001,030_o_f_n_a.png,I,z,649,5,1,1657.1000000014901,6990462.399999999,9028,NNB,C,4
5,test,4,0.0,1-Back,1.0,m,Mon Oct 06 2025 15:21:09 GMT-0400 (Eastern Daylight Time),6993869.2,098_y_f_n_a.png,I,m,726,6,1,1740.0,6992129.2,9028,NNB,C,5
6,test,4,0.0,1-Back,1.0,m,Mon Oct 06 2025 15:21:09 GMT-0400 (Eastern Daylight Time),6995319.500000001,057_y_m_n_a.png,I,m,432,7,1,1441.4000000003725,6993878.100000001,9028,NNB,C,6
6,test,4,1.0,1-Back,0.0,z,Mon Oct 06 2025 15:21:09 GMT-0400 (Eastern Daylight Time),6996819.2,057_y_m_n_a.png,I,m,470,8,1,1489.5999999996275,6995329.600000001,9028,NNB,C,7
7,test,4,0.0,1-Back,1.0,m,Mon Oct 06 2025 15:21:09 GMT-0400 (Eastern Daylight Time),6998719.2,098_y_f_n_a.png,I,m,875,9,1,1886.0,6996833.2,9028,NNB,C,8
8,test,4,0.0,1-Back,1.0,m,Mon Oct 06 2025 15:21:09 GMT-0400 (Eastern Daylight Time),7000485.899999999,082_m_m_n_a.png,I,m,734,10,1,1756.3999999985099,6998729.500000001,9028,NNB,C,9
9,test,4,1.0,1-Back,1.0,z,Mon Oct 06 2025 15:21:09 GMT-0400 (Eastern Daylight Time),7002118.8,082_m_m_n_a.png,I,z,599,11,1,1623.699999999255,7000495.100000001,9028,NNB,C,10
10,test,4,0.0,1-Back,1.0,m,Mon Oct 06 2025 15:21:09 GMT-0400 (Eastern Daylight Time),7003802.500000001,130_o_f_n_a.png,I,m,663,12,1,1678.5,7002124.000000001,9028,NNB,C,11
11,test,4,0.0,1-Back,1.0,m,Mon Oct 06 2025 15:21:09 GMT-0400 (Eastern Daylight Time),7005385.600000001,059_o_m_n_a.png,I,m,563,13,1,1572.5,7003813.100000001,9028,NNB,C,12
12,test,4,0.0,1-Back,1.0,m,Mon Oct 06 2025 15:21:09 GMT-0400 (Eastern Daylight Time),7007035.899999999,130_o_f_n_a.png,I,m,628,14,1,1641.5999999996275,7005394.3,9028,NNB,C,13
13,test,4,0.0,1-Back,1.0,m,Mon Oct 06 2025 15:21:09 GMT-0400 (Eastern Daylight Time),7008685.8,028_y_f_n_a.png,I,m,626,15,1,1635.699999999255,7007050.100000001,9028,NNB,C,14
14,test,4,1.0,1-Back,1.0,z,Mon Oct 06 2025 15:21:09 GMT-0400 (Eastern Daylight Time),7010585.7,028_y_f_n_a.png,I,z,880,16,1,1889.0999999996275,7008696.600000001,9028,NNB,C,15
15,test,4,0.0,1-Back,1.0,m,Mon Oct 06 2025 15:21:09 GMT-0400 (Eastern Daylight Time),7012419.2,006_m_f_n_a.png,I,m,804,17,1,1825.300000000745,7010593.899999999,9028,NNB,C,16
16,test,4,1.0,1-Back,1.0,z,Mon Oct 06 2025 15:21:09 GMT-0400 (Eastern Daylight Time),7014152.3,006_m_f_n_a.png,I,z,715,18,1,1717.699999999255,7012434.600000001,9028,NNB,C,17
0,test,5,1.0,1-Back,,,Mon Oct 06 2025 15:21:09 GMT-0400 (Eastern Daylight Time),7014152.3,059_o_m_n_a.png,I,space,1197,1,1,1717.699999999255,7012434.600000001,9028,NNB,C,0
1,test,5,1.0,1-Back,1.0,z,Mon Oct 06 2025 15:21:09 GMT-0400 (Eastern Daylight Time),7019352.2,059_o_m_n_a.png,I,z,965,2,1,1972.199999999255,7017380.000000001,9028,NNB,C,1
2,test,5,0.0,1-Back,1.0,m,Mon Oct 06 2025 15:21:09 GMT-0400 (Eastern Daylight Time),7021152.600000001,098_y_f_n_a.png,I,m,773,3,1,1792.9000000003725,7019359.7,9028,NNB,C,2
3,test,5,0.0,1-Back,1.0,m,Mon Oct 06 2025 15:21:09 GMT-0400 (Eastern Daylight Time),7023035.7,057_y_m_n_a.png,I,m,861,4,1,1871.9000000003725,7021163.8,9028,NNB,C,3
4,test,5,0.0,1-Back,1.0,m,Mon Oct 06 2025 15:21:09 GMT-0400 (Eastern Daylight Time),7024852.600000001,098_y_f_n_a.png,I,m,786,5,1,1805.5,7023047.100000001,9028,NNB,C,4
5,test,5,0.0,1-Back,1.0,m,Mon Oct 06 2025 15:21:09 GMT-0400 (Eastern Daylight Time),7026502.500000001,092_m_m_n_a.png,I,m,617,6,1,1639.9000000003725,7024862.600000001,9028,NNB,C,5
6,test,5,1.0,1-Back,1.0,z,Mon Oct 06 2025 15:21:09 GMT-0400 (Eastern Daylight Time),7028019.100000001,092_m_m_n_a.png,I,z,487,7,1,1507.0999999996275,7026512.000000001,9028,NNB,C,6
7,test,5,0.0,1-Back,1.0,m,Mon Oct 06 2025 15:21:09 GMT-0400 (Eastern Daylight Time),7029652.600000001,028_y_f_n_a.png,I,m,603,8,1,1621.4000000003725,7028031.2,9028,NNB,C,7
8,test,5,0.0,1-Back,1.0,m,Mon Oct 06 2025 15:21:09 GMT-0400 (Eastern Daylight Time),7031202.600000001,031_y_m_n_a.png,I,m,521,9,1,1539.300000000745,7029663.3,9028,NNB,C,8
9,test,5,0.0,1-Back,1.0,m,Mon Oct 06 2025 15:21:09 GMT-0400 (Eastern Daylight Time),7032919.3,028_y_f_n_a.png,I,m,699,10,1,1708.7999999988824,7031210.500000001,9028,NNB,C,9
10,test,5,0.0,1-Back,1.0,m,Mon Oct 06 2025 15:21:09 GMT-0400 (Eastern Daylight Time),7034519.399999999,130_o_f_n_a.png,I,m,583,11,1,1588.7999999988824,7032930.600000001,9028,NNB,C,10
11,test,5,1.0,1-Back,1.0,z,Mon Oct 06 2025 15:21:09 GMT-0400 (Eastern Daylight Time),7036168.899999999,130_o_f_n_a.png,I,z,631,12,1,1640.699999999255,7034528.2,9028,NNB,C,11
12,test,5,0.0,1-Back,1.0,m,Mon Oct 06 2025 15:21:09 GMT-0400 (Eastern Daylight Time),7037768.8,146_o_m_n_a.png,I,m,580,13,1,1589.0999999996275,7036179.7,9028,NNB,C,12
13,test,5,0.0,1-Back,1.0,m,Mon Oct 06 2025 15:21:09 GMT-0400 (Eastern Daylight Time),7039402.399999999,093_m_f_n_a.png,I,m,613,14,1,1622.8999999985099,7037779.500000001,9028,NNB,C,13
14,test,5,1.0,1-Back,1.0,z,Mon Oct 06 2025 15:21:09 GMT-0400 (Eastern Daylight Time),7040919.399999999,093_m_f_n_a.png,I,z,499,15,1,1508.5999999996275,7039410.8,9028,NNB,C,14
15,test,5,0.0,1-Back,1.0,m,Mon Oct 06 2025 15:21:09 GMT-0400 (Eastern Daylight Time),7042419.000000001,146_o_m_n_a.png,I,m,471,16,1,1490.6000000014901,7040928.399999999,9028,NNB,C,15
16,test,5,0.0,1-Back,1.0,m,Mon Oct 06 2025 15:21:09 GMT-0400 (Eastern Daylight Time),7043952.500000001,006_m_f_n_a.png,I,m,507,17,1,1524.1000000014901,7042428.399999999,9028,NNB,C,16
17,test,5,0.0,1-Back,1.0,m,Mon Oct 06 2025 15:21:09 GMT-0400 (Eastern Daylight Time),7045635.8,082_m_m_n_a.png,I,m,652,18,1,1671.199999999255,7043964.600000001,9028,NNB,C,17
0,prac,1,0.0,2-Back,,,Mon Oct 06 2025 15:21:09 GMT-0400 (Eastern Daylight Time),7045635.8,031_y_m_n_a.png,I,space,28358,1,1,1671.199999999255,7043964.600000001,9028,NNB,C,0
0,prac,1,0.0,2-Back,,,Mon Oct 06 2025 15:21:09 GMT-0400 (Eastern Daylight Time),7045635.8,006_m_f_n_a.png,I,space,28358,2,1,1671.199999999255,7043964.600000001,9028,NNB,C,0
1,prac,1,1.0,2-Back,1.0,m,Mon Oct 06 2025 15:21:09 GMT-0400 (Eastern Daylight Time),7197485.899999999,146_o_m_n_a.png,I,m,1262,3,1,2203.39999999851,7195282.500000001,9028,NNB,C,1
1,prac,1,0.0,2-Back,0.0,m,Mon Oct 06 2025 15:21:09 GMT-0400 (Eastern Daylight Time),7200452.3,130_o_f_n_a.png,I,None,2017,4,1,2951.0,7197501.3,9028,NNB,C,2
2,prac,1,0.0,2-Back,1.0,z,Mon Oct 06 2025 15:21:09 GMT-0400 (Eastern Daylight Time),7202869.000000001,146_o_m_n_a.png,I,z,1401,5,1,2183.4000000003725,7200685.600000001,9028,NNB,C,3
3,prac,1,1.0,2-Back,1.0,z,Mon Oct 06 2025 15:21:09 GMT-0400 (Eastern Daylight Time),7204852.500000001,130_o_f_n_a.png,I,z,1187,6,1,1968.6000000014901,7202883.899999999,9028,NNB,C,4
4,prac,1,0.0,2-Back,1.0,m,Mon Oct 06 2025 15:21:09 GMT-0400 (Eastern Daylight Time),7207002.500000001,082_m_m_n_a.png,I,m,1219,7,1,2132.60000000149,7204869.899999999,9028,NNB,C,5
5,prac,1,0.0,2-Back,1.0,m,Mon Oct 06 2025 15:21:09 GMT-0400 (Eastern Daylight Time),7209318.600000001,059_o_m_n_a.png,I,m,1389,8,1,2301.0,7207017.600000001,9028,NNB,C,6
6,prac,1,0.0,2-Back,1.0,m,Mon Oct 06 2025 15:21:09 GMT-0400 (Eastern Daylight Time),7211385.7,028_y_f_n_a.png,I,m,1144,9,1,2058.0999999996275,7209327.600000001,9028,NNB,C,7
7,prac,1,1.0,2-Back,1.0,z,Mon Oct 06 2025 15:21:09 GMT-0400 (Eastern Daylight Time),7213269.100000001,059_o_m_n_a.png,I,z,1090,10,1,1872.7000000011176,7211396.399999999,9028,NNB,C,8
8,prac,1,0.0,2-Back,1.0,m,Mon Oct 06 2025 15:21:09 GMT-0400 (Eastern Daylight Time),7215085.8,098_y_f_n_a.png,I,m,894,11,1,1805.5,7213280.3,9028,NNB,C,9
8,prac,1,0.0,2-Back,0.0,m,Mon Oct 06 2025 15:21:09 GMT-0400 (Eastern Daylight Time),7217002.3,082_m_m_n_a.png,I,z,1130,12,1,1901.7999999988824,7215100.500000001,9028,NNB,C,10
0,test,1,0.0,2-Back,,,Mon Oct 06 2025 15:21:09 GMT-0400 (Eastern Daylight Time),7217002.3,057_y_m_n_a.png,I,space,14774,1,1,1901.7999999988824,7215100.500000001,9028,NNB,C,0
0,test,1,0.0,2-Back,,,Mon Oct 06 2025 15:21:09 GMT-0400 (Eastern Daylight Time),7217002.3,057_y_m_n_a.png,I,space,14774,2,1,1901.7999999988824,7215100.500000001,9028,NNB,C,0
1,test,1,0.0,2-Back,1.0,m,Mon Oct 06 2025 15:21:09 GMT-0400 (Eastern Daylight Time),7244335.8,130_o_f_n_a.png,I,m,758,3,1,1771.2999999988824,7242564.500000001,9028,NNB,C,1
2,test,1,0.0,2-Back,1.0,m,Mon Oct 06 2025 15:21:09 GMT-0400 (Eastern Daylight Time),7246352.3,092_m_m_n_a.png,I,m,990,4,1,2007.0,7244345.3,9028,NNB,C,2
3,test,1,1.0,2-Back,1.0,z,Mon Oct 06 2025 15:21:09 GMT-0400 (Eastern Daylight Time),7248402.399999999,130_o_f_n_a.png,I,z,1022,5,1,2040.0999999996275,7246362.3,9028,NNB,C,3
4,test,1,0.0,2-Back,1.0,m,Mon Oct 06 2025 15:21:09 GMT-0400 (Eastern Daylight Time),7250435.399999999,098_y_f_n_a.png,I,m,1003,6,1,2021.5999999996275,7248413.8,9028,NNB,C,4
4,test,1,0.0,2-Back,0.0,m,Mon Oct 06 2025 15:21:09 GMT-0400 (Eastern Daylight Time),7252502.2,092_m_m_n_a.png,I,z,1033,7,1,2056.0999999996275,7250446.100000001,9028,NNB,C,5
5,test,1,1.0,2-Back,1.0,z,Mon Oct 06 2025 15:21:09 GMT-0400 (Eastern Daylight Time),7255002.3,098_y_f_n_a.png,I,z,1479,8,1,2491.0,7252511.3,9028,NNB,C,6
6,test,1,0.0,2-Back,1.0,m,Mon Oct 06 2025 15:21:09 GMT-0400 (Eastern Daylight Time),7257152.3,031_y_m_n_a.png,I,m,1123,9,1,2137.699999999255,7255014.600000001,9028,NNB,C,7
7,test,1,0.0,2-Back,1.0,m,Mon Oct 06 2025 15:21:09 GMT-0400 (Eastern Daylight Time),7259585.7,030_o_f_n_a.png,I,m,1405,10,1,2424.0,7257161.7,9028,NNB,C,8
8,test,1,1.0,2-Back,1.0,z,Mon Oct 06 2025 15:21:09 GMT-0400 (Eastern Daylight Time),7261852.000000001,031_y_m_n_a.png,I,z,1244,11,1,2257.9000000003725,7259594.100000001,9028,NNB,C,9
9,test,1,0.0,2-Back,1.0,m,Mon Oct 06 2025 15:21:09 GMT-0400 (Eastern Daylight Time),7264119.100000001,006_m_f_n_a.png,I,m,1249,12,1,2259.4000000003725,7261859.7,9028,NNB,C,10
10,test,1,0.0,2-Back,1.0,m,Mon Oct 06 2025 15:21:09 GMT-0400 (Eastern Daylight Time),7266602.100000001,006_m_f_n_a.png,I,m,1462,13,1,2470.2000000011176,7264131.899999999,9028,NNB,C,11
11,test,1,0.0,2-Back,1.0,m,Mon Oct 06 2025 15:21:09 GMT-0400 (Eastern Daylight Time),7268768.899999999,146_o_m_n_a.png,I,m,1140,14,1,2157.5,7266611.399999999,9028,NNB,C,12
12,test,1,0.0,2-Back,1.0,m,Mon Oct 06 2025 15:21:09 GMT-0400 (Eastern Daylight Time),7271102.2,030_o_f_n_a.png,I,m,1309,15,1,2320.199999999255,7268782.000000001,9028,NNB,C,13
13,test,1,1.0,2-Back,1.0,z,Mon Oct 06 2025 15:21:09 GMT-0400 (Eastern Daylight Time),7273318.8,146_o_m_n_a.png,I,z,1184,16,1,2205.7999999988824,7271113.000000001,9028,NNB,C,14
14,test,1,0.0,2-Back,1.0,m,Mon Oct 06 2025 15:21:09 GMT-0400 (Eastern Daylight Time),7275418.899999999,093_m_f_n_a.png,I,m,1078,17,1,2088.0,7273330.899999999,9028,NNB,C,15
15,test,1,0.0,2-Back,1.0,m,Mon Oct 06 2025 15:21:09 GMT-0400 (Eastern Daylight Time),7277402.100000001,082_m_m_n_a.png,I,m,963,18,1,1972.0,7275430.100000001,9028,NNB,C,16
0,test,2,0.0,2-Back,,,Mon Oct 06 2025 15:21:09 GMT-0400 (Eastern Daylight Time),7277402.100000001,082_m_m_n_a.png,I,space,2426,1,1,1972.0,7275430.100000001,9028,NNB,C,0
0,test,2,0.0,2-Back,,,Mon Oct 06 2025 15:21:09 GMT-0400 (Eastern Daylight Time),7277402.100000001,028_y_f_n_a.png,I,space,2426,2,1,1972.0,7275430.100000001,9028,NNB,C,0
1,test,2,1.0,2-Back,1.0,z,Mon Oct 06 2025 15:21:09 GMT-0400 (Eastern Daylight Time),7286918.8,082_m_m_n_a.png,I,z,867,3,1,1886.5999999996275,7285032.2,9028,NNB,C,1
2,test,2,0.0,2-Back,1.0,m,Mon Oct 06 2025 15:21:09 GMT-0400 (Eastern Daylight Time),7288902.2,093_m_f_n_a.png,I,m,951,4,1,1972.800000000745,7286929.399999999,9028,NNB,C,2
2,test,2,0.0,2-Back,0.0,m,Mon Oct 06 2025 15:21:09 GMT-0400 (Eastern Daylight Time),7291802.100000001,028_y_f_n_a.png,I,z,1877,5,1,2888.800000000745,7288913.3,9028,NNB,C,3
3,test,2,0.0,2-Back,1.0,m,Mon Oct 06 2025 15:21:09 GMT-0400 (Eastern Daylight Time),7294385.500000001,146_o_m_n_a.png,I,m,1555,6,1,2572.2000000011176,7291813.3,9028,NNB,C,4
4,test,2,0.0,2-Back,1.0,m,Mon Oct 06 2025 15:21:09 GMT-0400 (Eastern Daylight Time),7296502.2,098_y_f_n_a.png,I,m,1083,7,1,2104.800000000745,7294397.399999999,9028,NNB,C,5
5,test,2,1.0,2-Back,1.0,z,Mon Oct 06 2025 15:21:09 GMT-0400 (Eastern Daylight Time),7298518.899999999,146_o_m_n_a.png,I,z,984,8,1,2006.0,7296512.899999999,9028,NNB,C,6
6,test,2,0.0,2-Back,1.0,m,Mon Oct 06 2025 15:21:09 GMT-0400 (Eastern Daylight Time),7300635.600000001,031_y_m_n_a.png,I,m,1094,9,1,2106.800000000745,7298528.8,9028,NNB,C,7
7,test,2,0.0,2-Back,1.0,m,Mon Oct 06 2025 15:21:09 GMT-0400 (Eastern Daylight Time),7302919.2,031_y_m_n_a.png,I,m,1266,10,1,2272.0999999996275,7300647.100000001,9028,NNB,C,8
8,test,2,0.0,2-Back,1.0,m,Mon Oct 06 2025 15:21:09 GMT-0400 (Eastern Daylight Time),7305118.7,006_m_f_n_a.png,I,m,1174,11,1,2192.300000000745,7302926.399999999,9028,NNB,C,9
9,test,2,0.0,2-Back,1.0,m,Mon Oct 06 2025 15:21:09 GMT-0400 (Eastern Daylight Time),7307319.100000001,028_y_f_n_a.png,I,m,1183,12,1,2189.0,7305130.100000001,9028,NNB,C,10
10,test,2,1.0,2-Back,1.0,z,Mon Oct 06 2025 15:21:09 GMT-0400 (Eastern Daylight Time),7309452.2,006_m_f_n_a.png,I,z,1110,13,1,2124.4000000003725,7307327.8,9028,NNB,C,11
11,test,2,0.0,2-Back,1.0,m,Mon Oct 06 2025 15:21:09 GMT-0400 (Eastern Daylight Time),7311435.000000001,059_o_m_n_a.png,I,m,961,14,1,1972.6000000014901,7309462.399999999,9028,NNB,C,12
12,test,2,0.0,2-Back,1.0,m,Mon Oct 06 2025 15:21:09 GMT-0400 (Eastern Daylight Time),7313568.500000001,059_o_m_n_a.png,I,m,1106,15,1,2127.2000000011176,7311441.3,9028,NNB,C,13
13,test,2,0.0,2-Back,1.0,m,Mon Oct 06 2025 15:21:09 GMT-0400 (Eastern Daylight Time),7315601.8,030_o_f_n_a.png,I,m,1003,16,1,2029.2999999988824,7313572.500000001,9028,NNB,C,14
14,test,2,0.0,2-Back,1.0,m,Mon Oct 06 2025 15:21:09 GMT-0400 (Eastern Daylight Time),7317618.899999999,092_m_m_n_a.png,I,m,988,17,1,2012.0999999996275,7315606.8,9028,NNB,C,15
15,test,2,1.0,2-Back,1.0,z,Mon Oct 06 2025 15:21:09 GMT-0400 (Eastern Daylight Time),7319552.2,030_o_f_n_a.png,I,z,907,18,1,1923.0999999996275,7317629.100000001,9028,NNB,C,16
0,test,3,1.0,2-Back,,,Mon Oct 06 2025 15:21:09 GMT-0400 (Eastern Daylight Time),7319552.2,057_y_m_n_a.png,I,space,1430,1,1,1923.0999999996275,7317629.100000001,9028,NNB,C,0
0,test,3,1.0,2-Back,,,Mon Oct 06 2025 15:21:09 GMT-0400 (Eastern Daylight Time),7319552.2,057_y_m_n_a.png,I,space,1430,2,1,1923.0999999996275,7317629.100000001,9028,NNB,C,0
1,test,3,0.0,2-Back,1.0,m,Mon Oct 06 2025 15:21:09 GMT-0400 (Eastern Daylight Time),7328151.8,030_o_f_n_a.png,I,m,948,3,1,1953.2999999988824,7326198.500000001,9028,NNB,C,1
2,test,3,0.0,2-Back,1.0,m,Mon Oct 06 2025 15:21:09 GMT-0400 (Eastern Daylight Time),7330052.2,082_m_m_n_a.png,I,m,870,4,1,1889.300000000745,7328162.899999999,9028,NNB,C,2
3,test,3,1.0,2-Back,1.0,z,Mon Oct 06 2025 15:21:09 GMT-0400 (Eastern Daylight Time),7331852.100000001,030_o_f_n_a.png,I,z,778,5,1,1791.0999999996275,7330061.000000001,9028,NNB,C,3
4,test,3,0.0,2-Back,1.0,m,Mon Oct 06 2025 15:21:09 GMT-0400 (Eastern Daylight Time),7333852.100000001,031_y_m_n_a.png,I,m,977,6,1,1986.0999999996275,7331866.000000001,9028,NNB,C,4
5,test,3,0.0,2-Back,1.0,m,Mon Oct 06 2025 15:21:09 GMT-0400 (Eastern Daylight Time),7336202.000000001,082_m_m_n_a.png,I,m,1330,7,1,2342.10000000149,7333859.899999999,9028,NNB,C,5
6,test,3,1.0,2-Back,1.0,z,Mon Oct 06 2025 15:21:09 GMT-0400 (Eastern Daylight Time),7338252.2,031_y_m_n_a.png,I,z,1028,8,1,2037.199999999255,7336215.000000001,9028,NNB,C,6
7,test,3,0.0,2-Back,1.0,m,Mon Oct 06 2025 15:21:09 GMT-0400 (Eastern Daylight Time),7340318.899999999,028_y_f_n_a.png,I,m,1040,9,1,2051.0,7338267.899999999,9028,NNB,C,7
8,test,3,0.0,2-Back,1.0,m,Mon Oct 06 2025 15:21:09 GMT-0400 (Eastern Daylight Time),7342519.000000001,092_m_m_n_a.png,I,m,1182,10,1,2188.60000000149,7340330.399999999,9028,NNB,C,8
9,test,3,1.0,2-Back,1.0,z,Mon Oct 06 2025 15:21:09 GMT-0400 (Eastern Daylight Time),7344368.7,028_y_f_n_a.png,I,z,814,11,1,1839.0999999996275,7342529.600000001,9028,NNB,C,9
10,test,3,1.0,2-Back,1.0,z,Mon Oct 06 2025 15:21:09 GMT-0400 (Eastern Daylight Time),7346502.2,092_m_m_n_a.png,I,z,1100,12,1,2121.199999999255,7344381.000000001,9028,NNB,C,10
11,test,3,0.0,2-Back,1.0,m,Mon Oct 06 2025 15:21:09 GMT-0400 (Eastern Daylight Time),7348585.2,030_o_f_n_a.png,I,m,1064,13,1,2070.5999999996275,7346514.600000001,9028,NNB,C,11
12,test,3,0.0,2-Back,1.0,m,Mon Oct 06 2025 15:21:09 GMT-0400 (Eastern Daylight Time),7350551.8,093_m_f_n_a.png,I,m,948,14,1,1955.2999999988824,7348596.500000001,9028,NNB,C,12
13,test,3,0.0,2-Back,1.0,m,Mon Oct 06 2025 15:21:09 GMT-0400 (Eastern Daylight Time),7352568.500000001,146_o_m_n_a.png,I,m,997,15,1,2004.6000000014901,7350563.899999999,9028,NNB,C,13
14,test,3,1.0,2-Back,1.0,z,Mon Oct 06 2025 15:21:09 GMT-0400 (Eastern Daylight Time),7354435.399999999,093_m_f_n_a.png,I,z,837,16,1,1854.5999999996275,7352580.8,9028,NNB,C,14
15,test,3,0.0,2-Back,1.0,m,Mon Oct 06 2025 15:21:09 GMT-0400 (Eastern Daylight Time),7356368.8,130_o_f_n_a.png,I,m,906,17,1,1923.2999999988824,7354445.500000001,9028,NNB,C,15
16,test,3,0.0,2-Back,1.0,m,Mon Oct 06 2025 15:21:09 GMT-0400 (Eastern Daylight Time),7358252.100000001,130_o_f_n_a.png,I,m,860,18,1,1871.7000000011176,7356380.399999999,9028,NNB,C,16
0,test,4,0.0,2-Back,,,Mon Oct 06 2025 15:21:09 GMT-0400 (Eastern Daylight Time),7358252.100000001,059_o_m_n_a.png,I,space,1546,1,1,1871.7000000011176,7356380.399999999,9028,NNB,C,0
0,test,4,0.0,2-Back,,,Mon Oct 06 2025 15:21:09 GMT-0400 (Eastern Daylight Time),7358252.100000001,098_y_f_n_a.png,I,space,1546,2,1,1871.7000000011176,7356380.399999999,9028,NNB,C,0
1,test,4,1.0,2-Back,1.0,z,Mon Oct 06 2025 15:21:09 GMT-0400 (Eastern Daylight Time),7368135.600000001,059_o_m_n_a.png,I,z,1999,3,1,3001.9000000003725,7365133.7,9028,NNB,C,1
2,test,4,1.0,2-Back,1.0,z,Mon Oct 06 2025 15:21:09 GMT-0400 (Eastern Daylight Time),7370151.7,098_y_f_n_a.png,I,z,997,4,1,2007.800000000745,7368143.899999999,9028,NNB,C,2
3,test,4,0.0,2-Back,1.0,m,Mon Oct 06 2025 15:21:09 GMT-0400 (Eastern Daylight Time),7372118.7,030_o_f_n_a.png,I,m,933,5,1,1954.800000000745,7370163.899999999,9028,NNB,C,3
4,test,4,0.0,2-Back,1.0,m,Mon Oct 06 2025 15:21:09 GMT-0400 (Eastern Daylight Time),7374035.3,030_o_f_n_a.png,I,m,887,6,1,1908.0,7372127.3,9028,NNB,C,4
5,test,4,0.0,2-Back,1.0,m,Mon Oct 06 2025 15:21:09 GMT-0400 (Eastern Daylight Time),7375968.8,006_m_f_n_a.png,I,m,906,7,1,1925.0,7374043.8,9028,NNB,C,5
6,test,4,0.0,2-Back,1.0,m,Mon Oct 06 2025 15:21:09 GMT-0400 (Eastern Daylight Time),7377902.2,031_y_m_n_a.png,I,m,905,8,1,1924.0,7375978.2,9028,NNB,C,6
7,test,4,1.0,2-Back,1.0,z,Mon Oct 06 2025 15:21:09 GMT-0400 (Eastern Daylight Time),7379685.399999999,006_m_f_n_a.png,I,z,752,9,1,1772.3999999985099,7377913.000000001,9028,NNB,C,7
8,test,4,0.0,2-Back,1.0,m,Mon Oct 06 2025 15:21:09 GMT-0400 (Eastern Daylight Time),7381585.500000001,092_m_m_n_a.png,I,m,872,10,1,1889.7000000011176,7379695.8,9028,NNB,C,8
9,test,4,0.0,2-Back,1.0,m,Mon Oct 06 2025 15:21:09 GMT-0400 (Eastern Daylight Time),7383985.500000001,031_y_m_n_a.png,I,m,1373,11,1,2391.0,7381594.500000001,9028,NNB,C,9
10,test,4,0.0,2-Back,1.0,m,Mon Oct 06 2025 15:21:09 GMT-0400 (Eastern Daylight Time),7386035.000000001,130_o_f_n_a.png,I,m,1019,12,1,2040.6000000014901,7383994.399999999,9028,NNB,C,10
11,test,4,0.0,2-Back,1.0,m,Mon Oct 06 2025 15:21:09 GMT-0400 (Eastern Daylight Time),7388085.399999999,057_y_m_n_a.png,I,m,1013,13,1,2043.8999999985099,7386041.500000001,9028,NNB,C,11
12,test,4,1.0,2-Back,1.0,z,Mon Oct 06 2025 15:21:09 GMT-0400 (Eastern Daylight Time),7389952.100000001,130_o_f_n_a.png,I,z,840,14,1,1857.9000000003725,7388094.2,9028,NNB,C,12
13,test,4,1.0,2-Back,1.0,z,Mon Oct 06 2025 15:21:09 GMT-0400 (Eastern Daylight Time),7392768.7,057_y_m_n_a.png,I,z,1789,15,1,2804.300000000745,7389964.399999999,9028,NNB,C,13
14,test,4,0.0,2-Back,1.0,m,Mon Oct 06 2025 15:21:09 GMT-0400 (Eastern Daylight Time),7394968.399999999,082_m_m_n_a.png,I,m,1180,16,1,2188.89999999851,7392779.500000001,9028,NNB,C,14
15,test,4,0.0,2-Back,1.0,m,Mon Oct 06 2025 15:21:09 GMT-0400 (Eastern Daylight Time),7396902.100000001,093_m_f_n_a.png,I,m,900,17,1,1928.0999999996275,7394974.000000001,9028,NNB,C,15
16,test,4,1.0,2-Back,1.0,z,Mon Oct 06 2025 15:21:09 GMT-0400 (Eastern Daylight Time),7398768.7,082_m_m_n_a.png,I,z,840,18,1,1856.0999999996275,7396912.600000001,9028,NNB,C,16
0,test,5,1.0,2-Back,,,Mon Oct 06 2025 15:21:09 GMT-0400 (Eastern Daylight Time),7398768.7,057_y_m_n_a.png,I,space,1637,1,1,1856.0999999996275,7396912.600000001,9028,NNB,C,0
0,test,5,1.0,2-Back,,,Mon Oct 06 2025 15:21:09 GMT-0400 (Eastern Daylight Time),7398768.7,093_m_f_n_a.png,I,space,1637,2,1,1856.0999999996275,7396912.600000001,9028,NNB,C,0
1,test,5,1.0,2-Back,1.0,z,Mon Oct 06 2025 15:21:09 GMT-0400 (Eastern Daylight Time),7407518.8,057_y_m_n_a.png,I,z,876,3,1,1891.5999999996275,7405627.2,9028,NNB,C,1
2,test,5,1.0,2-Back,1.0,z,Mon Oct 06 2025 15:21:09 GMT-0400 (Eastern Daylight Time),7409535.399999999,093_m_f_n_a.png,I,z,990,4,1,2006.7999999988824,7407528.600000001,9028,NNB,C,2
3,test,5,0.0,2-Back,1.0,m,Mon Oct 06 2025 15:21:09 GMT-0400 (Eastern Daylight Time),7411401.899999999,130_o_f_n_a.png,I,m,846,5,1,1855.2999999988824,7409546.600000001,9028,NNB,C,3
3,test,5,0.0,2-Back,0.0,m,Mon Oct 06 2025 15:21:09 GMT-0400 (Eastern Daylight Time),7414435.500000001,057_y_m_n_a.png,I,None,2016,6,1,3023.10000000149,7411412.399999999,9028,NNB,C,4
4,test,5,0.0,2-Back,1.0,m,Mon Oct 06 2025 15:21:09 GMT-0400 (Eastern Daylight Time),7416468.3,028_y_f_n_a.png,I,m,1004,7,1,2025.199999999255,7414443.100000001,9028,NNB,C,5
5,test,5,0.0,2-Back,1.0,m,Mon Oct 06 2025 15:21:09 GMT-0400 (Eastern Daylight Time),7418568.399999999,130_o_f_n_a.png,I,m,1082,8,1,2092.0,7416476.399999999,9028,NNB,C,6
6,test,5,1.0,2-Back,1.0,z,Mon Oct 06 2025 15:21:09 GMT-0400 (Eastern Daylight Time),7420585.2,028_y_f_n_a.png,I,z,996,9,1,2007.4000000003725,7418577.8,9028,NNB,C,7
7,test,5,0.0,2-Back,1.0,m,Mon Oct 06 2025 15:21:09 GMT-0400 (Eastern Daylight Time),7422402.000000001,146_o_m_n_a.png,I,m,788,10,1,1808.6000000014901,7420593.399999999,9028,NNB,C,8
8,test,5,0.0,2-Back,1.0,m,Mon Oct 06 2025 15:21:09 GMT-0400 (Eastern Daylight Time),7424335.500000001,006_m_f_n_a.png,I,m,915,11,1,1921.4000000003725,7422414.100000001,9028,NNB,C,9
9,test,5,0.0,2-Back,1.0,m,Mon Oct 06 2025 15:21:09 GMT-0400 (Eastern Daylight Time),7426368.7,092_m_m_n_a.png,I,m,1006,12,1,2024.5999999996275,7424344.100000001,9028,NNB,C,10
10,test,5,0.0,2-Back,1.0,m,Mon Oct 06 2025 15:21:09 GMT-0400 (Eastern Daylight Time),7428435.500000001,146_o_m_n_a.png,I,m,1036,13,1,2054.7000000011176,7426380.8,9028,NNB,C,11
11,test,5,1.0,2-Back,1.0,z,Mon Oct 06 2025 15:21:09 GMT-0400 (Eastern Daylight Time),7430318.500000001,092_m_m_n_a.png,I,z,856,14,1,1869.300000000745,7428449.2,9028,NNB,C,12
12,test,5,0.0,2-Back,1.0,m,Mon Oct 06 2025 15:21:09 GMT-0400 (Eastern Daylight Time),7432202.000000001,098_y_f_n_a.png,I,m,862,15,1,1870.9000000003725,7430331.100000001,9028,NNB,C,13
13,test,5,0.0,2-Back,1.0,m,Mon Oct 06 2025 15:21:09 GMT-0400 (Eastern Daylight Time),7434135.3,059_o_m_n_a.png,I,m,915,16,1,1924.0,7432211.3,9028,NNB,C,14
14,test,5,0.0,2-Back,1.0,m,Mon Oct 06 2025 15:21:09 GMT-0400 (Eastern Daylight Time),7436018.3,006_m_f_n_a.png,I,m,853,17,1,1873.2999999988824,7434145.000000001,9028,NNB,C,15
15,test,5,1.0,2-Back,1.0,z,Mon Oct 06 2025 15:21:09 GMT-0400 (Eastern Daylight Time),7437818.600000001,059_o_m_n_a.png,I,z,778,18,1,1794.4000000003725,7436024.2,9028,NNB,C,16
