acc_sum,block,block_c,change,condition,correct,correct_response,datetime,endtime,face,project,response,response_time,row_sel,session_number,start_end,starttime,subject_id,task,task_vers,trial
0,prac,1,,1-Back,,,Mon May 04 2026 13:17:37 GMT-0400 (Eastern Daylight Time),,050_m_f_n_a.png,I,space,14313,1,3,,,9028,NNB,A,0
1,prac,1,0.0,1-Back,1.0,m,Mon May 04 2026 13:17:37 GMT-0400 (Eastern Daylight Time),121809.5,063_y_f_n_a.png,I,m,954,2,3,1787.0999999996275,120022.40000000037,9028,NNB,A,1
2,prac,1,1.0,1-Back,1.0,z,Mon May 04 2026 13:17:37 GMT-0400 (Eastern Daylight Time),123609.29999999981,063_y_f_n_a.png,I,z,1018,3,3,1789.699999999255,121819.60000000056,9028,NNB,A,2
3,prac,1,0.0,1-Back,1.0,m,Mon May 04 2026 13:17:37 GMT-0400 (Eastern Daylight Time),125509.40000000037,053_o_m_n_a.png,I,m,1080,4,3,1890.6000000005588,123618.79999999981,9028,NNB,A,3
4,prac,1,0.0,1-Back,1.0,m,Mon May 04 2026 13:17:37 GMT-0400 (Eastern Daylight Time),127526.10000000056,058_m_m_n_a.png,I,m,1194,5,3,2007.300000000745,125518.79999999981,9028,NNB,A,4
5,prac,1,1.0,1-Back,1.0,z,Mon May 04 2026 13:17:37 GMT-0400 (Eastern Daylight Time),129292.70000000019,058_m_m_n_a.png,I,z,974,6,3,1757.5,127535.20000000019,9028,NNB,A,5
6,prac,1,0.0,1-Back,1.0,m,Mon May 04 2026 13:17:37 GMT-0400 (Eastern Daylight Time),131659.2999999998,047_o_f_n_a.png,I,m,1495,7,3,2355.899999999441,129303.40000000037,9028,NNB,A,6
7,prac,1,0.0,1-Back,1.0,m,Mon May 04 2026 13:17:37 GMT-0400 (Eastern Daylight Time),133576.0,045_m_m_n_a.png,I,m,1097,8,3,1907.5,131668.5,9028,NNB,A,7
8,prac,1,0.0,1-Back,1.0,m,Mon May 04 2026 13:17:37 GMT-0400 (Eastern Daylight Time),135509.2999999998,050_m_f_n_a.png,I,m,1156,9,3,1923.8999999994412,133585.40000000037,9028,NNB,A,8
9,prac,1,1.0,1-Back,1.0,z,Mon May 04 2026 13:17:37 GMT-0400 (Eastern Daylight Time),137192.7999999998,050_m_f_n_a.png,I,z,895,10,3,1674.199999999255,135518.60000000056,9028,NNB,A,9
10,prac,1,0.0,1-Back,1.0,m,Mon May 04 2026 13:17:37 GMT-0400 (Eastern Daylight Time),138892.7000000002,053_o_m_n_a.png,I,m,914,11,3,1689.5999999996275,137203.10000000056,9028,NNB,A,10
11,prac,1,0.0,1-Back,1.0,m,Mon May 04 2026 13:17:37 GMT-0400 (Eastern Daylight Time),140825.90000000037,010_y_f_n_a.png,I,m,1065,12,3,1921.9000000003725,138904.0,9028,NNB,A,11
0,test,1,0.0,1-Back,,,Mon May 04 2026 13:17:37 GMT-0400 (Eastern Daylight Time),140825.90000000037,063_y_f_n_a.png,I,space,21478,1,3,1921.9000000003725,138904.0,9028,NNB,A,0
1,test,1,0.0,1-Back,1.0,m,Mon May 04 2026 13:17:37 GMT-0400 (Eastern Daylight Time),171375.90000000037,043_m_f_n_a.png,I,m,890,2,3,1908.9000000003725,169467.0,9028,NNB,A,1
2,test,1,0.0,1-Back,1.0,m,Mon May 04 2026 13:17:37 GMT-0400 (Eastern Daylight Time),173575.7999999998,010_y_f_n_a.png,I,m,1173,3,3,2193.199999999255,171382.60000000056,9028,NNB,A,2
3,test,1,1.0,1-Back,1.0,z,Mon May 04 2026 13:17:37 GMT-0400 (Eastern Daylight Time),175359.10000000056,010_y_f_n_a.png,I,z,765,4,3,1776.9000000003725,173582.2000000002,9028,NNB,A,3
4,test,1,0.0,1-Back,1.0,m,Mon May 04 2026 13:17:37 GMT-0400 (Eastern Daylight Time),177459.2000000002,043_m_f_n_a.png,I,m,1078,5,3,2092.0999999996275,175367.10000000056,9028,NNB,A,4
5,test,1,0.0,1-Back,1.0,m,Mon May 04 2026 13:17:37 GMT-0400 (Eastern Daylight Time),179542.40000000037,053_o_m_n_a.png,I,m,1066,6,3,2075.7000000001863,177466.7000000002,9028,NNB,A,5
6,test,1,1.0,1-Back,1.0,z,Mon May 04 2026 13:17:37 GMT-0400 (Eastern Daylight Time),181542.40000000037,053_o_m_n_a.png,I,z,983,7,3,1992.9000000003725,179549.5,9028,NNB,A,6
7,test,1,0.0,1-Back,1.0,m,Mon May 04 2026 13:17:37 GMT-0400 (Eastern Daylight Time),183509.10000000056,058_m_m_n_a.png,I,m,942,8,3,1959.6000000005588,181549.5,9028,NNB,A,7
8,test,1,0.0,1-Back,1.0,m,Mon May 04 2026 13:17:37 GMT-0400 (Eastern Daylight Time),185442.2000000002,047_o_f_n_a.png,I,m,903,9,3,1927.2000000001863,183515.0,9028,NNB,A,8
9,test,1,0.0,1-Back,1.0,m,Mon May 04 2026 13:17:37 GMT-0400 (Eastern Daylight Time),187425.60000000056,058_m_m_n_a.png,I,m,954,10,3,1979.5,185446.10000000056,9028,NNB,A,9
10,test,1,0.0,1-Back,1.0,m,Mon May 04 2026 13:17:37 GMT-0400 (Eastern Daylight Time),189542.40000000037,041_y_m_n_a.png,I,m,1083,11,3,2110.5,187431.90000000037,9028,NNB,A,10
11,test,1,1.0,1-Back,1.0,z,Mon May 04 2026 13:17:37 GMT-0400 (Eastern Daylight Time),191425.7000000002,041_y_m_n_a.png,I,z,854,12,3,1878.5,189547.2000000002,9028,NNB,A,11
12,test,1,0.0,1-Back,1.0,m,Mon May 04 2026 13:17:37 GMT-0400 (Eastern Daylight Time),193342.2999999998,044_o_f_n_a.png,I,m,899,13,3,1908.3999999994412,191433.90000000037,9028,NNB,A,12
13,test,1,1.0,1-Back,1.0,z,Mon May 04 2026 13:17:37 GMT-0400 (Eastern Daylight Time),195242.40000000037,044_o_f_n_a.png,I,z,878,14,3,1894.4000000003725,193348.0,9028,NNB,A,13
14,test,1,0.0,1-Back,1.0,m,Mon May 04 2026 13:17:37 GMT-0400 (Eastern Daylight Time),197142.40000000037,008_y_m_n_a.png,I,m,874,15,3,1892.0,195250.40000000037,9028,NNB,A,14
15,test,1,0.0,1-Back,1.0,m,Mon May 04 2026 13:17:37 GMT-0400 (Eastern Daylight Time),199092.40000000037,050_m_f_n_a.png,I,m,927,16,3,1942.0,197150.40000000037,9028,NNB,A,15
16,test,1,0.0,1-Back,1.0,m,Mon May 04 2026 13:17:37 GMT-0400 (Eastern Daylight Time),201125.7999999998,046_o_m_n_a.png,I,m,1009,17,3,2027.0,199098.7999999998,9028,NNB,A,16
17,test,1,0.0,1-Back,1.0,m,Mon May 04 2026 13:17:37 GMT-0400 (Eastern Daylight Time),203059.0,050_m_f_n_a.png,I,m,903,18,3,1925.0999999996275,201133.90000000037,9028,NNB,A,17
0,test,2,0.0,1-Back,,,Mon May 04 2026 13:17:37 GMT-0400 (Eastern Daylight Time),203059.0,058_m_m_n_a.png,I,space,2314,1,3,1925.0999999996275,201133.90000000037,9028,NNB,A,0
1,test,2,0.0,1-Back,1.0,m,Mon May 04 2026 13:17:37 GMT-0400 (Eastern Daylight Time),209309.0,043_m_f_n_a.png,I,m,883,2,3,1910.0999999996275,207398.90000000037,9028,NNB,A,1
2,test,2,1.0,1-Back,1.0,z,Mon May 04 2026 13:17:37 GMT-0400 (Eastern Daylight Time),211025.7999999998,043_m_f_n_a.png,I,z,695,3,3,1710.0999999996275,209315.7000000002,9028,NNB,A,2
3,test,2,0.0,1-Back,1.0,m,Mon May 04 2026 13:17:37 GMT-0400 (Eastern Daylight Time),212975.7999999998,058_m_m_n_a.png,I,m,923,4,3,1941.2999999998137,211034.5,9028,NNB,A,3
4,test,2,0.0,1-Back,1.0,m,Mon May 04 2026 13:17:37 GMT-0400 (Eastern Daylight Time),214942.2999999998,041_y_m_n_a.png,I,m,949,5,3,1960.2999999998137,212982.0,9028,NNB,A,4
5,test,2,0.0,1-Back,1.0,m,Mon May 04 2026 13:17:37 GMT-0400 (Eastern Daylight Time),216975.60000000056,063_y_f_n_a.png,I,m,1015,6,3,2027.5,214948.10000000056,9028,NNB,A,5
6,test,2,1.0,1-Back,1.0,z,Mon May 04 2026 13:17:37 GMT-0400 (Eastern Daylight Time),218726.2999999998,063_y_f_n_a.png,I,z,733,7,3,1744.3999999994412,216981.90000000037,9028,NNB,A,6
7,test,2,0.0,1-Back,1.0,m,Mon May 04 2026 13:17:37 GMT-0400 (Eastern Daylight Time),220558.90000000037,041_y_m_n_a.png,I,m,815,8,3,1825.7000000001863,218733.2000000002,9028,NNB,A,7
8,test,2,0.0,1-Back,1.0,m,Mon May 04 2026 13:17:37 GMT-0400 (Eastern Daylight Time),222625.7999999998,044_o_f_n_a.png,I,m,1038,9,3,2059.5,220566.2999999998,9028,NNB,A,8
9,test,2,0.0,1-Back,1.0,m,Mon May 04 2026 13:17:37 GMT-0400 (Eastern Daylight Time),224542.5,045_m_m_n_a.png,I,m,891,10,3,1910.8999999994412,222631.60000000056,9028,NNB,A,9
10,test,2,1.0,1-Back,1.0,z,Mon May 04 2026 13:17:37 GMT-0400 (Eastern Daylight Time),226475.7999999998,045_m_m_n_a.png,I,z,910,11,3,1927.0,224548.7999999998,9028,NNB,A,10
11,test,2,0.0,1-Back,1.0,m,Mon May 04 2026 13:17:37 GMT-0400 (Eastern Daylight Time),228275.7000000002,044_o_f_n_a.png,I,m,777,12,3,1794.2999999998137,226481.40000000037,9028,NNB,A,11
12,test,2,0.0,1-Back,1.0,m,Mon May 04 2026 13:17:37 GMT-0400 (Eastern Daylight Time),230075.7999999998,047_o_f_n_a.png,I,m,777,13,3,1793.2999999998137,228282.5,9028,NNB,A,12
13,test,2,0.0,1-Back,1.0,m,Mon May 04 2026 13:17:37 GMT-0400 (Eastern Daylight Time),231892.2999999998,053_o_m_n_a.png,I,m,793,14,3,1809.2999999998137,230083.0,9028,NNB,A,13
14,test,2,0.0,1-Back,1.0,m,Mon May 04 2026 13:17:37 GMT-0400 (Eastern Daylight Time),233725.7000000002,046_o_m_n_a.png,I,m,808,15,3,1826.4000000003725,231899.2999999998,9028,NNB,A,14
15,test,2,1.0,1-Back,1.0,z,Mon May 04 2026 13:17:37 GMT-0400 (Eastern Daylight Time),235475.7999999998,046_o_m_n_a.png,I,z,727,16,3,1743.199999999255,233732.60000000056,9028,NNB,A,15
16,test,2,0.0,1-Back,1.0,m,Mon May 04 2026 13:17:37 GMT-0400 (Eastern Daylight Time),237359.0,008_y_m_n_a.png,I,m,864,17,3,1876.0,235483.0,9028,NNB,A,16
17,test,2,1.0,1-Back,1.0,z,Mon May 04 2026 13:17:37 GMT-0400 (Eastern Daylight Time),239192.40000000037,008_y_m_n_a.png,I,z,806,18,3,1827.4000000003725,237365.0,9028,NNB,A,17
0,test,3,1.0,1-Back,,,Mon May 04 2026 13:17:37 GMT-0400 (Eastern Daylight Time),239192.40000000037,010_y_f_n_a.png,I,space,1852,1,3,1827.4000000003725,237365.0,9028,NNB,A,0
1,test,3,0.0,1-Back,1.0,m,Mon May 04 2026 13:17:37 GMT-0400 (Eastern Daylight Time),245059.0,046_o_m_n_a.png,I,m,870,2,3,1893.3999999994412,243165.60000000056,9028,NNB,A,1
2,test,3,1.0,1-Back,1.0,z,Mon May 04 2026 13:17:37 GMT-0400 (Eastern Daylight Time),247092.5,046_o_m_n_a.png,I,z,1010,3,3,2026.7000000001863,245065.7999999998,9028,NNB,A,2
3,test,3,0.0,1-Back,1.0,m,Mon May 04 2026 13:17:37 GMT-0400 (Eastern Daylight Time),248892.40000000037,050_m_f_n_a.png,I,m,777,4,3,1793.6000000005588,247098.7999999998,9028,NNB,A,3
4,test,3,1.0,1-Back,1.0,z,Mon May 04 2026 13:17:37 GMT-0400 (Eastern Daylight Time),250709.10000000056,050_m_f_n_a.png,I,z,783,5,3,1810.800000000745,248898.2999999998,9028,NNB,A,4
5,test,3,0.0,1-Back,1.0,m,Mon May 04 2026 13:17:37 GMT-0400 (Eastern Daylight Time),252725.7999999998,044_o_f_n_a.png,I,m,992,6,3,2008.8999999994412,250716.90000000037,9028,NNB,A,5
6,test,3,0.0,1-Back,1.0,m,Mon May 04 2026 13:17:37 GMT-0400 (Eastern Daylight Time),254526.10000000056,041_y_m_n_a.png,I,m,783,7,3,1793.800000000745,252732.2999999998,9028,NNB,A,6
7,test,3,0.0,1-Back,1.0,m,Mon May 04 2026 13:17:37 GMT-0400 (Eastern Daylight Time),256925.7000000002,044_o_f_n_a.png,I,m,1375,8,3,2392.9000000003725,254532.7999999998,9028,NNB,A,7
8,test,3,0.0,1-Back,1.0,m,Mon May 04 2026 13:17:37 GMT-0400 (Eastern Daylight Time),258809.10000000056,008_y_m_n_a.png,I,m,863,9,3,1877.6000000005588,256931.5,9028,NNB,A,8
9,test,3,1.0,1-Back,1.0,z,Mon May 04 2026 13:17:37 GMT-0400 (Eastern Daylight Time),260625.60000000056,008_y_m_n_a.png,I,z,788,10,3,1809.2000000001863,258816.40000000037,9028,NNB,A,9
10,test,3,0.0,1-Back,1.0,m,Mon May 04 2026 13:17:37 GMT-0400 (Eastern Daylight Time),262442.5,043_m_f_n_a.png,I,m,787,11,3,1811.0999999996275,260631.40000000037,9028,NNB,A,10
11,test,3,0.0,1-Back,1.0,m,Mon May 04 2026 13:17:37 GMT-0400 (Eastern Daylight Time),264325.7999999998,063_y_f_n_a.png,I,m,849,12,3,1876.699999999255,262449.10000000056,9028,NNB,A,11
12,test,3,1.0,1-Back,1.0,z,Mon May 04 2026 13:17:37 GMT-0400 (Eastern Daylight Time),266208.9000000004,063_y_f_n_a.png,I,z,862,13,3,1876.0,264332.9000000004,9028,NNB,A,12
13,test,3,0.0,1-Back,1.0,m,Mon May 04 2026 13:17:37 GMT-0400 (Eastern Daylight Time),267992.5,043_m_f_n_a.png,I,m,756,14,3,1779.2999999998137,266213.2000000002,9028,NNB,A,13
14,test,3,0.0,1-Back,1.0,m,Mon May 04 2026 13:17:37 GMT-0400 (Eastern Daylight Time),269777.4000000004,058_m_m_n_a.png,I,m,755,15,3,1777.4000000003725,268000.0,9028,NNB,A,14
15,test,3,1.0,1-Back,1.0,z,Mon May 04 2026 13:17:37 GMT-0400 (Eastern Daylight Time),271575.60000000056,058_m_m_n_a.png,I,z,781,16,3,1794.6000000005588,269781.0,9028,NNB,A,15
16,test,3,0.0,1-Back,1.0,m,Mon May 04 2026 13:17:37 GMT-0400 (Eastern Daylight Time),273326.2000000002,047_o_f_n_a.png,I,m,733,17,3,1744.4000000003725,271581.7999999998,9028,NNB,A,16
17,test,3,1.0,1-Back,1.0,z,Mon May 04 2026 13:17:37 GMT-0400 (Eastern Daylight Time),275158.7999999998,047_o_f_n_a.png,I,z,807,18,3,1824.2999999998137,273334.5,9028,NNB,A,17
0,test,4,1.0,1-Back,,,Mon May 04 2026 13:17:37 GMT-0400 (Eastern Daylight Time),275158.7999999998,050_m_f_n_a.png,I,space,1655,1,3,1824.2999999998137,273334.5,9028,NNB,A,0
1,test,4,0.0,1-Back,1.0,m,Mon May 04 2026 13:17:37 GMT-0400 (Eastern Daylight Time),280642.2999999998,046_o_m_n_a.png,I,m,778,2,3,1792.0999999996275,278850.2000000002,9028,NNB,A,1
2,test,4,0.0,1-Back,1.0,m,Mon May 04 2026 13:17:37 GMT-0400 (Eastern Daylight Time),282442.5,050_m_f_n_a.png,I,m,770,3,3,1794.0,280648.5,9028,NNB,A,2
3,test,4,0.0,1-Back,1.0,m,Mon May 04 2026 13:17:37 GMT-0400 (Eastern Daylight Time),284309.0,044_o_f_n_a.png,I,m,833,4,3,1860.2000000001863,282448.7999999998,9028,NNB,A,3
4,test,4,1.0,1-Back,1.0,z,Mon May 04 2026 13:17:37 GMT-0400 (Eastern Daylight Time),286042.2999999998,044_o_f_n_a.png,I,z,712,5,3,1730.199999999255,284312.10000000056,9028,NNB,A,4
5,test,4,0.0,1-Back,1.0,m,Mon May 04 2026 13:17:37 GMT-0400 (Eastern Daylight Time),287926.2000000002,063_y_f_n_a.png,I,m,867,6,3,1875.9000000003725,286050.2999999998,9028,NNB,A,5
6,test,4,0.0,1-Back,1.0,m,Mon May 04 2026 13:17:37 GMT-0400 (Eastern Daylight Time),289675.7000000002,041_y_m_n_a.png,I,m,727,7,3,1744.4000000003725,287931.2999999998,9028,NNB,A,6
7,test,4,1.0,1-Back,1.0,z,Mon May 04 2026 13:17:37 GMT-0400 (Eastern Daylight Time),291425.7000000002,041_y_m_n_a.png,I,z,729,8,3,1743.2999999998137,289682.4000000004,9028,NNB,A,7
8,test,4,0.0,1-Back,1.0,m,Mon May 04 2026 13:17:37 GMT-0400 (Eastern Daylight Time),293192.4000000004,063_y_f_n_a.png,I,m,747,9,3,1760.2999999998137,291432.10000000056,9028,NNB,A,8
9,test,4,0.0,1-Back,1.0,m,Mon May 04 2026 13:17:37 GMT-0400 (Eastern Daylight Time),295059.0,045_m_m_n_a.png,I,m,836,10,3,1859.7000000001863,293199.2999999998,9028,NNB,A,9
10,test,4,1.0,1-Back,1.0,z,Mon May 04 2026 13:17:37 GMT-0400 (Eastern Daylight Time),296808.9000000004,045_m_m_n_a.png,I,z,730,11,3,1744.5,295064.4000000004,9028,NNB,A,10
11,test,4,0.0,1-Back,1.0,m,Mon May 04 2026 13:17:37 GMT-0400 (Eastern Daylight Time),298608.9000000004,047_o_f_n_a.png,I,m,780,12,3,1793.2999999998137,296815.60000000056,9028,NNB,A,11
12,test,4,0.0,1-Back,1.0,m,Mon May 04 2026 13:17:37 GMT-0400 (Eastern Daylight Time),300392.0,053_o_m_n_a.png,I,m,755,13,3,1775.2999999998137,298616.7000000002,9028,NNB,A,12
13,test,4,0.0,1-Back,1.0,m,Mon May 04 2026 13:17:37 GMT-0400 (Eastern Daylight Time),302242.2999999998,047_o_f_n_a.png,I,m,827,14,3,1843.5999999996275,300398.7000000002,9028,NNB,A,13
14,test,4,0.0,1-Back,1.0,m,Mon May 04 2026 13:17:37 GMT-0400 (Eastern Daylight Time),304175.7000000002,010_y_f_n_a.png,I,m,906,15,3,1928.4000000003725,302247.2999999998,9028,NNB,A,14
15,test,4,1.0,1-Back,1.0,z,Mon May 04 2026 13:17:37 GMT-0400 (Eastern Daylight Time),305959.0,010_y_f_n_a.png,I,z,756,16,3,1776.5999999996275,304182.4000000004,9028,NNB,A,15
16,test,4,0.0,1-Back,1.0,m,Mon May 04 2026 13:17:37 GMT-0400 (Eastern Daylight Time),307758.9000000004,043_m_f_n_a.png,I,m,773,17,3,1793.6000000005588,305965.2999999998,9028,NNB,A,16
17,test,4,1.0,1-Back,1.0,z,Mon May 04 2026 13:17:37 GMT-0400 (Eastern Daylight Time),309559.10000000056,043_m_f_n_a.png,I,z,773,18,3,1793.1000000005588,307766.0,9028,NNB,A,17
0,test,5,1.0,1-Back,,,Mon May 04 2026 13:17:37 GMT-0400 (Eastern Daylight Time),309559.10000000056,053_o_m_n_a.png,I,space,1878,1,3,1793.1000000005588,307766.0,9028,NNB,A,0
1,test,5,1.0,1-Back,1.0,z,Mon May 04 2026 13:17:37 GMT-0400 (Eastern Daylight Time),315192.2999999998,053_o_m_n_a.png,I,z,714,2,3,1726.3999999994412,313465.9000000004,9028,NNB,A,1
2,test,5,0.0,1-Back,1.0,m,Mon May 04 2026 13:17:37 GMT-0400 (Eastern Daylight Time),317192.5,063_y_f_n_a.png,I,m,973,3,3,1994.0999999996275,315198.4000000004,9028,NNB,A,2
3,test,5,0.0,1-Back,1.0,m,Mon May 04 2026 13:17:37 GMT-0400 (Eastern Daylight Time),319008.9000000004,041_y_m_n_a.png,I,m,795,4,3,1809.7000000001863,317199.2000000002,9028,NNB,A,3
4,test,5,0.0,1-Back,1.0,m,Mon May 04 2026 13:17:37 GMT-0400 (Eastern Daylight Time),320842.5,063_y_f_n_a.png,I,m,811,5,3,1826.3999999994412,319016.10000000056,9028,NNB,A,4
5,test,5,0.0,1-Back,1.0,m,Mon May 04 2026 13:17:37 GMT-0400 (Eastern Daylight Time),322625.4000000004,058_m_m_n_a.png,I,m,761,6,3,1776.2000000001863,320849.2000000002,9028,NNB,A,5
6,test,5,1.0,1-Back,1.0,z,Mon May 04 2026 13:17:37 GMT-0400 (Eastern Daylight Time),324325.5,058_m_m_n_a.png,I,z,666,7,3,1696.7000000001863,322628.7999999998,9028,NNB,A,6
7,test,5,0.0,1-Back,1.0,m,Mon May 04 2026 13:17:37 GMT-0400 (Eastern Daylight Time),326109.9000000004,010_y_f_n_a.png,I,m,751,8,3,1777.6000000005588,324332.2999999998,9028,NNB,A,7
8,test,5,0.0,1-Back,1.0,m,Mon May 04 2026 13:17:37 GMT-0400 (Eastern Daylight Time),327875.7000000002,008_y_m_n_a.png,I,m,744,9,3,1758.9000000003725,326116.7999999998,9028,NNB,A,8
9,test,5,0.0,1-Back,1.0,m,Mon May 04 2026 13:17:37 GMT-0400 (Eastern Daylight Time),329726.10000000056,010_y_f_n_a.png,I,m,833,10,3,1842.800000000745,327883.2999999998,9028,NNB,A,9
10,test,5,0.0,1-Back,1.0,m,Mon May 04 2026 13:17:37 GMT-0400 (Eastern Daylight Time),331392.4000000004,047_o_f_n_a.png,I,m,647,11,3,1660.6000000005588,329731.7999999998,9028,NNB,A,10
11,test,5,1.0,1-Back,1.0,z,Mon May 04 2026 13:17:37 GMT-0400 (Eastern Daylight Time),333242.4000000004,047_o_f_n_a.png,I,z,827,12,3,1844.0,331398.4000000004,9028,NNB,A,11
12,test,5,0.0,1-Back,1.0,m,Mon May 04 2026 13:17:37 GMT-0400 (Eastern Daylight Time),334992.4000000004,046_o_m_n_a.png,I,m,730,13,3,1743.2000000001863,333249.2000000002,9028,NNB,A,12
13,test,5,0.0,1-Back,1.0,m,Mon May 04 2026 13:17:37 GMT-0400 (Eastern Daylight Time),336709.10000000056,050_m_f_n_a.png,I,m,693,14,3,1709.800000000745,334999.2999999998,9028,NNB,A,13
14,test,5,1.0,1-Back,1.0,z,Mon May 04 2026 13:17:37 GMT-0400 (Eastern Daylight Time),338392.4000000004,050_m_f_n_a.png,I,z,655,15,3,1674.9000000003725,336717.5,9028,NNB,A,14
15,test,5,0.0,1-Back,1.0,m,Mon May 04 2026 13:17:37 GMT-0400 (Eastern Daylight Time),340142.4000000004,046_o_m_n_a.png,I,m,723,16,3,1743.2000000001863,338399.2000000002,9028,NNB,A,15
16,test,5,0.0,1-Back,1.0,m,Mon May 04 2026 13:17:37 GMT-0400 (Eastern Daylight Time),341825.60000000056,043_m_f_n_a.png,I,m,662,17,3,1677.1000000005588,340148.5,9028,NNB,A,16
17,test,5,0.0,1-Back,1.0,m,Mon May 04 2026 13:17:37 GMT-0400 (Eastern Daylight Time),343608.9000000004,045_m_m_n_a.png,I,m,762,18,3,1776.6000000005588,341832.2999999998,9028,NNB,A,17
0,prac,1,0.0,2-Back,,,Mon May 04 2026 13:17:37 GMT-0400 (Eastern Daylight Time),343608.9000000004,008_y_m_n_a.png,I,space,10678,1,3,1776.6000000005588,341832.2999999998,9028,NNB,A,0
0,prac,1,0.0,2-Back,,,Mon May 04 2026 13:17:37 GMT-0400 (Eastern Daylight Time),343608.9000000004,043_m_f_n_a.png,I,space,10678,2,3,1776.6000000005588,341832.2999999998,9028,NNB,A,0
1,prac,1,1.0,2-Back,1.0,m,Mon May 04 2026 13:17:37 GMT-0400 (Eastern Daylight Time),453142.7000000002,046_o_m_n_a.png,I,m,1205,3,3,2022.4000000003725,451120.2999999998,9028,NNB,A,1
1,prac,1,0.0,2-Back,0.0,m,Mon May 04 2026 13:17:37 GMT-0400 (Eastern Daylight Time),456009.0,047_o_f_n_a.png,I,None,2002,4,3,2856.5,453152.5,9028,NNB,A,2
1,prac,1,0.0,2-Back,0.0,z,Mon May 04 2026 13:17:37 GMT-0400 (Eastern Daylight Time),458442.2999999998,046_o_m_n_a.png,I,m,1642,5,3,2423.0,456019.2999999998,9028,NNB,A,3
2,prac,1,1.0,2-Back,1.0,z,Mon May 04 2026 13:17:37 GMT-0400 (Eastern Daylight Time),460709.10000000056,047_o_f_n_a.png,I,z,1480,6,3,2256.5,458452.60000000056,9028,NNB,A,4
3,prac,1,0.0,2-Back,1.0,m,Mon May 04 2026 13:17:37 GMT-0400 (Eastern Daylight Time),462659.0,045_m_m_n_a.png,I,m,1124,7,3,1939.0999999996275,460719.9000000004,9028,NNB,A,5
4,prac,1,0.0,2-Back,1.0,m,Mon May 04 2026 13:17:37 GMT-0400 (Eastern Daylight Time),464575.7999999998,053_o_m_n_a.png,I,m,1087,8,3,1906.7999999998137,462669.0,9028,NNB,A,6
5,prac,1,0.0,2-Back,1.0,m,Mon May 04 2026 13:17:37 GMT-0400 (Eastern Daylight Time),466459.10000000056,010_y_f_n_a.png,I,m,1097,9,3,1871.9000000003725,464587.2000000002,9028,NNB,A,7
6,prac,1,1.0,2-Back,1.0,z,Mon May 04 2026 13:17:37 GMT-0400 (Eastern Daylight Time),468375.7000000002,053_o_m_n_a.png,I,z,1128,10,3,1907.0999999996275,466468.60000000056,9028,NNB,A,8
6,prac,1,0.0,2-Back,0.0,m,Mon May 04 2026 13:17:37 GMT-0400 (Eastern Daylight Time),470575.4000000004,063_y_f_n_a.png,I,z,1367,11,3,2191.9000000003725,468383.5,9028,NNB,A,9
7,prac,1,0.0,2-Back,1.0,m,Mon May 04 2026 13:17:37 GMT-0400 (Eastern Daylight Time),472542.5,045_m_m_n_a.png,I,m,1177,12,3,1959.5,470583.0,9028,NNB,A,10
0,test,1,0.0,2-Back,,,Mon May 04 2026 13:17:37 GMT-0400 (Eastern Daylight Time),472542.5,041_y_m_n_a.png,I,space,21161,1,3,1959.5,470583.0,9028,NNB,A,0
0,test,1,0.0,2-Back,,,Mon May 04 2026 13:17:37 GMT-0400 (Eastern Daylight Time),472542.5,041_y_m_n_a.png,I,space,21161,2,3,1959.5,470583.0,9028,NNB,A,0
1,test,1,0.0,2-Back,1.0,m,Mon May 04 2026 13:17:37 GMT-0400 (Eastern Daylight Time),508075.7999999998,047_o_f_n_a.png,I,m,893,3,3,1906.5,506169.2999999998,9028,NNB,A,1
2,test,1,0.0,2-Back,1.0,m,Mon May 04 2026 13:17:37 GMT-0400 (Eastern Daylight Time),510259.0,058_m_m_n_a.png,I,m,1160,4,3,2176.2999999998137,508082.7000000002,9028,NNB,A,2
3,test,1,1.0,2-Back,1.0,z,Mon May 04 2026 13:17:37 GMT-0400 (Eastern Daylight Time),512175.60000000056,047_o_f_n_a.png,I,z,897,5,3,1910.4000000003725,510265.2000000002,9028,NNB,A,3
4,test,1,0.0,2-Back,1.0,m,Mon May 04 2026 13:17:37 GMT-0400 (Eastern Daylight Time),514075.60000000056,063_y_f_n_a.png,I,m,876,6,3,1894.2000000001863,512181.4000000004,9028,NNB,A,4
4,test,1,0.0,2-Back,0.0,m,Mon May 04 2026 13:17:37 GMT-0400 (Eastern Daylight Time),516092.2000000002,058_m_m_n_a.png,I,z,993,7,3,2011.0,514081.2000000002,9028,NNB,A,5
5,test,1,1.0,2-Back,1.0,z,Mon May 04 2026 13:17:37 GMT-0400 (Eastern Daylight Time),518092.2000000002,063_y_f_n_a.png,I,z,976,8,3,1992.2999999998137,516099.9000000004,9028,NNB,A,6
6,test,1,0.0,2-Back,1.0,m,Mon May 04 2026 13:17:37 GMT-0400 (Eastern Daylight Time),520175.4000000004,008_y_m_n_a.png,I,m,1056,9,3,2076.5,518098.9000000004,9028,NNB,A,7
7,test,1,0.0,2-Back,1.0,m,Mon May 04 2026 13:17:37 GMT-0400 (Eastern Daylight Time),522425.7000000002,044_o_f_n_a.png,I,m,1229,10,3,2243.7000000001863,520182.0,9028,NNB,A,8
8,test,1,1.0,2-Back,1.0,z,Mon May 04 2026 13:17:37 GMT-0400 (Eastern Daylight Time),524525.6000000006,008_y_m_n_a.png,I,z,1066,11,3,2093.7000000001863,522431.9000000004,9028,NNB,A,9
9,test,1,0.0,2-Back,1.0,m,Mon May 04 2026 13:17:37 GMT-0400 (Eastern Daylight Time),526575.6000000006,043_m_f_n_a.png,I,m,1022,12,3,2044.0,524531.6000000006,9028,NNB,A,10
10,test,1,0.0,2-Back,1.0,m,Mon May 04 2026 13:17:37 GMT-0400 (Eastern Daylight Time),529025.5,043_m_f_n_a.png,I,m,1420,13,3,2443.899999999441,526581.6000000006,9028,NNB,A,11
11,test,1,0.0,2-Back,1.0,m,Mon May 04 2026 13:17:37 GMT-0400 (Eastern Daylight Time),531242.2999999998,046_o_m_n_a.png,I,m,1195,14,3,2208.899999999441,529033.4000000004,9028,NNB,A,12
12,test,1,0.0,2-Back,1.0,m,Mon May 04 2026 13:17:37 GMT-0400 (Eastern Daylight Time),533325.7999999998,044_o_f_n_a.png,I,m,1066,15,3,2077.5,531248.2999999998,9028,NNB,A,13
13,test,1,1.0,2-Back,1.0,z,Mon May 04 2026 13:17:37 GMT-0400 (Eastern Daylight Time),535325.7999999998,046_o_m_n_a.png,I,z,982,16,3,1993.0999999996275,533332.7000000002,9028,NNB,A,14
14,test,1,0.0,2-Back,1.0,m,Mon May 04 2026 13:17:37 GMT-0400 (Eastern Daylight Time),537325.5,050_m_f_n_a.png,I,m,966,17,3,1994.5999999996275,535330.9000000004,9028,NNB,A,15
15,test,1,0.0,2-Back,1.0,m,Mon May 04 2026 13:17:37 GMT-0400 (Eastern Daylight Time),539358.9000000004,045_m_m_n_a.png,I,m,1006,18,3,2027.5,537331.4000000004,9028,NNB,A,16
0,test,2,0.0,2-Back,,,Mon May 04 2026 13:17:37 GMT-0400 (Eastern Daylight Time),539358.9000000004,045_m_m_n_a.png,I,space,2813,1,3,2027.5,537331.4000000004,9028,NNB,A,0
0,test,2,0.0,2-Back,,,Mon May 04 2026 13:17:37 GMT-0400 (Eastern Daylight Time),539358.9000000004,010_y_f_n_a.png,I,space,2813,2,3,2027.5,537331.4000000004,9028,NNB,A,0
1,test,2,1.0,2-Back,1.0,z,Mon May 04 2026 13:17:37 GMT-0400 (Eastern Daylight Time),549158.7000000002,045_m_m_n_a.png,I,z,748,3,3,1758.7000000001863,547400.0,9028,NNB,A,1
2,test,2,0.0,2-Back,1.0,m,Mon May 04 2026 13:17:37 GMT-0400 (Eastern Daylight Time),551175.6000000006,050_m_f_n_a.png,I,m,998,4,3,2010.6000000005588,549165.0,9028,NNB,A,2
3,test,2,0.0,2-Back,1.0,m,Mon May 04 2026 13:17:37 GMT-0400 (Eastern Daylight Time),553325.7000000002,010_y_f_n_a.png,I,m,1116,5,3,2142.9000000003725,551182.7999999998,9028,NNB,A,3
4,test,2,0.0,2-Back,1.0,m,Mon May 04 2026 13:17:37 GMT-0400 (Eastern Daylight Time),555525.5,046_o_m_n_a.png,I,m,1166,6,3,2192.0,553333.5,9028,NNB,A,4
4,test,2,0.0,2-Back,0.0,m,Mon May 04 2026 13:17:37 GMT-0400 (Eastern Daylight Time),557625.5,063_y_f_n_a.png,I,z,1078,7,3,2093.7000000001863,555531.7999999998,9028,NNB,A,5
5,test,2,1.0,2-Back,1.0,z,Mon May 04 2026 13:17:37 GMT-0400 (Eastern Daylight Time),559742.4000000004,046_o_m_n_a.png,I,z,1090,8,3,2110.4000000003725,557632.0,9028,NNB,A,6
6,test,2,0.0,2-Back,1.0,m,Mon May 04 2026 13:17:37 GMT-0400 (Eastern Daylight Time),561792.2000000002,008_y_m_n_a.png,I,m,1030,9,3,2043.2000000001863,559749.0,9028,NNB,A,7
7,test,2,0.0,2-Back,1.0,m,Mon May 04 2026 13:17:37 GMT-0400 (Eastern Daylight Time),564259.0,008_y_m_n_a.png,I,m,1436,10,3,2460.2999999998137,561798.7000000002,9028,NNB,A,8
8,test,2,0.0,2-Back,1.0,m,Mon May 04 2026 13:17:37 GMT-0400 (Eastern Daylight Time),566308.7999999998,043_m_f_n_a.png,I,m,1017,11,3,2042.8999999994412,564265.9000000004,9028,NNB,A,9
9,test,2,0.0,2-Back,1.0,m,Mon May 04 2026 13:17:37 GMT-0400 (Eastern Daylight Time),568325.6000000006,010_y_f_n_a.png,I,m,983,12,3,2010.5,566315.1000000006,9028,NNB,A,10
10,test,2,1.0,2-Back,1.0,z,Mon May 04 2026 13:17:37 GMT-0400 (Eastern Daylight Time),570325.2999999998,043_m_f_n_a.png,I,z,973,13,3,1993.199999999255,568332.1000000006,9028,NNB,A,11
11,test,2,0.0,2-Back,1.0,m,Mon May 04 2026 13:17:37 GMT-0400 (Eastern Daylight Time),572392.2999999998,053_o_m_n_a.png,I,m,1046,14,3,2063.0,570329.2999999998,9028,NNB,A,12
12,test,2,0.0,2-Back,1.0,m,Mon May 04 2026 13:17:37 GMT-0400 (Eastern Daylight Time),574675.4000000004,053_o_m_n_a.png,I,m,1260,15,3,2277.2999999998137,572398.1000000006,9028,NNB,A,13
13,test,2,0.0,2-Back,1.0,m,Mon May 04 2026 13:17:37 GMT-0400 (Eastern Daylight Time),576775.2000000002,044_o_f_n_a.png,I,m,1071,16,3,2093.2999999998137,574681.9000000004,9028,NNB,A,14
14,test,2,0.0,2-Back,1.0,m,Mon May 04 2026 13:17:37 GMT-0400 (Eastern Daylight Time),578825.4000000004,058_m_m_n_a.png,I,m,1028,17,3,2046.9000000003725,576778.5,9028,NNB,A,15
15,test,2,1.0,2-Back,1.0,z,Mon May 04 2026 13:17:37 GMT-0400 (Eastern Daylight Time),580942.1000000006,044_o_f_n_a.png,I,z,1098,18,3,2108.9000000003725,578833.2000000002,9028,NNB,A,16
0,test,3,1.0,2-Back,,,Mon May 04 2026 13:17:37 GMT-0400 (Eastern Daylight Time),580942.1000000006,041_y_m_n_a.png,I,space,1694,1,3,2108.9000000003725,578833.2000000002,9028,NNB,A,0
0,test,3,1.0,2-Back,,,Mon May 04 2026 13:17:37 GMT-0400 (Eastern Daylight Time),580942.1000000006,041_y_m_n_a.png,I,space,1694,2,3,2108.9000000003725,578833.2000000002,9028,NNB,A,0
1,test,3,0.0,2-Back,1.0,m,Mon May 04 2026 13:17:37 GMT-0400 (Eastern Daylight Time),589642.2999999998,044_o_f_n_a.png,I,m,886,3,3,1908.699999999255,587733.6000000006,9028,NNB,A,1
2,test,3,0.0,2-Back,1.0,m,Mon May 04 2026 13:17:37 GMT-0400 (Eastern Daylight Time),591842.2999999998,045_m_m_n_a.png,I,m,1170,4,3,2193.899999999441,589648.4000000004,9028,NNB,A,2
3,test,3,1.0,2-Back,1.0,z,Mon May 04 2026 13:17:37 GMT-0400 (Eastern Daylight Time),593875.7000000002,044_o_f_n_a.png,I,z,1002,5,3,2027.0,591848.7000000002,9028,NNB,A,3
4,test,3,0.0,2-Back,1.0,m,Mon May 04 2026 13:17:37 GMT-0400 (Eastern Daylight Time),595992.2000000002,008_y_m_n_a.png,I,m,1088,6,3,2108.0999999996275,593884.1000000006,9028,NNB,A,4
5,test,3,0.0,2-Back,1.0,m,Mon May 04 2026 13:17:37 GMT-0400 (Eastern Daylight Time),598459.0,045_m_m_n_a.png,I,m,1444,7,3,2459.2999999998137,595999.7000000002,9028,NNB,A,5
6,test,3,1.0,2-Back,1.0,z,Mon May 04 2026 13:17:37 GMT-0400 (Eastern Daylight Time),600409.0,008_y_m_n_a.png,I,z,929,8,3,1943.7999999998137,598465.2000000002,9028,NNB,A,6
7,test,3,0.0,2-Back,1.0,m,Mon May 04 2026 13:17:37 GMT-0400 (Eastern Daylight Time),602492.1000000006,010_y_f_n_a.png,I,m,1051,9,3,2076.4000000003725,600415.7000000002,9028,NNB,A,7
8,test,3,0.0,2-Back,1.0,m,Mon May 04 2026 13:17:37 GMT-0400 (Eastern Daylight Time),604658.9000000004,058_m_m_n_a.png,I,m,1136,10,3,2160.7999999998137,602498.1000000006,9028,NNB,A,8
9,test,3,1.0,2-Back,1.0,z,Mon May 04 2026 13:17:37 GMT-0400 (Eastern Daylight Time),606709.0,010_y_f_n_a.png,I,z,1017,11,3,2044.3999999994412,604664.6000000006,9028,NNB,A,9
10,test,3,1.0,2-Back,1.0,z,Mon May 04 2026 13:17:37 GMT-0400 (Eastern Daylight Time),608792.2000000002,058_m_m_n_a.png,I,z,1063,12,3,2077.0,606715.2000000002,9028,NNB,A,10
11,test,3,0.0,2-Back,1.0,m,Mon May 04 2026 13:17:37 GMT-0400 (Eastern Daylight Time),610708.9000000004,044_o_f_n_a.png,I,m,892,13,3,1910.2000000001863,608798.7000000002,9028,NNB,A,11
12,test,3,0.0,2-Back,1.0,m,Mon May 04 2026 13:17:37 GMT-0400 (Eastern Daylight Time),612742.0,050_m_f_n_a.png,I,m,1015,14,3,2025.2999999998137,610716.7000000002,9028,NNB,A,12
13,test,3,0.0,2-Back,1.0,m,Mon May 04 2026 13:17:37 GMT-0400 (Eastern Daylight Time),614825.4000000004,046_o_m_n_a.png,I,m,1053,15,3,2076.9000000003725,612748.5,9028,NNB,A,13
14,test,3,1.0,2-Back,1.0,z,Mon May 04 2026 13:17:37 GMT-0400 (Eastern Daylight Time),616692.1000000006,050_m_f_n_a.png,I,z,842,16,3,1860.6000000005588,614831.5,9028,NNB,A,14
15,test,3,0.0,2-Back,1.0,m,Mon May 04 2026 13:17:37 GMT-0400 (Eastern Daylight Time),618625.5,047_o_f_n_a.png,I,m,904,17,3,1926.7000000001863,616698.7999999998,9028,NNB,A,15
16,test,3,0.0,2-Back,1.0,m,Mon May 04 2026 13:17:37 GMT-0400 (Eastern Daylight Time),620892.2000000002,047_o_f_n_a.png,I,m,1234,18,3,2261.0,618631.2000000002,9028,NNB,A,16
0,test,4,0.0,2-Back,,,Mon May 04 2026 13:17:37 GMT-0400 (Eastern Daylight Time),620892.2000000002,053_o_m_n_a.png,I,space,1352,1,3,2261.0,618631.2000000002,9028,NNB,A,0
0,test,4,0.0,2-Back,,,Mon May 04 2026 13:17:37 GMT-0400 (Eastern Daylight Time),620892.2000000002,063_y_f_n_a.png,I,space,1352,2,3,2261.0,618631.2000000002,9028,NNB,A,0
1,test,4,1.0,2-Back,1.0,z,Mon May 04 2026 13:17:37 GMT-0400 (Eastern Daylight Time),629325.5,053_o_m_n_a.png,I,z,891,3,3,1908.7999999998137,627416.7000000002,9028,NNB,A,1
2,test,4,1.0,2-Back,1.0,z,Mon May 04 2026 13:17:37 GMT-0400 (Eastern Daylight Time),631325.5,063_y_f_n_a.png,I,z,966,4,3,1994.3999999994412,629331.1000000006,9028,NNB,A,2
3,test,4,0.0,2-Back,1.0,m,Mon May 04 2026 13:17:37 GMT-0400 (Eastern Daylight Time),633392.1000000006,044_o_f_n_a.png,I,m,1047,5,3,2060.100000000559,631332.0,9028,NNB,A,3
4,test,4,0.0,2-Back,1.0,m,Mon May 04 2026 13:17:37 GMT-0400 (Eastern Daylight Time),635625.5,044_o_f_n_a.png,I,m,1212,6,3,2226.5999999996275,633398.9000000004,9028,NNB,A,4
5,test,4,0.0,2-Back,1.0,m,Mon May 04 2026 13:17:37 GMT-0400 (Eastern Daylight Time),637708.9000000004,043_m_f_n_a.png,I,m,1050,7,3,2077.2000000001863,635631.7000000002,9028,NNB,A,5
6,test,4,0.0,2-Back,1.0,m,Mon May 04 2026 13:17:37 GMT-0400 (Eastern Daylight Time),639908.7999999998,008_y_m_n_a.png,I,m,1167,8,3,2193.0,637715.7999999998,9028,NNB,A,6
7,test,4,1.0,2-Back,1.0,z,Mon May 04 2026 13:17:37 GMT-0400 (Eastern Daylight Time),641742.0,043_m_f_n_a.png,I,z,815,9,3,1825.2000000001863,639916.7999999998,9028,NNB,A,7
8,test,4,0.0,2-Back,1.0,m,Mon May 04 2026 13:17:37 GMT-0400 (Eastern Daylight Time),643658.7999999998,058_m_m_n_a.png,I,m,894,10,3,1913.699999999255,641745.1000000006,9028,NNB,A,8
9,test,4,0.0,2-Back,1.0,m,Mon May 04 2026 13:17:37 GMT-0400 (Eastern Daylight Time),645908.9000000004,008_y_m_n_a.png,I,m,1217,11,3,2244.100000000559,643664.7999999998,9028,NNB,A,9
10,test,4,0.0,2-Back,1.0,m,Mon May 04 2026 13:17:37 GMT-0400 (Eastern Daylight Time),648092.2000000002,047_o_f_n_a.png,I,m,1151,12,3,2176.5999999996275,645915.6000000006,9028,NNB,A,10
11,test,4,0.0,2-Back,1.0,m,Mon May 04 2026 13:17:37 GMT-0400 (Eastern Daylight Time),650242.2000000002,041_y_m_n_a.png,I,m,1120,13,3,2143.2999999998137,648098.9000000004,9028,NNB,A,11
12,test,4,1.0,2-Back,1.0,z,Mon May 04 2026 13:17:37 GMT-0400 (Eastern Daylight Time),652258.7999999998,047_o_f_n_a.png,I,z,994,14,3,2009.0,650249.7999999998,9028,NNB,A,12
13,test,4,1.0,2-Back,1.0,z,Mon May 04 2026 13:17:37 GMT-0400 (Eastern Daylight Time),654358.7000000002,041_y_m_n_a.png,I,z,1081,15,3,2093.7000000001863,652265.0,9028,NNB,A,13
14,test,4,0.0,2-Back,1.0,m,Mon May 04 2026 13:17:37 GMT-0400 (Eastern Daylight Time),656392.2000000002,045_m_m_n_a.png,I,m,1005,16,3,2026.7000000001863,654365.5,9028,NNB,A,14
15,test,4,0.0,2-Back,1.0,m,Mon May 04 2026 13:17:37 GMT-0400 (Eastern Daylight Time),658708.6000000006,050_m_f_n_a.png,I,m,1299,17,3,2310.600000000559,656398.0,9028,NNB,A,15
16,test,4,1.0,2-Back,1.0,z,Mon May 04 2026 13:17:37 GMT-0400 (Eastern Daylight Time),660642.2999999998,045_m_m_n_a.png,I,z,903,18,3,1930.8999999994412,658711.4000000004,9028,NNB,A,16
0,test,5,1.0,2-Back,,,Mon May 04 2026 13:17:37 GMT-0400 (Eastern Daylight Time),660642.2999999998,041_y_m_n_a.png,I,space,1466,1,3,1930.8999999994412,658711.4000000004,9028,NNB,A,0
0,test,5,1.0,2-Back,,,Mon May 04 2026 13:17:37 GMT-0400 (Eastern Daylight Time),660642.2999999998,050_m_f_n_a.png,I,space,1466,2,3,1930.8999999994412,658711.4000000004,9028,NNB,A,0
1,test,5,1.0,2-Back,1.0,z,Mon May 04 2026 13:17:37 GMT-0400 (Eastern Daylight Time),669125.5,041_y_m_n_a.png,I,z,916,3,3,1940.0,667185.5,9028,NNB,A,1
2,test,5,1.0,2-Back,1.0,z,Mon May 04 2026 13:17:37 GMT-0400 (Eastern Daylight Time),671175.6000000006,050_m_f_n_a.png,I,z,1030,4,3,2044.9000000003725,669130.7000000002,9028,NNB,A,2
3,test,5,0.0,2-Back,1.0,m,Mon May 04 2026 13:17:37 GMT-0400 (Eastern Daylight Time),673242.2000000002,047_o_f_n_a.png,I,m,1036,5,3,2060.4000000003725,671181.7999999998,9028,NNB,A,3
4,test,5,0.0,2-Back,1.0,m,Mon May 04 2026 13:17:37 GMT-0400 (Eastern Daylight Time),675458.7999999998,041_y_m_n_a.png,I,m,1186,6,3,2209.0999999996275,673249.7000000002,9028,NNB,A,4
5,test,5,0.0,2-Back,1.0,m,Mon May 04 2026 13:17:37 GMT-0400 (Eastern Daylight Time),677608.5,010_y_f_n_a.png,I,m,1120,7,3,2144.2999999998137,675464.2000000002,9028,NNB,A,5
6,test,5,0.0,2-Back,1.0,m,Mon May 04 2026 13:17:37 GMT-0400 (Eastern Daylight Time),679725.1000000006,047_o_f_n_a.png,I,m,1099,8,3,2112.5,677612.6000000006,9028,NNB,A,6
7,test,5,1.0,2-Back,1.0,z,Mon May 04 2026 13:17:37 GMT-0400 (Eastern Daylight Time),681725.6000000006,010_y_f_n_a.png,I,z,974,9,3,1994.300000000745,679731.2999999998,9028,NNB,A,7
8,test,5,0.0,2-Back,1.0,m,Mon May 04 2026 13:17:37 GMT-0400 (Eastern Daylight Time),683625.4000000004,046_o_m_n_a.png,I,m,878,10,3,1893.7000000001863,681731.7000000002,9028,NNB,A,8
9,test,5,0.0,2-Back,1.0,m,Mon May 04 2026 13:17:37 GMT-0400 (Eastern Daylight Time),685742.0,043_m_f_n_a.png,I,m,1098,11,3,2111.0,683631.0,9028,NNB,A,9
10,test,5,0.0,2-Back,1.0,m,Mon May 04 2026 13:17:37 GMT-0400 (Eastern Daylight Time),687742.1000000006,058_m_m_n_a.png,I,m,982,12,3,1994.800000000745,685747.2999999998,9028,NNB,A,10
11,test,5,0.0,2-Back,1.0,m,Mon May 04 2026 13:17:37 GMT-0400 (Eastern Daylight Time),689909.4000000004,046_o_m_n_a.png,I,m,1150,13,3,2162.100000000559,687747.2999999998,9028,NNB,A,11
12,test,5,1.0,2-Back,1.0,z,Mon May 04 2026 13:17:37 GMT-0400 (Eastern Daylight Time),691875.4000000004,058_m_m_n_a.png,I,z,942,14,3,1957.7000000001863,689917.7000000002,9028,NNB,A,12
13,test,5,0.0,2-Back,1.0,m,Mon May 04 2026 13:17:37 GMT-0400 (Eastern Daylight Time),693842.2000000002,063_y_f_n_a.png,I,m,936,15,3,1962.2999999998137,691879.9000000004,9028,NNB,A,13
14,test,5,0.0,2-Back,1.0,m,Mon May 04 2026 13:17:37 GMT-0400 (Eastern Daylight Time),695808.7999999998,053_o_m_n_a.png,I,m,946,16,3,1960.2999999998137,693848.5,9028,NNB,A,14
15,test,5,0.0,2-Back,1.0,m,Mon May 04 2026 13:17:37 GMT-0400 (Eastern Daylight Time),697709.2000000002,043_m_f_n_a.png,I,m,883,17,3,1892.9000000003725,695816.2999999998,9028,NNB,A,15
16,test,5,1.0,2-Back,1.0,z,Mon May 04 2026 13:17:37 GMT-0400 (Eastern Daylight Time),699625.4000000004,053_o_m_n_a.png,I,z,887,18,3,1910.1000000005588,697715.2999999998,9028,NNB,A,16
