acc_sum,block,block_c,condition,correct,correct_response,datetime,endtime,flanker,jitter,project,response,response_test_buffer_response,response_test_target_response,response_time,response_time_test_buffer_response,response_time_test_target_response,row_sel,session_number,start_end,starttime,subject_id,target,task,task_vers,time_test_buffer,time_test_buffer_response,time_test_constants,time_test_flanker,time_test_jitter,time_test_logger,time_test_target,time_test_target_response,time_test_variables,trial
1,prac,1,inc,1,z,Wed Sep 03 2025 15:04:04 GMT-0500 (Central Daylight Time),167227.89999961853,iron,900,I,z,,,1588,,,6,1,3791.8999996185303,163436.0,7212,pear,NF,B,,,,,,,,,,1
2,prac,1,con,1,m,Wed Sep 03 2025 15:04:04 GMT-0500 (Central Daylight Time),170477.39999961853,zinc,1000,I,m,,,937,,,15,1,3240.8999996185303,167236.5,7212,zinc,NF,B,,,,,,,,,,2
3,prac,1,inc,1,m,Wed Sep 03 2025 15:04:04 GMT-0500 (Central Daylight Time),173993.09999990463,raisin,1100,I,m,,,1109,,,12,1,3508.5999999046326,170484.5,7212,cobalt,NF,B,,,,,,,,,,3
4,prac,1,con,1,m,Wed Sep 03 2025 15:04:04 GMT-0500 (Central Daylight Time),176975.19999980927,gold,800,I,m,,,892,,,13,1,2973.4000000953674,174001.7999997139,7212,gold,NF,B,,,,,,,,,,4
5,prac,1,con,1,m,Wed Sep 03 2025 15:04:04 GMT-0500 (Central Daylight Time),179940.2999997139,bronze,800,I,m,,,854,,,9,1,2957.0,176983.2999997139,7212,bronze,NF,B,,,,,,,,,,5
6,prac,1,con,1,m,Wed Sep 03 2025 15:04:04 GMT-0500 (Central Daylight Time),183056.39999961853,silver,1000,I,m,,,800,,,11,1,3107.0,179949.39999961853,7212,silver,NF,B,,,,,,,,,,6
7,prac,1,inc,1,m,Wed Sep 03 2025 15:04:04 GMT-0500 (Central Daylight Time),186207.59999990463,plum,1100,I,m,,,744,,,16,1,3145.9000000953674,183061.69999980927,7212,lead,NF,B,,,,,,,,,,7
8,prac,1,con,1,z,Wed Sep 03 2025 15:04:04 GMT-0500 (Central Daylight Time),189020.59999990463,banana,800,I,z,,,711,,,1,1,2809.0,186211.59999990463,7212,banana,NF,B,,,,,,,,,,8
9,prac,1,con,1,z,Wed Sep 03 2025 15:04:04 GMT-0500 (Central Daylight Time),191804.2999997139,kiwi,1000,I,z,,,471,,,7,1,2775.199999809265,189029.09999990463,7212,kiwi,NF,B,,,,,,,,,,9
10,prac,1,inc,1,z,Wed Sep 03 2025 15:04:04 GMT-0500 (Central Daylight Time),194769.09999990463,copper,900,I,z,,,755,,,2,1,2957.7000002861023,191811.39999961853,7212,cherry,NF,B,,,,,,,,,,10
11,prac,1,inc,1,m,Wed Sep 03 2025 15:04:04 GMT-0500 (Central Daylight Time),197684.89999961853,pear,900,I,m,,,700,,,14,1,2907.7999997138977,194777.09999990463,7212,iron,NF,B,,,,,,,,,,11
12,prac,1,inc,1,m,Wed Sep 03 2025 15:04:04 GMT-0500 (Central Daylight Time),200767.39999961853,cherry,900,I,m,,,876,,,10,1,3075.199999809265,197692.19999980927,7212,copper,NF,B,,,,,,,,,,12
13,prac,1,inc,1,z,Wed Sep 03 2025 15:04:04 GMT-0500 (Central Daylight Time),204099.89999961853,lead,1100,I,z,,,936,,,8,1,3325.0999999046326,200774.7999997139,7212,plum,NF,B,,,,,,,,,,13
14,prac,1,con,1,z,Wed Sep 03 2025 15:04:04 GMT-0500 (Central Daylight Time),207565.19999980927,lime,800,I,z,,,1369,,,5,1,3457.4000000953674,204107.7999997139,7212,lime,NF,B,,,,,,,,,,14
15,prac,1,inc,1,z,Wed Sep 03 2025 15:04:04 GMT-0500 (Central Daylight Time),210711.59999990463,cobalt,1100,I,z,,,749,,,4,1,3140.2000002861023,207571.39999961853,7212,raisin,NF,B,,,,,,,,,,15
16,prac,1,con,1,z,Wed Sep 03 2025 15:04:04 GMT-0500 (Central Daylight Time),213729.09999990463,orange,1000,I,z,,,707,,,3,1,3013.0,210716.09999990463,7212,orange,NF,B,,,,,,,,,,16
1,test,1,inc,1,z,Wed Sep 03 2025 15:04:04 GMT-0500 (Central Daylight Time),227258.2999997139,bronze,800,I,z,z,None,723,508.0,215.0,21,1,2059.7999997138977,225198.5,7212,orange,NF,B,218116,218116,216571,217381,216572,218631,217900,217900,218631,1
2,test,1,inc,1,m,Wed Sep 03 2025 15:04:04 GMT-0500 (Central Daylight Time),229340.2999997139,cherry,900,I,m,m,None,636,437.0,199.0,70,1,2076.199999809265,227264.09999990463,7212,bronze,NF,B,220266,220266,218637,219549,218637,220713,220065,220065,220713,2
3,test,1,con,1,z,Wed Sep 03 2025 15:04:04 GMT-0500 (Central Daylight Time),231623.59999990463,orange,900,I,z,z,None,834,635.0,199.0,18,1,2277.7000002861023,229345.89999961853,7212,orange,NF,B,222347,222347,220719,221632,220719,222997,222148,222148,222997,3
4,test,1,inc,1,m,Wed Sep 03 2025 15:04:04 GMT-0500 (Central Daylight Time),234154.0,plum,1100,I,m,m,None,896,696.0,200.0,104,1,2523.5,231630.5,7212,gold,NF,B,224830,224830,223003,224113,223004,225527,224630,224630,225527,4
5,test,1,inc,1,m,Wed Sep 03 2025 15:04:04 GMT-0500 (Central Daylight Time),236389.19999980927,pear,900,I,m,m,None,798,599.0,199.0,126,1,2232.0,234157.19999980927,7212,lead,NF,B,227163,227163,225530,226447,225530,227762,226963,226963,227762,5
6,test,1,con,1,m,Wed Sep 03 2025 15:04:04 GMT-0500 (Central Daylight Time),238805.2999997139,gold,1100,I,m,m,None,773,557.0,216.0,100,1,2409.7999997138977,236395.5,7212,gold,NF,B,229611,229611,227769,228878,227769,230179,229395,229395,230178,6
7,test,1,con,1,m,Wed Sep 03 2025 15:04:04 GMT-0500 (Central Daylight Time),241120.5,bronze,1100,I,m,m,None,667,467.0,200.0,68,1,2310.2000002861023,238810.2999997139,7212,bronze,NF,B,232011,232011,230183,231296,230184,232494,231810,231810,232494,7
8,test,1,con,1,z,Wed Sep 03 2025 15:04:04 GMT-0500 (Central Daylight Time),244069.69999980927,kiwi,1100,I,z,z,None,1311,1112.0,199.0,52,1,2944.199999809265,241125.5,7212,kiwi,NF,B,234327,234327,232499,233610,232499,235443,234127,234127,235443,8
9,test,1,con,1,m,Wed Sep 03 2025 15:04:04 GMT-0500 (Central Daylight Time),246268.19999980927,bronze,1000,I,m,m,None,665,465.0,200.0,67,1,2194.199999809265,244074.0,7212,bronze,NF,B,237176,237176,235447,236461,235447,237641,236976,236976,237641,9
10,test,1,con,1,m,Wed Sep 03 2025 15:04:04 GMT-0500 (Central Daylight Time),248450.69999980927,cobalt,900,I,m,m,None,738,538.0,200.0,90,1,2176.9000000953674,246273.7999997139,7212,cobalt,NF,B,239275,239276,237647,238560,237647,239824,239074,239075,239824,10
11,test,1,inc,1,m,Wed Sep 03 2025 15:04:04 GMT-0500 (Central Daylight Time),250567.5,orange,1000,I,m,m,None,565,350.0,215.0,79,1,2113.4000000953674,248454.09999990463,7212,copper,NF,B,241575,241576,239827,240842,239827,241941,241360,241360,241940,11
11,test,1,inc,0,m,Wed Sep 03 2025 15:04:04 GMT-0500 (Central Daylight Time),252399.69999980927,lime,800,I,z,z,None,492,292.0,200.0,117,1,1826.0,250573.69999980927,7212,zinc,NF,B,243474,243475,241947,242757,241947,243773,243274,243274,243773,12
12,test,1,con,1,z,Wed Sep 03 2025 15:04:04 GMT-0500 (Central Daylight Time),254483.2999997139,lime,900,I,z,z,None,639,439.0,200.0,34,1,2078.4000000953674,252404.89999961853,7212,lime,NF,B,245407,245407,243778,244690,243778,245856,245207,245207,245856,13
13,test,1,con,1,z,Wed Sep 03 2025 15:04:04 GMT-0500 (Central Daylight Time),256832.0,plum,800,I,z,z,None,1010,810.0,200.0,57,1,2345.2000002861023,254486.7999997139,7212,plum,NF,B,247390,247390,245860,246674,245860,248205,247190,247190,248205,14
14,test,1,con,1,z,Wed Sep 03 2025 15:04:04 GMT-0500 (Central Daylight Time),258915.2999997139,orange,800,I,z,z,None,735,535.0,200.0,17,1,2080.0999999046326,256835.19999980927,7212,orange,NF,B,249738,249738,248208,249022,248208,250288,249538,249538,250288,15
15,test,1,con,1,z,Wed Sep 03 2025 15:04:04 GMT-0500 (Central Daylight Time),261063.19999980927,pear,900,I,z,z,None,715,501.0,214.0,42,1,2142.699999809265,258920.5,7212,pear,NF,B,251922,251922,250294,251205,250294,252436,251707,251707,252436,16
16,test,1,con,1,z,Wed Sep 03 2025 15:04:04 GMT-0500 (Central Daylight Time),263380.09999990463,pear,1100,I,z,z,None,672,472.0,200.0,44,1,2309.2000002861023,261070.89999961853,7212,pear,NF,B,254271,254271,252444,253555,252444,254753,254071,254071,254753,17
17,test,1,inc,1,m,Wed Sep 03 2025 15:04:04 GMT-0500 (Central Daylight Time),265395.69999980927,banana,800,I,m,m,None,673,472.0,201.0,69,1,2007.8000001907349,263387.89999961853,7212,bronze,NF,B,256287,256287,254761,255569,254761,256769,256085,256085,256769,18
18,test,1,inc,1,z,Wed Sep 03 2025 15:04:04 GMT-0500 (Central Daylight Time),267846.7999997139,lead,1100,I,z,z,None,813,613.0,200.0,48,1,2443.2999997138977,265403.5,7212,pear,NF,B,258602,258602,256777,257888,256777,259220,258402,258402,259220,19
19,test,1,con,1,m,Wed Sep 03 2025 15:04:04 GMT-0500 (Central Daylight Time),270044.39999961853,gold,800,I,m,m,None,851,652.0,199.0,97,1,2192.8999996185303,267851.5,7212,gold,NF,B,260751,260751,259225,260035,259225,261418,260552,260552,261417,20
20,test,1,con,1,m,Wed Sep 03 2025 15:04:04 GMT-0500 (Central Daylight Time),272494.09999990463,copper,800,I,m,m,None,1101,888.0,213.0,73,1,2442.2000002861023,270051.89999961853,7212,copper,NF,B,262967,262967,261425,262237,261425,263867,262753,262753,263867,21
21,test,1,con,1,z,Wed Sep 03 2025 15:04:04 GMT-0500 (Central Daylight Time),274793.09999990463,plum,1000,I,z,z,None,763,549.0,214.0,59,1,2291.4000000953674,272501.69999980927,7212,plum,NF,B,265601,265601,263875,264884,263875,266166,265386,265386,266166,22
22,test,1,inc,1,z,Wed Sep 03 2025 15:04:04 GMT-0500 (Central Daylight Time),277308.89999961853,cobalt,1100,I,z,z,None,881,667.0,214.0,24,1,2511.3999996185303,274797.5,7212,orange,NF,B,267999,267999,266171,267283,266171,268682,267785,267785,268682,23
23,test,1,con,1,m,Wed Sep 03 2025 15:04:04 GMT-0500 (Central Daylight Time),279493.59999990463,bronze,900,I,m,m,None,739,539.0,200.0,66,1,2177.0999999046326,277316.5,7212,bronze,NF,B,270315,270315,268690,269598,268690,270867,270114,270114,270867,24
24,test,1,con,1,m,Wed Sep 03 2025 15:04:04 GMT-0500 (Central Daylight Time),281873.69999980927,gold,1000,I,m,m,None,848,649.0,199.0,99,1,2372.0999999046326,279501.59999990463,7212,gold,NF,B,272597,272597,270875,271884,270875,273247,272398,272398,273247,25
25,test,1,con,1,m,Wed Sep 03 2025 15:04:04 GMT-0500 (Central Daylight Time),284139.69999980927,copper,900,I,m,m,None,821,622.0,199.0,74,1,2261.4000000953674,281878.2999997139,7212,copper,NF,B,274881,274881,273251,274164,273252,275513,274681,274681,275513,26
26,test,1,inc,1,z,Wed Sep 03 2025 15:04:04 GMT-0500 (Central Daylight Time),286139.0,bronze,800,I,z,z,None,656,442.0,214.0,5,1,1991.0,284148.0,7212,banana,NF,B,277062,277062,275521,276330,275521,277512,276847,276848,277512,27
27,test,1,con,1,m,Wed Sep 03 2025 15:04:04 GMT-0500 (Central Daylight Time),288540.0,iron,1100,I,m,m,None,751,536.0,215.0,108,1,2394.2000002861023,286145.7999997139,7212,iron,NF,B,279362,279362,277519,278629,277519,279913,279146,279146,279913,28
28,test,1,con,1,z,Wed Sep 03 2025 15:04:04 GMT-0500 (Central Daylight Time),290888.59999990463,raisin,900,I,z,z,None,910,709.0,201.0,26,1,2345.0999999046326,288543.5,7212,raisin,NF,B,281546,281546,279917,280829,279917,282262,281344,281344,282262,29
29,test,1,con,1,z,Wed Sep 03 2025 15:04:04 GMT-0500 (Central Daylight Time),293037.19999980927,cherry,800,I,z,z,None,812,597.0,215.0,9,1,2144.0999999046326,290893.09999990463,7212,cherry,NF,B,283810,283810,282266,283079,282266,284410,283595,283595,284410,30
30,test,1,inc,1,z,Wed Sep 03 2025 15:04:04 GMT-0500 (Central Daylight Time),295319.7999997139,iron,900,I,z,z,None,843,628.0,215.0,46,1,2275.4000000953674,293044.39999961853,7212,pear,NF,B,286060,286060,284417,285326,284418,286693,285845,285845,286693,31
31,test,1,inc,1,z,Wed Sep 03 2025 15:04:04 GMT-0500 (Central Daylight Time),297768.09999990463,lead,1100,I,z,z,None,799,599.0,200.0,56,1,2443.9000000953674,295324.19999980927,7212,kiwi,NF,B,288527,288527,286697,287810,286697,289141,288327,288327,289141,32
32,test,1,inc,1,m,Wed Sep 03 2025 15:04:04 GMT-0500 (Central Daylight Time),300184.7999997139,orange,1000,I,m,m,None,874,675.0,199.0,95,1,2411.199999809265,297773.59999990463,7212,cobalt,NF,B,290876,290876,289147,290159,289147,291558,290676,290676,291558,33
33,test,1,inc,1,z,Wed Sep 03 2025 15:04:04 GMT-0500 (Central Daylight Time),302634.89999961853,gold,800,I,z,z,None,1097,898.0,199.0,45,1,2443.7999997138977,300191.09999990463,7212,pear,NF,B,293092,293092,291564,292376,291564,294008,292892,292892,294008,34
34,test,1,con,1,m,Wed Sep 03 2025 15:04:04 GMT-0500 (Central Daylight Time),305051.0,silver,1100,I,m,m,None,764,550.0,214.0,84,1,2410.300000190735,302640.69999980927,7212,silver,NF,B,295858,295858,294014,295124,294014,296424,295642,295642,296424,35
35,test,1,inc,1,z,Wed Sep 03 2025 15:04:04 GMT-0500 (Central Daylight Time),307449.0,lead,1100,I,z,z,None,757,557.0,200.0,64,1,2391.9000000953674,305057.09999990463,7212,plum,NF,B,298258,298258,296430,297540,296430,298822,298057,298057,298822,36
36,test,1,con,1,m,Wed Sep 03 2025 15:04:04 GMT-0500 (Central Daylight Time),309731.69999980927,zinc,900,I,m,m,None,849,650.0,199.0,114,1,2276.4000000953674,307455.2999997139,7212,zinc,NF,B,300439,300440,298828,299738,298829,301105,300240,300240,301105,37
37,test,1,inc,1,m,Wed Sep 03 2025 15:04:04 GMT-0500 (Central Daylight Time),311914.7999997139,cherry,900,I,m,m,None,739,540.0,199.0,94,1,2175.5999999046326,309739.19999980927,7212,cobalt,NF,B,302739,302739,301112,302023,301113,303288,302538,302539,303288,38
38,test,1,inc,1,z,Wed Sep 03 2025 15:04:04 GMT-0500 (Central Daylight Time),314346.69999980927,cobalt,1100,I,z,z,None,805,606.0,199.0,16,1,2426.300000190735,311920.39999961853,7212,cherry,NF,B,305105,305105,303293,304404,303294,305720,304905,304905,305720,39
39,test,1,inc,1,z,Wed Sep 03 2025 15:04:04 GMT-0500 (Central Daylight Time),316429.5,gold,800,I,z,z,None,744,544.0,200.0,53,1,2076.800000190735,314352.69999980927,7212,kiwi,NF,B,307255,307255,305726,306538,305726,307803,307054,307054,307803,40
40,test,1,inc,1,m,Wed Sep 03 2025 15:04:04 GMT-0500 (Central Daylight Time),318713.89999961853,cherry,900,I,m,m,None,843,627.0,216.0,78,1,2277.7999997138977,316436.09999990463,7212,copper,NF,B,309453,309453,307809,308721,307810,310087,309237,309237,310087,41
41,test,1,inc,1,m,Wed Sep 03 2025 15:04:04 GMT-0500 (Central Daylight Time),321361.59999990463,orange,1000,I,m,m,None,1098,898.0,200.0,71,1,2642.5,318719.09999990463,7212,bronze,NF,B,311821,311821,310092,311102,310092,312735,311621,311621,312735,42
42,test,1,con,1,m,Wed Sep 03 2025 15:04:04 GMT-0500 (Central Daylight Time),323610.69999980927,copper,1000,I,m,m,None,706,506.0,200.0,75,1,2242.699999809265,321368.0,7212,copper,NF,B,314468,314468,312741,313752,312741,314984,314268,314268,314984,43
43,test,1,con,1,z,Wed Sep 03 2025 15:04:04 GMT-0500 (Central Daylight Time),325759.89999961853,kiwi,1000,I,z,z,None,599,382.0,217.0,51,1,2145.8999996185303,323614.0,7212,kiwi,NF,B,316736,316736,314987,316001,314987,317133,316518,316518,317133,44
44,test,1,con,1,z,Wed Sep 03 2025 15:04:04 GMT-0500 (Central Daylight Time),328275.89999961853,banana,1100,I,z,z,None,881,681.0,200.0,4,1,2510.199999809265,325765.69999980927,7212,banana,NF,B,318968,318968,317139,318250,317139,319649,318767,318767,319649,45
45,test,1,inc,1,z,Wed Sep 03 2025 15:04:04 GMT-0500 (Central Daylight Time),330660.0,iron,900,I,z,z,None,966,767.0,199.0,38,1,2378.6000003814697,328281.39999961853,7212,lime,NF,B,321266,321266,319654,320564,319655,322033,321066,321066,322033,46
46,test,1,con,1,z,Wed Sep 03 2025 15:04:04 GMT-0500 (Central Daylight Time),332976.19999980927,pear,800,I,z,z,None,977,778.0,199.0,41,1,2310.5999999046326,330665.59999990463,7212,pear,NF,B,323566,323566,322039,322850,322039,324349,323366,323366,324349,47
47,test,1,con,1,m,Wed Sep 03 2025 15:04:04 GMT-0500 (Central Daylight Time),334973.7999997139,bronze,800,I,m,m,None,678,479.0,199.0,65,1,1992.4000000953674,332981.39999961853,7212,bronze,NF,B,325865,325865,324354,325164,324355,326347,325665,325665,326347,48
48,test,1,con,1,z,Wed Sep 03 2025 15:04:04 GMT-0500 (Central Daylight Time),337306.59999990463,lime,1100,I,z,z,None,691,492.0,199.0,36,1,2326.7000002861023,334979.89999961853,7212,lime,NF,B,328180,328180,326353,327464,326353,328680,327981,327981,328680,49
49,test,1,inc,1,z,Wed Sep 03 2025 15:04:04 GMT-0500 (Central Daylight Time),339606.19999980927,gold,800,I,z,z,None,947,748.0,199.0,61,1,2294.4000000953674,337311.7999997139,7212,plum,NF,B,330214,330214,328685,329497,328685,330979,330014,330014,330979,50
50,test,1,inc,1,m,Wed Sep 03 2025 15:04:04 GMT-0500 (Central Daylight Time),341923.5,kiwi,1000,I,m,m,None,783,583.0,200.0,119,1,2309.4000000953674,339614.09999990463,7212,zinc,NF,B,332713,332713,330987,331996,330988,333297,332512,332512,333296,51
51,test,1,inc,1,m,Wed Sep 03 2025 15:04:04 GMT-0500 (Central Daylight Time),344304.69999980927,orange,1000,I,m,m,None,835,635.0,200.0,87,1,2375.4000000953674,341929.2999997139,7212,silver,NF,B,335028,335028,333302,334312,333302,335678,334827,334827,335678,52
52,test,1,con,1,z,Wed Sep 03 2025 15:04:04 GMT-0500 (Central Daylight Time),346720.0,plum,1100,I,z,z,None,767,568.0,199.0,60,1,2410.1000003814697,344309.89999961853,7212,plum,NF,B,337510,337510,335683,336793,335683,338093,337311,337311,338093,53
53,test,1,inc,1,z,Wed Sep 03 2025 15:04:04 GMT-0500 (Central Daylight Time),349121.09999990463,iron,900,I,z,z,None,959,758.0,201.0,62,1,2395.9000000953674,346725.19999980927,7212,plum,NF,B,339728,339728,338098,339010,338099,340494,339526,339526,340494,54
54,test,1,inc,1,m,Wed Sep 03 2025 15:04:04 GMT-0500 (Central Daylight Time),351468.09999990463,plum,1100,I,m,m,None,704,488.0,216.0,128,1,2342.5999999046326,349125.5,7212,lead,NF,B,342343,342343,340499,341610,340499,342841,342127,342127,342841,55
55,test,1,con,1,m,Wed Sep 03 2025 15:04:04 GMT-0500 (Central Daylight Time),353751.89999961853,gold,900,I,m,m,None,843,628.0,215.0,98,1,2279.199999809265,351472.69999980927,7212,gold,NF,B,344492,344492,342846,343759,342846,345125,344276,344276,345125,56
56,test,1,con,1,m,Wed Sep 03 2025 15:04:04 GMT-0500 (Central Daylight Time),356751.5,silver,1000,I,m,m,None,1452,1236.0,216.0,83,1,2995.0,353756.5,7212,silver,NF,B,346875,346875,345130,346141,345130,348125,346658,346658,348124,57
57,test,1,con,1,z,Wed Sep 03 2025 15:04:04 GMT-0500 (Central Daylight Time),358866.69999980927,plum,900,I,z,z,None,668,468.0,200.0,58,1,2110.300000190735,356756.39999961853,7212,plum,NF,B,349757,349757,348129,349041,348130,350240,349557,349557,350240,58
58,test,1,con,1,m,Wed Sep 03 2025 15:04:04 GMT-0500 (Central Daylight Time),361216.5,copper,1100,I,m,m,None,717,517.0,200.0,76,1,2344.9000000953674,358871.59999990463,7212,copper,NF,B,352057,352057,350245,351356,350245,352590,351857,351857,352590,59
59,test,1,inc,1,m,Wed Sep 03 2025 15:04:04 GMT-0500 (Central Daylight Time),363414.09999990463,kiwi,1000,I,m,m,None,652,453.0,199.0,103,1,2191.800000190735,361222.2999997139,7212,gold,NF,B,354322,354322,352595,353605,352595,354787,354122,354122,354787,60
60,test,1,inc,1,z,Wed Sep 03 2025 15:04:04 GMT-0500 (Central Daylight Time),365797.5,cobalt,1100,I,z,z,None,743,527.0,216.0,32,1,2378.6000003814697,363418.89999961853,7212,raisin,NF,B,356639,356639,354792,355906,354792,357171,356423,356423,357171,61
61,test,1,con,1,m,Wed Sep 03 2025 15:04:04 GMT-0500 (Central Daylight Time),368794.39999961853,zinc,1100,I,m,m,None,1363,1162.0,201.0,116,1,2990.8999996185303,365803.5,7212,zinc,NF,B,359004,359004,357177,358288,357177,360167,358802,358802,360167,62
62,test,1,con,1,z,Wed Sep 03 2025 15:04:04 GMT-0500 (Central Daylight Time),370895.0,raisin,800,I,z,z,None,763,561.0,202.0,25,1,2097.800000190735,368797.19999980927,7212,raisin,NF,B,361703,361703,360170,360986,360170,362268,361501,361501,362268,63
63,test,1,con,1,z,Wed Sep 03 2025 15:04:04 GMT-0500 (Central Daylight Time),373178.09999990463,banana,900,I,z,z,None,834,618.0,216.0,2,1,2278.0,370900.09999990463,7212,banana,NF,B,363919,363919,362273,363186,362273,364551,363702,363702,364551,64
64,test,1,con,1,m,Wed Sep 03 2025 15:04:04 GMT-0500 (Central Daylight Time),375510.69999980927,iron,1000,I,m,m,None,787,588.0,199.0,107,1,2329.0999999046326,373181.59999990463,7212,iron,NF,B,366284,366284,364555,365568,364555,366884,366085,366085,366884,65
65,test,1,con,1,m,Wed Sep 03 2025 15:04:04 GMT-0500 (Central Daylight Time),377825.39999961853,lead,1000,I,m,m,None,773,572.0,201.0,123,1,2310.199999809265,375515.19999980927,7212,lead,NF,B,368618,368618,366888,367902,366889,369198,368417,368417,369198,66
66,test,1,con,1,m,Wed Sep 03 2025 15:04:04 GMT-0500 (Central Daylight Time),380092.39999961853,cobalt,1100,I,m,m,None,619,420.0,199.0,92,1,2264.0999999046326,377828.2999997139,7212,cobalt,NF,B,371031,371031,369201,370317,369202,371466,370832,370832,371465,67
67,test,1,con,1,z,Wed Sep 03 2025 15:04:04 GMT-0500 (Central Daylight Time),382358.7999997139,pear,1000,I,z,z,None,726,527.0,199.0,43,1,2260.2999997138977,380098.5,7212,pear,NF,B,373199,373199,371472,372483,371472,373732,372999,372999,373732,68
68,test,1,inc,1,z,Wed Sep 03 2025 15:04:04 GMT-0500 (Central Daylight Time),384672.5,copper,900,I,z,z,None,874,674.0,200.0,22,1,2307.800000190735,382364.69999980927,7212,orange,NF,B,375364,375364,373738,374647,373738,376046,375164,375164,376046,69
69,test,1,inc,1,m,Wed Sep 03 2025 15:04:04 GMT-0500 (Central Daylight Time),387039.69999980927,kiwi,1000,I,m,m,None,819,619.0,200.0,127,1,2364.5,384675.19999980927,7212,lead,NF,B,377780,377780,376048,377064,376049,378413,377580,377580,378413,70
70,test,1,con,1,m,Wed Sep 03 2025 15:04:04 GMT-0500 (Central Daylight Time),389156.5,zinc,800,I,m,m,None,773,572.0,201.0,113,1,2108.5,387048.0,7212,zinc,NF,B,379948,379948,378421,379230,378421,380530,379746,379746,380529,71
71,test,1,inc,1,m,Wed Sep 03 2025 15:04:04 GMT-0500 (Central Daylight Time),391488.39999961853,plum,1100,I,m,m,None,683,484.0,199.0,112,1,2324.7999997138977,389163.59999990463,7212,iron,NF,B,382363,382363,380537,381645,380537,382862,382163,382163,382861,72
72,test,1,con,1,z,Wed Sep 03 2025 15:04:04 GMT-0500 (Central Daylight Time),393620.69999980927,kiwi,900,I,z,z,None,694,479.0,215.0,50,1,2126.5999999046326,391494.09999990463,7212,kiwi,NF,B,384512,384512,382867,383779,382867,384994,384297,384297,384994,73
73,test,1,inc,1,z,Wed Sep 03 2025 15:04:04 GMT-0500 (Central Daylight Time),395853.89999961853,gold,800,I,z,z,None,895,695.0,200.0,37,1,2226.699999809265,393627.19999980927,7212,lime,NF,B,386527,386527,385000,385812,385001,387227,386327,386327,387227,74
74,test,1,inc,1,z,Wed Sep 03 2025 15:04:04 GMT-0500 (Central Daylight Time),398152.89999961853,silver,1000,I,z,z,None,765,551.0,214.0,23,1,2295.2999997138977,395857.59999990463,7212,orange,NF,B,388960,388960,387231,388243,387231,389526,388745,388745,389526,75
75,test,1,con,1,m,Wed Sep 03 2025 15:04:04 GMT-0500 (Central Daylight Time),400285.5,silver,800,I,m,m,None,795,596.0,199.0,81,1,2125.9000000953674,398159.59999990463,7212,silver,NF,B,391059,391059,389533,390342,389533,391659,390859,390859,391658,76
76,test,1,con,1,m,Wed Sep 03 2025 15:04:04 GMT-0500 (Central Daylight Time),402703.39999961853,lead,800,I,m,m,None,1078,863.0,215.0,121,1,2410.3999996185303,400293.0,7212,lead,NF,B,393208,393208,391666,392476,391666,394076,392993,392993,394076,77
77,test,1,inc,1,m,Wed Sep 03 2025 15:04:04 GMT-0500 (Central Daylight Time),404983.89999961853,cherry,900,I,m,m,None,835,636.0,199.0,86,1,2273.2999997138977,402710.59999990463,7212,silver,NF,B,395707,395707,394084,394993,394084,396357,395508,395508,396357,78
78,test,1,con,1,m,Wed Sep 03 2025 15:04:04 GMT-0500 (Central Daylight Time),407266.5,cobalt,1000,I,m,m,None,735,535.0,200.0,91,1,2274.1000003814697,404992.39999961853,7212,cobalt,NF,B,398090,398090,396365,397374,396366,398640,397890,397890,398640,79
79,test,1,inc,1,m,Wed Sep 03 2025 15:04:04 GMT-0500 (Central Daylight Time),410199.2999997139,raisin,1100,I,m,m,None,1293,1078.0,215.0,88,1,2924.199999809265,407275.09999990463,7212,silver,NF,B,400489,400489,398648,399757,398648,401572,400274,400274,401572,80
80,test,1,con,1,z,Wed Sep 03 2025 15:04:04 GMT-0500 (Central Daylight Time),412315.69999980927,orange,1100,I,z,z,None,467,267.0,200.0,20,1,2112.9000000953674,410202.7999997139,7212,orange,NF,B,403407,403407,401576,402690,401576,403689,403206,403206,403689,81
81,test,1,con,1,z,Wed Sep 03 2025 15:04:04 GMT-0500 (Central Daylight Time),414649.0,raisin,1000,I,z,z,None,784,568.0,216.0,27,1,2327.300000190735,412321.69999980927,7212,raisin,NF,B,405439,405439,403695,404706,403695,406022,405222,405222,406022,82
82,test,1,con,1,z,Wed Sep 03 2025 15:04:04 GMT-0500 (Central Daylight Time),417547.7999997139,lime,1000,I,z,z,None,1373,1174.0,199.0,35,1,2892.7999997138977,414655.0,7212,lime,NF,B,407738,407738,406028,407037,406028,408921,407538,407538,408921,83
83,test,1,inc,1,z,Wed Sep 03 2025 15:04:04 GMT-0500 (Central Daylight Time),419796.09999990463,zinc,1000,I,z,z,None,705,489.0,216.0,63,1,2243.0999999046326,417553.0,7212,plum,NF,B,410670,410670,408926,409937,408926,411169,410454,410454,411169,84
84,test,1,inc,1,z,Wed Sep 03 2025 15:04:04 GMT-0500 (Central Daylight Time),422346.19999980927,cobalt,1100,I,z,z,None,915,715.0,200.0,8,1,2543.9000000953674,419802.2999997139,7212,banana,NF,B,413003,413003,411175,412287,411176,413719,412803,412803,413719,85
85,test,1,inc,1,m,Wed Sep 03 2025 15:04:04 GMT-0500 (Central Daylight Time),424645.09999990463,pear,900,I,m,m,None,855,656.0,199.0,110,1,2296.4000000953674,422348.69999980927,7212,iron,NF,B,415352,415352,413722,414636,413722,416018,415152,415152,416018,86
86,test,1,con,1,m,Wed Sep 03 2025 15:04:04 GMT-0500 (Central Daylight Time),426861.19999980927,silver,900,I,m,m,None,795,579.0,216.0,82,1,2211.0,424650.19999980927,7212,silver,NF,B,417652,417652,416023,416935,416024,418234,417436,417436,418234,87
87,test,1,inc,1,m,Wed Sep 03 2025 15:04:04 GMT-0500 (Central Daylight Time),428993.59999990463,banana,800,I,m,m,None,786,586.0,200.0,85,1,2126.0,426867.59999990463,7212,silver,NF,B,419766,419766,418241,419052,418241,420367,419566,419566,420367,88
88,test,1,con,1,z,Wed Sep 03 2025 15:04:04 GMT-0500 (Central Daylight Time),431659.7999997139,cherry,1100,I,z,z,None,1018,817.0,201.0,12,1,2659.9000000953674,428999.89999961853,7212,cherry,NF,B,422201,422201,420373,421484,420373,423033,422000,422000,423033,89
89,test,1,con,1,z,Wed Sep 03 2025 15:04:04 GMT-0500 (Central Daylight Time),433608.0,lime,800,I,z,z,None,600,401.0,199.0,33,1,1942.6000003814697,431665.39999961853,7212,lime,NF,B,424565,424565,423038,423849,423039,424981,424365,424365,424981,90
90,test,1,con,1,z,Wed Sep 03 2025 15:04:04 GMT-0500 (Central Daylight Time),436092.0,banana,800,I,z,z,None,1135,935.0,200.0,1,1,2478.7000002861023,433613.2999997139,7212,banana,NF,B,426515,426515,424986,425799,424987,427465,426315,426315,427465,91
91,test,1,con,1,m,Wed Sep 03 2025 15:04:04 GMT-0500 (Central Daylight Time),437974.09999990463,lead,900,I,m,m,None,436,237.0,199.0,122,1,1875.9000000953674,436098.19999980927,7212,lead,NF,B,429098,429098,427471,428381,427472,429347,428898,428898,429347,92
92,test,1,con,1,m,Wed Sep 03 2025 15:04:04 GMT-0500 (Central Daylight Time),440290.39999961853,zinc,1000,I,m,m,None,790,574.0,216.0,115,1,2311.7999997138977,437978.59999990463,7212,zinc,NF,B,431080,431080,429352,430363,429352,431663,430864,430864,431663,93
93,test,1,inc,1,z,Wed Sep 03 2025 15:04:04 GMT-0500 (Central Daylight Time),442473.0,silver,1000,I,z,z,None,650,451.0,199.0,31,1,2177.800000190735,440295.19999980927,7212,raisin,NF,B,433380,433380,431668,432678,431668,433846,433180,433180,433846,94
94,test,1,inc,1,z,Wed Sep 03 2025 15:04:04 GMT-0500 (Central Daylight Time),444672.19999980927,silver,1000,I,z,z,None,660,461.0,199.0,15,1,2193.0999999046326,442479.09999990463,7212,cherry,NF,B,435579,435579,433852,434862,433852,436045,435379,435379,436045,95
95,test,1,inc,1,m,Wed Sep 03 2025 15:04:04 GMT-0500 (Central Daylight Time),447088.59999990463,kiwi,1000,I,m,m,None,867,667.0,200.0,111,1,2410.5,444678.09999990463,7212,iron,NF,B,437779,437779,436051,437062,436051,438462,437579,437579,438462,96
96,test,1,inc,1,m,Wed Sep 03 2025 15:04:04 GMT-0500 (Central Daylight Time),449454.39999961853,raisin,1100,I,m,m,None,728,529.0,199.0,96,1,2359.5,447094.89999961853,7212,cobalt,NF,B,440295,440295,438468,439579,438468,440828,440095,440095,440827,97
97,test,1,con,1,z,Wed Sep 03 2025 15:04:04 GMT-0500 (Central Daylight Time),451852.7999997139,banana,1000,I,z,z,None,863,661.0,202.0,3,1,2393.4000000953674,449459.39999961853,7212,banana,NF,B,442562,442562,440832,441844,440833,443226,442360,442360,443226,98
98,test,1,inc,1,m,Wed Sep 03 2025 15:04:04 GMT-0500 (Central Daylight Time),454485.0,raisin,1100,I,m,m,None,985,771.0,214.0,72,1,2629.4000000953674,451855.59999990463,7212,bronze,NF,B,445076,445076,443229,444343,443229,445858,444861,444861,445858,99
99,test,1,inc,1,z,Wed Sep 03 2025 15:04:04 GMT-0500 (Central Daylight Time),456634.5,zinc,1000,I,z,z,None,599,400.0,199.0,47,1,2145.1000003814697,454489.39999961853,7212,pear,NF,B,447592,447592,445862,446877,445863,448008,447392,447392,448008,100
100,test,1,inc,1,m,Wed Sep 03 2025 15:04:04 GMT-0500 (Central Daylight Time),458935.19999980927,pear,900,I,m,m,None,866,665.0,201.0,102,1,2295.0,456640.19999980927,7212,gold,NF,B,449641,449641,448013,448926,448013,450308,449440,449440,450308,101
100,test,1,inc,0,m,Wed Sep 03 2025 15:04:04 GMT-0500 (Central Daylight Time),461249.69999980927,lime,800,I,z,z,None,973,774.0,199.0,125,1,2309.199999809265,458940.5,7212,lead,NF,B,451841,451841,450314,451125,450314,452623,451641,451641,452623,102
101,test,1,inc,1,m,Wed Sep 03 2025 15:04:04 GMT-0500 (Central Daylight Time),463766.89999961853,plum,1100,I,m,m,None,878,679.0,199.0,120,1,2513.0999999046326,461253.7999997139,7212,zinc,NF,B,454457,454457,452627,453740,452627,455140,454258,454258,455140,103
102,test,1,inc,1,z,Wed Sep 03 2025 15:04:04 GMT-0500 (Central Daylight Time),465748.5,bronze,800,I,z,z,None,640,439.0,201.0,29,1,1975.8000001907349,463772.69999980927,7212,raisin,NF,B,456673,456673,455146,455957,455146,457122,456472,456472,457122,104
103,test,1,con,1,m,Wed Sep 03 2025 15:04:04 GMT-0500 (Central Daylight Time),467849.39999961853,cobalt,800,I,m,m,None,762,561.0,201.0,89,1,2095.699999809265,465753.69999980927,7212,cobalt,NF,B,458655,458655,457127,457938,457127,459222,458454,458454,459222,105
104,test,1,inc,1,m,Wed Sep 03 2025 15:04:04 GMT-0500 (Central Daylight Time),469899.2999997139,pear,900,I,m,m,None,617,417.0,200.0,118,1,2045.5,467853.7999997139,7212,zinc,NF,B,460855,460855,459227,460138,459227,461272,460654,460654,461272,106
105,test,1,inc,1,m,Wed Sep 03 2025 15:04:04 GMT-0500 (Central Daylight Time),471863.59999990463,banana,800,I,m,m,None,618,418.0,200.0,77,1,1958.8000001907349,469904.7999997139,7212,copper,NF,B,462804,462804,461278,462088,461278,463237,462604,462604,463237,107
106,test,1,inc,1,m,Wed Sep 03 2025 15:04:04 GMT-0500 (Central Daylight Time),473762.5,lime,800,I,m,m,None,551,351.0,200.0,109,1,1894.1000003814697,471868.39999961853,7212,iron,NF,B,464770,464770,463241,464054,463242,465136,464570,464570,465136,108
107,test,1,inc,1,z,Wed Sep 03 2025 15:04:04 GMT-0500 (Central Daylight Time),475995.09999990463,lead,1100,I,z,z,None,604,405.0,199.0,40,1,2226.5999999046326,473768.5,7212,lime,NF,B,466954,466954,465142,466252,465142,467368,466754,466754,467368,109
108,test,1,inc,1,m,Wed Sep 03 2025 15:04:04 GMT-0500 (Central Daylight Time),478078.09999990463,lime,800,I,m,m,None,738,538.0,200.0,101,1,2079.0,475999.09999990463,7212,gold,NF,B,468902,468902,467372,468186,467372,469451,468702,468702,469451,110
109,test,1,inc,1,z,Wed Sep 03 2025 15:04:04 GMT-0500 (Central Daylight Time),480193.69999980927,silver,1000,I,z,z,None,566,366.0,200.0,7,1,2111.300000190735,478082.39999961853,7212,banana,NF,B,471185,471185,469455,470469,469456,471567,470985,470985,471567,111
110,test,1,inc,1,z,Wed Sep 03 2025 15:04:04 GMT-0500 (Central Daylight Time),482643.59999990463,zinc,1000,I,z,z,None,900,700.0,200.0,39,1,2445.2000002861023,480198.39999961853,7212,lime,NF,B,473301,473301,471571,472585,471572,474017,473100,473100,474017,112
111,test,1,inc,1,z,Wed Sep 03 2025 15:04:04 GMT-0500 (Central Daylight Time),484859.7999997139,copper,900,I,z,z,None,767,567.0,200.0,6,1,2209.5999999046326,482650.19999980927,7212,banana,NF,B,475650,475650,474023,474933,474023,476233,475450,475450,476233,113
112,test,1,con,1,z,Wed Sep 03 2025 15:04:04 GMT-0500 (Central Daylight Time),487142.09999990463,orange,1000,I,z,z,None,736,535.0,201.0,19,1,2275.7000002861023,484866.39999961853,7212,orange,NF,B,477967,477967,476239,477250,476240,478515,477765,477765,478515,114
113,test,1,inc,1,m,Wed Sep 03 2025 15:04:04 GMT-0500 (Central Daylight Time),489057.5,banana,800,I,m,m,None,566,352.0,214.0,93,1,1909.9000000953674,487147.59999990463,7212,cobalt,NF,B,480064,480064,478521,479331,478521,480431,479849,479849,480430,115
114,test,1,inc,1,z,Wed Sep 03 2025 15:04:04 GMT-0500 (Central Daylight Time),491441.0,copper,900,I,z,z,None,948,733.0,215.0,14,1,2377.5,489063.5,7212,cherry,NF,B,482065,482065,480437,481348,480437,482814,481849,481849,482814,116
115,test,1,con,1,m,Wed Sep 03 2025 15:04:04 GMT-0500 (Central Daylight Time),493456.2999997139,iron,800,I,m,m,None,666,467.0,199.0,105,1,2010.5,491445.7999997139,7212,iron,NF,B,484347,484347,482819,483632,482819,484829,484147,484147,484829,117
116,test,1,inc,1,m,Wed Sep 03 2025 15:04:04 GMT-0500 (Central Daylight Time),495889.2999997139,raisin,1100,I,m,m,None,799,584.0,215.0,80,1,2428.199999809265,493461.09999990463,7212,copper,NF,B,486663,486663,484834,485946,484834,487262,486448,486448,487262,118
117,test,1,con,1,m,Wed Sep 03 2025 15:04:04 GMT-0500 (Central Daylight Time),497989.19999980927,iron,900,I,m,m,None,664,450.0,214.0,106,1,2093.300000190735,495895.89999961853,7212,iron,NF,B,488912,488912,487269,488180,487269,489362,488698,488698,489362,119
118,test,1,inc,1,z,Wed Sep 03 2025 15:04:04 GMT-0500 (Central Daylight Time),500121.5,copper,900,I,z,z,None,692,493.0,199.0,30,1,2126.300000190735,497995.19999980927,7212,raisin,NF,B,490994,490994,489368,490279,489368,491495,490795,490795,491495,120
119,test,1,con,1,m,Wed Sep 03 2025 15:04:04 GMT-0500 (Central Daylight Time),502537.09999990463,lead,1100,I,m,m,None,776,577.0,199.0,124,1,2411.2000002861023,500125.89999961853,7212,lead,NF,B,493326,493326,491499,492610,491499,493910,493127,493127,493910,121
120,test,1,con,1,z,Wed Sep 03 2025 15:04:04 GMT-0500 (Central Daylight Time),504618.89999961853,kiwi,800,I,z,z,None,735,535.0,200.0,49,1,2075.699999809265,502543.19999980927,7212,kiwi,NF,B,495442,495442,493916,494726,493917,495992,495242,495242,495992,122
121,test,1,con,1,z,Wed Sep 03 2025 15:04:04 GMT-0500 (Central Daylight Time),507302.19999980927,cherry,1000,I,z,z,None,1153,954.0,199.0,11,1,2676.5999999046326,504625.59999990463,7212,cherry,NF,B,497709,497709,495999,497008,495999,498675,497510,497510,498675,123
122,test,1,con,1,z,Wed Sep 03 2025 15:04:04 GMT-0500 (Central Daylight Time),509184.09999990463,cherry,900,I,z,z,None,443,242.0,201.0,10,1,1875.5999999046326,507308.5,7212,cherry,NF,B,500309,500309,498682,499592,498682,500557,500107,500107,500557,124
123,test,1,inc,1,z,Wed Sep 03 2025 15:04:04 GMT-0500 (Central Daylight Time),511283.39999961853,iron,900,I,z,z,None,656,456.0,200.0,54,1,2090.5,509192.89999961853,7212,kiwi,NF,B,502191,502191,500566,501474,500566,502656,501990,501990,502656,125
124,test,1,con,1,z,Wed Sep 03 2025 15:04:04 GMT-0500 (Central Daylight Time),513382.5,raisin,1100,I,z,z,None,461,262.0,199.0,28,1,2092.800000190735,511289.69999980927,7212,raisin,NF,B,504490,504490,502663,503774,502663,504756,504290,504290,504755,126
124,test,1,inc,0,z,Wed Sep 03 2025 15:04:04 GMT-0500 (Central Daylight Time),515182.89999961853,bronze,800,I,m,m,None,452,253.0,199.0,13,1,1792.5999999046326,513390.2999997139,7212,cherry,NF,B,506289,506289,504763,505572,504764,506556,506090,506090,506556,127
125,test,1,inc,1,z,Wed Sep 03 2025 15:04:04 GMT-0500 (Central Daylight Time),517482.5,zinc,1000,I,z,z,None,758,559.0,199.0,55,1,2293.800000190735,515188.69999980927,7212,kiwi,NF,B,508288,508288,506562,507572,506562,508856,508088,508088,508856,128
