Q,Q1,Q2,Q3,Q4,acc_sum,block,block_c,correct,correct_response,datetime,endtime,project,response,response_time,row_sel,session_number,squiggle1,squiggle1x,squiggle1y,squiggle2,squiggle2x,squiggle2y,squiggle3,squiggle3x,squiggle3y,squiggle4,squiggle4x,squiggle4y,start_end,starttime,subject_id,target_congruent,task,task_vers,testsquiggle,testsquigglex,testsquiggley,time_practice_delay,time_practice_fixation,time_practice_stimuli,time_practice_study,time_test_delay,time_test_fixation,time_test_stimuli,time_test_study,trial
1,1,0,0,0,1,prac,1,1,z,Tue Nov 11 2025 18:54:26 GMT-0600 (Central Standard Time),129431.90000003576,I,z,973,1,,116.bmp,-120,-120,117.bmp,120,-120,118.bmp,-120,120,119.bmp,120,120,9793.900000035763,119638.0,8053,yes,SM,A,116.bmp,-120,-120,120024,113996,122041,116010,,,,,1
3,0,0,1,0,1,prac,1,0,m,Tue Nov 11 2025 18:54:26 GMT-0600 (Central Standard Time),139528.70000004768,I,z,1282,2,,120.bmp,-120,-120,121.bmp,120,-120,122.bmp,-120,120,123.bmp,120,120,10092.600000023842,129436.10000002384,8053,no,SM,A,123.bmp,-120,120,129821,123794,131837,125806,,,,,2
4,0,0,0,1,2,prac,1,1,m,Tue Nov 11 2025 18:54:26 GMT-0600 (Central Standard Time),149825.70000004768,I,m,1480,3,,124.bmp,-120,-120,125.bmp,120,-120,126.bmp,-120,120,127.bmp,120,120,10293.700000047684,139532.0,8053,no,SM,A,124.bmp,120,120,139918,133890,141934,135903,,,,,3
2,0,1,0,0,2,prac,1,0,z,Tue Nov 11 2025 18:54:26 GMT-0600 (Central Standard Time),159739.20000004768,I,m,1095,4,,128.bmp,-120,-120,129.bmp,120,-120,130.bmp,-120,120,131.bmp,120,120,9908.300000011921,149830.90000003576,8053,yes,SM,A,129.bmp,120,-120,150215,144189,152231,146200,,,,,4
3,0,0,1,0,2,prac,1,0,z,Tue Nov 11 2025 18:54:26 GMT-0600 (Central Standard Time),170568.80000001192,I,None,2015,5,,132.bmp,-120,-120,133.bmp,120,-120,134.bmp,-120,120,135.bmp,120,120,10826.399999976158,159742.40000003576,8053,yes,SM,A,134.bmp,-120,120,160129,154101,162145,156113,,,,,5
1,1,0,0,0,3,prac,1,1,m,Tue Nov 11 2025 18:54:26 GMT-0600 (Central Standard Time),180782.40000003576,I,m,1390,6,,136.bmp,-120,-120,137.bmp,120,-120,138.bmp,-120,120,139.bmp,120,120,10209.699999988079,170572.70000004768,8053,no,SM,A,139.bmp,-120,-120,170959,164931,172976,166943,,,,,6
2,0,1,0,0,4,prac,1,1,m,Tue Nov 11 2025 18:54:26 GMT-0600 (Central Standard Time),190979.20000004768,I,m,1378,7,,140.bmp,-120,-120,141.bmp,120,-120,142.bmp,-120,120,143.bmp,120,120,10192.900000035763,180786.30000001192,8053,no,SM,A,140.bmp,120,-120,181172,175145,183188,177157,,,,,7
4,0,0,0,1,4,prac,1,0,z,Tue Nov 11 2025 18:54:26 GMT-0600 (Central Standard Time),201809.10000002384,I,None,2015,8,,144.bmp,-120,-120,145.bmp,120,-120,146.bmp,-120,120,147.bmp,120,120,10825.100000023842,190984.0,8053,yes,SM,A,147.bmp,120,120,191368,185343,193385,187354,,,,,8
1,1,0,0,0,1,prac,2,1,z,Tue Nov 11 2025 18:54:26 GMT-0600 (Central Standard Time),217037.70000004768,I,z,926,1,,116.bmp,-120,-120,117.bmp,120,-120,118.bmp,-120,120,119.bmp,120,120,9744.100000023842,207293.60000002384,8053,yes,SM,A,116.bmp,-120,-120,207680,201652,209697,203665,,,,,1
3,0,0,1,0,1,prac,2,0,m,Tue Nov 11 2025 18:54:26 GMT-0600 (Central Standard Time),227351.20000004768,I,z,1499,2,,120.bmp,-120,-120,121.bmp,120,-120,122.bmp,-120,120,123.bmp,120,120,10310.100000023842,217041.10000002384,8053,no,SM,A,123.bmp,-120,120,217427,211399,219443,213412,,,,,2
4,0,0,0,1,2,prac,2,1,m,Tue Nov 11 2025 18:54:26 GMT-0600 (Central Standard Time),237931.30000001192,I,m,1753,3,,124.bmp,-120,-120,125.bmp,120,-120,126.bmp,-120,120,127.bmp,120,120,10576.899999976158,227354.40000003576,8053,no,SM,A,124.bmp,120,120,227741,221713,229757,223725,,,,,3
2,0,1,0,0,3,prac,2,1,z,Tue Nov 11 2025 18:54:26 GMT-0600 (Central Standard Time),248327.5,I,z,1581,4,,128.bmp,-120,-120,129.bmp,120,-120,130.bmp,-120,120,131.bmp,120,120,10392.699999988079,237934.80000001192,8053,yes,SM,A,129.bmp,120,-120,238321,232293,240337,234306,,,,,4
3,0,0,1,0,3,prac,2,0,z,Tue Nov 11 2025 18:54:26 GMT-0600 (Central Standard Time),259075.0,I,m,1929,5,,132.bmp,-120,-120,133.bmp,120,-120,134.bmp,-120,120,135.bmp,120,120,10744.0,248331.0,8053,yes,SM,A,134.bmp,-120,120,248717,242689,250734,244702,,,,,5
1,1,0,0,0,3,prac,2,0,m,Tue Nov 11 2025 18:54:26 GMT-0600 (Central Standard Time),269305.2000000477,I,z,1414,6,,136.bmp,-120,-120,137.bmp,120,-120,138.bmp,-120,120,139.bmp,120,120,10226.200000047684,259079.0,8053,no,SM,A,139.bmp,-120,-120,259464,253437,261480,255449,,,,,6
2,0,1,0,0,4,prac,2,1,m,Tue Nov 11 2025 18:54:26 GMT-0600 (Central Standard Time),279617.90000003576,I,m,1488,7,,140.bmp,-120,-120,141.bmp,120,-120,142.bmp,-120,120,143.bmp,120,120,10309.5,269308.40000003576,8053,no,SM,A,140.bmp,120,-120,269694,263667,271710,265679,,,,,7
4,0,0,0,1,4,prac,2,0,z,Tue Nov 11 2025 18:54:26 GMT-0600 (Central Standard Time),290447.90000003576,I,None,2016,8,,144.bmp,-120,-120,145.bmp,120,-120,146.bmp,-120,120,147.bmp,120,120,10826.699999988079,279621.2000000477,8053,yes,SM,A,147.bmp,120,120,280008,273980,282024,275992,,,,,8
4,0,0,0,1,0,test,1,0,m,Tue Nov 11 2025 18:54:26 GMT-0600 (Central Standard Time),315773.5,I,z,1994,1,,148.bmp,-120,-120,149.bmp,120,-120,150.bmp,-120,120,143.bmp,120,120,10044.399999976158,305729.10000002384,8053,no,SM,A,150.bmp,120,120,280008,273980,282024,275992,306116.0,300087.0,308132.0,302101.0,1
2,0,1,0,0,1,test,1,1,m,Tue Nov 11 2025 18:54:26 GMT-0600 (Central Standard Time),325353.8000000119,I,m,1531,2,,101.bmp,-120,-120,102.bmp,120,-120,103.bmp,-120,120,104.bmp,120,120,9576.699999988079,315777.10000002384,8053,no,SM,A,103.bmp,120,-120,280008,273980,282024,275992,316163.0,310135.0,318179.0,312148.0,2
1,1,0,0,0,1,test,1,0,z,Tue Nov 11 2025 18:54:26 GMT-0600 (Central Standard Time),335484.10000002384,I,None,2004,3,,105.bmp,-120,-120,106.bmp,120,-120,107.bmp,-120,120,108.bmp,120,120,10125.699999988079,325358.40000003576,8053,yes,SM,A,105.bmp,-120,-120,280008,273980,282024,275992,325744.0,319717.0,327838.0,321728.0,3
3,0,0,1,0,2,test,1,1,m,Tue Nov 11 2025 18:54:26 GMT-0600 (Central Standard Time),344914.40000003576,I,m,1380,4,,109.bmp,-120,-120,110.bmp,120,-120,111.bmp,-120,120,112.bmp,120,120,9426.699999988079,335487.7000000477,8053,no,SM,A,109.bmp,-120,120,280008,273980,282024,275992,335874.0,329846.0,337890.0,331858.0,4
2,0,1,0,0,3,test,1,1,z,Tue Nov 11 2025 18:54:26 GMT-0600 (Central Standard Time),354894.7000000477,I,z,1918,5,,113.bmp,-120,-120,114.bmp,120,-120,115.bmp,-120,120,116.bmp,120,120,9976.200000047684,344918.5,8053,yes,SM,A,114.bmp,120,-120,280008,273980,282024,275992,345304.0,339277.0,347320.0,341289.0,5
3,0,0,1,0,4,test,1,1,z,Tue Nov 11 2025 18:54:26 GMT-0600 (Central Standard Time),364874.7000000477,I,z,1830,6,,117.bmp,-120,-120,118.bmp,120,-120,119.bmp,-120,120,120.bmp,120,120,9977.100000023842,354897.60000002384,8053,yes,SM,A,119.bmp,-120,120,280008,273980,282024,275992,355384.0,349256.0,357400.0,351380.0,6
4,0,0,0,1,5,test,1,1,z,Tue Nov 11 2025 18:54:26 GMT-0600 (Central Standard Time),374721.90000003576,I,z,1791,7,,121.bmp,-120,-120,122.bmp,120,-120,123.bmp,-120,120,124.bmp,120,120,9844.5,364877.40000003576,8053,yes,SM,A,124.bmp,120,120,280008,273980,282024,275992,365264.0,359236.0,367280.0,361249.0,7
2,0,1,0,0,5,test,1,0,m,Tue Nov 11 2025 18:54:26 GMT-0600 (Central Standard Time),384785.3000000119,I,None,2016,8,,125.bmp,-120,-120,126.bmp,120,-120,127.bmp,-120,120,128.bmp,120,120,10060.399999976158,374724.90000003576,8053,no,SM,A,125.bmp,120,-120,280008,273980,282024,275992,375111.0,369083.0,377127.0,371096.0,8
3,0,0,1,0,6,test,1,1,m,Tue Nov 11 2025 18:54:26 GMT-0600 (Central Standard Time),394132.3000000119,I,m,1287,9,,129.bmp,-120,-120,130.bmp,120,-120,131.bmp,-120,120,132.bmp,120,120,9343.699999988079,384788.60000002384,8053,no,SM,A,130.bmp,-120,120,280008,273980,282024,275992,385175.0,379147.0,387191.0,381159.0,9
4,0,0,0,1,6,test,1,0,z,Tue Nov 11 2025 18:54:26 GMT-0600 (Central Standard Time),404181.8000000119,I,None,2001,10,,137.bmp,-120,-120,138.bmp,120,-120,139.bmp,-120,120,140.bmp,120,120,10046.199999988079,394135.60000002384,8053,yes,SM,A,140.bmp,120,120,280008,273980,282024,275992,394522.0,388494.0,396539.0,390507.0,10
3,0,0,1,0,7,test,1,1,z,Tue Nov 11 2025 18:54:26 GMT-0600 (Central Standard Time),413559.7000000477,I,z,1317,11,,133.bmp,-120,-120,134.bmp,120,-120,135.bmp,-120,120,136.bmp,120,120,9374.5,404185.2000000477,8053,yes,SM,A,135.bmp,-120,120,280008,273980,282024,275992,404569.0,398543.0,406585.0,400553.0,11
2,0,1,0,0,8,test,1,1,m,Tue Nov 11 2025 18:54:26 GMT-0600 (Central Standard Time),422956.60000002384,I,m,1337,12,,141.bmp,-120,-120,142.bmp,120,-120,143.bmp,-120,120,144.bmp,120,120,9394.100000023842,413562.5,8053,no,SM,A,141.bmp,120,-120,280008,273980,282024,275992,413949.0,407921.0,415966.0,409934.0,12
3,0,0,1,0,8,test,1,0,m,Tue Nov 11 2025 18:54:26 GMT-0600 (Central Standard Time),433020.2000000477,I,None,2016,13,,145.bmp,-120,-120,146.bmp,120,-120,147.bmp,-120,120,148.bmp,120,120,10060.200000047684,422960.0,8053,no,SM,A,146.bmp,-120,120,280008,273980,282024,275992,423346.0,417318.0,425362.0,419331.0,13
1,1,0,0,0,9,test,1,1,z,Tue Nov 11 2025 18:54:26 GMT-0600 (Central Standard Time),442117.3000000119,I,z,1037,14,,149.bmp,-120,-120,150.bmp,120,-120,104.bmp,-120,120,101.bmp,120,120,9093.699999988079,433023.60000002384,8053,yes,SM,A,149.bmp,-120,-120,280008,273980,282024,275992,433410.0,427382.0,435426.0,429395.0,14
4,0,0,0,1,9,test,1,0,m,Tue Nov 11 2025 18:54:26 GMT-0600 (Central Standard Time),451930.8000000119,I,z,1763,15,,110.bmp,-120,-120,111.bmp,120,-120,112.bmp,-120,120,113.bmp,120,120,9810.300000011921,442120.5,8053,no,SM,A,111.bmp,120,120,280008,273980,282024,275992,442507.0,436479.0,444523.0,438492.0,15
1,1,0,0,0,9,test,1,0,m,Tue Nov 11 2025 18:54:26 GMT-0600 (Central Standard Time),461694.3000000119,I,z,1701,16,,102.bmp,-120,-120,103.bmp,120,-120,104.bmp,-120,120,105.bmp,120,120,9759.599999964237,451934.7000000477,8053,no,SM,A,105.bmp,-120,-120,280008,273980,282024,275992,452320.0,446293.0,454337.0,448305.0,16
3,0,0,1,0,9,test,1,0,m,Tue Nov 11 2025 18:54:26 GMT-0600 (Central Standard Time),471759.2000000477,I,None,2017,17,,122.bmp,-120,-120,123.bmp,120,-120,124.bmp,-120,120,125.bmp,120,120,10061.600000023842,461697.60000002384,8053,no,SM,A,122.bmp,-120,120,280008,273980,282024,275992,462084.0,456056.0,464100.0,458069.0,17
1,1,0,0,0,10,test,1,1,z,Tue Nov 11 2025 18:54:26 GMT-0600 (Central Standard Time),480888.3000000119,I,z,1066,18,,106.bmp,-120,-120,107.bmp,120,-120,108.bmp,-120,120,109.bmp,120,120,9125.399999976158,471762.90000003576,8053,yes,SM,A,106.bmp,-120,-120,280008,273980,282024,275992,472148.0,466121.0,474163.0,468132.0,18
2,0,1,0,0,11,test,1,1,z,Tue Nov 11 2025 18:54:26 GMT-0600 (Central Standard Time),490418.8000000119,I,z,1479,19,,126.bmp,-120,-120,127.bmp,120,-120,128.bmp,-120,120,129.bmp,120,120,9525.5,480893.3000000119,8053,yes,SM,A,127.bmp,120,-120,280008,273980,282024,275992,481278.0,475252.0,483296.0,477263.0,19
3,0,0,1,0,12,test,1,1,z,Tue Nov 11 2025 18:54:26 GMT-0600 (Central Standard Time),500182.40000003576,I,z,1701,20,,130.bmp,-120,-120,131.bmp,120,-120,132.bmp,-120,120,133.bmp,120,120,9759.5,490422.90000003576,8053,yes,SM,A,132.bmp,-120,120,280008,273980,282024,275992,490808.0,484781.0,492825.0,486793.0,20
1,1,0,0,0,12,test,1,0,m,Tue Nov 11 2025 18:54:26 GMT-0600 (Central Standard Time),509446.10000002384,I,z,1210,21,,114.bmp,-120,-120,115.bmp,120,-120,116.bmp,-120,120,117.bmp,120,120,9260.5,500185.60000002384,8053,no,SM,A,116.bmp,-120,-120,280008,273980,282024,275992,500572.0,494544.0,502588.0,496557.0,21
4,0,0,0,1,13,test,1,1,z,Tue Nov 11 2025 18:54:26 GMT-0600 (Central Standard Time),518876.7000000477,I,z,1370,22,,118.bmp,-120,-120,119.bmp,120,-120,120.bmp,-120,120,121.bmp,120,120,9427.300000011921,509449.40000003576,8053,yes,SM,A,121.bmp,120,120,280008,273980,282024,275992,509836.0,503808.0,511852.0,505821.0,22
1,1,0,0,0,14,test,1,1,m,Tue Nov 11 2025 18:54:26 GMT-0600 (Central Standard Time),528023.9000000358,I,m,1084,23,,134.bmp,-120,-120,135.bmp,120,-120,136.bmp,-120,120,137.bmp,120,120,9144.0,518879.90000003576,8053,no,SM,A,137.bmp,-120,-120,280008,273980,282024,275992,519266.0,513238.0,521282.0,515251.0,23
2,0,1,0,0,15,test,1,1,z,Tue Nov 11 2025 18:54:26 GMT-0600 (Central Standard Time),537620.9000000358,I,z,1545,24,,142.bmp,-120,-120,143.bmp,120,-120,144.bmp,-120,120,145.bmp,120,120,9593.600000023842,528027.3000000119,8053,yes,SM,A,143.bmp,120,-120,280008,273980,282024,275992,528413.0,522386.0,530430.0,524398.0,24
4,0,0,0,1,15,test,1,0,m,Tue Nov 11 2025 18:54:26 GMT-0600 (Central Standard Time),547684.3000000119,I,None,2016,25,,146.bmp,-120,-120,147.bmp,120,-120,148.bmp,-120,120,149.bmp,120,120,10060.699999988079,537623.6000000238,8053,no,SM,A,148.bmp,120,120,280008,273980,282024,275992,538010.0,531982.0,540026.0,533995.0,25
1,1,0,0,0,16,test,1,1,z,Tue Nov 11 2025 18:54:26 GMT-0600 (Central Standard Time),556931.2000000477,I,z,1188,26,,138.bmp,-120,-120,139.bmp,120,-120,140.bmp,-120,120,141.bmp,120,120,9243.100000023842,547688.1000000238,8053,yes,SM,A,138.bmp,-120,-120,280008,273980,282024,275992,548074.0,542046.0,550090.0,544058.0,26
4,0,0,0,1,17,test,1,1,z,Tue Nov 11 2025 18:54:26 GMT-0600 (Central Standard Time),566178.6000000238,I,z,1197,27,,150.bmp,-120,-120,111.bmp,120,-120,101.bmp,-120,120,102.bmp,120,120,9244.600000023842,556934.0,8053,yes,SM,A,102.bmp,120,120,280008,273980,282024,275992,557321.0,551293.0,559337.0,553306.0,27
3,0,0,1,0,18,test,1,1,m,Tue Nov 11 2025 18:54:26 GMT-0600 (Central Standard Time),576058.8000000119,I,m,1831,28,,103.bmp,-120,-120,104.bmp,120,-120,105.bmp,-120,120,106.bmp,120,120,9877.0,566181.8000000119,8053,no,SM,A,103.bmp,-120,120,280008,273980,282024,275992,566568.0,560540.0,568584.0,562553.0,28
2,0,1,0,0,19,test,1,1,z,Tue Nov 11 2025 18:54:26 GMT-0600 (Central Standard Time),585222.6000000238,I,z,1111,29,,107.bmp,-120,-120,108.bmp,120,-120,109.bmp,-120,120,110.bmp,120,120,9160.899999976158,576061.7000000477,8053,yes,SM,A,108.bmp,120,-120,280008,273980,282024,275992,576448.0,570420.0,578464.0,572433.0,29
3,0,0,1,0,20,test,1,1,z,Tue Nov 11 2025 18:54:26 GMT-0600 (Central Standard Time),594603.1000000238,I,z,1322,30,,111.bmp,-120,-120,112.bmp,120,-120,113.bmp,-120,120,114.bmp,120,120,9377.100000023842,585226.0,8053,yes,SM,A,113.bmp,-120,120,280008,273980,282024,275992,585612.0,579584.0,587628.0,581597.0,30
1,1,0,0,0,21,test,1,1,z,Tue Nov 11 2025 18:54:26 GMT-0600 (Central Standard Time),603716.8000000119,I,z,1061,31,,115.bmp,-120,-120,116.bmp,120,-120,117.bmp,-120,120,118.bmp,120,120,9109.5,594607.3000000119,8053,yes,SM,A,115.bmp,-120,-120,280008,273980,282024,275992,594992.0,588966.0,597009.0,590977.0,31
2,0,1,0,0,22,test,1,1,m,Tue Nov 11 2025 18:54:26 GMT-0600 (Central Standard Time),613147.1000000238,I,m,1380,32,,119.bmp,-120,-120,120.bmp,120,-120,121.bmp,-120,120,122.bmp,120,120,9427.600000023842,603719.5,8053,no,SM,A,119.bmp,120,-120,280008,273980,282024,275992,604106.0,598078.0,606122.0,600091.0,32
4,0,0,0,1,22,test,1,0,z,Tue Nov 11 2025 18:54:26 GMT-0600 (Central Standard Time),623211.8000000119,I,None,2017,33,,131.bmp,-120,-120,132.bmp,120,-120,133.bmp,-120,120,134.bmp,120,120,10061.599999964237,613150.2000000477,8053,yes,SM,A,134.bmp,120,120,280008,273980,282024,275992,613537.0,607508.0,615553.0,609521.0,33
2,0,1,0,0,23,test,1,1,z,Tue Nov 11 2025 18:54:26 GMT-0600 (Central Standard Time),632574.2000000477,I,z,1302,34,,123.bmp,-120,-120,124.bmp,120,-120,125.bmp,-120,120,126.bmp,120,120,9358.800000011921,623215.4000000358,8053,yes,SM,A,124.bmp,120,-120,280008,273980,282024,275992,623600.0,617574.0,625616.0,619585.0,34
4,0,0,0,1,24,test,1,1,m,Tue Nov 11 2025 18:54:26 GMT-0600 (Central Standard Time),641854.7000000477,I,m,1227,35,,127.bmp,-120,-120,128.bmp,120,-120,129.bmp,-120,120,130.bmp,120,120,9277.400000035763,632577.3000000119,8053,no,SM,A,129.bmp,120,120,280008,273980,282024,275992,632964.0,626935.0,634980.0,628949.0,35
3,0,0,1,0,24,test,1,0,m,Tue Nov 11 2025 18:54:26 GMT-0600 (Central Standard Time),651585.1000000238,I,z,1675,36,,135.bmp,-120,-120,136.bmp,120,-120,137.bmp,-120,120,138.bmp,120,120,9727.5,641857.6000000238,8053,no,SM,A,135.bmp,-120,120,280008,273980,282024,275992,642244.0,636216.0,644260.0,638229.0,36
1,1,0,0,0,25,test,1,1,m,Tue Nov 11 2025 18:54:26 GMT-0600 (Central Standard Time),660732.3000000119,I,m,1095,37,,139.bmp,-120,-120,140.bmp,120,-120,141.bmp,-120,120,142.bmp,120,120,9143.800000011921,651588.5,8053,no,SM,A,140.bmp,-120,-120,280008,273980,282024,275992,651974.0,645947.0,653991.0,647959.0,37
2,0,1,0,0,26,test,1,1,m,Tue Nov 11 2025 18:54:26 GMT-0600 (Central Standard Time),670096.0,I,m,1300,38,,143.bmp,-120,-120,144.bmp,120,-120,145.bmp,-120,120,146.bmp,120,120,9360.699999988079,660735.3000000119,8053,no,SM,A,145.bmp,120,-120,280008,273980,282024,275992,661122.0,655094.0,663138.0,657106.0,38
4,0,0,0,1,27,test,1,1,z,Tue Nov 11 2025 18:54:26 GMT-0600 (Central Standard Time),679592.9000000358,I,z,1440,39,,147.bmp,-120,-120,148.bmp,120,-120,149.bmp,-120,120,150.bmp,120,120,9493.699999988079,670099.2000000477,8053,yes,SM,A,150.bmp,120,120,280008,273980,282024,275992,670486.0,664457.0,672502.0,666470.0,39
3,0,0,1,0,28,test,1,1,m,Tue Nov 11 2025 18:54:26 GMT-0600 (Central Standard Time),689190.0,I,m,1543,40,,104.bmp,-120,-120,105.bmp,120,-120,106.bmp,-120,120,107.bmp,120,120,9593.299999952316,679596.7000000477,8053,no,SM,A,105.bmp,-120,120,280008,273980,282024,275992,679983.0,673955.0,681999.0,675967.0,40
1,1,0,0,0,29,test,1,1,z,Tue Nov 11 2025 18:54:26 GMT-0600 (Central Standard Time),697904.1000000238,I,z,650,41,,108.bmp,-120,-120,109.bmp,120,-120,110.bmp,-120,120,111.bmp,120,120,8711.100000023842,689193.0,8053,yes,SM,A,108.bmp,-120,-120,280008,273980,282024,275992,689580.0,683551.0,691596.0,685564.0,41
4,0,0,0,1,30,test,1,1,z,Tue Nov 11 2025 18:54:26 GMT-0600 (Central Standard Time),707267.6000000238,I,z,1313,42,,112.bmp,-120,-120,113.bmp,120,-120,114.bmp,-120,120,115.bmp,120,120,9359.699999988079,697907.9000000358,8053,yes,SM,A,115.bmp,120,120,280008,273980,282024,275992,698294.0,692266.0,700310.0,694278.0,42
1,1,0,0,0,31,test,1,1,z,Tue Nov 11 2025 18:54:26 GMT-0600 (Central Standard Time),716048.3000000119,I,z,733,43,,116.bmp,-120,-120,117.bmp,120,-120,118.bmp,-120,120,119.bmp,120,120,8777.800000011921,707270.5,8053,yes,SM,A,116.bmp,-120,-120,280008,273980,282024,275992,707657.0,701629.0,709673.0,703642.0,43
4,0,0,0,1,31,test,1,0,m,Tue Nov 11 2025 18:54:26 GMT-0600 (Central Standard Time),725145.4000000358,I,z,1040,44,,104.bmp,-120,-120,101.bmp,120,-120,102.bmp,-120,120,103.bmp,120,120,9093.400000035763,716052.0,8053,no,SM,A,104.bmp,120,120,280008,273980,282024,275992,716438.0,710410.0,718454.0,712422.0,44
1,1,0,0,0,32,test,1,1,m,Tue Nov 11 2025 18:54:26 GMT-0600 (Central Standard Time),734342.6000000238,I,m,1135,45,,128.bmp,-120,-120,129.bmp,120,-120,130.bmp,-120,120,131.bmp,120,120,9194.5,725148.1000000238,8053,no,SM,A,131.bmp,-120,-120,280008,273980,282024,275992,725535.0,719506.0,727551.0,721520.0,45
1,1,0,0,0,33,test,1,1,m,Tue Nov 11 2025 18:54:26 GMT-0600 (Central Standard Time),743189.5,I,m,795,46,,120.bmp,-120,-120,121.bmp,120,-120,122.bmp,-120,120,123.bmp,120,120,8844.099999964237,734345.4000000358,8053,no,SM,A,121.bmp,-120,-120,280008,273980,282024,275992,734732.0,728704.0,736748.0,730718.0,46
3,0,0,1,0,34,test,1,1,z,Tue Nov 11 2025 18:54:26 GMT-0600 (Central Standard Time),752386.8000000119,I,z,1148,47,,124.bmp,-120,-120,125.bmp,120,-120,126.bmp,-120,120,127.bmp,120,120,9194.300000011921,743192.5,8053,yes,SM,A,126.bmp,-120,120,280008,273980,282024,275992,743579.0,737551.0,745595.0,739564.0,47
3,0,0,1,0,35,test,1,1,z,Tue Nov 11 2025 18:54:26 GMT-0600 (Central Standard Time),761500.5,I,z,1061,48,,140.bmp,-120,-120,141.bmp,120,-120,142.bmp,-120,120,143.bmp,120,120,9111.099999964237,752389.4000000358,8053,yes,SM,A,142.bmp,-120,120,280008,273980,282024,275992,752776.0,746748.0,754793.0,748761.0,48
2,0,1,0,0,36,test,1,1,z,Tue Nov 11 2025 18:54:26 GMT-0600 (Central Standard Time),770714.5,I,z,1164,49,,136.bmp,-120,-120,137.bmp,120,-120,138.bmp,-120,120,139.bmp,120,120,9211.299999952316,761503.2000000477,8053,yes,SM,A,137.bmp,120,-120,280008,273980,282024,275992,761890.0,755862.0,763906.0,757875.0,49
3,0,0,1,0,36,test,1,0,m,Tue Nov 11 2025 18:54:26 GMT-0600 (Central Standard Time),780344.9000000358,I,z,1574,50,,132.bmp,-120,-120,133.bmp,120,-120,134.bmp,-120,120,135.bmp,120,120,9627.699999988079,770717.2000000477,8053,no,SM,A,132.bmp,-120,120,280008,273980,282024,275992,771104.0,765075.0,773120.0,767089.0,50
2,0,1,0,0,37,test,1,1,z,Tue Nov 11 2025 18:54:26 GMT-0600 (Central Standard Time),789791.8000000119,I,z,1392,51,,144.bmp,-120,-120,145.bmp,120,-120,146.bmp,-120,120,147.bmp,120,120,9443.399999976158,780348.4000000358,8053,yes,SM,A,145.bmp,120,-120,280008,273980,282024,275992,780734.0,774707.0,782750.0,776719.0,51
4,0,0,0,1,38,test,1,1,m,Tue Nov 11 2025 18:54:26 GMT-0600 (Central Standard Time),799655.3000000119,I,m,1825,52,,148.bmp,-120,-120,149.bmp,120,-120,150.bmp,-120,120,131.bmp,120,120,9860.5,789794.8000000119,8053,no,SM,A,148.bmp,120,120,280008,273980,282024,275992,790181.0,784153.0,792182.0,786166.0,52
3,0,0,1,0,39,test,1,1,z,Tue Nov 11 2025 18:54:26 GMT-0600 (Central Standard Time),808919.1000000238,I,z,1209,53,,101.bmp,-120,-120,102.bmp,120,-120,103.bmp,-120,120,104.bmp,120,120,9260.800000011921,799658.3000000119,8053,yes,SM,A,103.bmp,-120,120,280008,273980,282024,275992,800045.0,794017.0,802061.0,796030.0,53
1,1,0,0,0,39,test,1,0,m,Tue Nov 11 2025 18:54:26 GMT-0600 (Central Standard Time),818499.3000000119,I,z,1530,54,,105.bmp,-120,-120,106.bmp,120,-120,107.bmp,-120,120,108.bmp,120,120,9577.0,808922.3000000119,8053,no,SM,A,107.bmp,-120,-120,280008,273980,282024,275992,809309.0,803280.0,811325.0,805294.0,54
4,0,0,0,1,39,test,1,0,z,Tue Nov 11 2025 18:54:26 GMT-0600 (Central Standard Time),828563.0,I,None,2016,55,,109.bmp,-120,-120,110.bmp,120,-120,111.bmp,-120,120,112.bmp,120,120,10060.299999952316,818502.7000000477,8053,yes,SM,A,112.bmp,120,120,280008,273980,282024,275992,818889.0,812861.0,820905.0,814874.0,55
2,0,1,0,0,39,test,1,0,m,Tue Nov 11 2025 18:54:26 GMT-0600 (Central Standard Time),838176.9000000358,I,z,1550,56,,113.bmp,-120,-120,114.bmp,120,-120,115.bmp,-120,120,116.bmp,120,120,9610.699999988079,828566.2000000477,8053,no,SM,A,113.bmp,120,-120,280008,273980,282024,275992,828953.0,822924.0,830969.0,824937.0,56
4,0,0,0,1,40,test,1,1,m,Tue Nov 11 2025 18:54:26 GMT-0600 (Central Standard Time),847323.7000000477,I,m,1097,57,,117.bmp,-120,-120,118.bmp,120,-120,119.bmp,-120,120,120.bmp,120,120,9143.800000011921,838179.9000000358,8053,no,SM,A,118.bmp,120,120,280008,273980,282024,275992,838566.0,832538.0,840582.0,834551.0,57
3,0,0,1,0,41,test,1,1,z,Tue Nov 11 2025 18:54:26 GMT-0600 (Central Standard Time),856670.8000000119,I,z,1285,58,,121.bmp,-120,-120,122.bmp,120,-120,123.bmp,-120,120,124.bmp,120,120,9344.5,847326.3000000119,8053,yes,SM,A,123.bmp,-120,120,280008,273980,282024,275992,847713.0,841684.0,849729.0,843698.0,58
2,0,1,0,0,42,test,1,1,m,Tue Nov 11 2025 18:54:26 GMT-0600 (Central Standard Time),866317.8000000119,I,m,1586,59,,125.bmp,-120,-120,126.bmp,120,-120,127.bmp,-120,120,128.bmp,120,120,9644.0,856673.8000000119,8053,no,SM,A,128.bmp,120,-120,280008,273980,282024,275992,857060.0,851032.0,859077.0,853046.0,59
1,1,0,0,0,43,test,1,1,z,Tue Nov 11 2025 18:54:26 GMT-0600 (Central Standard Time),875358.4000000358,I,z,992,60,,129.bmp,-120,-120,130.bmp,120,-120,131.bmp,-120,120,132.bmp,120,120,9037.5,866320.9000000358,8053,yes,SM,A,129.bmp,-120,-120,280008,273980,282024,275992,866708.0,860679.0,868724.0,862693.0,60
2,0,1,0,0,44,test,1,1,z,Tue Nov 11 2025 18:54:26 GMT-0600 (Central Standard Time),884812.1000000238,I,z,1412,61,,133.bmp,-120,-120,134.bmp,120,-120,135.bmp,-120,120,136.bmp,120,120,9450.600000023842,875361.5,8053,yes,SM,A,134.bmp,120,-120,280008,273980,282024,275992,875738.0,869720.0,877754.0,871723.0,61
4,0,0,0,1,45,test,1,1,z,Tue Nov 11 2025 18:54:26 GMT-0600 (Central Standard Time),894242.5,I,z,1373,62,,141.bmp,-120,-120,142.bmp,120,-120,143.bmp,-120,120,144.bmp,120,120,9427.699999988079,884814.8000000119,8053,yes,SM,A,144.bmp,120,120,280008,273980,282024,275992,885202.0,879173.0,887218.0,881187.0,62
1,1,0,0,0,45,test,1,0,m,Tue Nov 11 2025 18:54:26 GMT-0600 (Central Standard Time),903239.7000000477,I,z,943,63,,145.bmp,-120,-120,146.bmp,120,-120,147.bmp,-120,120,148.bmp,120,120,8994.100000023842,894245.6000000238,8053,no,SM,A,145.bmp,-120,120,280008,273980,282024,275992,894632.0,888604.0,896648.0,890617.0,63
2,0,1,0,0,46,test,1,1,z,Tue Nov 11 2025 18:54:26 GMT-0600 (Central Standard Time),912470.1000000238,I,z,1169,64,,149.bmp,-120,-120,150.bmp,120,-120,112.bmp,-120,120,101.bmp,120,120,9227.600000023842,903242.5,8053,yes,SM,A,150.bmp,120,-120,280008,273980,282024,275992,903629.0,897601.0,905645.0,899614.0,64
4,0,0,0,1,47,test,1,1,m,Tue Nov 11 2025 18:54:26 GMT-0600 (Central Standard Time),921818.2000000477,I,m,1298,65,,102.bmp,-120,-120,103.bmp,120,-120,104.bmp,-120,120,105.bmp,120,120,9345.200000047684,912473.0,8053,no,SM,A,104.bmp,120,120,280008,273980,282024,275992,912860.0,906831.0,914876.0,908844.0,65
3,0,0,1,0,48,test,1,1,m,Tue Nov 11 2025 18:54:26 GMT-0600 (Central Standard Time),930880.8000000119,I,m,1000,66,,106.bmp,-120,-120,107.bmp,120,-120,108.bmp,-120,120,109.bmp,120,120,9059.300000011921,921821.5,8053,no,SM,A,109.bmp,-120,120,280008,273980,282024,275992,922207.0,916180.0,924223.0,918192.0,66
2,0,1,0,0,49,test,1,1,m,Tue Nov 11 2025 18:54:26 GMT-0600 (Central Standard Time),940211.5,I,m,1271,67,,137.bmp,-120,-120,138.bmp,120,-120,139.bmp,-120,120,140.bmp,120,120,9325.899999976158,930885.6000000238,8053,no,SM,A,139.bmp,120,-120,280008,273980,282024,275992,931271.0,925244.0,933286.0,927255.0,67
3,0,0,1,0,50,test,1,1,z,Tue Nov 11 2025 18:54:26 GMT-0600 (Central Standard Time),950208.2000000477,I,z,1948,68,,110.bmp,-120,-120,111.bmp,120,-120,112.bmp,-120,120,113.bmp,120,120,9993.0,940215.2000000477,8053,yes,SM,A,112.bmp,-120,120,280008,273980,282024,275992,940601.0,934573.0,942618.0,936586.0,68
1,1,0,0,0,51,test,1,1,m,Tue Nov 11 2025 18:54:26 GMT-0600 (Central Standard Time),959172.1000000238,I,m,913,69,,114.bmp,-120,-120,115.bmp,120,-120,116.bmp,-120,120,117.bmp,120,120,8961.0,950211.1000000238,8053,no,SM,A,115.bmp,-120,-120,280008,273980,282024,275992,950598.0,944569.0,952614.0,946583.0,69
2,0,1,0,0,51,test,1,0,m,Tue Nov 11 2025 18:54:26 GMT-0600 (Central Standard Time),969235.5,I,None,2016,70,,118.bmp,-120,-120,119.bmp,120,-120,120.bmp,-120,120,121.bmp,120,120,10060.599999964237,959174.9000000358,8053,no,SM,A,120.bmp,120,-120,280008,273980,282024,275992,959562.0,953533.0,961578.0,955546.0,70
4,0,0,0,1,51,test,1,0,z,Tue Nov 11 2025 18:54:26 GMT-0600 (Central Standard Time),979299.3000000119,I,None,2016,71,,122.bmp,-120,-120,123.bmp,120,-120,124.bmp,-120,120,125.bmp,120,120,10060.5,969238.8000000119,8053,yes,SM,A,125.bmp,120,120,280008,273980,282024,275992,969625.0,963597.0,971641.0,965610.0,71
1,1,0,0,0,52,test,1,1,z,Tue Nov 11 2025 18:54:26 GMT-0600 (Central Standard Time),988363.0,I,z,1005,72,,126.bmp,-120,-120,127.bmp,120,-120,128.bmp,-120,120,129.bmp,120,120,9060.699999988079,979302.3000000119,8053,yes,SM,A,126.bmp,-120,-120,280008,273980,282024,275992,979689.0,973661.0,981705.0,975674.0,72
2,0,1,0,0,53,test,1,1,z,Tue Nov 11 2025 18:54:26 GMT-0600 (Central Standard Time),998259.9000000358,I,z,1837,73,,130.bmp,-120,-120,131.bmp,120,-120,132.bmp,-120,120,133.bmp,120,120,9894.199999988079,988365.7000000477,8053,yes,SM,A,131.bmp,120,-120,280008,273980,282024,275992,988752.0,982724.0,990769.0,984737.0,73
4,0,0,0,1,54,test,1,1,m,Tue Nov 11 2025 18:54:26 GMT-0600 (Central Standard Time),1007773.7000000477,I,m,1461,74,,134.bmp,-120,-120,135.bmp,120,-120,136.bmp,-120,120,137.bmp,120,120,9510.300000011921,998263.4000000358,8053,no,SM,A,136.bmp,120,120,280008,273980,282024,275992,998649.0,992622.0,1000666.0,994634.0,74
2,0,1,0,0,55,test,1,1,m,Tue Nov 11 2025 18:54:26 GMT-0600 (Central Standard Time),1017070.6000000238,I,m,1235,75,,138.bmp,-120,-120,139.bmp,120,-120,140.bmp,-120,120,141.bmp,120,120,9292.600000023842,1007778.0,8053,no,SM,A,141.bmp,120,-120,280008,273980,282024,275992,1008164.0,1002136.0,1010179.0,1004148.0,75
1,1,0,0,0,56,test,1,1,z,Tue Nov 11 2025 18:54:26 GMT-0600 (Central Standard Time),1025934.7000000477,I,z,811,76,,142.bmp,-120,-120,143.bmp,120,-120,144.bmp,-120,120,145.bmp,120,120,8860.900000035763,1017073.8000000119,8053,yes,SM,A,142.bmp,-120,-120,280008,273980,282024,275992,1017460.0,1011432.0,1019476.0,1013445.0,76
3,0,0,1,0,57,test,1,1,z,Tue Nov 11 2025 18:54:26 GMT-0600 (Central Standard Time),1034882.7000000477,I,z,898,77,,150.bmp,-120,-120,111.bmp,120,-120,101.bmp,-120,120,102.bmp,120,120,8944.900000035763,1025937.8000000119,8053,yes,SM,A,101.bmp,-120,120,280008,273980,282024,275992,1026324.0,1020296.0,1028341.0,1022309.0,77
1,1,0,0,0,58,test,1,1,m,Tue Nov 11 2025 18:54:26 GMT-0600 (Central Standard Time),1044462.1000000238,I,m,1520,78,,146.bmp,-120,-120,147.bmp,120,-120,148.bmp,-120,120,149.bmp,120,120,9576.5,1034885.6000000238,8053,no,SM,A,147.bmp,-120,-120,280008,273980,282024,275992,1035271.0,1029244.0,1037287.0,1031256.0,78
4,0,0,0,1,59,test,1,1,m,Tue Nov 11 2025 18:54:26 GMT-0600 (Central Standard Time),1053659.300000012,I,m,1146,79,,107.bmp,-120,-120,108.bmp,120,-120,109.bmp,-120,120,110.bmp,120,120,9194.5,1044464.8000000119,8053,no,SM,A,107.bmp,120,120,280008,273980,282024,275992,1044852.0,1038823.0,1046868.0,1040837.0,79
3,0,0,1,0,60,test,1,1,m,Tue Nov 11 2025 18:54:26 GMT-0600 (Central Standard Time),1062739.800000012,I,m,1022,80,,103.bmp,-120,-120,104.bmp,120,-120,105.bmp,-120,120,106.bmp,120,120,9077.5,1053662.300000012,8053,no,SM,A,106.bmp,-120,120,280008,273980,282024,275992,1054049.0,1048021.0,1056065.0,1050034.0,80
