block_c,block_dur,condition,countdown,datetime,endtime,list,multichar_response,project,response,response_time,session_number,start_end,starttime,subject_id,task,task_vers,trial
,,,,Tue May 20 2025 12:15:26 GMT-0500 (Central Daylight Time),,,,O,space,220,1,,,7142,WL,C,
prac,,0,,Tue May 20 2025 12:15:26 GMT-0500 (Central Daylight Time),,NA,b,O,b,5048,1,,,7142,WL,C,1.0
prac,,0,,Tue May 20 2025 12:15:26 GMT-0500 (Central Daylight Time),,NA,bo,O,o,842,1,,,7142,WL,C,1.0
prac,,0,,Tue May 20 2025 12:15:26 GMT-0500 (Central Daylight Time),,NA,boo,O,o,148,1,,,7142,WL,C,1.0
prac,,0,,Tue May 20 2025 12:15:26 GMT-0500 (Central Daylight Time),,NA,boos,O,s,60,1,,,7142,WL,C,1.0
prac,,0,,Tue May 20 2025 12:15:26 GMT-0500 (Central Daylight Time),,NA,boost,O,t,183,1,,,7142,WL,C,1.0
prac,,0,,Tue May 20 2025 12:15:26 GMT-0500 (Central Daylight Time),,NA,boostenter,O,enter,862,1,,,7142,WL,C,1.0
1,1.1500000953674316,learn,58849.99990463257,Tue May 20 2025 12:15:26 GMT-0500 (Central Daylight Time),160164.60000002384,A,t,O,t,1127,1,1150.1000000238419,159014.5,7142,WL,C,1.0
1,1.4010000228881836,learn,58598.99997711182,Tue May 20 2025 12:15:26 GMT-0500 (Central Daylight Time),160415.40000003576,A,to,O,o,244,1,1400.9000000357628,159014.5,7142,WL,C,1.0
1,1.565999984741211,learn,58434.00001525879,Tue May 20 2025 12:15:26 GMT-0500 (Central Daylight Time),160579.80000001192,A,tow,O,w,151,1,1565.300000011921,159014.5,7142,WL,C,1.0
1,1.683000087738037,learn,58316.99991226196,Tue May 20 2025 12:15:26 GMT-0500 (Central Daylight Time),160697.40000003576,A,towe,O,e,99,1,1682.9000000357628,159014.5,7142,WL,C,1.0
1,1.817000150680542,learn,58182.99984931946,Tue May 20 2025 12:15:26 GMT-0500 (Central Daylight Time),160831.5,A,tower,O,r,126,1,1817.0,159014.5,7142,WL,C,1.0
1,3.2820000648498535,learn,56717.99993515015,Tue May 20 2025 12:15:26 GMT-0500 (Central Daylight Time),162296.80000001192,A,towerenter,O,enter,1445,1,3282.300000011921,159014.5,7142,WL,C,1.0
1,4.515000104904175,learn,55484.999895095825,Tue May 20 2025 12:15:26 GMT-0500 (Central Daylight Time),163529.80000001192,A,w,O,w,1214,1,1232.5999999642372,162297.20000004768,7142,WL,C,2.0
1,4.699000120162964,learn,55300.999879837036,Tue May 20 2025 12:15:26 GMT-0500 (Central Daylight Time),163712.90000003576,A,wh,O,h,165,1,1415.699999988079,162297.20000004768,7142,WL,C,2.0
1,4.746999979019165,learn,55253.000020980835,Tue May 20 2025 12:15:26 GMT-0500 (Central Daylight Time),163761.20000004768,A,whe,O,e,28,1,1464.0,162297.20000004768,7142,WL,C,2.0
1,4.917999982833862,learn,55082.00001716614,Tue May 20 2025 12:15:26 GMT-0500 (Central Daylight Time),163931.80000001192,A,whea,O,a,159,1,1634.5999999642372,162297.20000004768,7142,WL,C,2.0
1,5.0320000648498535,learn,54967.99993515015,Tue May 20 2025 12:15:26 GMT-0500 (Central Daylight Time),164046.10000002384,A,wheat,O,t,98,1,1748.8999999761581,162297.20000004768,7142,WL,C,2.0
1,5.565000057220459,learn,54434.99994277954,Tue May 20 2025 12:15:26 GMT-0500 (Central Daylight Time),164579.30000001192,A,wheatenter,O,enter,511,1,2282.099999964237,162297.20000004768,7142,WL,C,2.0
1,6.364000082015991,learn,53635.99991798401,Tue May 20 2025 12:15:26 GMT-0500 (Central Daylight Time),165377.90000003576,A,s,O,s,787,1,798.1000000238419,164579.80000001192,7142,WL,C,3.0
1,6.5320000648498535,learn,53467.99993515015,Tue May 20 2025 12:15:26 GMT-0500 (Central Daylight Time),165546.10000002384,A,sh,O,h,149,1,966.3000000119209,164579.80000001192,7142,WL,C,3.0
1,6.765000104904175,learn,53234.999895095825,Tue May 20 2025 12:15:26 GMT-0500 (Central Daylight Time),165779.40000003576,A,shu,O,u,213,1,1199.6000000238419,164579.80000001192,7142,WL,C,3.0
1,7.082000017166138,learn,52917.99998283386,Tue May 20 2025 12:15:26 GMT-0500 (Central Daylight Time),166096.0,A,shug,O,g,307,1,1516.199999988079,164579.80000001192,7142,WL,C,3.0
1,7.246999979019165,learn,52753.000020980835,Tue May 20 2025 12:15:26 GMT-0500 (Central Daylight Time),166261.40000003576,A,shuga,O,a,152,1,1681.6000000238419,164579.80000001192,7142,WL,C,3.0
1,7.3480000495910645,learn,52651.999950408936,Tue May 20 2025 12:15:26 GMT-0500 (Central Daylight Time),166362.0,A,shugar,O,r,84,1,1782.199999988079,164579.80000001192,7142,WL,C,3.0
1,8.216000080108643,learn,51783.99991989136,Tue May 20 2025 12:15:26 GMT-0500 (Central Daylight Time),167230.20000004768,A,shuga,O,backspace,853,1,2650.400000035763,164579.80000001192,7142,WL,C,3.0
1,8.415000200271606,learn,51584.99979972839,Tue May 20 2025 12:15:26 GMT-0500 (Central Daylight Time),167429.30000001192,A,shug,O,backspace,186,1,2849.5,164579.80000001192,7142,WL,C,3.0
1,8.580000162124634,learn,51419.999837875366,Tue May 20 2025 12:15:26 GMT-0500 (Central Daylight Time),167594.40000003576,A,shu,O,backspace,154,1,3014.600000023842,164579.80000001192,7142,WL,C,3.0
1,8.748000144958496,learn,51251.999855041504,Tue May 20 2025 12:15:26 GMT-0500 (Central Daylight Time),167762.10000002384,A,sh,O,backspace,149,1,3182.300000011921,164579.80000001192,7142,WL,C,3.0
1,8.897000074386597,learn,51102.9999256134,Tue May 20 2025 12:15:26 GMT-0500 (Central Daylight Time),167911.70000004768,A,s,O,backspace,134,1,3331.900000035763,164579.80000001192,7142,WL,C,3.0
1,9.581000089645386,learn,50418.999910354614,Tue May 20 2025 12:15:26 GMT-0500 (Central Daylight Time),168595.0,A,su,O,u,672,1,4015.199999988079,164579.80000001192,7142,WL,C,3.0
1,9.830000162124634,learn,50169.999837875366,Tue May 20 2025 12:15:26 GMT-0500 (Central Daylight Time),168844.30000001192,A,sug,O,g,236,1,4264.5,164579.80000001192,7142,WL,C,3.0
1,9.930000066757202,learn,50069.9999332428,Tue May 20 2025 12:15:26 GMT-0500 (Central Daylight Time),168944.10000002384,A,suga,O,a,91,1,4364.300000011921,164579.80000001192,7142,WL,C,3.0
1,10.065000057220459,learn,49934.99994277954,Tue May 20 2025 12:15:26 GMT-0500 (Central Daylight Time),169079.10000002384,A,sugar,O,r,114,1,4499.300000011921,164579.80000001192,7142,WL,C,3.0
1,10.948000192642212,learn,49051.99980735779,Tue May 20 2025 12:15:26 GMT-0500 (Central Daylight Time),169962.40000003576,A,sugarenter,O,enter,872,1,5382.600000023842,164579.80000001192,7142,WL,C,3.0
1,11.94700002670288,learn,48052.99997329712,Tue May 20 2025 12:15:26 GMT-0500 (Central Daylight Time),170961.70000004768,A,h,O,h,989,1,999.0,169962.70000004768,7142,WL,C,4.0
1,12.09600019454956,learn,47903.99980545044,Tue May 20 2025 12:15:26 GMT-0500 (Central Daylight Time),171109.90000003576,A,ho,O,o,134,1,1147.199999988079,169962.70000004768,7142,WL,C,4.0
1,12.531000137329102,learn,47468.9998626709,Tue May 20 2025 12:15:26 GMT-0500 (Central Daylight Time),171545.0,A,hom,O,m,418,1,1582.2999999523163,169962.70000004768,7142,WL,C,4.0
1,12.648000001907349,learn,47351.99999809265,Tue May 20 2025 12:15:26 GMT-0500 (Central Daylight Time),171662.30000001192,A,home,O,e,111,1,1699.5999999642372,169962.70000004768,7142,WL,C,4.0
1,13.01200008392334,learn,46987.99991607666,Tue May 20 2025 12:15:26 GMT-0500 (Central Daylight Time),172026.0,A,homeenter,O,enter,346,1,2063.2999999523163,169962.70000004768,7142,WL,C,4.0
1,13.713000059127808,learn,46286.99994087219,Tue May 20 2025 12:15:26 GMT-0500 (Central Daylight Time),172727.10000002384,A,b,O,b,685,1,700.8000000119209,172026.30000001192,7142,WL,C,5.0
1,13.880000114440918,learn,46119.99988555908,Tue May 20 2025 12:15:26 GMT-0500 (Central Daylight Time),172894.40000003576,A,bo,O,o,158,1,868.1000000238419,172026.30000001192,7142,WL,C,5.0
1,14.162000179290771,learn,45837.99982070923,Tue May 20 2025 12:15:26 GMT-0500 (Central Daylight Time),173176.20000004768,A,boy,O,y,267,1,1149.9000000357628,172026.30000001192,7142,WL,C,5.0
1,14.52999997138977,learn,45470.00002861023,Tue May 20 2025 12:15:26 GMT-0500 (Central Daylight Time),173544.0,A,boyenter,O,enter,359,1,1517.699999988079,172026.30000001192,7142,WL,C,5.0
1,15.144999980926514,learn,44855.000019073486,Tue May 20 2025 12:15:26 GMT-0500 (Central Daylight Time),174159.5,A,q,O,q,593,1,615.2999999523163,173544.20000004768,7142,WL,C,6.0
1,15.313000202178955,learn,44686.999797821045,Tue May 20 2025 12:15:26 GMT-0500 (Central Daylight Time),174327.60000002384,A,qu,O,u,162,1,783.3999999761581,173544.20000004768,7142,WL,C,6.0
1,15.496000051498413,learn,44503.99994850159,Tue May 20 2025 12:15:26 GMT-0500 (Central Daylight Time),174510.20000004768,A,que,O,e,177,1,966.0,173544.20000004768,7142,WL,C,6.0
1,15.67900013923645,learn,44320.99986076355,Tue May 20 2025 12:15:26 GMT-0500 (Central Daylight Time),174693.5,A,quee,O,e,162,1,1149.2999999523163,173544.20000004768,7142,WL,C,6.0
1,15.828999996185303,learn,44171.0000038147,Tue May 20 2025 12:15:26 GMT-0500 (Central Daylight Time),174843.0,A,queen,O,n,129,1,1298.7999999523163,173544.20000004768,7142,WL,C,6.0
1,16.17799997329712,learn,43822.00002670288,Tue May 20 2025 12:15:26 GMT-0500 (Central Daylight Time),175192.5,A,queenenter,O,enter,331,1,1648.2999999523163,173544.20000004768,7142,WL,C,6.0
1,20.761000156402588,learn,39238.99984359741,Tue May 20 2025 12:15:26 GMT-0500 (Central Daylight Time),179775.60000002384,A,h,O,h,4577,1,4582.699999988079,175192.90000003576,7142,WL,C,7.0
1,20.89400005340576,learn,39105.99994659424,Tue May 20 2025 12:15:26 GMT-0500 (Central Daylight Time),179909.10000002384,A,ho,O,o,110,1,4716.199999988079,175192.90000003576,7142,WL,C,7.0
1,21.127000093460083,learn,38872.99990653992,Tue May 20 2025 12:15:26 GMT-0500 (Central Daylight Time),180141.5,A,hom,O,m,219,1,4948.599999964237,175192.90000003576,7142,WL,C,7.0
1,21.2260000705719,learn,38773.9999294281,Tue May 20 2025 12:15:26 GMT-0500 (Central Daylight Time),180240.5,A,home,O,e,89,1,5047.599999964237,175192.90000003576,7142,WL,C,7.0
1,21.64300012588501,learn,38356.99987411499,Tue May 20 2025 12:15:26 GMT-0500 (Central Daylight Time),180657.90000003576,A,homeenter,O,enter,406,1,5465.0,175192.90000003576,7142,WL,C,7.0
1,25.37600016593933,learn,34623.99983406067,Tue May 20 2025 12:15:26 GMT-0500 (Central Daylight Time),184391.0,A,s,O,s,3727,1,3732.699999988079,180658.30000001192,7142,WL,C,8.0
1,25.509000062942505,learn,34490.999937057495,Tue May 20 2025 12:15:26 GMT-0500 (Central Daylight Time),184523.70000004768,A,sh,O,h,114,1,3865.400000035763,180658.30000001192,7142,WL,C,8.0
1,25.591000080108643,learn,34408.99991989136,Tue May 20 2025 12:15:26 GMT-0500 (Central Daylight Time),184606.40000003576,A,sho,O,o,65,1,3948.100000023842,180658.30000001192,7142,WL,C,8.0
1,26.359000205993652,learn,33640.99979400635,Tue May 20 2025 12:15:26 GMT-0500 (Central Daylight Time),185374.10000002384,A,shor,O,r,761,1,4715.800000011921,180658.30000001192,7142,WL,C,8.0
1,26.527000188827515,learn,33472.999811172485,Tue May 20 2025 12:15:26 GMT-0500 (Central Daylight Time),185541.70000004768,A,shore,O,e,147,1,4883.400000035763,180658.30000001192,7142,WL,C,8.0
1,26.95800018310547,learn,33041.99981689453,Tue May 20 2025 12:15:26 GMT-0500 (Central Daylight Time),185972.60000002384,A,shoreenter,O,enter,418,1,5314.300000011921,180658.30000001192,7142,WL,C,8.0
1,29.392000198364258,learn,30607.999801635742,Tue May 20 2025 12:15:26 GMT-0500 (Central Daylight Time),188406.40000003576,A,n,O,n,2428,1,2433.600000023842,185972.80000001192,7142,WL,C,9.0
1,29.540000200271606,learn,30459.999799728394,Tue May 20 2025 12:15:26 GMT-0500 (Central Daylight Time),188555.20000004768,A,na,O,a,129,1,2582.400000035763,185972.80000001192,7142,WL,C,9.0
1,29.808000087738037,learn,30191.999912261963,Tue May 20 2025 12:15:26 GMT-0500 (Central Daylight Time),188822.5,A,nai,O,i,260,1,2849.699999988079,185972.80000001192,7142,WL,C,9.0
1,30.00600004196167,learn,29993.99995803833,Tue May 20 2025 12:15:26 GMT-0500 (Central Daylight Time),189020.80000001192,A,nail,O,l,183,1,3048.0,185972.80000001192,7142,WL,C,9.0
1,30.640000104904175,learn,29359.999895095825,Tue May 20 2025 12:15:26 GMT-0500 (Central Daylight Time),189654.70000004768,A,nailenter,O,enter,616,1,3681.900000035763,185972.80000001192,7142,WL,C,9.0
1,36.40499997138977,learn,23595.00002861023,Tue May 20 2025 12:15:26 GMT-0500 (Central Daylight Time),195420.10000002384,A,enter,O,enter,5747,1,5765.0,189655.10000002384,7142,WL,C,10.0
1,37.30800008773804,learn,22691.999912261963,Tue May 20 2025 12:15:26 GMT-0500 (Central Daylight Time),196322.90000003576,A,enter,O,enter,892,1,902.4000000357628,195420.5,7142,WL,C,11.0
1,37.98699998855591,learn,22013.00001144409,Tue May 20 2025 12:15:26 GMT-0500 (Central Daylight Time),197001.5,A,enter,O,enter,670,1,678.0999999642372,196323.40000003576,7142,WL,C,12.0
1,38.40499997138977,learn,21595.00002861023,Tue May 20 2025 12:15:26 GMT-0500 (Central Daylight Time),197419.40000003576,A,enter,O,enter,406,1,417.60000002384186,197001.80000001192,7142,WL,C,13.0
1,38.837000131607056,learn,21162.999868392944,Tue May 20 2025 12:15:26 GMT-0500 (Central Daylight Time),197851.5,A,enter,O,enter,421,1,431.89999997615814,197419.60000002384,7142,WL,C,14.0
1,39.4539999961853,learn,20546.000003814697,Tue May 20 2025 12:15:26 GMT-0500 (Central Daylight Time),198468.80000001192,A,enter,O,enter,604,1,617.0,197851.80000001192,7142,WL,C,15.0
2,2.4509999752044678,learn,57549.00002479553,Tue May 20 2025 12:15:26 GMT-0500 (Central Daylight Time),268214.3000000119,A,t,O,t,2447,1,2450.5,265763.8000000119,7142,WL,C,1.0
2,2.684000015258789,learn,57315.99998474121,Tue May 20 2025 12:15:26 GMT-0500 (Central Daylight Time),268447.8000000119,A,to,O,o,228,1,2684.0,265763.8000000119,7142,WL,C,1.0
2,2.8339998722076416,learn,57166.00012779236,Tue May 20 2025 12:15:26 GMT-0500 (Central Daylight Time),268597.10000002384,A,tow,O,w,127,1,2833.300000011921,265763.8000000119,7142,WL,C,1.0
2,3.000999927520752,learn,56999.00007247925,Tue May 20 2025 12:15:26 GMT-0500 (Central Daylight Time),268764.0,A,towe,O,e,153,1,3000.199999988079,265763.8000000119,7142,WL,C,1.0
2,3.0820000171661377,learn,56917.99998283386,Tue May 20 2025 12:15:26 GMT-0500 (Central Daylight Time),268845.40000003576,A,tower,O,r,76,1,3081.600000023842,265763.8000000119,7142,WL,C,1.0
2,4.615000009536743,learn,55384.99999046326,Tue May 20 2025 12:15:26 GMT-0500 (Central Daylight Time),270377.90000003576,A,towerenter,O,enter,1514,1,4614.100000023842,265763.8000000119,7142,WL,C,1.0
2,4.8999998569488525,learn,55100.00014305115,Tue May 20 2025 12:15:26 GMT-0500 (Central Daylight Time),270663.0,A,w,O,w,280,1,284.7999999523163,270378.2000000477,7142,WL,C,2.0
2,5.098999977111816,learn,54901.00002288818,Tue May 20 2025 12:15:26 GMT-0500 (Central Daylight Time),270861.90000003576,A,wh,O,h,184,1,483.69999998807907,270378.2000000477,7142,WL,C,2.0
2,5.164000034332275,learn,54835.999965667725,Tue May 20 2025 12:15:26 GMT-0500 (Central Daylight Time),270927.3000000119,A,whe,O,e,50,1,549.0999999642372,270378.2000000477,7142,WL,C,2.0
2,5.315999984741211,learn,54684.00001525879,Tue May 20 2025 12:15:26 GMT-0500 (Central Daylight Time),271079.5,A,whea,O,a,146,1,701.2999999523163,270378.2000000477,7142,WL,C,2.0
2,6.014999866485596,learn,53985.000133514404,Tue May 20 2025 12:15:26 GMT-0500 (Central Daylight Time),271778.5,A,wheat,O,t,679,1,1400.2999999523163,270378.2000000477,7142,WL,C,2.0
2,6.315999984741211,learn,53684.00001525879,Tue May 20 2025 12:15:26 GMT-0500 (Central Daylight Time),272079.2000000477,A,wheatenter,O,enter,294,1,1701.0,270378.2000000477,7142,WL,C,2.0
2,7.398000001907349,learn,52601.99999809265,Tue May 20 2025 12:15:26 GMT-0500 (Central Daylight Time),273161.60000002384,A,q,O,q,1065,1,1082.199999988079,272079.40000003576,7142,WL,C,3.0
2,7.580999851226807,learn,52419.00014877319,Tue May 20 2025 12:15:26 GMT-0500 (Central Daylight Time),273344.3000000119,A,qu,O,u,165,1,1264.8999999761581,272079.40000003576,7142,WL,C,3.0
2,7.73199987411499,learn,52268.00012588501,Tue May 20 2025 12:15:26 GMT-0500 (Central Daylight Time),273494.8000000119,A,que,O,e,136,1,1415.3999999761581,272079.40000003576,7142,WL,C,3.0
2,7.882999897003174,learn,52117.000102996826,Tue May 20 2025 12:15:26 GMT-0500 (Central Daylight Time),273646.60000002384,A,quee,O,e,145,1,1567.199999988079,272079.40000003576,7142,WL,C,3.0
2,8.014999866485596,learn,51985.000133514404,Tue May 20 2025 12:15:26 GMT-0500 (Central Daylight Time),273778.5,A,queen,O,n,120,1,1699.0999999642372,272079.40000003576,7142,WL,C,3.0
2,8.514999866485596,learn,51485.000133514404,Tue May 20 2025 12:15:26 GMT-0500 (Central Daylight Time),274278.2000000477,A,queenenter,O,enter,481,1,2198.800000011921,272079.40000003576,7142,WL,C,3.0
2,9.065000057220459,learn,50934.99994277954,Tue May 20 2025 12:15:26 GMT-0500 (Central Daylight Time),274828.5,A,s,O,s,537,1,550.0999999642372,274278.40000003576,7142,WL,C,4.0
2,9.480000019073486,learn,50519.999980926514,Tue May 20 2025 12:15:26 GMT-0500 (Central Daylight Time),275243.7000000477,A,su,O,u,394,1,965.3000000119209,274278.40000003576,7142,WL,C,4.0
2,9.700000047683716,learn,50299.999952316284,Tue May 20 2025 12:15:26 GMT-0500 (Central Daylight Time),275463.0,A,sug,O,g,211,1,1184.5999999642372,274278.40000003576,7142,WL,C,4.0
2,9.846999883651733,learn,50153.00011634827,Tue May 20 2025 12:15:26 GMT-0500 (Central Daylight Time),275610.2000000477,A,suga,O,a,127,1,1331.800000011921,274278.40000003576,7142,WL,C,4.0
2,9.96399998664856,learn,50036.00001335144,Tue May 20 2025 12:15:26 GMT-0500 (Central Daylight Time),275727.7000000477,A,sugar,O,r,100,1,1449.300000011921,274278.40000003576,7142,WL,C,4.0
2,10.21399998664856,learn,49786.00001335144,Tue May 20 2025 12:15:26 GMT-0500 (Central Daylight Time),275977.60000002384,A,sugarenter,O,enter,237,1,1699.199999988079,274278.40000003576,7142,WL,C,4.0
2,11.228999853134155,learn,48771.000146865845,Tue May 20 2025 12:15:26 GMT-0500 (Central Daylight Time),276992.8000000119,A,h,O,h,1006,1,1014.8999999761581,275977.90000003576,7142,WL,C,5.0
2,11.346999883651733,learn,48653.00011634827,Tue May 20 2025 12:15:26 GMT-0500 (Central Daylight Time),277110.8000000119,A,ho,O,o,111,1,1132.8999999761581,275977.90000003576,7142,WL,C,5.0
2,11.613999843597412,learn,48386.00015640259,Tue May 20 2025 12:15:26 GMT-0500 (Central Daylight Time),277376.8000000119,A,hom,O,m,253,1,1398.8999999761581,275977.90000003576,7142,WL,C,5.0
2,11.730999946594238,learn,48269.00005340576,Tue May 20 2025 12:15:26 GMT-0500 (Central Daylight Time),277493.8000000119,A,home,O,e,103,1,1515.8999999761581,275977.90000003576,7142,WL,C,5.0
2,12.062999963760376,learn,47937.000036239624,Tue May 20 2025 12:15:26 GMT-0500 (Central Daylight Time),277826.0,A,homeenter,O,enter,319,1,1848.0999999642372,275977.90000003576,7142,WL,C,5.0
2,12.513000011444092,learn,47486.99998855591,Tue May 20 2025 12:15:26 GMT-0500 (Central Daylight Time),278276.60000002384,A,b,O,b,439,1,450.30000001192093,277826.3000000119,7142,WL,C,6.0
2,12.678999900817871,learn,47321.00009918213,Tue May 20 2025 12:15:26 GMT-0500 (Central Daylight Time),278442.10000002384,A,bo,O,o,154,1,615.8000000119209,277826.3000000119,7142,WL,C,6.0
2,13.04699993133545,learn,46953.00006866455,Tue May 20 2025 12:15:26 GMT-0500 (Central Daylight Time),278810.0,A,boy,O,y,357,1,983.6999999880791,277826.3000000119,7142,WL,C,6.0
2,13.978999853134155,learn,46021.000146865845,Tue May 20 2025 12:15:26 GMT-0500 (Central Daylight Time),279742.40000003576,A,boyenter,O,enter,916,1,1916.1000000238419,277826.3000000119,7142,WL,C,6.0
2,15.062999963760376,learn,44937.000036239624,Tue May 20 2025 12:15:26 GMT-0500 (Central Daylight Time),280826.40000003576,A,d,O,d,1065,1,1083.699999988079,279742.7000000477,7142,WL,C,7.0
2,15.210000038146973,learn,44789.99996185303,Tue May 20 2025 12:15:26 GMT-0500 (Central Daylight Time),280973.0,A,do,O,o,133,1,1230.2999999523163,279742.7000000477,7142,WL,C,7.0
2,15.342999935150146,learn,44657.00006484985,Tue May 20 2025 12:15:26 GMT-0500 (Central Daylight Time),281106.5,A,doc,O,c,124,1,1363.7999999523163,279742.7000000477,7142,WL,C,7.0
2,15.577999830245972,learn,44422.00016975403,Tue May 20 2025 12:15:26 GMT-0500 (Central Daylight Time),281340.90000003576,A,doct,O,t,231,1,1598.199999988079,279742.7000000477,7142,WL,C,7.0
2,15.726999998092651,learn,44273.00000190735,Tue May 20 2025 12:15:26 GMT-0500 (Central Daylight Time),281490.2000000477,A,docto,O,o,132,1,1747.5,279742.7000000477,7142,WL,C,7.0
2,15.776999950408936,learn,44223.000049591064,Tue May 20 2025 12:15:26 GMT-0500 (Central Daylight Time),281540.60000002384,A,doctor,O,r,38,1,1797.8999999761581,279742.7000000477,7142,WL,C,7.0
2,16.47599983215332,learn,43524.00016784668,Tue May 20 2025 12:15:26 GMT-0500 (Central Daylight Time),282239.7000000477,A,doctorenter,O,enter,692,1,2497.0,279742.7000000477,7142,WL,C,7.0
2,17.09500002861023,learn,42904.99997138977,Tue May 20 2025 12:15:26 GMT-0500 (Central Daylight Time),282858.10000002384,A,c,O,c,610,1,618.1000000238419,282240.0,7142,WL,C,8.0
2,17.27900004386902,learn,42720.99995613098,Tue May 20 2025 12:15:26 GMT-0500 (Central Daylight Time),283041.90000003576,A,ca,O,a,166,1,801.9000000357628,282240.0,7142,WL,C,8.0
2,17.49399995803833,learn,42506.00004196167,Tue May 20 2025 12:15:26 GMT-0500 (Central Daylight Time),283257.60000002384,A,cam,O,m,206,1,1017.6000000238419,282240.0,7142,WL,C,8.0
2,18.67799997329712,learn,41322.00002670288,Tue May 20 2025 12:15:26 GMT-0500 (Central Daylight Time),284441.2000000477,A,camp,O,p,1165,1,2201.2000000476837,282240.0,7142,WL,C,8.0
2,19.842000007629395,learn,40157.999992370605,Tue May 20 2025 12:15:26 GMT-0500 (Central Daylight Time),285605.3000000119,A,campenter,O,enter,1158,1,3365.300000011921,282240.0,7142,WL,C,8.0
2,20.325999975204468,learn,39674.00002479553,Tue May 20 2025 12:15:26 GMT-0500 (Central Daylight Time),286089.40000003576,A,s,O,s,467,1,483.9000000357628,285605.5,7142,WL,C,9.0
2,20.47599983215332,learn,39524.00016784668,Tue May 20 2025 12:15:26 GMT-0500 (Central Daylight Time),286239.7000000477,A,sh,O,h,144,1,634.2000000476837,285605.5,7142,WL,C,9.0
2,20.608999967575073,learn,39391.00003242493,Tue May 20 2025 12:15:26 GMT-0500 (Central Daylight Time),286372.5,A,sho,O,o,110,1,767.0,285605.5,7142,WL,C,9.0
2,20.79200005531311,learn,39207.99994468689,Tue May 20 2025 12:15:26 GMT-0500 (Central Daylight Time),286555.8000000119,A,shor,O,r,161,1,950.3000000119209,285605.5,7142,WL,C,9.0
2,20.95899987220764,learn,39041.00012779236,Tue May 20 2025 12:15:26 GMT-0500 (Central Daylight Time),286722.0,A,shore,O,e,145,1,1116.5,285605.5,7142,WL,C,9.0
2,21.39299988746643,learn,38607.00011253357,Tue May 20 2025 12:15:26 GMT-0500 (Central Daylight Time),287156.10000002384,A,shoreenter,O,enter,414,1,1550.6000000238419,285605.5,7142,WL,C,9.0
2,21.842000007629395,learn,38157.999992370605,Tue May 20 2025 12:15:26 GMT-0500 (Central Daylight Time),287605.3000000119,A,n,O,n,446,1,449.0999999642372,287156.2000000477,7142,WL,C,10.0
2,21.97499990463257,learn,38025.00009536743,Tue May 20 2025 12:15:26 GMT-0500 (Central Daylight Time),287738.7000000477,A,na,O,a,114,1,582.5,287156.2000000477,7142,WL,C,10.0
2,22.14199995994568,learn,37858.00004005432,Tue May 20 2025 12:15:26 GMT-0500 (Central Daylight Time),287905.2000000477,A,nai,O,i,158,1,749.0,287156.2000000477,7142,WL,C,10.0
2,22.29200005531311,learn,37707.99994468689,Tue May 20 2025 12:15:26 GMT-0500 (Central Daylight Time),288055.5,A,naii,O,i,145,1,899.2999999523163,287156.2000000477,7142,WL,C,10.0
2,22.90999984741211,learn,37090.00015258789,Tue May 20 2025 12:15:26 GMT-0500 (Central Daylight Time),288673.60000002384,A,nai,O,backspace,611,1,1517.3999999761581,287156.2000000477,7142,WL,C,10.0
2,23.592000007629395,learn,36407.999992370605,Tue May 20 2025 12:15:26 GMT-0500 (Central Daylight Time),289355.90000003576,A,nail,O,l,660,1,2199.699999988079,287156.2000000477,7142,WL,C,10.0
2,24.01099991798401,learn,35989.00008201599,Tue May 20 2025 12:15:26 GMT-0500 (Central Daylight Time),289774.0,A,nailenter,O,enter,410,1,2617.7999999523163,287156.2000000477,7142,WL,C,10.0
2,26.960000038146973,learn,33039.99996185303,Tue May 20 2025 12:15:26 GMT-0500 (Central Daylight Time),292723.2000000477,A,s,O,s,2930,1,2949.0,289774.2000000477,7142,WL,C,11.0
2,27.073999881744385,learn,32926.000118255615,Tue May 20 2025 12:15:26 GMT-0500 (Central Daylight Time),292837.7000000477,A,sh,O,h,107,1,3063.5,289774.2000000477,7142,WL,C,11.0
2,27.20899987220764,learn,32791.00012779236,Tue May 20 2025 12:15:26 GMT-0500 (Central Daylight Time),292972.2000000477,A,sho,O,o,120,1,3198.0,289774.2000000477,7142,WL,C,11.0
2,27.325000047683716,learn,32674.999952316284,Tue May 20 2025 12:15:26 GMT-0500 (Central Daylight Time),293088.10000002384,A,shor,O,r,107,1,3313.899999976158,289774.2000000477,7142,WL,C,11.0
2,27.47499990463257,learn,32525.00009536743,Tue May 20 2025 12:15:26 GMT-0500 (Central Daylight Time),293237.90000003576,A,shore,O,e,144,1,3463.699999988079,289774.2000000477,7142,WL,C,11.0
2,27.825999975204468,learn,32174.000024795532,Tue May 20 2025 12:15:26 GMT-0500 (Central Daylight Time),293589.40000003576,A,shoreenter,O,enter,328,1,3815.199999988079,289774.2000000477,7142,WL,C,11.0
2,30.33999991416931,learn,29660.00008583069,Tue May 20 2025 12:15:26 GMT-0500 (Central Daylight Time),296103.60000002384,A,c,O,c,2499,1,2513.899999976158,293589.7000000477,7142,WL,C,12.0
2,30.490999937057495,learn,29509.000062942505,Tue May 20 2025 12:15:26 GMT-0500 (Central Daylight Time),296254.7000000477,A,ca,O,a,134,1,2665.0,293589.7000000477,7142,WL,C,12.0
2,30.62399983406067,learn,29376.00016593933,Tue May 20 2025 12:15:26 GMT-0500 (Central Daylight Time),296387.5,A,cam,O,m,123,1,2797.7999999523163,293589.7000000477,7142,WL,C,12.0
2,30.840999841690063,learn,29159.000158309937,Tue May 20 2025 12:15:26 GMT-0500 (Central Daylight Time),296604.3000000119,A,camo,O,o,204,1,3014.599999964237,293589.7000000477,7142,WL,C,12.0
2,30.888999938964844,learn,29111.000061035156,Tue May 20 2025 12:15:26 GMT-0500 (Central Daylight Time),296652.5,A,camop,O,p,39,1,3062.7999999523163,293589.7000000477,7142,WL,C,12.0
2,31.44000005722046,learn,28559.99994277954,Tue May 20 2025 12:15:26 GMT-0500 (Central Daylight Time),297203.5,A,camo,O,backspace,541,1,3613.7999999523163,293589.7000000477,7142,WL,C,12.0
2,31.625,learn,28375.0,Tue May 20 2025 12:15:26 GMT-0500 (Central Daylight Time),297388.10000002384,A,cam,O,backspace,164,1,3798.399999976158,293589.7000000477,7142,WL,C,12.0
2,32.29099988937378,learn,27709.00011062622,Tue May 20 2025 12:15:26 GMT-0500 (Central Daylight Time),298054.40000003576,A,camp,O,p,660,1,4464.699999988079,293589.7000000477,7142,WL,C,12.0
2,32.50699996948242,learn,27493.000030517578,Tue May 20 2025 12:15:26 GMT-0500 (Central Daylight Time),298270.3000000119,A,campenter,O,enter,208,1,4680.599999964237,293589.7000000477,7142,WL,C,12.0
2,37.638999938964844,learn,22361.000061035156,Tue May 20 2025 12:15:26 GMT-0500 (Central Daylight Time),303402.5,A,l,O,l,5114,1,5132.0,298270.5,7142,WL,C,13.0
2,37.68599987030029,learn,22314.000129699707,Tue May 20 2025 12:15:26 GMT-0500 (Central Daylight Time),303449.7000000477,A,le,O,e,35,1,5179.200000047684,298270.5,7142,WL,C,13.0
2,37.90499997138977,learn,22095.00002861023,Tue May 20 2025 12:15:26 GMT-0500 (Central Daylight Time),303668.3000000119,A,let,O,t,207,1,5397.800000011921,298270.5,7142,WL,C,13.0
2,38.0699999332428,learn,21930.000066757202,Tue May 20 2025 12:15:26 GMT-0500 (Central Daylight Time),303834.2000000477,A,lett,O,t,155,1,5563.700000047684,298270.5,7142,WL,C,13.0
2,38.204999923706055,learn,21795.000076293945,Tue May 20 2025 12:15:26 GMT-0500 (Central Daylight Time),303968.7000000477,A,lette,O,e,127,1,5698.200000047684,298270.5,7142,WL,C,13.0
2,38.270999908447266,learn,21729.000091552734,Tue May 20 2025 12:15:26 GMT-0500 (Central Daylight Time),304034.5,A,letter,O,r,53,1,5764.0,298270.5,7142,WL,C,13.0
2,38.57200002670288,learn,21427.99997329712,Tue May 20 2025 12:15:26 GMT-0500 (Central Daylight Time),304335.7000000477,A,letterenter,O,enter,285,1,6065.200000047684,298270.5,7142,WL,C,13.0
2,39.75399994850159,learn,20246.000051498413,Tue May 20 2025 12:15:26 GMT-0500 (Central Daylight Time),305517.40000003576,A,enter,O,enter,1177,1,1181.4000000357628,304336.0,7142,WL,C,14.0
2,40.48799991607666,learn,19512.00008392334,Tue May 20 2025 12:15:26 GMT-0500 (Central Daylight Time),306251.5,A,enter,O,enter,723,1,733.7999999523163,305517.7000000477,7142,WL,C,15.0
3,0.9500000476837158,learn,59049.999952316284,Tue May 20 2025 12:15:26 GMT-0500 (Central Daylight Time),375328.3000000119,A,t,O,t,941,1,949.5999999642372,374378.7000000477,7142,WL,C,1.0
3,1.1500000953674316,learn,58849.99990463257,Tue May 20 2025 12:15:26 GMT-0500 (Central Daylight Time),375528.40000003576,A,to,O,o,184,1,1149.699999988079,374378.7000000477,7142,WL,C,1.0
3,1.2330000400543213,learn,58766.99995994568,Tue May 20 2025 12:15:26 GMT-0500 (Central Daylight Time),375611.0,A,tow,O,w,64,1,1232.2999999523163,374378.7000000477,7142,WL,C,1.0
3,1.3990001678466797,learn,58600.99983215332,Tue May 20 2025 12:15:26 GMT-0500 (Central Daylight Time),375777.0,A,towe,O,e,158,1,1398.2999999523163,374378.7000000477,7142,WL,C,1.0
3,1.5160000324249268,learn,58483.99996757507,Tue May 20 2025 12:15:26 GMT-0500 (Central Daylight Time),375894.40000003576,A,tower,O,r,103,1,1515.699999988079,374378.7000000477,7142,WL,C,1.0
3,2.115000009536743,learn,57884.99999046326,Tue May 20 2025 12:15:26 GMT-0500 (Central Daylight Time),376493.60000002384,A,towerenter,O,enter,595,1,2114.899999976158,374378.7000000477,7142,WL,C,1.0
3,2.998000144958496,learn,57001.999855041504,Tue May 20 2025 12:15:26 GMT-0500 (Central Daylight Time),377375.90000003576,A,w,O,w,875,1,882.1000000238419,376493.8000000119,7142,WL,C,2.0
3,3.1490001678466797,learn,56850.99983215332,Tue May 20 2025 12:15:26 GMT-0500 (Central Daylight Time),377527.10000002384,A,wh,O,h,145,1,1033.300000011921,376493.8000000119,7142,WL,C,2.0
3,3.2320001125335693,learn,56767.99988746643,Tue May 20 2025 12:15:26 GMT-0500 (Central Daylight Time),377610.2000000477,A,whe,O,e,73,1,1116.4000000357628,376493.8000000119,7142,WL,C,2.0
3,3.383000135421753,learn,56616.99986457825,Tue May 20 2025 12:15:26 GMT-0500 (Central Daylight Time),377761.8000000119,A,whea,O,a,135,1,1268.0,376493.8000000119,7142,WL,C,2.0
3,3.499000072479248,learn,56500.99992752075,Tue May 20 2025 12:15:26 GMT-0500 (Central Daylight Time),377877.10000002384,A,wheat,O,t,100,1,1383.300000011921,376493.8000000119,7142,WL,C,2.0
3,3.9160001277923584,learn,56083.99987220764,Tue May 20 2025 12:15:26 GMT-0500 (Central Daylight Time),378293.8000000119,A,wheatenter,O,enter,412,1,1800.0,376493.8000000119,7142,WL,C,2.0
3,4.498000144958496,learn,55501.999855041504,Tue May 20 2025 12:15:26 GMT-0500 (Central Daylight Time),378876.10000002384,A,q,O,q,578,1,582.1999999880791,378293.90000003576,7142,WL,C,3.0
3,4.698000192642212,learn,55301.99980735779,Tue May 20 2025 12:15:26 GMT-0500 (Central Daylight Time),379076.60000002384,A,qu,O,u,198,1,782.6999999880791,378293.90000003576,7142,WL,C,3.0
3,4.8470001220703125,learn,55152.99987792969,Tue May 20 2025 12:15:26 GMT-0500 (Central Daylight Time),379225.5,A,que,O,e,132,1,931.5999999642372,378293.90000003576,7142,WL,C,3.0
3,4.998000144958496,learn,55001.999855041504,Tue May 20 2025 12:15:26 GMT-0500 (Central Daylight Time),379376.3000000119,A,quee,O,e,143,1,1082.3999999761581,378293.90000003576,7142,WL,C,3.0
3,5.114000082015991,learn,54885.99991798401,Tue May 20 2025 12:15:26 GMT-0500 (Central Daylight Time),379491.90000003576,A,queen,O,n,104,1,1198.0,378293.90000003576,7142,WL,C,3.0
3,5.447000026702881,learn,54552.99997329712,Tue May 20 2025 12:15:26 GMT-0500 (Central Daylight Time),379825.5,A,queenenter,O,enter,325,1,1531.5999999642372,378293.90000003576,7142,WL,C,3.0
3,6.014000177383423,learn,53985.99982261658,Tue May 20 2025 12:15:26 GMT-0500 (Central Daylight Time),380392.60000002384,A,s,O,s,551,1,566.8000000119209,379825.8000000119,7142,WL,C,4.0
3,6.463000059127808,learn,53536.99994087219,Tue May 20 2025 12:15:26 GMT-0500 (Central Daylight Time),380841.8000000119,A,su,O,u,431,1,1016.0,379825.8000000119,7142,WL,C,4.0
3,6.680999994277954,learn,53319.000005722046,Tue May 20 2025 12:15:26 GMT-0500 (Central Daylight Time),381059.5,A,sug,O,g,199,1,1233.699999988079,379825.8000000119,7142,WL,C,4.0
3,6.796000003814697,learn,53203.9999961853,Tue May 20 2025 12:15:26 GMT-0500 (Central Daylight Time),381174.7000000477,A,suga,O,a,101,1,1348.9000000357628,379825.8000000119,7142,WL,C,4.0
3,6.9150002002716064,learn,53084.99979972839,Tue May 20 2025 12:15:26 GMT-0500 (Central Daylight Time),381293.40000003576,A,sugar,O,r,98,1,1467.6000000238419,379825.8000000119,7142,WL,C,4.0
3,7.430999994277954,learn,52569.000005722046,Tue May 20 2025 12:15:26 GMT-0500 (Central Daylight Time),381809.2000000477,A,sugarenter,O,enter,508,1,1983.4000000357628,379825.8000000119,7142,WL,C,4.0
3,9.61300015449524,learn,50386.99984550476,Tue May 20 2025 12:15:26 GMT-0500 (Central Daylight Time),383991.60000002384,A,d,O,d,2177,1,2182.199999988079,381809.40000003576,7142,WL,C,5.0
3,9.729000091552734,learn,50270.999908447266,Tue May 20 2025 12:15:26 GMT-0500 (Central Daylight Time),384107.5,A,do,O,o,105,1,2298.099999964237,381809.40000003576,7142,WL,C,5.0
3,9.879000186920166,learn,50120.999813079834,Tue May 20 2025 12:15:26 GMT-0500 (Central Daylight Time),384257.3000000119,A,dog,O,g,132,1,2447.899999976158,381809.40000003576,7142,WL,C,5.0
3,10.016000032424927,learn,49983.99996757507,Tue May 20 2025 12:15:26 GMT-0500 (Central Daylight Time),384394.60000002384,A,doga,O,a,128,1,2585.199999988079,381809.40000003576,7142,WL,C,5.0
3,10.746000051498413,learn,49253.99994850159,Tue May 20 2025 12:15:26 GMT-0500 (Central Daylight Time),385124.40000003576,A,dog,O,backspace,724,1,3315.0,381809.40000003576,7142,WL,C,5.0
3,10.930000066757202,learn,49069.9999332428,Tue May 20 2025 12:15:26 GMT-0500 (Central Daylight Time),385308.0,A,do,O,backspace,180,1,3498.599999964237,381809.40000003576,7142,WL,C,5.0
3,11.279000043869019,learn,48720.99995613098,Tue May 20 2025 12:15:26 GMT-0500 (Central Daylight Time),385657.10000002384,A,doc,O,c,332,1,3847.699999988079,381809.40000003576,7142,WL,C,5.0
3,11.514000177383423,learn,48485.99982261658,Tue May 20 2025 12:15:26 GMT-0500 (Central Daylight Time),385892.10000002384,A,doct,O,t,222,1,4082.699999988079,381809.40000003576,7142,WL,C,5.0
3,11.630000114440918,learn,48369.99988555908,Tue May 20 2025 12:15:26 GMT-0500 (Central Daylight Time),386008.7000000477,A,docto,O,o,109,1,4199.300000011921,381809.40000003576,7142,WL,C,5.0
3,11.729000091552734,learn,48270.999908447266,Tue May 20 2025 12:15:26 GMT-0500 (Central Daylight Time),386107.60000002384,A,doctor,O,r,79,1,4298.199999988079,381809.40000003576,7142,WL,C,5.0
3,12.212000131607056,learn,47787.999868392944,Tue May 20 2025 12:15:26 GMT-0500 (Central Daylight Time),386590.10000002384,A,doctorenter,O,enter,469,1,4780.699999988079,381809.40000003576,7142,WL,C,5.0
3,12.746000051498413,learn,47253.99994850159,Tue May 20 2025 12:15:26 GMT-0500 (Central Daylight Time),387124.0,A,c,O,c,522,1,533.6999999880791,386590.3000000119,7142,WL,C,6.0
3,12.92900013923645,learn,47070.99986076355,Tue May 20 2025 12:15:26 GMT-0500 (Central Daylight Time),387307.10000002384,A,ca,O,a,164,1,716.8000000119209,386590.3000000119,7142,WL,C,6.0
3,13.196000099182129,learn,46803.99990081787,Tue May 20 2025 12:15:26 GMT-0500 (Central Daylight Time),387573.90000003576,A,cam,O,m,262,1,983.6000000238419,386590.3000000119,7142,WL,C,6.0
3,14.09500002861023,learn,45904.99997138977,Tue May 20 2025 12:15:26 GMT-0500 (Central Daylight Time),388473.10000002384,A,camp,O,p,882,1,1882.800000011921,386590.3000000119,7142,WL,C,6.0
3,14.344000101089478,learn,45655.99989891052,Tue May 20 2025 12:15:26 GMT-0500 (Central Daylight Time),388722.40000003576,A,campenter,O,enter,240,1,2132.100000023842,386590.3000000119,7142,WL,C,6.0
3,14.996000051498413,learn,45003.99994850159,Tue May 20 2025 12:15:26 GMT-0500 (Central Daylight Time),389374.10000002384,A,f,O,f,648,1,651.3999999761581,388722.7000000477,7142,WL,C,7.0
3,15.144000053405762,learn,44855.99994659424,Tue May 20 2025 12:15:26 GMT-0500 (Central Daylight Time),389522.10000002384,A,fl,O,l,138,1,799.3999999761581,388722.7000000477,7142,WL,C,7.0
3,15.294000148773193,learn,44705.99985122681,Tue May 20 2025 12:15:26 GMT-0500 (Central Daylight Time),389672.5,A,fla,O,a,141,1,949.7999999523163,388722.7000000477,7142,WL,C,7.0
3,15.444000005722046,learn,44555.999994277954,Tue May 20 2025 12:15:26 GMT-0500 (Central Daylight Time),389822.5,A,flag,O,g,136,1,1099.7999999523163,388722.7000000477,7142,WL,C,7.0
3,15.712000131607056,learn,44287.999868392944,Tue May 20 2025 12:15:26 GMT-0500 (Central Daylight Time),390090.10000002384,A,flagenter,O,enter,258,1,1367.3999999761581,388722.7000000477,7142,WL,C,7.0
3,16.094000101089478,learn,43905.99989891052,Tue May 20 2025 12:15:26 GMT-0500 (Central Daylight Time),390472.40000003576,A,l,O,l,376,1,382.19999998807907,390090.2000000477,7142,WL,C,8.0
3,16.211000204086304,learn,43788.999795913696,Tue May 20 2025 12:15:26 GMT-0500 (Central Daylight Time),390589.40000003576,A,le,O,e,97,1,499.19999998807907,390090.2000000477,7142,WL,C,8.0
3,16.41100001335144,learn,43588.99998664856,Tue May 20 2025 12:15:26 GMT-0500 (Central Daylight Time),390789.40000003576,A,let,O,t,194,1,699.1999999880791,390090.2000000477,7142,WL,C,8.0
3,16.57800006866455,learn,43421.99993133545,Tue May 20 2025 12:15:26 GMT-0500 (Central Daylight Time),390956.7000000477,A,lett,O,t,163,1,866.5,390090.2000000477,7142,WL,C,8.0
3,16.74400019645691,learn,43255.99980354309,Tue May 20 2025 12:15:26 GMT-0500 (Central Daylight Time),391122.10000002384,A,lette,O,e,149,1,1031.8999999761581,390090.2000000477,7142,WL,C,8.0
3,16.811000108718872,learn,43188.99989128113,Tue May 20 2025 12:15:26 GMT-0500 (Central Daylight Time),391189.10000002384,A,letter,O,r,45,1,1098.8999999761581,390090.2000000477,7142,WL,C,8.0
3,17.06000018119812,learn,42939.99981880188,Tue May 20 2025 12:15:26 GMT-0500 (Central Daylight Time),391438.10000002384,A,letterenter,O,enter,236,1,1347.8999999761581,390090.2000000477,7142,WL,C,8.0
3,19.044000148773193,learn,40955.99985122681,Tue May 20 2025 12:15:26 GMT-0500 (Central Daylight Time),393421.8000000119,A,n,O,n,1970,1,1983.5,391438.3000000119,7142,WL,C,9.0
3,19.16000008583069,learn,40839.99991416931,Tue May 20 2025 12:15:26 GMT-0500 (Central Daylight Time),393538.40000003576,A,na,O,a,98,1,2100.100000023842,391438.3000000119,7142,WL,C,9.0
3,19.31000018119812,learn,40689.99981880188,Tue May 20 2025 12:15:26 GMT-0500 (Central Daylight Time),393688.40000003576,A,nai,O,i,143,1,2250.100000023842,391438.3000000119,7142,WL,C,9.0
3,19.509000062942505,learn,40490.999937057495,Tue May 20 2025 12:15:26 GMT-0500 (Central Daylight Time),393887.7000000477,A,nail,O,l,184,1,2449.400000035763,391438.3000000119,7142,WL,C,9.0
3,20.06000018119812,learn,39939.99981880188,Tue May 20 2025 12:15:26 GMT-0500 (Central Daylight Time),394437.8000000119,A,nailenter,O,enter,537,1,2999.5,391438.3000000119,7142,WL,C,9.0
3,20.62600016593933,learn,39373.99983406067,Tue May 20 2025 12:15:26 GMT-0500 (Central Daylight Time),395004.5,A,f,O,f,547,1,566.5,394438.0,7142,WL,C,10.0
3,20.759999990463257,learn,39240.00000953674,Tue May 20 2025 12:15:26 GMT-0500 (Central Daylight Time),395138.40000003576,A,fl,O,l,117,1,700.4000000357628,394438.0,7142,WL,C,10.0
3,20.875,learn,39125.0,Tue May 20 2025 12:15:26 GMT-0500 (Central Daylight Time),395253.7000000477,A,fla,O,a,110,1,815.7000000476837,394438.0,7142,WL,C,10.0
3,21.042999982833862,learn,38957.00001716614,Tue May 20 2025 12:15:26 GMT-0500 (Central Daylight Time),395421.5,A,flag,O,g,148,1,983.5,394438.0,7142,WL,C,10.0
3,21.37600016593933,learn,38623.99983406067,Tue May 20 2025 12:15:26 GMT-0500 (Central Daylight Time),395754.8000000119,A,flagenter,O,enter,316,1,1316.800000011921,394438.0,7142,WL,C,10.0
3,23.091000080108643,learn,36908.99991989136,Tue May 20 2025 12:15:26 GMT-0500 (Central Daylight Time),397469.5,A,c,O,c,1702,1,1714.5999999642372,395754.90000003576,7142,WL,C,11.0
3,23.2260000705719,learn,36773.9999294281,Tue May 20 2025 12:15:26 GMT-0500 (Central Daylight Time),397604.5,A,ca,O,a,123,1,1849.5999999642372,395754.90000003576,7142,WL,C,11.0
3,23.492000102996826,learn,36507.999897003174,Tue May 20 2025 12:15:26 GMT-0500 (Central Daylight Time),397870.0,A,cat,O,t,253,1,2115.099999964237,395754.90000003576,7142,WL,C,11.0
3,23.641000032424927,learn,36358.99996757507,Tue May 20 2025 12:15:26 GMT-0500 (Central Daylight Time),398019.40000003576,A,catt,O,t,138,1,2264.5,395754.90000003576,7142,WL,C,11.0
3,23.759000062942505,learn,36240.999937057495,Tue May 20 2025 12:15:26 GMT-0500 (Central Daylight Time),398137.10000002384,A,cattl,O,l,102,1,2382.199999988079,395754.90000003576,7142,WL,C,11.0
3,23.859000205993652,learn,36140.99979400635,Tue May 20 2025 12:15:26 GMT-0500 (Central Daylight Time),398236.90000003576,A,cattle,O,e,93,1,2482.0,395754.90000003576,7142,WL,C,11.0
3,24.676000118255615,learn,35323.999881744385,Tue May 20 2025 12:15:26 GMT-0500 (Central Daylight Time),399054.10000002384,A,cattleenter,O,enter,803,1,3299.199999988079,395754.90000003576,7142,WL,C,11.0
3,25.10700011253357,learn,34892.99988746643,Tue May 20 2025 12:15:26 GMT-0500 (Central Daylight Time),399485.60000002384,A,s,O,s,417,1,431.30000001192093,399054.3000000119,7142,WL,C,12.0
3,25.242000102996826,learn,34757.999897003174,Tue May 20 2025 12:15:26 GMT-0500 (Central Daylight Time),399619.90000003576,A,sh,O,h,123,1,565.6000000238419,399054.3000000119,7142,WL,C,12.0
3,25.391000032424927,learn,34608.99996757507,Tue May 20 2025 12:15:26 GMT-0500 (Central Daylight Time),399769.7000000477,A,sho,O,o,133,1,715.4000000357628,399054.3000000119,7142,WL,C,12.0
3,25.52500009536743,learn,34474.99990463257,Tue May 20 2025 12:15:26 GMT-0500 (Central Daylight Time),399903.2000000477,A,shor,O,r,127,1,848.9000000357628,399054.3000000119,7142,WL,C,12.0
3,25.69099998474121,learn,34309.00001525879,Tue May 20 2025 12:15:26 GMT-0500 (Central Daylight Time),400069.60000002384,A,shore,O,e,161,1,1015.3000000119209,399054.3000000119,7142,WL,C,12.0
3,26.141000032424927,learn,33858.99996757507,Tue May 20 2025 12:15:26 GMT-0500 (Central Daylight Time),400519.8000000119,A,shoreenter,O,enter,435,1,1465.5,399054.3000000119,7142,WL,C,12.0
3,30.85700011253357,learn,29142.99988746643,Tue May 20 2025 12:15:26 GMT-0500 (Central Daylight Time),405235.7000000477,A,c,O,c,4698,1,4715.800000011921,400519.90000003576,7142,WL,C,13.0
3,30.974000215530396,learn,29025.999784469604,Tue May 20 2025 12:15:26 GMT-0500 (Central Daylight Time),405352.2000000477,A,co,O,o,106,1,4832.300000011921,400519.90000003576,7142,WL,C,13.0
3,31.174000024795532,learn,28825.999975204468,Tue May 20 2025 12:15:26 GMT-0500 (Central Daylight Time),405552.2000000477,A,cor,O,r,185,1,5032.300000011921,400519.90000003576,7142,WL,C,13.0
3,31.305999994277954,learn,28694.000005722046,Tue May 20 2025 12:15:26 GMT-0500 (Central Daylight Time),405684.7000000477,A,corn,O,n,124,1,5164.800000011921,400519.90000003576,7142,WL,C,13.0
3,31.75600004196167,learn,28243.99995803833,Tue May 20 2025 12:15:26 GMT-0500 (Central Daylight Time),406134.5,A,cornenter,O,enter,436,1,5614.599999964237,400519.90000003576,7142,WL,C,13.0
3,37.122000217437744,learn,22877.999782562256,Tue May 20 2025 12:15:26 GMT-0500 (Central Daylight Time),411500.60000002384,A,l,O,l,5354,1,5365.899999976158,406134.7000000477,7142,WL,C,14.0
3,37.27300000190735,learn,22726.99999809265,Tue May 20 2025 12:15:26 GMT-0500 (Central Daylight Time),411651.0,A,le,O,e,132,1,5516.299999952316,406134.7000000477,7142,WL,C,14.0
3,37.5220000743866,learn,22477.999925613403,Tue May 20 2025 12:15:26 GMT-0500 (Central Daylight Time),411900.7000000477,A,let,O,t,236,1,5766.0,406134.7000000477,7142,WL,C,14.0
3,37.69000005722046,learn,22309.99994277954,Tue May 20 2025 12:15:26 GMT-0500 (Central Daylight Time),412067.90000003576,A,lett,O,t,147,1,5933.199999988079,406134.7000000477,7142,WL,C,14.0
3,37.85600018501282,learn,22143.999814987183,Tue May 20 2025 12:15:26 GMT-0500 (Central Daylight Time),412234.7000000477,A,lette,O,e,148,1,6100.0,406134.7000000477,7142,WL,C,14.0
3,37.88700008392334,learn,22112.99991607666,Tue May 20 2025 12:15:26 GMT-0500 (Central Daylight Time),412265.5,A,letter,O,r,18,1,6130.799999952316,406134.7000000477,7142,WL,C,14.0
3,38.140000104904175,learn,21859.999895095825,Tue May 20 2025 12:15:26 GMT-0500 (Central Daylight Time),412518.0,A,letterenter,O,enter,250,1,6383.299999952316,406134.7000000477,7142,WL,C,14.0
3,40.73800015449524,learn,19261.99984550476,Tue May 20 2025 12:15:26 GMT-0500 (Central Daylight Time),415115.8000000119,A,f,O,f,2577,1,2597.5,412518.3000000119,7142,WL,C,15.0
3,40.85300016403198,learn,19146.999835968018,Tue May 20 2025 12:15:26 GMT-0500 (Central Daylight Time),415231.60000002384,A,fl,O,l,100,1,2713.300000011921,412518.3000000119,7142,WL,C,15.0
3,40.97200012207031,learn,19027.999877929688,Tue May 20 2025 12:15:26 GMT-0500 (Central Daylight Time),415349.8000000119,A,fla,O,a,105,1,2831.5,412518.3000000119,7142,WL,C,15.0
3,41.07100009918213,learn,18928.99990081787,Tue May 20 2025 12:15:26 GMT-0500 (Central Daylight Time),415448.90000003576,A,flag,O,g,82,1,2930.600000023842,412518.3000000119,7142,WL,C,15.0
3,41.437000036239624,learn,18562.999963760376,Tue May 20 2025 12:15:26 GMT-0500 (Central Daylight Time),415815.2000000477,A,flagenter,O,enter,359,1,3296.900000035763,412518.3000000119,7142,WL,C,15.0
4,1.0310001373291016,learn,58968.9998626709,Tue May 20 2025 12:15:26 GMT-0500 (Central Daylight Time),482311.2000000477,A,t,O,t,1021,1,1030.6000000238419,481280.60000002384,7142,WL,C,1.0
4,1.1820001602172852,learn,58817.999839782715,Tue May 20 2025 12:15:26 GMT-0500 (Central Daylight Time),482462.7000000477,A,to,O,o,136,1,1182.1000000238419,481280.60000002384,7142,WL,C,1.0
4,1.2640001773834229,learn,58735.99982261658,Tue May 20 2025 12:15:26 GMT-0500 (Central Daylight Time),482544.60000002384,A,tow,O,w,73,1,1264.0,481280.60000002384,7142,WL,C,1.0
4,1.4800000190734863,learn,58519.999980926514,Tue May 20 2025 12:15:26 GMT-0500 (Central Daylight Time),482760.7000000477,A,towe,O,e,199,1,1480.1000000238419,481280.60000002384,7142,WL,C,1.0
4,1.5470001697540283,learn,58452.99983024597,Tue May 20 2025 12:15:26 GMT-0500 (Central Daylight Time),482827.10000002384,A,tower,O,r,53,1,1546.5,481280.60000002384,7142,WL,C,1.0
4,2.9810001850128174,learn,57018.99981498718,Tue May 20 2025 12:15:26 GMT-0500 (Central Daylight Time),484261.0,A,towerenter,O,enter,1421,1,2980.399999976158,481280.60000002384,7142,WL,C,1.0
4,3.698000192642212,learn,56301.99980735779,Tue May 20 2025 12:15:26 GMT-0500 (Central Daylight Time),484978.10000002384,A,w,O,w,708,1,716.8999999761581,484261.2000000477,7142,WL,C,2.0
4,3.8970000743865967,learn,56102.9999256134,Tue May 20 2025 12:15:26 GMT-0500 (Central Daylight Time),485177.10000002384,A,we,O,e,181,1,915.8999999761581,484261.2000000477,7142,WL,C,2.0
4,4.046000003814697,learn,55953.9999961853,Tue May 20 2025 12:15:26 GMT-0500 (Central Daylight Time),485326.8000000119,A,wea,O,a,134,1,1065.5999999642372,484261.2000000477,7142,WL,C,2.0
4,4.631999969482422,learn,55368.00003051758,Tue May 20 2025 12:15:26 GMT-0500 (Central Daylight Time),485912.2000000477,A,we,O,backspace,578,1,1651.0,484261.2000000477,7142,WL,C,2.0
4,4.79800009727478,learn,55201.99990272522,Tue May 20 2025 12:15:26 GMT-0500 (Central Daylight Time),486078.7000000477,A,w,O,backspace,160,1,1817.5,484261.2000000477,7142,WL,C,2.0
4,5.078999996185303,learn,54921.0000038147,Tue May 20 2025 12:15:26 GMT-0500 (Central Daylight Time),486359.60000002384,A,wh,O,h,272,1,2098.399999976158,484261.2000000477,7142,WL,C,2.0
4,5.246999979019165,learn,54753.000020980835,Tue May 20 2025 12:15:26 GMT-0500 (Central Daylight Time),486527.60000002384,A,whe,O,e,150,1,2266.399999976158,484261.2000000477,7142,WL,C,2.0
4,5.430000066757202,learn,54569.9999332428,Tue May 20 2025 12:15:26 GMT-0500 (Central Daylight Time),486710.3000000119,A,whea,O,a,169,1,2449.099999964237,484261.2000000477,7142,WL,C,2.0
4,5.5290000438690186,learn,54470.99995613098,Tue May 20 2025 12:15:26 GMT-0500 (Central Daylight Time),486809.10000002384,A,wheat,O,t,88,1,2547.899999976158,484261.2000000477,7142,WL,C,2.0
4,5.930000066757202,learn,54069.9999332428,Tue May 20 2025 12:15:26 GMT-0500 (Central Daylight Time),487210.40000003576,A,wheatenter,O,enter,388,1,2949.199999988079,484261.2000000477,7142,WL,C,2.0
4,6.680000066757202,learn,53319.9999332428,Tue May 20 2025 12:15:26 GMT-0500 (Central Daylight Time),487960.2000000477,A,q,O,q,735,1,749.6000000238419,487210.60000002384,7142,WL,C,3.0
4,6.864000082015991,learn,53135.99991798401,Tue May 20 2025 12:15:26 GMT-0500 (Central Daylight Time),488144.5,A,qu,O,u,179,1,933.8999999761581,487210.60000002384,7142,WL,C,3.0
4,6.996000051498413,learn,53003.99994850159,Tue May 20 2025 12:15:26 GMT-0500 (Central Daylight Time),488275.90000003576,A,que,O,e,117,1,1065.300000011921,487210.60000002384,7142,WL,C,3.0
4,7.163000106811523,learn,52836.99989318848,Tue May 20 2025 12:15:26 GMT-0500 (Central Daylight Time),488443.10000002384,A,quee,O,e,157,1,1232.5,487210.60000002384,7142,WL,C,3.0
4,7.281000137329102,learn,52718.9998626709,Tue May 20 2025 12:15:26 GMT-0500 (Central Daylight Time),488561.0,A,queen,O,n,112,1,1350.3999999761581,487210.60000002384,7142,WL,C,3.0
4,7.646000146865845,learn,52353.999853134155,Tue May 20 2025 12:15:26 GMT-0500 (Central Daylight Time),488926.2000000477,A,queenenter,O,enter,349,1,1715.6000000238419,487210.60000002384,7142,WL,C,3.0
4,8.046000003814697,learn,51953.9999961853,Tue May 20 2025 12:15:26 GMT-0500 (Central Daylight Time),489326.5,A,s,O,s,395,1,400.0999999642372,488926.40000003576,7142,WL,C,4.0
4,8.27999997138977,learn,51720.00002861023,Tue May 20 2025 12:15:26 GMT-0500 (Central Daylight Time),489559.90000003576,A,su,O,u,216,1,633.5,488926.40000003576,7142,WL,C,4.0
4,8.44700002670288,learn,51552.99997329712,Tue May 20 2025 12:15:26 GMT-0500 (Central Daylight Time),489727.7000000477,A,sug,O,g,161,1,801.3000000119209,488926.40000003576,7142,WL,C,4.0
4,8.59600019454956,learn,51403.99980545044,Tue May 20 2025 12:15:26 GMT-0500 (Central Daylight Time),489875.90000003576,A,suga,O,a,127,1,949.5,488926.40000003576,7142,WL,C,4.0
4,8.695000171661377,learn,51304.99982833862,Tue May 20 2025 12:15:26 GMT-0500 (Central Daylight Time),489975.2000000477,A,sugar,O,r,83,1,1048.800000011921,488926.40000003576,7142,WL,C,4.0
4,9.379000186920166,learn,50620.999813079834,Tue May 20 2025 12:15:26 GMT-0500 (Central Daylight Time),490659.0,A,sugarenter,O,enter,672,1,1732.5999999642372,488926.40000003576,7142,WL,C,4.0
4,9.812000036239624,learn,50187.999963760376,Tue May 20 2025 12:15:26 GMT-0500 (Central Daylight Time),491092.60000002384,A,h,O,h,422,1,433.19999998807907,490659.40000003576,7142,WL,C,5.0
4,9.946000099182129,learn,50053.99990081787,Tue May 20 2025 12:15:26 GMT-0500 (Central Daylight Time),491225.90000003576,A,ho,O,o,115,1,566.5,490659.40000003576,7142,WL,C,5.0
4,10.162000179290771,learn,49837.99982070923,Tue May 20 2025 12:15:26 GMT-0500 (Central Daylight Time),491442.2000000477,A,hom,O,m,199,1,782.8000000119209,490659.40000003576,7142,WL,C,5.0
4,10.245000123977661,learn,49754.99987602234,Tue May 20 2025 12:15:26 GMT-0500 (Central Daylight Time),491525.60000002384,A,home,O,e,70,1,866.1999999880791,490659.40000003576,7142,WL,C,5.0
4,10.695000171661377,learn,49304.99982833862,Tue May 20 2025 12:15:26 GMT-0500 (Central Daylight Time),491975.60000002384,A,homeenter,O,enter,433,1,1316.199999988079,490659.40000003576,7142,WL,C,5.0
4,11.412000179290771,learn,48587.99982070923,Tue May 20 2025 12:15:26 GMT-0500 (Central Daylight Time),492692.0,A,b,O,b,705,1,716.0999999642372,491975.90000003576,7142,WL,C,6.0
4,11.546000003814697,learn,48453.9999961853,Tue May 20 2025 12:15:26 GMT-0500 (Central Daylight Time),492825.8000000119,A,bo,O,o,125,1,849.8999999761581,491975.90000003576,7142,WL,C,6.0
4,11.830000162124634,learn,48169.999837875366,Tue May 20 2025 12:15:26 GMT-0500 (Central Daylight Time),493110.2000000477,A,boy,O,y,279,1,1134.300000011921,491975.90000003576,7142,WL,C,6.0
4,12.228000164031982,learn,47771.99983596802,Tue May 20 2025 12:15:26 GMT-0500 (Central Daylight Time),493508.10000002384,A,boyenter,O,enter,385,1,1532.199999988079,491975.90000003576,7142,WL,C,6.0
4,12.812000036239624,learn,47187.999963760376,Tue May 20 2025 12:15:26 GMT-0500 (Central Daylight Time),494091.90000003576,A,d,O,d,565,1,583.5,493508.40000003576,7142,WL,C,7.0
4,12.978000164031982,learn,47021.99983596802,Tue May 20 2025 12:15:26 GMT-0500 (Central Daylight Time),494258.0,A,do,O,o,155,1,749.5999999642372,493508.40000003576,7142,WL,C,7.0
4,13.194000005722046,learn,46805.999994277954,Tue May 20 2025 12:15:26 GMT-0500 (Central Daylight Time),494474.60000002384,A,doc,O,c,207,1,966.1999999880791,493508.40000003576,7142,WL,C,7.0
4,13.51200008392334,learn,46487.99991607666,Tue May 20 2025 12:15:26 GMT-0500 (Central Daylight Time),494792.10000002384,A,doct,O,t,313,1,1283.699999988079,493508.40000003576,7142,WL,C,7.0
4,13.627000093460083,learn,46372.99990653992,Tue May 20 2025 12:15:26 GMT-0500 (Central Daylight Time),494907.0,A,docto,O,o,94,1,1398.5999999642372,493508.40000003576,7142,WL,C,7.0
4,13.726999998092651,learn,46273.00000190735,Tue May 20 2025 12:15:26 GMT-0500 (Central Daylight Time),495007.60000002384,A,doctor,O,r,92,1,1499.199999988079,493508.40000003576,7142,WL,C,7.0
4,14.094000101089478,learn,45905.99989891052,Tue May 20 2025 12:15:26 GMT-0500 (Central Daylight Time),495374.3000000119,A,doctorenter,O,enter,352,1,1865.8999999761581,493508.40000003576,7142,WL,C,7.0
4,14.360000133514404,learn,45639.999866485596,Tue May 20 2025 12:15:26 GMT-0500 (Central Daylight Time),495640.5,A,c,O,c,260,1,265.89999997615814,495374.60000002384,7142,WL,C,8.0
4,14.593000173568726,learn,45406.999826431274,Tue May 20 2025 12:15:26 GMT-0500 (Central Daylight Time),495873.7000000477,A,ca,O,a,214,1,499.10000002384186,495374.60000002384,7142,WL,C,8.0
4,14.759999990463257,learn,45240.00000953674,Tue May 20 2025 12:15:26 GMT-0500 (Central Daylight Time),496040.2000000477,A,cam,O,m,149,1,665.6000000238419,495374.60000002384,7142,WL,C,8.0
4,15.194000005722046,learn,44805.999994277954,Tue May 20 2025 12:15:26 GMT-0500 (Central Daylight Time),496473.8000000119,A,camp,O,p,424,1,1099.199999988079,495374.60000002384,7142,WL,C,8.0
4,15.759999990463257,learn,44240.00000953674,Tue May 20 2025 12:15:26 GMT-0500 (Central Daylight Time),497040.10000002384,A,campenter,O,enter,561,1,1665.5,495374.60000002384,7142,WL,C,8.0
4,16.945000171661377,learn,43054.99982833862,Tue May 20 2025 12:15:26 GMT-0500 (Central Daylight Time),498224.90000003576,A,f,O,f,1178,1,1184.5,497040.40000003576,7142,WL,C,9.0
4,17.110000133514404,learn,42889.999866485596,Tue May 20 2025 12:15:26 GMT-0500 (Central Daylight Time),498390.3000000119,A,fl,O,l,150,1,1349.8999999761581,497040.40000003576,7142,WL,C,9.0
4,17.776000022888184,learn,42223.99997711182,Tue May 20 2025 12:15:26 GMT-0500 (Central Daylight Time),499056.2000000477,A,fla,O,a,648,1,2015.800000011921,497040.40000003576,7142,WL,C,9.0
4,17.992000102996826,learn,42007.999897003174,Tue May 20 2025 12:15:26 GMT-0500 (Central Daylight Time),499271.90000003576,A,flag,O,g,199,1,2231.5,497040.40000003576,7142,WL,C,9.0
4,18.342000007629395,learn,41657.999992370605,Tue May 20 2025 12:15:26 GMT-0500 (Central Daylight Time),499622.7000000477,A,flagenter,O,enter,334,1,2582.300000011921,497040.40000003576,7142,WL,C,9.0
4,18.692000150680542,learn,41307.99984931946,Tue May 20 2025 12:15:26 GMT-0500 (Central Daylight Time),499971.8000000119,A,l,O,l,338,1,348.89999997615814,499622.90000003576,7142,WL,C,10.0
4,18.80900001525879,learn,41190.99998474121,Tue May 20 2025 12:15:26 GMT-0500 (Central Daylight Time),500089.2000000477,A,le,O,e,99,1,466.30000001192093,499622.90000003576,7142,WL,C,10.0
4,19.06000018119812,learn,40939.99981880188,Tue May 20 2025 12:15:26 GMT-0500 (Central Daylight Time),500339.90000003576,A,let,O,t,229,1,717.0,499622.90000003576,7142,WL,C,10.0
4,19.210000038146973,learn,40789.99996185303,Tue May 20 2025 12:15:26 GMT-0500 (Central Daylight Time),500490.60000002384,A,lett,O,t,139,1,867.6999999880791,499622.90000003576,7142,WL,C,10.0
4,19.375,learn,40625.0,Tue May 20 2025 12:15:26 GMT-0500 (Central Daylight Time),500655.8000000119,A,lette,O,e,150,1,1032.8999999761581,499622.90000003576,7142,WL,C,10.0
4,19.424000024795532,learn,40575.99997520447,Tue May 20 2025 12:15:26 GMT-0500 (Central Daylight Time),500704.3000000119,A,letter,O,r,39,1,1081.3999999761581,499622.90000003576,7142,WL,C,10.0
4,19.943000078201294,learn,40056.999921798706,Tue May 20 2025 12:15:26 GMT-0500 (Central Daylight Time),501223.10000002384,A,letterenter,O,enter,514,1,1600.199999988079,499622.90000003576,7142,WL,C,10.0
4,21.492000102996826,learn,38507.999897003174,Tue May 20 2025 12:15:26 GMT-0500 (Central Daylight Time),502772.10000002384,A,c,O,c,1538,1,1548.800000011921,501223.3000000119,7142,WL,C,11.0
4,21.641000032424927,learn,38358.99996757507,Tue May 20 2025 12:15:26 GMT-0500 (Central Daylight Time),502921.0,A,co,O,o,131,1,1697.699999988079,501223.3000000119,7142,WL,C,11.0
4,21.758000135421753,learn,38241.99986457825,Tue May 20 2025 12:15:26 GMT-0500 (Central Daylight Time),503038.7000000477,A,cor,O,r,102,1,1815.4000000357628,501223.3000000119,7142,WL,C,11.0
4,21.907999992370605,learn,38092.000007629395,Tue May 20 2025 12:15:26 GMT-0500 (Central Daylight Time),503188.0,A,corn,O,n,129,1,1964.699999988079,501223.3000000119,7142,WL,C,11.0
4,22.256999969482422,learn,37743.00003051758,Tue May 20 2025 12:15:26 GMT-0500 (Central Daylight Time),503537.5,A,cornenter,O,enter,340,1,2314.199999988079,501223.3000000119,7142,WL,C,11.0
4,22.70900011062622,learn,37290.99988937378,Tue May 20 2025 12:15:26 GMT-0500 (Central Daylight Time),503989.5,A,n,O,n,447,1,451.7999999523163,503537.7000000477,7142,WL,C,12.0
4,22.907999992370605,learn,37092.000007629395,Tue May 20 2025 12:15:26 GMT-0500 (Central Daylight Time),504188.10000002384,A,na,O,a,187,1,650.3999999761581,503537.7000000477,7142,WL,C,12.0
4,23.223999977111816,learn,36776.00002288818,Tue May 20 2025 12:15:26 GMT-0500 (Central Daylight Time),504504.40000003576,A,nai,O,i,310,1,966.6999999880791,503537.7000000477,7142,WL,C,12.0
4,23.425000190734863,learn,36574.99980926514,Tue May 20 2025 12:15:26 GMT-0500 (Central Daylight Time),504705.0,A,nail,O,l,184,1,1167.2999999523163,503537.7000000477,7142,WL,C,12.0
4,24.073000192642212,learn,35926.99980735779,Tue May 20 2025 12:15:26 GMT-0500 (Central Daylight Time),505353.2000000477,A,nailenter,O,enter,639,1,1815.5,503537.7000000477,7142,WL,C,12.0
4,24.575999975204468,learn,35424.00002479553,Tue May 20 2025 12:15:26 GMT-0500 (Central Daylight Time),505856.10000002384,A,c,O,c,496,1,502.69999998807907,505353.40000003576,7142,WL,C,13.0
4,24.79100012779236,learn,35208.99987220764,Tue May 20 2025 12:15:26 GMT-0500 (Central Daylight Time),506071.2000000477,A,ca,O,a,202,1,717.8000000119209,505353.40000003576,7142,WL,C,13.0
4,25.04100012779236,learn,34958.99987220764,Tue May 20 2025 12:15:26 GMT-0500 (Central Daylight Time),506321.2000000477,A,cat,O,t,234,1,967.8000000119209,505353.40000003576,7142,WL,C,13.0
4,25.19000005722046,learn,34809.99994277954,Tue May 20 2025 12:15:26 GMT-0500 (Central Daylight Time),506470.0,A,catt,O,t,134,1,1116.5999999642372,505353.40000003576,7142,WL,C,13.0
4,25.289999961853027,learn,34710.00003814697,Tue May 20 2025 12:15:26 GMT-0500 (Central Daylight Time),506570.5,A,cattl,O,l,90,1,1217.0999999642372,505353.40000003576,7142,WL,C,13.0
4,25.4060001373291,learn,34593.9998626709,Tue May 20 2025 12:15:26 GMT-0500 (Central Daylight Time),506686.5,A,cattle,O,e,95,1,1333.0999999642372,505353.40000003576,7142,WL,C,13.0
4,25.975000143051147,learn,34024.99985694885,Tue May 20 2025 12:15:26 GMT-0500 (Central Daylight Time),507255.0,A,cattleenter,O,enter,560,1,1901.5999999642372,505353.40000003576,7142,WL,C,13.0
4,26.374000072479248,learn,33625.99992752075,Tue May 20 2025 12:15:26 GMT-0500 (Central Daylight Time),507654.7000000477,A,s,O,s,386,1,399.5,507255.2000000477,7142,WL,C,14.0
4,26.506999969482422,learn,33493.00003051758,Tue May 20 2025 12:15:26 GMT-0500 (Central Daylight Time),507786.90000003576,A,sh,O,h,112,1,531.6999999880791,507255.2000000477,7142,WL,C,14.0
4,26.639000177383423,learn,33360.99982261658,Tue May 20 2025 12:15:26 GMT-0500 (Central Daylight Time),507919.10000002384,A,sho,O,o,125,1,663.8999999761581,507255.2000000477,7142,WL,C,14.0
4,26.823000192642212,learn,33176.99980735779,Tue May 20 2025 12:15:26 GMT-0500 (Central Daylight Time),508103.40000003576,A,shor,O,r,168,1,848.1999999880791,507255.2000000477,7142,WL,C,14.0
4,27.23900008201599,learn,32760.99991798401,Tue May 20 2025 12:15:26 GMT-0500 (Central Daylight Time),508518.90000003576,A,shore,O,e,409,1,1263.699999988079,507255.2000000477,7142,WL,C,14.0
4,27.623000144958496,learn,32376.999855041504,Tue May 20 2025 12:15:26 GMT-0500 (Central Daylight Time),508902.90000003576,A,shoreenter,O,enter,380,1,1647.699999988079,507255.2000000477,7142,WL,C,14.0
4,30.139000177383423,learn,29860.999822616577,Tue May 20 2025 12:15:26 GMT-0500 (Central Daylight Time),511419.2000000477,A,b,O,b,2497,1,2516.0,508903.2000000477,7142,WL,C,15.0
4,30.271000146865845,learn,29728.999853134155,Tue May 20 2025 12:15:26 GMT-0500 (Central Daylight Time),511551.3000000119,A,bo,O,o,117,1,2648.099999964237,508903.2000000477,7142,WL,C,15.0
4,30.522000074386597,learn,29477.999925613403,Tue May 20 2025 12:15:26 GMT-0500 (Central Daylight Time),511802.7000000477,A,bod,O,d,232,1,2899.5,508903.2000000477,7142,WL,C,15.0
4,30.623000144958496,learn,29376.999855041504,Tue May 20 2025 12:15:26 GMT-0500 (Central Daylight Time),511902.90000003576,A,body,O,y,86,1,2999.699999988079,508903.2000000477,7142,WL,C,15.0
4,31.271000146865845,learn,28728.999853134155,Tue May 20 2025 12:15:26 GMT-0500 (Central Daylight Time),512551.5,A,bodyenter,O,enter,633,1,3648.2999999523163,508903.2000000477,7142,WL,C,15.0
5,0.9660000801086426,learn,60000.0,Tue May 20 2025 12:15:26 GMT-0500 (Central Daylight Time),583129.2000000477,A,t,O,t,958,1,966.2000000476837,582163.0,7142,WL,C,1.0
5,1.1500000953674316,learn,60000.0,Tue May 20 2025 12:15:26 GMT-0500 (Central Daylight Time),583312.5,A,to,O,o,174,1,1149.5,582163.0,7142,WL,C,1.0
5,1.2670001983642578,learn,60000.0,Tue May 20 2025 12:15:26 GMT-0500 (Central Daylight Time),583429.9000000358,A,tow,O,w,103,1,1266.9000000357628,582163.0,7142,WL,C,1.0
5,1.4160001277923584,learn,60000.0,Tue May 20 2025 12:15:26 GMT-0500 (Central Daylight Time),583578.3000000119,A,towe,O,e,138,1,1415.300000011921,582163.0,7142,WL,C,1.0
5,1.5320000648498535,learn,60000.0,Tue May 20 2025 12:15:26 GMT-0500 (Central Daylight Time),583695.2000000477,A,tower,O,r,104,1,1532.2000000476837,582163.0,7142,WL,C,1.0
5,2.765000104904175,learn,60000.0,Tue May 20 2025 12:15:26 GMT-0500 (Central Daylight Time),584928.0,A,towerenter,O,enter,1227,1,2765.0,582163.0,7142,WL,C,1.0
5,4.514000177383423,learn,60000.0,Tue May 20 2025 12:15:26 GMT-0500 (Central Daylight Time),586677.2000000477,A,w,O,w,1735,1,1749.0,584928.2000000477,7142,WL,C,2.0
5,4.697000026702881,learn,60000.0,Tue May 20 2025 12:15:26 GMT-0500 (Central Daylight Time),586859.5,A,wh,O,h,172,1,1931.2999999523163,584928.2000000477,7142,WL,C,2.0
5,4.747000217437744,learn,60000.0,Tue May 20 2025 12:15:26 GMT-0500 (Central Daylight Time),586909.3000000119,A,whe,O,e,37,1,1981.0999999642372,584928.2000000477,7142,WL,C,2.0
5,4.880000114440918,learn,60000.0,Tue May 20 2025 12:15:26 GMT-0500 (Central Daylight Time),587042.7000000477,A,whea,O,a,122,1,2114.5,584928.2000000477,7142,WL,C,2.0
5,4.980000019073486,learn,60000.0,Tue May 20 2025 12:15:26 GMT-0500 (Central Daylight Time),587142.6000000238,A,wheat,O,t,95,1,2214.399999976158,584928.2000000477,7142,WL,C,2.0
5,5.214000225067139,learn,60000.0,Tue May 20 2025 12:15:26 GMT-0500 (Central Daylight Time),587377.1000000238,A,wheatenter,O,enter,219,1,2448.899999976158,584928.2000000477,7142,WL,C,2.0
5,5.88100004196167,learn,60000.0,Tue May 20 2025 12:15:26 GMT-0500 (Central Daylight Time),588043.3000000119,A,q,O,q,657,1,666.0999999642372,587377.2000000477,7142,WL,C,3.0
5,6.081000089645386,learn,60000.0,Tue May 20 2025 12:15:26 GMT-0500 (Central Daylight Time),588243.4000000358,A,qu,O,u,180,1,866.1999999880791,587377.2000000477,7142,WL,C,3.0
5,6.214000225067139,learn,60000.0,Tue May 20 2025 12:15:26 GMT-0500 (Central Daylight Time),588376.3000000119,A,que,O,e,118,1,999.0999999642372,587377.2000000477,7142,WL,C,3.0
5,6.382000207901001,learn,60000.0,Tue May 20 2025 12:15:26 GMT-0500 (Central Daylight Time),588544.8000000119,A,quee,O,e,153,1,1167.5999999642372,587377.2000000477,7142,WL,C,3.0
5,6.482000112533569,learn,60000.0,Tue May 20 2025 12:15:26 GMT-0500 (Central Daylight Time),588644.9000000358,A,queen,O,n,88,1,1267.699999988079,587377.2000000477,7142,WL,C,3.0
5,7.116000175476074,learn,60000.0,Tue May 20 2025 12:15:26 GMT-0500 (Central Daylight Time),589279.0,A,queenenter,O,enter,614,1,1901.7999999523163,587377.2000000477,7142,WL,C,3.0
5,7.648000001907349,learn,60000.0,Tue May 20 2025 12:15:26 GMT-0500 (Central Daylight Time),589810.9000000358,A,s,O,s,513,1,531.6000000238419,589279.3000000119,7142,WL,C,4.0
5,7.831000089645386,learn,60000.0,Tue May 20 2025 12:15:26 GMT-0500 (Central Daylight Time),589993.8000000119,A,su,O,u,166,1,714.5,589279.3000000119,7142,WL,C,4.0
5,8.065000057220459,learn,60000.0,Tue May 20 2025 12:15:26 GMT-0500 (Central Daylight Time),590227.9000000358,A,sug,O,g,214,1,948.6000000238419,589279.3000000119,7142,WL,C,4.0
5,8.19700002670288,learn,60000.0,Tue May 20 2025 12:15:26 GMT-0500 (Central Daylight Time),590360.2000000477,A,suga,O,a,113,1,1080.9000000357628,589279.3000000119,7142,WL,C,4.0
5,8.299000024795532,learn,60000.0,Tue May 20 2025 12:15:26 GMT-0500 (Central Daylight Time),590462.0,A,sugar,O,r,97,1,1182.699999988079,589279.3000000119,7142,WL,C,4.0
5,8.53000020980835,learn,60000.0,Tue May 20 2025 12:15:26 GMT-0500 (Central Daylight Time),590693.2000000477,A,sugarenter,O,enter,218,1,1413.9000000357628,589279.3000000119,7142,WL,C,4.0
5,8.897000074386597,learn,60000.0,Tue May 20 2025 12:15:26 GMT-0500 (Central Daylight Time),591059.8000000119,A,h,O,h,355,1,366.39999997615814,590693.4000000358,7142,WL,C,5.0
5,9.064000129699707,learn,60000.0,Tue May 20 2025 12:15:26 GMT-0500 (Central Daylight Time),591226.7000000477,A,ho,O,o,154,1,533.3000000119209,590693.4000000358,7142,WL,C,5.0
5,9.29800009727478,learn,60000.0,Tue May 20 2025 12:15:26 GMT-0500 (Central Daylight Time),591460.5,A,hom,O,m,223,1,767.0999999642372,590693.4000000358,7142,WL,C,5.0
5,9.414000034332275,learn,60000.0,Tue May 20 2025 12:15:26 GMT-0500 (Central Daylight Time),591576.9000000358,A,home,O,e,111,1,883.5,590693.4000000358,7142,WL,C,5.0
5,9.897000074386597,learn,60000.0,Tue May 20 2025 12:15:26 GMT-0500 (Central Daylight Time),592059.4000000358,A,homeenter,O,enter,463,1,1366.0,590693.4000000358,7142,WL,C,5.0
5,10.46500015258789,learn,60000.0,Tue May 20 2025 12:15:26 GMT-0500 (Central Daylight Time),592627.8000000119,A,b,O,b,558,1,568.0999999642372,592059.7000000477,7142,WL,C,6.0
5,10.630000114440918,learn,60000.0,Tue May 20 2025 12:15:26 GMT-0500 (Central Daylight Time),592793.2000000477,A,bo,O,o,156,1,733.5,592059.7000000477,7142,WL,C,6.0
5,10.880000114440918,learn,60000.0,Tue May 20 2025 12:15:26 GMT-0500 (Central Daylight Time),593043.1000000238,A,boy,O,y,231,1,983.3999999761581,592059.7000000477,7142,WL,C,6.0
5,11.314000129699707,learn,60000.0,Tue May 20 2025 12:15:26 GMT-0500 (Central Daylight Time),593476.5,A,boyenter,O,enter,421,1,1416.7999999523163,592059.7000000477,7142,WL,C,6.0
5,11.879000186920166,learn,60000.0,Tue May 20 2025 12:15:26 GMT-0500 (Central Daylight Time),594041.7000000477,A,d,O,d,555,1,564.8000000119209,593476.9000000358,7142,WL,C,7.0
5,12.013000011444092,learn,60000.0,Tue May 20 2025 12:15:26 GMT-0500 (Central Daylight Time),594176.2000000477,A,do,O,o,129,1,699.3000000119209,593476.9000000358,7142,WL,C,7.0
5,12.230000019073486,learn,60000.0,Tue May 20 2025 12:15:26 GMT-0500 (Central Daylight Time),594392.8000000119,A,doc,O,c,210,1,915.8999999761581,593476.9000000358,7142,WL,C,7.0
5,12.497000217437744,learn,60000.0,Tue May 20 2025 12:15:26 GMT-0500 (Central Daylight Time),594659.3000000119,A,doct,O,t,247,1,1182.3999999761581,593476.9000000358,7142,WL,C,7.0
5,12.59600019454956,learn,60000.0,Tue May 20 2025 12:15:26 GMT-0500 (Central Daylight Time),594758.9000000358,A,docto,O,o,94,1,1282.0,593476.9000000358,7142,WL,C,7.0
5,12.69700002670288,learn,60000.0,Tue May 20 2025 12:15:26 GMT-0500 (Central Daylight Time),594859.8000000119,A,doctor,O,r,86,1,1382.8999999761581,593476.9000000358,7142,WL,C,7.0
5,13.17900013923645,learn,60000.0,Tue May 20 2025 12:15:26 GMT-0500 (Central Daylight Time),595341.9000000358,A,doctorenter,O,enter,467,1,1865.0,593476.9000000358,7142,WL,C,7.0
5,14.463000059127808,learn,60000.0,Tue May 20 2025 12:15:26 GMT-0500 (Central Daylight Time),596626.3000000119,A,c,O,c,1278,1,1284.199999988079,595342.1000000238,7142,WL,C,8.0
5,14.662000179290771,learn,60000.0,Tue May 20 2025 12:15:26 GMT-0500 (Central Daylight Time),596824.3000000119,A,ca,O,a,190,1,1482.199999988079,595342.1000000238,7142,WL,C,8.0
5,14.779000043869019,learn,60000.0,Tue May 20 2025 12:15:26 GMT-0500 (Central Daylight Time),596942.1000000238,A,cam,O,m,112,1,1600.0,595342.1000000238,7142,WL,C,8.0
5,15.26200008392334,learn,60000.0,Tue May 20 2025 12:15:26 GMT-0500 (Central Daylight Time),597424.6000000238,A,camo,O,o,477,1,2082.5,595342.1000000238,7142,WL,C,8.0
5,16.07800006866455,learn,60000.0,Tue May 20 2025 12:15:26 GMT-0500 (Central Daylight Time),598241.4000000358,A,cam,O,backspace,809,1,2899.300000011921,595342.1000000238,7142,WL,C,8.0
5,16.395000219345093,learn,60000.0,Tue May 20 2025 12:15:26 GMT-0500 (Central Daylight Time),598558.1000000238,A,camp,O,p,304,1,3216.0,595342.1000000238,7142,WL,C,8.0
5,16.728000164031982,learn,60000.0,Tue May 20 2025 12:15:26 GMT-0500 (Central Daylight Time),598891.3000000119,A,campenter,O,enter,314,1,3549.199999988079,595342.1000000238,7142,WL,C,8.0
5,17.294000148773193,learn,60000.0,Tue May 20 2025 12:15:26 GMT-0500 (Central Daylight Time),599457.8000000119,A,l,O,l,561,1,566.3000000119209,598891.5,7142,WL,C,9.0
5,17.460000038146973,learn,60000.0,Tue May 20 2025 12:15:26 GMT-0500 (Central Daylight Time),599623.4000000358,A,le,O,e,151,1,731.9000000357628,598891.5,7142,WL,C,9.0
5,17.6780002117157,learn,60000.0,Tue May 20 2025 12:15:26 GMT-0500 (Central Daylight Time),599841.0,A,let,O,t,201,1,949.5,598891.5,7142,WL,C,9.0
5,17.830000162124634,learn,60000.0,Tue May 20 2025 12:15:26 GMT-0500 (Central Daylight Time),599993.2000000477,A,lett,O,t,148,1,1101.7000000476837,598891.5,7142,WL,C,9.0
5,18.16100001335144,learn,60000.0,Tue May 20 2025 12:15:26 GMT-0500 (Central Daylight Time),600324.3000000119,A,lette,O,e,311,1,1432.800000011921,598891.5,7142,WL,C,9.0
5,18.22699999809265,learn,60000.0,Tue May 20 2025 12:15:26 GMT-0500 (Central Daylight Time),600390.3000000119,A,letter,O,r,50,1,1498.800000011921,598891.5,7142,WL,C,9.0
5,18.528000116348267,learn,60000.0,Tue May 20 2025 12:15:26 GMT-0500 (Central Daylight Time),600691.0,A,letterenter,O,enter,290,1,1799.5,598891.5,7142,WL,C,9.0
5,19.22699999809265,learn,60000.0,Tue May 20 2025 12:15:26 GMT-0500 (Central Daylight Time),601390.1000000238,A,f,O,f,685,1,698.8000000119209,600691.3000000119,7142,WL,C,10.0
5,19.360000133514404,learn,60000.0,Tue May 20 2025 12:15:26 GMT-0500 (Central Daylight Time),601523.3000000119,A,fl,O,l,114,1,832.0,600691.3000000119,7142,WL,C,10.0
5,19.493000030517578,learn,60000.0,Tue May 20 2025 12:15:26 GMT-0500 (Central Daylight Time),601656.3000000119,A,fla,O,a,118,1,965.0,600691.3000000119,7142,WL,C,10.0
5,19.6780002117157,learn,60000.0,Tue May 20 2025 12:15:26 GMT-0500 (Central Daylight Time),601840.9000000358,A,flag,O,g,162,1,1149.6000000238419,600691.3000000119,7142,WL,C,10.0
5,20.41000008583069,learn,60000.0,Tue May 20 2025 12:15:26 GMT-0500 (Central Daylight Time),602573.7000000477,A,flagenter,O,enter,718,1,1882.4000000357628,600691.3000000119,7142,WL,C,10.0
5,21.759999990463257,learn,60000.0,Tue May 20 2025 12:15:26 GMT-0500 (Central Daylight Time),603923.1000000238,A,c,O,c,1330,1,1349.199999988079,602573.9000000358,7142,WL,C,11.0
5,21.861000061035156,learn,60000.0,Tue May 20 2025 12:15:26 GMT-0500 (Central Daylight Time),604024.0,A,co,O,o,95,1,1450.0999999642372,602573.9000000358,7142,WL,C,11.0
5,22.027000188827515,learn,60000.0,Tue May 20 2025 12:15:26 GMT-0500 (Central Daylight Time),604190.4000000358,A,cor,O,r,142,1,1616.5,602573.9000000358,7142,WL,C,11.0
5,22.12600016593933,learn,60000.0,Tue May 20 2025 12:15:26 GMT-0500 (Central Daylight Time),604289.5,A,corn,O,n,81,1,1715.5999999642372,602573.9000000358,7142,WL,C,11.0
5,22.45900011062622,learn,60000.0,Tue May 20 2025 12:15:26 GMT-0500 (Central Daylight Time),604622.5,A,cornenter,O,enter,317,1,2048.599999964237,602573.9000000358,7142,WL,C,11.0
5,22.89300012588501,learn,60000.0,Tue May 20 2025 12:15:26 GMT-0500 (Central Daylight Time),605055.8000000119,A,n,O,n,418,1,433.0,604622.8000000119,7142,WL,C,12.0
5,23.028000116348267,learn,60000.0,Tue May 20 2025 12:15:26 GMT-0500 (Central Daylight Time),605191.0,A,na,O,a,128,1,568.1999999880791,604622.8000000119,7142,WL,C,12.0
5,23.177000045776367,learn,60000.0,Tue May 20 2025 12:15:26 GMT-0500 (Central Daylight Time),605339.9000000358,A,nai,O,i,128,1,717.1000000238419,604622.8000000119,7142,WL,C,12.0
5,23.360000133514404,learn,60000.0,Tue May 20 2025 12:15:26 GMT-0500 (Central Daylight Time),605523.0,A,nail,O,l,163,1,900.1999999880791,604622.8000000119,7142,WL,C,12.0
5,23.859000205993652,learn,60000.0,Tue May 20 2025 12:15:26 GMT-0500 (Central Daylight Time),606022.1000000238,A,nailenter,O,enter,493,1,1399.300000011921,604622.8000000119,7142,WL,C,12.0
5,28.04200005531311,learn,60000.0,Tue May 20 2025 12:15:26 GMT-0500 (Central Daylight Time),610205.3000000119,A,c,O,c,4177,1,4182.899999976158,606022.4000000358,7142,WL,C,13.0
5,28.207000017166138,learn,60000.0,Tue May 20 2025 12:15:26 GMT-0500 (Central Daylight Time),610370.5,A,ca,O,a,154,1,4348.099999964237,606022.4000000358,7142,WL,C,13.0
5,28.457000017166138,learn,60000.0,Tue May 20 2025 12:15:26 GMT-0500 (Central Daylight Time),610620.8000000119,A,cat,O,t,238,1,4598.399999976158,606022.4000000358,7142,WL,C,13.0
5,28.625,learn,60000.0,Tue May 20 2025 12:15:26 GMT-0500 (Central Daylight Time),610788.0,A,catt,O,t,146,1,4765.599999964237,606022.4000000358,7142,WL,C,13.0
5,28.758000135421753,learn,60000.0,Tue May 20 2025 12:15:26 GMT-0500 (Central Daylight Time),610920.9000000358,A,cattl,O,l,116,1,4898.5,606022.4000000358,7142,WL,C,13.0
5,28.859000205993652,learn,60000.0,Tue May 20 2025 12:15:26 GMT-0500 (Central Daylight Time),611022.1000000238,A,cattle,O,e,79,1,4999.699999988079,606022.4000000358,7142,WL,C,13.0
5,29.19000005722046,learn,60000.0,Tue May 20 2025 12:15:26 GMT-0500 (Central Daylight Time),611353.2000000477,A,cattleenter,O,enter,321,1,5330.800000011921,606022.4000000358,7142,WL,C,13.0
5,29.558000087738037,learn,60000.0,Tue May 20 2025 12:15:26 GMT-0500 (Central Daylight Time),611721.4000000358,A,s,O,s,347,1,368.0,611353.4000000358,7142,WL,C,14.0
5,29.69000005722046,learn,60000.0,Tue May 20 2025 12:15:26 GMT-0500 (Central Daylight Time),611853.5,A,sh,O,h,118,1,500.0999999642372,611353.4000000358,7142,WL,C,14.0
5,29.824000120162964,learn,60000.0,Tue May 20 2025 12:15:26 GMT-0500 (Central Daylight Time),611987.5,A,sho,O,o,114,1,634.0999999642372,611353.4000000358,7142,WL,C,14.0
5,29.973000049591064,learn,60000.0,Tue May 20 2025 12:15:26 GMT-0500 (Central Daylight Time),612136.3000000119,A,shor,O,r,141,1,782.8999999761581,611353.4000000358,7142,WL,C,14.0
5,30.2260000705719,learn,60000.0,Tue May 20 2025 12:15:26 GMT-0500 (Central Daylight Time),612389.1000000238,A,shore,O,e,241,1,1035.699999988079,611353.4000000358,7142,WL,C,14.0
5,30.407000064849854,learn,60000.0,Tue May 20 2025 12:15:26 GMT-0500 (Central Daylight Time),612570.6000000238,A,shoreenter,O,enter,170,1,1217.199999988079,611353.4000000358,7142,WL,C,14.0
5,31.123000144958496,learn,60000.0,Tue May 20 2025 12:15:26 GMT-0500 (Central Daylight Time),613286.4000000358,A,b,O,b,710,1,715.5,612570.9000000358,7142,WL,C,15.0
5,31.457000017166138,learn,60000.0,Tue May 20 2025 12:15:26 GMT-0500 (Central Daylight Time),613620.2000000477,A,bo,O,o,313,1,1049.300000011921,612570.9000000358,7142,WL,C,15.0
5,31.657999992370605,learn,60000.0,Tue May 20 2025 12:15:26 GMT-0500 (Central Daylight Time),613821.5,A,bod,O,d,196,1,1250.5999999642372,612570.9000000358,7142,WL,C,15.0
5,31.9060001373291,learn,60000.0,Tue May 20 2025 12:15:26 GMT-0500 (Central Daylight Time),614069.0,A,body,O,y,233,1,1498.0999999642372,612570.9000000358,7142,WL,C,15.0
5,32.68900012969971,learn,60000.0,Tue May 20 2025 12:15:26 GMT-0500 (Central Daylight Time),614852.2000000477,A,bodyenter,O,enter,772,1,2281.300000011921,612570.9000000358,7142,WL,C,15.0
6,1.13100004196167,distr,58868.99995803833,Tue May 20 2025 12:15:26 GMT-0500 (Central Daylight Time),683497.0,B,s,O,s,1114,1,1131.5,682365.5,7142,WL,C,1.0
6,1.2669999599456787,distr,58733.00004005432,Tue May 20 2025 12:15:26 GMT-0500 (Central Daylight Time),683632.4000000358,B,sk,O,k,131,1,1266.9000000357628,682365.5,7142,WL,C,1.0
6,1.6649999618530273,distr,58335.00003814697,Tue May 20 2025 12:15:26 GMT-0500 (Central Daylight Time),684030.8000000119,B,sky,O,y,377,1,1665.300000011921,682365.5,7142,WL,C,1.0
6,2.2639999389648438,distr,57736.000061035156,Tue May 20 2025 12:15:26 GMT-0500 (Central Daylight Time),684629.4000000358,B,skyenter,O,enter,584,1,2263.900000035763,682365.5,7142,WL,C,1.0
6,2.9129998683929443,distr,57087.000131607056,Tue May 20 2025 12:15:26 GMT-0500 (Central Daylight Time),685279.3000000119,B,v,O,v,642,1,649.6999999880791,684629.6000000238,7142,WL,C,2.0
6,3.0490000247955322,distr,56950.99997520447,Tue May 20 2025 12:15:26 GMT-0500 (Central Daylight Time),685415.1000000238,B,va,O,a,113,1,785.5,684629.6000000238,7142,WL,C,2.0
6,3.182999849319458,distr,56817.00015068054,Tue May 20 2025 12:15:26 GMT-0500 (Central Daylight Time),685548.9000000358,B,val,O,l,119,1,919.3000000119209,684629.6000000238,7142,WL,C,2.0
6,3.365000009536743,distr,56634.99999046326,Tue May 20 2025 12:15:26 GMT-0500 (Central Daylight Time),685730.7000000477,B,vall,O,l,162,1,1101.1000000238419,684629.6000000238,7142,WL,C,2.0
6,3.4639999866485596,distr,56536.00001335144,Tue May 20 2025 12:15:26 GMT-0500 (Central Daylight Time),685829.8000000119,B,valle,O,e,84,1,1200.199999988079,684629.6000000238,7142,WL,C,2.0
6,3.5999999046325684,distr,56400.00009536743,Tue May 20 2025 12:15:26 GMT-0500 (Central Daylight Time),685966.2000000477,B,valley,O,y,114,1,1336.6000000238419,684629.6000000238,7142,WL,C,2.0
6,4.114000082015991,distr,55885.99991798401,Tue May 20 2025 12:15:26 GMT-0500 (Central Daylight Time),686480.0,B,valleyenter,O,enter,508,1,1850.3999999761581,684629.6000000238,7142,WL,C,2.0
6,4.480999946594238,distr,55519.00005340576,Tue May 20 2025 12:15:26 GMT-0500 (Central Daylight Time),686847.2000000477,B,d,O,d,348,1,366.9000000357628,686480.3000000119,7142,WL,C,3.0
6,4.63100004196167,distr,55368.99995803833,Tue May 20 2025 12:15:26 GMT-0500 (Central Daylight Time),686996.9000000358,B,do,O,o,134,1,516.6000000238419,686480.3000000119,7142,WL,C,3.0
6,5.046999931335449,distr,54953.00006866455,Tue May 20 2025 12:15:26 GMT-0500 (Central Daylight Time),687412.6000000238,B,dol,O,l,404,1,932.3000000119209,686480.3000000119,7142,WL,C,3.0
6,5.23199987411499,distr,54768.00012588501,Tue May 20 2025 12:15:26 GMT-0500 (Central Daylight Time),687597.4000000358,B,doll,O,l,179,1,1117.1000000238419,686480.3000000119,7142,WL,C,3.0
6,5.2799999713897705,distr,54720.00002861023,Tue May 20 2025 12:15:26 GMT-0500 (Central Daylight Time),687645.4000000358,B,dolla,O,a,25,1,1165.1000000238419,686480.3000000119,7142,WL,C,3.0
6,6.014999866485596,distr,53985.000133514404,Tue May 20 2025 12:15:26 GMT-0500 (Central Daylight Time),688381.1000000238,B,dollar,O,r,715,1,1900.800000011921,686480.3000000119,7142,WL,C,3.0
6,6.145999908447266,distr,53854.000091552734,Tue May 20 2025 12:15:26 GMT-0500 (Central Daylight Time),688511.8000000119,B,dollarenter,O,enter,119,1,2031.5,686480.3000000119,7142,WL,C,3.0
6,15.259000062942505,distr,44740.999937057495,Tue May 20 2025 12:15:26 GMT-0500 (Central Daylight Time),697625.1000000238,B,enter,O,enter,9105,1,9113.199999988079,688511.9000000358,7142,WL,C,4.0
6,15.626999855041504,distr,44373.000144958496,Tue May 20 2025 12:15:26 GMT-0500 (Central Daylight Time),697992.5,B,enter,O,enter,351,1,367.0999999642372,697625.4000000358,7142,WL,C,5.0
6,15.977999925613403,distr,44022.0000743866,Tue May 20 2025 12:15:26 GMT-0500 (Central Daylight Time),698343.5,B,enter,O,enter,336,1,350.69999998807907,697992.8000000119,7142,WL,C,6.0
6,16.24399995803833,distr,43756.00004196167,Tue May 20 2025 12:15:26 GMT-0500 (Central Daylight Time),698610.1000000238,B,enter,O,enter,258,1,266.39999997615814,698343.7000000477,7142,WL,C,7.0
6,16.560999870300293,distr,43439.00012969971,Tue May 20 2025 12:15:26 GMT-0500 (Central Daylight Time),698926.5,B,enter,O,enter,302,1,316.0,698610.5,7142,WL,C,8.0
6,16.927000045776367,distr,43072.99995422363,Tue May 20 2025 12:15:26 GMT-0500 (Central Daylight Time),699292.3000000119,B,enter,O,enter,354,1,365.5,698926.8000000119,7142,WL,C,9.0
6,17.312000036239624,distr,42687.999963760376,Tue May 20 2025 12:15:26 GMT-0500 (Central Daylight Time),699678.0,B,enter,O,enter,381,1,385.39999997615814,699292.6000000238,7142,WL,C,10.0
6,17.694000005722046,distr,42305.999994277954,Tue May 20 2025 12:15:26 GMT-0500 (Central Daylight Time),700059.5,B,enter,O,enter,371,1,381.19999998807907,699678.3000000119,7142,WL,C,11.0
6,18.07699990272522,distr,41923.00009727478,Tue May 20 2025 12:15:26 GMT-0500 (Central Daylight Time),700443.1000000238,B,enter,O,enter,365,1,383.39999997615814,700059.7000000477,7142,WL,C,12.0
6,18.45899987220764,distr,41541.00012779236,Tue May 20 2025 12:15:26 GMT-0500 (Central Daylight Time),700824.9000000358,B,enter,O,enter,373,1,381.4000000357628,700443.5,7142,WL,C,13.0
6,18.858999967575073,distr,41141.00003242493,Tue May 20 2025 12:15:26 GMT-0500 (Central Daylight Time),701224.2000000477,B,enter,O,enter,383,1,399.0,700825.2000000477,7142,WL,C,14.0
6,19.4760000705719,distr,40523.9999294281,Tue May 20 2025 12:15:26 GMT-0500 (Central Daylight Time),701842.2000000477,B,enter,O,enter,608,1,617.6000000238419,701224.6000000238,7142,WL,C,15.0
7,11.627000093460083,immed,48372.99990653992,Tue May 20 2025 12:15:26 GMT-0500 (Central Daylight Time),724283.8000000119,A,t,O,t,11613,1,11627.0,712656.8000000119,7142,WL,C,1.0
7,11.76200008392334,immed,48237.99991607666,Tue May 20 2025 12:15:26 GMT-0500 (Central Daylight Time),724419.3000000119,A,to,O,o,116,1,11762.5,712656.8000000119,7142,WL,C,1.0
7,11.84500002861023,immed,48154.99997138977,Tue May 20 2025 12:15:26 GMT-0500 (Central Daylight Time),724501.9000000358,A,tow,O,w,76,1,11845.100000023842,712656.8000000119,7142,WL,C,1.0
7,12.028000116348267,immed,47971.99988365173,Tue May 20 2025 12:15:26 GMT-0500 (Central Daylight Time),724685.1000000238,A,towe,O,e,161,1,12028.300000011921,712656.8000000119,7142,WL,C,1.0
7,12.110000133514404,immed,47889.999866485596,Tue May 20 2025 12:15:26 GMT-0500 (Central Daylight Time),724767.1000000238,A,tower,O,r,75,1,12110.300000011921,712656.8000000119,7142,WL,C,1.0
7,12.561000108718872,immed,47438.99989128113,Tue May 20 2025 12:15:26 GMT-0500 (Central Daylight Time),725218.1000000238,A,towerenter,O,enter,432,1,12561.300000011921,712656.8000000119,7142,WL,C,1.0
7,14.427000045776367,immed,45572.99995422363,Tue May 20 2025 12:15:26 GMT-0500 (Central Daylight Time),727084.7000000477,A,w,O,w,1846,1,1866.4000000357628,725218.3000000119,7142,WL,C,2.0
7,14.577000141143799,immed,45422.9998588562,Tue May 20 2025 12:15:26 GMT-0500 (Central Daylight Time),727234.0,A,wh,O,h,142,1,2015.699999988079,725218.3000000119,7142,WL,C,2.0
7,14.660000085830688,immed,45339.99991416931,Tue May 20 2025 12:15:26 GMT-0500 (Central Daylight Time),727316.7000000477,A,whe,O,e,71,1,2098.400000035763,725218.3000000119,7142,WL,C,2.0
7,14.825999975204468,immed,45174.00002479553,Tue May 20 2025 12:15:26 GMT-0500 (Central Daylight Time),727482.9000000358,A,whea,O,a,154,1,2264.600000023842,725218.3000000119,7142,WL,C,2.0
7,14.926000118255615,immed,45073.999881744385,Tue May 20 2025 12:15:26 GMT-0500 (Central Daylight Time),727583.0,A,wheat,O,t,93,1,2364.699999988079,725218.3000000119,7142,WL,C,2.0
7,15.309000015258789,immed,44690.99998474121,Tue May 20 2025 12:15:26 GMT-0500 (Central Daylight Time),727966.3000000119,A,wheatenter,O,enter,367,1,2748.0,725218.3000000119,7142,WL,C,2.0
7,19.424000024795532,immed,40575.99997520447,Tue May 20 2025 12:15:26 GMT-0500 (Central Daylight Time),732081.8000000119,A,q,O,q,4097,1,4115.300000011921,727966.5,7142,WL,C,3.0
7,19.657999992370605,immed,40342.000007629395,Tue May 20 2025 12:15:26 GMT-0500 (Central Daylight Time),732315.5,A,qu,O,u,223,1,4349.0,727966.5,7142,WL,C,3.0
7,20.008000135421753,immed,39991.99986457825,Tue May 20 2025 12:15:26 GMT-0500 (Central Daylight Time),732665.0,A,que,O,e,333,1,4698.5,727966.5,7142,WL,C,3.0
7,20.20800018310547,immed,39791.99981689453,Tue May 20 2025 12:15:26 GMT-0500 (Central Daylight Time),732864.8000000119,A,quee,O,e,179,1,4898.300000011921,727966.5,7142,WL,C,3.0
7,20.308000087738037,immed,39691.99991226196,Tue May 20 2025 12:15:26 GMT-0500 (Central Daylight Time),732965.6000000238,A,queen,O,n,95,1,4999.100000023842,727966.5,7142,WL,C,3.0
7,20.60700011253357,immed,39392.99988746643,Tue May 20 2025 12:15:26 GMT-0500 (Central Daylight Time),733264.1000000238,A,queenenter,O,enter,291,1,5297.600000023842,727966.5,7142,WL,C,3.0
7,21.258000135421753,immed,38741.99986457825,Tue May 20 2025 12:15:26 GMT-0500 (Central Daylight Time),733915.2000000477,A,s,O,s,640,1,650.9000000357628,733264.3000000119,7142,WL,C,4.0
7,21.473999977111816,immed,38526.00002288818,Tue May 20 2025 12:15:26 GMT-0500 (Central Daylight Time),734131.3000000119,A,su,O,u,196,1,867.0,733264.3000000119,7142,WL,C,4.0
7,21.641000032424927,immed,38358.99996757507,Tue May 20 2025 12:15:26 GMT-0500 (Central Daylight Time),734298.5,A,sug,O,g,148,1,1034.199999988079,733264.3000000119,7142,WL,C,4.0
7,21.77500009536743,immed,38224.99990463257,Tue May 20 2025 12:15:26 GMT-0500 (Central Daylight Time),734432.3000000119,A,suga,O,a,118,1,1168.0,733264.3000000119,7142,WL,C,4.0
7,21.926000118255615,immed,38073.999881744385,Tue May 20 2025 12:15:26 GMT-0500 (Central Daylight Time),734583.2000000477,A,sugar,O,r,145,1,1318.9000000357628,733264.3000000119,7142,WL,C,4.0
7,22.6560001373291,immed,37343.9998626709,Tue May 20 2025 12:15:26 GMT-0500 (Central Daylight Time),735313.5,A,sugarenter,O,enter,719,1,2049.199999988079,733264.3000000119,7142,WL,C,4.0
7,25.641000032424927,immed,34358.99996757507,Tue May 20 2025 12:15:26 GMT-0500 (Central Daylight Time),738297.7000000477,A,d,O,d,2968,1,2983.900000035763,735313.8000000119,7142,WL,C,5.0
7,25.756999969482422,immed,34243.00003051758,Tue May 20 2025 12:15:26 GMT-0500 (Central Daylight Time),738414.3000000119,A,do,O,o,101,1,3100.5,735313.8000000119,7142,WL,C,5.0
7,25.874000072479248,immed,34125.99992752075,Tue May 20 2025 12:15:26 GMT-0500 (Central Daylight Time),738531.0,A,doc,O,c,106,1,3217.199999988079,735313.8000000119,7142,WL,C,5.0
7,26.139000177383423,immed,33860.99982261658,Tue May 20 2025 12:15:26 GMT-0500 (Central Daylight Time),738796.6000000238,A,doct,O,t,253,1,3482.800000011921,735313.8000000119,7142,WL,C,5.0
7,26.256999969482422,immed,33743.00003051758,Tue May 20 2025 12:15:26 GMT-0500 (Central Daylight Time),738914.3000000119,A,docto,O,o,100,1,3600.5,735313.8000000119,7142,WL,C,5.0
7,26.338000059127808,immed,33661.99994087219,Tue May 20 2025 12:15:26 GMT-0500 (Central Daylight Time),738995.7000000477,A,doctor,O,r,70,1,3681.900000035763,735313.8000000119,7142,WL,C,5.0
7,27.038000106811523,immed,32961.99989318848,Tue May 20 2025 12:15:26 GMT-0500 (Central Daylight Time),739695.2000000477,A,doctorenter,O,enter,685,1,4381.400000035763,735313.8000000119,7142,WL,C,5.0
7,28.05400013923645,immed,31945.99986076355,Tue May 20 2025 12:15:26 GMT-0500 (Central Daylight Time),740711.5,A,h,O,h,1000,1,1016.0999999642372,739695.4000000358,7142,WL,C,6.0
7,28.19099998474121,immed,31809.00001525879,Tue May 20 2025 12:15:26 GMT-0500 (Central Daylight Time),740848.3000000119,A,ho,O,o,131,1,1152.8999999761581,739695.4000000358,7142,WL,C,6.0
7,28.437999963760376,immed,31562.000036239624,Tue May 20 2025 12:15:26 GMT-0500 (Central Daylight Time),741095.7000000477,A,hom,O,m,239,1,1400.300000011921,739695.4000000358,7142,WL,C,6.0
7,28.522000074386597,immed,31477.999925613403,Tue May 20 2025 12:15:26 GMT-0500 (Central Daylight Time),741179.1000000238,A,home,O,e,69,1,1483.699999988079,739695.4000000358,7142,WL,C,6.0
7,28.90400004386902,immed,31095.99995613098,Tue May 20 2025 12:15:26 GMT-0500 (Central Daylight Time),741560.9000000358,A,homeenter,O,enter,371,1,1865.5,739695.4000000358,7142,WL,C,6.0
7,29.519999980926514,immed,30480.000019073486,Tue May 20 2025 12:15:26 GMT-0500 (Central Daylight Time),742177.1000000238,A,b,O,b,607,1,615.8999999761581,741561.2000000477,7142,WL,C,7.0
7,29.639000177383423,immed,30360.999822616577,Tue May 20 2025 12:15:26 GMT-0500 (Central Daylight Time),742296.5,A,bo,O,o,103,1,735.2999999523163,741561.2000000477,7142,WL,C,7.0
7,29.871000051498413,immed,30128.999948501587,Tue May 20 2025 12:15:26 GMT-0500 (Central Daylight Time),742528.0,A,boy,O,y,216,1,966.7999999523163,741561.2000000477,7142,WL,C,7.0
7,30.30299997329712,immed,29697.00002670288,Tue May 20 2025 12:15:26 GMT-0500 (Central Daylight Time),742960.4000000358,A,boyenter,O,enter,425,1,1399.199999988079,741561.2000000477,7142,WL,C,7.0
7,31.972000122070312,immed,28027.999877929688,Tue May 20 2025 12:15:26 GMT-0500 (Central Daylight Time),744628.8000000119,A,c,O,c,1648,1,1668.199999988079,742960.6000000238,7142,WL,C,8.0
7,32.13700008392334,immed,27862.99991607666,Tue May 20 2025 12:15:26 GMT-0500 (Central Daylight Time),744794.2000000477,A,ca,O,a,147,1,1833.6000000238419,742960.6000000238,7142,WL,C,8.0
7,32.3050000667572,immed,27694.999933242798,Tue May 20 2025 12:15:26 GMT-0500 (Central Daylight Time),744961.9000000358,A,cam,O,m,149,1,2001.300000011921,742960.6000000238,7142,WL,C,8.0
7,32.47100019454956,immed,27528.99980545044,Tue May 20 2025 12:15:26 GMT-0500 (Central Daylight Time),745128.3000000119,A,camp,O,p,150,1,2167.699999988079,742960.6000000238,7142,WL,C,8.0
7,32.937000036239624,immed,27062.999963760376,Tue May 20 2025 12:15:26 GMT-0500 (Central Daylight Time),745594.2000000477,A,campenter,O,enter,447,1,2633.600000023842,742960.6000000238,7142,WL,C,8.0
7,33.254000186920166,immed,26745.999813079834,Tue May 20 2025 12:15:26 GMT-0500 (Central Daylight Time),745911.5,A,l,O,l,302,1,317.0999999642372,745594.4000000358,7142,WL,C,9.0
7,33.38800001144409,immed,26611.99998855591,Tue May 20 2025 12:15:26 GMT-0500 (Central Daylight Time),746045.6000000238,A,le,O,e,129,1,451.19999998807907,745594.4000000358,7142,WL,C,9.0
7,33.63800001144409,immed,26361.99998855591,Tue May 20 2025 12:15:26 GMT-0500 (Central Daylight Time),746294.9000000358,A,let,O,t,228,1,700.5,745594.4000000358,7142,WL,C,9.0
7,33.80400013923645,immed,26195.99986076355,Tue May 20 2025 12:15:26 GMT-0500 (Central Daylight Time),746461.2000000477,A,lett,O,t,154,1,866.8000000119209,745594.4000000358,7142,WL,C,9.0
7,33.95300006866455,immed,26046.99993133545,Tue May 20 2025 12:15:26 GMT-0500 (Central Daylight Time),746609.9000000358,A,lette,O,e,131,1,1015.5,745594.4000000358,7142,WL,C,9.0
7,34.03600001335144,immed,25963.99998664856,Tue May 20 2025 12:15:26 GMT-0500 (Central Daylight Time),746693.6000000238,A,letter,O,r,69,1,1099.199999988079,745594.4000000358,7142,WL,C,9.0
7,34.22100019454956,immed,25778.99980545044,Tue May 20 2025 12:15:26 GMT-0500 (Central Daylight Time),746877.9000000358,A,letterenter,O,enter,170,1,1283.5,745594.4000000358,7142,WL,C,9.0
7,34.871999979019165,immed,25128.000020980835,Tue May 20 2025 12:15:26 GMT-0500 (Central Daylight Time),747528.8000000119,A,f,O,f,635,1,650.6999999880791,746878.1000000238,7142,WL,C,10.0
7,35.019999980926514,immed,24980.000019073486,Tue May 20 2025 12:15:26 GMT-0500 (Central Daylight Time),747677.2000000477,A,fl,O,l,136,1,799.1000000238419,746878.1000000238,7142,WL,C,10.0
7,35.170000076293945,immed,24829.999923706055,Tue May 20 2025 12:15:26 GMT-0500 (Central Daylight Time),747827.0,A,fla,O,a,130,1,948.8999999761581,746878.1000000238,7142,WL,C,10.0
7,35.504000186920166,immed,24495.999813079834,Tue May 20 2025 12:15:26 GMT-0500 (Central Daylight Time),748160.8000000119,A,flag,O,g,328,1,1282.699999988079,746878.1000000238,7142,WL,C,10.0
7,35.88700008392334,immed,24112.99991607666,Tue May 20 2025 12:15:26 GMT-0500 (Central Daylight Time),748544.6000000238,A,flagenter,O,enter,367,1,1666.5,746878.1000000238,7142,WL,C,10.0
7,39.652000188827515,immed,20347.999811172485,Tue May 20 2025 12:15:26 GMT-0500 (Central Daylight Time),752308.8000000119,A,c,O,c,3752,1,3763.899999976158,748544.9000000358,7142,WL,C,11.0
7,39.78500008583069,immed,20214.99991416931,Tue May 20 2025 12:15:26 GMT-0500 (Central Daylight Time),752442.3000000119,A,co,O,o,124,1,3897.399999976158,748544.9000000358,7142,WL,C,11.0
7,39.920000076293945,immed,20079.999923706055,Tue May 20 2025 12:15:26 GMT-0500 (Central Daylight Time),752576.9000000358,A,cor,O,r,129,1,4032.0,748544.9000000358,7142,WL,C,11.0
7,40.03600001335144,immed,19963.99998664856,Tue May 20 2025 12:15:26 GMT-0500 (Central Daylight Time),752693.2000000477,A,corn,O,n,109,1,4148.300000011921,748544.9000000358,7142,WL,C,11.0
7,40.384000062942505,immed,19615.999937057495,Tue May 20 2025 12:15:26 GMT-0500 (Central Daylight Time),753041.1000000238,A,cornenter,O,enter,337,1,4496.199999988079,748544.9000000358,7142,WL,C,11.0
7,41.367000102996826,immed,18632.999897003174,Tue May 20 2025 12:15:26 GMT-0500 (Central Daylight Time),754024.7000000477,A,n,O,n,963,1,983.3000000119209,753041.4000000358,7142,WL,C,12.0
7,41.58500003814697,immed,18414.999961853027,Tue May 20 2025 12:15:26 GMT-0500 (Central Daylight Time),754242.2000000477,A,na,O,a,198,1,1200.800000011921,753041.4000000358,7142,WL,C,12.0
7,41.78500008583069,immed,18214.99991416931,Tue May 20 2025 12:15:26 GMT-0500 (Central Daylight Time),754441.9000000358,A,nai,O,i,190,1,1400.5,753041.4000000358,7142,WL,C,12.0
7,41.985000133514404,immed,18014.999866485596,Tue May 20 2025 12:15:26 GMT-0500 (Central Daylight Time),754641.7000000477,A,nail,O,l,181,1,1600.300000011921,753041.4000000358,7142,WL,C,12.0
7,42.33400011062622,immed,17665.99988937378,Tue May 20 2025 12:15:26 GMT-0500 (Central Daylight Time),754991.4000000358,A,nailenter,O,enter,332,1,1950.0,753041.4000000358,7142,WL,C,12.0
7,43.98399996757507,immed,16016.000032424927,Tue May 20 2025 12:15:26 GMT-0500 (Central Daylight Time),756641.1000000238,A,s,O,s,1641,1,1649.3999999761581,754991.7000000477,7142,WL,C,13.0
7,44.15000009536743,immed,15849.999904632568,Tue May 20 2025 12:15:26 GMT-0500 (Central Daylight Time),756807.5,A,sh,O,h,145,1,1815.7999999523163,754991.7000000477,7142,WL,C,13.0
7,44.25,immed,15750.0,Tue May 20 2025 12:15:26 GMT-0500 (Central Daylight Time),756906.9000000358,A,sho,O,o,76,1,1915.199999988079,754991.7000000477,7142,WL,C,13.0
7,44.40000009536743,immed,15599.999904632568,Tue May 20 2025 12:15:26 GMT-0500 (Central Daylight Time),757057.8000000119,A,shor,O,r,144,1,2066.099999964237,754991.7000000477,7142,WL,C,13.0
7,44.58300018310547,immed,15416.999816894531,Tue May 20 2025 12:15:26 GMT-0500 (Central Daylight Time),757240.2000000477,A,shore,O,e,165,1,2248.5,754991.7000000477,7142,WL,C,13.0
7,45.25,immed,14750.0,Tue May 20 2025 12:15:26 GMT-0500 (Central Daylight Time),757907.5,A,shoreenter,O,enter,647,1,2915.7999999523163,754991.7000000477,7142,WL,C,13.0
7,45.60000014305115,immed,14399.999856948853,Tue May 20 2025 12:15:26 GMT-0500 (Central Daylight Time),758257.0,A,c,O,c,329,1,349.19999998807907,757907.8000000119,7142,WL,C,14.0
7,45.80000019073486,immed,14199.999809265137,Tue May 20 2025 12:15:26 GMT-0500 (Central Daylight Time),758457.2000000477,A,ca,O,a,182,1,549.4000000357628,757907.8000000119,7142,WL,C,14.0
7,46.032999992370605,immed,13967.000007629395,Tue May 20 2025 12:15:26 GMT-0500 (Central Daylight Time),758690.4000000358,A,cat,O,t,213,1,782.6000000238419,757907.8000000119,7142,WL,C,14.0
7,46.200000047683716,immed,13799.999952316284,Tue May 20 2025 12:15:26 GMT-0500 (Central Daylight Time),758857.2000000477,A,catt,O,t,150,1,949.4000000357628,757907.8000000119,7142,WL,C,14.0
7,46.30000019073486,immed,13699.999809265137,Tue May 20 2025 12:15:26 GMT-0500 (Central Daylight Time),758957.6000000238,A,cattl,O,l,79,1,1049.800000011921,757907.8000000119,7142,WL,C,14.0
7,46.38300013542175,immed,13616.999864578247,Tue May 20 2025 12:15:26 GMT-0500 (Central Daylight Time),759040.6000000238,A,cattle,O,e,75,1,1132.800000011921,757907.8000000119,7142,WL,C,14.0
7,46.616000175476074,immed,13383.999824523926,Tue May 20 2025 12:15:26 GMT-0500 (Central Daylight Time),759272.9000000358,A,cattleenter,O,enter,222,1,1365.1000000238419,757907.8000000119,7142,WL,C,14.0
7,47.54800009727478,immed,12451.99990272522,Tue May 20 2025 12:15:26 GMT-0500 (Central Daylight Time),760205.5,A,b,O,b,920,1,932.3999999761581,759273.1000000238,7142,WL,C,15.0
7,47.68300008773804,immed,12316.999912261963,Tue May 20 2025 12:15:26 GMT-0500 (Central Daylight Time),760339.8000000119,A,bo,O,o,121,1,1066.699999988079,759273.1000000238,7142,WL,C,15.0
7,47.835999965667725,immed,12164.000034332275,Tue May 20 2025 12:15:26 GMT-0500 (Central Daylight Time),760493.2000000477,A,bod,O,d,131,1,1220.1000000238419,759273.1000000238,7142,WL,C,15.0
7,48.13300013542175,immed,11866.999864578247,Tue May 20 2025 12:15:26 GMT-0500 (Central Daylight Time),760790.3000000119,A,body,O,y,292,1,1517.199999988079,759273.1000000238,7142,WL,C,15.0
7,48.53200006484985,immed,11467.999935150146,Tue May 20 2025 12:15:26 GMT-0500 (Central Daylight Time),761189.1000000238,A,bodyenter,O,enter,376,1,1916.0,759273.1000000238,7142,WL,C,15.0
