acc_sum,block,block_c,block_cond,con_img,correct,correct_response,datetime,endtime,face,jitter,line,project,response,response_time,row_sel,session_number,start_end,starttime,subject_id,task,task_vers,trial
0,prac,1,A,haborder.png,0,z,Wed Mar 25 2026 09:51:56 GMT-0500 (Central Daylight Time),70299.5,CFD-BF-002-018-A.jpg,1200,solid,O,None,1516,6,1,3484.7999999523163,66814.70000004768,7786,ATS,C,1
1,prac,1,A,haborder.png,1,m,Wed Mar 25 2026 09:51:56 GMT-0500 (Central Daylight Time),73680.20000004768,CFD-BM-022-004-HC.jpg,1500,solid,O,m,1090,3,1,6865.5,66814.70000004768,7786,ATS,C,2
2,prac,1,A,haborder.png,1,m,Wed Mar 25 2026 09:51:56 GMT-0500 (Central Daylight Time),77247.09999990463,CFD-BM-034-035-HC.jpg,1700,solid,O,m,1068,1,1,10432.399999856949,66814.70000004768,7786,ATS,C,3
2,prac,1,A,haborder.png,0,m,Wed Mar 25 2026 09:51:56 GMT-0500 (Central Daylight Time),81260.0,CFD-BF-019-004-HC.jpg,2000,solid,O,z,1230,5,1,14445.299999952316,66814.70000004768,7786,ATS,C,4
3,prac,1,A,haborder.png,1,m,Wed Mar 25 2026 09:51:56 GMT-0500 (Central Daylight Time),84576.29999995232,CFD-WM-035-036-HC.jpg,1700,solid,O,m,831,9,1,17761.599999904633,66814.70000004768,7786,ATS,C,5
4,prac,1,A,haborder.png,1,z,Wed Mar 25 2026 09:51:56 GMT-0500 (Central Daylight Time),87875.59999990463,CFD-BM-043-014-A.jpg,1600,solid,O,z,913,2,1,21060.89999985695,66814.70000004768,7786,ATS,C,6
5,prac,1,A,haborder.png,1,z,Wed Mar 25 2026 09:51:56 GMT-0500 (Central Daylight Time),91391.29999995232,CFD-WM-036-018-A.jpg,1900,solid,O,z,825,8,1,24576.599999904633,66814.70000004768,7786,ATS,C,7
6,prac,1,A,haborder.png,1,z,Wed Mar 25 2026 09:51:56 GMT-0500 (Central Daylight Time),94739.09999990463,CFD-WF-037-016-A.jpg,1600,solid,O,z,954,10,1,27924.39999985695,66814.70000004768,7786,ATS,C,8
7,prac,1,A,haborder.png,1,m,Wed Mar 25 2026 09:51:56 GMT-0500 (Central Daylight Time),97672.09999990463,CFD-WM-028-005-HC.jpg,1400,solid,O,m,742,7,1,30857.39999985695,66814.70000004768,7786,ATS,C,9
8,prac,1,A,haborder.png,1,z,Wed Mar 25 2026 09:51:56 GMT-0500 (Central Daylight Time),100336.70000004768,CFD-BF-031-020-A.jpg,1000,solid,O,z,872,4,1,33522.0,66814.70000004768,7786,ATS,C,10
9,prac,1,A,haborder.png,1,m,Wed Mar 25 2026 09:51:56 GMT-0500 (Central Daylight Time),103306.79999995232,CFD-WF-013-009-HC.jpg,1500,solid,O,m,702,11,1,36492.09999990463,66814.70000004768,7786,ATS,C,11
10,prac,1,A,haborder.png,1,z,Wed Mar 25 2026 09:51:56 GMT-0500 (Central Daylight Time),105902.0,CFD-WF-023-013-A.jpg,1000,solid,O,z,801,12,1,39087.299999952316,66814.70000004768,7786,ATS,C,12
0,prac,1,B,mfborder.png,0,z,Wed Mar 25 2026 09:51:56 GMT-0500 (Central Daylight Time),144491.29999995232,CFD-WF-001-010-HC.jpg,1900,8,O,None,1516,dash,1,4199.0,140292.29999995232,7786,ATS,C,1
1,prac,1,B,mfborder.png,1,m,Wed Mar 25 2026 09:51:56 GMT-0500 (Central Daylight Time),147923.79999995232,CFD-BM-021-026-A.jpg,1600,2,O,m,1053,dash,1,7631.5,140292.29999995232,7786,ATS,C,2
2,prac,1,B,mfborder.png,1,m,Wed Mar 25 2026 09:51:56 GMT-0500 (Central Daylight Time),151106.0,CFD-WM-036-018-A.jpg,1700,9,O,m,716,dash,1,10813.700000047684,140292.29999995232,7786,ATS,C,3
3,prac,1,B,mfborder.png,1,z,Wed Mar 25 2026 09:51:56 GMT-0500 (Central Daylight Time),153620.59999990463,CFD-BF-031-020-A.jpg,1000,4,O,z,719,dash,1,13328.299999952316,140292.29999995232,7786,ATS,C,4
4,prac,1,B,mfborder.png,1,m,Wed Mar 25 2026 09:51:56 GMT-0500 (Central Daylight Time),156288.20000004768,CFD-WM-034-040-A.jpg,1200,6,O,m,683,dash,1,15995.900000095367,140292.29999995232,7786,ATS,C,5
5,prac,1,B,mfborder.png,1,z,Wed Mar 25 2026 09:51:56 GMT-0500 (Central Daylight Time),159320.29999995232,CFD-WF-013-009-HC.jpg,1000,12,O,z,1245,dash,1,19028.0,140292.29999995232,7786,ATS,C,6
6,prac,1,B,mfborder.png,1,m,Wed Mar 25 2026 09:51:56 GMT-0500 (Central Daylight Time),162301.40000009537,CFD-WM-035-036-HC.jpg,1600,10,O,m,592,dash,1,22009.10000014305,140292.29999995232,7786,ATS,C,7
7,prac,1,B,mfborder.png,1,m,Wed Mar 25 2026 09:51:56 GMT-0500 (Central Daylight Time),166250.79999995232,CFD-BM-043-014-A.jpg,2000,5,O,m,1154,dash,1,25958.5,140292.29999995232,7786,ATS,C,8
8,prac,1,B,mfborder.png,1,z,Wed Mar 25 2026 09:51:56 GMT-0500 (Central Daylight Time),169116.5,CFD-BF-019-004-HC.jpg,1400,7,O,z,667,dash,1,28824.200000047684,140292.29999995232,7786,ATS,C,9
9,prac,1,B,mfborder.png,1,z,Wed Mar 25 2026 09:51:56 GMT-0500 (Central Daylight Time),171983.79999995232,CFD-WF-037-016-A.jpg,1500,11,O,z,594,dash,1,31691.5,140292.29999995232,7786,ATS,C,10
10,prac,1,B,mfborder.png,1,m,Wed Mar 25 2026 09:51:56 GMT-0500 (Central Daylight Time),175331.5,CFD-BM-022-004-HC.jpg,1700,1,O,m,848,dash,1,35039.200000047684,140292.29999995232,7786,ATS,C,11
10,prac,1,B,mfborder.png,0,z,Wed Mar 25 2026 09:51:56 GMT-0500 (Central Daylight Time),178515.20000004768,CFD-BF-042-031-HC.jpg,1500,3,O,m,914,dash,1,38222.90000009537,140292.29999995232,7786,ATS,C,12
1,test,1,A,haborder.png,1,z,Wed Mar 25 2026 09:51:56 GMT-0500 (Central Daylight Time),197959.20000004768,CFD-WM-036-018-A.jpg,1900,solid,O,z,1038,8,1,2966.9000000953674,194992.29999995232,7786,ATS,C,1
2,test,1,A,haborder.png,1,z,Wed Mar 25 2026 09:51:56 GMT-0500 (Central Daylight Time),199824.09999990463,CFD-BF-031-020-A.jpg,1000,solid,O,z,835,4,1,4831.799999952316,194992.29999995232,7786,ATS,C,2
3,test,1,A,haborder.png,1,m,Wed Mar 25 2026 09:51:56 GMT-0500 (Central Daylight Time),201822.79999995232,CFD-WM-028-005-HC.jpg,1400,solid,O,m,566,7,1,6830.5,194992.29999995232,7786,ATS,C,3
4,test,1,A,haborder.png,1,z,Wed Mar 25 2026 09:51:56 GMT-0500 (Central Daylight Time),203555.40000009537,CFD-WF-023-013-A.jpg,1000,solid,O,z,705,12,1,8563.100000143051,194992.29999995232,7786,ATS,C,4
4,test,1,A,haborder.png,0,z,Wed Mar 25 2026 09:51:56 GMT-0500 (Central Daylight Time),206287.79999995232,CFD-BM-043-014-A.jpg,1600,solid,O,m,1110,2,1,11295.5,194992.29999995232,7786,ATS,C,5
5,test,1,A,haborder.png,1,z,Wed Mar 25 2026 09:51:56 GMT-0500 (Central Daylight Time),208904.09999990463,CFD-WM-036-018-A.jpg,1900,solid,O,z,693,8,1,13911.799999952316,194992.29999995232,7786,ATS,C,6
6,test,1,A,haborder.png,1,m,Wed Mar 25 2026 09:51:56 GMT-0500 (Central Daylight Time),211186.40000009537,CFD-WM-035-036-HC.jpg,1700,solid,O,m,557,9,1,16194.100000143051,194992.29999995232,7786,ATS,C,7
7,test,1,A,haborder.png,1,z,Wed Mar 25 2026 09:51:56 GMT-0500 (Central Daylight Time),213451.09999990463,CFD-WF-037-016-A.jpg,1600,solid,O,z,638,10,1,18458.799999952316,194992.29999995232,7786,ATS,C,8
8,test,1,A,haborder.png,1,m,Wed Mar 25 2026 09:51:56 GMT-0500 (Central Daylight Time),215601.40000009537,CFD-WF-013-009-HC.jpg,1500,solid,O,m,617,11,1,20609.10000014305,194992.29999995232,7786,ATS,C,9
8,test,1,A,haborder.png,0,z,Wed Mar 25 2026 09:51:56 GMT-0500 (Central Daylight Time),217783.79999995232,CFD-BF-002-018-A.jpg,1200,solid,O,m,959,6,1,22791.5,194992.29999995232,7786,ATS,C,10
9,test,1,A,haborder.png,1,m,Wed Mar 25 2026 09:51:56 GMT-0500 (Central Daylight Time),220001.29999995232,CFD-BM-022-004-HC.jpg,1500,solid,O,m,694,3,1,25009.0,194992.29999995232,7786,ATS,C,11
10,test,1,A,haborder.png,1,m,Wed Mar 25 2026 09:51:56 GMT-0500 (Central Daylight Time),222249.09999990463,CFD-BM-022-004-HC.jpg,1500,solid,O,m,716,3,1,27256.799999952316,194992.29999995232,7786,ATS,C,12
11,test,1,A,haborder.png,1,z,Wed Mar 25 2026 09:51:56 GMT-0500 (Central Daylight Time),224698.40000009537,CFD-BM-043-014-A.jpg,1600,solid,O,z,815,2,1,29706.10000014305,194992.29999995232,7786,ATS,C,13
12,test,1,A,haborder.png,1,m,Wed Mar 25 2026 09:51:56 GMT-0500 (Central Daylight Time),227132.20000004768,CFD-WM-035-036-HC.jpg,1700,solid,O,m,707,9,1,32139.900000095367,194992.29999995232,7786,ATS,C,14
13,test,1,A,haborder.png,1,m,Wed Mar 25 2026 09:51:56 GMT-0500 (Central Daylight Time),229680.79999995232,CFD-BM-034-035-HC.jpg,1700,solid,O,m,817,1,1,34688.5,194992.29999995232,7786,ATS,C,15
14,test,1,A,haborder.png,1,m,Wed Mar 25 2026 09:51:56 GMT-0500 (Central Daylight Time),232181.59999990463,CFD-BM-034-035-HC.jpg,1700,solid,O,m,770,1,1,37189.299999952316,194992.29999995232,7786,ATS,C,16
15,test,1,A,haborder.png,1,z,Wed Mar 25 2026 09:51:56 GMT-0500 (Central Daylight Time),233812.20000004768,CFD-BF-031-020-A.jpg,1000,solid,O,z,612,4,1,38819.90000009537,194992.29999995232,7786,ATS,C,17
16,test,1,A,haborder.png,1,m,Wed Mar 25 2026 09:51:56 GMT-0500 (Central Daylight Time),236878.20000004768,CFD-BF-019-004-HC.jpg,2000,solid,O,m,1036,5,1,41885.90000009537,194992.29999995232,7786,ATS,C,18
17,test,1,A,haborder.png,1,z,Wed Mar 25 2026 09:51:56 GMT-0500 (Central Daylight Time),238660.40000009537,CFD-WF-023-013-A.jpg,1000,solid,O,z,752,12,1,43668.10000014305,194992.29999995232,7786,ATS,C,19
18,test,1,A,haborder.png,1,m,Wed Mar 25 2026 09:51:56 GMT-0500 (Central Daylight Time),240877.0,CFD-WF-013-009-HC.jpg,1500,solid,O,m,694,11,1,45884.700000047684,194992.29999995232,7786,ATS,C,20
19,test,1,A,haborder.png,1,m,Wed Mar 25 2026 09:51:56 GMT-0500 (Central Daylight Time),243076.90000009537,CFD-WM-028-005-HC.jpg,1400,solid,O,m,782,7,1,48084.60000014305,194992.29999995232,7786,ATS,C,21
20,test,1,A,haborder.png,1,z,Wed Mar 25 2026 09:51:56 GMT-0500 (Central Daylight Time),245275.29999995232,CFD-WF-037-016-A.jpg,1600,solid,O,z,573,10,1,50283.0,194992.29999995232,7786,ATS,C,22
21,test,1,A,haborder.png,1,z,Wed Mar 25 2026 09:51:56 GMT-0500 (Central Daylight Time),247026.20000004768,CFD-BF-002-018-A.jpg,1200,solid,O,z,534,6,1,52033.90000009537,194992.29999995232,7786,ATS,C,23
22,test,1,A,haborder.png,1,m,Wed Mar 25 2026 09:51:56 GMT-0500 (Central Daylight Time),249841.09999990463,CFD-BF-019-004-HC.jpg,2000,solid,O,m,783,5,1,54848.799999952316,194992.29999995232,7786,ATS,C,24
0,test,1,B,mfborder.png,0,z,Wed Mar 25 2026 09:51:56 GMT-0500 (Central Daylight Time),263320.7000000477,CFD-WF-013-009-HC.jpg,1000,dash,O,None,1516,12,1,2532.2999999523163,260788.40000009537,7786,ATS,C,1
1,test,1,B,mfborder.png,1,m,Wed Mar 25 2026 09:51:56 GMT-0500 (Central Daylight Time),265534.59999990463,CFD-BM-021-026-A.jpg,1600,dash,O,m,593,2,1,4746.199999809265,260788.40000009537,7786,ATS,C,2
2,test,1,B,mfborder.png,1,z,Wed Mar 25 2026 09:51:56 GMT-0500 (Central Daylight Time),267751.59999990463,CFD-WF-037-016-A.jpg,1500,dash,O,z,692,11,1,6963.199999809265,260788.40000009537,7786,ATS,C,3
3,test,1,B,mfborder.png,1,z,Wed Mar 25 2026 09:51:56 GMT-0500 (Central Daylight Time),269368.09999990463,CFD-BF-031-020-A.jpg,1000,dash,O,z,584,4,1,8579.699999809265,260788.40000009537,7786,ATS,C,4
4,test,1,B,mfborder.png,1,z,Wed Mar 25 2026 09:51:56 GMT-0500 (Central Daylight Time),271400.40000009537,CFD-BF-019-004-HC.jpg,1400,dash,O,z,613,7,1,10612.0,260788.40000009537,7786,ATS,C,5
5,test,1,B,mfborder.png,1,m,Wed Mar 25 2026 09:51:56 GMT-0500 (Central Daylight Time),273784.2000000477,CFD-WM-036-018-A.jpg,1700,dash,O,m,661,9,1,12995.799999952316,260788.40000009537,7786,ATS,C,6
6,test,1,B,mfborder.png,1,z,Wed Mar 25 2026 09:51:56 GMT-0500 (Central Daylight Time),276014.40000009537,CFD-WF-037-016-A.jpg,1500,dash,O,z,711,11,1,15226.0,260788.40000009537,7786,ATS,C,7
7,test,1,B,mfborder.png,1,z,Wed Mar 25 2026 09:51:56 GMT-0500 (Central Daylight Time),277632.0,CFD-WF-013-009-HC.jpg,1000,dash,O,z,594,12,1,16843.599999904633,260788.40000009537,7786,ATS,C,8
8,test,1,B,mfborder.png,1,m,Wed Mar 25 2026 09:51:56 GMT-0500 (Central Daylight Time),279998.2000000477,CFD-WM-036-018-A.jpg,1700,dash,O,m,633,9,1,19209.799999952316,260788.40000009537,7786,ATS,C,9
9,test,1,B,mfborder.png,1,m,Wed Mar 25 2026 09:51:56 GMT-0500 (Central Daylight Time),282230.2999999523,CFD-BM-021-026-A.jpg,1600,dash,O,m,615,2,1,21441.89999985695,260788.40000009537,7786,ATS,C,10
10,test,1,B,mfborder.png,1,z,Wed Mar 25 2026 09:51:56 GMT-0500 (Central Daylight Time),284828.7999999523,CFD-WF-001-010-HC.jpg,1900,dash,O,z,681,8,1,24040.39999985695,260788.40000009537,7786,ATS,C,11
11,test,1,B,mfborder.png,1,z,Wed Mar 25 2026 09:51:56 GMT-0500 (Central Daylight Time),287078.2999999523,CFD-BF-042-031-HC.jpg,1500,dash,O,z,720,3,1,26289.89999985695,260788.40000009537,7786,ATS,C,12
12,test,1,B,mfborder.png,1,m,Wed Mar 25 2026 09:51:56 GMT-0500 (Central Daylight Time),289411.5,CFD-WM-035-036-HC.jpg,1600,dash,O,m,707,10,1,28623.099999904633,260788.40000009537,7786,ATS,C,13
13,test,1,B,mfborder.png,1,m,Wed Mar 25 2026 09:51:56 GMT-0500 (Central Daylight Time),291276.59999990463,CFD-WM-034-040-A.jpg,1200,dash,O,m,646,6,1,30488.199999809265,260788.40000009537,7786,ATS,C,14
14,test,1,B,mfborder.png,1,m,Wed Mar 25 2026 09:51:56 GMT-0500 (Central Daylight Time),293892.5,CFD-BM-043-014-A.jpg,2000,dash,O,m,587,5,1,33104.09999990463,260788.40000009537,7786,ATS,C,15
15,test,1,B,mfborder.png,1,z,Wed Mar 25 2026 09:51:56 GMT-0500 (Central Daylight Time),296092.09999990463,CFD-BF-019-004-HC.jpg,1400,dash,O,z,780,7,1,35303.699999809265,260788.40000009537,7786,ATS,C,16
16,test,1,B,mfborder.png,1,m,Wed Mar 25 2026 09:51:56 GMT-0500 (Central Daylight Time),298540.7999999523,CFD-BM-022-004-HC.jpg,1700,dash,O,m,729,1,1,37752.39999985695,260788.40000009537,7786,ATS,C,17
17,test,1,B,mfborder.png,1,m,Wed Mar 25 2026 09:51:56 GMT-0500 (Central Daylight Time),300490.5,CFD-WM-034-040-A.jpg,1200,dash,O,m,723,6,1,39702.09999990463,260788.40000009537,7786,ATS,C,18
18,test,1,B,mfborder.png,1,z,Wed Mar 25 2026 09:51:56 GMT-0500 (Central Daylight Time),302689.7000000477,CFD-BF-042-031-HC.jpg,1500,dash,O,z,666,3,1,41901.299999952316,260788.40000009537,7786,ATS,C,19
19,test,1,B,mfborder.png,1,z,Wed Mar 25 2026 09:51:56 GMT-0500 (Central Daylight Time),304539.40000009537,CFD-BF-031-020-A.jpg,1000,dash,O,z,832,4,1,43751.0,260788.40000009537,7786,ATS,C,20
20,test,1,B,mfborder.png,1,m,Wed Mar 25 2026 09:51:56 GMT-0500 (Central Daylight Time),306822.7000000477,CFD-WM-035-036-HC.jpg,1600,dash,O,m,662,10,1,46034.299999952316,260788.40000009537,7786,ATS,C,21
21,test,1,B,mfborder.png,1,z,Wed Mar 25 2026 09:51:56 GMT-0500 (Central Daylight Time),309487.5,CFD-WF-001-010-HC.jpg,1900,dash,O,z,743,8,1,48699.09999990463,260788.40000009537,7786,ATS,C,22
22,test,1,B,mfborder.png,1,m,Wed Mar 25 2026 09:51:56 GMT-0500 (Central Daylight Time),311754.7999999523,CFD-BM-022-004-HC.jpg,1700,dash,O,m,533,1,1,50966.39999985695,260788.40000009537,7786,ATS,C,23
23,test,1,B,mfborder.png,1,m,Wed Mar 25 2026 09:51:56 GMT-0500 (Central Daylight Time),314402.90000009537,CFD-BM-043-014-A.jpg,2000,dash,O,m,623,5,1,53614.5,260788.40000009537,7786,ATS,C,24
0,prac,1,C,mfborder.png,0,m,Wed Mar 25 2026 09:51:56 GMT-0500 (Central Daylight Time),364055.09999990463,CFD-BM-043-014-A.jpg,1200,dash,O,None,1517,5,1,3499.0999999046326,360556.0,7786,ATS,C,1
0,prac,1,C,mfborder.png,0,m,Wed Mar 25 2026 09:51:56 GMT-0500 (Central Daylight Time),368036.7999999523,CFD-WM-036-018-A.jpg,1700,solid,O,None,1514,5,1,7480.799999952316,360556.0,7786,ATS,C,2
1,prac,1,C,mfborder.png,1,z,Wed Mar 25 2026 09:51:56 GMT-0500 (Central Daylight Time),371468.09999990463,CFD-WF-013-009-HC.jpg,1600,dash,O,z,1038,5,1,10912.099999904633,360556.0,7786,ATS,C,3
2,prac,1,C,mfborder.png,1,z,Wed Mar 25 2026 09:51:56 GMT-0500 (Central Daylight Time),374034.7999999523,CFD-BF-019-004-HC.jpg,1000,dash,O,z,784,5,1,13478.799999952316,360556.0,7786,ATS,C,4
3,prac,1,C,mfborder.png,1,m,Wed Mar 25 2026 09:51:56 GMT-0500 (Central Daylight Time),377667.0,CFD-BM-034-035-HC.jpg,2000,solid,O,m,862,5,1,17111.0,360556.0,7786,ATS,C,5
4,prac,1,C,haborder.png,1,m,Wed Mar 25 2026 09:51:56 GMT-0500 (Central Daylight Time),381016.5,CFD-BM-022-004-HC.jpg,1500,solid,O,m,1060,5,1,20460.5,360556.0,7786,ATS,C,6
5,prac,1,C,mfborder.png,1,z,Wed Mar 25 2026 09:51:56 GMT-0500 (Central Daylight Time),384047.7999999523,CFD-WF-023-013-A.jpg,1500,solid,O,z,741,5,1,23491.799999952316,360556.0,7786,ATS,C,7
6,prac,1,C,haborder.png,1,z,Wed Mar 25 2026 09:51:56 GMT-0500 (Central Daylight Time),387763.40000009537,CFD-BF-031-020-A.jpg,1900,dash,O,z,1022,5,1,27207.400000095367,360556.0,7786,ATS,C,8
7,prac,1,C,haborder.png,1,m,Wed Mar 25 2026 09:51:56 GMT-0500 (Central Daylight Time),390394.09999990463,CFD-WM-028-005-HC.jpg,1000,dash,O,m,834,5,1,29838.099999904633,360556.0,7786,ATS,C,9
7,prac,1,C,haborder.png,0,z,Wed Mar 25 2026 09:51:56 GMT-0500 (Central Daylight Time),393395.0,CFD-WF-037-016-A.jpg,1600,dash,O,m,611,5,1,32839.0,360556.0,7786,ATS,C,10
7,prac,1,C,haborder.png,0,z,Wed Mar 25 2026 09:51:56 GMT-0500 (Central Daylight Time),397394.40000009537,CFD-BF-002-018-A.jpg,1700,solid,O,None,1516,5,1,36838.40000009537,360556.0,7786,ATS,C,11
8,prac,1,C,haborder.png,1,m,Wed Mar 25 2026 09:51:56 GMT-0500 (Central Daylight Time),400277.2000000477,CFD-WM-028-005-HC.jpg,1400,solid,O,m,702,5,1,39721.200000047684,360556.0,7786,ATS,C,12
0,prac,2,C,mfborder.png,0,m,Wed Mar 25 2026 09:51:56 GMT-0500 (Central Daylight Time),407757.59999990463,CFD-BM-043-014-A.jpg,1200,dash,O,None,1516,5,1,47201.59999990463,360556.0,7786,ATS,C,1
0,prac,2,C,haborder.png,0,z,Wed Mar 25 2026 09:51:56 GMT-0500 (Central Daylight Time),411955.40000009537,CFD-BF-031-020-A.jpg,1900,dash,O,None,1515,5,1,51399.40000009537,360556.0,7786,ATS,C,2
0,prac,2,C,haborder.png,0,z,Wed Mar 25 2026 09:51:56 GMT-0500 (Central Daylight Time),415954.59999990463,CFD-BF-002-018-A.jpg,1700,solid,O,None,1515,5,1,55398.59999990463,360556.0,7786,ATS,C,3
0,prac,2,C,haborder.png,0,m,Wed Mar 25 2026 09:51:56 GMT-0500 (Central Daylight Time),419253.7999999523,CFD-WM-028-005-HC.jpg,1000,dash,O,None,1515,5,1,58697.799999952316,360556.0,7786,ATS,C,4
1,prac,2,C,mfborder.png,1,m,Wed Mar 25 2026 09:51:56 GMT-0500 (Central Daylight Time),423101.5,CFD-WM-036-018-A.jpg,1700,solid,O,m,1351,5,1,62545.5,360556.0,7786,ATS,C,5
2,prac,2,C,haborder.png,1,m,Wed Mar 25 2026 09:51:56 GMT-0500 (Central Daylight Time),426201.90000009537,CFD-BM-022-004-HC.jpg,1500,solid,O,m,822,5,1,65645.90000009537,360556.0,7786,ATS,C,6
3,prac,2,C,haborder.png,1,z,Wed Mar 25 2026 09:51:56 GMT-0500 (Central Daylight Time),429533.0,CFD-WF-037-016-A.jpg,1600,dash,O,z,936,5,1,68977.0,360556.0,7786,ATS,C,7
4,prac,2,C,mfborder.png,1,z,Wed Mar 25 2026 09:51:56 GMT-0500 (Central Daylight Time),432916.7999999523,CFD-WF-013-009-HC.jpg,1600,dash,O,z,1009,5,1,72360.79999995232,360556.0,7786,ATS,C,8
5,prac,2,C,haborder.png,1,m,Wed Mar 25 2026 09:51:56 GMT-0500 (Central Daylight Time),436132.40000009537,CFD-WM-028-005-HC.jpg,1400,solid,O,m,1046,5,1,75576.40000009537,360556.0,7786,ATS,C,9
5,prac,2,C,mfborder.png,0,z,Wed Mar 25 2026 09:51:56 GMT-0500 (Central Daylight Time),438913.7000000477,CFD-BF-019-004-HC.jpg,1000,dash,O,m,990,5,1,78357.70000004768,360556.0,7786,ATS,C,10
6,prac,2,C,mfborder.png,1,z,Wed Mar 25 2026 09:51:56 GMT-0500 (Central Daylight Time),442362.5,CFD-WF-023-013-A.jpg,1500,solid,O,z,1163,5,1,81806.5,360556.0,7786,ATS,C,11
7,prac,2,C,mfborder.png,1,m,Wed Mar 25 2026 09:51:56 GMT-0500 (Central Daylight Time),446278.59999990463,CFD-BM-034-035-HC.jpg,2000,solid,O,m,1120,5,1,85722.59999990463,360556.0,7786,ATS,C,12
1,prac,3,C,haborder.png,1,m,Wed Mar 25 2026 09:51:56 GMT-0500 (Central Daylight Time),461291.2999999523,CFD-WM-028-005-HC.jpg,1400,solid,O,m,1054,5,1,100735.29999995232,360556.0,7786,ATS,C,1
1,prac,3,C,mfborder.png,0,m,Wed Mar 25 2026 09:51:56 GMT-0500 (Central Daylight Time),464537.7000000477,CFD-BM-043-014-A.jpg,1200,dash,O,z,1262,5,1,103981.70000004768,360556.0,7786,ATS,C,2
2,prac,3,C,haborder.png,1,z,Wed Mar 25 2026 09:51:56 GMT-0500 (Central Daylight Time),468272.5,CFD-WF-037-016-A.jpg,1600,dash,O,z,1334,5,1,107716.5,360556.0,7786,ATS,C,3
3,prac,3,C,haborder.png,1,m,Wed Mar 25 2026 09:51:56 GMT-0500 (Central Daylight Time),471521.0,CFD-BM-022-004-HC.jpg,1500,solid,O,m,957,5,1,110965.0,360556.0,7786,ATS,C,4
4,prac,3,C,haborder.png,1,z,Wed Mar 25 2026 09:51:56 GMT-0500 (Central Daylight Time),475170.7000000477,CFD-BF-031-020-A.jpg,1900,dash,O,z,982,5,1,114614.70000004768,360556.0,7786,ATS,C,5
4,prac,3,C,mfborder.png,0,z,Wed Mar 25 2026 09:51:56 GMT-0500 (Central Daylight Time),478467.59999990463,CFD-BF-019-004-HC.jpg,1000,dash,O,None,1516,5,1,117911.59999990463,360556.0,7786,ATS,C,6
5,prac,3,C,haborder.png,1,z,Wed Mar 25 2026 09:51:56 GMT-0500 (Central Daylight Time),482150.09999990463,CFD-BF-002-018-A.jpg,1700,solid,O,z,1184,5,1,121594.09999990463,360556.0,7786,ATS,C,7
6,prac,3,C,haborder.png,1,m,Wed Mar 25 2026 09:51:56 GMT-0500 (Central Daylight Time),484700.0,CFD-WM-028-005-HC.jpg,1000,dash,O,m,752,5,1,124144.0,360556.0,7786,ATS,C,8
7,prac,3,C,mfborder.png,1,m,Wed Mar 25 2026 09:51:56 GMT-0500 (Central Daylight Time),487931.90000009537,CFD-WM-036-018-A.jpg,1700,solid,O,m,739,5,1,127375.90000009537,360556.0,7786,ATS,C,9
7,prac,3,C,mfborder.png,0,z,Wed Mar 25 2026 09:51:56 GMT-0500 (Central Daylight Time),491214.7000000477,CFD-WF-013-009-HC.jpg,1600,dash,O,m,890,5,1,130658.70000004768,360556.0,7786,ATS,C,10
8,prac,3,C,mfborder.png,1,m,Wed Mar 25 2026 09:51:56 GMT-0500 (Central Daylight Time),495344.2000000477,CFD-BM-034-035-HC.jpg,2000,solid,O,m,1341,5,1,134788.20000004768,360556.0,7786,ATS,C,11
9,prac,3,C,mfborder.png,1,z,Wed Mar 25 2026 09:51:56 GMT-0500 (Central Daylight Time),498545.59999990463,CFD-WF-023-013-A.jpg,1500,solid,O,z,908,5,1,137989.59999990463,360556.0,7786,ATS,C,12
1,prac,4,C,mfborder.png,1,z,Wed Mar 25 2026 09:51:56 GMT-0500 (Central Daylight Time),506326.0,CFD-WF-013-009-HC.jpg,1600,dash,O,z,1261,5,1,145770.0,360556.0,7786,ATS,C,1
2,prac,4,C,haborder.png,1,z,Wed Mar 25 2026 09:51:56 GMT-0500 (Central Daylight Time),510108.7000000477,CFD-BF-002-018-A.jpg,1700,solid,O,z,1286,5,1,149552.70000004768,360556.0,7786,ATS,C,2
3,prac,4,C,mfborder.png,1,m,Wed Mar 25 2026 09:51:56 GMT-0500 (Central Daylight Time),513823.7000000477,CFD-BM-034-035-HC.jpg,2000,solid,O,m,923,5,1,153267.70000004768,360556.0,7786,ATS,C,3
4,prac,4,C,haborder.png,1,z,Wed Mar 25 2026 09:51:56 GMT-0500 (Central Daylight Time),517089.40000009537,CFD-WF-037-016-A.jpg,1600,dash,O,z,864,5,1,156533.40000009537,360556.0,7786,ATS,C,4
4,prac,4,C,mfborder.png,0,m,Wed Mar 25 2026 09:51:56 GMT-0500 (Central Daylight Time),520205.09999990463,CFD-BM-043-014-A.jpg,1200,dash,O,z,1121,5,1,159649.09999990463,360556.0,7786,ATS,C,5
5,prac,4,C,haborder.png,1,m,Wed Mar 25 2026 09:51:56 GMT-0500 (Central Daylight Time),523820.7999999523,CFD-WM-028-005-HC.jpg,1400,solid,O,m,1421,5,1,163264.79999995232,360556.0,7786,ATS,C,6
6,prac,4,C,mfborder.png,1,z,Wed Mar 25 2026 09:51:56 GMT-0500 (Central Daylight Time),527051.9000000954,CFD-WF-023-013-A.jpg,1500,solid,O,z,945,5,1,166495.90000009537,360556.0,7786,ATS,C,7
6,prac,4,C,mfborder.png,0,z,Wed Mar 25 2026 09:51:56 GMT-0500 (Central Daylight Time),530018.2999999523,CFD-BF-019-004-HC.jpg,1000,dash,O,m,1175,5,1,169462.29999995232,360556.0,7786,ATS,C,8
7,prac,4,C,haborder.png,1,z,Wed Mar 25 2026 09:51:56 GMT-0500 (Central Daylight Time),533951.7999999523,CFD-BF-031-020-A.jpg,1900,dash,O,z,1245,5,1,173395.79999995232,360556.0,7786,ATS,C,9
8,prac,4,C,haborder.png,1,m,Wed Mar 25 2026 09:51:56 GMT-0500 (Central Daylight Time),536982.7000000477,CFD-WM-028-005-HC.jpg,1000,dash,O,m,1258,5,1,176426.70000004768,360556.0,7786,ATS,C,10
9,prac,4,C,haborder.png,1,m,Wed Mar 25 2026 09:51:56 GMT-0500 (Central Daylight Time),540314.7000000477,CFD-BM-022-004-HC.jpg,1500,solid,O,m,1039,5,1,179758.70000004768,360556.0,7786,ATS,C,11
9,prac,4,C,mfborder.png,0,m,Wed Mar 25 2026 09:51:56 GMT-0500 (Central Daylight Time),544316.7999999523,CFD-WM-036-018-A.jpg,1700,solid,O,None,1514,5,1,183760.79999995232,360556.0,7786,ATS,C,12
0,test,1,C,haborder.png,0,m,Wed Mar 25 2026 09:51:56 GMT-0500 (Central Daylight Time),666057.5,CFD-WF-013-009-HC.jpg,1000,solid,O,z,1423,12,1,2448.0,663609.5,7786,ATS,C,1
0,test,1,C,mfborder.png,0,m,Wed Mar 25 2026 09:51:56 GMT-0500 (Central Daylight Time),669589.7000000477,CFD-WM-034-040-A.jpg,2000,dash,O,None,1515,5,1,5980.200000047684,663609.5,7786,ATS,C,2
0,test,1,C,mfborder.png,0,m,Wed Mar 25 2026 09:51:56 GMT-0500 (Central Daylight Time),672122.4000000954,CFD-WM-035-036-HC.jpg,1000,dash,O,None,1515,4,1,8512.900000095367,663609.5,7786,ATS,C,3
0,test,1,C,haborder.png,0,z,Wed Mar 25 2026 09:51:56 GMT-0500 (Central Daylight Time),674821.9000000954,CFD-BM-021-026-A.jpg,1700,solid,O,m,978,9,1,11212.400000095367,663609.5,7786,ATS,C,4
0,test,1,C,haborder.png,0,m,Wed Mar 25 2026 09:51:56 GMT-0500 (Central Daylight Time),677853.7999999523,CFD-WF-001-010-HC.jpg,1500,solid,O,None,1515,11,1,14244.299999952316,663609.5,7786,ATS,C,5
0,test,1,C,haborder.png,0,z,Wed Mar 25 2026 09:51:56 GMT-0500 (Central Daylight Time),680787.2000000477,CFD-WM-036-018-A.jpg,1400,solid,O,None,1517,7,1,17177.700000047684,663609.5,7786,ATS,C,6
0,test,1,C,haborder.png,0,m,Wed Mar 25 2026 09:51:56 GMT-0500 (Central Daylight Time),683403.2999999523,CFD-WF-001-010-HC.jpg,1500,solid,O,z,1091,11,1,19793.799999952316,663609.5,7786,ATS,C,7
0,test,1,C,haborder.png,0,m,Wed Mar 25 2026 09:51:56 GMT-0500 (Central Daylight Time),685934.5,CFD-WF-013-009-HC.jpg,1000,solid,O,None,1514,12,1,22325.0,663609.5,7786,ATS,C,8
1,test,1,C,mfborder.png,1,z,Wed Mar 25 2026 09:51:56 GMT-0500 (Central Daylight Time),688467.2999999523,CFD-WF-037-016-A.jpg,1500,dash,O,z,1014,3,1,24857.799999952316,663609.5,7786,ATS,C,9
2,test,1,C,mfborder.png,1,z,Wed Mar 25 2026 09:51:56 GMT-0500 (Central Daylight Time),691034.9000000954,CFD-BF-031-020-A.jpg,1600,dash,O,z,934,2,1,27425.400000095367,663609.5,7786,ATS,C,10
2,test,1,C,haborder.png,0,z,Wed Mar 25 2026 09:51:56 GMT-0500 (Central Daylight Time),694283.2000000477,CFD-BM-043-014-A.jpg,1900,solid,O,m,1332,8,1,30673.700000047684,663609.5,7786,ATS,C,11
3,test,1,C,mfborder.png,1,z,Wed Mar 25 2026 09:51:56 GMT-0500 (Central Daylight Time),696897.5,CFD-BF-031-020-A.jpg,1600,dash,O,z,992,2,1,33288.0,663609.5,7786,ATS,C,12
3,test,1,C,mfborder.png,0,m,Wed Mar 25 2026 09:51:56 GMT-0500 (Central Daylight Time),700431.4000000954,CFD-WM-034-040-A.jpg,2000,dash,O,None,1515,5,1,36821.90000009537,663609.5,7786,ATS,C,13
4,test,1,C,mfborder.png,1,m,Wed Mar 25 2026 09:51:56 GMT-0500 (Central Daylight Time),702745.9000000954,CFD-BM-022-004-HC.jpg,1200,dash,O,m,1090,6,1,39136.40000009537,663609.5,7786,ATS,C,14
5,test,1,C,haborder.png,1,z,Wed Mar 25 2026 09:51:56 GMT-0500 (Central Daylight Time),705329.2999999523,CFD-WM-036-018-A.jpg,1400,solid,O,z,1150,7,1,41719.799999952316,663609.5,7786,ATS,C,15
6,test,1,C,haborder.png,1,m,Wed Mar 25 2026 09:51:56 GMT-0500 (Central Daylight Time),708227.0,CFD-BF-019-004-HC.jpg,1600,solid,O,m,1280,10,1,44617.5,663609.5,7786,ATS,C,16
7,test,1,C,mfborder.png,1,z,Wed Mar 25 2026 09:51:56 GMT-0500 (Central Daylight Time),711177.0,CFD-BF-042-031-HC.jpg,1700,dash,O,z,1218,1,1,47567.5,663609.5,7786,ATS,C,17
7,test,1,C,mfborder.png,0,m,Wed Mar 25 2026 09:51:56 GMT-0500 (Central Daylight Time),713044.2999999523,CFD-WM-035-036-HC.jpg,1000,dash,O,z,848,4,1,49434.799999952316,663609.5,7786,ATS,C,18
8,test,1,C,mfborder.png,1,m,Wed Mar 25 2026 09:51:56 GMT-0500 (Central Daylight Time),715459.2000000477,CFD-BM-022-004-HC.jpg,1200,dash,O,m,1198,6,1,51849.700000047684,663609.5,7786,ATS,C,19
9,test,1,C,haborder.png,1,m,Wed Mar 25 2026 09:51:56 GMT-0500 (Central Daylight Time),718209.5,CFD-BF-019-004-HC.jpg,1600,solid,O,m,1134,10,1,54600.0,663609.5,7786,ATS,C,20
9,test,1,C,mfborder.png,0,z,Wed Mar 25 2026 09:51:56 GMT-0500 (Central Daylight Time),721241.4000000954,CFD-WF-037-016-A.jpg,1500,dash,O,None,1517,3,1,57631.90000009537,663609.5,7786,ATS,C,21
9,test,1,C,haborder.png,0,z,Wed Mar 25 2026 09:51:56 GMT-0500 (Central Daylight Time),724172.4000000954,CFD-BM-043-014-A.jpg,1900,solid,O,m,1001,8,1,60562.90000009537,663609.5,7786,ATS,C,22
9,test,1,C,mfborder.png,0,z,Wed Mar 25 2026 09:51:56 GMT-0500 (Central Daylight Time),727389.2000000477,CFD-BF-042-031-HC.jpg,1700,dash,O,None,1501,1,1,63779.700000047684,663609.5,7786,ATS,C,23
9,test,1,C,haborder.png,0,z,Wed Mar 25 2026 09:51:56 GMT-0500 (Central Daylight Time),730272.4000000954,CFD-BM-021-026-A.jpg,1700,solid,O,m,1151,9,1,66662.90000009537,663609.5,7786,ATS,C,24
0,test,2,C,mfborder.png,0,m,Wed Mar 25 2026 09:51:56 GMT-0500 (Central Daylight Time),793019.2999999523,CFD-WM-036-018-A.jpg,1200,dash,O,None,1517,6,1,2733.5,790285.7999999523,7786,ATS,C,1
0,test,2,C,haborder.png,0,m,Wed Mar 25 2026 09:51:56 GMT-0500 (Central Daylight Time),796150.9000000954,CFD-BM-022-004-HC.jpg,1600,solid,O,None,1518,10,1,5865.100000143051,790285.7999999523,7786,ATS,C,2
0,test,2,C,mfborder.png,0,z,Wed Mar 25 2026 09:51:56 GMT-0500 (Central Daylight Time),799182.0999999046,CFD-BF-019-004-HC.jpg,1500,dash,O,None,1516,3,1,8896.299999952316,790285.7999999523,7786,ATS,C,3
1,test,2,C,mfborder.png,1,z,Wed Mar 25 2026 09:51:56 GMT-0500 (Central Daylight Time),801681.2000000477,CFD-WF-023-013-A.jpg,1600,dash,O,z,875,2,1,11395.400000095367,790285.7999999523,7786,ATS,C,4
1,test,2,C,haborder.png,0,z,Wed Mar 25 2026 09:51:56 GMT-0500 (Central Daylight Time),804264.4000000954,CFD-BF-031-020-A.jpg,1400,solid,O,m,1159,7,1,13978.600000143051,790285.7999999523,7786,ATS,C,5
2,test,2,C,haborder.png,1,z,Wed Mar 25 2026 09:51:56 GMT-0500 (Central Daylight Time),806912.4000000954,CFD-BF-031-020-A.jpg,1400,solid,O,z,1218,7,1,16626.60000014305,790285.7999999523,7786,ATS,C,6
3,test,2,C,mfborder.png,1,z,Wed Mar 25 2026 09:51:56 GMT-0500 (Central Daylight Time),809995.0999999046,CFD-WF-013-009-HC.jpg,1700,dash,O,z,1354,1,1,19709.299999952316,790285.7999999523,7786,ATS,C,7
4,test,2,C,mfborder.png,1,m,Wed Mar 25 2026 09:51:56 GMT-0500 (Central Daylight Time),813362.4000000954,CFD-BM-043-014-A.jpg,2000,dash,O,m,1334,5,1,23076.60000014305,790285.7999999523,7786,ATS,C,8
5,test,2,C,mfborder.png,1,m,Wed Mar 25 2026 09:51:56 GMT-0500 (Central Daylight Time),816228.2999999523,CFD-BM-043-014-A.jpg,2000,dash,O,m,848,5,1,25942.5,790285.7999999523,7786,ATS,C,9
6,test,2,C,mfborder.png,1,z,Wed Mar 25 2026 09:51:56 GMT-0500 (Central Daylight Time),819059.7999999523,CFD-WF-023-013-A.jpg,1600,dash,O,z,1214,2,1,28774.0,790285.7999999523,7786,ATS,C,10
7,test,2,C,haborder.png,1,m,Wed Mar 25 2026 09:51:56 GMT-0500 (Central Daylight Time),821591.5999999046,CFD-WM-028-005-HC.jpg,1500,solid,O,m,1001,11,1,31305.799999952316,790285.7999999523,7786,ATS,C,11
8,test,2,C,haborder.png,1,m,Wed Mar 25 2026 09:51:56 GMT-0500 (Central Daylight Time),824090.9000000954,CFD-WM-028-005-HC.jpg,1500,solid,O,m,974,11,1,33805.10000014305,790285.7999999523,7786,ATS,C,12
8,test,2,C,mfborder.png,0,m,Wed Mar 25 2026 09:51:56 GMT-0500 (Central Daylight Time),826824.7999999523,CFD-WM-036-018-A.jpg,1200,dash,O,None,1515,6,1,36539.0,790285.7999999523,7786,ATS,C,13
9,test,2,C,haborder.png,1,m,Wed Mar 25 2026 09:51:56 GMT-0500 (Central Daylight Time),828939.5999999046,CFD-WM-028-005-HC.jpg,1000,solid,O,m,1091,12,1,38653.799999952316,790285.7999999523,7786,ATS,C,14
10,test,2,C,haborder.png,1,z,Wed Mar 25 2026 09:51:56 GMT-0500 (Central Daylight Time),831722.7000000477,CFD-WF-037-016-A.jpg,1700,solid,O,z,1050,9,1,41436.90000009537,790285.7999999523,7786,ATS,C,15
11,test,2,C,haborder.png,1,z,Wed Mar 25 2026 09:51:56 GMT-0500 (Central Daylight Time),834954.0999999046,CFD-BF-002-018-A.jpg,1900,solid,O,z,1302,8,1,44668.299999952316,790285.7999999523,7786,ATS,C,16
12,test,2,C,mfborder.png,1,m,Wed Mar 25 2026 09:51:56 GMT-0500 (Central Daylight Time),837469.0,CFD-BM-034-035-HC.jpg,1000,dash,O,m,1486,4,1,47183.200000047684,790285.7999999523,7786,ATS,C,17
12,test,2,C,haborder.png,0,z,Wed Mar 25 2026 09:51:56 GMT-0500 (Central Daylight Time),840685.7000000477,CFD-WF-037-016-A.jpg,1700,solid,O,None,1501,9,1,50399.90000009537,790285.7999999523,7786,ATS,C,18
13,test,2,C,haborder.png,1,m,Wed Mar 25 2026 09:51:56 GMT-0500 (Central Daylight Time),843635.5999999046,CFD-BM-022-004-HC.jpg,1600,solid,O,m,1333,10,1,53349.799999952316,790285.7999999523,7786,ATS,C,19
14,test,2,C,mfborder.png,1,m,Wed Mar 25 2026 09:51:56 GMT-0500 (Central Daylight Time),845517.4000000954,CFD-BM-034-035-HC.jpg,1000,dash,O,m,853,4,1,55231.60000014305,790285.7999999523,7786,ATS,C,20
15,test,2,C,mfborder.png,1,z,Wed Mar 25 2026 09:51:56 GMT-0500 (Central Daylight Time),848083.2000000477,CFD-BF-019-004-HC.jpg,1500,dash,O,z,1039,3,1,57797.40000009537,790285.7999999523,7786,ATS,C,21
16,test,2,C,haborder.png,1,m,Wed Mar 25 2026 09:51:56 GMT-0500 (Central Daylight Time),850215.7999999523,CFD-WM-028-005-HC.jpg,1000,solid,O,m,1110,12,1,59930.0,790285.7999999523,7786,ATS,C,22
17,test,2,C,haborder.png,1,z,Wed Mar 25 2026 09:51:56 GMT-0500 (Central Daylight Time),853116.2999999523,CFD-BF-002-018-A.jpg,1900,solid,O,z,981,8,1,62830.5,790285.7999999523,7786,ATS,C,23
18,test,2,C,mfborder.png,1,z,Wed Mar 25 2026 09:51:56 GMT-0500 (Central Daylight Time),856130.7000000477,CFD-WF-013-009-HC.jpg,1700,dash,O,z,1290,1,1,65844.90000009537,790285.7999999523,7786,ATS,C,24
1,test,3,C,mfborder.png,1,m,Wed Mar 25 2026 09:51:56 GMT-0500 (Central Daylight Time),866810.5,CFD-WM-035-036-HC.jpg,1000,dash,O,m,1183,4,1,2211.5999999046326,864598.9000000954,7786,ATS,C,1
1,test,3,C,mfborder.png,0,z,Wed Mar 25 2026 09:51:56 GMT-0500 (Central Daylight Time),869944.4000000954,CFD-BF-031-020-A.jpg,1600,dash,O,None,1516,2,1,5345.5,864598.9000000954,7786,ATS,C,2
1,test,3,C,haborder.png,0,z,Wed Mar 25 2026 09:51:56 GMT-0500 (Central Daylight Time),872093.0,CFD-WM-036-018-A.jpg,1400,solid,O,m,716,7,1,7494.099999904633,864598.9000000954,7786,ATS,C,3
1,test,3,C,haborder.png,0,m,Wed Mar 25 2026 09:51:56 GMT-0500 (Central Daylight Time),875225.5,CFD-BF-019-004-HC.jpg,1600,solid,O,None,1516,10,1,10626.599999904633,864598.9000000954,7786,ATS,C,4
2,test,3,C,haborder.png,1,m,Wed Mar 25 2026 09:51:56 GMT-0500 (Central Daylight Time),877291.2000000477,CFD-WF-013-009-HC.jpg,1000,solid,O,m,1040,12,1,12692.299999952316,864598.9000000954,7786,ATS,C,5
3,test,3,C,haborder.png,1,m,Wed Mar 25 2026 09:51:56 GMT-0500 (Central Daylight Time),879806.5999999046,CFD-WF-001-010-HC.jpg,1500,solid,O,m,984,11,1,15207.699999809265,864598.9000000954,7786,ATS,C,6
4,test,3,C,haborder.png,1,z,Wed Mar 25 2026 09:51:56 GMT-0500 (Central Daylight Time),882571.7000000477,CFD-BM-021-026-A.jpg,1700,solid,O,z,1039,9,1,17972.799999952316,864598.9000000954,7786,ATS,C,7
5,test,3,C,haborder.png,1,m,Wed Mar 25 2026 09:51:56 GMT-0500 (Central Daylight Time),884322.2000000477,CFD-WF-013-009-HC.jpg,1000,solid,O,m,726,12,1,19723.299999952316,864598.9000000954,7786,ATS,C,8
6,test,3,C,mfborder.png,1,z,Wed Mar 25 2026 09:51:56 GMT-0500 (Central Daylight Time),887056.0999999046,CFD-BF-042-031-HC.jpg,1700,dash,O,z,1003,1,1,22457.199999809265,864598.9000000954,7786,ATS,C,9
7,test,3,C,mfborder.png,1,m,Wed Mar 25 2026 09:51:56 GMT-0500 (Central Daylight Time),889853.4000000954,CFD-WM-034-040-A.jpg,2000,dash,O,m,772,5,1,25254.5,864598.9000000954,7786,ATS,C,10
8,test,3,C,mfborder.png,1,z,Wed Mar 25 2026 09:51:56 GMT-0500 (Central Daylight Time),892154.5999999046,CFD-WF-037-016-A.jpg,1500,dash,O,z,767,3,1,27555.699999809265,864598.9000000954,7786,ATS,C,11
9,test,3,C,haborder.png,1,z,Wed Mar 25 2026 09:51:56 GMT-0500 (Central Daylight Time),895018.5999999046,CFD-BM-043-014-A.jpg,1900,solid,O,z,948,8,1,30419.699999809265,864598.9000000954,7786,ATS,C,12
10,test,3,C,mfborder.png,1,z,Wed Mar 25 2026 09:51:56 GMT-0500 (Central Daylight Time),898018.5,CFD-WF-037-016-A.jpg,1500,dash,O,z,1465,3,1,33419.59999990463,864598.9000000954,7786,ATS,C,13
11,test,3,C,haborder.png,1,m,Wed Mar 25 2026 09:51:56 GMT-0500 (Central Daylight Time),901083.7000000477,CFD-BF-019-004-HC.jpg,1600,solid,O,m,1449,10,1,36484.799999952316,864598.9000000954,7786,ATS,C,14
11,test,3,C,mfborder.png,0,m,Wed Mar 25 2026 09:51:56 GMT-0500 (Central Daylight Time),903816.2000000477,CFD-BM-022-004-HC.jpg,1200,dash,O,None,1516,6,1,39217.299999952316,864598.9000000954,7786,ATS,C,15
12,test,3,C,haborder.png,1,z,Wed Mar 25 2026 09:51:56 GMT-0500 (Central Daylight Time),906730.7999999523,CFD-BM-021-026-A.jpg,1700,solid,O,z,1189,9,1,42131.89999985695,864598.9000000954,7786,ATS,C,16
12,test,3,C,mfborder.png,0,m,Wed Mar 25 2026 09:51:56 GMT-0500 (Central Daylight Time),909264.5999999046,CFD-WM-035-036-HC.jpg,1000,dash,O,None,1517,4,1,44665.699999809265,864598.9000000954,7786,ATS,C,17
13,test,3,C,mfborder.png,1,z,Wed Mar 25 2026 09:51:56 GMT-0500 (Central Daylight Time),912044.7999999523,CFD-BF-031-020-A.jpg,1600,dash,O,z,1153,2,1,47445.89999985695,864598.9000000954,7786,ATS,C,18
14,test,3,C,mfborder.png,1,m,Wed Mar 25 2026 09:51:56 GMT-0500 (Central Daylight Time),915129.4000000954,CFD-WM-034-040-A.jpg,2000,dash,O,m,1060,5,1,50530.5,864598.9000000954,7786,ATS,C,19
15,test,3,C,mfborder.png,1,m,Wed Mar 25 2026 09:51:56 GMT-0500 (Central Daylight Time),917510.5999999046,CFD-BM-022-004-HC.jpg,1200,dash,O,m,1151,6,1,52911.699999809265,864598.9000000954,7786,ATS,C,20
16,test,3,C,haborder.png,1,z,Wed Mar 25 2026 09:51:56 GMT-0500 (Central Daylight Time),920378.9000000954,CFD-BM-043-014-A.jpg,1900,solid,O,z,942,8,1,55780.0,864598.9000000954,7786,ATS,C,21
17,test,3,C,mfborder.png,1,z,Wed Mar 25 2026 09:51:56 GMT-0500 (Central Daylight Time),922909.2000000477,CFD-BF-042-031-HC.jpg,1700,dash,O,z,813,1,1,58310.299999952316,864598.9000000954,7786,ATS,C,22
17,test,3,C,haborder.png,0,z,Wed Mar 25 2026 09:51:56 GMT-0500 (Central Daylight Time),925358.7999999523,CFD-WM-036-018-A.jpg,1400,solid,O,m,1016,7,1,60759.89999985695,864598.9000000954,7786,ATS,C,23
18,test,3,C,haborder.png,1,m,Wed Mar 25 2026 09:51:56 GMT-0500 (Central Daylight Time),927857.7000000477,CFD-WF-001-010-HC.jpg,1500,solid,O,m,966,11,1,63258.799999952316,864598.9000000954,7786,ATS,C,24
0,test,4,C,haborder.png,0,z,Wed Mar 25 2026 09:51:56 GMT-0500 (Central Daylight Time),938023.0,CFD-BF-002-018-A.jpg,1900,solid,O,None,1516,8,1,3433.5,934589.5,7786,ATS,C,1
1,test,4,C,haborder.png,1,m,Wed Mar 25 2026 09:51:56 GMT-0500 (Central Daylight Time),940104.0,CFD-WM-028-005-HC.jpg,1000,solid,O,m,1060,12,1,5514.5,934589.5,7786,ATS,C,2
2,test,4,C,haborder.png,1,z,Wed Mar 25 2026 09:51:56 GMT-0500 (Central Daylight Time),942520.4000000954,CFD-BF-031-020-A.jpg,1400,solid,O,z,984,7,1,7930.900000095367,934589.5,7786,ATS,C,3
2,test,4,C,haborder.png,0,z,Wed Mar 25 2026 09:51:56 GMT-0500 (Central Daylight Time),945452.5,CFD-BF-031-020-A.jpg,1400,solid,O,None,1515,7,1,10863.0,934589.5,7786,ATS,C,4
3,test,4,C,mfborder.png,1,m,Wed Mar 25 2026 09:51:56 GMT-0500 (Central Daylight Time),948684.9000000954,CFD-BM-043-014-A.jpg,2000,dash,O,m,1207,5,1,14095.400000095367,934589.5,7786,ATS,C,5
4,test,4,C,mfborder.png,1,m,Wed Mar 25 2026 09:51:56 GMT-0500 (Central Daylight Time),950566.9000000954,CFD-WM-036-018-A.jpg,1200,dash,O,m,660,6,1,15977.400000095367,934589.5,7786,ATS,C,6
4,test,4,C,mfborder.png,0,z,Wed Mar 25 2026 09:51:56 GMT-0500 (Central Daylight Time),953031.7000000477,CFD-WF-013-009-HC.jpg,1700,dash,O,m,741,1,1,18442.200000047684,934589.5,7786,ATS,C,7
5,test,4,C,haborder.png,1,z,Wed Mar 25 2026 09:51:56 GMT-0500 (Central Daylight Time),956232.7000000477,CFD-WF-037-016-A.jpg,1700,solid,O,z,1468,9,1,21643.200000047684,934589.5,7786,ATS,C,8
6,test,4,C,mfborder.png,1,z,Wed Mar 25 2026 09:51:56 GMT-0500 (Central Daylight Time),958431.5,CFD-BF-019-004-HC.jpg,1500,dash,O,z,678,3,1,23842.0,934589.5,7786,ATS,C,9
7,test,4,C,haborder.png,1,m,Wed Mar 25 2026 09:51:56 GMT-0500 (Central Daylight Time),960846.7000000477,CFD-WM-028-005-HC.jpg,1500,solid,O,m,893,11,1,26257.200000047684,934589.5,7786,ATS,C,10
8,test,4,C,haborder.png,1,z,Wed Mar 25 2026 09:51:56 GMT-0500 (Central Daylight Time),963495.5,CFD-WF-037-016-A.jpg,1700,solid,O,z,918,9,1,28906.0,934589.5,7786,ATS,C,11
8,test,4,C,mfborder.png,0,m,Wed Mar 25 2026 09:51:56 GMT-0500 (Central Daylight Time),966027.5999999046,CFD-BM-034-035-HC.jpg,1000,dash,O,None,1515,4,1,31438.099999904633,934589.5,7786,ATS,C,12
9,test,4,C,mfborder.png,1,z,Wed Mar 25 2026 09:51:56 GMT-0500 (Central Daylight Time),968560.7000000477,CFD-WF-023-013-A.jpg,1600,dash,O,z,900,2,1,33971.200000047684,934589.5,7786,ATS,C,13
10,test,4,C,haborder.png,1,m,Wed Mar 25 2026 09:51:56 GMT-0500 (Central Daylight Time),971443.4000000954,CFD-BM-022-004-HC.jpg,1600,solid,O,m,1265,10,1,36853.90000009537,934589.5,7786,ATS,C,14
11,test,4,C,haborder.png,1,m,Wed Mar 25 2026 09:51:56 GMT-0500 (Central Daylight Time),974176.7000000477,CFD-WM-028-005-HC.jpg,1500,solid,O,m,1211,11,1,39587.200000047684,934589.5,7786,ATS,C,15
12,test,4,C,mfborder.png,1,z,Wed Mar 25 2026 09:51:56 GMT-0500 (Central Daylight Time),976742.9000000954,CFD-WF-023-013-A.jpg,1600,dash,O,z,934,2,1,42153.40000009537,934589.5,7786,ATS,C,16
13,test,4,C,mfborder.png,1,z,Wed Mar 25 2026 09:51:56 GMT-0500 (Central Daylight Time),979658.9000000954,CFD-WF-013-009-HC.jpg,1700,dash,O,z,1192,1,1,45069.40000009537,934589.5,7786,ATS,C,17
13,test,4,C,haborder.png,0,z,Wed Mar 25 2026 09:51:56 GMT-0500 (Central Daylight Time),983074.0999999046,CFD-BF-002-018-A.jpg,1900,solid,O,m,1491,8,1,48484.59999990463,934589.5,7786,ATS,C,18
14,test,4,C,mfborder.png,1,m,Wed Mar 25 2026 09:51:56 GMT-0500 (Central Daylight Time),985123.4000000954,CFD-BM-034-035-HC.jpg,1000,dash,O,m,1022,4,1,50533.90000009537,934589.5,7786,ATS,C,19
14,test,4,C,haborder.png,0,m,Wed Mar 25 2026 09:51:56 GMT-0500 (Central Daylight Time),987639.9000000954,CFD-WM-028-005-HC.jpg,1000,solid,O,None,1501,12,1,53050.40000009537,934589.5,7786,ATS,C,20
15,test,4,C,haborder.png,1,m,Wed Mar 25 2026 09:51:56 GMT-0500 (Central Daylight Time),990089.7000000477,CFD-BM-022-004-HC.jpg,1600,solid,O,m,825,10,1,55500.200000047684,934589.5,7786,ATS,C,21
16,test,4,C,mfborder.png,1,m,Wed Mar 25 2026 09:51:56 GMT-0500 (Central Daylight Time),992689.5,CFD-WM-036-018-A.jpg,1200,dash,O,m,1376,6,1,58100.0,934589.5,7786,ATS,C,22
17,test,4,C,mfborder.png,1,m,Wed Mar 25 2026 09:51:56 GMT-0500 (Central Daylight Time),995769.2999999523,CFD-BM-043-014-A.jpg,2000,dash,O,m,1056,5,1,61179.799999952316,934589.5,7786,ATS,C,23
17,test,4,C,mfborder.png,0,z,Wed Mar 25 2026 09:51:56 GMT-0500 (Central Daylight Time),998803.5,CFD-BF-019-004-HC.jpg,1500,dash,O,None,1515,3,1,64214.0,934589.5,7786,ATS,C,24
