Q,Q1,Q2,Q3,Q4,acc_sum,block,block_c,correct,correct_response,datetime,endtime,project,response,response_time,row_sel,session_number,squiggle1,squiggle1x,squiggle1y,squiggle2,squiggle2x,squiggle2y,squiggle3,squiggle3x,squiggle3y,squiggle4,squiggle4x,squiggle4y,start_end,starttime,subject_id,target_congruent,task,task_vers,testsquiggle,testsquigglex,testsquiggley,time_practice_delay,time_practice_fixation,time_practice_stimuli,time_practice_study,time_test_delay,time_test_fixation,time_test_stimuli,time_test_study,trial
1,1,0,0,0,1,prac,1,1,z,Wed May 14 2025 14:19:53 GMT-0500 (Central Daylight Time),128368.5,I,z,917,1,1,66.bmp,-120,-120,67.bmp,120,-120,68.bmp,-120,120,69.bmp,120,120,9744.300000011921,118624.19999998808,8039,yes,SM,C,66.bmp,-120,-120,120186,114157,122202,116171,,,,,1
3,0,0,1,0,2,prac,1,1,m,Wed May 14 2025 14:19:53 GMT-0500 (Central Daylight Time),137982.10000002384,I,m,793,2,1,70.bmp,-120,-120,71.bmp,120,-120,72.bmp,-120,120,73.bmp,120,120,9609.800000011921,128372.30000001192,8039,no,SM,C,73.bmp,-120,120,129933,123906,131950,125918,,,,,2
4,0,0,0,1,3,prac,1,1,m,Wed May 14 2025 14:19:53 GMT-0500 (Central Daylight Time),147895.60000002384,I,m,1092,3,1,74.bmp,-120,-120,75.bmp,120,-120,76.bmp,-120,120,77.bmp,120,120,9909.900000035763,137985.69999998808,8039,no,SM,C,74.bmp,120,120,139547,133519,141563,135533,,,,,3
2,0,1,0,0,4,prac,1,1,z,Wed May 14 2025 14:19:53 GMT-0500 (Central Daylight Time),157442.69999998808,I,z,731,4,1,78.bmp,-120,-120,79.bmp,120,-120,80.bmp,-120,120,81.bmp,120,120,9543.699999988079,147899.0,8039,yes,SM,C,79.bmp,120,-120,149460,143432,151476,145445,,,,,4
3,0,0,1,0,4,prac,1,0,z,Wed May 14 2025 14:19:53 GMT-0500 (Central Daylight Time),167339.5,I,m,1096,5,1,82.bmp,-120,-120,83.bmp,120,-120,84.bmp,-120,120,85.bmp,120,120,9893.199999988079,157446.30000001192,8039,yes,SM,C,84.bmp,-120,120,159002,152980,161007,154992,,,,,5
1,1,0,0,0,4,prac,1,0,m,Wed May 14 2025 14:19:53 GMT-0500 (Central Daylight Time),176819.89999997616,I,z,654,6,1,86.bmp,-120,-120,87.bmp,120,-120,88.bmp,-120,120,89.bmp,120,120,9477.0,167342.89999997616,8039,no,SM,C,89.bmp,-120,-120,168904,162876,170920,164889,,,,,6
2,0,1,0,0,5,prac,1,1,m,Wed May 14 2025 14:19:53 GMT-0500 (Central Daylight Time),186699.80000001192,I,m,1053,7,1,90.bmp,-120,-120,91.bmp,120,-120,92.bmp,-120,120,93.bmp,120,120,9876.300000011921,176823.5,8039,no,SM,C,90.bmp,120,-120,178385,172357,180402,174370,,,,,7
4,0,0,0,1,5,prac,1,0,z,Wed May 14 2025 14:19:53 GMT-0500 (Central Daylight Time),196963.60000002384,I,m,1438,8,1,94.bmp,-120,-120,95.bmp,120,-120,96.bmp,-120,120,97.bmp,120,120,10259.900000035763,186703.69999998808,8039,yes,SM,C,97.bmp,120,120,188265,182237,190281,184249,,,,,8
4,0,0,0,1,0,test,1,0,m,Wed May 14 2025 14:19:53 GMT-0500 (Central Daylight Time),219806.39999997616,I,z,1328,1,1,98.bmp,-120,-120,99.bmp,120,-120,100.bmp,-120,120,93.bmp,120,120,9378.199999988079,210428.19999998808,8039,yes,SM,C,100.bmp,120,120,188265,182237,190281,184249,211990.0,205961.0,214007.0,207976.0,1
2,0,1,0,0,1,test,1,1,m,Wed May 14 2025 14:19:53 GMT-0500 (Central Daylight Time),229369.89999997616,I,m,1508,2,1,51.bmp,-120,-120,52.bmp,120,-120,53.bmp,-120,120,54.bmp,120,120,9559.799999952316,219810.10000002384,8039,yes,SM,C,53.bmp,120,-120,188265,182237,190281,184249,221371.0,215343.0,223387.0,217356.0,2
1,1,0,0,0,2,test,1,1,z,Wed May 14 2025 14:19:53 GMT-0500 (Central Daylight Time),238267.0,I,z,840,3,1,55.bmp,-120,-120,56.bmp,120,-120,57.bmp,-120,120,58.bmp,120,120,8894.100000023842,229372.89999997616,8039,yes,SM,C,55.bmp,-120,-120,188265,182237,190281,184249,230935.0,224906.0,232951.0,226919.0,3
3,0,0,1,0,2,test,1,0,m,Wed May 14 2025 14:19:53 GMT-0500 (Central Daylight Time),247097.80000001192,I,z,783,4,1,59.bmp,-120,-120,60.bmp,120,-120,61.bmp,-120,120,62.bmp,120,120,8826.800000011921,238271.0,8039,yes,SM,C,59.bmp,-120,120,188265,182237,190281,184249,239832.0,233804.0,241848.0,235817.0,4
2,0,1,0,0,3,test,1,1,z,Wed May 14 2025 14:19:53 GMT-0500 (Central Daylight Time),255794.89999997616,I,z,639,5,1,63.bmp,-120,-120,64.bmp,120,-120,65.bmp,-120,120,66.bmp,120,120,8693.899999976158,247101.0,8039,yes,SM,C,64.bmp,120,-120,188265,182237,190281,184249,248662.0,242634.0,250679.0,244647.0,5
3,0,0,1,0,4,test,1,1,z,Wed May 14 2025 14:19:53 GMT-0500 (Central Daylight Time),264508.8000000119,I,z,655,6,1,67.bmp,-120,-120,68.bmp,120,-120,69.bmp,-120,120,70.bmp,120,120,8710.300000011921,255798.5,8039,yes,SM,C,69.bmp,-120,120,188265,182237,190281,184249,257360.0,251332.0,259376.0,253344.0,6
4,0,0,0,1,5,test,1,1,z,Wed May 14 2025 14:19:53 GMT-0500 (Central Daylight Time),273422.6999999881,I,z,860,7,1,71.bmp,-120,-120,72.bmp,120,-120,73.bmp,-120,120,74.bmp,120,120,8910.800000011921,264511.89999997616,8039,yes,SM,C,74.bmp,120,120,188265,182237,190281,184249,266074.0,260045.0,268090.0,262058.0,7
2,0,1,0,0,6,test,1,1,m,Wed May 14 2025 14:19:53 GMT-0500 (Central Daylight Time),282203.39999997616,I,m,723,8,1,75.bmp,-120,-120,76.bmp,120,-120,77.bmp,-120,120,78.bmp,120,120,8777.5,273425.89999997616,8039,yes,SM,C,75.bmp,120,-120,188265,182237,190281,184249,274987.0,268959.0,277004.0,270972.0,8
3,0,0,1,0,7,test,1,1,m,Wed May 14 2025 14:19:53 GMT-0500 (Central Daylight Time),291317.1999999881,I,m,1063,9,1,79.bmp,-120,-120,80.bmp,120,-120,81.bmp,-120,120,82.bmp,120,120,9110.399999976158,282206.8000000119,8039,yes,SM,C,80.bmp,-120,120,188265,182237,190281,184249,283768.0,277740.0,285784.0,279753.0,9
4,0,0,0,1,8,test,1,1,z,Wed May 14 2025 14:19:53 GMT-0500 (Central Daylight Time),301064.1999999881,I,z,1684,10,1,87.bmp,-120,-120,88.bmp,120,-120,89.bmp,-120,120,90.bmp,120,120,9743.699999988079,291320.5,8039,yes,SM,C,90.bmp,120,120,188265,182237,190281,184249,292882.0,286854.0,294898.0,288867.0,10
3,0,0,1,0,9,test,1,1,z,Wed May 14 2025 14:19:53 GMT-0500 (Central Daylight Time),310261.1999999881,I,z,1146,11,1,83.bmp,-120,-120,84.bmp,120,-120,85.bmp,-120,120,86.bmp,120,120,9193.599999964237,301067.60000002384,8039,yes,SM,C,85.bmp,-120,120,188265,182237,190281,184249,302629.0,296601.0,304645.0,298614.0,11
2,0,1,0,0,10,test,1,1,m,Wed May 14 2025 14:19:53 GMT-0500 (Central Daylight Time),318958.60000002384,I,m,637,12,1,91.bmp,-120,-120,92.bmp,120,-120,93.bmp,-120,120,94.bmp,120,120,8693.600000023842,310265.0,8039,yes,SM,C,91.bmp,120,-120,188265,182237,190281,184249,311826.0,305798.0,313842.0,307811.0,12
3,0,0,1,0,11,test,1,1,m,Wed May 14 2025 14:19:53 GMT-0500 (Central Daylight Time),328169.6999999881,I,m,1162,13,1,95.bmp,-120,-120,96.bmp,120,-120,97.bmp,-120,120,98.bmp,120,120,9207.800000011921,318961.89999997616,8039,yes,SM,C,96.bmp,-120,120,188265,182237,190281,184249,320523.0,314495.0,322540.0,316508.0,13
1,1,0,0,0,12,test,1,1,z,Wed May 14 2025 14:19:53 GMT-0500 (Central Daylight Time),336886.0,I,z,654,14,1,99.bmp,-120,-120,100.bmp,120,-120,54.bmp,-120,120,51.bmp,120,120,8712.699999988079,328173.3000000119,8039,yes,SM,C,99.bmp,-120,-120,188265,182237,190281,184249,329737.0,323707.0,331753.0,325722.0,14
4,0,0,0,1,13,test,1,1,m,Wed May 14 2025 14:19:53 GMT-0500 (Central Daylight Time),346066.60000002384,I,m,1124,15,1,60.bmp,-120,-120,61.bmp,120,-120,62.bmp,-120,120,63.bmp,120,120,9177.0,336889.60000002384,8039,yes,SM,C,61.bmp,120,120,188265,182237,190281,184249,338451.0,332423.0,340467.0,334436.0,15
1,1,0,0,0,14,test,1,1,m,Wed May 14 2025 14:19:53 GMT-0500 (Central Daylight Time),354996.89999997616,I,m,879,16,1,52.bmp,-120,-120,53.bmp,120,-120,54.bmp,-120,120,55.bmp,120,120,8926.899999976158,346070.0,8039,yes,SM,C,55.bmp,-120,-120,188265,182237,190281,184249,347631.0,341603.0,349648.0,343616.0,16
3,0,0,1,0,14,test,1,0,m,Wed May 14 2025 14:19:53 GMT-0500 (Central Daylight Time),364910.6999999881,I,z,1852,17,1,72.bmp,-120,-120,73.bmp,120,-120,74.bmp,-120,120,75.bmp,120,120,9910.599999964237,355000.10000002384,8039,yes,SM,C,72.bmp,-120,120,188265,182237,190281,184249,356562.0,350533.0,358579.0,352547.0,17
1,1,0,0,0,14,test,1,0,z,Wed May 14 2025 14:19:53 GMT-0500 (Central Daylight Time),374974.60000002384,I,None,2015,18,1,56.bmp,-120,-120,57.bmp,120,-120,58.bmp,-120,120,59.bmp,120,120,10061.100000023842,364913.5,8039,yes,SM,C,56.bmp,-120,-120,188265,182237,190281,184249,366475.0,360447.0,368492.0,362460.0,18
2,0,1,0,0,14,test,1,0,z,Wed May 14 2025 14:19:53 GMT-0500 (Central Daylight Time),384171.60000002384,I,m,1140,19,1,76.bmp,-120,-120,77.bmp,120,-120,78.bmp,-120,120,79.bmp,120,120,9194.0,374977.60000002384,8039,yes,SM,C,77.bmp,120,-120,188265,182237,190281,184249,376539.0,370511.0,378555.0,372524.0,19
3,0,0,1,0,15,test,1,1,z,Wed May 14 2025 14:19:53 GMT-0500 (Central Daylight Time),392852.0,I,z,630,20,1,80.bmp,-120,-120,81.bmp,120,-120,82.bmp,-120,120,83.bmp,120,120,8676.800000011921,384175.1999999881,8039,yes,SM,C,82.bmp,-120,120,188265,182237,190281,184249,385736.0,379708.0,387753.0,381721.0,20
1,1,0,0,0,16,test,1,1,m,Wed May 14 2025 14:19:53 GMT-0500 (Central Daylight Time),401615.8000000119,I,m,652,21,1,64.bmp,-120,-120,65.bmp,120,-120,66.bmp,-120,120,67.bmp,120,120,8760.5,392855.3000000119,8039,yes,SM,C,66.bmp,-120,-120,188265,182237,190281,184249,394477.0,388389.0,396483.0,390402.0,21
4,0,0,0,1,17,test,1,1,z,Wed May 14 2025 14:19:53 GMT-0500 (Central Daylight Time),411129.6999999881,I,z,1450,22,1,68.bmp,-120,-120,69.bmp,120,-120,70.bmp,-120,120,71.bmp,120,120,9510.399999976158,401619.3000000119,8039,yes,SM,C,71.bmp,120,120,188265,182237,190281,184249,403181.0,397153.0,405197.0,399165.0,22
1,1,0,0,0,18,test,1,1,m,Wed May 14 2025 14:19:53 GMT-0500 (Central Daylight Time),419710.39999997616,I,m,528,23,1,84.bmp,-120,-120,85.bmp,120,-120,86.bmp,-120,120,87.bmp,120,120,8577.799999952316,411132.60000002384,8039,yes,SM,C,87.bmp,-120,-120,188265,182237,190281,184249,412694.0,406666.0,414711.0,408679.0,23
2,0,1,0,0,19,test,1,1,z,Wed May 14 2025 14:19:53 GMT-0500 (Central Daylight Time),429040.5,I,z,1268,24,1,92.bmp,-120,-120,93.bmp,120,-120,94.bmp,-120,120,95.bmp,120,120,9327.100000023842,419713.39999997616,8039,yes,SM,C,93.bmp,120,-120,188265,182237,190281,184249,421275.0,415247.0,423291.0,417260.0,24
4,0,0,0,1,20,test,1,1,m,Wed May 14 2025 14:19:53 GMT-0500 (Central Daylight Time),437804.60000002384,I,m,713,25,1,96.bmp,-120,-120,97.bmp,120,-120,98.bmp,-120,120,99.bmp,120,120,8760.5,429044.10000002384,8039,yes,SM,C,98.bmp,120,120,188265,182237,190281,184249,430605.0,424577.0,432622.0,426590.0,25
1,1,0,0,0,21,test,1,1,z,Wed May 14 2025 14:19:53 GMT-0500 (Central Daylight Time),447001.6999999881,I,z,1038,26,1,88.bmp,-120,-120,89.bmp,120,-120,90.bmp,-120,120,91.bmp,120,120,9194.0,437807.6999999881,8039,yes,SM,C,88.bmp,-120,-120,188265,182237,190281,184249,439369.0,433341.0,441480.0,435354.0,26
4,0,0,0,1,21,test,1,0,z,Wed May 14 2025 14:19:53 GMT-0500 (Central Daylight Time),456149.0,I,m,1088,27,1,100.bmp,-120,-120,61.bmp,120,-120,51.bmp,-120,120,52.bmp,120,120,9143.800000011921,447005.1999999881,8039,yes,SM,C,52.bmp,120,120,188265,182237,190281,184249,448566.0,442538.0,450583.0,444551.0,27
3,0,0,1,0,22,test,1,1,m,Wed May 14 2025 14:19:53 GMT-0500 (Central Daylight Time),465146.0,I,m,941,28,1,53.bmp,-120,-120,54.bmp,120,-120,55.bmp,-120,120,56.bmp,120,120,8993.800000011921,456152.1999999881,8039,yes,SM,C,53.bmp,-120,120,188265,182237,190281,184249,457714.0,451689.0,459730.0,453698.0,28
2,0,1,0,0,23,test,1,1,z,Wed May 14 2025 14:19:53 GMT-0500 (Central Daylight Time),473759.8000000119,I,z,560,29,1,57.bmp,-120,-120,58.bmp,120,-120,59.bmp,-120,120,60.bmp,120,120,8610.199999988079,465149.60000002384,8039,yes,SM,C,58.bmp,120,-120,188265,182237,190281,184249,466710.0,460683.0,468727.0,462696.0,29
3,0,0,1,0,24,test,1,1,z,Wed May 14 2025 14:19:53 GMT-0500 (Central Daylight Time),482740.5,I,z,930,30,1,61.bmp,-120,-120,62.bmp,120,-120,63.bmp,-120,120,64.bmp,120,120,8977.5,473763.0,8039,yes,SM,C,63.bmp,-120,120,188265,182237,190281,184249,475324.0,469296.0,477341.0,471309.0,30
1,1,0,0,0,24,test,1,0,z,Wed May 14 2025 14:19:53 GMT-0500 (Central Daylight Time),492020.8000000119,I,m,1230,31,1,65.bmp,-120,-120,66.bmp,120,-120,67.bmp,-120,120,68.bmp,120,120,9277.5,482743.3000000119,8039,yes,SM,C,65.bmp,-120,-120,188265,182237,190281,184249,484305.0,478277.0,486321.0,480290.0,31
2,0,1,0,0,25,test,1,1,m,Wed May 14 2025 14:19:53 GMT-0500 (Central Daylight Time),501817.89999997616,I,m,1749,32,1,69.bmp,-120,-120,70.bmp,120,-120,71.bmp,-120,120,72.bmp,120,120,9794.199999988079,492023.6999999881,8039,yes,SM,C,69.bmp,120,-120,188265,182237,190281,184249,493586.0,487557.0,495602.0,489570.0,32
4,0,0,0,1,25,test,1,0,z,Wed May 14 2025 14:19:53 GMT-0500 (Central Daylight Time),510865.1999999881,I,m,992,33,1,81.bmp,-120,-120,82.bmp,120,-120,83.bmp,-120,120,84.bmp,120,120,9044.399999976158,501820.8000000119,8039,yes,SM,C,84.bmp,120,120,188265,182237,190281,184249,503382.0,497354.0,505399.0,499367.0,33
2,0,1,0,0,25,test,1,0,z,Wed May 14 2025 14:19:53 GMT-0500 (Central Daylight Time),519729.0,I,m,818,34,1,73.bmp,-120,-120,74.bmp,120,-120,75.bmp,-120,120,76.bmp,120,120,8860.600000023842,510868.39999997616,8039,yes,SM,C,74.bmp,120,-120,188265,182237,190281,184249,512417.0,506402.0,514429.0,508415.0,34
4,0,0,0,1,26,test,1,1,m,Wed May 14 2025 14:19:53 GMT-0500 (Central Daylight Time),528742.5,I,m,953,35,1,77.bmp,-120,-120,78.bmp,120,-120,79.bmp,-120,120,80.bmp,120,120,9010.0,519732.5,8039,yes,SM,C,79.bmp,120,120,188265,182237,190281,184249,521294.0,515266.0,523310.0,517278.0,35
3,0,0,1,0,27,test,1,1,m,Wed May 14 2025 14:19:53 GMT-0500 (Central Daylight Time),537756.6000000238,I,m,956,36,1,85.bmp,-120,-120,86.bmp,120,-120,87.bmp,-120,120,88.bmp,120,120,9011.0,528745.6000000238,8039,yes,SM,C,85.bmp,-120,120,188265,182237,190281,184249,530307.0,524279.0,532323.0,526292.0,36
1,1,0,0,0,28,test,1,1,m,Wed May 14 2025 14:19:53 GMT-0500 (Central Daylight Time),546753.6999999881,I,m,941,37,1,89.bmp,-120,-120,90.bmp,120,-120,91.bmp,-120,120,92.bmp,120,120,8994.099999964237,537759.6000000238,8039,yes,SM,C,90.bmp,-120,-120,188265,182237,190281,184249,539321.0,533293.0,541337.0,535306.0,37
2,0,1,0,0,29,test,1,1,m,Wed May 14 2025 14:19:53 GMT-0500 (Central Daylight Time),555801.0,I,m,984,38,1,93.bmp,-120,-120,94.bmp,120,-120,95.bmp,-120,120,96.bmp,120,120,9044.0,546757.0,8039,yes,SM,C,95.bmp,120,-120,188265,182237,190281,184249,548318.0,542290.0,550335.0,544303.0,38
4,0,0,0,1,30,test,1,1,z,Wed May 14 2025 14:19:53 GMT-0500 (Central Daylight Time),565264.6999999881,I,z,1347,39,1,97.bmp,-120,-120,98.bmp,120,-120,99.bmp,-120,120,100.bmp,120,120,9460.599999964237,555804.1000000238,8039,yes,SM,C,100.bmp,120,120,188265,182237,190281,184249,557365.0,551337.0,559444.0,553351.0,39
3,0,0,1,0,31,test,1,1,m,Wed May 14 2025 14:19:53 GMT-0500 (Central Daylight Time),574378.3999999762,I,m,1057,40,1,54.bmp,-120,-120,55.bmp,120,-120,56.bmp,-120,120,57.bmp,120,120,9110.299999952316,565268.1000000238,8039,yes,SM,C,55.bmp,-120,120,188265,182237,190281,184249,566830.0,560801.0,568846.0,562814.0,40
1,1,0,0,0,32,test,1,1,z,Wed May 14 2025 14:19:53 GMT-0500 (Central Daylight Time),583042.1999999881,I,z,616,41,1,58.bmp,-120,-120,59.bmp,120,-120,60.bmp,-120,120,61.bmp,120,120,8660.899999976158,574381.3000000119,8039,yes,SM,C,58.bmp,-120,-120,188265,182237,190281,184249,575943.0,569915.0,577959.0,571928.0,41
4,0,0,0,1,32,test,1,0,z,Wed May 14 2025 14:19:53 GMT-0500 (Central Daylight Time),592572.5,I,m,1480,42,1,62.bmp,-120,-120,63.bmp,120,-120,64.bmp,-120,120,65.bmp,120,120,9527.300000011921,583045.1999999881,8039,yes,SM,C,65.bmp,120,120,188265,182237,190281,184249,584607.0,578578.0,586623.0,580592.0,42
1,1,0,0,0,33,test,1,1,z,Wed May 14 2025 14:19:53 GMT-0500 (Central Daylight Time),601203.3000000119,I,z,582,43,1,66.bmp,-120,-120,67.bmp,120,-120,68.bmp,-120,120,69.bmp,120,120,8628.100000023842,592575.1999999881,8039,yes,SM,C,66.bmp,-120,-120,188265,182237,190281,184249,594137.0,588109.0,596153.0,590122.0,43
4,0,0,0,1,34,test,1,1,m,Wed May 14 2025 14:19:53 GMT-0500 (Central Daylight Time),610483.6999999881,I,m,1231,44,1,54.bmp,-120,-120,51.bmp,120,-120,52.bmp,-120,120,53.bmp,120,120,9277.300000011921,601206.3999999762,8039,yes,SM,C,54.bmp,120,120,188265,182237,190281,184249,602768.0,596740.0,604784.0,598753.0,44
1,1,0,0,0,34,test,1,0,m,Wed May 14 2025 14:19:53 GMT-0500 (Central Daylight Time),619964.1999999881,I,z,1429,45,1,78.bmp,-120,-120,79.bmp,120,-120,80.bmp,-120,120,81.bmp,120,120,9477.399999976158,610486.8000000119,8039,yes,SM,C,81.bmp,-120,-120,188265,182237,190281,184249,612050.0,606020.0,614066.0,608033.0,45
1,1,0,0,0,35,test,1,1,m,Wed May 14 2025 14:19:53 GMT-0500 (Central Daylight Time),629594.5,I,m,1574,46,1,70.bmp,-120,-120,71.bmp,120,-120,72.bmp,-120,120,73.bmp,120,120,9627.399999976158,619967.1000000238,8039,yes,SM,C,71.bmp,-120,-120,188265,182237,190281,184249,621529.0,615500.0,623545.0,617514.0,46
3,0,0,1,0,36,test,1,1,z,Wed May 14 2025 14:19:53 GMT-0500 (Central Daylight Time),638508.3999999762,I,z,855,47,1,74.bmp,-120,-120,75.bmp,120,-120,76.bmp,-120,120,77.bmp,120,120,8910.5,629597.8999999762,8039,yes,SM,C,76.bmp,-120,120,188265,182237,190281,184249,631159.0,625131.0,633176.0,627144.0,47
3,0,0,1,0,37,test,1,1,z,Wed May 14 2025 14:19:53 GMT-0500 (Central Daylight Time),647455.5,I,z,894,48,1,90.bmp,-120,-120,91.bmp,120,-120,92.bmp,-120,120,93.bmp,120,120,8944.100000023842,638511.3999999762,8039,yes,SM,C,92.bmp,-120,120,188265,182237,190281,184249,640073.0,634045.0,642089.0,636058.0,48
2,0,1,0,0,37,test,1,0,z,Wed May 14 2025 14:19:53 GMT-0500 (Central Daylight Time),656419.5,I,m,907,49,1,86.bmp,-120,-120,87.bmp,120,-120,88.bmp,-120,120,89.bmp,120,120,8960.699999988079,647458.8000000119,8039,yes,SM,C,87.bmp,120,-120,188265,182237,190281,184249,649020.0,642992.0,651036.0,645005.0,49
3,0,0,1,0,37,test,1,0,m,Wed May 14 2025 14:19:53 GMT-0500 (Central Daylight Time),665266.6999999881,I,z,791,50,1,82.bmp,-120,-120,83.bmp,120,-120,84.bmp,-120,120,85.bmp,120,120,8844.0,656422.6999999881,8039,yes,SM,C,82.bmp,-120,120,188265,182237,190281,184249,657984.0,651956.0,660000.0,653969.0,50
2,0,1,0,0,38,test,1,1,z,Wed May 14 2025 14:19:53 GMT-0500 (Central Daylight Time),674996.8999999762,I,z,1679,51,1,94.bmp,-120,-120,95.bmp,120,-120,96.bmp,-120,120,97.bmp,120,120,9727.199999988079,665269.6999999881,8039,yes,SM,C,95.bmp,120,-120,188265,182237,190281,184249,666831.0,660803.0,668848.0,662817.0,51
4,0,0,0,1,38,test,1,0,m,Wed May 14 2025 14:19:53 GMT-0500 (Central Daylight Time),683977.3000000119,I,z,916,52,1,98.bmp,-120,-120,99.bmp,120,-120,100.bmp,-120,120,81.bmp,120,120,8977.600000023842,674999.6999999881,8039,yes,SM,C,98.bmp,120,120,188265,182237,190281,184249,676561.0,670533.0,678578.0,672546.0,52
3,0,0,1,0,39,test,1,1,z,Wed May 14 2025 14:19:53 GMT-0500 (Central Daylight Time),692957.8000000119,I,z,920,53,1,51.bmp,-120,-120,52.bmp,120,-120,53.bmp,-120,120,54.bmp,120,120,8977.400000035763,683980.3999999762,8039,yes,SM,C,53.bmp,-120,120,188265,182237,190281,184249,685542.0,679514.0,687559.0,681527.0,53
1,1,0,0,0,40,test,1,1,m,Wed May 14 2025 14:19:53 GMT-0500 (Central Daylight Time),701788.3999999762,I,m,772,54,1,55.bmp,-120,-120,56.bmp,120,-120,57.bmp,-120,120,58.bmp,120,120,8827.199999988079,692961.1999999881,8039,yes,SM,C,57.bmp,-120,-120,188265,182237,190281,184249,694523.0,688494.0,696539.0,690507.0,54
4,0,0,0,1,41,test,1,1,z,Wed May 14 2025 14:19:53 GMT-0500 (Central Daylight Time),710569.0,I,z,717,55,1,59.bmp,-120,-120,60.bmp,120,-120,61.bmp,-120,120,62.bmp,120,120,8777.600000023842,701791.3999999762,8039,yes,SM,C,62.bmp,120,120,188265,182237,190281,184249,703353.0,697325.0,705369.0,699338.0,55
2,0,1,0,0,42,test,1,1,m,Wed May 14 2025 14:19:53 GMT-0500 (Central Daylight Time),720082.8999999762,I,m,1465,56,1,63.bmp,-120,-120,64.bmp,120,-120,65.bmp,-120,120,66.bmp,120,120,9510.599999964237,710572.3000000119,8039,yes,SM,C,63.bmp,120,-120,188265,182237,190281,184249,712134.0,706106.0,714150.0,708119.0,56
4,0,0,0,1,42,test,1,0,m,Wed May 14 2025 14:19:53 GMT-0500 (Central Daylight Time),729562.8000000119,I,z,1431,57,1,67.bmp,-120,-120,68.bmp,120,-120,69.bmp,-120,120,70.bmp,120,120,9476.900000035763,720085.8999999762,8039,yes,SM,C,68.bmp,120,120,188265,182237,190281,184249,721647.0,715619.0,723664.0,717632.0,57
3,0,0,1,0,43,test,1,1,z,Wed May 14 2025 14:19:53 GMT-0500 (Central Daylight Time),738226.8000000119,I,z,615,58,1,71.bmp,-120,-120,72.bmp,120,-120,73.bmp,-120,120,74.bmp,120,120,8661.0,729565.8000000119,8039,yes,SM,C,73.bmp,-120,120,188265,182237,190281,184249,731128.0,725099.0,733144.0,727113.0,58
2,0,1,0,0,44,test,1,1,m,Wed May 14 2025 14:19:53 GMT-0500 (Central Daylight Time),747874.1000000238,I,m,1599,59,1,75.bmp,-120,-120,76.bmp,120,-120,77.bmp,-120,120,78.bmp,120,120,9644.5,738229.6000000238,8039,yes,SM,C,78.bmp,120,-120,188265,182237,190281,184249,739792.0,733763.0,741808.0,735777.0,59
1,1,0,0,0,44,test,1,0,z,Wed May 14 2025 14:19:53 GMT-0500 (Central Daylight Time),757287.8000000119,I,m,1352,60,1,79.bmp,-120,-120,80.bmp,120,-120,81.bmp,-120,120,82.bmp,120,120,9410.800000011921,747877.0,8039,yes,SM,C,79.bmp,-120,-120,188265,182237,190281,184249,749439.0,743410.0,751455.0,745424.0,60
2,0,1,0,0,45,test,1,1,z,Wed May 14 2025 14:19:53 GMT-0500 (Central Daylight Time),766934.8000000119,I,z,1594,61,1,83.bmp,-120,-120,84.bmp,120,-120,85.bmp,-120,120,86.bmp,120,120,9644.0,757290.8000000119,8039,yes,SM,C,84.bmp,120,-120,188265,182237,190281,184249,758852.0,752824.0,760869.0,754837.0,61
4,0,0,0,1,46,test,1,1,z,Wed May 14 2025 14:19:53 GMT-0500 (Central Daylight Time),776481.6999999881,I,z,1483,62,1,91.bmp,-120,-120,92.bmp,120,-120,93.bmp,-120,120,94.bmp,120,120,9543.899999976158,766937.8000000119,8039,yes,SM,C,94.bmp,120,120,188265,182237,190281,184249,768499.0,762471.0,770516.0,764484.0,62
1,1,0,0,0,47,test,1,1,m,Wed May 14 2025 14:19:53 GMT-0500 (Central Daylight Time),785879.0,I,m,1336,63,1,95.bmp,-120,-120,96.bmp,120,-120,97.bmp,-120,120,98.bmp,120,120,9394.199999988079,776484.8000000119,8039,yes,SM,C,95.bmp,-120,120,188265,182237,190281,184249,778046.0,772018.0,780063.0,774031.0,63
2,0,1,0,0,48,test,1,1,z,Wed May 14 2025 14:19:53 GMT-0500 (Central Daylight Time),794975.8999999762,I,z,1043,64,1,99.bmp,-120,-120,100.bmp,120,-120,62.bmp,-120,120,51.bmp,120,120,9093.899999976158,785882.0,8039,yes,SM,C,100.bmp,120,-120,188265,182237,190281,184249,787444.0,781415.0,789460.0,783428.0,64
4,0,0,0,1,49,test,1,1,m,Wed May 14 2025 14:19:53 GMT-0500 (Central Daylight Time),803906.5,I,m,874,65,1,52.bmp,-120,-120,53.bmp,120,-120,54.bmp,-120,120,55.bmp,120,120,8927.5,794979.0,8039,yes,SM,C,54.bmp,120,120,188265,182237,190281,184249,796541.0,790512.0,798557.0,792525.0,65
3,0,0,1,0,50,test,1,1,m,Wed May 14 2025 14:19:53 GMT-0500 (Central Daylight Time),813220.3000000119,I,m,1263,66,1,56.bmp,-120,-120,57.bmp,120,-120,58.bmp,-120,120,59.bmp,120,120,9310.900000035763,803909.3999999762,8039,yes,SM,C,59.bmp,-120,120,188265,182237,190281,184249,805471.0,799443.0,807488.0,801456.0,66
2,0,1,0,0,51,test,1,1,m,Wed May 14 2025 14:19:53 GMT-0500 (Central Daylight Time),822217.5,I,m,934,67,1,87.bmp,-120,-120,88.bmp,120,-120,89.bmp,-120,120,90.bmp,120,120,8994.100000023842,813223.3999999762,8039,yes,SM,C,89.bmp,120,-120,188265,182237,190281,184249,814785.0,808757.0,816801.0,810770.0,67
3,0,0,1,0,52,test,1,1,z,Wed May 14 2025 14:19:53 GMT-0500 (Central Daylight Time),830898.0,I,z,633,68,1,60.bmp,-120,-120,61.bmp,120,-120,62.bmp,-120,120,63.bmp,120,120,8677.699999988079,822220.3000000119,8039,yes,SM,C,62.bmp,-120,120,188265,182237,190281,184249,823782.0,817754.0,825798.0,819767.0,68
1,1,0,0,0,53,test,1,1,m,Wed May 14 2025 14:19:53 GMT-0500 (Central Daylight Time),840211.6000000238,I,m,1264,69,1,64.bmp,-120,-120,65.bmp,120,-120,66.bmp,-120,120,67.bmp,120,120,9310.800000011921,830900.8000000119,8039,yes,SM,C,65.bmp,-120,-120,188265,182237,190281,184249,832463.0,826434.0,834479.0,828447.0,69
2,0,1,0,0,54,test,1,1,m,Wed May 14 2025 14:19:53 GMT-0500 (Central Daylight Time),849458.8999999762,I,m,1107,70,1,68.bmp,-120,-120,69.bmp,120,-120,70.bmp,-120,120,71.bmp,120,120,9244.399999976158,840214.5,8039,yes,SM,C,70.bmp,120,-120,188265,182237,190281,184249,841870.0,835748.0,843876.0,837761.0,70
4,0,0,0,1,55,test,1,1,z,Wed May 14 2025 14:19:53 GMT-0500 (Central Daylight Time),858955.8000000119,I,z,1439,71,1,72.bmp,-120,-120,73.bmp,120,-120,74.bmp,-120,120,75.bmp,120,120,9494.199999988079,849461.6000000238,8039,yes,SM,C,75.bmp,120,120,188265,182237,190281,184249,851023.0,844995.0,853040.0,847008.0,71
1,1,0,0,0,56,test,1,1,z,Wed May 14 2025 14:19:53 GMT-0500 (Central Daylight Time),868419.6000000238,I,z,1406,72,1,76.bmp,-120,-120,77.bmp,120,-120,78.bmp,-120,120,79.bmp,120,120,9460.800000011921,858958.8000000119,8039,yes,SM,C,76.bmp,-120,-120,188265,182237,190281,184249,860521.0,854492.0,862537.0,856506.0,72
2,0,1,0,0,57,test,1,1,z,Wed May 14 2025 14:19:53 GMT-0500 (Central Daylight Time),878233.1000000238,I,z,1750,73,1,80.bmp,-120,-120,81.bmp,120,-120,82.bmp,-120,120,83.bmp,120,120,9810.600000023842,868422.5,8039,yes,SM,C,81.bmp,120,-120,188265,182237,190281,184249,869984.0,863956.0,872001.0,865969.0,73
4,0,0,0,1,58,test,1,1,m,Wed May 14 2025 14:19:53 GMT-0500 (Central Daylight Time),887330.3000000119,I,m,1049,74,1,84.bmp,-120,-120,85.bmp,120,-120,86.bmp,-120,120,87.bmp,120,120,9094.100000023842,878236.1999999881,8039,yes,SM,C,86.bmp,120,120,188265,182237,190281,184249,879798.0,873770.0,881814.0,875783.0,74
2,0,1,0,0,59,test,1,1,m,Wed May 14 2025 14:19:53 GMT-0500 (Central Daylight Time),896445.3000000119,I,m,964,75,1,88.bmp,-120,-120,89.bmp,120,-120,90.bmp,-120,120,91.bmp,120,120,9112.199999988079,887333.1000000238,8039,yes,SM,C,91.bmp,120,-120,188265,182237,190281,184249,889006.0,882866.0,891011.0,884880.0,75
1,1,0,0,0,60,test,1,1,z,Wed May 14 2025 14:19:53 GMT-0500 (Central Daylight Time),905758.0,I,z,1262,76,1,92.bmp,-120,-120,93.bmp,120,-120,94.bmp,-120,120,95.bmp,120,120,9309.5,896448.5,8039,yes,SM,C,92.bmp,-120,-120,188265,182237,190281,184249,898009.0,891982.0,900025.0,893994.0,76
3,0,0,1,0,61,test,1,1,z,Wed May 14 2025 14:19:53 GMT-0500 (Central Daylight Time),914938.3999999762,I,z,1124,77,1,100.bmp,-120,-120,61.bmp,120,-120,51.bmp,-120,120,52.bmp,120,120,9177.299999952316,905761.1000000238,8039,yes,SM,C,51.bmp,-120,120,188265,182237,190281,184249,907322.0,901294.0,909339.0,903307.0,77
1,1,0,0,0,62,test,1,1,m,Wed May 14 2025 14:19:53 GMT-0500 (Central Daylight Time),923835.5,I,m,798,78,1,96.bmp,-120,-120,97.bmp,120,-120,98.bmp,-120,120,99.bmp,120,120,8893.600000023842,914941.8999999762,8039,yes,SM,C,97.bmp,-120,-120,188265,182237,190281,184249,916553.0,910475.0,918569.0,912551.0,78
4,0,0,0,1,63,test,1,1,m,Wed May 14 2025 14:19:53 GMT-0500 (Central Daylight Time),932649.3000000119,I,m,758,79,1,57.bmp,-120,-120,58.bmp,120,-120,59.bmp,-120,120,60.bmp,120,120,8809.5,923839.8000000119,8039,yes,SM,C,57.bmp,120,120,188265,182237,190281,184249,925400.0,919373.0,927417.0,921385.0,79
3,0,0,1,0,64,test,1,1,m,Wed May 14 2025 14:19:53 GMT-0500 (Central Daylight Time),941629.8000000119,I,m,934,80,1,53.bmp,-120,-120,54.bmp,120,-120,55.bmp,-120,120,56.bmp,120,120,8976.800000011921,932653.0,8039,yes,SM,C,56.bmp,-120,120,188265,182237,190281,184249,934214.0,928186.0,936225.0,930199.0,80
