acc_sum,block,block_c,change,condition,correct,correct_response,datetime,endtime,face,project,response,response_time,row_sel,session_number,start_end,starttime,subject_id,task,task_vers,trial
0,prac,1,,1-Back,,,Tue Dec 16 2025 11:09:47 GMT-0600 (Central Standard Time),,005_o_f_d_a.png,O,space,4193,1,1,,,7710,VNB,B,0
0,prac,1,0.0,1-Back,0.0,m,Tue Dec 16 2025 11:09:47 GMT-0600 (Central Standard Time),145884.89999997616,020_y_f_n_a.png,O,z,1338,2,1,2187.899999976158,143697.0,7710,VNB,B,1
1,prac,1,0.0,1-Back,1.0,m,Tue Dec 16 2025 11:09:47 GMT-0600 (Central Standard Time),148000.39999997616,007_m_m_h_a.png,O,m,1254,3,1,2104.1999999284744,145896.20000004768,7710,VNB,B,2
2,prac,1,0.0,1-Back,1.0,m,Tue Dec 16 2025 11:09:47 GMT-0600 (Central Standard Time),150482.70000004768,016_y_m_d_a.png,O,m,1613,4,1,2470.4000000953674,148012.29999995232,7710,VNB,B,3
3,prac,1,0.0,1-Back,1.0,m,Tue Dec 16 2025 11:09:47 GMT-0600 (Central Standard Time),152616.10000002384,005_o_f_n_a.png,O,m,1261,5,1,2123.899999976158,150492.20000004768,7710,VNB,B,4
4,prac,1,1.0,1-Back,1.0,z,Tue Dec 16 2025 11:09:47 GMT-0600 (Central Standard Time),154965.20000004768,016_y_m_n_a.png,O,z,1467,6,1,2331.9000000953674,152633.29999995232,7710,VNB,B,5
5,prac,1,0.0,1-Back,1.0,m,Tue Dec 16 2025 11:09:47 GMT-0600 (Central Standard Time),157179.20000004768,004_o_m_h_a.png,O,m,1368,7,1,2202.9000000953674,154976.29999995232,7710,VNB,B,6
5,prac,1,0.0,1-Back,0.0,m,Tue Dec 16 2025 11:09:47 GMT-0600 (Central Standard Time),159298.20000004768,011_m_f_d_a.png,O,z,1241,8,1,2107.5,157190.70000004768,7710,VNB,B,7
5,prac,1,1.0,1-Back,0.0,z,Tue Dec 16 2025 11:09:47 GMT-0600 (Central Standard Time),161714.10000002384,020_y_f_d_a.png,O,m,1568,9,1,2405.399999976158,159308.70000004768,7710,VNB,B,8
6,prac,1,0.0,1-Back,1.0,m,Tue Dec 16 2025 11:09:47 GMT-0600 (Central Standard Time),164261.0,007_m_m_n_a.png,O,m,1682,10,1,2536.899999976158,161724.10000002384,7710,VNB,B,9
7,prac,1,0.0,1-Back,1.0,m,Tue Dec 16 2025 11:09:47 GMT-0600 (Central Standard Time),166546.0,005_o_f_h_a.png,O,m,1431,11,1,2273.399999976158,164272.60000002384,7710,VNB,B,10
7,prac,1,0.0,1-Back,0.0,m,Tue Dec 16 2025 11:09:47 GMT-0600 (Central Standard Time),169227.0,016_y_m_d_a.png,O,z,1818,12,1,2672.2000000476837,166554.79999995232,7710,VNB,B,11
0,prac,2,0.0,1-Back,,,Tue Dec 16 2025 11:09:47 GMT-0600 (Central Standard Time),169227.0,005_o_f_d_a.png,O,a,6727,1,1,2672.2000000476837,166554.79999995232,7710,VNB,B,0
0,prac,2,0.0,1-Back,0.0,m,Tue Dec 16 2025 11:09:47 GMT-0600 (Central Standard Time),181256.29999995232,020_y_f_n_a.png,O,z,1396,2,1,2237.7999999523163,179018.5,7710,VNB,B,1
0,prac,2,0.0,1-Back,0.0,m,Tue Dec 16 2025 11:09:47 GMT-0600 (Central Standard Time),184122.5,007_m_m_h_a.png,O,None,2007,3,1,2856.0,181266.5,7710,VNB,B,2
0,prac,2,0.0,1-Back,0.0,m,Tue Dec 16 2025 11:09:47 GMT-0600 (Central Standard Time),186905.89999997616,016_y_m_d_a.png,O,None,2001,4,1,2769.2999999523163,184136.60000002384,7710,VNB,B,3
0,prac,2,0.0,1-Back,0.0,m,Tue Dec 16 2025 11:09:47 GMT-0600 (Central Standard Time),189770.5,005_o_f_n_a.png,O,None,2004,5,1,2851.899999976158,186918.60000002384,7710,VNB,B,4
0,prac,2,1.0,1-Back,0.0,z,Tue Dec 16 2025 11:09:47 GMT-0600 (Central Standard Time),192636.39999997616,016_y_m_n_a.png,O,None,2004,6,1,2853.600000023842,189782.79999995232,7710,VNB,B,5
0,prac,2,0.0,1-Back,0.0,m,Tue Dec 16 2025 11:09:47 GMT-0600 (Central Standard Time),195484.60000002384,004_o_m_h_a.png,O,None,2007,7,1,2836.600000023842,192648.0,7710,VNB,B,6
0,prac,2,0.0,1-Back,0.0,m,Tue Dec 16 2025 11:09:47 GMT-0600 (Central Standard Time),198350.10000002384,011_m_f_d_a.png,O,None,2017,8,1,2855.3000000715256,195494.79999995232,7710,VNB,B,7
0,prac,2,1.0,1-Back,0.0,z,Tue Dec 16 2025 11:09:47 GMT-0600 (Central Standard Time),201217.79999995232,020_y_f_d_a.png,O,None,2010,9,1,2857.2999999523163,198360.5,7710,VNB,B,8
0,prac,2,0.0,1-Back,0.0,m,Tue Dec 16 2025 11:09:47 GMT-0600 (Central Standard Time),204081.70000004768,007_m_m_n_a.png,O,None,2015,10,1,2854.3000000715256,201227.39999997616,7710,VNB,B,9
0,prac,2,0.0,1-Back,0.0,m,Tue Dec 16 2025 11:09:47 GMT-0600 (Central Standard Time),206981.10000002384,005_o_f_h_a.png,O,None,2014,11,1,2890.0,204091.10000002384,7710,VNB,B,10
0,prac,2,0.0,1-Back,0.0,m,Tue Dec 16 2025 11:09:47 GMT-0600 (Central Standard Time),209863.70000004768,016_y_m_d_a.png,O,None,2010,12,1,2870.8000000715256,206992.89999997616,7710,VNB,B,11
0,prac,3,0.0,1-Back,,,Tue Dec 16 2025 11:09:47 GMT-0600 (Central Standard Time),209863.70000004768,005_o_f_d_a.png,O,a,1035,1,1,2870.8000000715256,206992.89999997616,7710,VNB,B,0
1,prac,3,0.0,1-Back,1.0,m,Tue Dec 16 2025 11:09:47 GMT-0600 (Central Standard Time),216095.39999997616,020_y_f_n_a.png,O,m,1299,2,1,2140.600000023842,213954.79999995232,7710,VNB,B,1
2,prac,3,0.0,1-Back,1.0,m,Tue Dec 16 2025 11:09:47 GMT-0600 (Central Standard Time),218064.60000002384,007_m_m_h_a.png,O,m,1109,3,1,1959.5,216105.10000002384,7710,VNB,B,2
3,prac,3,0.0,1-Back,1.0,m,Tue Dec 16 2025 11:09:47 GMT-0600 (Central Standard Time),219826.89999997616,016_y_m_d_a.png,O,m,973,4,1,1752.1000000238419,218074.79999995232,7710,VNB,B,3
3,prac,3,0.0,1-Back,0.0,m,Tue Dec 16 2025 11:09:47 GMT-0600 (Central Standard Time),221561.0,005_o_f_n_a.png,O,z,867,5,1,1725.2999999523163,219835.70000004768,7710,VNB,B,4
3,prac,3,1.0,1-Back,0.0,z,Tue Dec 16 2025 11:09:47 GMT-0600 (Central Standard Time),223742.79999995232,016_y_m_n_a.png,O,m,1320,6,1,2168.6999999284744,221574.10000002384,7710,VNB,B,5
3,prac,3,0.0,1-Back,0.0,m,Tue Dec 16 2025 11:09:47 GMT-0600 (Central Standard Time),226593.60000002384,004_o_m_h_a.png,O,None,2007,7,1,2839.0,223754.60000002384,7710,VNB,B,6
4,prac,3,0.0,1-Back,1.0,m,Tue Dec 16 2025 11:09:47 GMT-0600 (Central Standard Time),227608.5,011_m_f_d_a.png,O,m,149,8,1,1007.5,226601.0,7710,VNB,B,7
4,prac,3,1.0,1-Back,0.0,z,Tue Dec 16 2025 11:09:47 GMT-0600 (Central Standard Time),229824.79999995232,020_y_f_d_a.png,O,m,1363,9,1,2207.0,227617.79999995232,7710,VNB,B,8
5,prac,3,0.0,1-Back,1.0,m,Tue Dec 16 2025 11:09:47 GMT-0600 (Central Standard Time),232240.79999995232,007_m_m_n_a.png,O,m,1551,10,1,2408.0999999046326,229832.70000004768,7710,VNB,B,9
6,prac,3,0.0,1-Back,1.0,m,Tue Dec 16 2025 11:09:47 GMT-0600 (Central Standard Time),234707.79999995232,005_o_f_h_a.png,O,m,1612,11,1,2455.399999976158,232252.39999997616,7710,VNB,B,10
6,prac,3,0.0,1-Back,0.0,m,Tue Dec 16 2025 11:09:47 GMT-0600 (Central Standard Time),236956.5,016_y_m_d_a.png,O,z,1377,12,1,2238.7999999523163,234717.70000004768,7710,VNB,B,11
0,prac,4,0.0,1-Back,,,Tue Dec 16 2025 11:09:47 GMT-0600 (Central Standard Time),236956.5,005_o_f_d_a.png,O,a,5325,1,1,2238.7999999523163,234717.70000004768,7710,VNB,B,0
0,prac,4,0.0,1-Back,0.0,m,Tue Dec 16 2025 11:09:47 GMT-0600 (Central Standard Time),247819.70000004768,020_y_f_n_a.png,O,z,1620,2,1,2470.9000000953674,245348.79999995232,7710,VNB,B,1
1,prac,4,0.0,1-Back,1.0,m,Tue Dec 16 2025 11:09:47 GMT-0600 (Central Standard Time),250051.20000004768,007_m_m_h_a.png,O,m,1362,3,1,2221.100000023842,247830.10000002384,7710,VNB,B,2
2,prac,4,0.0,1-Back,1.0,m,Tue Dec 16 2025 11:09:47 GMT-0600 (Central Standard Time),252185.10000002384,016_y_m_d_a.png,O,m,1355,4,1,2124.899999976158,250060.20000004768,7710,VNB,B,3
3,prac,4,0.0,1-Back,1.0,m,Tue Dec 16 2025 11:09:47 GMT-0600 (Central Standard Time),254600.20000004768,005_o_f_n_a.png,O,m,1555,5,1,2406.100000023842,252194.10000002384,7710,VNB,B,4
3,prac,4,1.0,1-Back,0.0,z,Tue Dec 16 2025 11:09:47 GMT-0600 (Central Standard Time),257449.89999997616,016_y_m_n_a.png,O,m,1991,6,1,2840.0,254609.89999997616,7710,VNB,B,5
3,prac,4,0.0,1-Back,0.0,m,Tue Dec 16 2025 11:09:47 GMT-0600 (Central Standard Time),260313.89999997616,004_o_m_h_a.png,O,None,2016,7,1,2854.2999999523163,257459.60000002384,7710,VNB,B,6
3,prac,4,0.0,1-Back,0.0,m,Tue Dec 16 2025 11:09:47 GMT-0600 (Central Standard Time),263179.60000002384,011_m_f_d_a.png,O,None,2015,8,1,2856.100000023842,260323.5,7710,VNB,B,7
3,prac,4,1.0,1-Back,0.0,z,Tue Dec 16 2025 11:09:47 GMT-0600 (Central Standard Time),265228.5,020_y_f_d_a.png,O,m,1192,9,1,2041.7000000476837,263186.7999999523,7710,VNB,B,8
4,prac,4,0.0,1-Back,1.0,m,Tue Dec 16 2025 11:09:47 GMT-0600 (Central Standard Time),267061.7999999523,007_m_m_n_a.png,O,m,977,10,1,1824.7999999523163,265237.0,7710,VNB,B,9
5,prac,4,0.0,1-Back,1.0,m,Tue Dec 16 2025 11:09:47 GMT-0600 (Central Standard Time),269545.60000002384,005_o_f_h_a.png,O,m,1615,11,1,2474.2000000476837,267071.39999997616,7710,VNB,B,10
5,prac,4,0.0,1-Back,0.0,m,Tue Dec 16 2025 11:09:47 GMT-0600 (Central Standard Time),271546.39999997616,016_y_m_d_a.png,O,z,1141,12,1,1991.8999999761581,269554.5,7710,VNB,B,11
0,test,1,0.0,1-Back,,,Tue Dec 16 2025 11:09:47 GMT-0600 (Central Standard Time),271546.39999997616,020_y_f_d_a.png,O,space,10306,1,1,1991.8999999761581,269554.5,7710,VNB,B,0
0,test,1,0.0,1-Back,0.0,m,Tue Dec 16 2025 11:09:47 GMT-0600 (Central Standard Time),305800.0,011_m_f_n_a.png,O,z,1342,2,1,2357.7000000476837,303442.2999999523,7710,VNB,B,1
1,test,1,0.0,1-Back,1.0,m,Tue Dec 16 2025 11:09:47 GMT-0600 (Central Standard Time),307716.7000000477,004_o_m_h_a.png,O,m,897,3,1,1909.4000000953674,305807.2999999523,7710,VNB,B,2
2,test,1,1.0,1-Back,1.0,z,Tue Dec 16 2025 11:09:47 GMT-0600 (Central Standard Time),309682.7999999523,007_m_m_h_a.png,O,z,940,4,1,1958.3999999761581,307724.39999997616,7710,VNB,B,3
3,test,1,0.0,1-Back,1.0,m,Tue Dec 16 2025 11:09:47 GMT-0600 (Central Standard Time),311963.7999999523,005_o_f_n_a.png,O,m,1250,5,1,2273.6999999284744,309690.10000002384,7710,VNB,B,4
4,test,1,0.0,1-Back,1.0,m,Tue Dec 16 2025 11:09:47 GMT-0600 (Central Standard Time),313747.5,016_y_m_d_a.png,O,m,763,6,1,1775.0,311972.5,7710,VNB,B,5
4,test,1,1.0,1-Back,0.0,z,Tue Dec 16 2025 11:09:47 GMT-0600 (Central Standard Time),315847.2000000477,011_m_f_d_a.png,O,m,1076,7,1,2090.9000000953674,313756.2999999523,7710,VNB,B,6
5,test,1,0.0,1-Back,1.0,m,Tue Dec 16 2025 11:09:47 GMT-0600 (Central Standard Time),318212.60000002384,020_y_f_h_a.png,O,m,1346,8,1,2356.399999976158,315856.2000000477,7710,VNB,B,7
6,test,1,0.0,1-Back,1.0,m,Tue Dec 16 2025 11:09:47 GMT-0600 (Central Standard Time),320679.2999999523,004_o_m_n_a.png,O,m,1436,9,1,2460.0999999046326,318219.2000000477,7710,VNB,B,8
7,test,1,0.0,1-Back,1.0,m,Tue Dec 16 2025 11:09:47 GMT-0600 (Central Standard Time),322811.2000000477,016_y_m_h_a.png,O,m,1108,10,1,2124.600000023842,320686.60000002384,7710,VNB,B,9
8,test,1,0.0,1-Back,1.0,m,Tue Dec 16 2025 11:09:47 GMT-0600 (Central Standard Time),324893.2999999523,004_o_m_d_a.png,O,m,1050,11,1,2073.6999999284744,322819.60000002384,7710,VNB,B,10
9,test,1,1.0,1-Back,1.0,z,Tue Dec 16 2025 11:09:47 GMT-0600 (Central Standard Time),327127.2000000477,005_o_f_d_a.png,O,z,1209,12,1,2226.8000000715256,324900.39999997616,7710,VNB,B,11
9,test,1,0.0,1-Back,0.0,m,Tue Dec 16 2025 11:09:47 GMT-0600 (Central Standard Time),329146.10000002384,007_m_m_n_a.png,O,z,1002,13,1,2014.2000000476837,327131.89999997616,7710,VNB,B,12
10,test,1,1.0,1-Back,1.0,z,Tue Dec 16 2025 11:09:47 GMT-0600 (Central Standard Time),331258.60000002384,020_y_f_n_a.png,O,z,1096,14,1,2108.2000000476837,329150.39999997616,7710,VNB,B,13
11,test,1,0.0,1-Back,1.0,m,Tue Dec 16 2025 11:09:47 GMT-0600 (Central Standard Time),333258.10000002384,011_m_f_h_a.png,O,m,974,15,1,1994.7000000476837,331263.39999997616,7710,VNB,B,14
12,test,1,0.0,1-Back,1.0,m,Tue Dec 16 2025 11:09:47 GMT-0600 (Central Standard Time),335355.89999997616,007_m_m_d_a.png,O,m,1078,16,1,2090.1999999284744,333265.7000000477,7710,VNB,B,15
12,test,1,0.0,1-Back,0.0,m,Tue Dec 16 2025 11:09:47 GMT-0600 (Central Standard Time),337590.2000000477,016_y_m_n_a.png,O,z,1210,17,1,2231.100000023842,335359.10000002384,7710,VNB,B,16
13,test,1,0.0,1-Back,1.0,m,Tue Dec 16 2025 11:09:47 GMT-0600 (Central Standard Time),340155.7999999523,005_o_f_h_a.png,O,m,1538,18,1,2558.0,337597.7999999523,7710,VNB,B,17
0,test,2,0.0,1-Back,,,Tue Dec 16 2025 11:09:47 GMT-0600 (Central Standard Time),340155.7999999523,016_y_m_n_a.png,O,space,2356,1,1,2558.0,337597.7999999523,7710,VNB,B,0
1,test,2,0.0,1-Back,1.0,m,Tue Dec 16 2025 11:09:47 GMT-0600 (Central Standard Time),346619.89999997616,020_y_f_h_a.png,O,m,1061,2,1,2073.600000023842,344546.2999999523,7710,VNB,B,1
1,test,2,1.0,1-Back,0.0,m,Tue Dec 16 2025 11:09:47 GMT-0600 (Central Standard Time),348786.2000000477,004_o_m_n_a.png,O,z,1140,3,1,2158.600000023842,346627.60000002384,7710,VNB,B,2
2,test,2,0.0,1-Back,1.0,m,Tue Dec 16 2025 11:09:47 GMT-0600 (Central Standard Time),351102.5,011_m_f_d_a.png,O,m,1284,4,1,2310.0,348792.5,7710,VNB,B,3
2,test,2,0.0,1-Back,0.0,z,Tue Dec 16 2025 11:09:47 GMT-0600 (Central Standard Time),353035.60000002384,007_m_m_d_a.png,O,m,916,5,1,1926.3999999761581,351109.2000000477,7710,VNB,B,4
3,test,2,0.0,1-Back,1.0,m,Tue Dec 16 2025 11:09:47 GMT-0600 (Central Standard Time),354934.7999999523,016_y_m_h_a.png,O,m,868,6,1,1892.1999999284744,353042.60000002384,7710,VNB,B,5
4,test,2,1.0,1-Back,1.0,z,Tue Dec 16 2025 11:09:47 GMT-0600 (Central Standard Time),357018.89999997616,005_o_f_h_a.png,O,z,1050,7,1,2077.100000023842,354941.7999999523,7710,VNB,B,6
5,test,2,0.0,1-Back,1.0,m,Tue Dec 16 2025 11:09:47 GMT-0600 (Central Standard Time),358799.39999997616,011_m_f_n_a.png,O,m,758,8,1,1771.2999999523163,357028.10000002384,7710,VNB,B,7
6,test,2,0.0,1-Back,1.0,m,Tue Dec 16 2025 11:09:47 GMT-0600 (Central Standard Time),360617.10000002384,020_y_f_d_a.png,O,m,800,9,1,1810.8999999761581,358806.2000000477,7710,VNB,B,8
6,test,2,0.0,1-Back,0.0,m,Tue Dec 16 2025 11:09:47 GMT-0600 (Central Standard Time),363498.2000000477,007_m_m_n_a.png,O,z,1855,10,1,2876.4000000953674,360621.7999999523,7710,VNB,B,9
7,test,2,1.0,1-Back,1.0,m,Tue Dec 16 2025 11:09:47 GMT-0600 (Central Standard Time),365848.2000000477,011_m_f_h_a.png,O,m,1324,11,1,2343.3000000715256,363504.89999997616,7710,VNB,B,10
8,test,2,0.0,1-Back,1.0,z,Tue Dec 16 2025 11:09:47 GMT-0600 (Central Standard Time),367880.39999997616,004_o_m_h_a.png,O,z,1000,12,1,2025.5,365854.89999997616,7710,VNB,B,11
9,test,2,0.0,1-Back,1.0,m,Tue Dec 16 2025 11:09:47 GMT-0600 (Central Standard Time),369883.2000000477,016_y_m_d_a.png,O,m,967,13,1,1995.3000000715256,367887.89999997616,7710,VNB,B,12
10,test,2,0.0,1-Back,1.0,m,Tue Dec 16 2025 11:09:47 GMT-0600 (Central Standard Time),371995.60000002384,005_o_f_n_a.png,O,m,1098,14,1,2105.0,369890.60000002384,7710,VNB,B,13
10,test,2,0.0,1-Back,0.0,z,Tue Dec 16 2025 11:09:47 GMT-0600 (Central Standard Time),374077.89999997616,020_y_f_n_a.png,O,m,1052,15,1,2077.100000023842,372000.7999999523,7710,VNB,B,14
10,test,2,1.0,1-Back,0.0,m,Tue Dec 16 2025 11:09:47 GMT-0600 (Central Standard Time),377095.2000000477,007_m_m_h_a.png,O,None,2001,16,1,3010.7000000476837,374084.5,7710,VNB,B,15
11,test,2,0.0,1-Back,1.0,m,Tue Dec 16 2025 11:09:47 GMT-0600 (Central Standard Time),379527.10000002384,005_o_f_d_a.png,O,m,1400,17,1,2424.2000000476837,377102.89999997616,7710,VNB,B,16
12,test,2,1.0,1-Back,1.0,z,Tue Dec 16 2025 11:09:47 GMT-0600 (Central Standard Time),381792.7000000477,004_o_m_d_a.png,O,z,1235,18,1,2259.100000023842,379533.60000002384,7710,VNB,B,17
0,test,3,1.0,1-Back,,,Tue Dec 16 2025 11:09:47 GMT-0600 (Central Standard Time),381792.7000000477,005_o_f_h_a.png,O,space,1950,1,1,2259.100000023842,379533.60000002384,7710,VNB,B,0
1,test,3,0.0,1-Back,1.0,m,Tue Dec 16 2025 11:09:47 GMT-0600 (Central Standard Time),388574.60000002384,011_m_f_d_a.png,O,m,1700,2,1,2723.600000023842,385851.0,7710,VNB,B,1
2,test,3,1.0,1-Back,1.0,m,Tue Dec 16 2025 11:09:47 GMT-0600 (Central Standard Time),391239.2000000477,007_m_m_n_a.png,O,m,1641,3,1,2657.0,388582.2000000477,7710,VNB,B,2
3,test,3,0.0,1-Back,1.0,z,Tue Dec 16 2025 11:09:47 GMT-0600 (Central Standard Time),393571.0,005_o_f_n_a.png,O,z,1311,4,1,2325.7999999523163,391245.2000000477,7710,VNB,B,3
4,test,3,1.0,1-Back,1.0,m,Tue Dec 16 2025 11:09:47 GMT-0600 (Central Standard Time),395888.60000002384,004_o_m_d_a.png,O,m,1283,5,1,2315.2000000476837,393573.39999997616,7710,VNB,B,4
4,test,3,0.0,1-Back,0.0,m,Tue Dec 16 2025 11:09:47 GMT-0600 (Central Standard Time),397906.5,020_y_f_h_a.png,O,z,1001,6,1,2015.0,395891.5,7710,VNB,B,5
5,test,3,0.0,1-Back,1.0,z,Tue Dec 16 2025 11:09:47 GMT-0600 (Central Standard Time),400887.2000000477,016_y_m_h_a.png,O,z,1950,7,1,2977.5,397909.7000000477,7710,VNB,B,6
6,test,3,0.0,1-Back,1.0,m,Tue Dec 16 2025 11:09:47 GMT-0600 (Central Standard Time),402769.5,011_m_f_n_a.png,O,m,857,8,1,1876.2999999523163,400893.2000000477,7710,VNB,B,7
7,test,3,0.0,1-Back,1.0,m,Tue Dec 16 2025 11:09:47 GMT-0600 (Central Standard Time),404786.60000002384,020_y_f_d_a.png,O,m,989,9,1,2009.6000000238419,402777.0,7710,VNB,B,8
7,test,3,1.0,1-Back,0.0,m,Tue Dec 16 2025 11:09:47 GMT-0600 (Central Standard Time),407085.2000000477,004_o_m_n_a.png,O,z,1270,10,1,2291.100000023842,404794.10000002384,7710,VNB,B,9
8,test,3,0.0,1-Back,1.0,m,Tue Dec 16 2025 11:09:47 GMT-0600 (Central Standard Time),409383.5,007_m_m_h_a.png,O,m,1274,11,1,2290.100000023842,407093.39999997616,7710,VNB,B,10
9,test,3,0.0,1-Back,1.0,z,Tue Dec 16 2025 11:09:47 GMT-0600 (Central Standard Time),411184.39999997616,011_m_f_h_a.png,O,z,768,12,1,1792.6999999284744,409391.7000000477,7710,VNB,B,11
10,test,3,1.0,1-Back,1.0,m,Tue Dec 16 2025 11:09:47 GMT-0600 (Central Standard Time),413249.60000002384,005_o_f_d_a.png,O,m,1049,13,1,2055.399999976158,411194.2000000477,7710,VNB,B,12
10,test,3,0.0,1-Back,0.0,z,Tue Dec 16 2025 11:09:47 GMT-0600 (Central Standard Time),415248.2999999523,007_m_m_d_a.png,O,m,965,14,1,1991.6999999284744,413256.60000002384,7710,VNB,B,13
11,test,3,0.0,1-Back,1.0,m,Tue Dec 16 2025 11:09:47 GMT-0600 (Central Standard Time),417681.7000000477,016_y_m_n_a.png,O,m,1415,15,1,2427.100000023842,415254.60000002384,7710,VNB,B,14
12,test,3,1.0,1-Back,1.0,m,Tue Dec 16 2025 11:09:47 GMT-0600 (Central Standard Time),420098.0,004_o_m_h_a.png,O,m,1383,16,1,2412.899999976158,417685.10000002384,7710,VNB,B,15
13,test,3,0.0,1-Back,1.0,m,Tue Dec 16 2025 11:09:47 GMT-0600 (Central Standard Time),422179.7999999523,016_y_m_d_a.png,O,m,1062,17,1,2073.1999999284744,420106.60000002384,7710,VNB,B,16
13,test,3,1.0,1-Back,0.0,m,Tue Dec 16 2025 11:09:47 GMT-0600 (Central Standard Time),424995.2000000477,020_y_f_n_a.png,O,z,1788,18,1,2806.4000000953674,422188.7999999523,7710,VNB,B,17
0,test,4,1.0,1-Back,,,Tue Dec 16 2025 11:09:47 GMT-0600 (Central Standard Time),424995.2000000477,007_m_m_d_a.png,O,space,2100,1,1,2806.4000000953674,422188.7999999523,7710,VNB,B,0
0,test,4,0.0,1-Back,0.0,z,Tue Dec 16 2025 11:09:47 GMT-0600 (Central Standard Time),432159.7999999523,004_o_m_d_a.png,O,None,2016,2,1,3025.5999999046326,429134.2000000477,7710,VNB,B,1
1,test,4,0.0,1-Back,1.0,m,Tue Dec 16 2025 11:09:47 GMT-0600 (Central Standard Time),434392.10000002384,016_y_m_h_a.png,O,m,1207,3,1,2224.5,432167.60000002384,7710,VNB,B,2
1,test,4,0.0,1-Back,0.0,m,Tue Dec 16 2025 11:09:47 GMT-0600 (Central Standard Time),436441.7000000477,011_m_f_n_a.png,O,z,1031,4,1,2043.3000000715256,434398.39999997616,7710,VNB,B,3
1,test,4,1.0,1-Back,0.0,m,Tue Dec 16 2025 11:09:47 GMT-0600 (Central Standard Time),438924.39999997616,005_o_f_h_a.png,O,z,1454,5,1,2473.1999999284744,436451.2000000477,7710,VNB,B,4
1,test,4,0.0,1-Back,0.0,m,Tue Dec 16 2025 11:09:47 GMT-0600 (Central Standard Time),441959.2999999523,007_m_m_n_a.png,O,None,2018,6,1,3030.0,438929.2999999523,7710,VNB,B,5
2,test,4,0.0,1-Back,1.0,m,Tue Dec 16 2025 11:09:47 GMT-0600 (Central Standard Time),444389.39999997616,016_y_m_d_a.png,O,m,1404,7,1,2422.399999976158,441967.0,7710,VNB,B,6
3,test,4,1.0,1-Back,1.0,z,Tue Dec 16 2025 11:09:47 GMT-0600 (Central Standard Time),446388.39999997616,020_y_f_d_a.png,O,z,970,8,1,1992.3999999761581,444396.0,7710,VNB,B,7
3,test,4,0.0,1-Back,0.0,m,Tue Dec 16 2025 11:09:47 GMT-0600 (Central Standard Time),448287.39999997616,011_m_f_h_a.png,O,z,875,9,1,1892.3999999761581,446395.0,7710,VNB,B,8
3,test,4,0.0,1-Back,0.0,z,Tue Dec 16 2025 11:09:47 GMT-0600 (Central Standard Time),450635.5,004_o_m_h_a.png,O,m,1320,10,1,2338.7999999523163,448296.7000000477,7710,VNB,B,9
4,test,4,1.0,1-Back,1.0,m,Tue Dec 16 2025 11:09:47 GMT-0600 (Central Standard Time),452885.7000000477,005_o_f_n_a.png,O,m,1219,11,1,2245.600000023842,450640.10000002384,7710,VNB,B,10
4,test,4,0.0,1-Back,0.0,m,Tue Dec 16 2025 11:09:47 GMT-0600 (Central Standard Time),455152.39999997616,011_m_f_d_a.png,O,z,1241,12,1,2260.7999999523163,452891.60000002384,7710,VNB,B,11
5,test,4,0.0,1-Back,1.0,m,Tue Dec 16 2025 11:09:47 GMT-0600 (Central Standard Time),457452.89999997616,020_y_f_n_a.png,O,m,1280,13,1,2294.399999976158,455158.5,7710,VNB,B,12
5,test,4,0.0,1-Back,0.0,m,Tue Dec 16 2025 11:09:47 GMT-0600 (Central Standard Time),459684.10000002384,005_o_f_d_a.png,O,z,1212,14,1,2226.100000023842,457458.0,7710,VNB,B,13
6,test,4,0.0,1-Back,1.0,m,Tue Dec 16 2025 11:09:47 GMT-0600 (Central Standard Time),461884.0,020_y_f_h_a.png,O,m,1179,15,1,2192.7999999523163,459691.2000000477,7710,VNB,B,14
7,test,4,1.0,1-Back,1.0,z,Tue Dec 16 2025 11:09:47 GMT-0600 (Central Standard Time),463998.5,007_m_m_h_a.png,O,z,1083,16,1,2105.7000000476837,461892.7999999523,7710,VNB,B,15
8,test,4,0.0,1-Back,1.0,m,Tue Dec 16 2025 11:09:47 GMT-0600 (Central Standard Time),466065.0,004_o_m_n_a.png,O,m,1039,17,1,2059.2999999523163,464005.7000000477,7710,VNB,B,16
9,test,4,1.0,1-Back,1.0,z,Tue Dec 16 2025 11:09:47 GMT-0600 (Central Standard Time),468197.39999997616,016_y_m_n_a.png,O,z,1110,18,1,2126.399999976158,466071.0,7710,VNB,B,17
0,test,5,1.0,1-Back,,,Tue Dec 16 2025 11:09:47 GMT-0600 (Central Standard Time),468197.39999997616,004_o_m_n_a.png,O,space,2059,1,1,2126.399999976158,466071.0,7710,VNB,B,0
0,test,5,1.0,1-Back,0.0,m,Tue Dec 16 2025 11:09:47 GMT-0600 (Central Standard Time),475313.39999997616,005_o_f_h_a.png,O,None,2015,2,1,3026.899999976158,472286.5,7710,VNB,B,1
1,test,5,0.0,1-Back,1.0,m,Tue Dec 16 2025 11:09:47 GMT-0600 (Central Standard Time),477262.39999997616,016_y_m_d_a.png,O,m,925,3,1,1942.5,475319.89999997616,7710,VNB,B,2
2,test,5,0.0,1-Back,1.0,z,Tue Dec 16 2025 11:09:47 GMT-0600 (Central Standard Time),479513.7999999523,004_o_m_d_a.png,O,z,1236,4,1,2242.0,477271.7999999523,7710,VNB,B,3
3,test,5,0.0,1-Back,1.0,m,Tue Dec 16 2025 11:09:47 GMT-0600 (Central Standard Time),481909.2999999523,011_m_f_h_a.png,O,m,1368,5,1,2390.899999976158,479518.39999997616,7710,VNB,B,4
4,test,5,0.0,1-Back,1.0,m,Tue Dec 16 2025 11:09:47 GMT-0600 (Central Standard Time),483896.7999999523,020_y_f_n_a.png,O,m,970,6,1,1980.5999999046326,481916.2000000477,7710,VNB,B,5
5,test,5,1.0,1-Back,1.0,z,Tue Dec 16 2025 11:09:47 GMT-0600 (Central Standard Time),486044.10000002384,005_o_f_n_a.png,O,z,1122,7,1,2138.5,483905.60000002384,7710,VNB,B,6
6,test,5,0.0,1-Back,1.0,m,Tue Dec 16 2025 11:09:47 GMT-0600 (Central Standard Time),488257.89999997616,011_m_f_d_a.png,O,m,1188,8,1,2207.100000023842,486050.7999999523,7710,VNB,B,7
7,test,5,0.0,1-Back,1.0,m,Tue Dec 16 2025 11:09:47 GMT-0600 (Central Standard Time),490506.39999997616,016_y_m_h_a.png,O,m,1229,9,1,2242.100000023842,488264.2999999523,7710,VNB,B,8
8,test,5,0.0,1-Back,1.0,m,Tue Dec 16 2025 11:09:47 GMT-0600 (Central Standard Time),492874.10000002384,020_y_f_d_a.png,O,m,1349,10,1,2358.3000000715256,490515.7999999523,7710,VNB,B,9
8,test,5,0.0,1-Back,0.0,m,Tue Dec 16 2025 11:09:47 GMT-0600 (Central Standard Time),495673.89999997616,007_m_m_n_a.png,O,z,1783,11,1,2790.2999999523163,492883.60000002384,7710,VNB,B,10
9,test,5,1.0,1-Back,1.0,z,Tue Dec 16 2025 11:09:47 GMT-0600 (Central Standard Time),498022.2999999523,011_m_f_n_a.png,O,z,1318,12,1,2344.2999999523163,495678.0,7710,VNB,B,11
10,test,5,0.0,1-Back,1.0,m,Tue Dec 16 2025 11:09:47 GMT-0600 (Central Standard Time),500021.60000002384,004_o_m_h_a.png,O,m,969,13,1,1993.2000000476837,498028.39999997616,7710,VNB,B,12
11,test,5,0.0,1-Back,1.0,z,Tue Dec 16 2025 11:09:47 GMT-0600 (Central Standard Time),502069.89999997616,007_m_m_h_a.png,O,z,1027,14,1,2044.1999999284744,500025.7000000477,7710,VNB,B,13
12,test,5,1.0,1-Back,1.0,m,Tue Dec 16 2025 11:09:47 GMT-0600 (Central Standard Time),504436.89999997616,005_o_f_d_a.png,O,m,1346,15,1,2363.6999999284744,502073.2000000477,7710,VNB,B,14
12,test,5,0.0,1-Back,0.0,m,Tue Dec 16 2025 11:09:47 GMT-0600 (Central Standard Time),506517.7000000477,016_y_m_n_a.png,O,z,1051,16,1,2078.3000000715256,504439.39999997616,7710,VNB,B,15
13,test,5,0.0,1-Back,1.0,m,Tue Dec 16 2025 11:09:47 GMT-0600 (Central Standard Time),508651.5,020_y_f_h_a.png,O,m,1104,17,1,2130.899999976158,506520.60000002384,7710,VNB,B,16
14,test,5,0.0,1-Back,1.0,m,Tue Dec 16 2025 11:09:47 GMT-0600 (Central Standard Time),511184.5,007_m_m_d_a.png,O,m,1507,18,1,2530.399999976158,508654.10000002384,7710,VNB,B,17
0,prac,1,0.0,2-Back,,,Tue Dec 16 2025 11:09:47 GMT-0600 (Central Standard Time),511184.5,011_m_f_n_a.png,O,space,4791,1,1,2530.399999976158,508654.10000002384,7710,VNB,B,0
0,prac,1,0.0,2-Back,,,Tue Dec 16 2025 11:09:47 GMT-0600 (Central Standard Time),511184.5,005_o_f_h_a.png,O,space,4791,2,1,2530.399999976158,508654.10000002384,7710,VNB,B,0
1,prac,1,0.0,2-Back,1.0,m,Tue Dec 16 2025 11:09:47 GMT-0600 (Central Standard Time),668937.2999999523,004_o_m_d_a.png,O,m,1393,3,1,2242.2999999523163,666695.0,7710,VNB,B,1
2,prac,1,1.0,2-Back,1.0,z,Tue Dec 16 2025 11:09:47 GMT-0600 (Central Standard Time),671766.7999999523,007_m_m_h_a.png,O,z,1970,4,1,2823.7999999523163,668943.0,7710,VNB,B,2
3,prac,1,0.0,2-Back,1.0,m,Tue Dec 16 2025 11:09:47 GMT-0600 (Central Standard Time),674449.2000000477,020_y_f_n_a.png,O,m,1835,5,1,2670.2000000476837,671779.0,7710,VNB,B,3
4,prac,1,1.0,2-Back,1.0,z,Tue Dec 16 2025 11:09:47 GMT-0600 (Central Standard Time),676932.1000000238,004_o_m_h_a.png,O,z,1632,6,1,2470.899999976158,674461.2000000477,7710,VNB,B,4
4,prac,1,1.0,2-Back,0.0,z,Tue Dec 16 2025 11:09:47 GMT-0600 (Central Standard Time),679398.1000000238,016_y_m_n_a.png,O,m,1593,7,1,2457.5,676940.6000000238,7710,VNB,B,5
4,prac,1,0.0,2-Back,0.0,m,Tue Dec 16 2025 11:09:47 GMT-0600 (Central Standard Time),682148.8999999762,011_m_f_d_a.png,O,z,1888,8,1,2738.399999976158,679410.5,7710,VNB,B,6
4,prac,1,0.0,2-Back,0.0,m,Tue Dec 16 2025 11:09:47 GMT-0600 (Central Standard Time),684998.7000000477,005_o_f_d_a.png,O,None,2013,9,1,2843.8000000715256,682154.8999999762,7710,VNB,B,7
5,prac,1,0.0,2-Back,1.0,m,Tue Dec 16 2025 11:09:47 GMT-0600 (Central Standard Time),687730.1000000238,007_m_m_h_a.png,O,m,1944,10,1,2720.3000000715256,685009.7999999523,7710,VNB,B,8
5,prac,1,1.0,2-Back,0.0,z,Tue Dec 16 2025 11:09:47 GMT-0600 (Central Standard Time),690578.5,020_y_f_d_a.png,O,None,2006,11,1,2839.5,687739.0,7710,VNB,B,9
5,prac,1,0.0,2-Back,0.0,m,Tue Dec 16 2025 11:09:47 GMT-0600 (Central Standard Time),692810.6000000238,004_o_m_n_a.png,O,z,1403,12,1,2220.8000000715256,690589.7999999523,7710,VNB,B,10
0,prac,2,0.0,2-Back,,,Tue Dec 16 2025 11:09:47 GMT-0600 (Central Standard Time),692810.6000000238,011_m_f_n_a.png,O,a,5002,1,1,2220.8000000715256,690589.7999999523,7710,VNB,B,0
0,prac,2,0.0,2-Back,,,Tue Dec 16 2025 11:09:47 GMT-0600 (Central Standard Time),692810.6000000238,005_o_f_h_a.png,O,a,5002,2,1,2220.8000000715256,690589.7999999523,7710,VNB,B,0
0,prac,2,0.0,2-Back,0.0,m,Tue Dec 16 2025 11:09:47 GMT-0600 (Central Standard Time),705873.7000000477,004_o_m_d_a.png,O,None,2002,3,1,2839.2000000476837,703034.5,7710,VNB,B,1
0,prac,2,1.0,2-Back,0.0,z,Tue Dec 16 2025 11:09:47 GMT-0600 (Central Standard Time),708289.8999999762,007_m_m_h_a.png,O,m,1645,4,1,2406.6999999284744,705883.2000000477,7710,VNB,B,2
0,prac,2,0.0,2-Back,0.0,m,Tue Dec 16 2025 11:09:47 GMT-0600 (Central Standard Time),711122.8999999762,020_y_f_n_a.png,O,None,2007,5,1,2823.6999999284744,708299.2000000477,7710,VNB,B,3
0,prac,2,1.0,2-Back,0.0,z,Tue Dec 16 2025 11:09:47 GMT-0600 (Central Standard Time),713954.7000000477,004_o_m_h_a.png,O,None,2007,6,1,2822.5,711132.2000000477,7710,VNB,B,4
0,prac,2,1.0,2-Back,0.0,z,Tue Dec 16 2025 11:09:47 GMT-0600 (Central Standard Time),715003.0,016_y_m_n_a.png,O,m,181,7,1,1040.5,713962.5,7710,VNB,B,5
1,prac,2,0.0,2-Back,1.0,m,Tue Dec 16 2025 11:09:47 GMT-0600 (Central Standard Time),717303.3999999762,011_m_f_d_a.png,O,m,1452,8,1,2289.600000023842,715013.7999999523,7710,VNB,B,6
1,prac,2,0.0,2-Back,0.0,m,Tue Dec 16 2025 11:09:47 GMT-0600 (Central Standard Time),720168.5,005_o_f_d_a.png,O,None,2012,9,1,2853.7999999523163,717314.7000000477,7710,VNB,B,7
2,prac,2,0.0,2-Back,1.0,m,Tue Dec 16 2025 11:09:47 GMT-0600 (Central Standard Time),722117.7000000477,007_m_m_h_a.png,O,m,1167,10,1,1940.7000000476837,720177.0,7710,VNB,B,8
2,prac,2,1.0,2-Back,0.0,z,Tue Dec 16 2025 11:09:47 GMT-0600 (Central Standard Time),724983.2999999523,020_y_f_d_a.png,O,None,2005,11,1,2855.6999999284744,722127.6000000238,7710,VNB,B,9
3,prac,2,0.0,2-Back,1.0,m,Tue Dec 16 2025 11:09:47 GMT-0600 (Central Standard Time),726732.5,004_o_m_n_a.png,O,m,894,12,1,1739.3999999761581,724993.1000000238,7710,VNB,B,10
0,prac,3,0.0,2-Back,,,Tue Dec 16 2025 11:09:47 GMT-0600 (Central Standard Time),726732.5,011_m_f_n_a.png,O,a,4304,1,1,1739.3999999761581,724993.1000000238,7710,VNB,B,0
0,prac,3,0.0,2-Back,,,Tue Dec 16 2025 11:09:47 GMT-0600 (Central Standard Time),726732.5,005_o_f_h_a.png,O,a,4304,2,1,1739.3999999761581,724993.1000000238,7710,VNB,B,0
1,prac,3,0.0,2-Back,1.0,m,Tue Dec 16 2025 11:09:47 GMT-0600 (Central Standard Time),738647.2000000477,004_o_m_d_a.png,O,m,1576,3,1,2406.8000000715256,736240.3999999762,7710,VNB,B,1
1,prac,3,1.0,2-Back,0.0,z,Tue Dec 16 2025 11:09:47 GMT-0600 (Central Standard Time),741428.1000000238,007_m_m_h_a.png,O,None,2008,4,1,2771.5,738656.6000000238,7710,VNB,B,2
1,prac,3,0.0,2-Back,0.0,m,Tue Dec 16 2025 11:09:47 GMT-0600 (Central Standard Time),744277.5,020_y_f_n_a.png,O,None,2006,5,1,2838.899999976158,741438.6000000238,7710,VNB,B,3
1,prac,3,1.0,2-Back,0.0,z,Tue Dec 16 2025 11:09:47 GMT-0600 (Central Standard Time),747128.8999999762,004_o_m_h_a.png,O,None,2007,6,1,2840.399999976158,744288.5,7710,VNB,B,4
1,prac,3,1.0,2-Back,0.0,z,Tue Dec 16 2025 11:09:47 GMT-0600 (Central Standard Time),748675.3999999762,016_y_m_n_a.png,O,m,674,7,1,1535.6000000238419,747139.7999999523,7710,VNB,B,5
1,prac,3,0.0,2-Back,0.0,m,Tue Dec 16 2025 11:09:47 GMT-0600 (Central Standard Time),751541.6000000238,011_m_f_d_a.png,O,None,2014,8,1,2856.3000000715256,748685.2999999523,7710,VNB,B,6
1,prac,3,0.0,2-Back,0.0,m,Tue Dec 16 2025 11:09:47 GMT-0600 (Central Standard Time),754392.5,005_o_f_d_a.png,O,None,2016,9,1,2844.2000000476837,751548.2999999523,7710,VNB,B,7
1,prac,3,0.0,2-Back,0.0,m,Tue Dec 16 2025 11:09:47 GMT-0600 (Central Standard Time),756189.8999999762,007_m_m_h_a.png,O,z,1015,10,1,1789.5,754400.3999999762,7710,VNB,B,8
1,prac,3,1.0,2-Back,0.0,z,Tue Dec 16 2025 11:09:47 GMT-0600 (Central Standard Time),758457.3999999762,020_y_f_d_a.png,O,m,1423,11,1,2258.899999976158,756198.5,7710,VNB,B,9
2,prac,3,0.0,2-Back,1.0,m,Tue Dec 16 2025 11:09:47 GMT-0600 (Central Standard Time),760323.2000000477,004_o_m_n_a.png,O,m,1015,12,1,1857.1000000238419,758466.1000000238,7710,VNB,B,10
0,prac,4,0.0,2-Back,,,Tue Dec 16 2025 11:09:47 GMT-0600 (Central Standard Time),760323.2000000477,011_m_f_n_a.png,O,a,2146,1,1,1857.1000000238419,758466.1000000238,7710,VNB,B,0
0,prac,4,0.0,2-Back,,,Tue Dec 16 2025 11:09:47 GMT-0600 (Central Standard Time),760323.2000000477,005_o_f_h_a.png,O,a,2146,2,1,1857.1000000238419,758466.1000000238,7710,VNB,B,0
0,prac,4,0.0,2-Back,0.0,m,Tue Dec 16 2025 11:09:47 GMT-0600 (Central Standard Time),770502.2999999523,004_o_m_d_a.png,O,None,2010,3,1,2841.1999999284744,767661.1000000238,7710,VNB,B,1
1,prac,4,1.0,2-Back,1.0,z,Tue Dec 16 2025 11:09:47 GMT-0600 (Central Standard Time),772618.8999999762,007_m_m_h_a.png,O,z,1329,4,1,2108.0,770510.8999999762,7710,VNB,B,2
2,prac,4,0.0,2-Back,1.0,m,Tue Dec 16 2025 11:09:47 GMT-0600 (Central Standard Time),774500.7000000477,020_y_f_n_a.png,O,m,1032,5,1,1870.9000000953674,772629.7999999523,7710,VNB,B,3
3,prac,4,1.0,2-Back,1.0,z,Tue Dec 16 2025 11:09:47 GMT-0600 (Central Standard Time),776433.6000000238,004_o_m_h_a.png,O,z,1083,6,1,1923.8000000715256,774509.7999999523,7710,VNB,B,4
3,prac,4,1.0,2-Back,0.0,z,Tue Dec 16 2025 11:09:47 GMT-0600 (Central Standard Time),778203.6000000238,016_y_m_n_a.png,O,m,897,7,1,1758.8000000715256,776444.7999999523,7710,VNB,B,5
3,prac,4,0.0,2-Back,0.0,m,Tue Dec 16 2025 11:09:47 GMT-0600 (Central Standard Time),780082.2999999523,011_m_f_d_a.png,O,z,1024,8,1,1869.2999999523163,778213.0,7710,VNB,B,6
4,prac,4,0.0,2-Back,1.0,m,Tue Dec 16 2025 11:09:47 GMT-0600 (Central Standard Time),780931.8999999762,005_o_f_d_a.png,O,m,0,9,1,840.6999999284744,780091.2000000477,7710,VNB,B,7
5,prac,4,0.0,2-Back,1.0,m,Tue Dec 16 2025 11:09:47 GMT-0600 (Central Standard Time),783181.1000000238,007_m_m_h_a.png,O,m,1458,10,1,2239.5,780941.6000000238,7710,VNB,B,8
5,prac,4,1.0,2-Back,0.0,z,Tue Dec 16 2025 11:09:47 GMT-0600 (Central Standard Time),785632.8999999762,020_y_f_d_a.png,O,m,1606,11,1,2445.100000023842,783187.7999999523,7710,VNB,B,9
5,prac,4,0.0,2-Back,0.0,m,Tue Dec 16 2025 11:09:47 GMT-0600 (Central Standard Time),788163.3999999762,004_o_m_n_a.png,O,z,1678,12,1,2513.2999999523163,785650.1000000238,7710,VNB,B,10
0,test,1,0.0,2-Back,,,Tue Dec 16 2025 11:09:47 GMT-0600 (Central Standard Time),788163.3999999762,016_y_m_h_a.png,O,space,5484,1,1,2513.2999999523163,785650.1000000238,7710,VNB,B,0
0,test,1,0.0,2-Back,,,Tue Dec 16 2025 11:09:47 GMT-0600 (Central Standard Time),788163.3999999762,005_o_f_n_a.png,O,space,5484,2,1,2513.2999999523163,785650.1000000238,7710,VNB,B,0
1,test,1,0.0,2-Back,1.0,z,Tue Dec 16 2025 11:09:47 GMT-0600 (Central Standard Time),810223.1000000238,004_o_m_h_a.png,O,z,1217,3,1,2240.5,807982.6000000238,7710,VNB,B,1
2,test,1,0.0,2-Back,1.0,m,Tue Dec 16 2025 11:09:47 GMT-0600 (Central Standard Time),812838.7000000477,011_m_f_d_a.png,O,m,1585,4,1,2608.7000000476837,810230.0,7710,VNB,B,2
3,test,1,1.0,2-Back,1.0,m,Tue Dec 16 2025 11:09:47 GMT-0600 (Central Standard Time),815670.0,016_y_m_n_a.png,O,m,1801,5,1,2824.7000000476837,812845.2999999523,7710,VNB,B,3
4,test,1,0.0,2-Back,1.0,z,Tue Dec 16 2025 11:09:47 GMT-0600 (Central Standard Time),818156.6000000238,020_y_f_d_a.png,O,z,1465,6,1,2483.399999976158,815673.2000000477,7710,VNB,B,4
5,test,1,0.0,2-Back,1.0,m,Tue Dec 16 2025 11:09:47 GMT-0600 (Central Standard Time),820286.5,007_m_m_h_a.png,O,m,1101,7,1,2121.5,818165.0,7710,VNB,B,5
6,test,1,1.0,2-Back,1.0,m,Tue Dec 16 2025 11:09:47 GMT-0600 (Central Standard Time),823186.6000000238,020_y_f_n_a.png,O,m,1882,8,1,2890.8000000715256,820295.7999999523,7710,VNB,B,6
6,test,1,0.0,2-Back,0.0,z,Tue Dec 16 2025 11:09:47 GMT-0600 (Central Standard Time),826219.8999999762,005_o_f_h_a.png,O,None,2018,9,1,3026.899999976158,823193.0,7710,VNB,B,7
7,test,1,0.0,2-Back,1.0,m,Tue Dec 16 2025 11:09:47 GMT-0600 (Central Standard Time),828618.3999999762,004_o_m_d_a.png,O,m,1375,10,1,2392.0,826226.3999999762,7710,VNB,B,8
7,test,1,1.0,2-Back,0.0,m,Tue Dec 16 2025 11:09:47 GMT-0600 (Central Standard Time),830932.5,007_m_m_d_a.png,O,z,1294,11,1,2307.5,828625.0,7710,VNB,B,9
7,test,1,0.0,2-Back,0.0,m,Tue Dec 16 2025 11:09:47 GMT-0600 (Central Standard Time),833015.2000000477,011_m_f_n_a.png,O,z,1050,12,1,2076.600000023842,830938.6000000238,7710,VNB,B,10
8,test,1,0.0,2-Back,1.0,m,Tue Dec 16 2025 11:09:47 GMT-0600 (Central Standard Time),835364.2999999523,020_y_f_h_a.png,O,m,1329,13,1,2341.399999976158,833022.8999999762,7710,VNB,B,11
9,test,1,0.0,2-Back,1.0,z,Tue Dec 16 2025 11:09:47 GMT-0600 (Central Standard Time),837347.1000000238,007_m_m_n_a.png,O,z,963,14,1,1977.7000000476837,835369.3999999762,7710,VNB,B,12
9,test,1,0.0,2-Back,0.0,m,Tue Dec 16 2025 11:09:47 GMT-0600 (Central Standard Time),839863.6000000238,016_y_m_d_a.png,O,z,1493,15,1,2509.100000023842,837354.5,7710,VNB,B,13
10,test,1,1.0,2-Back,1.0,m,Tue Dec 16 2025 11:09:47 GMT-0600 (Central Standard Time),842862.7000000477,011_m_f_h_a.png,O,m,1976,16,1,2991.0,839871.7000000477,7710,VNB,B,14
11,test,1,0.0,2-Back,1.0,z,Tue Dec 16 2025 11:09:47 GMT-0600 (Central Standard Time),845244.5,005_o_f_d_a.png,O,z,1361,17,1,2375.600000023842,842868.8999999762,7710,VNB,B,15
11,test,1,0.0,2-Back,0.0,m,Tue Dec 16 2025 11:09:47 GMT-0600 (Central Standard Time),847411.5,004_o_m_n_a.png,O,z,1146,18,1,2160.7999999523163,845250.7000000477,7710,VNB,B,16
0,test,2,0.0,2-Back,,,Tue Dec 16 2025 11:09:47 GMT-0600 (Central Standard Time),847411.5,007_m_m_h_a.png,O,space,2172,1,1,2160.7999999523163,845250.7000000477,7710,VNB,B,0
0,test,2,0.0,2-Back,,,Tue Dec 16 2025 11:09:47 GMT-0600 (Central Standard Time),847411.5,020_y_f_n_a.png,O,space,2172,2,1,2160.7999999523163,845250.7000000477,7710,VNB,B,0
1,test,2,1.0,2-Back,1.0,z,Tue Dec 16 2025 11:09:47 GMT-0600 (Central Standard Time),857041.7000000477,005_o_f_h_a.png,O,z,1230,3,1,2243.3000000715256,854798.3999999762,7710,VNB,B,1
2,test,2,0.0,2-Back,1.0,m,Tue Dec 16 2025 11:09:47 GMT-0600 (Central Standard Time),859090.2999999523,004_o_m_d_a.png,O,m,1022,4,1,2044.0,857046.2999999523,7710,VNB,B,2
2,test,2,0.0,2-Back,0.0,m,Tue Dec 16 2025 11:09:47 GMT-0600 (Central Standard Time),861589.7999999523,011_m_f_d_a.png,O,z,1469,5,1,2496.5,859093.2999999523,7710,VNB,B,3
3,test,2,0.0,2-Back,1.0,m,Tue Dec 16 2025 11:09:47 GMT-0600 (Central Standard Time),864089.3999999762,016_y_m_h_a.png,O,m,1476,6,1,2494.0,861595.3999999762,7710,VNB,B,4
4,test,2,0.0,2-Back,1.0,m,Tue Dec 16 2025 11:09:47 GMT-0600 (Central Standard Time),866471.2000000477,005_o_f_n_a.png,O,m,1351,7,1,2374.2000000476837,864097.0,7710,VNB,B,5
5,test,2,1.0,2-Back,1.0,z,Tue Dec 16 2025 11:09:47 GMT-0600 (Central Standard Time),869187.5,004_o_m_h_a.png,O,z,1689,8,1,2709.100000023842,866478.3999999762,7710,VNB,B,6
6,test,2,0.0,2-Back,1.0,m,Tue Dec 16 2025 11:09:47 GMT-0600 (Central Standard Time),871137.0,020_y_f_d_a.png,O,m,931,9,1,1944.2000000476837,869192.7999999523,7710,VNB,B,7
6,test,2,0.0,2-Back,0.0,m,Tue Dec 16 2025 11:09:47 GMT-0600 (Central Standard Time),873319.2999999523,016_y_m_d_a.png,O,z,1148,10,1,2177.1999999284744,871142.1000000238,7710,VNB,B,8
6,test,2,0.0,2-Back,0.0,m,Tue Dec 16 2025 11:09:47 GMT-0600 (Central Standard Time),875501.3999999762,007_m_m_n_a.png,O,z,1161,11,1,2175.1999999284744,873326.2000000477,7710,VNB,B,9
7,test,2,0.0,2-Back,1.0,m,Tue Dec 16 2025 11:09:47 GMT-0600 (Central Standard Time),877651.7000000477,011_m_f_h_a.png,O,m,1121,12,1,2146.600000023842,875505.1000000238,7710,VNB,B,10
7,test,2,1.0,2-Back,0.0,z,Tue Dec 16 2025 11:09:47 GMT-0600 (Central Standard Time),879683.2000000477,004_o_m_n_a.png,O,m,1013,13,1,2023.0,877660.2000000477,7710,VNB,B,11
8,test,2,0.0,2-Back,1.0,m,Tue Dec 16 2025 11:09:47 GMT-0600 (Central Standard Time),881817.7999999523,005_o_f_d_a.png,O,m,1100,14,1,2129.5,879688.2999999523,7710,VNB,B,12
8,test,2,0.0,2-Back,0.0,m,Tue Dec 16 2025 11:09:47 GMT-0600 (Central Standard Time),884832.7999999523,020_y_f_h_a.png,O,None,2001,15,1,3008.0,881824.7999999523,7710,VNB,B,13
9,test,2,0.0,2-Back,1.0,z,Tue Dec 16 2025 11:09:47 GMT-0600 (Central Standard Time),887282.0,007_m_m_d_a.png,O,z,1431,16,1,2439.0,884843.0,7710,VNB,B,14
10,test,2,0.0,2-Back,1.0,m,Tue Dec 16 2025 11:09:47 GMT-0600 (Central Standard Time),889648.7000000477,016_y_m_n_a.png,O,m,1342,17,1,2358.5,887290.2000000477,7710,VNB,B,15
10,test,2,1.0,2-Back,0.0,m,Tue Dec 16 2025 11:09:47 GMT-0600 (Central Standard Time),892680.1000000238,011_m_f_n_a.png,O,None,2016,18,1,3024.8000000715256,889655.2999999523,7710,VNB,B,16
0,test,3,1.0,2-Back,,,Tue Dec 16 2025 11:09:47 GMT-0600 (Central Standard Time),892680.1000000238,004_o_m_n_a.png,O,space,1882,1,1,3024.8000000715256,889655.2999999523,7710,VNB,B,0
0,test,3,1.0,2-Back,,,Tue Dec 16 2025 11:09:47 GMT-0600 (Central Standard Time),892680.1000000238,005_o_f_d_a.png,O,space,1882,2,1,3024.8000000715256,889655.2999999523,7710,VNB,B,0
1,test,3,0.0,2-Back,1.0,m,Tue Dec 16 2025 11:09:47 GMT-0600 (Central Standard Time),901527.2000000477,020_y_f_h_a.png,O,m,873,3,1,1892.2000000476837,899635.0,7710,VNB,B,1
1,test,3,0.0,2-Back,0.0,z,Tue Dec 16 2025 11:09:47 GMT-0600 (Central Standard Time),903976.2999999523,011_m_f_d_a.png,O,m,1416,4,1,2441.6999999284744,901534.6000000238,7710,VNB,B,2
1,test,3,1.0,2-Back,0.0,m,Tue Dec 16 2025 11:09:47 GMT-0600 (Central Standard Time),906395.0,016_y_m_n_a.png,O,z,1388,5,1,2411.899999976158,903983.1000000238,7710,VNB,B,3
2,test,3,0.0,2-Back,1.0,m,Tue Dec 16 2025 11:09:47 GMT-0600 (Central Standard Time),908523.7999999523,004_o_m_h_a.png,O,m,1111,6,1,2121.399999976158,906402.3999999762,7710,VNB,B,4
2,test,3,0.0,2-Back,0.0,z,Tue Dec 16 2025 11:09:47 GMT-0600 (Central Standard Time),910542.1000000238,020_y_f_n_a.png,O,m,987,7,1,2012.2000000476837,908529.8999999762,7710,VNB,B,5
2,test,3,1.0,2-Back,0.0,m,Tue Dec 16 2025 11:09:47 GMT-0600 (Central Standard Time),913091.2999999523,007_m_m_d_a.png,O,z,1529,8,1,2542.899999976158,910548.3999999762,7710,VNB,B,6
3,test,3,0.0,2-Back,1.0,m,Tue Dec 16 2025 11:09:47 GMT-0600 (Central Standard Time),915109.0,016_y_m_d_a.png,O,m,996,9,1,2011.2999999523163,913097.7000000477,7710,VNB,B,7
4,test,3,0.0,2-Back,1.0,m,Tue Dec 16 2025 11:09:47 GMT-0600 (Central Standard Time),917621.3999999762,005_o_f_h_a.png,O,m,1491,10,1,2509.7999999523163,915111.6000000238,7710,VNB,B,8
5,test,3,1.0,2-Back,1.0,m,Tue Dec 16 2025 11:09:47 GMT-0600 (Central Standard Time),919889.2000000477,011_m_f_n_a.png,O,m,1245,11,1,2260.8000000715256,917628.3999999762,7710,VNB,B,9
5,test,3,1.0,2-Back,0.0,z,Tue Dec 16 2025 11:09:47 GMT-0600 (Central Standard Time),922169.2000000477,007_m_m_h_a.png,O,m,1254,12,1,2276.5,919892.7000000477,7710,VNB,B,10
5,test,3,0.0,2-Back,0.0,m,Tue Dec 16 2025 11:09:47 GMT-0600 (Central Standard Time),925187.2999999523,020_y_f_d_a.png,O,None,2001,13,1,3015.6999999284744,922171.6000000238,7710,VNB,B,11
5,test,3,0.0,2-Back,0.0,m,Tue Dec 16 2025 11:09:47 GMT-0600 (Central Standard Time),927736.2999999523,005_o_f_n_a.png,O,z,1518,14,1,2540.0,925196.2999999523,7710,VNB,B,12
6,test,3,0.0,2-Back,1.0,z,Tue Dec 16 2025 11:09:47 GMT-0600 (Central Standard Time),930084.3999999762,004_o_m_d_a.png,O,z,1319,15,1,2340.7999999523163,927743.6000000238,7710,VNB,B,13
7,test,3,1.0,2-Back,1.0,m,Tue Dec 16 2025 11:09:47 GMT-0600 (Central Standard Time),932433.7000000477,011_m_f_h_a.png,O,m,1332,16,1,2342.100000023842,930091.6000000238,7710,VNB,B,14
8,test,3,0.0,2-Back,1.0,m,Tue Dec 16 2025 11:09:47 GMT-0600 (Central Standard Time),934698.7000000477,007_m_m_n_a.png,O,m,1245,17,1,2259.600000023842,932439.1000000238,7710,VNB,B,15
8,test,3,0.0,2-Back,0.0,z,Tue Dec 16 2025 11:09:47 GMT-0600 (Central Standard Time),936932.7000000477,016_y_m_h_a.png,O,m,1204,18,1,2231.100000023842,934701.6000000238,7710,VNB,B,16
0,test,4,0.0,2-Back,,,Tue Dec 16 2025 11:09:47 GMT-0600 (Central Standard Time),936932.7000000477,011_m_f_n_a.png,O,space,1690,1,1,2231.100000023842,934701.6000000238,7710,VNB,B,0
0,test,4,0.0,2-Back,,,Tue Dec 16 2025 11:09:47 GMT-0600 (Central Standard Time),936932.7000000477,004_o_m_n_a.png,O,space,1690,2,1,2231.100000023842,934701.6000000238,7710,VNB,B,0
0,test,4,1.0,2-Back,0.0,m,Tue Dec 16 2025 11:09:47 GMT-0600 (Central Standard Time),946047.2000000477,016_y_m_h_a.png,O,z,1201,3,1,2226.3000000715256,943820.8999999762,7710,VNB,B,1
1,test,4,1.0,2-Back,1.0,m,Tue Dec 16 2025 11:09:47 GMT-0600 (Central Standard Time),947945.2999999523,005_o_f_d_a.png,O,m,881,4,1,1892.7999999523163,946052.5,7710,VNB,B,2
2,test,4,0.0,2-Back,1.0,z,Tue Dec 16 2025 11:09:47 GMT-0600 (Central Standard Time),949915.6000000238,004_o_m_h_a.png,O,z,939,5,1,1964.0,947951.6000000238,7710,VNB,B,3
3,test,4,0.0,2-Back,1.0,m,Tue Dec 16 2025 11:09:47 GMT-0600 (Central Standard Time),951962.3999999762,007_m_m_n_a.png,O,m,1023,6,1,2043.3999999761581,949919.0,7710,VNB,B,4
4,test,4,0.0,2-Back,1.0,m,Tue Dec 16 2025 11:09:47 GMT-0600 (Central Standard Time),954742.8999999762,011_m_f_d_a.png,O,m,1757,7,1,2775.7999999523163,951967.1000000238,7710,VNB,B,5
4,test,4,0.0,2-Back,0.0,z,Tue Dec 16 2025 11:09:47 GMT-0600 (Central Standard Time),956843.1000000238,020_y_f_n_a.png,O,m,1066,8,1,2094.3000000715256,954748.7999999523,7710,VNB,B,6
5,test,4,1.0,2-Back,1.0,m,Tue Dec 16 2025 11:09:47 GMT-0600 (Central Standard Time),958845.5,005_o_f_h_a.png,O,m,972,9,1,1996.3999999761581,956849.1000000238,7710,VNB,B,7
5,test,4,0.0,2-Back,0.0,m,Tue Dec 16 2025 11:09:47 GMT-0600 (Central Standard Time),960808.3999999762,007_m_m_h_a.png,O,z,942,10,1,1957.7999999523163,958850.6000000238,7710,VNB,B,8
6,test,4,0.0,2-Back,1.0,m,Tue Dec 16 2025 11:09:47 GMT-0600 (Central Standard Time),962791.5,020_y_f_d_a.png,O,m,959,11,1,1975.8999999761581,960815.6000000238,7710,VNB,B,9
7,test,4,0.0,2-Back,1.0,m,Tue Dec 16 2025 11:09:47 GMT-0600 (Central Standard Time),964824.1000000238,016_y_m_n_a.png,O,m,1017,12,1,2027.8999999761581,962796.2000000477,7710,VNB,B,10
7,test,4,0.0,2-Back,0.0,z,Tue Dec 16 2025 11:09:47 GMT-0600 (Central Standard Time),966938.5,004_o_m_d_a.png,O,m,1088,13,1,2108.100000023842,964830.3999999762,7710,VNB,B,11
8,test,4,1.0,2-Back,1.0,m,Tue Dec 16 2025 11:09:47 GMT-0600 (Central Standard Time),968988.3999999762,011_m_f_h_a.png,O,m,1020,14,1,2043.3999999761581,966945.0,7710,VNB,B,12
9,test,4,1.0,2-Back,1.0,m,Tue Dec 16 2025 11:09:47 GMT-0600 (Central Standard Time),971189.3999999762,020_y_f_h_a.png,O,m,1170,15,1,2194.399999976158,968995.0,7710,VNB,B,13
9,test,4,0.0,2-Back,0.0,m,Tue Dec 16 2025 11:09:47 GMT-0600 (Central Standard Time),973372.5,005_o_f_n_a.png,O,z,1155,16,1,2176.2000000476837,971196.2999999523,7710,VNB,B,14
9,test,4,0.0,2-Back,0.0,m,Tue Dec 16 2025 11:09:47 GMT-0600 (Central Standard Time),975504.1000000238,016_y_m_d_a.png,O,z,1101,17,1,2124.100000023842,973380.0,7710,VNB,B,15
9,test,4,1.0,2-Back,0.0,m,Tue Dec 16 2025 11:09:47 GMT-0600 (Central Standard Time),977435.5,007_m_m_d_a.png,O,z,909,18,1,1924.2000000476837,975511.2999999523,7710,VNB,B,16
0,test,5,1.0,2-Back,,,Tue Dec 16 2025 11:09:47 GMT-0600 (Central Standard Time),977435.5,020_y_f_d_a.png,O,space,2060,1,1,1924.2000000476837,975511.2999999523,7710,VNB,B,0
0,test,5,1.0,2-Back,,,Tue Dec 16 2025 11:09:47 GMT-0600 (Central Standard Time),977435.5,005_o_f_h_a.png,O,space,2060,2,1,1924.2000000476837,975511.2999999523,7710,VNB,B,0
0,test,5,1.0,2-Back,0.0,z,Tue Dec 16 2025 11:09:47 GMT-0600 (Central Standard Time),986833.6000000238,004_o_m_d_a.png,O,m,1090,3,1,2107.899999976158,984725.7000000477,7710,VNB,B,1
1,test,5,1.0,2-Back,1.0,m,Tue Dec 16 2025 11:09:47 GMT-0600 (Central Standard Time),988832.8999999762,011_m_f_n_a.png,O,m,976,4,1,1992.6000000238419,986840.2999999523,7710,VNB,B,2
1,test,5,0.0,2-Back,0.0,m,Tue Dec 16 2025 11:09:47 GMT-0600 (Central Standard Time),990833.3999999762,007_m_m_h_a.png,O,z,968,5,1,1992.5,988840.8999999762,7710,VNB,B,3
1,test,5,0.0,2-Back,0.0,z,Tue Dec 16 2025 11:09:47 GMT-0600 (Central Standard Time),992948.5,020_y_f_n_a.png,O,m,1082,6,1,2109.7999999523163,990838.7000000477,7710,VNB,B,4
2,test,5,0.0,2-Back,1.0,m,Tue Dec 16 2025 11:09:47 GMT-0600 (Central Standard Time),995030.7999999523,005_o_f_d_a.png,O,m,1059,7,1,2075.5999999046326,992955.2000000477,7710,VNB,B,5
3,test,5,0.0,2-Back,1.0,m,Tue Dec 16 2025 11:09:47 GMT-0600 (Central Standard Time),997481.6000000238,004_o_m_h_a.png,O,m,1418,8,1,2443.7000000476837,995037.8999999762,7710,VNB,B,6
3,test,5,1.0,2-Back,0.0,z,Tue Dec 16 2025 11:09:47 GMT-0600 (Central Standard Time),999612.3999999762,011_m_f_d_a.png,O,m,1111,9,1,2125.100000023842,997487.2999999523,7710,VNB,B,7
4,test,5,0.0,2-Back,1.0,m,Tue Dec 16 2025 11:09:47 GMT-0600 (Central Standard Time),1001948.7999999523,016_y_m_n_a.png,O,m,1317,10,1,2328.6999999284744,999620.1000000238,7710,VNB,B,8
4,test,5,0.0,2-Back,0.0,m,Tue Dec 16 2025 11:09:47 GMT-0600 (Central Standard Time),1004426.7000000477,007_m_m_n_a.png,O,z,1463,11,1,2470.8000000715256,1001955.8999999762,7710,VNB,B,9
5,test,5,0.0,2-Back,1.0,m,Tue Dec 16 2025 11:09:47 GMT-0600 (Central Standard Time),1006460.2999999523,020_y_f_h_a.png,O,m,1012,12,1,2027.0999999046326,1004433.2000000477,7710,VNB,B,10
5,test,5,0.0,2-Back,0.0,m,Tue Dec 16 2025 11:09:47 GMT-0600 (Central Standard Time),1008459.5,016_y_m_d_a.png,O,z,979,13,1,1988.7999999523163,1006470.7000000477,7710,VNB,B,11
5,test,5,1.0,2-Back,0.0,z,Tue Dec 16 2025 11:09:47 GMT-0600 (Central Standard Time),1010459.1000000238,011_m_f_h_a.png,O,m,974,14,1,1991.7000000476837,1008467.3999999762,7710,VNB,B,12
5,test,5,0.0,2-Back,0.0,m,Tue Dec 16 2025 11:09:47 GMT-0600 (Central Standard Time),1012676.0,004_o_m_n_a.png,O,z,1196,15,1,2208.5,1010467.5,7710,VNB,B,13
5,test,5,0.0,2-Back,0.0,m,Tue Dec 16 2025 11:09:47 GMT-0600 (Central Standard Time),1015707.8999999762,007_m_m_d_a.png,O,None,2016,16,1,3020.899999976158,1012687.0,7710,VNB,B,14
6,test,5,0.0,2-Back,1.0,z,Tue Dec 16 2025 11:09:47 GMT-0600 (Central Standard Time),1018456.6000000238,005_o_f_n_a.png,O,z,1725,17,1,2741.399999976158,1015715.2000000477,7710,VNB,B,15
7,test,5,1.0,2-Back,1.0,m,Tue Dec 16 2025 11:09:47 GMT-0600 (Central Standard Time),1020872.5,016_y_m_h_a.png,O,m,1381,18,1,2410.100000023842,1018462.3999999762,7710,VNB,B,16
