acc_sum,block,block_c,change,condition,correct,correct_response,datetime,endtime,face,project,response,response_time,row_sel,session_number,start_end,starttime,subject_id,task,task_vers,trial
0,prac,1,,1-Back,,,Wed Jun 04 2025 10:37:44 GMT-0500 (Central Daylight Time),,124_o_f_d_a.png,O,space,3218,1,1,,,7159,VNB,A,0
1,prac,1,0.0,1-Back,1,m,Wed Jun 04 2025 10:37:44 GMT-0500 (Central Daylight Time),133719.6000000001,071_y_f_n_a.png,O,m,1368,2,1,2171.7000000001863,131547.8999999999,7159,VNB,A,1
2,prac,1,0.0,1-Back,1,m,Wed Jun 04 2025 10:37:44 GMT-0500 (Central Daylight Time),136416.80000000028,165_m_m_h_a.png,O,m,1891,3,1,2688.0,133728.80000000028,7159,VNB,A,2
3,prac,1,0.0,1-Back,1,m,Wed Jun 04 2025 10:37:44 GMT-0500 (Central Daylight Time),138816.5,109_y_m_d_a.png,O,m,1579,4,1,2387.1999999997206,136429.30000000028,7159,VNB,A,3
4,prac,1,0.0,1-Back,1,m,Wed Jun 04 2025 10:37:44 GMT-0500 (Central Daylight Time),141148.6000000001,124_o_f_n_a.png,O,m,1492,5,1,2320.100000000093,138828.5,7159,VNB,A,4
5,prac,1,1.0,1-Back,1,z,Wed Jun 04 2025 10:37:44 GMT-0500 (Central Daylight Time),143098.1000000001,109_y_m_n_a.png,O,z,1141,6,1,1937.2999999998137,141160.80000000028,7159,VNB,A,5
6,prac,1,0.0,1-Back,1,m,Wed Jun 04 2025 10:37:44 GMT-0500 (Central Daylight Time),145131.7000000002,039_o_m_h_a.png,O,m,1222,7,1,2022.5,143109.2000000002,7159,VNB,A,6
7,prac,1,0.0,1-Back,1,m,Wed Jun 04 2025 10:37:44 GMT-0500 (Central Daylight Time),147379.7000000002,139_m_f_d_a.png,O,m,1431,8,1,2237.3000000002794,145142.3999999999,7159,VNB,A,7
8,prac,1,1.0,1-Back,1,z,Wed Jun 04 2025 10:37:44 GMT-0500 (Central Daylight Time),149012.8999999999,071_y_f_d_a.png,O,z,833,9,1,1623.7999999998137,147389.1000000001,7159,VNB,A,8
9,prac,1,0.0,1-Back,1,m,Wed Jun 04 2025 10:37:44 GMT-0500 (Central Daylight Time),151262.5,165_m_m_n_a.png,O,m,1445,10,1,2237.6999999997206,149024.80000000028,7159,VNB,A,9
10,prac,1,0.0,1-Back,1,m,Wed Jun 04 2025 10:37:44 GMT-0500 (Central Daylight Time),153494.80000000028,124_o_f_h_a.png,O,m,1406,11,1,2222.100000000093,151272.7000000002,7159,VNB,A,10
11,prac,1,0.0,1-Back,1,m,Wed Jun 04 2025 10:37:44 GMT-0500 (Central Daylight Time),155828.80000000028,109_y_m_d_a.png,O,m,1555,12,1,2322.100000000093,153506.7000000002,7159,VNB,A,11
0,test,1,0.0,1-Back,,,Wed Jun 04 2025 10:37:44 GMT-0500 (Central Daylight Time),155828.80000000028,071_y_f_d_a.png,O,space,4212,1,1,2322.100000000093,153506.7000000002,7159,VNB,A,0
1,test,1,0.0,1-Back,1,m,Wed Jun 04 2025 10:37:44 GMT-0500 (Central Daylight Time),169007.0,139_m_f_n_a.png,O,m,1200,2,1,2223.2999999998137,166783.7000000002,7159,VNB,A,1
2,test,1,0.0,1-Back,1,m,Wed Jun 04 2025 10:37:44 GMT-0500 (Central Daylight Time),171639.5,039_o_m_h_a.png,O,m,1602,3,1,2621.899999999907,169017.6000000001,7159,VNB,A,2
2,test,1,1.0,1-Back,0,z,Wed Jun 04 2025 10:37:44 GMT-0500 (Central Daylight Time),173621.1000000001,165_m_m_h_a.png,O,m,963,4,1,1971.7999999998137,171649.30000000028,7159,VNB,A,3
3,test,1,0.0,1-Back,1,m,Wed Jun 04 2025 10:37:44 GMT-0500 (Central Daylight Time),175688.7000000002,124_o_f_n_a.png,O,m,1043,5,1,2056.100000000093,173632.6000000001,7159,VNB,A,4
4,test,1,0.0,1-Back,1,m,Wed Jun 04 2025 10:37:44 GMT-0500 (Central Daylight Time),177869.6000000001,109_y_m_d_a.png,O,m,1155,6,1,2171.399999999907,175698.2000000002,7159,VNB,A,5
5,test,1,1.0,1-Back,1,z,Wed Jun 04 2025 10:37:44 GMT-0500 (Central Daylight Time),179886.2000000002,139_m_f_d_a.png,O,z,996,7,1,2007.2000000001863,177879.0,7159,VNB,A,6
6,test,1,0.0,1-Back,1,m,Wed Jun 04 2025 10:37:44 GMT-0500 (Central Daylight Time),181804.1000000001,071_y_f_h_a.png,O,m,901,8,1,1908.5,179895.6000000001,7159,VNB,A,7
7,test,1,0.0,1-Back,1,m,Wed Jun 04 2025 10:37:44 GMT-0500 (Central Daylight Time),184184.8999999999,039_o_m_n_a.png,O,m,1349,9,1,2372.6999999997206,181812.2000000002,7159,VNB,A,8
8,test,1,0.0,1-Back,1,m,Wed Jun 04 2025 10:37:44 GMT-0500 (Central Daylight Time),186634.80000000028,109_y_m_h_a.png,O,m,1424,10,1,2439.8000000002794,184195.0,7159,VNB,A,9
9,test,1,0.0,1-Back,1,m,Wed Jun 04 2025 10:37:44 GMT-0500 (Central Daylight Time),188899.6000000001,039_o_m_d_a.png,O,m,1238,11,1,2255.100000000093,186644.5,7159,VNB,A,10
10,test,1,1.0,1-Back,1,z,Wed Jun 04 2025 10:37:44 GMT-0500 (Central Daylight Time),190732.30000000028,124_o_f_d_a.png,O,z,813,12,1,1823.8000000002794,188908.5,7159,VNB,A,11
11,test,1,0.0,1-Back,1,m,Wed Jun 04 2025 10:37:44 GMT-0500 (Central Daylight Time),192817.3999999999,165_m_m_n_a.png,O,m,1061,13,1,2076.0,190741.3999999999,7159,VNB,A,12
11,test,1,1.0,1-Back,0,z,Wed Jun 04 2025 10:37:44 GMT-0500 (Central Daylight Time),195133.2000000002,071_y_f_n_a.png,O,m,1300,14,1,2305.7000000001863,192827.5,7159,VNB,A,13
12,test,1,0.0,1-Back,1,m,Wed Jun 04 2025 10:37:44 GMT-0500 (Central Daylight Time),197364.30000000028,139_m_f_h_a.png,O,m,1206,15,1,2222.7000000001863,195141.6000000001,7159,VNB,A,14
13,test,1,0.0,1-Back,1,m,Wed Jun 04 2025 10:37:44 GMT-0500 (Central Daylight Time),199498.30000000028,165_m_m_d_a.png,O,m,1101,16,1,2124.8000000002794,197373.5,7159,VNB,A,15
14,test,1,0.0,1-Back,1,m,Wed Jun 04 2025 10:37:44 GMT-0500 (Central Daylight Time),201797.0,109_y_m_n_a.png,O,m,1283,17,1,2288.899999999907,199508.1000000001,7159,VNB,A,16
15,test,1,0.0,1-Back,1,m,Wed Jun 04 2025 10:37:44 GMT-0500 (Central Daylight Time),203795.3999999999,124_o_f_h_a.png,O,m,973,18,1,1986.5999999996275,201808.80000000028,7159,VNB,A,17
0,test,2,0.0,1-Back,,,Wed Jun 04 2025 10:37:44 GMT-0500 (Central Daylight Time),203795.3999999999,109_y_m_n_a.png,O,space,1206,1,1,1986.5999999996275,201808.80000000028,7159,VNB,A,0
1,test,2,0.0,1-Back,1,m,Wed Jun 04 2025 10:37:44 GMT-0500 (Central Daylight Time),208927.30000000028,071_y_f_h_a.png,O,m,877,2,1,1887.3000000002794,207040.0,7159,VNB,A,1
2,test,2,1.0,1-Back,1,m,Wed Jun 04 2025 10:37:44 GMT-0500 (Central Daylight Time),211010.6000000001,039_o_m_n_a.png,O,m,1064,3,1,2074.100000000093,208936.5,7159,VNB,A,2
3,test,2,0.0,1-Back,1,m,Wed Jun 04 2025 10:37:44 GMT-0500 (Central Daylight Time),213209.8999999999,139_m_f_d_a.png,O,m,1167,4,1,2189.899999999907,211020.0,7159,VNB,A,3
4,test,2,0.0,1-Back,1,z,Wed Jun 04 2025 10:37:44 GMT-0500 (Central Daylight Time),215158.2000000002,165_m_m_d_a.png,O,z,928,5,1,1938.2000000001863,213220.0,7159,VNB,A,4
5,test,2,0.0,1-Back,1,m,Wed Jun 04 2025 10:37:44 GMT-0500 (Central Daylight Time),217292.8999999999,109_y_m_h_a.png,O,m,1117,6,1,2123.5,215169.3999999999,7159,VNB,A,5
6,test,2,1.0,1-Back,1,z,Wed Jun 04 2025 10:37:44 GMT-0500 (Central Daylight Time),219224.3999999999,124_o_f_h_a.png,O,z,900,7,1,1921.2999999998137,217303.1000000001,7159,VNB,A,6
7,test,2,0.0,1-Back,1,m,Wed Jun 04 2025 10:37:44 GMT-0500 (Central Daylight Time),221075.80000000028,139_m_f_n_a.png,O,m,833,8,1,1842.2000000001863,219233.6000000001,7159,VNB,A,7
8,test,2,0.0,1-Back,1,m,Wed Jun 04 2025 10:37:44 GMT-0500 (Central Daylight Time),223555.8999999999,071_y_f_d_a.png,O,m,1449,9,1,2470.2999999998137,221085.6000000001,7159,VNB,A,8
9,test,2,0.0,1-Back,1,m,Wed Jun 04 2025 10:37:44 GMT-0500 (Central Daylight Time),225406.0,165_m_m_n_a.png,O,m,822,10,1,1840.1000000000931,223565.8999999999,7159,VNB,A,9
10,test,2,1.0,1-Back,1,m,Wed Jun 04 2025 10:37:44 GMT-0500 (Central Daylight Time),227571.3999999999,139_m_f_h_a.png,O,m,1141,11,1,2153.7999999998137,225417.6000000001,7159,VNB,A,10
11,test,2,0.0,1-Back,1,z,Wed Jun 04 2025 10:37:44 GMT-0500 (Central Daylight Time),229404.3999999999,039_o_m_h_a.png,O,z,814,12,1,1822.7999999998137,227581.6000000001,7159,VNB,A,11
12,test,2,0.0,1-Back,1,m,Wed Jun 04 2025 10:37:44 GMT-0500 (Central Daylight Time),231486.30000000028,109_y_m_d_a.png,O,m,1065,13,1,2070.600000000093,229415.7000000002,7159,VNB,A,12
13,test,2,0.0,1-Back,1,m,Wed Jun 04 2025 10:37:44 GMT-0500 (Central Daylight Time),233803.30000000028,124_o_f_n_a.png,O,m,1293,14,1,2306.7000000001863,231496.6000000001,7159,VNB,A,13
14,test,2,0.0,1-Back,1,z,Wed Jun 04 2025 10:37:44 GMT-0500 (Central Daylight Time),235869.80000000028,071_y_f_n_a.png,O,z,1049,15,1,2056.3000000002794,233813.5,7159,VNB,A,14
15,test,2,1.0,1-Back,1,m,Wed Jun 04 2025 10:37:44 GMT-0500 (Central Daylight Time),238000.7000000002,165_m_m_h_a.png,O,m,1109,16,1,2121.8000000002794,235878.8999999999,7159,VNB,A,15
16,test,2,0.0,1-Back,1,m,Wed Jun 04 2025 10:37:44 GMT-0500 (Central Daylight Time),240234.2000000002,124_o_f_d_a.png,O,m,1209,17,1,2225.7000000001863,238008.5,7159,VNB,A,16
17,test,2,1.0,1-Back,1,z,Wed Jun 04 2025 10:37:44 GMT-0500 (Central Daylight Time),242581.8999999999,039_o_m_d_a.png,O,z,1319,18,1,2337.399999999907,240244.5,7159,VNB,A,17
0,test,3,1.0,1-Back,,,Wed Jun 04 2025 10:37:44 GMT-0500 (Central Daylight Time),242581.8999999999,124_o_f_h_a.png,O,space,771,1,1,2337.399999999907,240244.5,7159,VNB,A,0
1,test,3,0.0,1-Back,1,m,Wed Jun 04 2025 10:37:44 GMT-0500 (Central Daylight Time),247464.30000000028,139_m_f_d_a.png,O,m,1017,2,1,2037.4000000003725,245426.8999999999,7159,VNB,A,1
2,test,3,1.0,1-Back,1,m,Wed Jun 04 2025 10:37:44 GMT-0500 (Central Daylight Time),249598.0,165_m_m_n_a.png,O,m,1116,3,1,2123.399999999907,247474.6000000001,7159,VNB,A,2
3,test,3,0.0,1-Back,1,z,Wed Jun 04 2025 10:37:44 GMT-0500 (Central Daylight Time),251316.1000000001,124_o_f_n_a.png,O,z,701,4,1,1707.6000000000931,249608.5,7159,VNB,A,3
4,test,3,1.0,1-Back,1,m,Wed Jun 04 2025 10:37:44 GMT-0500 (Central Daylight Time),253113.8999999999,039_o_m_d_a.png,O,m,766,5,1,1785.0999999996275,251328.80000000028,7159,VNB,A,4
5,test,3,0.0,1-Back,1,m,Wed Jun 04 2025 10:37:44 GMT-0500 (Central Daylight Time),255211.5,071_y_f_h_a.png,O,m,1072,6,1,2087.100000000093,253124.3999999999,7159,VNB,A,5
5,test,3,0.0,1-Back,0,z,Wed Jun 04 2025 10:37:44 GMT-0500 (Central Daylight Time),257411.7000000002,109_y_m_h_a.png,O,m,1173,7,1,2189.5,255222.2000000002,7159,VNB,A,6
6,test,3,0.0,1-Back,1,m,Wed Jun 04 2025 10:37:44 GMT-0500 (Central Daylight Time),259461.80000000028,139_m_f_n_a.png,O,m,1030,8,1,2041.3000000002794,257420.5,7159,VNB,A,7
7,test,3,0.0,1-Back,1,m,Wed Jun 04 2025 10:37:44 GMT-0500 (Central Daylight Time),261409.80000000028,071_y_f_d_a.png,O,m,924,9,1,1940.2000000001863,259469.6000000001,7159,VNB,A,8
8,test,3,1.0,1-Back,1,m,Wed Jun 04 2025 10:37:44 GMT-0500 (Central Daylight Time),263741.7000000002,039_o_m_n_a.png,O,m,1309,10,1,2322.399999999907,261419.30000000028,7159,VNB,A,9
9,test,3,0.0,1-Back,1,m,Wed Jun 04 2025 10:37:44 GMT-0500 (Central Daylight Time),265758.3000000003,165_m_m_h_a.png,O,m,987,11,1,2007.0,263751.3000000003,7159,VNB,A,10
10,test,3,0.0,1-Back,1,z,Wed Jun 04 2025 10:37:44 GMT-0500 (Central Daylight Time),267361.3000000003,139_m_f_h_a.png,O,z,579,12,1,1594.2000000001863,265767.1000000001,7159,VNB,A,11
11,test,3,1.0,1-Back,1,m,Wed Jun 04 2025 10:37:44 GMT-0500 (Central Daylight Time),269126.0,124_o_f_d_a.png,O,m,750,13,1,1755.2999999998137,267370.7000000002,7159,VNB,A,12
11,test,3,0.0,1-Back,0,z,Wed Jun 04 2025 10:37:44 GMT-0500 (Central Daylight Time),271989.8000000003,165_m_m_d_a.png,O,m,1837,14,1,2853.9000000003725,269135.8999999999,7159,VNB,A,13
12,test,3,0.0,1-Back,1,m,Wed Jun 04 2025 10:37:44 GMT-0500 (Central Daylight Time),274405.8000000003,109_y_m_n_a.png,O,m,1398,15,1,2407.2000000001863,271998.6000000001,7159,VNB,A,14
13,test,3,1.0,1-Back,1,m,Wed Jun 04 2025 10:37:44 GMT-0500 (Central Daylight Time),276372.8999999999,039_o_m_h_a.png,O,m,948,16,1,1956.8999999999069,274416.0,7159,VNB,A,15
14,test,3,0.0,1-Back,1,m,Wed Jun 04 2025 10:37:44 GMT-0500 (Central Daylight Time),278437.6000000001,109_y_m_d_a.png,O,m,1032,17,1,2056.899999999907,276380.7000000002,7159,VNB,A,16
15,test,3,1.0,1-Back,1,m,Wed Jun 04 2025 10:37:44 GMT-0500 (Central Daylight Time),280838.0,071_y_f_n_a.png,O,m,1370,18,1,2390.0,278448.0,7159,VNB,A,17
0,test,4,1.0,1-Back,,,Wed Jun 04 2025 10:37:44 GMT-0500 (Central Daylight Time),280838.0,165_m_m_d_a.png,O,space,1051,1,1,2390.0,278448.0,7159,VNB,A,0
1,test,4,0.0,1-Back,1,z,Wed Jun 04 2025 10:37:44 GMT-0500 (Central Daylight Time),286453.3000000003,039_o_m_d_a.png,O,z,1505,2,1,2523.100000000093,283930.2000000002,7159,VNB,A,1
2,test,4,0.0,1-Back,1,m,Wed Jun 04 2025 10:37:44 GMT-0500 (Central Daylight Time),288435.3000000003,109_y_m_h_a.png,O,m,951,3,1,1970.8000000002794,286464.5,7159,VNB,A,2
3,test,4,0.0,1-Back,1,m,Wed Jun 04 2025 10:37:44 GMT-0500 (Central Daylight Time),290601.5,139_m_f_n_a.png,O,m,1133,4,1,2156.5,288445.0,7159,VNB,A,3
4,test,4,1.0,1-Back,1,m,Wed Jun 04 2025 10:37:44 GMT-0500 (Central Daylight Time),292916.6000000001,124_o_f_h_a.png,O,m,1288,5,1,2304.2000000001863,290612.3999999999,7159,VNB,A,4
5,test,4,0.0,1-Back,1,m,Wed Jun 04 2025 10:37:44 GMT-0500 (Central Daylight Time),294852.3999999999,165_m_m_n_a.png,O,m,918,6,1,1925.5,292926.8999999999,7159,VNB,A,5
6,test,4,0.0,1-Back,1,m,Wed Jun 04 2025 10:37:44 GMT-0500 (Central Daylight Time),297048.8999999999,109_y_m_d_a.png,O,m,1169,7,1,2186.0,294862.8999999999,7159,VNB,A,6
7,test,4,1.0,1-Back,1,z,Wed Jun 04 2025 10:37:44 GMT-0500 (Central Daylight Time),299248.7000000002,071_y_f_d_a.png,O,z,1177,8,1,2190.399999999907,297058.3000000003,7159,VNB,A,7
7,test,4,0.0,1-Back,0,m,Wed Jun 04 2025 10:37:44 GMT-0500 (Central Daylight Time),302278.3000000003,139_m_f_h_a.png,O,None,2012,9,1,3019.7000000001863,299258.6000000001,7159,VNB,A,8
7,test,4,0.0,1-Back,0,z,Wed Jun 04 2025 10:37:44 GMT-0500 (Central Daylight Time),304430.3000000003,039_o_m_h_a.png,O,m,1119,10,1,2146.600000000093,302283.7000000002,7159,VNB,A,9
8,test,4,1.0,1-Back,1,m,Wed Jun 04 2025 10:37:44 GMT-0500 (Central Daylight Time),306762.3000000003,124_o_f_n_a.png,O,m,1300,11,1,2322.100000000093,304440.2000000002,7159,VNB,A,10
9,test,4,0.0,1-Back,1,m,Wed Jun 04 2025 10:37:44 GMT-0500 (Central Daylight Time),308879.1000000001,139_m_f_d_a.png,O,m,1087,12,1,2105.100000000093,306774.0,7159,VNB,A,11
10,test,4,0.0,1-Back,1,m,Wed Jun 04 2025 10:37:44 GMT-0500 (Central Daylight Time),311111.0,071_y_f_n_a.png,O,m,1211,13,1,2221.7999999998137,308889.2000000002,7159,VNB,A,12
11,test,4,0.0,1-Back,1,m,Wed Jun 04 2025 10:37:44 GMT-0500 (Central Daylight Time),313260.2000000002,124_o_f_d_a.png,O,m,1122,14,1,2138.7000000001863,311121.5,7159,VNB,A,13
12,test,4,0.0,1-Back,1,m,Wed Jun 04 2025 10:37:44 GMT-0500 (Central Daylight Time),315260.3999999999,071_y_f_h_a.png,O,m,982,15,1,1990.5999999996275,313269.8000000003,7159,VNB,A,14
13,test,4,1.0,1-Back,1,z,Wed Jun 04 2025 10:37:44 GMT-0500 (Central Daylight Time),317076.6000000001,165_m_m_h_a.png,O,z,790,16,1,1806.6000000000931,315270.0,7159,VNB,A,15
14,test,4,0.0,1-Back,1,m,Wed Jun 04 2025 10:37:44 GMT-0500 (Central Daylight Time),319026.7000000002,039_o_m_n_a.png,O,m,916,17,1,1940.6000000000931,317086.1000000001,7159,VNB,A,16
14,test,4,1.0,1-Back,0,z,Wed Jun 04 2025 10:37:44 GMT-0500 (Central Daylight Time),321190.1000000001,109_y_m_n_a.png,O,m,1144,18,1,2154.7999999998137,319035.3000000003,7159,VNB,A,17
0,test,5,1.0,1-Back,,,Wed Jun 04 2025 10:37:44 GMT-0500 (Central Daylight Time),321190.1000000001,039_o_m_n_a.png,O,space,828,1,1,2154.7999999998137,319035.3000000003,7159,VNB,A,0
1,test,5,1.0,1-Back,1,m,Wed Jun 04 2025 10:37:44 GMT-0500 (Central Daylight Time),326473.3999999999,124_o_f_h_a.png,O,m,1400,2,1,2421.6999999997206,324051.7000000002,7159,VNB,A,1
2,test,5,0.0,1-Back,1,m,Wed Jun 04 2025 10:37:44 GMT-0500 (Central Daylight Time),328373.7000000002,109_y_m_d_a.png,O,m,882,3,1,1889.7000000001863,326484.0,7159,VNB,A,2
2,test,5,0.0,1-Back,0,z,Wed Jun 04 2025 10:37:44 GMT-0500 (Central Daylight Time),330487.6000000001,039_o_m_d_a.png,O,m,1086,4,1,2105.0,328382.6000000001,7159,VNB,A,3
3,test,5,0.0,1-Back,1,m,Wed Jun 04 2025 10:37:44 GMT-0500 (Central Daylight Time),332486.3999999999,139_m_f_h_a.png,O,m,966,5,1,1987.2999999998137,330499.1000000001,7159,VNB,A,4
4,test,5,0.0,1-Back,1,m,Wed Jun 04 2025 10:37:44 GMT-0500 (Central Daylight Time),334453.1000000001,071_y_f_n_a.png,O,m,947,6,1,1957.3999999999069,332495.7000000002,7159,VNB,A,5
4,test,5,1.0,1-Back,0,z,Wed Jun 04 2025 10:37:44 GMT-0500 (Central Daylight Time),336919.2000000002,124_o_f_n_a.png,O,m,1443,7,1,2457.5,334461.7000000002,7159,VNB,A,6
5,test,5,0.0,1-Back,1,m,Wed Jun 04 2025 10:37:44 GMT-0500 (Central Daylight Time),339052.6000000001,139_m_f_d_a.png,O,m,1104,8,1,2124.100000000093,336928.5,7159,VNB,A,7
6,test,5,0.0,1-Back,1,m,Wed Jun 04 2025 10:37:44 GMT-0500 (Central Daylight Time),341268.6000000001,109_y_m_h_a.png,O,m,1190,9,1,2204.7999999998137,339063.8000000003,7159,VNB,A,8
7,test,5,0.0,1-Back,1,m,Wed Jun 04 2025 10:37:44 GMT-0500 (Central Daylight Time),343334.6000000001,071_y_f_d_a.png,O,m,1049,10,1,2056.7000000001863,341277.8999999999,7159,VNB,A,9
8,test,5,0.0,1-Back,1,m,Wed Jun 04 2025 10:37:44 GMT-0500 (Central Daylight Time),345584.0,165_m_m_n_a.png,O,m,1219,11,1,2240.399999999907,343343.6000000001,7159,VNB,A,10
9,test,5,1.0,1-Back,1,z,Wed Jun 04 2025 10:37:44 GMT-0500 (Central Daylight Time),347466.3000000003,139_m_f_n_a.png,O,z,858,12,1,1872.2000000001863,345594.1000000001,7159,VNB,A,11
10,test,5,0.0,1-Back,1,m,Wed Jun 04 2025 10:37:44 GMT-0500 (Central Daylight Time),349315.8999999999,039_o_m_h_a.png,O,m,823,13,1,1839.0,347476.8999999999,7159,VNB,A,12
10,test,5,0.0,1-Back,0,z,Wed Jun 04 2025 10:37:44 GMT-0500 (Central Daylight Time),351681.5,165_m_m_h_a.png,O,m,1343,14,1,2356.2999999998137,349325.2000000002,7159,VNB,A,13
11,test,5,1.0,1-Back,1,m,Wed Jun 04 2025 10:37:44 GMT-0500 (Central Daylight Time),353797.3000000003,124_o_f_d_a.png,O,m,1088,15,1,2105.8000000002794,351691.5,7159,VNB,A,14
12,test,5,0.0,1-Back,1,m,Wed Jun 04 2025 10:37:44 GMT-0500 (Central Daylight Time),355694.8999999999,109_y_m_n_a.png,O,m,874,16,1,1888.0999999996275,353806.8000000003,7159,VNB,A,15
13,test,5,0.0,1-Back,1,m,Wed Jun 04 2025 10:37:44 GMT-0500 (Central Daylight Time),357911.7000000002,071_y_f_h_a.png,O,m,1191,17,1,2210.399999999907,355701.3000000003,7159,VNB,A,16
14,test,5,0.0,1-Back,1,m,Wed Jun 04 2025 10:37:44 GMT-0500 (Central Daylight Time),359962.3000000003,165_m_m_d_a.png,O,m,1024,18,1,2044.5,357917.8000000003,7159,VNB,A,17
0,prac,1,0.0,2-Back,,,Wed Jun 04 2025 10:37:44 GMT-0500 (Central Daylight Time),359962.3000000003,139_m_f_n_a.png,O,space,1902,1,1,2044.5,357917.8000000003,7159,VNB,A,0
0,prac,1,0.0,2-Back,,,Wed Jun 04 2025 10:37:44 GMT-0500 (Central Daylight Time),359962.3000000003,124_o_f_h_a.png,O,space,1902,2,1,2044.5,357917.8000000003,7159,VNB,A,0
1,prac,1,0.0,2-Back,1,m,Wed Jun 04 2025 10:37:44 GMT-0500 (Central Daylight Time),442689.6000000001,039_o_m_d_a.png,O,m,1556,3,1,2358.600000000093,440331.0,7159,VNB,A,1
2,prac,1,1.0,2-Back,1,z,Wed Jun 04 2025 10:37:44 GMT-0500 (Central Daylight Time),445204.3000000003,165_m_m_h_a.png,O,z,1728,4,1,2503.600000000093,442700.7000000002,7159,VNB,A,2
3,prac,1,0.0,2-Back,1,m,Wed Jun 04 2025 10:37:44 GMT-0500 (Central Daylight Time),447685.0,071_y_f_n_a.png,O,m,1670,5,1,2469.600000000093,445215.3999999999,7159,VNB,A,3
3,prac,1,1.0,2-Back,0,z,Wed Jun 04 2025 10:37:44 GMT-0500 (Central Daylight Time),450464.8000000003,039_o_m_h_a.png,O,None,2005,6,1,2768.8000000002794,447696.0,7159,VNB,A,4
3,prac,1,1.0,2-Back,0,z,Wed Jun 04 2025 10:37:44 GMT-0500 (Central Daylight Time),453016.8000000003,109_y_m_n_a.png,O,m,1734,7,1,2544.5,450472.3000000003,7159,VNB,A,5
4,prac,1,0.0,2-Back,1,m,Wed Jun 04 2025 10:37:44 GMT-0500 (Central Daylight Time),455498.0,139_m_f_d_a.png,O,m,1679,8,1,2468.7999999998137,453029.2000000002,7159,VNB,A,6
4,prac,1,0.0,2-Back,0,m,Wed Jun 04 2025 10:37:44 GMT-0500 (Central Daylight Time),457867.1000000001,124_o_f_d_a.png,O,z,1538,9,1,2362.399999999907,455504.7000000002,7159,VNB,A,7
4,prac,1,0.0,2-Back,0,m,Wed Jun 04 2025 10:37:44 GMT-0500 (Central Daylight Time),460648.7000000002,165_m_m_h_a.png,O,None,2004,10,1,2770.899999999907,457877.8000000003,7159,VNB,A,8
4,prac,1,1.0,2-Back,0,z,Wed Jun 04 2025 10:37:44 GMT-0500 (Central Daylight Time),463331.1000000001,071_y_f_d_a.png,O,m,1873,11,1,2670.399999999907,460660.7000000002,7159,VNB,A,9
5,prac,1,0.0,2-Back,1,m,Wed Jun 04 2025 10:37:44 GMT-0500 (Central Daylight Time),465961.8000000003,039_o_m_n_a.png,O,m,1831,12,1,2616.5,463345.3000000003,7159,VNB,A,10
0,prac,2,0.0,2-Back,,,Wed Jun 04 2025 10:37:44 GMT-0500 (Central Daylight Time),465961.8000000003,139_m_f_n_a.png,O,a,4645,1,1,2616.5,463345.3000000003,7159,VNB,A,0
0,prac,2,0.0,2-Back,,,Wed Jun 04 2025 10:37:44 GMT-0500 (Central Daylight Time),465961.8000000003,124_o_f_h_a.png,O,a,4645,2,1,2616.5,463345.3000000003,7159,VNB,A,0
1,prac,2,0.0,2-Back,1,m,Wed Jun 04 2025 10:37:44 GMT-0500 (Central Daylight Time),477709.1000000001,039_o_m_d_a.png,O,m,1159,3,1,1959.7000000001863,475749.3999999999,7159,VNB,A,1
1,prac,2,1.0,2-Back,0,z,Wed Jun 04 2025 10:37:44 GMT-0500 (Central Daylight Time),480490.7000000002,165_m_m_h_a.png,O,None,2003,4,1,2770.3000000002794,477720.3999999999,7159,VNB,A,2
1,prac,2,0.0,2-Back,0,m,Wed Jun 04 2025 10:37:44 GMT-0500 (Central Daylight Time),483291.3999999999,071_y_f_n_a.png,O,None,2015,5,1,2789.0999999996275,480502.3000000003,7159,VNB,A,3
2,prac,2,1.0,2-Back,1,z,Wed Jun 04 2025 10:37:44 GMT-0500 (Central Daylight Time),485407.1000000001,039_o_m_h_a.png,O,z,1305,6,1,2104.7999999998137,483302.3000000003,7159,VNB,A,4
2,prac,2,1.0,2-Back,0,z,Wed Jun 04 2025 10:37:44 GMT-0500 (Central Daylight Time),487289.1000000001,109_y_m_n_a.png,O,m,1081,7,1,1871.2999999998137,485417.8000000003,7159,VNB,A,5
3,prac,2,0.0,2-Back,1,m,Wed Jun 04 2025 10:37:44 GMT-0500 (Central Daylight Time),489438.3000000003,139_m_f_d_a.png,O,m,1359,8,1,2135.100000000093,487303.2000000002,7159,VNB,A,6
4,prac,2,0.0,2-Back,1,m,Wed Jun 04 2025 10:37:44 GMT-0500 (Central Daylight Time),491971.7000000002,124_o_f_d_a.png,O,m,1709,9,1,2522.5,489449.2000000002,7159,VNB,A,7
4,prac,2,0.0,2-Back,0,m,Wed Jun 04 2025 10:37:44 GMT-0500 (Central Daylight Time),494571.6000000001,165_m_m_h_a.png,O,z,1822,10,1,2589.600000000093,491982.0,7159,VNB,A,8
5,prac,2,1.0,2-Back,1,z,Wed Jun 04 2025 10:37:44 GMT-0500 (Central Daylight Time),497319.6000000001,071_y_f_d_a.png,O,z,1959,11,1,2736.5,494583.1000000001,7159,VNB,A,9
6,prac,2,0.0,2-Back,1,m,Wed Jun 04 2025 10:37:44 GMT-0500 (Central Daylight Time),499515.5,039_o_m_n_a.png,O,m,1394,12,1,2184.2999999998137,497331.2000000002,7159,VNB,A,10
0,prac,3,0.0,2-Back,,,Wed Jun 04 2025 10:37:44 GMT-0500 (Central Daylight Time),499515.5,139_m_f_n_a.png,O,a,3005,1,1,2184.2999999998137,497331.2000000002,7159,VNB,A,0
0,prac,3,0.0,2-Back,,,Wed Jun 04 2025 10:37:44 GMT-0500 (Central Daylight Time),499515.5,124_o_f_h_a.png,O,a,3005,2,1,2184.2999999998137,497331.2000000002,7159,VNB,A,0
1,prac,3,0.0,2-Back,1,m,Wed Jun 04 2025 10:37:44 GMT-0500 (Central Daylight Time),509748.5,039_o_m_d_a.png,O,m,1289,3,1,2086.7999999998137,507661.7000000002,7159,VNB,A,1
1,prac,3,1.0,2-Back,0,z,Wed Jun 04 2025 10:37:44 GMT-0500 (Central Daylight Time),512531.3000000003,165_m_m_h_a.png,O,None,2006,4,1,2773.3000000002794,509758.0,7159,VNB,A,2
1,prac,3,0.0,2-Back,0,m,Wed Jun 04 2025 10:37:44 GMT-0500 (Central Daylight Time),514663.8000000003,071_y_f_n_a.png,O,z,1325,5,1,2121.2000000001863,512542.6000000001,7159,VNB,A,3
2,prac,3,1.0,2-Back,1,z,Wed Jun 04 2025 10:37:44 GMT-0500 (Central Daylight Time),517396.7000000002,039_o_m_h_a.png,O,z,1937,6,1,2722.899999999907,514673.8000000003,7159,VNB,A,4
3,prac,3,1.0,2-Back,1,z,Wed Jun 04 2025 10:37:44 GMT-0500 (Central Daylight Time),520144.5,109_y_m_n_a.png,O,z,1927,7,1,2736.899999999907,517407.6000000001,7159,VNB,A,5
4,prac,3,0.0,2-Back,1,m,Wed Jun 04 2025 10:37:44 GMT-0500 (Central Daylight Time),522192.1000000001,139_m_f_d_a.png,O,m,1234,8,1,2037.0,520155.1000000001,7159,VNB,A,6
4,prac,3,0.0,2-Back,0,m,Wed Jun 04 2025 10:37:44 GMT-0500 (Central Daylight Time),525027.0,124_o_f_d_a.png,O,None,2008,9,1,2824.399999999907,522202.6000000001,7159,VNB,A,7
4,prac,3,0.0,2-Back,0,m,Wed Jun 04 2025 10:37:44 GMT-0500 (Central Daylight Time),527810.0,165_m_m_h_a.png,O,None,2006,10,1,2772.0,525038.0,7159,VNB,A,8
4,prac,3,1.0,2-Back,0,z,Wed Jun 04 2025 10:37:44 GMT-0500 (Central Daylight Time),529741.8999999999,071_y_f_d_a.png,O,m,1123,11,1,1921.8999999999069,527820.0,7159,VNB,A,9
4,prac,3,0.0,2-Back,0,m,Wed Jun 04 2025 10:37:44 GMT-0500 (Central Daylight Time),531660.5,039_o_m_n_a.png,O,z,1109,12,1,1908.0,529752.5,7159,VNB,A,10
0,test,1,0.0,2-Back,,,Wed Jun 04 2025 10:37:44 GMT-0500 (Central Daylight Time),531660.5,109_y_m_h_a.png,O,space,2475,1,1,1908.0,529752.5,7159,VNB,A,0
0,test,1,0.0,2-Back,,,Wed Jun 04 2025 10:37:44 GMT-0500 (Central Daylight Time),531660.5,124_o_f_n_a.png,O,space,2475,2,1,1908.0,529752.5,7159,VNB,A,0
1,test,1,0.0,2-Back,1,z,Wed Jun 04 2025 10:37:44 GMT-0500 (Central Daylight Time),545719.8999999999,039_o_m_h_a.png,O,z,1045,3,1,2055.5,543664.3999999999,7159,VNB,A,1
2,test,1,0.0,2-Back,1,m,Wed Jun 04 2025 10:37:44 GMT-0500 (Central Daylight Time),547902.8999999999,139_m_f_d_a.png,O,m,1164,4,1,2172.5,545730.3999999999,7159,VNB,A,2
3,test,1,1.0,2-Back,1,m,Wed Jun 04 2025 10:37:44 GMT-0500 (Central Daylight Time),550585.3999999999,109_y_m_n_a.png,O,m,1651,5,1,2672.399999999907,547913.0,7159,VNB,A,3
3,test,1,0.0,2-Back,0,z,Wed Jun 04 2025 10:37:44 GMT-0500 (Central Daylight Time),553500.0,071_y_f_d_a.png,O,m,1889,6,1,2904.1999999997206,550595.8000000003,7159,VNB,A,4
3,test,1,0.0,2-Back,0,m,Wed Jun 04 2025 10:37:44 GMT-0500 (Central Daylight Time),555300.7000000002,165_m_m_h_a.png,O,z,782,7,1,1789.3000000002794,553511.3999999999,7159,VNB,A,5
3,test,1,1.0,2-Back,0,m,Wed Jun 04 2025 10:37:44 GMT-0500 (Central Daylight Time),558333.3000000003,071_y_f_n_a.png,O,None,2015,8,1,3023.3000000002794,555310.0,7159,VNB,A,6
4,test,1,0.0,2-Back,1,z,Wed Jun 04 2025 10:37:44 GMT-0500 (Central Daylight Time),560864.5,124_o_f_h_a.png,O,z,1510,9,1,2521.5,558343.0,7159,VNB,A,7
5,test,1,0.0,2-Back,1,m,Wed Jun 04 2025 10:37:44 GMT-0500 (Central Daylight Time),563081.5,039_o_m_d_a.png,O,m,1192,10,1,2205.7999999998137,560875.7000000002,7159,VNB,A,8
6,test,1,1.0,2-Back,1,m,Wed Jun 04 2025 10:37:44 GMT-0500 (Central Daylight Time),565764.2000000002,165_m_m_d_a.png,O,m,1664,11,1,2672.899999999907,563091.3000000003,7159,VNB,A,9
6,test,1,0.0,2-Back,0,m,Wed Jun 04 2025 10:37:44 GMT-0500 (Central Daylight Time),567996.8000000003,139_m_f_n_a.png,O,z,1205,12,1,2222.5,565774.3000000003,7159,VNB,A,10
6,test,1,0.0,2-Back,0,m,Wed Jun 04 2025 10:37:44 GMT-0500 (Central Daylight Time),571028.3999999999,071_y_f_h_a.png,O,None,2014,13,1,3024.0,568004.3999999999,7159,VNB,A,11
6,test,1,0.0,2-Back,0,z,Wed Jun 04 2025 10:37:44 GMT-0500 (Central Daylight Time),573627.3000000003,165_m_m_n_a.png,O,m,1581,14,1,2589.4000000003725,571037.8999999999,7159,VNB,A,12
6,test,1,0.0,2-Back,0,m,Wed Jun 04 2025 10:37:44 GMT-0500 (Central Daylight Time),576560.5,109_y_m_d_a.png,O,z,1909,15,1,2924.6999999997206,573635.8000000003,7159,VNB,A,13
6,test,1,1.0,2-Back,0,m,Wed Jun 04 2025 10:37:44 GMT-0500 (Central Daylight Time),579592.2000000002,139_m_f_h_a.png,O,None,2012,16,1,3020.5,576571.7000000002,7159,VNB,A,14
7,test,1,0.0,2-Back,1,z,Wed Jun 04 2025 10:37:44 GMT-0500 (Central Daylight Time),581625.3999999999,124_o_f_d_a.png,O,z,1009,17,1,2023.5,579601.8999999999,7159,VNB,A,15
8,test,1,0.0,2-Back,1,m,Wed Jun 04 2025 10:37:44 GMT-0500 (Central Daylight Time),583891.8000000003,039_o_m_n_a.png,O,m,1241,18,1,2256.9000000003725,581634.8999999999,7159,VNB,A,16
0,test,2,0.0,2-Back,,,Wed Jun 04 2025 10:37:44 GMT-0500 (Central Daylight Time),583891.8000000003,165_m_m_h_a.png,O,space,1142,1,1,2256.9000000003725,581634.8999999999,7159,VNB,A,0
0,test,2,0.0,2-Back,,,Wed Jun 04 2025 10:37:44 GMT-0500 (Central Daylight Time),583891.8000000003,071_y_f_n_a.png,O,space,1142,2,1,2256.9000000003725,581634.8999999999,7159,VNB,A,0
1,test,2,1.0,2-Back,1,z,Wed Jun 04 2025 10:37:44 GMT-0500 (Central Daylight Time),592154.6000000001,124_o_f_h_a.png,O,z,1007,3,1,2022.7999999998137,590131.8000000003,7159,VNB,A,1
2,test,2,0.0,2-Back,1,m,Wed Jun 04 2025 10:37:44 GMT-0500 (Central Daylight Time),594287.2000000002,039_o_m_d_a.png,O,m,1102,4,1,2121.899999999907,592165.3000000003,7159,VNB,A,2
3,test,2,0.0,2-Back,1,m,Wed Jun 04 2025 10:37:44 GMT-0500 (Central Daylight Time),596586.8999999999,139_m_f_d_a.png,O,m,1274,5,1,2289.5,594297.3999999999,7159,VNB,A,3
3,test,2,0.0,2-Back,0,m,Wed Jun 04 2025 10:37:44 GMT-0500 (Central Daylight Time),598920.6000000001,109_y_m_h_a.png,O,z,1302,6,1,2322.100000000093,596598.5,7159,VNB,A,4
4,test,2,0.0,2-Back,1,m,Wed Jun 04 2025 10:37:44 GMT-0500 (Central Daylight Time),601268.3000000003,124_o_f_n_a.png,O,m,1324,7,1,2337.0,598931.3000000003,7159,VNB,A,5
4,test,2,1.0,2-Back,0,z,Wed Jun 04 2025 10:37:44 GMT-0500 (Central Daylight Time),603666.8999999999,039_o_m_h_a.png,O,m,1382,8,1,2388.2999999998137,601278.6000000001,7159,VNB,A,6
5,test,2,0.0,2-Back,1,m,Wed Jun 04 2025 10:37:44 GMT-0500 (Central Daylight Time),606567.2000000002,071_y_f_d_a.png,O,m,1869,9,1,2890.3000000002794,603676.8999999999,7159,VNB,A,7
5,test,2,0.0,2-Back,0,m,Wed Jun 04 2025 10:37:44 GMT-0500 (Central Daylight Time),609600.0,109_y_m_d_a.png,O,None,2016,10,1,3022.600000000093,606577.3999999999,7159,VNB,A,8
5,test,2,0.0,2-Back,0,m,Wed Jun 04 2025 10:37:44 GMT-0500 (Central Daylight Time),612632.0,165_m_m_n_a.png,O,None,2015,11,1,3020.899999999907,609611.1000000001,7159,VNB,A,9
5,test,2,0.0,2-Back,0,m,Wed Jun 04 2025 10:37:44 GMT-0500 (Central Daylight Time),615664.5,139_m_f_h_a.png,O,None,2015,12,1,3022.6999999997206,612641.8000000003,7159,VNB,A,10
6,test,2,1.0,2-Back,1,z,Wed Jun 04 2025 10:37:44 GMT-0500 (Central Daylight Time),617798.3999999999,039_o_m_n_a.png,O,z,1115,13,1,2123.899999999907,615674.5,7159,VNB,A,11
7,test,2,0.0,2-Back,1,m,Wed Jun 04 2025 10:37:44 GMT-0500 (Central Daylight Time),620246.8999999999,124_o_f_d_a.png,O,m,1421,14,1,2440.5999999996275,617806.3000000003,7159,VNB,A,12
7,test,2,0.0,2-Back,0,m,Wed Jun 04 2025 10:37:44 GMT-0500 (Central Daylight Time),623262.8999999999,071_y_f_h_a.png,O,None,2001,15,1,3004.0999999996275,620258.8000000003,7159,VNB,A,13
8,test,2,0.0,2-Back,1,z,Wed Jun 04 2025 10:37:44 GMT-0500 (Central Daylight Time),625011.8999999999,165_m_m_d_a.png,O,z,716,16,1,1739.8999999999069,623272.0,7159,VNB,A,14
8,test,2,0.0,2-Back,0,m,Wed Jun 04 2025 10:37:44 GMT-0500 (Central Daylight Time),627677.3999999999,109_y_m_n_a.png,O,z,1646,17,1,2654.399999999907,625023.0,7159,VNB,A,15
8,test,2,1.0,2-Back,0,m,Wed Jun 04 2025 10:37:44 GMT-0500 (Central Daylight Time),630710.6000000001,139_m_f_n_a.png,O,None,2016,18,1,3022.600000000093,627688.0,7159,VNB,A,16
0,test,3,1.0,2-Back,,,Wed Jun 04 2025 10:37:44 GMT-0500 (Central Daylight Time),630710.6000000001,039_o_m_n_a.png,O,space,1598,1,1,3022.600000000093,627688.0,7159,VNB,A,0
0,test,3,1.0,2-Back,,,Wed Jun 04 2025 10:37:44 GMT-0500 (Central Daylight Time),630710.6000000001,124_o_f_d_a.png,O,space,1598,2,1,3022.600000000093,627688.0,7159,VNB,A,0
1,test,3,0.0,2-Back,1,m,Wed Jun 04 2025 10:37:44 GMT-0500 (Central Daylight Time),639424.2000000002,071_y_f_h_a.png,O,m,1044,3,1,2057.7000000001863,637366.5,7159,VNB,A,1
2,test,3,0.0,2-Back,1,z,Wed Jun 04 2025 10:37:44 GMT-0500 (Central Daylight Time),641507.3999999999,139_m_f_d_a.png,O,z,1067,4,1,2072.1999999997206,639435.2000000002,7159,VNB,A,2
2,test,3,1.0,2-Back,0,m,Wed Jun 04 2025 10:37:44 GMT-0500 (Central Daylight Time),644088.1000000001,109_y_m_n_a.png,O,z,1549,5,1,2568.899999999907,641519.2000000002,7159,VNB,A,3
3,test,3,0.0,2-Back,1,m,Wed Jun 04 2025 10:37:44 GMT-0500 (Central Daylight Time),646973.0,039_o_m_h_a.png,O,m,1866,6,1,2874.5,644098.5,7159,VNB,A,4
4,test,3,0.0,2-Back,1,z,Wed Jun 04 2025 10:37:44 GMT-0500 (Central Daylight Time),649487.3000000003,071_y_f_n_a.png,O,z,1497,7,1,2503.8000000002794,646983.5,7159,VNB,A,5
4,test,3,1.0,2-Back,0,m,Wed Jun 04 2025 10:37:44 GMT-0500 (Central Daylight Time),652519.3999999999,165_m_m_d_a.png,O,None,2015,8,1,3022.899999999907,649496.5,7159,VNB,A,6
5,test,3,0.0,2-Back,1,m,Wed Jun 04 2025 10:37:44 GMT-0500 (Central Daylight Time),655418.8000000003,109_y_m_d_a.png,O,m,1866,9,1,2889.5,652529.3000000003,7159,VNB,A,7
6,test,3,0.0,2-Back,1,m,Wed Jun 04 2025 10:37:44 GMT-0500 (Central Daylight Time),657535.1000000001,124_o_f_h_a.png,O,m,1099,10,1,2105.600000000093,655429.5,7159,VNB,A,8
6,test,3,1.0,2-Back,0,m,Wed Jun 04 2025 10:37:44 GMT-0500 (Central Daylight Time),660568.1000000001,139_m_f_n_a.png,O,None,2016,11,1,3021.7999999998137,657546.3000000003,7159,VNB,A,9
7,test,3,1.0,2-Back,1,z,Wed Jun 04 2025 10:37:44 GMT-0500 (Central Daylight Time),663266.3000000003,165_m_m_h_a.png,O,z,1675,12,1,2687.100000000093,660579.2000000002,7159,VNB,A,10
7,test,3,0.0,2-Back,0,m,Wed Jun 04 2025 10:37:44 GMT-0500 (Central Daylight Time),666299.3000000003,071_y_f_d_a.png,O,None,2014,13,1,3023.5,663275.8000000003,7159,VNB,A,11
7,test,3,0.0,2-Back,0,m,Wed Jun 04 2025 10:37:44 GMT-0500 (Central Daylight Time),669029.6000000001,124_o_f_n_a.png,O,z,1703,14,1,2718.5,666311.1000000001,7159,VNB,A,12
7,test,3,0.0,2-Back,0,z,Wed Jun 04 2025 10:37:44 GMT-0500 (Central Daylight Time),671213.0,039_o_m_d_a.png,O,m,1164,15,1,2172.7999999998137,669040.2000000002,7159,VNB,A,13
8,test,3,1.0,2-Back,1,m,Wed Jun 04 2025 10:37:44 GMT-0500 (Central Daylight Time),673563.5,139_m_f_h_a.png,O,m,1317,16,1,2340.0,671223.5,7159,VNB,A,14
8,test,3,0.0,2-Back,0,m,Wed Jun 04 2025 10:37:44 GMT-0500 (Central Daylight Time),676447.1000000001,165_m_m_n_a.png,O,z,1866,17,1,2873.7000000001863,673573.3999999999,7159,VNB,A,15
8,test,3,0.0,2-Back,0,z,Wed Jun 04 2025 10:37:44 GMT-0500 (Central Daylight Time),678713.3999999999,109_y_m_h_a.png,O,m,1237,18,1,2256.899999999907,676456.5,7159,VNB,A,16
0,test,4,0.0,2-Back,,,Wed Jun 04 2025 10:37:44 GMT-0500 (Central Daylight Time),678713.3999999999,139_m_f_n_a.png,O,space,1321,1,1,2256.899999999907,676456.5,7159,VNB,A,0
0,test,4,0.0,2-Back,,,Wed Jun 04 2025 10:37:44 GMT-0500 (Central Daylight Time),678713.3999999999,039_o_m_n_a.png,O,space,1321,2,1,2256.899999999907,676456.5,7159,VNB,A,0
0,test,4,1.0,2-Back,0,m,Wed Jun 04 2025 10:37:44 GMT-0500 (Central Daylight Time),687041.3000000003,109_y_m_h_a.png,O,z,914,3,1,1938.5,685102.8000000003,7159,VNB,A,1
1,test,4,1.0,2-Back,1,m,Wed Jun 04 2025 10:37:44 GMT-0500 (Central Daylight Time),688941.0,124_o_f_d_a.png,O,m,882,4,1,1890.3999999999069,687050.6000000001,7159,VNB,A,2
2,test,4,0.0,2-Back,1,z,Wed Jun 04 2025 10:37:44 GMT-0500 (Central Daylight Time),691007.2000000002,039_o_m_h_a.png,O,z,1037,5,1,2055.3000000002794,688951.8999999999,7159,VNB,A,3
2,test,4,0.0,2-Back,0,m,Wed Jun 04 2025 10:37:44 GMT-0500 (Central Daylight Time),693806.3999999999,165_m_m_n_a.png,O,z,1776,6,1,2788.6999999997206,691017.7000000002,7159,VNB,A,4
3,test,4,0.0,2-Back,1,m,Wed Jun 04 2025 10:37:44 GMT-0500 (Central Daylight Time),695958.3999999999,139_m_f_d_a.png,O,m,1134,7,1,2142.1999999997206,693816.2000000002,7159,VNB,A,5
3,test,4,0.0,2-Back,0,z,Wed Jun 04 2025 10:37:44 GMT-0500 (Central Daylight Time),698988.5,071_y_f_n_a.png,O,None,2015,8,1,3019.5,695969.0,7159,VNB,A,6
4,test,4,1.0,2-Back,1,m,Wed Jun 04 2025 10:37:44 GMT-0500 (Central Daylight Time),701051.6000000001,124_o_f_h_a.png,O,m,1030,9,1,2052.2000000001863,698999.3999999999,7159,VNB,A,7
5,test,4,0.0,2-Back,1,m,Wed Jun 04 2025 10:37:44 GMT-0500 (Central Daylight Time),703552.3000000003,165_m_m_h_a.png,O,m,1468,10,1,2494.5,701057.8000000003,7159,VNB,A,8
6,test,4,0.0,2-Back,1,m,Wed Jun 04 2025 10:37:44 GMT-0500 (Central Daylight Time),705819.8999999999,071_y_f_d_a.png,O,m,1240,11,1,2258.0,703561.8999999999,7159,VNB,A,9
7,test,4,0.0,2-Back,1,m,Wed Jun 04 2025 10:37:44 GMT-0500 (Central Daylight Time),708288.2000000002,109_y_m_n_a.png,O,m,1451,12,1,2458.8000000002794,705829.3999999999,7159,VNB,A,10
8,test,4,0.0,2-Back,1,z,Wed Jun 04 2025 10:37:44 GMT-0500 (Central Daylight Time),710800.7000000002,039_o_m_d_a.png,O,z,1469,13,1,2500.3000000002794,708300.3999999999,7159,VNB,A,11
8,test,4,1.0,2-Back,0,m,Wed Jun 04 2025 10:37:44 GMT-0500 (Central Daylight Time),713833.8000000003,139_m_f_h_a.png,O,None,2016,14,1,3022.2000000001863,710811.6000000001,7159,VNB,A,12
8,test,4,1.0,2-Back,0,m,Wed Jun 04 2025 10:37:44 GMT-0500 (Central Daylight Time),715666.5,071_y_f_h_a.png,O,z,800,15,1,1823.5,713843.0,7159,VNB,A,13
9,test,4,0.0,2-Back,1,m,Wed Jun 04 2025 10:37:44 GMT-0500 (Central Daylight Time),718665.7000000002,124_o_f_n_a.png,O,m,1976,16,1,2988.600000000093,715677.1000000001,7159,VNB,A,14
10,test,4,0.0,2-Back,1,m,Wed Jun 04 2025 10:37:44 GMT-0500 (Central Daylight Time),721613.3999999999,109_y_m_d_a.png,O,m,1930,17,1,2937.7999999998137,718675.6000000001,7159,VNB,A,15
11,test,4,1.0,2-Back,1,m,Wed Jun 04 2025 10:37:44 GMT-0500 (Central Daylight Time),724314.8000000003,165_m_m_d_a.png,O,m,1679,18,1,2690.9000000003725,721623.8999999999,7159,VNB,A,16
0,test,5,1.0,2-Back,,,Wed Jun 04 2025 10:37:44 GMT-0500 (Central Daylight Time),724314.8000000003,071_y_f_d_a.png,O,space,1119,1,1,2690.9000000003725,721623.8999999999,7159,VNB,A,0
0,test,5,1.0,2-Back,,,Wed Jun 04 2025 10:37:44 GMT-0500 (Central Daylight Time),724314.8000000003,124_o_f_h_a.png,O,space,1119,2,1,2690.9000000003725,721623.8999999999,7159,VNB,A,0
0,test,5,1.0,2-Back,0,z,Wed Jun 04 2025 10:37:44 GMT-0500 (Central Daylight Time),733060.0,039_o_m_d_a.png,O,m,1506,3,1,2519.899999999907,730540.1000000001,7159,VNB,A,1
0,test,5,1.0,2-Back,0,m,Wed Jun 04 2025 10:37:44 GMT-0500 (Central Daylight Time),736093.7000000002,139_m_f_n_a.png,O,None,2016,4,1,3022.899999999907,733070.8000000003,7159,VNB,A,2
1,test,5,0.0,2-Back,1,m,Wed Jun 04 2025 10:37:44 GMT-0500 (Central Daylight Time),738859.3999999999,165_m_m_h_a.png,O,m,1735,5,1,2756.7999999998137,736102.6000000001,7159,VNB,A,3
2,test,5,0.0,2-Back,1,z,Wed Jun 04 2025 10:37:44 GMT-0500 (Central Daylight Time),741124.2000000002,071_y_f_n_a.png,O,z,1238,6,1,2254.5,738869.7000000002,7159,VNB,A,4
2,test,5,0.0,2-Back,0,m,Wed Jun 04 2025 10:37:44 GMT-0500 (Central Daylight Time),744157.3000000003,124_o_f_d_a.png,O,None,2015,7,1,3024.600000000093,741132.7000000002,7159,VNB,A,5
3,test,5,0.0,2-Back,1,m,Wed Jun 04 2025 10:37:44 GMT-0500 (Central Daylight Time),746638.2000000002,039_o_m_h_a.png,O,m,1459,8,1,2470.8000000002794,744167.3999999999,7159,VNB,A,6
3,test,5,1.0,2-Back,0,z,Wed Jun 04 2025 10:37:44 GMT-0500 (Central Daylight Time),749121.5,139_m_f_d_a.png,O,m,1460,9,1,2472.5,746649.0,7159,VNB,A,7
4,test,5,0.0,2-Back,1,m,Wed Jun 04 2025 10:37:44 GMT-0500 (Central Daylight Time),751404.3000000003,109_y_m_n_a.png,O,m,1256,10,1,2273.0,749131.3000000003,7159,VNB,A,8
5,test,5,0.0,2-Back,1,m,Wed Jun 04 2025 10:37:44 GMT-0500 (Central Daylight Time),754255.0,165_m_m_n_a.png,O,m,1819,11,1,2841.6999999997206,751413.3000000003,7159,VNB,A,9
6,test,5,0.0,2-Back,1,m,Wed Jun 04 2025 10:37:44 GMT-0500 (Central Daylight Time),756387.3999999999,071_y_f_h_a.png,O,m,1108,12,1,2123.399999999907,754264.0,7159,VNB,A,10
6,test,5,0.0,2-Back,0,m,Wed Jun 04 2025 10:37:44 GMT-0500 (Central Daylight Time),759201.6000000001,109_y_m_d_a.png,O,z,1792,13,1,2804.2999999998137,756397.3000000003,7159,VNB,A,11
6,test,5,1.0,2-Back,0,z,Wed Jun 04 2025 10:37:44 GMT-0500 (Central Daylight Time),761884.5,139_m_f_h_a.png,O,m,1654,14,1,2673.100000000093,759211.3999999999,7159,VNB,A,12
7,test,5,0.0,2-Back,1,m,Wed Jun 04 2025 10:37:44 GMT-0500 (Central Daylight Time),764633.2000000002,039_o_m_n_a.png,O,m,1727,15,1,2739.399999999907,761893.8000000003,7159,VNB,A,13
8,test,5,0.0,2-Back,1,m,Wed Jun 04 2025 10:37:44 GMT-0500 (Central Daylight Time),767300.5,165_m_m_d_a.png,O,m,1650,16,1,2656.899999999907,764643.6000000001,7159,VNB,A,14
9,test,5,0.0,2-Back,1,z,Wed Jun 04 2025 10:37:44 GMT-0500 (Central Daylight Time),769548.6000000001,124_o_f_n_a.png,O,z,1222,17,1,2240.7999999998137,767307.8000000003,7159,VNB,A,15
10,test,5,1.0,2-Back,1,m,Wed Jun 04 2025 10:37:44 GMT-0500 (Central Daylight Time),772114.1000000001,109_y_m_h_a.png,O,m,1540,18,1,2555.5,769558.6000000001,7159,VNB,A,16
