acc_sum,block,block_c,change,condition,correct,correct_response,datetime,endtime,face,project,response,response_time,row_sel,session_number,start_end,starttime,subject_id,task,task_vers,trial
0,prac,1,,1-Back,,,Wed Sep 10 2025 15:27:02 GMT-0500 (Central Daylight Time),,005_o_f_d_a.png,I,space,3322,1,3,,,8014,VNB,B,0
1,prac,1,0.0,1-Back,1,m,Wed Sep 10 2025 15:27:02 GMT-0500 (Central Daylight Time),106190.39999997616,020_y_f_n_a.png,I,m,1392,2,3,2230.300000011921,103960.09999996424,8014,VNB,B,1
2,prac,1,0.0,1-Back,1,m,Wed Sep 10 2025 15:27:02 GMT-0500 (Central Daylight Time),108272.09999996424,007_m_m_h_a.png,I,m,1205,3,3,2072.5,106199.59999996424,8014,VNB,B,2
3,prac,1,0.0,1-Back,1,m,Wed Sep 10 2025 15:27:02 GMT-0500 (Central Daylight Time),110120.80000001192,016_y_m_d_a.png,I,m,970,4,3,1838.2000000476837,108282.59999996424,8014,VNB,B,3
3,prac,1,0.0,1-Back,0,m,Wed Sep 10 2025 15:27:02 GMT-0500 (Central Daylight Time),112386.80000001192,005_o_f_n_a.png,I,z,1386,5,3,2247.900000035763,110138.89999997616,8014,VNB,B,4
3,prac,1,1.0,1-Back,0,z,Wed Sep 10 2025 15:27:02 GMT-0500 (Central Daylight Time),114519.59999996424,016_y_m_n_a.png,I,m,1246,6,3,2122.399999976158,112397.19999998808,8014,VNB,B,5
4,prac,1,0.0,1-Back,1,m,Wed Sep 10 2025 15:27:02 GMT-0500 (Central Daylight Time),116617.5,004_o_m_h_a.png,I,m,1247,7,3,2088.600000023842,114528.89999997616,8014,VNB,B,6
5,prac,1,0.0,1-Back,1,m,Wed Sep 10 2025 15:27:02 GMT-0500 (Central Daylight Time),118635.89999997616,011_m_f_d_a.png,I,m,1163,8,3,2014.0999999642372,116621.80000001192,8014,VNB,B,7
6,prac,1,1.0,1-Back,1,z,Wed Sep 10 2025 15:27:02 GMT-0500 (Central Daylight Time),120566.69999998808,020_y_f_d_a.png,I,z,1073,9,3,1924.1000000238419,118642.59999996424,8014,VNB,B,8
7,prac,1,0.0,1-Back,1,m,Wed Sep 10 2025 15:27:02 GMT-0500 (Central Daylight Time),123100.80000001192,007_m_m_n_a.png,I,m,1668,10,3,2522.5,120578.30000001192,8014,VNB,B,9
8,prac,1,0.0,1-Back,1,m,Wed Sep 10 2025 15:27:02 GMT-0500 (Central Daylight Time),125117.0,005_o_f_h_a.png,I,m,1151,11,3,2005.6000000238419,123111.39999997616,8014,VNB,B,10
8,prac,1,0.0,1-Back,0,m,Wed Sep 10 2025 15:27:02 GMT-0500 (Central Daylight Time),127701.39999997616,016_y_m_d_a.png,I,z,1733,12,3,2573.5,125127.89999997616,8014,VNB,B,11
0,test,1,0.0,1-Back,,,Wed Sep 10 2025 15:27:02 GMT-0500 (Central Daylight Time),127701.39999997616,020_y_f_d_a.png,I,space,5267,1,3,2573.5,125127.89999997616,8014,VNB,B,0
1,test,1,0.0,1-Back,1,m,Wed Sep 10 2025 15:27:02 GMT-0500 (Central Daylight Time),144044.09999996424,011_m_f_n_a.png,I,m,1390,2,3,2408.7999999523163,141635.30000001192,8014,VNB,B,1
2,test,1,0.0,1-Back,1,m,Wed Sep 10 2025 15:27:02 GMT-0500 (Central Daylight Time),146194.19999998808,004_o_m_h_a.png,I,m,1117,3,3,2143.300000011921,144050.89999997616,8014,VNB,B,2
3,test,1,1.0,1-Back,1,z,Wed Sep 10 2025 15:27:02 GMT-0500 (Central Daylight Time),148394.89999997616,007_m_m_h_a.png,I,z,1185,4,3,2193.399999976158,146201.5,8014,VNB,B,3
4,test,1,0.0,1-Back,1,m,Wed Sep 10 2025 15:27:02 GMT-0500 (Central Daylight Time),150342.09999996424,005_o_f_n_a.png,I,m,920,5,3,1943.0999999642372,148399.0,8014,VNB,B,4
5,test,1,0.0,1-Back,1,m,Wed Sep 10 2025 15:27:02 GMT-0500 (Central Daylight Time),153025.0,016_y_m_d_a.png,I,m,1660,6,3,2676.600000023842,150348.39999997616,8014,VNB,B,5
6,test,1,1.0,1-Back,1,z,Wed Sep 10 2025 15:27:02 GMT-0500 (Central Daylight Time),155173.80000001192,011_m_f_d_a.png,I,z,1115,7,3,2140.2000000476837,153033.59999996424,8014,VNB,B,6
7,test,1,0.0,1-Back,1,m,Wed Sep 10 2025 15:27:02 GMT-0500 (Central Daylight Time),157323.39999997616,020_y_f_h_a.png,I,m,1124,8,3,2140.800000011921,155182.59999996424,8014,VNB,B,7
8,test,1,0.0,1-Back,1,m,Wed Sep 10 2025 15:27:02 GMT-0500 (Central Daylight Time),159490.09999996424,004_o_m_n_a.png,I,m,1141,9,3,2158.899999976158,157331.19999998808,8014,VNB,B,8
9,test,1,0.0,1-Back,1,m,Wed Sep 10 2025 15:27:02 GMT-0500 (Central Daylight Time),161456.30000001192,016_y_m_h_a.png,I,m,937,10,3,1960.1000000238419,159496.19999998808,8014,VNB,B,9
10,test,1,0.0,1-Back,1,m,Wed Sep 10 2025 15:27:02 GMT-0500 (Central Daylight Time),163454.09999996424,004_o_m_d_a.png,I,m,980,11,3,1991.3999999761581,161462.69999998808,8014,VNB,B,10
11,test,1,1.0,1-Back,1,z,Wed Sep 10 2025 15:27:02 GMT-0500 (Central Daylight Time),165535.59999996424,005_o_f_d_a.png,I,z,1050,12,3,2073.7999999523163,163461.80000001192,8014,VNB,B,11
12,test,1,0.0,1-Back,1,m,Wed Sep 10 2025 15:27:02 GMT-0500 (Central Daylight Time),167719.69999998808,007_m_m_n_a.png,I,m,1161,13,3,2179.699999988079,165540.0,8014,VNB,B,12
13,test,1,1.0,1-Back,1,z,Wed Sep 10 2025 15:27:02 GMT-0500 (Central Daylight Time),169886.19999998808,020_y_f_n_a.png,I,z,1138,14,3,2157.899999976158,167728.30000001192,8014,VNB,B,13
14,test,1,0.0,1-Back,1,m,Wed Sep 10 2025 15:27:02 GMT-0500 (Central Daylight Time),171951.69999998808,011_m_f_h_a.png,I,m,1046,15,3,2057.699999988079,169894.0,8014,VNB,B,14
15,test,1,0.0,1-Back,1,m,Wed Sep 10 2025 15:27:02 GMT-0500 (Central Daylight Time),174001.30000001192,007_m_m_d_a.png,I,m,1026,16,3,2041.9000000357628,171959.39999997616,8014,VNB,B,15
15,test,1,0.0,1-Back,0,m,Wed Sep 10 2025 15:27:02 GMT-0500 (Central Daylight Time),176034.0,016_y_m_n_a.png,I,z,1011,17,3,2024.800000011921,174009.19999998808,8014,VNB,B,16
16,test,1,0.0,1-Back,1,m,Wed Sep 10 2025 15:27:02 GMT-0500 (Central Daylight Time),179033.19999998808,005_o_f_h_a.png,I,m,1975,18,3,2991.399999976158,176041.80000001192,8014,VNB,B,17
0,test,2,0.0,1-Back,,,Wed Sep 10 2025 15:27:02 GMT-0500 (Central Daylight Time),179033.19999998808,016_y_m_n_a.png,I,space,1937,1,3,2991.399999976158,176041.80000001192,8014,VNB,B,0
1,test,2,0.0,1-Back,1,m,Wed Sep 10 2025 15:27:02 GMT-0500 (Central Daylight Time),185080.39999997616,020_y_f_h_a.png,I,m,1051,2,3,2073.0,183007.39999997616,8014,VNB,B,1
2,test,2,1.0,1-Back,1,m,Wed Sep 10 2025 15:27:02 GMT-0500 (Central Daylight Time),187214.69999998808,004_o_m_n_a.png,I,m,1101,3,3,2125.199999988079,185089.5,8014,VNB,B,2
3,test,2,0.0,1-Back,1,m,Wed Sep 10 2025 15:27:02 GMT-0500 (Central Daylight Time),189878.30000001192,011_m_f_d_a.png,I,m,1643,4,3,2656.2000000476837,187222.09999996424,8014,VNB,B,3
4,test,2,0.0,1-Back,1,z,Wed Sep 10 2025 15:27:02 GMT-0500 (Central Daylight Time),192094.89999997616,007_m_m_d_a.png,I,z,1186,5,3,2208.0,189886.89999997616,8014,VNB,B,4
5,test,2,0.0,1-Back,1,m,Wed Sep 10 2025 15:27:02 GMT-0500 (Central Daylight Time),194027.0,016_y_m_h_a.png,I,m,906,6,3,1924.9000000357628,192102.09999996424,8014,VNB,B,5
6,test,2,1.0,1-Back,1,z,Wed Sep 10 2025 15:27:02 GMT-0500 (Central Daylight Time),196143.69999998808,005_o_f_h_a.png,I,z,1093,7,3,2108.699999988079,194035.0,8014,VNB,B,6
7,test,2,0.0,1-Back,1,m,Wed Sep 10 2025 15:27:02 GMT-0500 (Central Daylight Time),198142.5,011_m_f_n_a.png,I,m,970,8,3,1990.0,196152.5,8014,VNB,B,7
8,test,2,0.0,1-Back,1,m,Wed Sep 10 2025 15:27:02 GMT-0500 (Central Daylight Time),200942.0,020_y_f_d_a.png,I,m,1780,9,3,2793.0,198149.0,8014,VNB,B,8
9,test,2,0.0,1-Back,1,m,Wed Sep 10 2025 15:27:02 GMT-0500 (Central Daylight Time),203007.5,007_m_m_n_a.png,I,m,1034,10,3,2057.199999988079,200950.30000001192,8014,VNB,B,9
10,test,2,1.0,1-Back,1,m,Wed Sep 10 2025 15:27:02 GMT-0500 (Central Daylight Time),204973.80000001192,011_m_f_h_a.png,I,m,937,11,3,1956.5,203017.30000001192,8014,VNB,B,10
11,test,2,0.0,1-Back,1,z,Wed Sep 10 2025 15:27:02 GMT-0500 (Central Daylight Time),206907.5,004_o_m_h_a.png,I,z,908,12,3,1928.300000011921,204979.19999998808,8014,VNB,B,11
12,test,2,0.0,1-Back,1,m,Wed Sep 10 2025 15:27:02 GMT-0500 (Central Daylight Time),208656.0,016_y_m_d_a.png,I,m,719,13,3,1739.1000000238419,206916.89999997616,8014,VNB,B,12
13,test,2,0.0,1-Back,1,m,Wed Sep 10 2025 15:27:02 GMT-0500 (Central Daylight Time),211155.80000001192,005_o_f_n_a.png,I,m,1474,14,3,2490.100000023842,208665.69999998808,8014,VNB,B,13
14,test,2,0.0,1-Back,1,z,Wed Sep 10 2025 15:27:02 GMT-0500 (Central Daylight Time),213370.80000001192,020_y_f_n_a.png,I,z,1190,15,3,2206.400000035763,211164.39999997616,8014,VNB,B,14
15,test,2,1.0,1-Back,1,m,Wed Sep 10 2025 15:27:02 GMT-0500 (Central Daylight Time),215304.09999996424,007_m_m_h_a.png,I,m,903,16,3,1924.0,213380.09999996424,8014,VNB,B,15
16,test,2,0.0,1-Back,1,m,Wed Sep 10 2025 15:27:02 GMT-0500 (Central Daylight Time),217370.69999998808,005_o_f_d_a.png,I,m,1041,17,3,2058.899999976158,215311.80000001192,8014,VNB,B,16
17,test,2,1.0,1-Back,1,z,Wed Sep 10 2025 15:27:02 GMT-0500 (Central Daylight Time),219370.80000001192,004_o_m_d_a.png,I,z,976,18,3,1990.2000000476837,217380.59999996424,8014,VNB,B,17
0,test,3,1.0,1-Back,,,Wed Sep 10 2025 15:27:02 GMT-0500 (Central Daylight Time),219370.80000001192,005_o_f_h_a.png,I,space,1647,1,3,1990.2000000476837,217380.59999996424,8014,VNB,B,0
1,test,3,0.0,1-Back,1,m,Wed Sep 10 2025 15:27:02 GMT-0500 (Central Daylight Time),225235.09999996424,011_m_f_d_a.png,I,m,1081,2,3,2108.7999999523163,223126.30000001192,8014,VNB,B,1
2,test,3,1.0,1-Back,1,m,Wed Sep 10 2025 15:27:02 GMT-0500 (Central Daylight Time),227867.30000001192,007_m_m_n_a.png,I,m,1606,3,3,2626.400000035763,225240.89999997616,8014,VNB,B,2
3,test,3,0.0,1-Back,1,z,Wed Sep 10 2025 15:27:02 GMT-0500 (Central Daylight Time),229783.39999997616,005_o_f_n_a.png,I,z,896,4,3,1906.699999988079,227876.69999998808,8014,VNB,B,3
4,test,3,1.0,1-Back,1,m,Wed Sep 10 2025 15:27:02 GMT-0500 (Central Daylight Time),231850.09999996424,004_o_m_d_a.png,I,m,1033,5,3,2058.599999964237,229791.5,8014,VNB,B,4
5,test,3,0.0,1-Back,1,m,Wed Sep 10 2025 15:27:02 GMT-0500 (Central Daylight Time),234000.19999998808,020_y_f_h_a.png,I,m,1130,6,3,2140.800000011921,231859.39999997616,8014,VNB,B,5
6,test,3,0.0,1-Back,1,z,Wed Sep 10 2025 15:27:02 GMT-0500 (Central Daylight Time),236147.89999997616,016_y_m_h_a.png,I,z,1123,7,3,2138.899999976158,234009.0,8014,VNB,B,6
7,test,3,0.0,1-Back,1,m,Wed Sep 10 2025 15:27:02 GMT-0500 (Central Daylight Time),237948.5,011_m_f_n_a.png,I,m,774,8,3,1792.9000000357628,236155.59999996424,8014,VNB,B,7
8,test,3,0.0,1-Back,1,m,Wed Sep 10 2025 15:27:02 GMT-0500 (Central Daylight Time),239878.89999997616,020_y_f_d_a.png,I,m,902,9,3,1920.800000011921,237958.09999996424,8014,VNB,B,8
9,test,3,1.0,1-Back,1,m,Wed Sep 10 2025 15:27:02 GMT-0500 (Central Daylight Time),242395.89999997616,004_o_m_n_a.png,I,m,1491,10,3,2506.899999976158,239889.0,8014,VNB,B,9
10,test,3,0.0,1-Back,1,m,Wed Sep 10 2025 15:27:02 GMT-0500 (Central Daylight Time),244211.89999997616,007_m_m_h_a.png,I,m,798,11,3,1807.5999999642372,242404.30000001192,8014,VNB,B,10
11,test,3,0.0,1-Back,1,z,Wed Sep 10 2025 15:27:02 GMT-0500 (Central Daylight Time),246178.0,011_m_f_h_a.png,I,z,943,12,3,1961.699999988079,244216.30000001192,8014,VNB,B,11
12,test,3,1.0,1-Back,1,m,Wed Sep 10 2025 15:27:02 GMT-0500 (Central Daylight Time),248094.0,005_o_f_d_a.png,I,m,887,13,3,1907.6000000238419,246186.39999997616,8014,VNB,B,12
13,test,3,0.0,1-Back,1,z,Wed Sep 10 2025 15:27:02 GMT-0500 (Central Daylight Time),249992.69999998808,007_m_m_d_a.png,I,z,867,14,3,1891.1000000238419,248101.59999996424,8014,VNB,B,13
14,test,3,0.0,1-Back,1,m,Wed Sep 10 2025 15:27:02 GMT-0500 (Central Daylight Time),252030.5,016_y_m_n_a.png,I,m,1018,15,3,2030.6000000238419,249999.89999997616,8014,VNB,B,14
15,test,3,1.0,1-Back,1,m,Wed Sep 10 2025 15:27:02 GMT-0500 (Central Daylight Time),253910.30000001192,004_o_m_h_a.png,I,m,865,16,3,1876.800000011921,252033.5,8014,VNB,B,15
16,test,3,0.0,1-Back,1,m,Wed Sep 10 2025 15:27:02 GMT-0500 (Central Daylight Time),255793.0,016_y_m_d_a.png,I,m,853,17,3,1875.0,253918.0,8014,VNB,B,16
17,test,3,1.0,1-Back,1,m,Wed Sep 10 2025 15:27:02 GMT-0500 (Central Daylight Time),257811.0,020_y_f_n_a.png,I,m,1003,18,3,2011.5,255799.5,8014,VNB,B,17
0,test,4,1.0,1-Back,,,Wed Sep 10 2025 15:27:02 GMT-0500 (Central Daylight Time),257811.0,007_m_m_d_a.png,I,space,1318,1,3,2011.5,255799.5,8014,VNB,B,0
1,test,4,0.0,1-Back,1,z,Wed Sep 10 2025 15:27:02 GMT-0500 (Central Daylight Time),263307.3000000119,004_o_m_d_a.png,I,z,1134,2,3,2141.2000000476837,261166.09999996424,8014,VNB,B,1
2,test,4,0.0,1-Back,1,m,Wed Sep 10 2025 15:27:02 GMT-0500 (Central Daylight Time),265188.1999999881,016_y_m_h_a.png,I,m,856,3,3,1875.800000011921,263312.39999997616,8014,VNB,B,2
3,test,4,0.0,1-Back,1,m,Wed Sep 10 2025 15:27:02 GMT-0500 (Central Daylight Time),267122.0,011_m_f_n_a.png,I,m,900,4,3,1926.199999988079,265195.8000000119,8014,VNB,B,3
4,test,4,1.0,1-Back,1,m,Wed Sep 10 2025 15:27:02 GMT-0500 (Central Daylight Time),268954.59999996424,005_o_f_h_a.png,I,m,809,5,3,1823.2999999523163,267131.3000000119,8014,VNB,B,4
5,test,4,0.0,1-Back,1,m,Wed Sep 10 2025 15:27:02 GMT-0500 (Central Daylight Time),270703.89999997616,007_m_m_n_a.png,I,m,719,6,3,1740.699999988079,268963.1999999881,8014,VNB,B,5
6,test,4,0.0,1-Back,1,m,Wed Sep 10 2025 15:27:02 GMT-0500 (Central Daylight Time),272469.8000000119,016_y_m_d_a.png,I,m,737,7,3,1758.1000000238419,270711.6999999881,8014,VNB,B,6
7,test,4,1.0,1-Back,1,z,Wed Sep 10 2025 15:27:02 GMT-0500 (Central Daylight Time),274535.8000000119,020_y_f_d_a.png,I,z,1035,8,3,2058.900000035763,272476.89999997616,8014,VNB,B,7
8,test,4,0.0,1-Back,1,m,Wed Sep 10 2025 15:27:02 GMT-0500 (Central Daylight Time),276420.0,011_m_f_h_a.png,I,m,868,9,3,1876.6000000238419,274543.39999997616,8014,VNB,B,8
9,test,4,0.0,1-Back,1,z,Wed Sep 10 2025 15:27:02 GMT-0500 (Central Daylight Time),278234.5,004_o_m_h_a.png,I,z,791,10,3,1807.6000000238419,276426.89999997616,8014,VNB,B,9
10,test,4,1.0,1-Back,1,m,Wed Sep 10 2025 15:27:02 GMT-0500 (Central Daylight Time),279983.5,005_o_f_n_a.png,I,m,727,11,3,1741.0,278242.5,8014,VNB,B,10
10,test,4,0.0,1-Back,0,m,Wed Sep 10 2025 15:27:02 GMT-0500 (Central Daylight Time),282065.39999997616,011_m_f_d_a.png,I,z,1058,12,3,2075.399999976158,279990.0,8014,VNB,B,11
11,test,4,0.0,1-Back,1,m,Wed Sep 10 2025 15:27:02 GMT-0500 (Central Daylight Time),284199.3000000119,020_y_f_n_a.png,I,m,1102,13,3,2126.100000023842,282073.1999999881,8014,VNB,B,12
11,test,4,0.0,1-Back,0,m,Wed Sep 10 2025 15:27:02 GMT-0500 (Central Daylight Time),286247.59999996424,005_o_f_d_a.png,I,z,1025,14,3,2039.0,284208.59999996424,8014,VNB,B,13
12,test,4,0.0,1-Back,1,m,Wed Sep 10 2025 15:27:02 GMT-0500 (Central Daylight Time),288248.3000000119,020_y_f_h_a.png,I,m,977,15,3,1998.1000000238419,286250.1999999881,8014,VNB,B,14
13,test,4,1.0,1-Back,1,z,Wed Sep 10 2025 15:27:02 GMT-0500 (Central Daylight Time),290063.39999997616,007_m_m_h_a.png,I,z,785,16,3,1806.800000011921,288256.59999996424,8014,VNB,B,15
14,test,4,0.0,1-Back,1,m,Wed Sep 10 2025 15:27:02 GMT-0500 (Central Daylight Time),291996.1999999881,004_o_m_n_a.png,I,m,905,17,3,1924.1000000238419,290072.09999996424,8014,VNB,B,16
15,test,4,1.0,1-Back,1,z,Wed Sep 10 2025 15:27:02 GMT-0500 (Central Daylight Time),294046.0,016_y_m_n_a.png,I,z,1021,18,3,2041.6000000238419,292004.39999997616,8014,VNB,B,17
0,test,5,1.0,1-Back,,,Wed Sep 10 2025 15:27:02 GMT-0500 (Central Daylight Time),294046.0,004_o_m_n_a.png,I,space,1021,1,3,2041.6000000238419,292004.39999997616,8014,VNB,B,0
1,test,5,1.0,1-Back,1,m,Wed Sep 10 2025 15:27:02 GMT-0500 (Central Daylight Time),299363.3000000119,005_o_f_h_a.png,I,m,1241,2,3,2258.2000000476837,297105.09999996424,8014,VNB,B,1
2,test,5,0.0,1-Back,1,m,Wed Sep 10 2025 15:27:02 GMT-0500 (Central Daylight Time),301293.5,016_y_m_d_a.png,I,m,904,3,3,1927.6000000238419,299365.89999997616,8014,VNB,B,2
3,test,5,0.0,1-Back,1,z,Wed Sep 10 2025 15:27:02 GMT-0500 (Central Daylight Time),303409.6999999881,004_o_m_d_a.png,I,z,1085,4,3,2107.5,301302.1999999881,8014,VNB,B,3
4,test,5,0.0,1-Back,1,m,Wed Sep 10 2025 15:27:02 GMT-0500 (Central Daylight Time),305291.8000000119,011_m_f_h_a.png,I,m,855,5,3,1873.7000000476837,303418.09999996424,8014,VNB,B,4
5,test,5,0.0,1-Back,1,m,Wed Sep 10 2025 15:27:02 GMT-0500 (Central Daylight Time),307208.8000000119,020_y_f_n_a.png,I,m,893,6,3,1910.0,305298.8000000119,8014,VNB,B,5
6,test,5,1.0,1-Back,1,z,Wed Sep 10 2025 15:27:02 GMT-0500 (Central Daylight Time),309243.59999996424,005_o_f_n_a.png,I,z,1019,7,3,2027.3999999761581,307216.1999999881,8014,VNB,B,6
7,test,5,0.0,1-Back,1,m,Wed Sep 10 2025 15:27:02 GMT-0500 (Central Daylight Time),311173.09999996424,011_m_f_d_a.png,I,m,904,8,3,1926.5,309246.59999996424,8014,VNB,B,7
8,test,5,0.0,1-Back,1,m,Wed Sep 10 2025 15:27:02 GMT-0500 (Central Daylight Time),313324.39999997616,016_y_m_h_a.png,I,m,1125,9,3,2142.899999976158,311181.5,8014,VNB,B,8
9,test,5,0.0,1-Back,1,m,Wed Sep 10 2025 15:27:02 GMT-0500 (Central Daylight Time),315339.09999996424,020_y_f_d_a.png,I,m,989,10,3,2006.8999999761581,313332.1999999881,8014,VNB,B,9
10,test,5,0.0,1-Back,1,m,Wed Sep 10 2025 15:27:02 GMT-0500 (Central Daylight Time),317272.1999999881,007_m_m_n_a.png,I,m,901,11,3,1925.800000011921,315346.39999997616,8014,VNB,B,10
11,test,5,1.0,1-Back,1,z,Wed Sep 10 2025 15:27:02 GMT-0500 (Central Daylight Time),319203.59999996424,011_m_f_n_a.png,I,z,915,12,3,1922.5999999642372,317281.0,8014,VNB,B,11
12,test,5,0.0,1-Back,1,m,Wed Sep 10 2025 15:27:02 GMT-0500 (Central Daylight Time),321170.6999999881,004_o_m_h_a.png,I,m,941,13,3,1964.699999988079,319206.0,8014,VNB,B,12
13,test,5,0.0,1-Back,1,z,Wed Sep 10 2025 15:27:02 GMT-0500 (Central Daylight Time),323152.5,007_m_m_h_a.png,I,z,956,14,3,1975.0,321177.5,8014,VNB,B,13
14,test,5,1.0,1-Back,1,m,Wed Sep 10 2025 15:27:02 GMT-0500 (Central Daylight Time),324972.6999999881,005_o_f_d_a.png,I,m,802,15,3,1810.199999988079,323162.5,8014,VNB,B,14
15,test,5,0.0,1-Back,1,m,Wed Sep 10 2025 15:27:02 GMT-0500 (Central Daylight Time),326971.89999997616,016_y_m_n_a.png,I,m,967,16,3,1991.8999999761581,324980.0,8014,VNB,B,15
16,test,5,0.0,1-Back,1,m,Wed Sep 10 2025 15:27:02 GMT-0500 (Central Daylight Time),329152.59999996424,020_y_f_h_a.png,I,m,1161,17,3,2172.2999999523163,326980.3000000119,8014,VNB,B,16
17,test,5,0.0,1-Back,1,m,Wed Sep 10 2025 15:27:02 GMT-0500 (Central Daylight Time),331749.89999997616,007_m_m_d_a.png,I,m,1570,18,3,2589.599999964237,329160.3000000119,8014,VNB,B,17
0,prac,1,0.0,2-Back,,,Wed Sep 10 2025 15:27:02 GMT-0500 (Central Daylight Time),331749.89999997616,011_m_f_n_a.png,I,space,5035,1,3,2589.599999964237,329160.3000000119,8014,VNB,B,0
0,prac,1,0.0,2-Back,,,Wed Sep 10 2025 15:27:02 GMT-0500 (Central Daylight Time),331749.89999997616,005_o_f_h_a.png,I,space,5035,2,3,2589.599999964237,329160.3000000119,8014,VNB,B,0
1,prac,1,0.0,2-Back,1,m,Wed Sep 10 2025 15:27:02 GMT-0500 (Central Daylight Time),417874.09999996424,004_o_m_d_a.png,I,m,1442,3,3,2291.0,415583.09999996424,8014,VNB,B,1
2,prac,1,1.0,2-Back,1,z,Wed Sep 10 2025 15:27:02 GMT-0500 (Central Daylight Time),419674.09999996424,007_m_m_h_a.png,I,z,924,4,3,1792.0999999642372,417882.0,8014,VNB,B,2
3,prac,1,0.0,2-Back,1,m,Wed Sep 10 2025 15:27:02 GMT-0500 (Central Daylight Time),421923.39999997616,020_y_f_n_a.png,I,m,1398,5,3,2238.199999988079,419685.1999999881,8014,VNB,B,3
3,prac,1,1.0,2-Back,0,z,Wed Sep 10 2025 15:27:02 GMT-0500 (Central Daylight Time),424339.09999996424,004_o_m_h_a.png,I,m,1587,6,3,2408.2999999523163,421930.8000000119,8014,VNB,B,4
3,prac,1,1.0,2-Back,0,z,Wed Sep 10 2025 15:27:02 GMT-0500 (Central Daylight Time),427203.3000000119,016_y_m_n_a.png,I,None,2003,7,3,2854.0,424349.3000000119,8014,VNB,B,5
4,prac,1,0.0,2-Back,1,m,Wed Sep 10 2025 15:27:02 GMT-0500 (Central Daylight Time),429486.39999997616,011_m_f_d_a.png,I,m,1416,8,3,2274.800000011921,427211.59999996424,8014,VNB,B,6
4,prac,1,0.0,2-Back,0,m,Wed Sep 10 2025 15:27:02 GMT-0500 (Central Daylight Time),431534.6999999881,005_o_f_d_a.png,I,z,1169,9,3,2032.5,429502.1999999881,8014,VNB,B,7
5,prac,1,0.0,2-Back,1,m,Wed Sep 10 2025 15:27:02 GMT-0500 (Central Daylight Time),433584.39999997616,007_m_m_h_a.png,I,m,1266,10,3,2038.8999999761581,431545.5,8014,VNB,B,8
5,prac,1,1.0,2-Back,0,z,Wed Sep 10 2025 15:27:02 GMT-0500 (Central Daylight Time),435750.89999997616,020_y_f_d_a.png,I,m,1314,11,3,2156.699999988079,433594.1999999881,8014,VNB,B,9
5,prac,1,0.0,2-Back,0,m,Wed Sep 10 2025 15:27:02 GMT-0500 (Central Daylight Time),438600.3000000119,004_o_m_n_a.png,I,None,2006,12,3,2840.100000023842,435760.1999999881,8014,VNB,B,10
0,prac,2,0.0,2-Back,,,Wed Sep 10 2025 15:27:02 GMT-0500 (Central Daylight Time),438600.3000000119,011_m_f_n_a.png,I,a,7021,1,3,2840.100000023842,435760.1999999881,8014,VNB,B,0
0,prac,2,0.0,2-Back,,,Wed Sep 10 2025 15:27:02 GMT-0500 (Central Daylight Time),438600.3000000119,005_o_f_h_a.png,I,a,7021,2,3,2840.100000023842,435760.1999999881,8014,VNB,B,0
1,prac,2,0.0,2-Back,1,m,Wed Sep 10 2025 15:27:02 GMT-0500 (Central Daylight Time),452828.59999996424,004_o_m_d_a.png,I,m,1154,3,3,1990.699999988079,450837.89999997616,8014,VNB,B,1
2,prac,2,1.0,2-Back,1,z,Wed Sep 10 2025 15:27:02 GMT-0500 (Central Daylight Time),454494.1999999881,007_m_m_h_a.png,I,z,887,4,3,1658.6000000238419,452835.59999996424,8014,VNB,B,2
3,prac,2,0.0,2-Back,1,m,Wed Sep 10 2025 15:27:02 GMT-0500 (Central Daylight Time),456378.5,020_y_f_n_a.png,I,m,1028,5,3,1874.1000000238419,454504.39999997616,8014,VNB,B,3
3,prac,2,1.0,2-Back,0,z,Wed Sep 10 2025 15:27:02 GMT-0500 (Central Daylight Time),458726.09999996424,004_o_m_h_a.png,I,m,1483,6,3,2337.0,456389.09999996424,8014,VNB,B,4
4,prac,2,1.0,2-Back,1,z,Wed Sep 10 2025 15:27:02 GMT-0500 (Central Daylight Time),460992.5,016_y_m_n_a.png,I,z,1397,7,3,2257.699999988079,458734.8000000119,8014,VNB,B,5
5,prac,2,0.0,2-Back,1,m,Wed Sep 10 2025 15:27:02 GMT-0500 (Central Daylight Time),463126.1999999881,011_m_f_d_a.png,I,m,1280,8,3,2124.399999976158,461001.8000000119,8014,VNB,B,6
6,prac,2,0.0,2-Back,1,m,Wed Sep 10 2025 15:27:02 GMT-0500 (Central Daylight Time),465125.59999996424,005_o_f_d_a.png,I,m,1127,9,3,1988.699999988079,463136.89999997616,8014,VNB,B,7
6,prac,2,0.0,2-Back,0,m,Wed Sep 10 2025 15:27:02 GMT-0500 (Central Daylight Time),466908.6999999881,007_m_m_h_a.png,I,z,995,10,3,1773.6000000238419,465135.09999996424,8014,VNB,B,8
6,prac,2,1.0,2-Back,0,z,Wed Sep 10 2025 15:27:02 GMT-0500 (Central Daylight Time),469172.8000000119,020_y_f_d_a.png,I,m,1405,11,3,2252.600000023842,466920.1999999881,8014,VNB,B,9
7,prac,2,0.0,2-Back,1,m,Wed Sep 10 2025 15:27:02 GMT-0500 (Central Daylight Time),471705.39999997616,004_o_m_n_a.png,I,m,1687,12,3,2524.199999988079,469181.1999999881,8014,VNB,B,10
0,test,1,0.0,2-Back,,,Wed Sep 10 2025 15:27:02 GMT-0500 (Central Daylight Time),471705.39999997616,016_y_m_h_a.png,I,space,3705,1,3,2524.199999988079,469181.1999999881,8014,VNB,B,0
0,test,1,0.0,2-Back,,,Wed Sep 10 2025 15:27:02 GMT-0500 (Central Daylight Time),471705.39999997616,005_o_f_n_a.png,I,space,3705,2,3,2524.199999988079,469181.1999999881,8014,VNB,B,0
1,test,1,0.0,2-Back,1,z,Wed Sep 10 2025 15:27:02 GMT-0500 (Central Daylight Time),487387.39999997616,004_o_m_h_a.png,I,z,1117,3,3,2126.199999988079,485261.1999999881,8014,VNB,B,1
1,test,1,0.0,2-Back,0,m,Wed Sep 10 2025 15:27:02 GMT-0500 (Central Daylight Time),490000.59999996424,011_m_f_d_a.png,I,z,1592,4,3,2610.099999964237,487390.5,8014,VNB,B,2
2,test,1,1.0,2-Back,1,m,Wed Sep 10 2025 15:27:02 GMT-0500 (Central Daylight Time),491949.89999997616,016_y_m_n_a.png,I,m,921,5,3,1941.199999988079,490008.6999999881,8014,VNB,B,3
2,test,1,0.0,2-Back,0,z,Wed Sep 10 2025 15:27:02 GMT-0500 (Central Daylight Time),494450.39999997616,020_y_f_d_a.png,I,m,1477,6,3,2492.0,491958.39999997616,8014,VNB,B,4
2,test,1,0.0,2-Back,0,m,Wed Sep 10 2025 15:27:02 GMT-0500 (Central Daylight Time),496267.1999999881,007_m_m_h_a.png,I,z,801,7,3,1809.6000000238419,494457.59999996424,8014,VNB,B,5
3,test,1,1.0,2-Back,1,m,Wed Sep 10 2025 15:27:02 GMT-0500 (Central Daylight Time),498314.8000000119,020_y_f_n_a.png,I,m,1026,8,3,2042.2000000476837,496272.59999996424,8014,VNB,B,6
3,test,1,0.0,2-Back,0,z,Wed Sep 10 2025 15:27:02 GMT-0500 (Central Daylight Time),501297.6999999881,005_o_f_h_a.png,I,m,1951,9,3,2975.899999976158,498321.8000000119,8014,VNB,B,7
4,test,1,0.0,2-Back,1,m,Wed Sep 10 2025 15:27:02 GMT-0500 (Central Daylight Time),503262.3000000119,004_o_m_d_a.png,I,m,946,10,3,1956.7000000476837,501305.59999996424,8014,VNB,B,8
4,test,1,1.0,2-Back,0,m,Wed Sep 10 2025 15:27:02 GMT-0500 (Central Daylight Time),505395.89999997616,007_m_m_d_a.png,I,z,1107,11,3,2126.199999988079,503269.6999999881,8014,VNB,B,9
5,test,1,0.0,2-Back,1,m,Wed Sep 10 2025 15:27:02 GMT-0500 (Central Daylight Time),507710.8000000119,011_m_f_n_a.png,I,m,1294,12,3,2308.100000023842,505402.6999999881,8014,VNB,B,10
6,test,1,0.0,2-Back,1,m,Wed Sep 10 2025 15:27:02 GMT-0500 (Central Daylight Time),509993.89999997616,020_y_f_h_a.png,I,m,1250,13,3,2276.599999964237,507717.3000000119,8014,VNB,B,11
7,test,1,0.0,2-Back,1,z,Wed Sep 10 2025 15:27:02 GMT-0500 (Central Daylight Time),512227.39999997616,007_m_m_n_a.png,I,z,1212,14,3,2226.5,510000.89999997616,8014,VNB,B,12
8,test,1,0.0,2-Back,1,m,Wed Sep 10 2025 15:27:02 GMT-0500 (Central Daylight Time),514926.5,016_y_m_d_a.png,I,m,1682,15,3,2692.600000023842,512233.89999997616,8014,VNB,B,13
9,test,1,1.0,2-Back,1,m,Wed Sep 10 2025 15:27:02 GMT-0500 (Central Daylight Time),517258.5,011_m_f_h_a.png,I,m,1300,16,3,2325.400000035763,514933.09999996424,8014,VNB,B,14
9,test,1,0.0,2-Back,0,z,Wed Sep 10 2025 15:27:02 GMT-0500 (Central Daylight Time),519841.3000000119,005_o_f_d_a.png,I,m,1558,17,3,2576.400000035763,517264.89999997616,8014,VNB,B,15
10,test,1,0.0,2-Back,1,m,Wed Sep 10 2025 15:27:02 GMT-0500 (Central Daylight Time),521923.59999996424,004_o_m_n_a.png,I,m,1050,18,3,2075.0,519848.59999996424,8014,VNB,B,16
0,test,2,0.0,2-Back,,,Wed Sep 10 2025 15:27:02 GMT-0500 (Central Daylight Time),521923.59999996424,007_m_m_h_a.png,I,space,1606,1,3,2075.0,519848.59999996424,8014,VNB,B,0
0,test,2,0.0,2-Back,,,Wed Sep 10 2025 15:27:02 GMT-0500 (Central Daylight Time),521923.59999996424,020_y_f_n_a.png,I,space,1606,2,3,2075.0,519848.59999996424,8014,VNB,B,0
1,test,2,1.0,2-Back,1,z,Wed Sep 10 2025 15:27:02 GMT-0500 (Central Daylight Time),530737.0999999642,005_o_f_h_a.png,I,z,975,3,3,1988.0,528749.0999999642,8014,VNB,B,1
2,test,2,0.0,2-Back,1,m,Wed Sep 10 2025 15:27:02 GMT-0500 (Central Daylight Time),533053.0,004_o_m_d_a.png,I,m,1283,4,3,2309.199999988079,530743.8000000119,8014,VNB,B,2
2,test,2,0.0,2-Back,0,m,Wed Sep 10 2025 15:27:02 GMT-0500 (Central Daylight Time),535737.5999999642,011_m_f_d_a.png,I,z,1652,5,3,2678.2999999523163,533059.3000000119,8014,VNB,B,3
2,test,2,0.0,2-Back,0,m,Wed Sep 10 2025 15:27:02 GMT-0500 (Central Daylight Time),538569.0,016_y_m_h_a.png,I,z,1810,6,3,2823.400000035763,535745.5999999642,8014,VNB,B,4
3,test,2,0.0,2-Back,1,m,Wed Sep 10 2025 15:27:02 GMT-0500 (Central Daylight Time),540868.5999999642,005_o_f_n_a.png,I,m,1281,7,3,2291.899999976158,538576.6999999881,8014,VNB,B,5
4,test,2,1.0,2-Back,1,z,Wed Sep 10 2025 15:27:02 GMT-0500 (Central Daylight Time),542833.5999999642,004_o_m_h_a.png,I,z,944,8,3,1956.3999999761581,540877.1999999881,8014,VNB,B,6
4,test,2,0.0,2-Back,0,m,Wed Sep 10 2025 15:27:02 GMT-0500 (Central Daylight Time),545716.5999999642,020_y_f_d_a.png,I,z,1865,9,3,2873.2999999523163,542843.3000000119,8014,VNB,B,7
5,test,2,0.0,2-Back,1,m,Wed Sep 10 2025 15:27:02 GMT-0500 (Central Daylight Time),548515.5999999642,016_y_m_d_a.png,I,m,1780,10,3,2791.699999988079,545723.8999999762,8014,VNB,B,8
6,test,2,0.0,2-Back,1,m,Wed Sep 10 2025 15:27:02 GMT-0500 (Central Daylight Time),551331.3999999762,007_m_m_n_a.png,I,m,1792,11,3,2808.5,548522.8999999762,8014,VNB,B,9
6,test,2,0.0,2-Back,0,m,Wed Sep 10 2025 15:27:02 GMT-0500 (Central Daylight Time),553579.1999999881,011_m_f_h_a.png,I,z,1224,12,3,2238.800000011921,551340.3999999762,8014,VNB,B,10
7,test,2,1.0,2-Back,1,z,Wed Sep 10 2025 15:27:02 GMT-0500 (Central Daylight Time),555945.1999999881,004_o_m_n_a.png,I,z,1333,13,3,2359.399999976158,553585.8000000119,8014,VNB,B,11
8,test,2,0.0,2-Back,1,m,Wed Sep 10 2025 15:27:02 GMT-0500 (Central Daylight Time),558131.3000000119,005_o_f_d_a.png,I,m,1159,14,3,2174.7000000476837,555956.5999999642,8014,VNB,B,12
9,test,2,0.0,2-Back,1,m,Wed Sep 10 2025 15:27:02 GMT-0500 (Central Daylight Time),560445.0999999642,020_y_f_h_a.png,I,m,1298,15,3,2310.399999976158,558134.6999999881,8014,VNB,B,13
10,test,2,0.0,2-Back,1,z,Wed Sep 10 2025 15:27:02 GMT-0500 (Central Daylight Time),562845.3999999762,007_m_m_d_a.png,I,z,1370,16,3,2391.599999964237,560453.8000000119,8014,VNB,B,14
10,test,2,0.0,2-Back,0,m,Wed Sep 10 2025 15:27:02 GMT-0500 (Central Daylight Time),565427.3999999762,016_y_m_n_a.png,I,z,1565,17,3,2573.800000011921,562853.5999999642,8014,VNB,B,15
11,test,2,1.0,2-Back,1,m,Wed Sep 10 2025 15:27:02 GMT-0500 (Central Daylight Time),567641.3000000119,011_m_f_n_a.png,I,m,1184,18,3,2206.600000023842,565434.6999999881,8014,VNB,B,16
0,test,3,1.0,2-Back,,,Wed Sep 10 2025 15:27:02 GMT-0500 (Central Daylight Time),567641.3000000119,004_o_m_n_a.png,I,space,3367,1,3,2206.600000023842,565434.6999999881,8014,VNB,B,0
0,test,3,1.0,2-Back,,,Wed Sep 10 2025 15:27:02 GMT-0500 (Central Daylight Time),567641.3000000119,005_o_f_d_a.png,I,space,3367,2,3,2206.600000023842,565434.6999999881,8014,VNB,B,0
1,test,3,0.0,2-Back,1,m,Wed Sep 10 2025 15:27:02 GMT-0500 (Central Daylight Time),578073.1999999881,020_y_f_h_a.png,I,m,979,3,3,1992.300000011921,576080.8999999762,8014,VNB,B,1
2,test,3,0.0,2-Back,1,z,Wed Sep 10 2025 15:27:02 GMT-0500 (Central Daylight Time),580338.3999999762,011_m_f_d_a.png,I,z,1242,4,3,2256.399999976158,578082.0,8014,VNB,B,2
3,test,3,1.0,2-Back,1,m,Wed Sep 10 2025 15:27:02 GMT-0500 (Central Daylight Time),582387.0999999642,016_y_m_n_a.png,I,m,1024,5,3,2040.3999999761581,580346.6999999881,8014,VNB,B,3
4,test,3,0.0,2-Back,1,m,Wed Sep 10 2025 15:27:02 GMT-0500 (Central Daylight Time),584853.5999999642,004_o_m_h_a.png,I,m,1438,6,3,2457.899999976158,582395.6999999881,8014,VNB,B,4
5,test,3,0.0,2-Back,1,z,Wed Sep 10 2025 15:27:02 GMT-0500 (Central Daylight Time),587069.3999999762,020_y_f_n_a.png,I,z,1196,7,3,2206.399999976158,584863.0,8014,VNB,B,5
6,test,3,1.0,2-Back,1,m,Wed Sep 10 2025 15:27:02 GMT-0500 (Central Daylight Time),589117.8000000119,007_m_m_d_a.png,I,m,1028,8,3,2042.5,587075.3000000119,8014,VNB,B,6
6,test,3,0.0,2-Back,0,m,Wed Sep 10 2025 15:27:02 GMT-0500 (Central Daylight Time),591619.8999999762,016_y_m_d_a.png,I,z,1484,9,3,2493.0,589126.8999999762,8014,VNB,B,7
7,test,3,0.0,2-Back,1,m,Wed Sep 10 2025 15:27:02 GMT-0500 (Central Daylight Time),594200.0,005_o_f_h_a.png,I,m,1559,10,3,2571.699999988079,591628.3000000119,8014,VNB,B,8
7,test,3,1.0,2-Back,0,m,Wed Sep 10 2025 15:27:02 GMT-0500 (Central Daylight Time),597165.3999999762,011_m_f_n_a.png,I,z,1938,11,3,2957.5,594207.8999999762,8014,VNB,B,9
8,test,3,1.0,2-Back,1,z,Wed Sep 10 2025 15:27:02 GMT-0500 (Central Daylight Time),599131.3000000119,007_m_m_h_a.png,I,z,940,12,3,1955.1000000238419,597176.1999999881,8014,VNB,B,10
9,test,3,0.0,2-Back,1,m,Wed Sep 10 2025 15:27:02 GMT-0500 (Central Daylight Time),601815.8999999762,020_y_f_d_a.png,I,m,1664,13,3,2675.5,599140.3999999762,8014,VNB,B,11
10,test,3,0.0,2-Back,1,m,Wed Sep 10 2025 15:27:02 GMT-0500 (Central Daylight Time),604131.3000000119,005_o_f_n_a.png,I,m,1300,14,3,2305.800000011921,601825.5,8014,VNB,B,12
10,test,3,0.0,2-Back,0,z,Wed Sep 10 2025 15:27:02 GMT-0500 (Central Daylight Time),606846.3999999762,004_o_m_d_a.png,I,m,1692,15,3,2709.199999988079,604137.1999999881,8014,VNB,B,13
11,test,3,1.0,2-Back,1,m,Wed Sep 10 2025 15:27:02 GMT-0500 (Central Daylight Time),609645.1999999881,011_m_f_h_a.png,I,m,1772,16,3,2789.800000011921,606855.3999999762,8014,VNB,B,14
11,test,3,0.0,2-Back,0,m,Wed Sep 10 2025 15:27:02 GMT-0500 (Central Daylight Time),611844.8999999762,007_m_m_n_a.png,I,z,1172,17,3,2191.199999988079,609653.6999999881,8014,VNB,B,15
12,test,3,0.0,2-Back,1,z,Wed Sep 10 2025 15:27:02 GMT-0500 (Central Daylight Time),613943.0999999642,016_y_m_h_a.png,I,z,1075,18,3,2089.0,611854.0999999642,8014,VNB,B,16
0,test,4,0.0,2-Back,,,Wed Sep 10 2025 15:27:02 GMT-0500 (Central Daylight Time),613943.0999999642,011_m_f_n_a.png,I,space,1268,1,3,2089.0,611854.0999999642,8014,VNB,B,0
0,test,4,0.0,2-Back,,,Wed Sep 10 2025 15:27:02 GMT-0500 (Central Daylight Time),613943.0999999642,004_o_m_n_a.png,I,space,1268,2,3,2089.0,611854.0999999642,8014,VNB,B,0
1,test,4,1.0,2-Back,1,m,Wed Sep 10 2025 15:27:02 GMT-0500 (Central Daylight Time),622374.8999999762,016_y_m_h_a.png,I,m,953,3,3,1975.0,620399.8999999762,8014,VNB,B,1
2,test,4,1.0,2-Back,1,m,Wed Sep 10 2025 15:27:02 GMT-0500 (Central Daylight Time),624507.3999999762,005_o_f_d_a.png,I,m,1106,4,3,2124.800000011921,622382.5999999642,8014,VNB,B,2
2,test,4,0.0,2-Back,0,z,Wed Sep 10 2025 15:27:02 GMT-0500 (Central Daylight Time),626724.5999999642,004_o_m_h_a.png,I,m,1199,5,3,2207.399999976158,624517.1999999881,8014,VNB,B,3
2,test,4,0.0,2-Back,0,m,Wed Sep 10 2025 15:27:02 GMT-0500 (Central Daylight Time),629039.3999999762,007_m_m_n_a.png,I,z,1293,6,3,2306.699999988079,626732.6999999881,8014,VNB,B,4
2,test,4,0.0,2-Back,0,m,Wed Sep 10 2025 15:27:02 GMT-0500 (Central Daylight Time),631755.0999999642,011_m_f_d_a.png,I,z,1689,7,3,2707.7999999523163,629047.3000000119,8014,VNB,B,5
3,test,4,0.0,2-Back,1,z,Wed Sep 10 2025 15:27:02 GMT-0500 (Central Daylight Time),634237.8999999762,020_y_f_n_a.png,I,z,1464,8,3,2474.300000011921,631763.5999999642,8014,VNB,B,6
4,test,4,1.0,2-Back,1,m,Wed Sep 10 2025 15:27:02 GMT-0500 (Central Daylight Time),636503.8000000119,005_o_f_h_a.png,I,m,1245,9,3,2258.2000000476837,634245.5999999642,8014,VNB,B,7
5,test,4,0.0,2-Back,1,m,Wed Sep 10 2025 15:27:02 GMT-0500 (Central Daylight Time),639069.5,007_m_m_h_a.png,I,m,1536,10,3,2557.400000035763,636512.0999999642,8014,VNB,B,8
6,test,4,0.0,2-Back,1,m,Wed Sep 10 2025 15:27:02 GMT-0500 (Central Daylight Time),641202.3000000119,020_y_f_d_a.png,I,m,1108,11,3,2124.600000023842,639077.6999999881,8014,VNB,B,9
6,test,4,0.0,2-Back,0,m,Wed Sep 10 2025 15:27:02 GMT-0500 (Central Daylight Time),643250.5,016_y_m_n_a.png,I,z,1022,12,3,2039.9000000357628,641210.5999999642,8014,VNB,B,10
6,test,4,0.0,2-Back,0,z,Wed Sep 10 2025 15:27:02 GMT-0500 (Central Daylight Time),645150.6999999881,004_o_m_d_a.png,I,m,880,13,3,1891.6000000238419,643259.0999999642,8014,VNB,B,11
6,test,4,1.0,2-Back,0,m,Wed Sep 10 2025 15:27:02 GMT-0500 (Central Daylight Time),647318.5999999642,011_m_f_h_a.png,I,z,1149,14,3,2159.0,645159.5999999642,8014,VNB,B,12
6,test,4,1.0,2-Back,0,m,Wed Sep 10 2025 15:27:02 GMT-0500 (Central Daylight Time),649867.0,020_y_f_h_a.png,I,z,1517,15,3,2541.600000023842,647325.3999999762,8014,VNB,B,13
7,test,4,0.0,2-Back,1,m,Wed Sep 10 2025 15:27:02 GMT-0500 (Central Daylight Time),652201.8000000119,005_o_f_n_a.png,I,m,1304,16,3,2327.7000000476837,649874.0999999642,8014,VNB,B,14
7,test,4,0.0,2-Back,0,m,Wed Sep 10 2025 15:27:02 GMT-0500 (Central Daylight Time),654847.1999999881,016_y_m_d_a.png,I,z,1619,17,3,2641.199999988079,652206.0,8014,VNB,B,15
7,test,4,1.0,2-Back,0,m,Wed Sep 10 2025 15:27:02 GMT-0500 (Central Daylight Time),657147.0999999642,007_m_m_d_a.png,I,z,1275,18,3,2291.5,654855.5999999642,8014,VNB,B,16
0,test,5,1.0,2-Back,,,Wed Sep 10 2025 15:27:02 GMT-0500 (Central Daylight Time),657147.0999999642,020_y_f_d_a.png,I,space,5464,1,3,2291.5,654855.5999999642,8014,VNB,B,0
0,test,5,1.0,2-Back,,,Wed Sep 10 2025 15:27:02 GMT-0500 (Central Daylight Time),657147.0999999642,005_o_f_h_a.png,I,space,5464,2,3,2291.5,654855.5999999642,8014,VNB,B,0
1,test,5,1.0,2-Back,1,z,Wed Sep 10 2025 15:27:02 GMT-0500 (Central Daylight Time),670308.8000000119,004_o_m_d_a.png,I,z,1448,3,3,2470.300000011921,667838.5,8014,VNB,B,1
2,test,5,1.0,2-Back,1,m,Wed Sep 10 2025 15:27:02 GMT-0500 (Central Daylight Time),672474.6999999881,011_m_f_n_a.png,I,m,1140,4,3,2156.699999988079,670318.0,8014,VNB,B,2
3,test,5,0.0,2-Back,1,m,Wed Sep 10 2025 15:27:02 GMT-0500 (Central Daylight Time),674792.1999999881,007_m_m_h_a.png,I,m,1286,5,3,2308.600000023842,672483.5999999642,8014,VNB,B,3
4,test,5,0.0,2-Back,1,z,Wed Sep 10 2025 15:27:02 GMT-0500 (Central Daylight Time),676891.1999999881,020_y_f_n_a.png,I,z,1074,6,3,2092.5,674798.6999999881,8014,VNB,B,4
4,test,5,0.0,2-Back,0,m,Wed Sep 10 2025 15:27:02 GMT-0500 (Central Daylight Time),679338.3000000119,005_o_f_d_a.png,I,z,1421,7,3,2440.2000000476837,676898.0999999642,8014,VNB,B,5
4,test,5,0.0,2-Back,0,m,Wed Sep 10 2025 15:27:02 GMT-0500 (Central Daylight Time),681323.0999999642,004_o_m_h_a.png,I,z,950,8,3,1982.0999999642372,679341.0,8014,VNB,B,6
4,test,5,1.0,2-Back,0,z,Wed Sep 10 2025 15:27:02 GMT-0500 (Central Daylight Time),683390.0999999642,011_m_f_d_a.png,I,m,1033,9,3,2057.2999999523163,681332.8000000119,8014,VNB,B,7
4,test,5,0.0,2-Back,0,m,Wed Sep 10 2025 15:27:02 GMT-0500 (Central Daylight Time),685638.6999999881,016_y_m_n_a.png,I,z,1221,10,3,2240.399999976158,683398.3000000119,8014,VNB,B,8
5,test,5,0.0,2-Back,1,m,Wed Sep 10 2025 15:27:02 GMT-0500 (Central Daylight Time),687904.5,007_m_m_n_a.png,I,m,1237,11,3,2256.800000011921,685647.6999999881,8014,VNB,B,9
5,test,5,0.0,2-Back,0,m,Wed Sep 10 2025 15:27:02 GMT-0500 (Central Daylight Time),689752.5999999642,020_y_f_h_a.png,I,z,824,12,3,1838.699999988079,687913.8999999762,8014,VNB,B,10
6,test,5,0.0,2-Back,1,m,Wed Sep 10 2025 15:27:02 GMT-0500 (Central Daylight Time),691970.3000000119,016_y_m_d_a.png,I,m,1184,13,3,2212.2000000476837,689758.0999999642,8014,VNB,B,11
6,test,5,1.0,2-Back,0,z,Wed Sep 10 2025 15:27:02 GMT-0500 (Central Daylight Time),694435.3000000119,011_m_f_h_a.png,I,m,1442,14,3,2457.800000011921,691977.5,8014,VNB,B,12
6,test,5,0.0,2-Back,0,m,Wed Sep 10 2025 15:27:02 GMT-0500 (Central Daylight Time),696568.8000000119,004_o_m_n_a.png,I,z,1103,15,3,2125.800000011921,694443.0,8014,VNB,B,13
6,test,5,0.0,2-Back,0,m,Wed Sep 10 2025 15:27:02 GMT-0500 (Central Daylight Time),698850.8999999762,007_m_m_d_a.png,I,z,1257,16,3,2278.699999988079,696572.1999999881,8014,VNB,B,14
7,test,5,0.0,2-Back,1,z,Wed Sep 10 2025 15:27:02 GMT-0500 (Central Daylight Time),701001.3000000119,005_o_f_n_a.png,I,z,1120,17,3,2142.800000011921,698858.5,8014,VNB,B,15
8,test,5,1.0,2-Back,1,m,Wed Sep 10 2025 15:27:02 GMT-0500 (Central Daylight Time),703115.0,016_y_m_h_a.png,I,m,1090,18,3,2104.5,701010.5,8014,VNB,B,16
