acc_sum,block,block_c,condition,correct,correct_response,datetime,endtime,flanker,jitter,project,response,response_test_buffer_response,response_test_target_response,response_time,response_time_test_buffer_response,response_time_test_target_response,row_sel,session_number,start_end,starttime,subject_id,target,task,task_vers,time_test_buffer,time_test_buffer_response,time_test_constants,time_test_flanker,time_test_jitter,time_test_logger,time_test_target,time_test_target_response,time_test_variables,trial
1,prac,1,con,1,m,Mon Dec 01 2025 10:13:23 GMT-0500 (Eastern Standard Time),267225.09999990463,bronze,800,I,m,,,889,,,9,1,2990.9000000953674,264234.19999980927,9038,bronze,NF,C,,,,,,,,,,1
2,prac,1,inc,1,m,Mon Dec 01 2025 10:13:23 GMT-0500 (Eastern Standard Time),270058.0,pear,900,I,m,,,621,,,14,1,2823.100000143051,267234.89999985695,9038,iron,NF,C,,,,,,,,,,2
3,prac,1,con,1,m,Mon Dec 01 2025 10:13:23 GMT-0500 (Eastern Standard Time),272991.39999985695,zinc,1000,I,m,,,631,,,15,1,2925.0999999046326,270066.2999999523,9038,zinc,NF,C,,,,,,,,,,3
4,prac,1,con,1,z,Mon Dec 01 2025 10:13:23 GMT-0500 (Eastern Standard Time),275724.69999980927,kiwi,1000,I,z,,,420,,,7,1,2722.5999999046326,273002.09999990463,9038,kiwi,NF,C,,,,,,,,,,4
4,prac,1,inc,0,z,Mon Dec 01 2025 10:13:23 GMT-0500 (Eastern Standard Time),278474.7999999523,copper,900,I,m,,,536,,,2,1,2738.100000143051,275736.69999980927,9038,cherry,NF,C,,,,,,,,,,5
5,prac,1,inc,1,m,Mon Dec 01 2025 10:13:23 GMT-0500 (Eastern Standard Time),281408.0,plum,1100,I,m,,,530,,,16,1,2924.0,278484.0,9038,lead,NF,C,,,,,,,,,,6
6,prac,1,con,1,m,Mon Dec 01 2025 10:13:23 GMT-0500 (Eastern Standard Time),284291.39999985695,silver,1000,I,m,,,578,,,11,1,2873.0,281418.39999985695,9038,silver,NF,C,,,,,,,,,,7
7,prac,1,con,1,z,Mon Dec 01 2025 10:13:23 GMT-0500 (Eastern Standard Time),287008.0,lime,800,I,z,,,582,,,5,1,2695.2000000476837,284312.7999999523,9038,lime,NF,C,,,,,,,,,,8
8,prac,1,con,1,m,Mon Dec 01 2025 10:13:23 GMT-0500 (Eastern Standard Time),289758.09999990463,gold,800,I,m,,,633,,,13,1,2739.9000000953674,287018.19999980927,9038,gold,NF,C,,,,,,,,,,9
9,prac,1,inc,1,z,Mon Dec 01 2025 10:13:23 GMT-0500 (Eastern Standard Time),292574.69999980927,iron,900,I,z,,,599,,,6,1,2805.5999999046326,289769.09999990463,9038,pear,NF,C,,,,,,,,,,10
10,prac,1,inc,1,m,Mon Dec 01 2025 10:13:23 GMT-0500 (Eastern Standard Time),295324.69999980927,cherry,900,I,m,,,534,,,10,1,2740.199999809265,292584.5,9038,copper,NF,C,,,,,,,,,,11
11,prac,1,inc,1,m,Mon Dec 01 2025 10:13:23 GMT-0500 (Eastern Standard Time),298324.69999980927,raisin,1100,I,m,,,594,,,12,1,2988.2999999523163,295336.39999985695,9038,cobalt,NF,C,,,,,,,,,,12
12,prac,1,con,1,z,Mon Dec 01 2025 10:13:23 GMT-0500 (Eastern Standard Time),301024.59999990463,orange,1000,I,z,,,396,,,3,1,2690.0999999046326,298334.5,9038,orange,NF,C,,,,,,,,,,13
13,prac,1,inc,1,z,Mon Dec 01 2025 10:13:23 GMT-0500 (Eastern Standard Time),304008.0,lead,1100,I,z,,,573,,,8,1,2974.2000000476837,301033.7999999523,9038,plum,NF,C,,,,,,,,,,14
14,prac,1,con,1,z,Mon Dec 01 2025 10:13:23 GMT-0500 (Eastern Standard Time),306691.39999985695,banana,800,I,z,,,577,,,1,1,2673.899999856949,304017.5,9038,banana,NF,C,,,,,,,,,,15
15,prac,1,inc,1,z,Mon Dec 01 2025 10:13:23 GMT-0500 (Eastern Standard Time),309674.7999999523,cobalt,1100,I,z,,,572,,,4,1,2973.7000000476837,306701.09999990463,9038,raisin,NF,C,,,,,,,,,,16
1,test,1,con,1,m,Mon Dec 01 2025 10:13:23 GMT-0500 (Eastern Standard Time),356808.09999990463,lead,800,I,m,m,None,491,291.0,200.0,121,1,1825.5999999046326,354982.5,9038,lead,NF,C,348171,348171,346645,347454,346645,348470,347970,347970,348470,1
2,test,1,con,1,m,Mon Dec 01 2025 10:13:23 GMT-0500 (Eastern Standard Time),358841.09999990463,bronze,800,I,m,m,None,689,490.0,199.0,65,1,2023.2000000476837,356817.89999985695,9038,bronze,NF,C,350004,350004,348480,349287,348480,350503,349804,349804,350503,2
3,test,1,inc,1,z,Mon Dec 01 2025 10:13:23 GMT-0500 (Eastern Standard Time),361024.5,lead,1100,I,z,z,None,532,333.0,199.0,64,1,2173.600000143051,358850.89999985695,9038,plum,NF,C,352337,352337,350513,351620,350513,352687,352137,352137,352687,3
4,test,1,inc,1,z,Mon Dec 01 2025 10:13:23 GMT-0500 (Eastern Standard Time),363040.89999985695,iron,900,I,z,z,None,582,382.0,200.0,62,1,2006.8999998569489,361034.0,9038,plum,NF,C,354320,354320,352696,353604,352696,354703,354120,354120,354703,4
5,test,1,con,1,z,Mon Dec 01 2025 10:13:23 GMT-0500 (Eastern Standard Time),364824.59999990463,banana,800,I,z,z,None,440,241.0,199.0,1,1,1776.2000000476837,363048.39999985695,9038,banana,NF,C,356237,356237,354710,355520,354711,356487,356037,356037,356487,5
6,test,1,inc,1,z,Mon Dec 01 2025 10:13:23 GMT-0500 (Eastern Standard Time),366824.5,copper,900,I,z,z,None,558,358.0,200.0,30,1,1990.9000000953674,364833.59999990463,9038,raisin,NF,C,358120,358121,356496,357404,356496,358487,357920,357920,358486,6
7,test,1,con,1,z,Mon Dec 01 2025 10:13:23 GMT-0500 (Eastern Standard Time),368607.89999985695,raisin,800,I,z,z,None,434,234.0,200.0,25,1,1774.0999999046326,366833.7999999523,9038,raisin,NF,C,360020,360020,358496,359304,358496,360270,359820,359820,360270,7
8,test,1,inc,1,z,Mon Dec 01 2025 10:13:23 GMT-0500 (Eastern Standard Time),370641.19999980927,silver,1000,I,z,z,None,482,283.0,199.0,15,1,2024.5999999046326,368616.59999990463,9038,cherry,NF,C,362004,362004,360279,361287,360279,362303,361804,361804,362303,8
9,test,1,con,1,m,Mon Dec 01 2025 10:13:23 GMT-0500 (Eastern Standard Time),372407.7999999523,gold,800,I,m,m,None,424,225.0,199.0,97,1,1757.0,370650.7999999523,9038,gold,NF,C,363837,363837,362313,363120,362313,364070,363637,363637,364070,9
10,test,1,con,1,m,Mon Dec 01 2025 10:13:23 GMT-0500 (Eastern Standard Time),374207.7999999523,cobalt,900,I,m,m,None,349,150.0,199.0,90,1,1789.9000000953674,372417.89999985695,9038,cobalt,NF,C,365704,365704,364080,364987,364080,365870,365504,365504,365870,10
11,test,1,con,1,m,Mon Dec 01 2025 10:13:23 GMT-0500 (Eastern Standard Time),375957.89999985695,zinc,800,I,m,m,None,410,211.0,199.0,113,1,1740.8999998569489,374217.0,9038,zinc,NF,C,367404,367404,365879,366687,365879,367620,367204,367204,367620,11
11,test,1,inc,0,z,Mon Dec 01 2025 10:13:23 GMT-0500 (Eastern Standard Time),377674.5,bronze,800,I,m,m,None,372,173.0,199.0,5,1,1707.7000000476837,375966.7999999523,9038,banana,NF,C,369154,369154,367629,368437,367629,369337,368954,368954,369337,12
12,test,1,inc,1,z,Mon Dec 01 2025 10:13:23 GMT-0500 (Eastern Standard Time),379791.09999990463,zinc,1000,I,z,z,None,568,368.0,200.0,39,1,2108.2999999523163,377682.7999999523,9038,lime,NF,C,371070,371070,369345,370354,369345,371453,370870,370870,371453,13
12,test,1,inc,0,m,Mon Dec 01 2025 10:13:23 GMT-0500 (Eastern Standard Time),381641.09999990463,cherry,900,I,z,z,None,406,207.0,199.0,78,1,1841.5,379799.59999990463,9038,copper,NF,C,373087,373087,371462,372370,371462,373303,372887,372887,373303,14
13,test,1,con,1,m,Mon Dec 01 2025 10:13:23 GMT-0500 (Eastern Standard Time),383574.59999990463,gold,1000,I,m,m,None,392,193.0,199.0,99,1,1923.7999999523163,381650.7999999523,9038,gold,NF,C,375037,375037,373313,374320,373313,375237,374837,374837,375237,15
14,test,1,inc,1,z,Mon Dec 01 2025 10:13:23 GMT-0500 (Eastern Standard Time),385524.5,silver,1000,I,z,z,None,411,211.0,200.0,23,1,1941.1000001430511,383583.39999985695,9038,orange,NF,C,376970,376971,375245,376254,375246,377187,376770,376770,377187,16
15,test,1,con,1,m,Mon Dec 01 2025 10:13:23 GMT-0500 (Eastern Standard Time),387457.59999990463,bronze,1000,I,m,m,None,398,198.0,200.0,67,1,1924.9000000953674,385532.69999980927,9038,bronze,NF,C,378920,378920,377195,378204,377195,379120,378720,378720,379120,17
16,test,1,con,1,m,Mon Dec 01 2025 10:13:23 GMT-0500 (Eastern Standard Time),389457.5,zinc,900,I,m,m,None,564,365.0,199.0,114,1,1991.5,387466.0,9038,zinc,NF,C,380754,380754,379128,380037,379128,381120,380554,380554,381120,18
16,test,1,inc,0,z,Mon Dec 01 2025 10:13:23 GMT-0500 (Eastern Standard Time),391357.7999999523,copper,900,I,m,m,None,451,252.0,199.0,22,1,1891.0,389466.7999999523,9038,orange,NF,C,382754,382754,381129,382037,381129,383020,382554,382554,383020,19
17,test,1,con,1,m,Mon Dec 01 2025 10:13:23 GMT-0500 (Eastern Standard Time),393657.89999985695,silver,1100,I,m,m,None,655,456.0,199.0,84,1,2289.899999856949,391368.0,9038,silver,NF,C,384854,384854,383030,384137,383030,385320,384654,384654,385320,20
18,test,1,inc,1,z,Mon Dec 01 2025 10:13:23 GMT-0500 (Eastern Standard Time),395691.19999980927,cobalt,1100,I,z,z,None,387,188.0,199.0,8,1,2022.0,393669.19999980927,9038,banana,NF,C,387154,387154,385331,386437,385332,387353,386954,386954,387353,21
19,test,1,inc,1,m,Mon Dec 01 2025 10:13:23 GMT-0500 (Eastern Standard Time),397841.0,raisin,1100,I,m,m,None,514,315.0,199.0,80,1,2140.7000000476837,395700.2999999523,9038,copper,NF,C,389187,389187,387362,388470,387363,389503,388987,388987,389503,22
20,test,1,con,1,m,Mon Dec 01 2025 10:13:23 GMT-0500 (Eastern Standard Time),400007.89999985695,zinc,1100,I,m,m,None,525,326.0,199.0,116,1,2159.399999856949,397848.5,9038,zinc,NF,C,391337,391337,389511,390620,389511,391670,391137,391137,391670,23
21,test,1,con,1,z,Mon Dec 01 2025 10:13:23 GMT-0500 (Eastern Standard Time),401857.59999990463,orange,900,I,z,z,None,413,214.0,199.0,18,1,1841.4000000953674,400016.19999980927,9038,orange,NF,C,393304,393304,391678,392587,391678,393520,393104,393104,393520,24
22,test,1,con,1,z,Mon Dec 01 2025 10:13:23 GMT-0500 (Eastern Standard Time),403907.69999980927,kiwi,1100,I,z,z,None,411,212.0,199.0,52,1,2041.1999998092651,401866.5,9038,kiwi,NF,C,395354,395354,393529,394637,393529,395570,395154,395154,395570,25
23,test,1,inc,1,m,Mon Dec 01 2025 10:13:23 GMT-0500 (Eastern Standard Time),405807.89999985695,banana,800,I,m,m,None,549,350.0,199.0,85,1,1891.0999999046326,403916.7999999523,9038,silver,NF,C,397104,397104,395579,396387,395579,397470,396904,396904,397470,26
24,test,1,con,1,z,Mon Dec 01 2025 10:13:23 GMT-0500 (Eastern Standard Time),407691.19999980927,pear,900,I,z,z,None,437,238.0,199.0,42,1,1873.6999998092651,405817.5,9038,pear,NF,C,399104,399104,397480,398387,397480,399353,398904,398904,399353,27
25,test,1,inc,1,m,Mon Dec 01 2025 10:13:23 GMT-0500 (Eastern Standard Time),409574.5,lime,800,I,m,m,None,542,343.0,199.0,117,1,1874.8000001907349,407699.69999980927,9038,zinc,NF,C,400887,400887,399362,400170,399362,401237,400687,400687,401237,28
26,test,1,con,1,m,Mon Dec 01 2025 10:13:23 GMT-0500 (Eastern Standard Time),411591.19999980927,silver,1000,I,m,m,None,477,277.0,200.0,83,1,2006.0999999046326,409585.09999990463,9038,silver,NF,C,402970,402970,401247,402254,401247,403253,402770,402770,403253,29
27,test,1,inc,1,z,Mon Dec 01 2025 10:13:23 GMT-0500 (Eastern Standard Time),413757.7999999523,silver,1000,I,z,z,None,618,419.0,199.0,7,1,2156.7000000476837,411601.09999990463,9038,banana,NF,C,404987,404987,403263,404270,403263,405420,404787,404787,405420,30
28,test,1,inc,1,m,Mon Dec 01 2025 10:13:23 GMT-0500 (Eastern Standard Time),415874.19999980927,kiwi,1000,I,m,m,None,579,380.0,199.0,103,1,2107.399999856949,413766.7999999523,9038,gold,NF,C,407154,407154,405429,406437,405429,407536,406954,406954,407536,31
29,test,1,inc,1,m,Mon Dec 01 2025 10:13:23 GMT-0500 (Eastern Standard Time),417991.09999990463,raisin,1100,I,m,m,None,476,276.0,200.0,88,1,2105.7000000476837,415885.39999985695,9038,silver,NF,C,409370,409370,407547,408653,407548,409653,409170,409170,409653,32
30,test,1,inc,1,m,Mon Dec 01 2025 10:13:23 GMT-0500 (Eastern Standard Time),420041.0,lime,800,I,m,m,None,706,507.0,199.0,101,1,2035.6000001430511,418005.39999985695,9038,gold,NF,C,411187,411187,409667,410470,409668,411703,410987,410987,411703,33
31,test,1,con,1,m,Mon Dec 01 2025 10:13:23 GMT-0500 (Eastern Standard Time),422174.39999985695,iron,1000,I,m,m,None,585,386.0,199.0,107,1,2123.5999999046326,420050.7999999523,9038,iron,NF,C,413437,413437,411713,412720,411713,413837,413237,413237,413836,34
32,test,1,con,1,m,Mon Dec 01 2025 10:13:23 GMT-0500 (Eastern Standard Time),424091.09999990463,bronze,900,I,m,m,None,472,272.0,200.0,66,1,1905.2999999523163,422185.7999999523,9038,bronze,NF,C,415470,415470,413848,414754,413848,415753,415270,415270,415753,35
33,test,1,con,1,z,Mon Dec 01 2025 10:13:23 GMT-0500 (Eastern Standard Time),426124.39999985695,banana,1100,I,z,z,None,386,187.0,199.0,4,1,2024.2999999523163,424100.09999990463,9038,banana,NF,C,417587,417587,415762,416870,415763,417787,417387,417387,417786,36
34,test,1,inc,1,m,Mon Dec 01 2025 10:13:23 GMT-0500 (Eastern Standard Time),428257.59999990463,raisin,1100,I,m,m,None,498,298.0,200.0,72,1,2121.7000000476837,426135.89999985695,9038,bronze,NF,C,419620,419620,417798,418904,417798,419920,419420,419420,419920,37
35,test,1,con,1,z,Mon Dec 01 2025 10:13:23 GMT-0500 (Eastern Standard Time),430091.09999990463,cherry,900,I,z,z,None,387,188.0,199.0,10,1,1822.5,428268.59999990463,9038,cherry,NF,C,421554,421554,419931,420837,419931,421753,421354,421354,421753,38
36,test,1,con,1,z,Mon Dec 01 2025 10:13:23 GMT-0500 (Eastern Standard Time),432091.09999990463,plum,1000,I,z,z,None,454,255.0,199.0,59,1,1989.5999999046326,430101.5,9038,plum,NF,C,423487,423487,421764,422770,421764,423753,423287,423287,423753,39
37,test,1,inc,1,m,Mon Dec 01 2025 10:13:23 GMT-0500 (Eastern Standard Time),434057.7999999523,kiwi,1000,I,m,m,None,423,224.0,199.0,119,1,1956.1000001430511,432101.69999980927,9038,zinc,NF,C,425487,425487,423764,424770,423764,425720,425287,425287,425720,40
38,test,1,con,1,z,Mon Dec 01 2025 10:13:23 GMT-0500 (Eastern Standard Time),435941.0,raisin,900,I,z,z,None,443,244.0,199.0,26,1,1872.3000001907349,434068.69999980927,9038,raisin,NF,C,427354,427354,425731,426637,425731,427603,427153,427154,427603,41
39,test,1,inc,1,m,Mon Dec 01 2025 10:13:23 GMT-0500 (Eastern Standard Time),437724.5,banana,800,I,m,m,None,436,237.0,199.0,77,1,1773.2000000476837,435951.2999999523,9038,copper,NF,C,429137,429137,427613,428420,427614,429387,428937,428937,429386,42
40,test,1,con,1,z,Mon Dec 01 2025 10:13:23 GMT-0500 (Eastern Standard Time),439624.39999985695,pear,1000,I,z,z,None,358,158.0,200.0,43,1,1888.7999999523163,437735.59999990463,9038,pear,NF,C,431120,431120,429398,430403,429398,431287,430920,430920,431286,43
41,test,1,con,1,z,Mon Dec 01 2025 10:13:23 GMT-0500 (Eastern Standard Time),441357.69999980927,cherry,800,I,z,z,None,386,186.0,200.0,9,1,1722.0999999046326,439635.59999990463,9038,cherry,NF,C,432820,432820,431298,432103,431298,433020,432620,432620,433020,44
42,test,1,con,1,m,Mon Dec 01 2025 10:13:23 GMT-0500 (Eastern Standard Time),443607.7999999523,bronze,1100,I,m,m,None,607,408.0,199.0,68,1,2241.2000000476837,441366.59999990463,9038,bronze,NF,C,434854,434854,433029,434137,433029,435270,434654,434654,435270,45
43,test,1,inc,1,m,Mon Dec 01 2025 10:13:23 GMT-0500 (Eastern Standard Time),445624.39999985695,kiwi,1000,I,m,m,None,474,275.0,199.0,111,1,2007.2999999523163,443617.09999990463,9038,iron,NF,C,437004,437004,435279,436287,435280,437287,436804,436804,437286,46
44,test,1,inc,1,z,Mon Dec 01 2025 10:13:23 GMT-0500 (Eastern Standard Time),447341.19999980927,gold,800,I,z,z,None,369,169.0,200.0,61,1,1708.0999999046326,445633.09999990463,9038,plum,NF,C,438820,438821,437295,438104,437295,439003,438620,438620,439003,47
45,test,1,inc,1,z,Mon Dec 01 2025 10:13:23 GMT-0500 (Eastern Standard Time),449207.7999999523,iron,900,I,z,z,None,424,225.0,199.0,38,1,1857.4000000953674,447350.39999985695,9038,lime,NF,C,440637,440637,439012,439920,439013,440870,440437,440437,440870,48
46,test,1,con,1,m,Mon Dec 01 2025 10:13:23 GMT-0500 (Eastern Standard Time),451074.19999980927,copper,900,I,m,m,None,429,230.0,199.0,74,1,1856.6999998092651,449217.5,9038,copper,NF,C,442504,442504,440880,441787,440880,442736,442304,442304,442736,49
47,test,1,inc,1,m,Mon Dec 01 2025 10:13:23 GMT-0500 (Eastern Standard Time),453057.5,orange,1000,I,m,m,None,448,248.0,200.0,71,1,1972.5,451085.0,9038,bronze,NF,C,444470,444470,442747,443754,442747,444720,444270,444270,444719,50
48,test,1,inc,1,m,Mon Dec 01 2025 10:13:23 GMT-0500 (Eastern Standard Time),455174.5,plum,1100,I,m,m,None,475,276.0,199.0,128,1,2108.300000190735,453066.19999980927,9038,lead,NF,C,446553,446554,444728,445837,444729,446837,446353,446354,446836,51
49,test,1,con,1,z,Mon Dec 01 2025 10:13:23 GMT-0500 (Eastern Standard Time),457107.69999980927,kiwi,1000,I,z,z,None,397,197.0,200.0,51,1,1924.5999999046326,455183.09999990463,9038,kiwi,NF,C,448570,448570,446845,447854,446845,448770,448370,448370,448770,52
50,test,1,con,1,z,Mon Dec 01 2025 10:13:23 GMT-0500 (Eastern Standard Time),458891.0,lime,800,I,z,z,None,437,238.0,199.0,33,1,1772.1000001430511,457118.89999985695,9038,lime,NF,C,450304,450304,448781,449587,448781,450553,450104,450104,450553,53
51,test,1,con,1,m,Mon Dec 01 2025 10:13:23 GMT-0500 (Eastern Standard Time),460841.09999990463,lead,900,I,m,m,None,506,307.0,199.0,122,1,1941.5999999046326,458899.5,9038,lead,NF,C,452187,452187,450561,451470,450562,452503,451987,451987,452503,54
52,test,1,inc,1,m,Mon Dec 01 2025 10:13:23 GMT-0500 (Eastern Standard Time),462974.2999999523,pear,900,I,m,m,None,684,485.0,199.0,126,1,2122.0,460852.2999999523,9038,lead,NF,C,454137,454137,452514,453420,452515,454637,453937,453937,454636,55
53,test,1,inc,1,m,Mon Dec 01 2025 10:13:23 GMT-0500 (Eastern Standard Time),464891.0,pear,900,I,m,m,None,472,273.0,199.0,102,1,1907.0,462984.0,9038,gold,NF,C,456269,456269,454646,455553,454646,456553,456070,456070,456553,56
54,test,1,inc,1,z,Mon Dec 01 2025 10:13:23 GMT-0500 (Eastern Standard Time),466624.59999990463,gold,800,I,z,z,None,398,199.0,199.0,45,1,1724.9000000953674,464899.69999980927,9038,pear,NF,C,458087,458087,456562,457370,456562,458287,457887,457887,458287,57
54,test,1,con,0,z,Mon Dec 01 2025 10:13:23 GMT-0500 (Eastern Standard Time),468690.7999999523,plum,1100,I,m,m,None,431,231.0,200.0,60,1,2055.7000000476837,466635.09999990463,9038,plum,NF,C,460120,460120,458297,459404,458298,460353,459920,459920,460353,58
54,test,1,con,0,z,Mon Dec 01 2025 10:13:23 GMT-0500 (Eastern Standard Time),470691.0,banana,900,I,m,m,None,562,363.0,199.0,2,1,1989.6000001430511,468701.39999985695,9038,banana,NF,C,461987,461987,460363,461270,460364,462353,461787,461787,462353,59
55,test,1,con,1,z,Mon Dec 01 2025 10:13:23 GMT-0500 (Eastern Standard Time),472624.39999985695,orange,800,I,z,z,None,582,383.0,199.0,17,1,1924.3999998569489,470700.0,9038,orange,NF,C,463887,463887,462362,463170,462362,464286,463687,463687,464286,60
56,test,1,inc,1,m,Mon Dec 01 2025 10:13:23 GMT-0500 (Eastern Standard Time),474641.0,banana,800,I,m,m,None,683,483.0,200.0,69,1,2005.1000001430511,472635.89999985695,9038,bronze,NF,C,465820,465820,464298,465104,464298,466303,465620,465620,466303,61
57,test,1,inc,1,m,Mon Dec 01 2025 10:13:23 GMT-0500 (Eastern Standard Time),476657.5,pear,900,I,m,m,None,580,381.0,199.0,110,1,2008.2000000476837,474649.2999999523,9038,iron,NF,C,467937,467937,466311,467220,466312,468320,467737,467737,468319,62
58,test,1,con,1,z,Mon Dec 01 2025 10:13:23 GMT-0500 (Eastern Standard Time),478507.69999980927,kiwi,900,I,z,z,None,403,204.0,199.0,50,1,1842.6999998092651,476665.0,9038,kiwi,NF,C,469954,469954,468327,469237,468327,470170,469753,469754,470170,63
59,test,1,inc,1,m,Mon Dec 01 2025 10:13:23 GMT-0500 (Eastern Standard Time),480641.09999990463,orange,1000,I,m,m,None,582,383.0,199.0,95,1,2122.7000000476837,478518.39999985695,9038,cobalt,NF,C,471903,471904,470180,471187,470181,472303,471703,471704,472303,64
60,test,1,con,1,z,Mon Dec 01 2025 10:13:23 GMT-0500 (Eastern Standard Time),482674.0,lime,900,I,z,z,None,596,397.0,199.0,34,1,2020.9000000953674,480653.09999990463,9038,lime,NF,C,473937,473937,472315,473220,472315,474336,473737,473737,474336,65
61,test,1,inc,1,z,Mon Dec 01 2025 10:13:23 GMT-0500 (Eastern Standard Time),484724.2999999523,cobalt,1100,I,z,z,None,412,212.0,200.0,16,1,2039.7000000476837,482684.59999990463,9038,cherry,NF,C,476170,476170,474347,475453,474347,476387,475970,475970,476386,66
62,test,1,con,1,z,Mon Dec 01 2025 10:13:23 GMT-0500 (Eastern Standard Time),486757.69999980927,pear,1100,I,z,z,None,394,194.0,200.0,44,1,2023.6999998092651,484734.0,9038,pear,NF,C,478220,478220,476396,477503,476396,478420,478020,478020,478420,67
63,test,1,inc,1,z,Mon Dec 01 2025 10:13:23 GMT-0500 (Eastern Standard Time),488774.39999985695,gold,800,I,z,z,None,675,476.0,199.0,53,1,2005.2999999523163,486769.09999990463,9038,kiwi,NF,C,479953,479954,478431,479237,478431,480436,479753,479754,480436,68
64,test,1,con,1,m,Mon Dec 01 2025 10:13:23 GMT-0500 (Eastern Standard Time),490541.09999990463,cobalt,800,I,m,m,None,419,220.0,199.0,89,1,1756.2999999523163,488784.7999999523,9038,cobalt,NF,C,481970,481970,480447,481253,480447,482203,481770,481770,482203,69
65,test,1,con,1,m,Mon Dec 01 2025 10:13:23 GMT-0500 (Eastern Standard Time),492607.69999980927,copper,1000,I,m,m,None,517,318.0,199.0,75,1,2056.399999856949,490551.2999999523,9038,copper,NF,C,483937,483937,482213,483220,482214,484270,483737,483737,484270,70
66,test,1,inc,1,z,Mon Dec 01 2025 10:13:23 GMT-0500 (Eastern Standard Time),494624.2999999523,zinc,1000,I,z,z,None,466,266.0,200.0,63,1,2004.5,492619.7999999523,9038,plum,NF,C,486004,486004,484282,485287,484282,486286,485803,485803,486286,71
67,test,1,con,1,z,Mon Dec 01 2025 10:13:23 GMT-0500 (Eastern Standard Time),496574.39999985695,raisin,1000,I,z,z,None,402,202.0,200.0,27,1,1940.7999999523163,494633.59999990463,9038,raisin,NF,C,488020,488020,486296,487304,486296,488237,487820,487820,488236,72
68,test,1,con,1,z,Mon Dec 01 2025 10:13:23 GMT-0500 (Eastern Standard Time),498574.2999999523,plum,800,I,z,z,None,652,452.0,200.0,57,1,1990.2999999523163,496584.0,9038,plum,NF,C,489770,489770,488246,489053,488246,490236,489570,489570,490236,73
69,test,1,con,1,z,Mon Dec 01 2025 10:13:23 GMT-0500 (Eastern Standard Time),500757.69999980927,lime,1100,I,z,z,None,544,344.0,200.0,36,1,2175.199999809265,498582.5,9038,lime,NF,C,492070,492070,490245,491353,490245,492420,491870,491870,492420,74
70,test,1,inc,1,m,Mon Dec 01 2025 10:13:23 GMT-0500 (Eastern Standard Time),502890.89999985695,plum,1100,I,m,m,None,489,290.0,199.0,112,1,2124.2000000476837,500766.69999980927,9038,iron,NF,C,494253,494253,492429,493537,492429,494553,494054,494054,494553,75
71,test,1,con,1,m,Mon Dec 01 2025 10:13:23 GMT-0500 (Eastern Standard Time),504941.0,lead,1000,I,m,m,None,503,304.0,199.0,123,1,2040.3000001907349,502900.69999980927,9038,lead,NF,C,496286,496286,494563,495570,494563,496603,496087,496087,496603,76
72,test,1,con,1,m,Mon Dec 01 2025 10:13:23 GMT-0500 (Eastern Standard Time),507124.2999999523,iron,1100,I,m,m,None,544,345.0,199.0,108,1,2174.2000000476837,504950.09999990463,9038,iron,NF,C,498437,498437,496612,497720,496612,498786,498237,498237,498786,77
73,test,1,con,1,z,Mon Dec 01 2025 10:13:23 GMT-0500 (Eastern Standard Time),509191.0,raisin,1100,I,z,z,None,426,226.0,200.0,28,1,2055.5,507135.5,9038,raisin,NF,C,500620,500620,498798,499903,498798,500853,500420,500420,500853,78
74,test,1,con,1,m,Mon Dec 01 2025 10:13:23 GMT-0500 (Eastern Standard Time),511191.09999990463,copper,1100,I,m,m,None,358,159.0,199.0,76,1,1991.0999999046326,509200.0,9038,copper,NF,C,502687,502687,500862,501970,500862,502853,502487,502487,502853,79
75,test,1,con,1,z,Mon Dec 01 2025 10:13:23 GMT-0500 (Eastern Standard Time),513107.69999980927,plum,900,I,z,z,None,479,280.0,199.0,58,1,1905.5,511202.19999980927,9038,plum,NF,C,504487,504487,502864,503770,502864,504770,504287,504287,504770,80
76,test,1,inc,1,m,Mon Dec 01 2025 10:13:23 GMT-0500 (Eastern Standard Time),515041.09999990463,pear,900,I,m,m,None,483,283.0,200.0,118,1,1922.0999999046326,513119.0,9038,zinc,NF,C,506403,506404,504781,505687,504781,506703,506203,506203,506703,81
77,test,1,con,1,m,Mon Dec 01 2025 10:13:23 GMT-0500 (Eastern Standard Time),517324.39999985695,lead,1100,I,m,m,None,636,437.0,199.0,124,1,2274.5999999046326,515049.7999999523,9038,lead,NF,C,508537,508537,506712,507820,506712,508986,508337,508337,508986,82
78,test,1,con,1,z,Mon Dec 01 2025 10:13:23 GMT-0500 (Eastern Standard Time),519241.0,lime,1000,I,z,z,None,374,174.0,200.0,35,1,1902.9000000953674,517338.09999990463,9038,lime,NF,C,510720,510720,509000,510003,509001,510903,510520,510520,510903,83
78,test,1,inc,0,z,Mon Dec 01 2025 10:13:23 GMT-0500 (Eastern Standard Time),521041.09999990463,bronze,800,I,m,m,None,449,250.0,199.0,29,1,1789.2999999523163,519251.7999999523,9038,raisin,NF,C,512437,512437,510914,511720,510914,512703,512237,512237,512703,84
79,test,1,con,1,m,Mon Dec 01 2025 10:13:23 GMT-0500 (Eastern Standard Time),523024.2999999523,copper,800,I,m,m,None,632,433.0,199.0,73,1,1972.0,521052.2999999523,9038,copper,NF,C,514237,514237,512714,513520,512715,514686,514037,514037,514686,85
80,test,1,con,1,m,Mon Dec 01 2025 10:13:23 GMT-0500 (Eastern Standard Time),525041.0999999046,iron,900,I,m,m,None,582,383.0,199.0,106,1,2006.0999999046326,523035.0,9038,iron,NF,C,516320,516320,514697,515603,514697,516703,516120,516120,516703,86
81,test,1,inc,1,z,Mon Dec 01 2025 10:13:23 GMT-0500 (Eastern Standard Time),526924.399999857,bronze,800,I,z,z,None,536,337.0,199.0,21,1,1873.0,525051.399999857,9038,orange,NF,C,518237,518237,516713,517520,516714,518586,518037,518037,518586,87
82,test,1,con,1,m,Mon Dec 01 2025 10:13:23 GMT-0500 (Eastern Standard Time),529124.2999999523,zinc,1000,I,m,m,None,662,462.0,200.0,115,1,2188.9000000953674,526935.399999857,9038,zinc,NF,C,520320,520320,518597,519603,518598,520786,520120,520120,520786,88
83,test,1,inc,1,m,Mon Dec 01 2025 10:13:23 GMT-0500 (Eastern Standard Time),531023.7999999523,lime,800,I,m,m,None,566,366.0,200.0,125,1,1888.7000000476837,529135.0999999046,9038,lead,NF,C,522320,522320,520797,521603,520797,522686,522120,522120,522686,89
84,test,1,inc,1,m,Mon Dec 01 2025 10:13:23 GMT-0500 (Eastern Standard Time),533141.0,lime,800,I,m,m,None,778,578.0,200.0,109,1,2112.0,531029.0,9038,iron,NF,C,524220,524220,522691,523503,522691,524803,524020,524020,524803,90
85,test,1,inc,1,m,Mon Dec 01 2025 10:13:23 GMT-0500 (Eastern Standard Time),535391.0,raisin,1100,I,m,m,None,600,401.0,199.0,96,1,2239.9000000953674,533151.0999999046,9038,cobalt,NF,C,526637,526637,524813,525920,524814,527053,526437,526437,527053,91
86,test,1,inc,1,z,Mon Dec 01 2025 10:13:23 GMT-0500 (Eastern Standard Time),537424.2999999523,silver,1000,I,z,z,None,482,283.0,199.0,31,1,2024.5,535399.7999999523,9038,raisin,NF,C,528787,528787,527062,528070,527062,529086,528587,528587,529086,92
87,test,1,inc,1,z,Mon Dec 01 2025 10:13:23 GMT-0500 (Eastern Standard Time),539490.7999999523,cobalt,1100,I,z,z,None,430,230.0,200.0,24,1,2055.7999999523163,537435.0,9038,orange,NF,C,530920,530920,529097,530203,529097,531153,530720,530720,531153,93
88,test,1,inc,1,m,Mon Dec 01 2025 10:13:23 GMT-0500 (Eastern Standard Time),541557.6999998093,orange,1000,I,m,m,None,526,327.0,199.0,79,1,2057.5,539500.1999998093,9038,copper,NF,C,532887,532887,531162,532170,531163,533220,532687,532687,533220,94
89,test,1,con,1,z,Mon Dec 01 2025 10:13:23 GMT-0500 (Eastern Standard Time),543357.6999998093,pear,800,I,z,z,None,452,252.0,200.0,41,1,1790.8999998569489,541566.7999999523,9038,pear,NF,C,534754,534754,533229,534037,533229,535020,534553,534553,535020,95
90,test,1,inc,1,m,Mon Dec 01 2025 10:13:23 GMT-0500 (Eastern Standard Time),545407.6999998093,cherry,900,I,m,m,None,601,401.0,200.0,86,1,2041.1999998092651,543366.5,9038,silver,NF,C,536653,536653,535029,535937,535029,537070,536453,536453,537070,96
91,test,1,inc,1,z,Mon Dec 01 2025 10:13:23 GMT-0500 (Eastern Standard Time),547557.6999998093,lead,1100,I,z,z,None,509,310.0,199.0,56,1,2138.199999809265,545419.5,9038,kiwi,NF,C,538904,538904,537082,538187,537082,539220,538704,538704,539220,97
92,test,1,inc,1,m,Mon Dec 01 2025 10:13:23 GMT-0500 (Eastern Standard Time),549707.6999998093,plum,1100,I,m,m,None,504,304.0,200.0,120,1,2140.5999999046326,547567.0999999046,9038,zinc,NF,C,541054,541054,539229,540337,539230,541370,540853,540853,541370,98
93,test,1,con,1,m,Mon Dec 01 2025 10:13:23 GMT-0500 (Eastern Standard Time),551774.399999857,cobalt,1100,I,m,m,None,419,219.0,200.0,92,1,2055.7999999523163,549718.5999999046,9038,cobalt,NF,C,543203,543203,541381,542487,541381,543436,543003,543003,543436,99
94,test,1,inc,1,z,Mon Dec 01 2025 10:13:23 GMT-0500 (Eastern Standard Time),553741.0,iron,900,I,z,z,None,520,320.0,200.0,54,1,1957.1000001430511,551783.899999857,9038,kiwi,NF,C,545070,545070,543446,544353,543446,545403,544870,544870,545403,100
95,test,1,inc,1,m,Mon Dec 01 2025 10:13:23 GMT-0500 (Eastern Standard Time),555674.2999999523,orange,1000,I,m,m,None,388,189.0,199.0,87,1,1923.9000000953674,553750.399999857,9038,silver,NF,C,547137,547137,545412,546420,545413,547336,546937,546937,547336,101
96,test,1,con,1,z,Mon Dec 01 2025 10:13:23 GMT-0500 (Eastern Standard Time),557424.0999999046,kiwi,800,I,z,z,None,400,200.0,200.0,49,1,1739.9000000953674,555684.1999998093,9038,kiwi,NF,C,548870,548870,547346,548153,547347,549086,548670,548670,549086,102
96,test,1,inc,0,z,Mon Dec 01 2025 10:13:23 GMT-0500 (Eastern Standard Time),559424.2999999523,lead,1100,I,m,m,None,351,150.0,201.0,40,1,1988.7999999523163,557435.5,9038,lime,NF,C,550920,550920,549098,550203,549098,551086,550719,550719,551086,103
97,test,1,inc,1,z,Mon Dec 01 2025 10:13:23 GMT-0500 (Eastern Standard Time),561407.6999998093,zinc,1000,I,z,z,None,433,234.0,199.0,47,1,1972.5999999046326,559435.0999999046,9038,pear,NF,C,552820,552820,551097,552103,551097,553070,552620,552620,553070,104
98,test,1,con,1,m,Mon Dec 01 2025 10:13:23 GMT-0500 (Eastern Standard Time),563540.7999999523,gold,1100,I,m,m,None,495,295.0,200.0,100,1,2124.2000000476837,561416.5999999046,9038,gold,NF,C,554903,554903,553079,554187,553079,555203,554703,554703,555203,105
99,test,1,con,1,m,Mon Dec 01 2025 10:13:23 GMT-0500 (Eastern Standard Time),565591.0,gold,900,I,m,m,None,608,409.0,199.0,98,1,2041.0,563550.0,9038,gold,NF,C,556837,556837,555212,556120,555212,557253,556637,556637,557253,106
100,test,1,con,1,m,Mon Dec 01 2025 10:13:23 GMT-0500 (Eastern Standard Time),567591.0,silver,900,I,m,m,None,558,359.0,199.0,82,1,1987.6000001430511,565603.399999857,9038,silver,NF,C,558887,558887,557265,558170,557266,559253,558687,558687,559253,107
101,test,1,inc,1,m,Mon Dec 01 2025 10:13:23 GMT-0500 (Eastern Standard Time),569624.1999998093,kiwi,1000,I,m,m,None,490,291.0,199.0,127,1,2019.0999999046326,567605.0999999046,9038,lead,NF,C,560987,560987,559267,560270,559268,561286,560787,560787,561286,108
102,test,1,inc,1,z,Mon Dec 01 2025 10:13:23 GMT-0500 (Eastern Standard Time),571840.899999857,zinc,1000,I,z,z,None,665,466.0,199.0,55,1,2208.0999999046326,569632.7999999523,9038,kiwi,NF,C,563020,563021,561295,562303,561295,563503,562820,562820,563503,109
103,test,1,inc,1,z,Mon Dec 01 2025 10:13:23 GMT-0500 (Eastern Standard Time),573641.0,bronze,800,I,z,z,None,456,257.0,199.0,13,1,1791.9000000953674,571849.0999999046,9038,cherry,NF,C,565037,565037,563511,564320,563512,565303,564837,564837,565303,110
104,test,1,con,1,z,Mon Dec 01 2025 10:13:23 GMT-0500 (Eastern Standard Time),575590.899999857,cherry,1000,I,z,z,None,408,209.0,199.0,11,1,1940.5,573650.399999857,9038,cherry,NF,C,567037,567037,565312,566320,565313,567253,566837,566837,567253,111
105,test,1,inc,1,m,Mon Dec 01 2025 10:13:23 GMT-0500 (Eastern Standard Time),577457.2999999523,banana,800,I,m,m,None,530,331.0,199.0,93,1,1855.7000000476837,575601.5999999046,9038,cobalt,NF,C,568787,568787,567264,568070,567264,569119,568587,568587,569119,112
106,test,1,inc,1,z,Mon Dec 01 2025 10:13:23 GMT-0500 (Eastern Standard Time),579540.7999999523,lead,1100,I,z,z,None,445,245.0,200.0,48,1,2074.2999999523163,577466.5,9038,pear,NF,C,570953,570953,569129,570237,569129,571203,570753,570753,571203,113
106,test,1,con,0,z,Mon Dec 01 2025 10:13:23 GMT-0500 (Eastern Standard Time),581607.5999999046,cherry,1100,I,m,m,None,425,225.0,200.0,12,1,2057.5,579550.0999999046,9038,cherry,NF,C,573037,573037,571212,572320,571212,573270,572836,572836,573270,114
107,test,1,inc,1,m,Mon Dec 01 2025 10:13:23 GMT-0500 (Eastern Standard Time),583790.7999999523,cherry,900,I,m,m,None,735,535.0,200.0,70,1,2174.7000000476837,581616.0999999046,9038,bronze,NF,C,574903,574903,573278,574187,573278,575453,574703,574703,575453,115
108,test,1,inc,1,z,Mon Dec 01 2025 10:13:23 GMT-0500 (Eastern Standard Time),585657.5,gold,800,I,z,z,None,539,340.0,199.0,37,1,1856.1000001430511,583801.399999857,9038,lime,NF,C,576970,576970,575463,576269,575464,577320,576770,576770,577320,116
109,test,1,inc,1,z,Mon Dec 01 2025 10:13:23 GMT-0500 (Eastern Standard Time),587707.5999999046,copper,900,I,z,z,None,605,405.0,200.0,6,1,2040.5999999046326,585667.0,9038,banana,NF,C,578953,578953,577329,578237,577329,579370,578753,578753,579370,117
110,test,1,inc,1,m,Mon Dec 01 2025 10:13:23 GMT-0500 (Eastern Standard Time),589824.2999999523,plum,1100,I,m,m,None,468,268.0,200.0,104,1,2101.7999999523163,587722.5,9038,gold,NF,C,581203,581203,579384,580487,579385,581486,581003,581003,581486,118
111,test,1,inc,1,z,Mon Dec 01 2025 10:13:23 GMT-0500 (Eastern Standard Time),591741.0,copper,900,I,z,z,None,469,270.0,199.0,14,1,1905.4000000953674,589835.5999999046,9038,cherry,NF,C,583120,583120,581498,582403,581498,583403,582920,582920,583403,119
112,test,1,con,1,z,Mon Dec 01 2025 10:13:23 GMT-0500 (Eastern Standard Time),593757.5999999046,banana,1000,I,z,z,None,468,269.0,199.0,3,1,2006.2999999523163,591751.2999999523,9038,banana,NF,C,585137,585137,583413,584420,583414,585420,584937,584937,585420,120
113,test,1,inc,1,z,Mon Dec 01 2025 10:13:23 GMT-0500 (Eastern Standard Time),595840.899999857,cobalt,1100,I,z,z,None,433,233.0,200.0,32,1,2073.0999999046326,593767.7999999523,9038,raisin,NF,C,587253,587253,585430,586537,585430,587503,587053,587053,587503,121
114,test,1,con,1,z,Mon Dec 01 2025 10:13:23 GMT-0500 (Eastern Standard Time),597874.0,orange,1100,I,z,z,None,396,197.0,199.0,20,1,2022.3000001907349,595851.6999998093,9038,orange,NF,C,589337,589337,587514,588620,587514,589536,589137,589137,589536,122
115,test,1,con,1,m,Mon Dec 01 2025 10:13:23 GMT-0500 (Eastern Standard Time),599957.399999857,cobalt,1000,I,m,m,None,545,345.0,200.0,91,1,2074.0999999046326,597883.2999999523,9038,cobalt,NF,C,591270,591270,589545,590553,589546,591620,591070,591070,591619,123
116,test,1,con,1,z,Mon Dec 01 2025 10:13:23 GMT-0500 (Eastern Standard Time),601873.899999857,orange,1000,I,z,z,None,381,181.0,200.0,19,1,1907.2999999523163,599966.5999999046,9038,orange,NF,C,593353,593353,591629,592637,591629,593536,593153,593153,593536,124
117,test,1,con,1,m,Mon Dec 01 2025 10:13:23 GMT-0500 (Eastern Standard Time),604040.899999857,iron,800,I,m,m,None,823,624.0,199.0,105,1,2158.2000000476837,601882.6999998093,9038,iron,NF,C,595070,595070,593545,594353,593545,595703,594870,594870,595703,125
118,test,1,inc,1,z,Mon Dec 01 2025 10:13:23 GMT-0500 (Eastern Standard Time),605840.7999999523,iron,900,I,z,z,None,364,165.0,199.0,46,1,1790.7000000476837,604050.0999999046,9038,pear,NF,C,597337,597337,595712,596620,595712,597503,597137,597137,597503,126
118,test,1,con,0,m,Mon Dec 01 2025 10:13:23 GMT-0500 (Eastern Standard Time),607724.1999998093,silver,800,I,z,z,None,536,337.0,199.0,81,1,1873.0,605851.1999998093,9038,silver,NF,C,599037,599037,597513,598320,597513,599386,598837,598837,599386,127
119,test,1,inc,1,m,Mon Dec 01 2025 10:13:23 GMT-0500 (Eastern Standard Time),609840.6999998093,cherry,900,I,m,m,None,681,482.0,199.0,94,1,2106.7999999523163,607733.899999857,9038,cobalt,NF,C,601020,601020,599396,600303,599396,601503,600820,600820,601503,128
