acc_sum,block,block_c,block_cond,con_img,correct,correct_response,datetime,endtime,face,jitter,line,project,response,response_time,row_sel,session_number,start_end,starttime,subject_id,task,task_vers,trial
1,prac,1,A,haborder.png,1,m,Mon Jun 01 2026 15:20:29 GMT-0400 (Eastern Daylight Time),104108.40000009537,CFD-BM-022-004-HC.jpg,1500,solid,I,m,1141,3,1,3433.5999999046326,100674.80000019073,9080,ATS,C,1
2,prac,1,A,haborder.png,1,z,Mon Jun 01 2026 15:20:29 GMT-0400 (Eastern Daylight Time),107058.09999990463,CFD-BF-002-018-A.jpg,1200,solid,I,z,936,6,1,6383.299999713898,100674.80000019073,9080,ATS,C,2
3,prac,1,A,haborder.png,1,z,Mon Jun 01 2026 15:20:29 GMT-0400 (Eastern Daylight Time),110258.09999990463,CFD-BM-043-014-A.jpg,1600,solid,I,z,802,2,1,9583.299999713898,100674.80000019073,9080,ATS,C,3
4,prac,1,A,haborder.png,1,m,Mon Jun 01 2026 15:20:29 GMT-0400 (Eastern Daylight Time),113241.5,CFD-WF-013-009-HC.jpg,1500,solid,I,m,696,11,1,12566.699999809265,100674.80000019073,9080,ATS,C,4
5,prac,1,A,haborder.png,1,m,Mon Jun 01 2026 15:20:29 GMT-0400 (Eastern Daylight Time),116241.59999990463,CFD-WM-028-005-HC.jpg,1400,solid,I,m,803,7,1,15566.799999713898,100674.80000019073,9080,ATS,C,5
6,prac,1,A,haborder.png,1,m,Mon Jun 01 2026 15:20:29 GMT-0400 (Eastern Daylight Time),119741.40000009537,CFD-BF-019-004-HC.jpg,2000,solid,I,m,707,5,1,19066.599999904633,100674.80000019073,9080,ATS,C,6
7,prac,1,A,haborder.png,1,z,Mon Jun 01 2026 15:20:29 GMT-0400 (Eastern Daylight Time),122424.7000002861,CFD-BF-031-020-A.jpg,1000,solid,I,z,896,4,1,21749.900000095367,100674.80000019073,9080,ATS,C,7
8,prac,1,A,haborder.png,1,z,Mon Jun 01 2026 15:20:29 GMT-0400 (Eastern Daylight Time),125991.40000009537,CFD-WM-036-018-A.jpg,1900,solid,I,z,881,8,1,25316.599999904633,100674.80000019073,9080,ATS,C,8
8,prac,1,A,haborder.png,0,z,Mon Jun 01 2026 15:20:29 GMT-0400 (Eastern Daylight Time),128858.0,CFD-WF-023-013-A.jpg,1000,solid,I,m,1079,12,1,28183.199999809265,100674.80000019073,9080,ATS,C,9
9,prac,1,A,haborder.png,1,m,Mon Jun 01 2026 15:20:29 GMT-0400 (Eastern Daylight Time),132124.80000019073,CFD-WM-035-036-HC.jpg,1700,solid,I,m,775,9,1,31450.0,100674.80000019073,9080,ATS,C,10
10,prac,1,A,haborder.png,1,m,Mon Jun 01 2026 15:20:29 GMT-0400 (Eastern Daylight Time),135458.2000002861,CFD-BM-034-035-HC.jpg,1700,solid,I,m,836,1,1,34783.40000009537,100674.80000019073,9080,ATS,C,11
10,prac,1,A,haborder.png,0,z,Mon Jun 01 2026 15:20:29 GMT-0400 (Eastern Daylight Time),138574.5,CFD-WF-037-016-A.jpg,1600,solid,I,m,723,10,1,37899.699999809265,100674.80000019073,9080,ATS,C,12
1,prac,1,B,mfborder.png,1,z,Mon Jun 01 2026 15:20:29 GMT-0400 (Eastern Daylight Time),183008.30000019073,CFD-WF-037-016-A.jpg,1500,11,I,z,772,dash,1,3066.800000190735,179941.5,9080,ATS,C,1
2,prac,1,B,mfborder.png,1,m,Mon Jun 01 2026 15:20:29 GMT-0400 (Eastern Daylight Time),185641.5,CFD-WM-034-040-A.jpg,1200,6,I,m,645,dash,1,5700.0,179941.5,9080,ATS,C,2
3,prac,1,B,mfborder.png,1,m,Mon Jun 01 2026 15:20:29 GMT-0400 (Eastern Daylight Time),188591.5,CFD-WM-035-036-HC.jpg,1600,10,I,m,556,dash,1,8650.0,179941.5,9080,ATS,C,3
4,prac,1,B,mfborder.png,1,z,Mon Jun 01 2026 15:20:29 GMT-0400 (Eastern Daylight Time),191024.80000019073,CFD-WF-013-009-HC.jpg,1000,12,I,z,639,dash,1,11083.300000190735,179941.5,9080,ATS,C,4
4,prac,1,B,mfborder.png,0,m,Mon Jun 01 2026 15:20:29 GMT-0400 (Eastern Daylight Time),194074.80000019073,CFD-BM-022-004-HC.jpg,1700,1,I,z,560,dash,1,14133.300000190735,179941.5,9080,ATS,C,5
4,prac,1,B,mfborder.png,0,m,Mon Jun 01 2026 15:20:29 GMT-0400 (Eastern Daylight Time),197524.7000002861,CFD-BM-043-014-A.jpg,2000,5,I,z,651,dash,1,17583.200000286102,179941.5,9080,ATS,C,6
5,prac,1,B,mfborder.png,1,z,Mon Jun 01 2026 15:20:29 GMT-0400 (Eastern Daylight Time),200224.90000009537,CFD-BF-031-020-A.jpg,1000,4,I,z,905,dash,1,20283.400000095367,179941.5,9080,ATS,C,7
6,prac,1,B,mfborder.png,1,z,Mon Jun 01 2026 15:20:29 GMT-0400 (Eastern Daylight Time),203891.59999990463,CFD-WF-001-010-HC.jpg,1900,8,I,z,967,dash,1,23950.099999904633,179941.5,9080,ATS,C,8
7,prac,1,B,mfborder.png,1,m,Mon Jun 01 2026 15:20:29 GMT-0400 (Eastern Daylight Time),207358.30000019073,CFD-WM-036-018-A.jpg,1700,9,I,m,974,dash,1,27416.800000190735,179941.5,9080,ATS,C,9
8,prac,1,B,mfborder.png,1,z,Mon Jun 01 2026 15:20:29 GMT-0400 (Eastern Daylight Time),210441.40000009537,CFD-BF-019-004-HC.jpg,1400,7,I,z,895,dash,1,30499.900000095367,179941.5,9080,ATS,C,10
8,prac,1,B,mfborder.png,0,z,Mon Jun 01 2026 15:20:29 GMT-0400 (Eastern Daylight Time),213574.80000019073,CFD-BF-042-031-HC.jpg,1500,3,I,m,848,dash,1,33633.300000190735,179941.5,9080,ATS,C,11
9,prac,1,B,mfborder.png,1,m,Mon Jun 01 2026 15:20:29 GMT-0400 (Eastern Daylight Time),217225.0,CFD-BM-021-026-A.jpg,1600,2,I,m,1262,dash,1,37283.5,179941.5,9080,ATS,C,12
0,test,1,A,haborder.png,0,m,Mon Jun 01 2026 15:20:29 GMT-0400 (Eastern Daylight Time),241575.0,CFD-BF-019-004-HC.jpg,2000,solid,I,None,1516,5,1,3533.5,238041.5,9080,ATS,C,1
1,test,1,A,haborder.png,1,z,Mon Jun 01 2026 15:20:29 GMT-0400 (Eastern Daylight Time),244424.59999990463,CFD-WM-036-018-A.jpg,1900,solid,I,z,931,8,1,6383.099999904633,238041.5,9080,ATS,C,2
2,test,1,A,haborder.png,1,z,Mon Jun 01 2026 15:20:29 GMT-0400 (Eastern Daylight Time),246458.0,CFD-WF-023-013-A.jpg,1000,solid,I,z,1014,12,1,8416.5,238041.5,9080,ATS,C,3
3,test,1,A,haborder.png,1,m,Mon Jun 01 2026 15:20:29 GMT-0400 (Eastern Daylight Time),248724.7000002861,CFD-WF-013-009-HC.jpg,1500,solid,I,m,736,11,1,10683.200000286102,238041.5,9080,ATS,C,4
4,test,1,A,haborder.png,1,m,Mon Jun 01 2026 15:20:29 GMT-0400 (Eastern Daylight Time),251224.59999990463,CFD-WF-013-009-HC.jpg,1500,solid,I,m,981,11,1,13183.099999904633,238041.5,9080,ATS,C,5
5,test,1,A,haborder.png,1,m,Mon Jun 01 2026 15:20:29 GMT-0400 (Eastern Daylight Time),254308.2000002861,CFD-BM-034-035-HC.jpg,1700,solid,I,m,1353,1,1,16266.700000286102,238041.5,9080,ATS,C,6
6,test,1,A,haborder.png,1,m,Mon Jun 01 2026 15:20:29 GMT-0400 (Eastern Daylight Time),256624.7000002861,CFD-BM-022-004-HC.jpg,1500,solid,I,m,789,3,1,18583.200000286102,238041.5,9080,ATS,C,7
7,test,1,A,haborder.png,1,z,Mon Jun 01 2026 15:20:29 GMT-0400 (Eastern Daylight Time),259441.30000019073,CFD-WM-036-018-A.jpg,1900,solid,I,z,889,8,1,21399.800000190735,238041.5,9080,ATS,C,8
8,test,1,A,haborder.png,1,m,Mon Jun 01 2026 15:20:29 GMT-0400 (Eastern Daylight Time),261924.7000002861,CFD-WM-035-036-HC.jpg,1700,solid,I,m,752,9,1,23883.200000286102,238041.5,9080,ATS,C,9
9,test,1,A,haborder.png,1,z,Mon Jun 01 2026 15:20:29 GMT-0400 (Eastern Daylight Time),264508.0,CFD-BM-043-014-A.jpg,1600,solid,I,z,961,2,1,26466.5,238041.5,9080,ATS,C,10
10,test,1,A,haborder.png,1,z,Mon Jun 01 2026 15:20:29 GMT-0400 (Eastern Daylight Time),266924.59999990463,CFD-WF-037-016-A.jpg,1600,solid,I,z,793,10,1,28883.099999904633,238041.5,9080,ATS,C,11
11,test,1,A,haborder.png,1,m,Mon Jun 01 2026 15:20:29 GMT-0400 (Eastern Daylight Time),269391.40000009537,CFD-BM-022-004-HC.jpg,1500,solid,I,m,941,3,1,31349.900000095367,238041.5,9080,ATS,C,12
12,test,1,A,haborder.png,1,m,Mon Jun 01 2026 15:20:29 GMT-0400 (Eastern Daylight Time),271541.30000019073,CFD-WM-028-005-HC.jpg,1400,solid,I,m,718,7,1,33499.800000190735,238041.5,9080,ATS,C,13
13,test,1,A,haborder.png,1,m,Mon Jun 01 2026 15:20:29 GMT-0400 (Eastern Daylight Time),274341.30000019073,CFD-WM-035-036-HC.jpg,1700,solid,I,m,1067,9,1,36299.800000190735,238041.5,9080,ATS,C,14
14,test,1,A,haborder.png,1,z,Mon Jun 01 2026 15:20:29 GMT-0400 (Eastern Daylight Time),276191.40000009537,CFD-WF-023-013-A.jpg,1000,solid,I,z,824,12,1,38149.90000009537,238041.5,9080,ATS,C,15
15,test,1,A,haborder.png,1,z,Mon Jun 01 2026 15:20:29 GMT-0400 (Eastern Daylight Time),278124.7000002861,CFD-BF-031-020-A.jpg,1000,solid,I,z,909,4,1,40083.2000002861,238041.5,9080,ATS,C,16
16,test,1,A,haborder.png,1,z,Mon Jun 01 2026 15:20:29 GMT-0400 (Eastern Daylight Time),280558.0,CFD-WF-037-016-A.jpg,1600,solid,I,z,809,10,1,42516.5,238041.5,9080,ATS,C,17
17,test,1,A,haborder.png,1,m,Mon Jun 01 2026 15:20:29 GMT-0400 (Eastern Daylight Time),282810.0,CFD-WM-028-005-HC.jpg,1400,solid,I,m,832,7,1,44768.5,238041.5,9080,ATS,C,18
18,test,1,A,haborder.png,1,z,Mon Jun 01 2026 15:20:29 GMT-0400 (Eastern Daylight Time),285524.80000019073,CFD-BM-043-014-A.jpg,1600,solid,I,z,1085,2,1,47483.300000190735,238041.5,9080,ATS,C,19
19,test,1,A,haborder.png,1,z,Mon Jun 01 2026 15:20:29 GMT-0400 (Eastern Daylight Time),287924.7000002861,CFD-BF-031-020-A.jpg,1000,solid,I,z,1369,4,1,49883.2000002861,238041.5,9080,ATS,C,20
20,test,1,A,haborder.png,1,m,Mon Jun 01 2026 15:20:29 GMT-0400 (Eastern Daylight Time),290491.30000019073,CFD-BM-034-035-HC.jpg,1700,solid,I,m,845,1,1,52449.800000190735,238041.5,9080,ATS,C,21
21,test,1,A,haborder.png,1,z,Mon Jun 01 2026 15:20:29 GMT-0400 (Eastern Daylight Time),292507.80000019073,CFD-BF-002-018-A.jpg,1200,solid,I,z,794,6,1,54466.300000190735,238041.5,9080,ATS,C,22
22,test,1,A,haborder.png,1,z,Mon Jun 01 2026 15:20:29 GMT-0400 (Eastern Daylight Time),294474.7000002861,CFD-BF-002-018-A.jpg,1200,solid,I,z,745,6,1,56433.2000002861,238041.5,9080,ATS,C,23
23,test,1,A,haborder.png,1,m,Mon Jun 01 2026 15:20:29 GMT-0400 (Eastern Daylight Time),297408.0,CFD-BF-019-004-HC.jpg,2000,solid,I,m,906,5,1,59366.5,238041.5,9080,ATS,C,24
1,test,1,B,mfborder.png,1,m,Mon Jun 01 2026 15:20:29 GMT-0400 (Eastern Daylight Time),316358.09999990463,CFD-BM-022-004-HC.jpg,1700,dash,I,m,684,1,1,2416.5,313941.59999990463,9080,ATS,C,1
2,test,1,B,mfborder.png,1,z,Mon Jun 01 2026 15:20:29 GMT-0400 (Eastern Daylight Time),318375.0,CFD-BF-019-004-HC.jpg,1400,dash,I,z,599,7,1,4433.400000095367,313941.59999990463,9080,ATS,C,2
3,test,1,B,mfborder.png,1,z,Mon Jun 01 2026 15:20:29 GMT-0400 (Eastern Daylight Time),320458.0,CFD-BF-019-004-HC.jpg,1400,dash,I,z,662,7,1,6516.400000095367,313941.59999990463,9080,ATS,C,3
4,test,1,B,mfborder.png,1,m,Mon Jun 01 2026 15:20:29 GMT-0400 (Eastern Daylight Time),322658.09999990463,CFD-WM-035-036-HC.jpg,1600,dash,I,m,571,10,1,8716.5,313941.59999990463,9080,ATS,C,4
5,test,1,B,mfborder.png,1,m,Mon Jun 01 2026 15:20:29 GMT-0400 (Eastern Daylight Time),325341.40000009537,CFD-BM-043-014-A.jpg,2000,dash,I,m,659,5,1,11399.800000190735,313941.59999990463,9080,ATS,C,5
6,test,1,B,mfborder.png,1,m,Mon Jun 01 2026 15:20:29 GMT-0400 (Eastern Daylight Time),327708.09999990463,CFD-WM-036-018-A.jpg,1700,dash,I,m,644,9,1,13766.5,313941.59999990463,9080,ATS,C,6
7,test,1,B,mfborder.png,1,z,Mon Jun 01 2026 15:20:29 GMT-0400 (Eastern Daylight Time),329808.0,CFD-BF-042-031-HC.jpg,1500,dash,I,z,573,3,1,15866.400000095367,313941.59999990463,9080,ATS,C,7
8,test,1,B,mfborder.png,1,m,Mon Jun 01 2026 15:20:29 GMT-0400 (Eastern Daylight Time),332091.40000009537,CFD-BM-022-004-HC.jpg,1700,dash,I,m,561,1,1,18149.800000190735,313941.59999990463,9080,ATS,C,8
9,test,1,B,mfborder.png,1,z,Mon Jun 01 2026 15:20:29 GMT-0400 (Eastern Daylight Time),333641.40000009537,CFD-WF-013-009-HC.jpg,1000,dash,I,z,531,12,1,19699.800000190735,313941.59999990463,9080,ATS,C,9
10,test,1,B,mfborder.png,1,z,Mon Jun 01 2026 15:20:29 GMT-0400 (Eastern Daylight Time),335691.40000009537,CFD-WF-013-009-HC.jpg,1000,dash,I,z,1028,12,1,21749.800000190735,313941.59999990463,9080,ATS,C,10
11,test,1,B,mfborder.png,1,z,Mon Jun 01 2026 15:20:29 GMT-0400 (Eastern Daylight Time),338374.59999990463,CFD-BF-042-031-HC.jpg,1500,dash,I,z,1150,3,1,24433.0,313941.59999990463,9080,ATS,C,11
12,test,1,B,mfborder.png,1,z,Mon Jun 01 2026 15:20:29 GMT-0400 (Eastern Daylight Time),340758.09999990463,CFD-WF-037-016-A.jpg,1500,dash,I,z,851,11,1,26816.5,313941.59999990463,9080,ATS,C,12
13,test,1,B,mfborder.png,1,z,Mon Jun 01 2026 15:20:29 GMT-0400 (Eastern Daylight Time),342807.80000019073,CFD-BF-031-020-A.jpg,1000,dash,I,z,1032,4,1,28866.200000286102,313941.59999990463,9080,ATS,C,13
14,test,1,B,mfborder.png,1,m,Mon Jun 01 2026 15:20:29 GMT-0400 (Eastern Daylight Time),344674.7000002861,CFD-WM-034-040-A.jpg,1200,dash,I,m,637,6,1,30733.10000038147,313941.59999990463,9080,ATS,C,14
15,test,1,B,mfborder.png,1,m,Mon Jun 01 2026 15:20:29 GMT-0400 (Eastern Daylight Time),347324.80000019073,CFD-BM-043-014-A.jpg,2000,dash,I,m,626,5,1,33383.2000002861,313941.59999990463,9080,ATS,C,15
16,test,1,B,mfborder.png,1,m,Mon Jun 01 2026 15:20:29 GMT-0400 (Eastern Daylight Time),349758.0,CFD-BM-021-026-A.jpg,1600,dash,I,m,809,2,1,35816.40000009537,313941.59999990463,9080,ATS,C,16
17,test,1,B,mfborder.png,1,z,Mon Jun 01 2026 15:20:29 GMT-0400 (Eastern Daylight Time),352041.2000002861,CFD-WF-037-016-A.jpg,1500,dash,I,z,763,11,1,38099.60000038147,313941.59999990463,9080,ATS,C,17
18,test,1,B,mfborder.png,1,m,Mon Jun 01 2026 15:20:29 GMT-0400 (Eastern Daylight Time),354324.7000002861,CFD-WM-034-040-A.jpg,1200,dash,I,m,1052,6,1,40383.10000038147,313941.59999990463,9080,ATS,C,18
19,test,1,B,mfborder.png,1,z,Mon Jun 01 2026 15:20:29 GMT-0400 (Eastern Daylight Time),357007.5,CFD-WF-001-010-HC.jpg,1900,dash,I,z,755,8,1,43065.90000009537,313941.59999990463,9080,ATS,C,19
20,test,1,B,mfborder.png,1,z,Mon Jun 01 2026 15:20:29 GMT-0400 (Eastern Daylight Time),359574.7000002861,CFD-WF-001-010-HC.jpg,1900,dash,I,z,633,8,1,45633.10000038147,313941.59999990463,9080,ATS,C,20
21,test,1,B,mfborder.png,1,m,Mon Jun 01 2026 15:20:29 GMT-0400 (Eastern Daylight Time),361924.80000019073,CFD-BM-021-026-A.jpg,1600,dash,I,m,719,2,1,47983.2000002861,313941.59999990463,9080,ATS,C,21
22,test,1,B,mfborder.png,1,z,Mon Jun 01 2026 15:20:29 GMT-0400 (Eastern Daylight Time),363758.09999990463,CFD-BF-031-020-A.jpg,1000,dash,I,z,809,4,1,49816.5,313941.59999990463,9080,ATS,C,22
23,test,1,B,mfborder.png,1,m,Mon Jun 01 2026 15:20:29 GMT-0400 (Eastern Daylight Time),366124.80000019073,CFD-WM-035-036-HC.jpg,1600,dash,I,m,743,10,1,52183.2000002861,313941.59999990463,9080,ATS,C,23
24,test,1,B,mfborder.png,1,m,Mon Jun 01 2026 15:20:29 GMT-0400 (Eastern Daylight Time),368658.0,CFD-WM-036-018-A.jpg,1700,dash,I,m,805,9,1,54716.40000009537,313941.59999990463,9080,ATS,C,24
1,prac,1,C,haborder.png,1,m,Mon Jun 01 2026 15:20:29 GMT-0400 (Eastern Daylight Time),407241.80000019073,CFD-WM-028-005-HC.jpg,1400,solid,I,m,1379,9,1,3566.9000000953674,403674.90000009537,9080,ATS,C,1
1,prac,1,C,mfborder.png,0,m,Mon Jun 01 2026 15:20:29 GMT-0400 (Eastern Daylight Time),411541.5,CFD-BM-034-035-HC.jpg,2000,solid,I,None,1516,9,1,7866.599999904633,403674.90000009537,9080,ATS,C,2
1,prac,1,C,mfborder.png,0,m,Mon Jun 01 2026 15:20:29 GMT-0400 (Eastern Daylight Time),415541.59999990463,CFD-WM-036-018-A.jpg,1700,solid,I,None,1516,9,1,11866.699999809265,403674.90000009537,9080,ATS,C,3
1,prac,1,C,mfborder.png,0,z,Mon Jun 01 2026 15:20:29 GMT-0400 (Eastern Daylight Time),418825.59999990463,CFD-BF-019-004-HC.jpg,1000,dash,I,None,1516,9,1,15150.699999809265,403674.90000009537,9080,ATS,C,4
1,prac,1,C,mfborder.png,0,z,Mon Jun 01 2026 15:20:29 GMT-0400 (Eastern Daylight Time),422724.80000019073,CFD-WF-013-009-HC.jpg,1600,dash,I,None,1516,9,1,19049.900000095367,403674.90000009537,9080,ATS,C,5
1,prac,1,C,haborder.png,0,z,Mon Jun 01 2026 15:20:29 GMT-0400 (Eastern Daylight Time),426924.80000019073,CFD-BF-031-020-A.jpg,1900,dash,I,None,1516,9,1,23249.900000095367,403674.90000009537,9080,ATS,C,6
1,prac,1,C,mfborder.png,0,m,Mon Jun 01 2026 15:20:29 GMT-0400 (Eastern Daylight Time),430424.90000009537,CFD-BM-043-014-A.jpg,1200,dash,I,None,1516,9,1,26750.0,403674.90000009537,9080,ATS,C,7
1,prac,1,C,haborder.png,0,z,Mon Jun 01 2026 15:20:29 GMT-0400 (Eastern Daylight Time),434324.80000019073,CFD-WF-037-016-A.jpg,1600,dash,I,None,1516,9,1,30649.900000095367,403674.90000009537,9080,ATS,C,8
2,prac,1,C,haborder.png,1,z,Mon Jun 01 2026 15:20:29 GMT-0400 (Eastern Daylight Time),437758.30000019073,CFD-BF-002-018-A.jpg,1700,solid,I,z,941,9,1,34083.40000009537,403674.90000009537,9080,ATS,C,9
3,prac,1,C,haborder.png,1,m,Mon Jun 01 2026 15:20:29 GMT-0400 (Eastern Daylight Time),440724.90000009537,CFD-BM-022-004-HC.jpg,1500,solid,I,m,667,9,1,37050.0,403674.90000009537,9080,ATS,C,10
4,prac,1,C,haborder.png,1,m,Mon Jun 01 2026 15:20:29 GMT-0400 (Eastern Daylight Time),443558.40000009537,CFD-WM-028-005-HC.jpg,1000,dash,I,m,1033,9,1,39883.5,403674.90000009537,9080,ATS,C,11
5,prac,1,C,mfborder.png,1,z,Mon Jun 01 2026 15:20:29 GMT-0400 (Eastern Daylight Time),447158.40000009537,CFD-WF-023-013-A.jpg,1500,solid,I,z,1316,9,1,43483.5,403674.90000009537,9080,ATS,C,12
0,prac,2,C,mfborder.png,0,z,Mon Jun 01 2026 15:20:29 GMT-0400 (Eastern Daylight Time),457808.5,CFD-WF-013-009-HC.jpg,1600,dash,I,None,1517,9,1,54133.59999990463,403674.90000009537,9080,ATS,C,1
0,prac,2,C,haborder.png,0,m,Mon Jun 01 2026 15:20:29 GMT-0400 (Eastern Daylight Time),461108.5,CFD-WM-028-005-HC.jpg,1000,dash,I,None,1516,9,1,57433.59999990463,403674.90000009537,9080,ATS,C,2
0,prac,2,C,mfborder.png,0,z,Mon Jun 01 2026 15:20:29 GMT-0400 (Eastern Daylight Time),464908.40000009537,CFD-WF-023-013-A.jpg,1500,solid,I,None,1516,9,1,61233.5,403674.90000009537,9080,ATS,C,3
0,prac,2,C,mfborder.png,0,m,Mon Jun 01 2026 15:20:29 GMT-0400 (Eastern Daylight Time),468908.2000002861,CFD-WM-036-018-A.jpg,1700,solid,I,None,1515,9,1,65233.300000190735,403674.90000009537,9080,ATS,C,4
0,prac,2,C,mfborder.png,0,m,Mon Jun 01 2026 15:20:29 GMT-0400 (Eastern Daylight Time),472408.2000002861,CFD-BM-043-014-A.jpg,1200,dash,I,None,1516,9,1,68733.30000019073,403674.90000009537,9080,ATS,C,5
0,prac,2,C,haborder.png,0,m,Mon Jun 01 2026 15:20:29 GMT-0400 (Eastern Daylight Time),476208.2000002861,CFD-BM-022-004-HC.jpg,1500,solid,I,None,1516,9,1,72533.30000019073,403674.90000009537,9080,ATS,C,6
0,prac,2,C,haborder.png,0,z,Mon Jun 01 2026 15:20:29 GMT-0400 (Eastern Daylight Time),480408.09999990463,CFD-BF-031-020-A.jpg,1900,dash,I,None,1516,9,1,76733.19999980927,403674.90000009537,9080,ATS,C,7
0,prac,2,C,mfborder.png,0,m,Mon Jun 01 2026 15:20:29 GMT-0400 (Eastern Daylight Time),484708.30000019073,CFD-BM-034-035-HC.jpg,2000,solid,I,None,1516,9,1,81033.40000009537,403674.90000009537,9080,ATS,C,8
0,prac,2,C,haborder.png,0,z,Mon Jun 01 2026 15:20:29 GMT-0400 (Eastern Daylight Time),488708.2000002861,CFD-BF-002-018-A.jpg,1700,solid,I,None,1516,9,1,85033.30000019073,403674.90000009537,9080,ATS,C,9
0,prac,2,C,haborder.png,0,m,Mon Jun 01 2026 15:20:29 GMT-0400 (Eastern Daylight Time),492408.30000019073,CFD-WM-028-005-HC.jpg,1400,solid,I,None,1515,9,1,88733.40000009537,403674.90000009537,9080,ATS,C,10
0,prac,2,C,haborder.png,0,z,Mon Jun 01 2026 15:20:29 GMT-0400 (Eastern Daylight Time),496308.2000002861,CFD-WF-037-016-A.jpg,1600,dash,I,None,1516,9,1,92633.30000019073,403674.90000009537,9080,ATS,C,11
0,prac,2,C,mfborder.png,0,z,Mon Jun 01 2026 15:20:29 GMT-0400 (Eastern Daylight Time),499608.2000002861,CFD-BF-019-004-HC.jpg,1000,dash,I,None,1516,9,1,95933.30000019073,403674.90000009537,9080,ATS,C,12
0,prac,3,C,haborder.png,0,z,Mon Jun 01 2026 15:20:29 GMT-0400 (Eastern Daylight Time),509674.80000019073,CFD-WF-037-016-A.jpg,1600,dash,I,None,1516,9,1,105999.90000009537,403674.90000009537,9080,ATS,C,1
1,prac,3,C,haborder.png,1,z,Mon Jun 01 2026 15:20:29 GMT-0400 (Eastern Daylight Time),513291.7000002861,CFD-BF-002-018-A.jpg,1700,solid,I,z,1127,9,1,109616.80000019073,403674.90000009537,9080,ATS,C,2
2,prac,3,C,haborder.png,1,m,Mon Jun 01 2026 15:20:29 GMT-0400 (Eastern Daylight Time),515908.40000009537,CFD-WM-028-005-HC.jpg,1000,dash,I,m,818,9,1,112233.5,403674.90000009537,9080,ATS,C,3
3,prac,3,C,haborder.png,1,m,Mon Jun 01 2026 15:20:29 GMT-0400 (Eastern Daylight Time),519008.40000009537,CFD-WM-028-005-HC.jpg,1400,solid,I,m,906,9,1,115333.5,403674.90000009537,9080,ATS,C,4
3,prac,3,C,mfborder.png,0,z,Mon Jun 01 2026 15:20:29 GMT-0400 (Eastern Daylight Time),522808.2000002861,CFD-WF-023-013-A.jpg,1500,solid,I,None,1517,9,1,119133.30000019073,403674.90000009537,9080,ATS,C,5
4,prac,3,C,mfborder.png,1,m,Mon Jun 01 2026 15:20:29 GMT-0400 (Eastern Daylight Time),525625.0999999046,CFD-BM-043-014-A.jpg,1200,dash,I,m,829,9,1,121950.19999980927,403674.90000009537,9080,ATS,C,6
5,prac,3,C,haborder.png,1,z,Mon Jun 01 2026 15:20:29 GMT-0400 (Eastern Daylight Time),529308.4000000954,CFD-BF-031-020-A.jpg,1900,dash,I,z,993,9,1,125633.5,403674.90000009537,9080,ATS,C,7
6,prac,3,C,mfborder.png,1,m,Mon Jun 01 2026 15:20:29 GMT-0400 (Eastern Daylight Time),532708.4000000954,CFD-WM-036-018-A.jpg,1700,solid,I,m,901,9,1,129033.5,403674.90000009537,9080,ATS,C,8
7,prac,3,C,mfborder.png,1,z,Mon Jun 01 2026 15:20:29 GMT-0400 (Eastern Daylight Time),535625.0999999046,CFD-BF-019-004-HC.jpg,1000,dash,I,z,1130,9,1,131950.19999980927,403674.90000009537,9080,ATS,C,9
8,prac,3,C,mfborder.png,1,z,Mon Jun 01 2026 15:20:29 GMT-0400 (Eastern Daylight Time),539308.5999999046,CFD-WF-013-009-HC.jpg,1600,dash,I,z,1293,9,1,135633.69999980927,403674.90000009537,9080,ATS,C,10
9,prac,3,C,mfborder.png,1,m,Mon Jun 01 2026 15:20:29 GMT-0400 (Eastern Daylight Time),543341.7000002861,CFD-BM-034-035-HC.jpg,2000,solid,I,m,1241,9,1,139666.80000019073,403674.90000009537,9080,ATS,C,11
10,prac,3,C,haborder.png,1,m,Mon Jun 01 2026 15:20:29 GMT-0400 (Eastern Daylight Time),546791.7000002861,CFD-BM-022-004-HC.jpg,1500,solid,I,m,1164,9,1,143116.80000019073,403674.90000009537,9080,ATS,C,12
0,test,1,C,mfborder.png,0,m,Mon Jun 01 2026 15:20:29 GMT-0400 (Eastern Daylight Time),570258.5999999046,CFD-WM-035-036-HC.jpg,1000,dash,I,None,1516,4,1,2533.3999996185303,567725.2000002861,9080,ATS,C,1
1,test,1,C,mfborder.png,1,m,Mon Jun 01 2026 15:20:29 GMT-0400 (Eastern Daylight Time),572791.5999999046,CFD-BM-022-004-HC.jpg,1200,dash,I,m,1316,6,1,5066.39999961853,567725.2000002861,9080,ATS,C,2
2,test,1,C,mfborder.png,1,z,Mon Jun 01 2026 15:20:29 GMT-0400 (Eastern Daylight Time),575808.2000002861,CFD-WF-037-016-A.jpg,1500,dash,I,z,1490,3,1,8083.0,567725.2000002861,9080,ATS,C,3
3,test,1,C,mfborder.png,1,z,Mon Jun 01 2026 15:20:29 GMT-0400 (Eastern Daylight Time),578241.5999999046,CFD-BF-031-020-A.jpg,1600,dash,I,z,805,2,1,10516.39999961853,567725.2000002861,9080,ATS,C,4
3,test,1,C,haborder.png,0,z,Mon Jun 01 2026 15:20:29 GMT-0400 (Eastern Daylight Time),581158.0999999046,CFD-BM-021-026-A.jpg,1700,solid,I,m,1184,9,1,13432.89999961853,567725.2000002861,9080,ATS,C,5
3,test,1,C,haborder.png,0,z,Mon Jun 01 2026 15:20:29 GMT-0400 (Eastern Daylight Time),583975.0,CFD-BM-043-014-A.jpg,1900,solid,I,m,884,8,1,16249.799999713898,567725.2000002861,9080,ATS,C,6
4,test,1,C,mfborder.png,1,m,Mon Jun 01 2026 15:20:29 GMT-0400 (Eastern Daylight Time),585991.7000002861,CFD-BM-022-004-HC.jpg,1200,dash,I,m,799,6,1,18266.5,567725.2000002861,9080,ATS,C,7
4,test,1,C,haborder.png,0,z,Mon Jun 01 2026 15:20:29 GMT-0400 (Eastern Daylight Time),588591.5999999046,CFD-BM-043-014-A.jpg,1900,solid,I,m,674,8,1,20866.39999961853,567725.2000002861,9080,ATS,C,8
4,test,1,C,haborder.png,0,m,Mon Jun 01 2026 15:20:29 GMT-0400 (Eastern Daylight Time),591124.9000000954,CFD-WF-001-010-HC.jpg,1500,solid,I,z,1002,11,1,23399.699999809265,567725.2000002861,9080,ATS,C,9
5,test,1,C,haborder.png,1,m,Mon Jun 01 2026 15:20:29 GMT-0400 (Eastern Daylight Time),593741.5999999046,CFD-BF-019-004-HC.jpg,1600,solid,I,m,993,10,1,26016.39999961853,567725.2000002861,9080,ATS,C,10
5,test,1,C,mfborder.png,0,m,Mon Jun 01 2026 15:20:29 GMT-0400 (Eastern Daylight Time),597275.0,CFD-WM-034-040-A.jpg,2000,dash,I,None,1516,5,1,29549.799999713898,567725.2000002861,9080,ATS,C,11
6,test,1,C,mfborder.png,1,z,Mon Jun 01 2026 15:20:29 GMT-0400 (Eastern Daylight Time),599858.3000001907,CFD-BF-042-031-HC.jpg,1700,dash,I,z,855,1,1,32133.099999904633,567725.2000002861,9080,ATS,C,12
6,test,1,C,haborder.png,0,m,Mon Jun 01 2026 15:20:29 GMT-0400 (Eastern Daylight Time),602574.9000000954,CFD-WF-001-010-HC.jpg,1500,solid,I,z,1192,11,1,34849.699999809265,567725.2000002861,9080,ATS,C,13
6,test,1,C,haborder.png,0,m,Mon Jun 01 2026 15:20:29 GMT-0400 (Eastern Daylight Time),605041.5999999046,CFD-BF-019-004-HC.jpg,1600,solid,I,z,839,10,1,37316.39999961853,567725.2000002861,9080,ATS,C,14
6,test,1,C,haborder.png,0,z,Mon Jun 01 2026 15:20:29 GMT-0400 (Eastern Daylight Time),607591.5999999046,CFD-WM-036-018-A.jpg,1400,solid,I,m,1132,7,1,39866.39999961853,567725.2000002861,9080,ATS,C,15
7,test,1,C,mfborder.png,1,m,Mon Jun 01 2026 15:20:29 GMT-0400 (Eastern Daylight Time),609475.0,CFD-WM-035-036-HC.jpg,1000,dash,I,m,854,4,1,41749.7999997139,567725.2000002861,9080,ATS,C,16
8,test,1,C,mfborder.png,1,z,Mon Jun 01 2026 15:20:29 GMT-0400 (Eastern Daylight Time),612208.3000001907,CFD-BF-031-020-A.jpg,1600,dash,I,z,1107,2,1,44483.09999990463,567725.2000002861,9080,ATS,C,17
8,test,1,C,haborder.png,0,m,Mon Jun 01 2026 15:20:29 GMT-0400 (Eastern Daylight Time),614325.0,CFD-WF-013-009-HC.jpg,1000,solid,I,z,1086,12,1,46599.7999997139,567725.2000002861,9080,ATS,C,18
9,test,1,C,haborder.png,1,m,Mon Jun 01 2026 15:20:29 GMT-0400 (Eastern Daylight Time),616208.3000001907,CFD-WF-013-009-HC.jpg,1000,solid,I,m,857,12,1,48483.09999990463,567725.2000002861,9080,ATS,C,19
10,test,1,C,mfborder.png,1,m,Mon Jun 01 2026 15:20:29 GMT-0400 (Eastern Daylight Time),619475.0,CFD-WM-034-040-A.jpg,2000,dash,I,m,1237,5,1,51749.7999997139,567725.2000002861,9080,ATS,C,20
11,test,1,C,mfborder.png,1,z,Mon Jun 01 2026 15:20:29 GMT-0400 (Eastern Daylight Time),622058.2000002861,CFD-BF-042-031-HC.jpg,1700,dash,I,z,863,1,1,54333.0,567725.2000002861,9080,ATS,C,21
12,test,1,C,mfborder.png,1,z,Mon Jun 01 2026 15:20:29 GMT-0400 (Eastern Daylight Time),624391.5999999046,CFD-WF-037-016-A.jpg,1500,dash,I,z,799,3,1,56666.39999961853,567725.2000002861,9080,ATS,C,22
12,test,1,C,haborder.png,0,z,Mon Jun 01 2026 15:20:29 GMT-0400 (Eastern Daylight Time),626874.9000000954,CFD-WM-036-018-A.jpg,1400,solid,I,m,1062,7,1,59149.699999809265,567725.2000002861,9080,ATS,C,23
13,test,1,C,haborder.png,1,z,Mon Jun 01 2026 15:20:29 GMT-0400 (Eastern Daylight Time),629874.9000000954,CFD-BM-021-026-A.jpg,1700,solid,I,z,1271,9,1,62149.699999809265,567725.2000002861,9080,ATS,C,24
1,test,2,C,haborder.png,1,z,Mon Jun 01 2026 15:20:29 GMT-0400 (Eastern Daylight Time),640341.7000002861,CFD-BF-002-018-A.jpg,1900,solid,I,z,1268,8,1,3199.9000000953674,637141.8000001907,9080,ATS,C,1
1,test,2,C,haborder.png,0,m,Mon Jun 01 2026 15:20:29 GMT-0400 (Eastern Daylight Time),642875.2000002861,CFD-WM-028-005-HC.jpg,1000,solid,I,None,1517,12,1,5733.400000095367,637141.8000001907,9080,ATS,C,2
2,test,2,C,mfborder.png,1,z,Mon Jun 01 2026 15:20:29 GMT-0400 (Eastern Daylight Time),645191.5999999046,CFD-BF-019-004-HC.jpg,1500,dash,I,z,799,3,1,8049.799999713898,637141.8000001907,9080,ATS,C,3
3,test,2,C,haborder.png,1,m,Mon Jun 01 2026 15:20:29 GMT-0400 (Eastern Daylight Time),647341.7000002861,CFD-WM-028-005-HC.jpg,1500,solid,I,m,626,11,1,10199.900000095367,637141.8000001907,9080,ATS,C,4
4,test,2,C,haborder.png,1,m,Mon Jun 01 2026 15:20:29 GMT-0400 (Eastern Daylight Time),649591.5999999046,CFD-BM-022-004-HC.jpg,1600,solid,I,m,616,10,1,12449.799999713898,637141.8000001907,9080,ATS,C,5
5,test,2,C,mfborder.png,1,m,Mon Jun 01 2026 15:20:29 GMT-0400 (Eastern Daylight Time),651191.5999999046,CFD-BM-034-035-HC.jpg,1000,dash,I,m,567,4,1,14049.799999713898,637141.8000001907,9080,ATS,C,6
6,test,2,C,mfborder.png,1,m,Mon Jun 01 2026 15:20:29 GMT-0400 (Eastern Daylight Time),652924.8000001907,CFD-WM-036-018-A.jpg,1200,dash,I,m,510,6,1,15783.0,637141.8000001907,9080,ATS,C,7
6,test,2,C,mfborder.png,0,z,Mon Jun 01 2026 15:20:29 GMT-0400 (Eastern Daylight Time),654974.7000002861,CFD-WF-023-013-A.jpg,1600,dash,I,m,424,2,1,17832.900000095367,637141.8000001907,9080,ATS,C,8
7,test,2,C,haborder.png,1,z,Mon Jun 01 2026 15:20:29 GMT-0400 (Eastern Daylight Time),657458.3000001907,CFD-WF-037-016-A.jpg,1700,solid,I,z,755,9,1,20316.5,637141.8000001907,9080,ATS,C,9
8,test,2,C,mfborder.png,1,z,Mon Jun 01 2026 15:20:29 GMT-0400 (Eastern Daylight Time),659708.3000001907,CFD-WF-013-009-HC.jpg,1700,dash,I,z,527,1,1,22566.5,637141.8000001907,9080,ATS,C,10
9,test,2,C,mfborder.png,1,m,Mon Jun 01 2026 15:20:29 GMT-0400 (Eastern Daylight Time),661691.5999999046,CFD-WM-036-018-A.jpg,1200,dash,I,m,761,6,1,24549.799999713898,637141.8000001907,9080,ATS,C,11
10,test,2,C,mfborder.png,1,m,Mon Jun 01 2026 15:20:29 GMT-0400 (Eastern Daylight Time),664409.0,CFD-BM-043-014-A.jpg,2000,dash,I,m,698,5,1,27267.199999809265,637141.8000001907,9080,ATS,C,12
11,test,2,C,haborder.png,1,m,Mon Jun 01 2026 15:20:29 GMT-0400 (Eastern Daylight Time),666658.3000001907,CFD-BM-022-004-HC.jpg,1600,solid,I,m,621,10,1,29516.5,637141.8000001907,9080,ATS,C,13
12,test,2,C,mfborder.png,1,z,Mon Jun 01 2026 15:20:29 GMT-0400 (Eastern Daylight Time),669091.7000002861,CFD-WF-013-009-HC.jpg,1700,dash,I,z,703,1,1,31949.900000095367,637141.8000001907,9080,ATS,C,14
12,test,2,C,mfborder.png,0,z,Mon Jun 01 2026 15:20:29 GMT-0400 (Eastern Daylight Time),671591.7000002861,CFD-WF-023-013-A.jpg,1600,dash,I,m,882,2,1,34449.90000009537,637141.8000001907,9080,ATS,C,15
13,test,2,C,mfborder.png,1,m,Mon Jun 01 2026 15:20:29 GMT-0400 (Eastern Daylight Time),673658.3000001907,CFD-BM-034-035-HC.jpg,1000,dash,I,m,1046,4,1,36516.5,637141.8000001907,9080,ATS,C,16
14,test,2,C,mfborder.png,1,z,Mon Jun 01 2026 15:20:29 GMT-0400 (Eastern Daylight Time),676008.0,CFD-BF-019-004-HC.jpg,1500,dash,I,z,831,3,1,38866.199999809265,637141.8000001907,9080,ATS,C,17
15,test,2,C,haborder.png,1,m,Mon Jun 01 2026 15:20:29 GMT-0400 (Eastern Daylight Time),678574.9000000954,CFD-WM-028-005-HC.jpg,1500,solid,I,m,1041,11,1,41433.09999990463,637141.8000001907,9080,ATS,C,18
16,test,2,C,haborder.png,1,z,Mon Jun 01 2026 15:20:29 GMT-0400 (Eastern Daylight Time),680924.9000000954,CFD-BF-031-020-A.jpg,1400,solid,I,z,927,7,1,43783.09999990463,637141.8000001907,9080,ATS,C,19
16,test,2,C,haborder.png,0,z,Mon Jun 01 2026 15:20:29 GMT-0400 (Eastern Daylight Time),683575.0,CFD-WF-037-016-A.jpg,1700,solid,I,m,917,9,1,46433.199999809265,637141.8000001907,9080,ATS,C,20
17,test,2,C,haborder.png,1,z,Mon Jun 01 2026 15:20:29 GMT-0400 (Eastern Daylight Time),685841.5999999046,CFD-BF-031-020-A.jpg,1400,solid,I,z,839,7,1,48699.7999997139,637141.8000001907,9080,ATS,C,21
18,test,2,C,haborder.png,1,m,Mon Jun 01 2026 15:20:29 GMT-0400 (Eastern Daylight Time),687691.5999999046,CFD-WM-028-005-HC.jpg,1000,solid,I,m,828,12,1,50549.7999997139,637141.8000001907,9080,ATS,C,22
19,test,2,C,haborder.png,1,z,Mon Jun 01 2026 15:20:29 GMT-0400 (Eastern Daylight Time),690474.9000000954,CFD-BF-002-018-A.jpg,1900,solid,I,z,862,8,1,53333.09999990463,637141.8000001907,9080,ATS,C,23
20,test,2,C,mfborder.png,1,m,Mon Jun 01 2026 15:20:29 GMT-0400 (Eastern Daylight Time),693275.0,CFD-BM-043-014-A.jpg,2000,dash,I,m,779,5,1,56133.199999809265,637141.8000001907,9080,ATS,C,24
0,test,3,C,haborder.png,0,z,Mon Jun 01 2026 15:20:29 GMT-0400 (Eastern Daylight Time),696891.9000000954,CFD-WM-036-018-A.jpg,1400,solid,I,m,928,7,1,2350.0999999046326,694541.8000001907,9080,ATS,C,1
0,test,3,C,haborder.png,0,m,Mon Jun 01 2026 15:20:29 GMT-0400 (Eastern Daylight Time),699175.0,CFD-WF-001-010-HC.jpg,1500,solid,I,z,750,11,1,4633.199999809265,694541.8000001907,9080,ATS,C,2
0,test,3,C,haborder.png,0,z,Mon Jun 01 2026 15:20:29 GMT-0400 (Eastern Daylight Time),702141.7000002861,CFD-BM-043-014-A.jpg,1900,solid,I,m,1043,8,1,7599.900000095367,694541.8000001907,9080,ATS,C,3
1,test,3,C,mfborder.png,1,z,Mon Jun 01 2026 15:20:29 GMT-0400 (Eastern Daylight Time),704691.8000001907,CFD-BF-031-020-A.jpg,1600,dash,I,z,920,2,1,10150.0,694541.8000001907,9080,ATS,C,4
1,test,3,C,haborder.png,0,z,Mon Jun 01 2026 15:20:29 GMT-0400 (Eastern Daylight Time),707408.4000000954,CFD-BM-043-014-A.jpg,1900,solid,I,m,790,8,1,12866.599999904633,694541.8000001907,9080,ATS,C,5
1,test,3,C,haborder.png,0,m,Mon Jun 01 2026 15:20:29 GMT-0400 (Eastern Daylight Time),709675.0,CFD-WF-001-010-HC.jpg,1500,solid,I,z,746,11,1,15133.199999809265,694541.8000001907,9080,ATS,C,6
2,test,3,C,mfborder.png,1,m,Mon Jun 01 2026 15:20:29 GMT-0400 (Eastern Daylight Time),711491.5999999046,CFD-WM-035-036-HC.jpg,1000,dash,I,m,787,4,1,16949.799999713898,694541.8000001907,9080,ATS,C,7
3,test,3,C,mfborder.png,1,z,Mon Jun 01 2026 15:20:29 GMT-0400 (Eastern Daylight Time),714241.7000002861,CFD-WF-037-016-A.jpg,1500,dash,I,z,1222,3,1,19699.900000095367,694541.8000001907,9080,ATS,C,8
4,test,3,C,mfborder.png,1,m,Mon Jun 01 2026 15:20:29 GMT-0400 (Eastern Daylight Time),716208.3000001907,CFD-BM-022-004-HC.jpg,1200,dash,I,m,740,6,1,21666.5,694541.8000001907,9080,ATS,C,9
4,test,3,C,haborder.png,0,m,Mon Jun 01 2026 15:20:29 GMT-0400 (Eastern Daylight Time),717941.8000001907,CFD-WF-013-009-HC.jpg,1000,solid,I,z,702,12,1,23400.0,694541.8000001907,9080,ATS,C,10
5,test,3,C,haborder.png,1,m,Mon Jun 01 2026 15:20:29 GMT-0400 (Eastern Daylight Time),720158.5,CFD-BF-019-004-HC.jpg,1600,solid,I,m,592,10,1,25616.699999809265,694541.8000001907,9080,ATS,C,11
6,test,3,C,mfborder.png,1,z,Mon Jun 01 2026 15:20:29 GMT-0400 (Eastern Daylight Time),722491.7000002861,CFD-BF-042-031-HC.jpg,1700,dash,I,z,611,1,1,27949.900000095367,694541.8000001907,9080,ATS,C,12
6,test,3,C,haborder.png,0,z,Mon Jun 01 2026 15:20:29 GMT-0400 (Eastern Daylight Time),724908.3000001907,CFD-WM-036-018-A.jpg,1400,solid,I,m,994,7,1,30366.5,694541.8000001907,9080,ATS,C,13
6,test,3,C,haborder.png,0,m,Mon Jun 01 2026 15:20:29 GMT-0400 (Eastern Daylight Time),726541.8000001907,CFD-WF-013-009-HC.jpg,1000,solid,I,z,609,12,1,32000.0,694541.8000001907,9080,ATS,C,14
6,test,3,C,haborder.png,0,z,Mon Jun 01 2026 15:20:29 GMT-0400 (Eastern Daylight Time),729241.5,CFD-BM-021-026-A.jpg,1700,solid,I,m,980,9,1,34699.699999809265,694541.8000001907,9080,ATS,C,15
7,test,3,C,mfborder.png,1,z,Mon Jun 01 2026 15:20:29 GMT-0400 (Eastern Daylight Time),731824.9000000954,CFD-BF-031-020-A.jpg,1600,dash,I,z,956,2,1,37283.09999990463,694541.8000001907,9080,ATS,C,16
7,test,3,C,haborder.png,0,z,Mon Jun 01 2026 15:20:29 GMT-0400 (Eastern Daylight Time),734591.7000002861,CFD-BM-021-026-A.jpg,1700,solid,I,m,1041,9,1,40049.90000009537,694541.8000001907,9080,ATS,C,17
8,test,3,C,mfborder.png,1,m,Mon Jun 01 2026 15:20:29 GMT-0400 (Eastern Daylight Time),736591.7000002861,CFD-WM-035-036-HC.jpg,1000,dash,I,m,974,4,1,42049.90000009537,694541.8000001907,9080,ATS,C,18
9,test,3,C,mfborder.png,1,m,Mon Jun 01 2026 15:20:29 GMT-0400 (Eastern Daylight Time),739358.3000001907,CFD-WM-034-040-A.jpg,2000,dash,I,m,742,5,1,44816.5,694541.8000001907,9080,ATS,C,19
10,test,3,C,mfborder.png,1,z,Mon Jun 01 2026 15:20:29 GMT-0400 (Eastern Daylight Time),741591.9000000954,CFD-WF-037-016-A.jpg,1500,dash,I,z,715,3,1,47050.09999990463,694541.8000001907,9080,ATS,C,20
11,test,3,C,mfborder.png,1,m,Mon Jun 01 2026 15:20:29 GMT-0400 (Eastern Daylight Time),743591.7000002861,CFD-BM-022-004-HC.jpg,1200,dash,I,m,766,6,1,49049.90000009537,694541.8000001907,9080,ATS,C,21
12,test,3,C,mfborder.png,1,z,Mon Jun 01 2026 15:20:29 GMT-0400 (Eastern Daylight Time),746075.0,CFD-BF-042-031-HC.jpg,1700,dash,I,z,762,1,1,51533.199999809265,694541.8000001907,9080,ATS,C,22
13,test,3,C,mfborder.png,1,m,Mon Jun 01 2026 15:20:29 GMT-0400 (Eastern Daylight Time),749008.3000001907,CFD-WM-034-040-A.jpg,2000,dash,I,m,907,5,1,54466.5,694541.8000001907,9080,ATS,C,23
13,test,3,C,haborder.png,0,m,Mon Jun 01 2026 15:20:29 GMT-0400 (Eastern Daylight Time),751191.8000001907,CFD-BF-019-004-HC.jpg,1600,solid,I,z,549,10,1,56650.0,694541.8000001907,9080,ATS,C,24
1,test,4,C,mfborder.png,1,z,Mon Jun 01 2026 15:20:29 GMT-0400 (Eastern Daylight Time),754975.0999999046,CFD-WF-023-013-A.jpg,1600,dash,I,z,958,2,1,2583.2999997138977,752391.8000001907,9080,ATS,C,1
2,test,4,C,haborder.png,1,z,Mon Jun 01 2026 15:20:29 GMT-0400 (Eastern Daylight Time),756941.7000002861,CFD-BF-031-020-A.jpg,1400,solid,I,z,543,7,1,4549.900000095367,752391.8000001907,9080,ATS,C,2
3,test,4,C,haborder.png,1,z,Mon Jun 01 2026 15:20:29 GMT-0400 (Eastern Daylight Time),759258.3000001907,CFD-WF-037-016-A.jpg,1700,solid,I,z,596,9,1,6866.5,752391.8000001907,9080,ATS,C,3
3,test,4,C,haborder.png,0,z,Mon Jun 01 2026 15:20:29 GMT-0400 (Eastern Daylight Time),762691.8000001907,CFD-BF-002-018-A.jpg,1900,solid,I,None,1516,8,1,10300.0,752391.8000001907,9080,ATS,C,4
4,test,4,C,mfborder.png,1,m,Mon Jun 01 2026 15:20:29 GMT-0400 (Eastern Daylight Time),765791.7000002861,CFD-BM-043-014-A.jpg,2000,dash,I,m,1072,5,1,13399.900000095367,752391.8000001907,9080,ATS,C,5
5,test,4,C,mfborder.png,1,m,Mon Jun 01 2026 15:20:29 GMT-0400 (Eastern Daylight Time),768225.0999999046,CFD-BM-043-014-A.jpg,2000,dash,I,m,406,5,1,15833.299999713898,752391.8000001907,9080,ATS,C,6
5,test,4,C,mfborder.png,0,z,Mon Jun 01 2026 15:20:29 GMT-0400 (Eastern Daylight Time),770291.7000002861,CFD-BF-019-004-HC.jpg,1500,dash,I,m,537,3,1,17899.900000095367,752391.8000001907,9080,ATS,C,7
5,test,4,C,mfborder.png,0,z,Mon Jun 01 2026 15:20:29 GMT-0400 (Eastern Daylight Time),773391.7000002861,CFD-WF-013-009-HC.jpg,1700,dash,I,m,1374,1,1,20999.900000095367,752391.8000001907,9080,ATS,C,8
5,test,4,C,mfborder.png,0,m,Mon Jun 01 2026 15:20:29 GMT-0400 (Eastern Daylight Time),776125.0,CFD-WM-036-018-A.jpg,1200,dash,I,None,1516,6,1,23733.199999809265,752391.8000001907,9080,ATS,C,9
5,test,4,C,haborder.png,0,m,Mon Jun 01 2026 15:20:29 GMT-0400 (Eastern Daylight Time),779158.7000002861,CFD-WM-028-005-HC.jpg,1500,solid,I,None,1516,11,1,26766.900000095367,752391.8000001907,9080,ATS,C,10
6,test,4,C,mfborder.png,1,z,Mon Jun 01 2026 15:20:29 GMT-0400 (Eastern Daylight Time),781691.7000002861,CFD-WF-013-009-HC.jpg,1700,dash,I,z,811,1,1,29299.900000095367,752391.8000001907,9080,ATS,C,11
7,test,4,C,mfborder.png,1,m,Mon Jun 01 2026 15:20:29 GMT-0400 (Eastern Daylight Time),783375.0999999046,CFD-BM-034-035-HC.jpg,1000,dash,I,m,659,4,1,30983.299999713898,752391.8000001907,9080,ATS,C,12
7,test,4,C,mfborder.png,0,z,Mon Jun 01 2026 15:20:29 GMT-0400 (Eastern Daylight Time),785575.0,CFD-BF-019-004-HC.jpg,1500,dash,I,m,667,3,1,33183.199999809265,752391.8000001907,9080,ATS,C,13
8,test,4,C,mfborder.png,1,m,Mon Jun 01 2026 15:20:29 GMT-0400 (Eastern Daylight Time),787575.0,CFD-WM-036-018-A.jpg,1200,dash,I,m,767,6,1,35183.199999809265,752391.8000001907,9080,ATS,C,14
8,test,4,C,haborder.png,0,m,Mon Jun 01 2026 15:20:29 GMT-0400 (Eastern Daylight Time),789408.5,CFD-WM-028-005-HC.jpg,1000,solid,I,z,807,12,1,37016.699999809265,752391.8000001907,9080,ATS,C,15
9,test,4,C,haborder.png,1,z,Mon Jun 01 2026 15:20:29 GMT-0400 (Eastern Daylight Time),791841.7000002861,CFD-BF-031-020-A.jpg,1400,solid,I,z,1005,7,1,39449.90000009537,752391.8000001907,9080,ATS,C,16
10,test,4,C,mfborder.png,1,z,Mon Jun 01 2026 15:20:29 GMT-0400 (Eastern Daylight Time),794575.0999999046,CFD-WF-023-013-A.jpg,1600,dash,I,z,1108,2,1,42183.2999997139,752391.8000001907,9080,ATS,C,17
11,test,4,C,haborder.png,1,m,Mon Jun 01 2026 15:20:29 GMT-0400 (Eastern Daylight Time),796991.9000000954,CFD-BM-022-004-HC.jpg,1600,solid,I,m,791,10,1,44600.09999990463,752391.8000001907,9080,ATS,C,18
12,test,4,C,mfborder.png,1,m,Mon Jun 01 2026 15:20:29 GMT-0400 (Eastern Daylight Time),799141.8000001907,CFD-BM-034-035-HC.jpg,1000,dash,I,m,1118,4,1,46750.0,752391.8000001907,9080,ATS,C,19
13,test,4,C,haborder.png,1,m,Mon Jun 01 2026 15:20:29 GMT-0400 (Eastern Daylight Time),801374.9000000954,CFD-BM-022-004-HC.jpg,1600,solid,I,m,608,10,1,48983.09999990463,752391.8000001907,9080,ATS,C,20
14,test,4,C,haborder.png,1,z,Mon Jun 01 2026 15:20:29 GMT-0400 (Eastern Daylight Time),803925.2000002861,CFD-BF-002-018-A.jpg,1900,solid,I,z,619,8,1,51533.40000009537,752391.8000001907,9080,ATS,C,21
15,test,4,C,haborder.png,1,m,Mon Jun 01 2026 15:20:29 GMT-0400 (Eastern Daylight Time),805675.2000002861,CFD-WM-028-005-HC.jpg,1000,solid,I,m,729,12,1,53283.40000009537,752391.8000001907,9080,ATS,C,22
16,test,4,C,haborder.png,1,z,Mon Jun 01 2026 15:20:29 GMT-0400 (Eastern Daylight Time),808391.7000002861,CFD-WF-037-016-A.jpg,1700,solid,I,z,983,9,1,55999.90000009537,752391.8000001907,9080,ATS,C,23
17,test,4,C,haborder.png,1,m,Mon Jun 01 2026 15:20:29 GMT-0400 (Eastern Daylight Time),810758.4000000954,CFD-WM-028-005-HC.jpg,1500,solid,I,m,835,11,1,58366.59999990463,752391.8000001907,9080,ATS,C,24
