Number,acc_sum,block,block_c,block_cond,con_img,correct,correct_response,datetime,endtime,jitter,project,response,response_time,row_sel,session_number,start_end,starttime,subject_id,task,task_vers,trial
7,1,prac,1,A,circle.png,1,m,Thu Oct 02 2025 14:43:35 GMT-0400 (Eastern Daylight Time),71057.79999995232,1700,I,m,1224,6,1,3708.899999976158,67348.89999997616,9031,NTS,A,1
1,2,prac,1,A,circle.png,1,z,Thu Oct 02 2025 14:43:35 GMT-0400 (Eastern Daylight Time),73491.0,1000,I,z,640,1,1,2421.0,71070.0,9031,NTS,A,2
4,3,prac,1,A,circle.png,1,z,Thu Oct 02 2025 14:43:35 GMT-0400 (Eastern Daylight Time),76591.0,1400,I,z,911,4,1,3088.399999976158,73502.60000002384,9031,NTS,A,3
3,4,prac,1,A,circle.png,1,z,Thu Oct 02 2025 14:43:35 GMT-0400 (Eastern Daylight Time),79274.5,1200,I,z,683,3,1,2671.899999976158,76602.60000002384,9031,NTS,A,4
2,5,prac,1,A,circle.png,1,z,Thu Oct 02 2025 14:43:35 GMT-0400 (Eastern Daylight Time),82691.10000002384,2000,I,z,625,2,1,3404.399999976158,79286.70000004768,9031,NTS,A,5
7,6,prac,1,A,circle.png,1,m,Thu Oct 02 2025 14:43:35 GMT-0400 (Eastern Daylight Time),85807.29999995232,1700,I,m,610,6,1,3096.0999999046326,82711.20000004768,9031,NTS,A,6
9,7,prac,1,A,circle.png,1,m,Thu Oct 02 2025 14:43:35 GMT-0400 (Eastern Daylight Time),88691.20000004768,1500,I,m,591,8,1,2876.8000000715256,85814.39999997616,9031,NTS,A,7
3,8,prac,1,A,circle.png,1,z,Thu Oct 02 2025 14:43:35 GMT-0400 (Eastern Daylight Time),91291.0,1200,I,z,584,3,1,2579.600000023842,88711.39999997616,9031,NTS,A,8
6,9,prac,1,A,circle.png,1,m,Thu Oct 02 2025 14:43:35 GMT-0400 (Eastern Daylight Time),94673.79999995232,1900,I,m,691,5,1,3369.7999999523163,91304.0,9031,NTS,A,9
4,10,prac,1,A,circle.png,1,z,Thu Oct 02 2025 14:43:35 GMT-0400 (Eastern Daylight Time),97574.29999995232,1400,I,z,704,4,1,2891.899999976158,94682.39999997616,9031,NTS,A,10
9,11,prac,1,A,circle.png,1,m,Thu Oct 02 2025 14:43:35 GMT-0400 (Eastern Daylight Time),100357.79999995232,1500,I,m,488,8,1,2772.1999999284744,97585.60000002384,9031,NTS,A,11
8,12,prac,1,A,circle.png,1,m,Thu Oct 02 2025 14:43:35 GMT-0400 (Eastern Daylight Time),103424.29999995232,1600,I,m,678,7,1,3055.0999999046326,100369.20000004768,9031,NTS,A,12
3,1,prac,1,B,triangle.png,1,z,Thu Oct 02 2025 14:43:35 GMT-0400 (Eastern Daylight Time),143224.0,1600,I,z,804,3,1,3189.899999976158,140034.10000002384,9031,NTS,A,1
4,2,prac,1,B,triangle.png,1,m,Thu Oct 02 2025 14:43:35 GMT-0400 (Eastern Daylight Time),146207.70000004768,1500,I,m,696,4,1,2972.5,143235.20000004768,9031,NTS,A,2
1,3,prac,1,B,triangle.png,1,z,Thu Oct 02 2025 14:43:35 GMT-0400 (Eastern Daylight Time),149891.0,1900,I,z,993,1,1,3672.100000023842,146218.89999997616,9031,NTS,A,3
8,4,prac,1,B,triangle.png,1,m,Thu Oct 02 2025 14:43:35 GMT-0400 (Eastern Daylight Time),152541.0,1200,I,m,666,7,1,2640.0,149901.0,9031,NTS,A,4
2,5,prac,1,B,triangle.png,1,m,Thu Oct 02 2025 14:43:35 GMT-0400 (Eastern Daylight Time),155724.29999995232,1700,I,m,684,2,1,3172.5,152551.79999995232,9031,NTS,A,5
6,6,prac,1,B,triangle.png,1,m,Thu Oct 02 2025 14:43:35 GMT-0400 (Eastern Daylight Time),158141.10000002384,1000,I,m,631,5,1,2405.2000000476837,155735.89999997616,9031,NTS,A,6
1,7,prac,1,B,triangle.png,1,z,Thu Oct 02 2025 14:43:35 GMT-0400 (Eastern Daylight Time),161507.60000002384,1900,I,z,675,1,1,3355.0,158152.60000002384,9031,NTS,A,7
7,8,prac,1,B,triangle.png,1,z,Thu Oct 02 2025 14:43:35 GMT-0400 (Eastern Daylight Time),165324.29999995232,2000,I,z,1017,6,1,3806.6999999284744,161517.60000002384,9031,NTS,A,8
2,9,prac,1,B,triangle.png,1,m,Thu Oct 02 2025 14:43:35 GMT-0400 (Eastern Daylight Time),168591.0,1700,I,m,780,2,1,3255.100000023842,165335.89999997616,9031,NTS,A,9
4,10,prac,1,B,triangle.png,1,m,Thu Oct 02 2025 14:43:35 GMT-0400 (Eastern Daylight Time),171657.60000002384,1500,I,m,770,4,1,3056.2000000476837,168601.39999997616,9031,NTS,A,10
3,11,prac,1,B,triangle.png,1,z,Thu Oct 02 2025 14:43:35 GMT-0400 (Eastern Daylight Time),174857.70000004768,1600,I,z,802,3,1,3188.5,171669.20000004768,9031,NTS,A,11
9,12,prac,1,B,triangle.png,1,z,Thu Oct 02 2025 14:43:35 GMT-0400 (Eastern Daylight Time),178141.10000002384,1400,I,z,1099,8,1,3273.8000000715256,174867.29999995232,9031,NTS,A,12
4,1,test,1,A,circle.png,1,z,Thu Oct 02 2025 14:43:35 GMT-0400 (Eastern Daylight Time),197374.5,1400,I,z,1265,4,1,2690.5,194684.0,9031,NTS,A,1
3,2,test,1,A,circle.png,1,z,Thu Oct 02 2025 14:43:35 GMT-0400 (Eastern Daylight Time),199407.39999997616,1200,I,z,814,3,1,2023.5,197383.89999997616,9031,NTS,A,2
6,3,test,1,A,circle.png,1,m,Thu Oct 02 2025 14:43:35 GMT-0400 (Eastern Daylight Time),201907.5,1900,I,m,575,5,1,2490.600000023842,199416.89999997616,9031,NTS,A,3
1,4,test,1,A,circle.png,1,z,Thu Oct 02 2025 14:43:35 GMT-0400 (Eastern Daylight Time),203691.10000002384,1000,I,z,752,1,1,1774.6000000238419,201916.5,9031,NTS,A,4
2,5,test,1,A,circle.png,1,z,Thu Oct 02 2025 14:43:35 GMT-0400 (Eastern Daylight Time),206974.29999995232,2000,I,z,1247,2,1,3274.5,203699.79999995232,9031,NTS,A,5
9,6,test,1,A,circle.png,1,m,Thu Oct 02 2025 14:43:35 GMT-0400 (Eastern Daylight Time),209607.60000002384,1500,I,m,1105,8,1,2619.399999976158,206988.20000004768,9031,NTS,A,6
9,7,test,1,A,circle.png,1,m,Thu Oct 02 2025 14:43:35 GMT-0400 (Eastern Daylight Time),212157.60000002384,1500,I,m,1015,8,1,2540.899999976158,209616.70000004768,9031,NTS,A,7
7,8,test,1,A,circle.png,1,m,Thu Oct 02 2025 14:43:35 GMT-0400 (Eastern Daylight Time),214524.20000004768,1700,I,m,633,6,1,2357.7000000476837,212166.5,9031,NTS,A,8
4,9,test,1,A,circle.png,1,z,Thu Oct 02 2025 14:43:35 GMT-0400 (Eastern Daylight Time),216657.60000002384,1400,I,z,711,4,1,2124.0,214533.60000002384,9031,NTS,A,9
2,10,test,1,A,circle.png,1,z,Thu Oct 02 2025 14:43:35 GMT-0400 (Eastern Daylight Time),219891.0,2000,I,z,1210,2,1,3224.7999999523163,216666.20000004768,9031,NTS,A,10
8,11,test,1,A,circle.png,1,m,Thu Oct 02 2025 14:43:35 GMT-0400 (Eastern Daylight Time),222491.0,1600,I,m,969,7,1,2590.899999976158,219900.10000002384,9031,NTS,A,11
6,12,test,1,A,circle.png,1,m,Thu Oct 02 2025 14:43:35 GMT-0400 (Eastern Daylight Time),225107.20000004768,1900,I,m,692,5,1,2608.2000000476837,222499.0,9031,NTS,A,12
3,13,test,1,A,circle.png,1,z,Thu Oct 02 2025 14:43:35 GMT-0400 (Eastern Daylight Time),226957.5,1200,I,z,616,3,1,1845.1000000238419,225112.39999997616,9031,NTS,A,13
1,14,test,1,A,circle.png,1,z,Thu Oct 02 2025 14:43:35 GMT-0400 (Eastern Daylight Time),228657.60000002384,1000,I,z,678,1,1,1690.8000000715256,226966.79999995232,9031,NTS,A,14
1,15,test,1,A,circle.png,1,z,Thu Oct 02 2025 14:43:35 GMT-0400 (Eastern Daylight Time),230307.5,1000,I,z,625,1,1,1640.2000000476837,228667.29999995232,9031,NTS,A,15
3,16,test,1,A,circle.png,1,z,Thu Oct 02 2025 14:43:35 GMT-0400 (Eastern Daylight Time),232224.0,1200,I,z,696,3,1,1907.5,230316.5,9031,NTS,A,16
7,17,test,1,A,circle.png,1,m,Thu Oct 02 2025 14:43:35 GMT-0400 (Eastern Daylight Time),234424.29999995232,1700,I,m,470,6,1,2191.7999999523163,232232.5,9031,NTS,A,17
4,18,test,1,A,circle.png,1,z,Thu Oct 02 2025 14:43:35 GMT-0400 (Eastern Daylight Time),236507.60000002384,1400,I,z,652,4,1,2074.600000023842,234433.0,9031,NTS,A,18
1,19,test,1,A,circle.png,1,z,Thu Oct 02 2025 14:43:35 GMT-0400 (Eastern Daylight Time),238174.29999995232,1000,I,z,631,1,1,1655.7999999523163,236518.5,9031,NTS,A,19
9,20,test,1,A,circle.png,1,m,Thu Oct 02 2025 14:43:35 GMT-0400 (Eastern Daylight Time),240340.89999997616,1500,I,m,642,8,1,2157.100000023842,238183.79999995232,9031,NTS,A,20
6,21,test,1,A,circle.png,1,m,Thu Oct 02 2025 14:43:35 GMT-0400 (Eastern Daylight Time),243057.5,1900,I,m,794,5,1,2706.0,240351.5,9031,NTS,A,21
7,22,test,1,A,circle.png,1,m,Thu Oct 02 2025 14:43:35 GMT-0400 (Eastern Daylight Time),245390.70000004768,1700,I,m,614,6,1,2326.0,243064.70000004768,9031,NTS,A,22
8,23,test,1,A,circle.png,1,m,Thu Oct 02 2025 14:43:35 GMT-0400 (Eastern Daylight Time),247541.0,1600,I,m,525,7,1,2143.0,245398.0,9031,NTS,A,23
2,24,test,1,A,circle.png,1,z,Thu Oct 02 2025 14:43:35 GMT-0400 (Eastern Daylight Time),250191.70000004768,2000,I,z,631,2,1,2641.8000000715256,247549.89999997616,9031,NTS,A,24
6,1,test,1,B,triangle.png,1,m,Thu Oct 02 2025 14:43:35 GMT-0400 (Eastern Daylight Time),267590.7000000477,1500,I,m,756,13,1,2275.4000000953674,265315.2999999523,9031,NTS,A,1
1,2,test,1,B,triangle.png,1,z,Thu Oct 02 2025 14:43:35 GMT-0400 (Eastern Daylight Time),269674.2000000477,1400,I,z,654,9,1,2073.0,267601.2000000477,9031,NTS,A,2
8,3,test,1,B,triangle.png,1,m,Thu Oct 02 2025 14:43:35 GMT-0400 (Eastern Daylight Time),271891.0,1700,I,m,494,15,1,2207.5,269683.5,9031,NTS,A,3
4,4,test,1,B,triangle.png,1,m,Thu Oct 02 2025 14:43:35 GMT-0400 (Eastern Daylight Time),273691.0,1000,I,m,770,12,1,1790.1000000238419,271900.89999997616,9031,NTS,A,4
2,5,test,1,B,triangle.png,1,m,Thu Oct 02 2025 14:43:35 GMT-0400 (Eastern Daylight Time),275591.0,1200,I,m,674,10,1,1891.3999999761581,273699.60000002384,9031,NTS,A,5
3,6,test,1,B,triangle.png,1,z,Thu Oct 02 2025 14:43:35 GMT-0400 (Eastern Daylight Time),277941.0,1600,I,z,726,3,1,2342.399999976158,275598.60000002384,9031,NTS,A,6
9,7,test,1,B,triangle.png,1,z,Thu Oct 02 2025 14:43:35 GMT-0400 (Eastern Daylight Time),280357.7000000477,1400,I,z,992,8,1,2407.5,277950.2000000477,9031,NTS,A,7
1,8,test,1,B,triangle.png,1,z,Thu Oct 02 2025 14:43:35 GMT-0400 (Eastern Daylight Time),282974.2999999523,1900,I,z,699,1,1,2607.6999999284744,280366.60000002384,9031,NTS,A,8
7,9,test,1,B,triangle.png,1,z,Thu Oct 02 2025 14:43:35 GMT-0400 (Eastern Daylight Time),285824.10000002384,2000,I,z,830,6,1,2838.3000000715256,282985.7999999523,9031,NTS,A,9
2,10,test,1,B,triangle.png,1,m,Thu Oct 02 2025 14:43:35 GMT-0400 (Eastern Daylight Time),288357.7999999523,1700,I,m,808,2,1,2519.1999999284744,285838.60000002384,9031,NTS,A,10
4,11,test,1,B,triangle.png,1,m,Thu Oct 02 2025 14:43:35 GMT-0400 (Eastern Daylight Time),290524.39999997616,1500,I,m,634,4,1,2158.600000023842,288365.7999999523,9031,NTS,A,11
9,12,test,1,B,triangle.png,1,z,Thu Oct 02 2025 14:43:35 GMT-0400 (Eastern Daylight Time),292707.60000002384,1400,I,z,760,8,1,2175.3000000715256,290532.2999999523,9031,NTS,A,12
3,13,test,1,B,triangle.png,1,z,Thu Oct 02 2025 14:43:35 GMT-0400 (Eastern Daylight Time),295740.89999997616,2000,I,z,1000,11,1,3025.0,292715.89999997616,9031,NTS,A,13
6,14,test,1,B,triangle.png,1,m,Thu Oct 02 2025 14:43:35 GMT-0400 (Eastern Daylight Time),297540.89999997616,1000,I,m,776,5,1,1790.6000000238419,295750.2999999523,9031,NTS,A,14
9,15,test,1,B,triangle.png,1,z,Thu Oct 02 2025 14:43:35 GMT-0400 (Eastern Daylight Time),300490.89999997616,1900,I,z,1020,16,1,2941.7999999523163,297549.10000002384,9031,NTS,A,15
1,16,test,1,B,triangle.png,1,z,Thu Oct 02 2025 14:43:35 GMT-0400 (Eastern Daylight Time),302474.39999997616,1400,I,z,554,9,1,1972.2999999523163,300502.10000002384,9031,NTS,A,16
8,17,test,1,B,triangle.png,1,m,Thu Oct 02 2025 14:43:35 GMT-0400 (Eastern Daylight Time),304390.7999999523,1200,I,m,690,7,1,1908.5999999046326,302482.2000000477,9031,NTS,A,17
8,18,test,1,B,triangle.png,1,m,Thu Oct 02 2025 14:43:35 GMT-0400 (Eastern Daylight Time),306690.89999997616,1700,I,m,578,15,1,2291.6999999284744,304399.2000000477,9031,NTS,A,18
7,19,test,1,B,triangle.png,1,z,Thu Oct 02 2025 14:43:35 GMT-0400 (Eastern Daylight Time),309090.89999997616,1600,I,z,778,14,1,2390.5,306700.39999997616,9031,NTS,A,19
2,20,test,1,B,triangle.png,1,m,Thu Oct 02 2025 14:43:35 GMT-0400 (Eastern Daylight Time),311774.2999999523,1700,I,m,950,2,1,2669.2999999523163,309105.0,9031,NTS,A,20
6,21,test,1,B,triangle.png,1,m,Thu Oct 02 2025 14:43:35 GMT-0400 (Eastern Daylight Time),313907.60000002384,1500,I,m,610,13,1,2124.2000000476837,311783.39999997616,9031,NTS,A,21
3,22,test,1,B,triangle.png,1,z,Thu Oct 02 2025 14:43:35 GMT-0400 (Eastern Daylight Time),316157.39999997616,1600,I,z,616,3,1,2241.1999999284744,313916.2000000477,9031,NTS,A,22
9,23,test,1,B,triangle.png,1,z,Thu Oct 02 2025 14:43:35 GMT-0400 (Eastern Daylight Time),319574.39999997616,1900,I,z,1491,16,1,3409.5,316164.89999997616,9031,NTS,A,23
1,24,test,1,B,triangle.png,1,z,Thu Oct 02 2025 14:43:35 GMT-0400 (Eastern Daylight Time),322207.2999999523,1900,I,z,713,1,1,2623.7999999523163,319583.5,9031,NTS,A,24
4,0,prac,1,C,circle.png,0,z,Thu Oct 02 2025 14:43:35 GMT-0400 (Eastern Daylight Time),378507.7000000477,1000,I,None,1516,4,1,3289.8000000715256,375217.89999997616,9031,NTS,A,1
1,1,prac,1,C,circle.png,1,z,Thu Oct 02 2025 14:43:35 GMT-0400 (Eastern Daylight Time),382474.39999997616,1700,I,z,1469,1,1,3954.2999999523163,378520.10000002384,9031,NTS,A,2
9,1,prac,1,C,circle.png,0,m,Thu Oct 02 2025 14:43:35 GMT-0400 (Eastern Daylight Time),386674.2999999523,1900,I,None,1516,8,1,4190.699999928474,382483.60000002384,9031,NTS,A,3
3,1,prac,1,C,triangle.png,0,z,Thu Oct 02 2025 14:43:35 GMT-0400 (Eastern Daylight Time),390474.2999999523,1500,I,None,1516,3,1,3787.399999976158,386686.89999997616,9031,NTS,A,4
6,1,prac,1,C,circle.png,0,m,Thu Oct 02 2025 14:43:35 GMT-0400 (Eastern Daylight Time),394774.2999999523,2000,I,None,1515,5,1,4288.699999928474,390485.60000002384,9031,NTS,A,5
9,2,prac,1,C,circle.png,1,m,Thu Oct 02 2025 14:43:35 GMT-0400 (Eastern Daylight Time),398941.0,1900,I,m,1466,8,1,4156.299999952316,394784.7000000477,9031,NTS,A,6
2,2,prac,1,C,triangle.png,0,m,Thu Oct 02 2025 14:43:35 GMT-0400 (Eastern Daylight Time),402841.0,1600,I,None,1516,2,1,3889.899999976158,398951.10000002384,9031,NTS,A,7
6,2,prac,1,C,circle.png,0,m,Thu Oct 02 2025 14:43:35 GMT-0400 (Eastern Daylight Time),407140.60000002384,2000,I,None,1516,5,1,4288.600000023842,402852.0,9031,NTS,A,8
8,2,prac,1,C,triangle.png,0,m,Thu Oct 02 2025 14:43:35 GMT-0400 (Eastern Daylight Time),410840.89999997616,1400,I,None,1516,7,1,3690.7999999523163,407150.10000002384,9031,NTS,A,9
1,3,prac,1,C,circle.png,1,z,Thu Oct 02 2025 14:43:35 GMT-0400 (Eastern Daylight Time),414607.7999999523,1700,I,z,1279,1,1,3755.6999999284744,410852.10000002384,9031,NTS,A,10
7,4,prac,1,C,triangle.png,1,z,Thu Oct 02 2025 14:43:35 GMT-0400 (Eastern Daylight Time),418024.39999997616,1200,I,z,1420,6,1,3404.899999976158,414619.5,9031,NTS,A,11
4,5,prac,1,C,circle.png,1,z,Thu Oct 02 2025 14:43:35 GMT-0400 (Eastern Daylight Time),421307.7000000477,1000,I,z,1484,4,1,3274.2000000476837,418033.5,9031,NTS,A,12
4,1,prac,2,C,circle.png,1,z,Thu Oct 02 2025 14:43:35 GMT-0400 (Eastern Daylight Time),435907.7000000477,1000,I,z,1226,4,1,3006.4000000953674,432901.2999999523,9031,NTS,A,1
6,2,prac,2,C,circle.png,1,m,Thu Oct 02 2025 14:43:35 GMT-0400 (Eastern Daylight Time),439757.7999999523,2000,I,m,1065,5,1,3839.6999999284744,435918.10000002384,9031,NTS,A,2
9,3,prac,2,C,circle.png,1,m,Thu Oct 02 2025 14:43:35 GMT-0400 (Eastern Daylight Time),443257.7999999523,1900,I,m,802,8,1,3489.1999999284744,439768.60000002384,9031,NTS,A,3
8,4,prac,2,C,triangle.png,1,m,Thu Oct 02 2025 14:43:35 GMT-0400 (Eastern Daylight Time),446257.7999999523,1400,I,m,811,7,1,2987.899999976158,443269.89999997616,9031,NTS,A,4
2,4,prac,2,C,triangle.png,0,m,Thu Oct 02 2025 14:43:35 GMT-0400 (Eastern Daylight Time),449674.39999997616,1600,I,z,1019,2,1,3406.100000023842,446268.2999999523,9031,NTS,A,5
6,5,prac,2,C,circle.png,1,m,Thu Oct 02 2025 14:43:35 GMT-0400 (Eastern Daylight Time),453374.39999997616,2000,I,m,913,5,1,3689.5,449684.89999997616,9031,NTS,A,6
4,6,prac,2,C,circle.png,1,z,Thu Oct 02 2025 14:43:35 GMT-0400 (Eastern Daylight Time),456574.39999997616,1000,I,z,1414,4,1,3188.7999999523163,453385.60000002384,9031,NTS,A,7
9,7,prac,2,C,circle.png,1,m,Thu Oct 02 2025 14:43:35 GMT-0400 (Eastern Daylight Time),460391.2999999523,1900,I,m,1122,8,1,3807.5999999046326,456583.7000000477,9031,NTS,A,8
7,8,prac,2,C,triangle.png,1,z,Thu Oct 02 2025 14:43:35 GMT-0400 (Eastern Daylight Time),463557.7999999523,1200,I,z,1174,6,1,3155.7999999523163,460402.0,9031,NTS,A,9
1,9,prac,2,C,circle.png,1,z,Thu Oct 02 2025 14:43:35 GMT-0400 (Eastern Daylight Time),466874.39999997616,1700,I,z,819,1,1,3306.600000023842,463567.7999999523,9031,NTS,A,10
3,10,prac,2,C,triangle.png,1,z,Thu Oct 02 2025 14:43:35 GMT-0400 (Eastern Daylight Time),470141.0,1500,I,z,982,3,1,3254.7000000476837,466886.2999999523,9031,NTS,A,11
1,11,prac,2,C,circle.png,1,z,Thu Oct 02 2025 14:43:35 GMT-0400 (Eastern Daylight Time),473407.7999999523,1700,I,z,780,1,1,3257.399999976158,470150.39999997616,9031,NTS,A,12
3,1,test,1,C,circle.png,1,z,Thu Oct 02 2025 14:43:35 GMT-0400 (Eastern Daylight Time),506707.7000000477,1600,I,z,628,11,1,2242.2000000476837,504465.5,9031,NTS,A,1
9,2,test,1,C,triangle.png,1,z,Thu Oct 02 2025 14:43:35 GMT-0400 (Eastern Daylight Time),509407.60000002384,1400,I,z,1281,16,1,2690.2000000476837,506717.39999997616,9031,NTS,A,2
4,3,test,1,C,triangle.png,1,m,Thu Oct 02 2025 14:43:35 GMT-0400 (Eastern Daylight Time),511991.10000002384,1500,I,m,1057,20,1,2574.2000000476837,509416.89999997616,9031,NTS,A,3
9,3,test,1,C,circle.png,0,m,Thu Oct 02 2025 14:43:35 GMT-0400 (Eastern Daylight Time),515024.5,1500,I,None,1516,8,1,3024.100000023842,512000.39999997616,9031,NTS,A,4
6,3,test,1,C,circle.png,0,m,Thu Oct 02 2025 14:43:35 GMT-0400 (Eastern Daylight Time),518457.7000000477,1900,I,None,1516,21,1,3424.600000023842,515033.10000002384,9031,NTS,A,5
2,4,test,1,C,circle.png,1,z,Thu Oct 02 2025 14:43:35 GMT-0400 (Eastern Daylight Time),521241.0,1700,I,z,1055,18,1,2772.399999976158,518468.60000002384,9031,NTS,A,6
3,5,test,1,C,triangle.png,1,z,Thu Oct 02 2025 14:43:35 GMT-0400 (Eastern Daylight Time),523607.7000000477,1200,I,z,1140,3,1,2358.100000023842,521249.60000002384,9031,NTS,A,7
3,6,test,1,C,circle.png,1,z,Thu Oct 02 2025 14:43:35 GMT-0400 (Eastern Daylight Time),526141.0,1600,I,z,901,19,1,2524.600000023842,523616.39999997616,9031,NTS,A,8
2,6,test,1,C,circle.png,0,z,Thu Oct 02 2025 14:43:35 GMT-0400 (Eastern Daylight Time),528740.8999999762,1700,I,m,876,10,1,2590.399999976158,526150.5,9031,NTS,A,9
9,7,test,1,C,circle.png,1,m,Thu Oct 02 2025 14:43:35 GMT-0400 (Eastern Daylight Time),531324.3999999762,1500,I,m,1052,24,1,2574.399999976158,528750.0,9031,NTS,A,10
8,8,test,1,C,triangle.png,1,m,Thu Oct 02 2025 14:43:35 GMT-0400 (Eastern Daylight Time),533974.2999999523,1600,I,m,1024,7,1,2642.1999999284744,531332.1000000238,9031,NTS,A,11
7,9,test,1,C,triangle.png,1,z,Thu Oct 02 2025 14:43:35 GMT-0400 (Eastern Daylight Time),537174.5,1700,I,z,1474,22,1,3190.7000000476837,533983.7999999523,9031,NTS,A,12
6,9,test,1,C,triangle.png,0,m,Thu Oct 02 2025 14:43:35 GMT-0400 (Eastern Daylight Time),539707.8999999762,1000,I,None,1516,13,1,2525.5,537182.3999999762,9031,NTS,A,13
7,10,test,1,C,triangle.png,1,z,Thu Oct 02 2025 14:43:35 GMT-0400 (Eastern Daylight Time),542641.0,1700,I,z,1212,6,1,2924.5,539716.5,9031,NTS,A,14
6,11,test,1,C,circle.png,1,m,Thu Oct 02 2025 14:43:35 GMT-0400 (Eastern Daylight Time),545540.8999999762,1900,I,m,976,5,1,2890.6999999284744,542650.2000000477,9031,NTS,A,15
1,12,test,1,C,triangle.png,1,z,Thu Oct 02 2025 14:43:35 GMT-0400 (Eastern Daylight Time),548240.8999999762,1900,I,z,780,9,1,2688.600000023842,545552.2999999523,9031,NTS,A,16
8,12,test,1,C,circle.png,0,m,Thu Oct 02 2025 14:43:35 GMT-0400 (Eastern Daylight Time),550974.5,1200,I,None,1516,15,1,2725.0,548249.5,9031,NTS,A,17
4,13,test,1,C,triangle.png,1,m,Thu Oct 02 2025 14:43:35 GMT-0400 (Eastern Daylight Time),553590.7000000477,1500,I,m,1089,12,1,2607.100000023842,550983.6000000238,9031,NTS,A,18
7,14,test,1,C,circle.png,1,m,Thu Oct 02 2025 14:43:35 GMT-0400 (Eastern Daylight Time),556491.1000000238,2000,I,m,870,14,1,2894.5,553596.6000000238,9031,NTS,A,19
1,15,test,1,C,circle.png,1,z,Thu Oct 02 2025 14:43:35 GMT-0400 (Eastern Daylight Time),558374.2999999523,1000,I,z,858,1,1,1872.0,556502.2999999523,9031,NTS,A,20
8,15,test,1,C,triangle.png,0,m,Thu Oct 02 2025 14:43:35 GMT-0400 (Eastern Daylight Time),561507.7000000477,1600,I,None,1516,23,1,3124.8000000715256,558382.8999999762,9031,NTS,A,21
4,16,test,1,C,circle.png,1,z,Thu Oct 02 2025 14:43:35 GMT-0400 (Eastern Daylight Time),564124.3999999762,1400,I,z,1185,4,1,2608.399999976158,561516.0,9031,NTS,A,22
2,17,test,1,C,triangle.png,1,m,Thu Oct 02 2025 14:43:35 GMT-0400 (Eastern Daylight Time),567207.7000000477,2000,I,m,1056,2,1,3073.9000000953674,564133.7999999523,9031,NTS,A,23
1,18,test,1,C,triangle.png,1,z,Thu Oct 02 2025 14:43:35 GMT-0400 (Eastern Daylight Time),569924.2000000477,1900,I,z,793,17,1,2707.600000023842,567216.6000000238,9031,NTS,A,24
2,1,test,2,C,circle.png,1,z,Thu Oct 02 2025 14:43:35 GMT-0400 (Eastern Daylight Time),576557.8999999762,1700,I,z,1434,18,1,3160.1999999284744,573397.7000000477,9031,NTS,A,1
9,2,test,2,C,triangle.png,1,z,Thu Oct 02 2025 14:43:35 GMT-0400 (Eastern Daylight Time),579141.1000000238,1400,I,z,1160,24,1,2574.7000000476837,576566.3999999762,9031,NTS,A,2
1,3,test,2,C,circle.png,1,z,Thu Oct 02 2025 14:43:35 GMT-0400 (Eastern Daylight Time),581090.7999999523,1000,I,z,927,1,1,1940.7999999523163,579150.0,9031,NTS,A,3
6,4,test,2,C,triangle.png,1,m,Thu Oct 02 2025 14:43:35 GMT-0400 (Eastern Daylight Time),583324.5,1000,I,m,1202,13,1,2226.2999999523163,581098.2000000477,9031,NTS,A,4
4,5,test,2,C,triangle.png,1,m,Thu Oct 02 2025 14:43:35 GMT-0400 (Eastern Daylight Time),585674.3999999762,1500,I,m,820,12,1,2340.899999976158,583333.5,9031,NTS,A,5
1,6,test,2,C,triangle.png,1,z,Thu Oct 02 2025 14:43:35 GMT-0400 (Eastern Daylight Time),588574.3999999762,1900,I,z,982,9,1,2890.6999999284744,585683.7000000477,9031,NTS,A,6
9,7,test,2,C,circle.png,1,m,Thu Oct 02 2025 14:43:35 GMT-0400 (Eastern Daylight Time),590974.5,1500,I,m,867,8,1,2391.899999976158,588582.6000000238,9031,NTS,A,7
6,8,test,2,C,circle.png,1,m,Thu Oct 02 2025 14:43:35 GMT-0400 (Eastern Daylight Time),594057.7999999523,1900,I,m,1154,5,1,3074.1999999284744,590983.6000000238,9031,NTS,A,8
3,9,test,2,C,circle.png,1,z,Thu Oct 02 2025 14:43:35 GMT-0400 (Eastern Daylight Time),596590.7000000477,1600,I,z,915,11,1,2524.0,594066.7000000477,9031,NTS,A,9
4,9,test,2,C,triangle.png,0,m,Thu Oct 02 2025 14:43:35 GMT-0400 (Eastern Daylight Time),599624.3999999762,1500,I,None,1516,20,1,3026.899999976158,596597.5,9031,NTS,A,10
2,10,test,2,C,circle.png,1,z,Thu Oct 02 2025 14:43:35 GMT-0400 (Eastern Daylight Time),602274.2000000477,1700,I,z,927,10,1,2641.5,599632.7000000477,9031,NTS,A,11
3,11,test,2,C,circle.png,1,z,Thu Oct 02 2025 14:43:35 GMT-0400 (Eastern Daylight Time),604807.7999999523,1600,I,z,906,19,1,2524.6999999284744,602283.1000000238,9031,NTS,A,12
8,12,test,2,C,triangle.png,1,m,Thu Oct 02 2025 14:43:35 GMT-0400 (Eastern Daylight Time),607574.2999999523,1600,I,m,1141,7,1,2758.0,604816.2999999523,9031,NTS,A,13
3,13,test,2,C,triangle.png,1,z,Thu Oct 02 2025 14:43:35 GMT-0400 (Eastern Daylight Time),609807.5,1200,I,z,1014,3,1,2223.7999999523163,607583.7000000477,9031,NTS,A,14
9,14,test,2,C,triangle.png,1,z,Thu Oct 02 2025 14:43:35 GMT-0400 (Eastern Daylight Time),612390.8999999762,1400,I,z,1156,16,1,2573.899999976158,609817.0,9031,NTS,A,15
2,14,test,2,C,triangle.png,0,m,Thu Oct 02 2025 14:43:35 GMT-0400 (Eastern Daylight Time),615924.2999999523,2000,I,None,1516,2,1,3525.2999999523163,612399.0,9031,NTS,A,16
7,15,test,2,C,circle.png,1,m,Thu Oct 02 2025 14:43:35 GMT-0400 (Eastern Daylight Time),619074.2999999523,2000,I,m,1128,14,1,3140.899999976158,615933.3999999762,9031,NTS,A,17
8,16,test,2,C,circle.png,1,m,Thu Oct 02 2025 14:43:35 GMT-0400 (Eastern Daylight Time),621374.5,1200,I,m,1082,23,1,2291.7000000476837,619082.7999999523,9031,NTS,A,18
7,17,test,2,C,triangle.png,1,z,Thu Oct 02 2025 14:43:35 GMT-0400 (Eastern Daylight Time),623991.0,1700,I,z,890,6,1,2606.899999976158,621384.1000000238,9031,NTS,A,19
1,18,test,2,C,triangle.png,1,z,Thu Oct 02 2025 14:43:35 GMT-0400 (Eastern Daylight Time),626590.7000000477,1900,I,z,682,17,1,2592.0,623998.7000000477,9031,NTS,A,20
8,19,test,2,C,circle.png,1,m,Thu Oct 02 2025 14:43:35 GMT-0400 (Eastern Daylight Time),628791.0,1200,I,m,974,15,1,2185.899999976158,626605.1000000238,9031,NTS,A,21
4,20,test,2,C,circle.png,1,z,Thu Oct 02 2025 14:43:35 GMT-0400 (Eastern Daylight Time),631407.5,1400,I,z,1198,4,1,2607.7999999523163,628799.7000000477,9031,NTS,A,22
7,21,test,2,C,circle.png,1,m,Thu Oct 02 2025 14:43:35 GMT-0400 (Eastern Daylight Time),634491.1000000238,2000,I,m,1053,22,1,3075.3000000715256,631415.7999999523,9031,NTS,A,23
6,22,test,2,C,triangle.png,1,m,Thu Oct 02 2025 14:43:35 GMT-0400 (Eastern Daylight Time),637007.5,1000,I,m,1498,21,1,2504.5,634503.0,9031,NTS,A,24
1,1,test,3,C,circle.png,1,z,Thu Oct 02 2025 14:43:35 GMT-0400 (Eastern Daylight Time),642891.1000000238,1000,I,z,903,1,1,1925.1000000238419,640966.0,9031,NTS,A,1
2,2,test,3,C,circle.png,1,z,Thu Oct 02 2025 14:43:35 GMT-0400 (Eastern Daylight Time),645774.5,1700,I,z,1149,10,1,2873.899999976158,642900.6000000238,9031,NTS,A,2
4,3,test,3,C,circle.png,1,z,Thu Oct 02 2025 14:43:35 GMT-0400 (Eastern Daylight Time),648307.6000000238,1400,I,z,1110,20,1,2524.2000000476837,645783.3999999762,9031,NTS,A,3
4,4,test,3,C,triangle.png,1,m,Thu Oct 02 2025 14:43:35 GMT-0400 (Eastern Daylight Time),650674.5,1500,I,m,845,12,1,2355.399999976158,648319.1000000238,9031,NTS,A,4
6,5,test,3,C,circle.png,1,m,Thu Oct 02 2025 14:43:35 GMT-0400 (Eastern Daylight Time),653474.3999999762,1900,I,m,878,5,1,2785.2999999523163,650689.1000000238,9031,NTS,A,5
3,6,test,3,C,triangle.png,1,z,Thu Oct 02 2025 14:43:35 GMT-0400 (Eastern Daylight Time),655840.7999999523,1200,I,z,1145,3,1,2357.399999976158,653483.3999999762,9031,NTS,A,6
3,7,test,3,C,triangle.png,1,z,Thu Oct 02 2025 14:43:35 GMT-0400 (Eastern Daylight Time),657924.3999999762,1200,I,z,860,19,1,2076.5,655847.8999999762,9031,NTS,A,7
9,8,test,3,C,triangle.png,1,z,Thu Oct 02 2025 14:43:35 GMT-0400 (Eastern Daylight Time),660607.5,1400,I,z,1264,16,1,2667.600000023842,657939.8999999762,9031,NTS,A,8
8,9,test,3,C,triangle.png,1,m,Thu Oct 02 2025 14:43:35 GMT-0400 (Eastern Daylight Time),663407.6000000238,1600,I,m,1181,23,1,2791.2000000476837,660616.3999999762,9031,NTS,A,9
4,10,test,3,C,circle.png,1,z,Thu Oct 02 2025 14:43:35 GMT-0400 (Eastern Daylight Time),665774.3999999762,1400,I,z,933,4,1,2357.600000023842,663416.7999999523,9031,NTS,A,10
7,11,test,3,C,circle.png,1,m,Thu Oct 02 2025 14:43:35 GMT-0400 (Eastern Daylight Time),669007.5,2000,I,m,1214,14,1,3221.7000000476837,665785.7999999523,9031,NTS,A,11
6,12,test,3,C,circle.png,1,m,Thu Oct 02 2025 14:43:35 GMT-0400 (Eastern Daylight Time),671774.5,1900,I,m,849,21,1,2755.7000000476837,669018.7999999523,9031,NTS,A,12
1,13,test,3,C,triangle.png,1,z,Thu Oct 02 2025 14:43:35 GMT-0400 (Eastern Daylight Time),674707.7000000477,1900,I,z,1010,9,1,2924.8000000715256,671782.8999999762,9031,NTS,A,13
9,14,test,3,C,circle.png,1,m,Thu Oct 02 2025 14:43:35 GMT-0400 (Eastern Daylight Time),677340.8999999762,1500,I,m,1101,8,1,2622.5,674718.3999999762,9031,NTS,A,14
2,15,test,3,C,triangle.png,1,m,Thu Oct 02 2025 14:43:35 GMT-0400 (Eastern Daylight Time),680590.7999999523,2000,I,m,1232,18,1,3240.0,677350.7999999523,9031,NTS,A,15
7,16,test,3,C,triangle.png,1,z,Thu Oct 02 2025 14:43:35 GMT-0400 (Eastern Daylight Time),683324.3999999762,1700,I,z,1002,22,1,2724.7999999523163,680599.6000000238,9031,NTS,A,16
7,17,test,3,C,triangle.png,1,z,Thu Oct 02 2025 14:43:35 GMT-0400 (Eastern Daylight Time),686007.7000000477,1700,I,z,956,6,1,2674.100000023842,683333.6000000238,9031,NTS,A,17
2,18,test,3,C,triangle.png,1,m,Thu Oct 02 2025 14:43:35 GMT-0400 (Eastern Daylight Time),689190.7000000477,2000,I,m,1139,2,1,3168.2000000476837,686022.5,9031,NTS,A,18
8,19,test,3,C,circle.png,1,m,Thu Oct 02 2025 14:43:35 GMT-0400 (Eastern Daylight Time),691257.7999999523,1200,I,m,838,15,1,2062.0999999046326,689195.7000000477,9031,NTS,A,19
1,20,test,3,C,circle.png,1,z,Thu Oct 02 2025 14:43:35 GMT-0400 (Eastern Daylight Time),693324.2000000477,1000,I,z,1035,17,1,2053.2000000476837,691271.0,9031,NTS,A,20
3,21,test,3,C,circle.png,1,z,Thu Oct 02 2025 14:43:35 GMT-0400 (Eastern Daylight Time),696207.5,1600,I,z,1264,11,1,2874.899999976158,693332.6000000238,9031,NTS,A,21
8,22,test,3,C,triangle.png,1,m,Thu Oct 02 2025 14:43:35 GMT-0400 (Eastern Daylight Time),698941.2000000477,1600,I,m,1101,7,1,2724.0,696217.2000000477,9031,NTS,A,22
6,23,test,3,C,triangle.png,1,m,Thu Oct 02 2025 14:43:35 GMT-0400 (Eastern Daylight Time),700957.8999999762,1000,I,m,984,13,1,2007.3999999761581,698950.5,9031,NTS,A,23
9,24,test,3,C,circle.png,1,m,Thu Oct 02 2025 14:43:35 GMT-0400 (Eastern Daylight Time),703857.5,1500,I,m,1378,24,1,2887.600000023842,700969.8999999762,9031,NTS,A,24
4,1,test,4,C,circle.png,1,z,Thu Oct 02 2025 14:43:35 GMT-0400 (Eastern Daylight Time),709807.7999999523,1400,I,z,1031,4,1,2442.0,707365.7999999523,9031,NTS,A,1
7,2,test,4,C,circle.png,1,m,Thu Oct 02 2025 14:43:35 GMT-0400 (Eastern Daylight Time),712874.5,2000,I,m,1037,14,1,3058.5,709816.0,9031,NTS,A,2
8,3,test,4,C,triangle.png,1,m,Thu Oct 02 2025 14:43:35 GMT-0400 (Eastern Daylight Time),715441.0,1600,I,m,947,23,1,2557.100000023842,712883.8999999762,9031,NTS,A,3
8,4,test,4,C,circle.png,1,m,Thu Oct 02 2025 14:43:35 GMT-0400 (Eastern Daylight Time),717457.7000000477,1200,I,m,796,15,1,2004.3000000715256,715453.3999999762,9031,NTS,A,4
6,5,test,4,C,triangle.png,1,m,Thu Oct 02 2025 14:43:35 GMT-0400 (Eastern Daylight Time),719524.3999999762,1000,I,m,1043,13,1,2056.899999976158,717467.5,9031,NTS,A,5
4,6,test,4,C,triangle.png,1,m,Thu Oct 02 2025 14:43:35 GMT-0400 (Eastern Daylight Time),721757.7000000477,1500,I,m,700,12,1,2224.0,719533.7000000477,9031,NTS,A,6
9,7,test,4,C,circle.png,1,m,Thu Oct 02 2025 14:43:35 GMT-0400 (Eastern Daylight Time),724174.3999999762,1500,I,m,883,24,1,2407.1999999284744,721767.2000000477,9031,NTS,A,7
1,8,test,4,C,circle.png,1,z,Thu Oct 02 2025 14:43:35 GMT-0400 (Eastern Daylight Time),726074.3999999762,1000,I,z,870,1,1,1890.6000000238419,724183.7999999523,9031,NTS,A,8
2,9,test,4,C,triangle.png,1,m,Thu Oct 02 2025 14:43:35 GMT-0400 (Eastern Daylight Time),729024.1000000238,2000,I,m,930,2,1,2942.2000000476837,726081.8999999762,9031,NTS,A,9
3,10,test,4,C,circle.png,1,z,Thu Oct 02 2025 14:43:35 GMT-0400 (Eastern Daylight Time),731824.2000000477,1600,I,z,1180,11,1,2791.7000000476837,729032.5,9031,NTS,A,10
1,11,test,4,C,triangle.png,1,z,Thu Oct 02 2025 14:43:35 GMT-0400 (Eastern Daylight Time),734640.8999999762,1900,I,z,896,9,1,2808.0,731832.8999999762,9031,NTS,A,11
2,12,test,4,C,circle.png,1,z,Thu Oct 02 2025 14:43:35 GMT-0400 (Eastern Daylight Time),737474.3999999762,1700,I,z,1112,10,1,2823.100000023842,734651.2999999523,9031,NTS,A,12
2,13,test,4,C,triangle.png,1,m,Thu Oct 02 2025 14:43:35 GMT-0400 (Eastern Daylight Time),740491.1000000238,2000,I,m,986,18,1,3007.899999976158,737483.2000000477,9031,NTS,A,13
6,14,test,4,C,circle.png,1,m,Thu Oct 02 2025 14:43:35 GMT-0400 (Eastern Daylight Time),743274.5,1900,I,m,854,5,1,2772.7000000476837,740501.7999999523,9031,NTS,A,14
3,15,test,4,C,triangle.png,1,z,Thu Oct 02 2025 14:43:35 GMT-0400 (Eastern Daylight Time),745674.5,1200,I,z,1170,3,1,2389.7999999523163,743284.7000000477,9031,NTS,A,15
3,16,test,4,C,triangle.png,1,z,Thu Oct 02 2025 14:43:35 GMT-0400 (Eastern Daylight Time),748024.5,1200,I,z,1106,19,1,2335.0,745689.5,9031,NTS,A,16
1,17,test,4,C,circle.png,1,z,Thu Oct 02 2025 14:43:35 GMT-0400 (Eastern Daylight Time),749891.0,1000,I,z,844,17,1,1857.2000000476837,748033.7999999523,9031,NTS,A,17
8,18,test,4,C,triangle.png,1,m,Thu Oct 02 2025 14:43:35 GMT-0400 (Eastern Daylight Time),752574.5,1600,I,m,1050,7,1,2674.2000000476837,749900.2999999523,9031,NTS,A,18
9,19,test,4,C,circle.png,1,m,Thu Oct 02 2025 14:43:35 GMT-0400 (Eastern Daylight Time),755374.5,1500,I,m,1282,8,1,2791.7999999523163,752582.7000000477,9031,NTS,A,19
4,20,test,4,C,circle.png,1,z,Thu Oct 02 2025 14:43:35 GMT-0400 (Eastern Daylight Time),758107.8999999762,1400,I,z,1302,20,1,2725.1999999284744,755382.7000000477,9031,NTS,A,20
6,21,test,4,C,circle.png,1,m,Thu Oct 02 2025 14:43:35 GMT-0400 (Eastern Daylight Time),760907.7000000477,1900,I,m,869,21,1,2787.600000023842,758120.1000000238,9031,NTS,A,21
7,22,test,4,C,triangle.png,1,z,Thu Oct 02 2025 14:43:35 GMT-0400 (Eastern Daylight Time),763624.3999999762,1700,I,z,989,6,1,2707.100000023842,760917.2999999523,9031,NTS,A,22
7,23,test,4,C,triangle.png,1,z,Thu Oct 02 2025 14:43:35 GMT-0400 (Eastern Daylight Time),766174.5,1700,I,z,816,22,1,2540.2000000476837,763634.2999999523,9031,NTS,A,23
9,24,test,4,C,triangle.png,1,z,Thu Oct 02 2025 14:43:35 GMT-0400 (Eastern Daylight Time),768541.2000000477,1400,I,z,918,16,1,2351.9000000953674,766189.2999999523,9031,NTS,A,24
