acc_sum,block,block_c,change,condition,correct,correct_response,datetime,endtime,face,project,response,response_time,row_sel,session_number,start_end,starttime,subject_id,task,task_vers,trial
0,prac,1,,1-Back,,,Tue Feb 10 2026 09:50:55 GMT-0500 (Eastern Standard Time),,050_m_f_n_a.png,I,space,17679,1,1,,,9051,NNB,A,0
1,prac,1,0.0,1-Back,1.0,m,Tue Feb 10 2026 09:50:55 GMT-0500 (Eastern Standard Time),185511.5999994278,063_y_f_n_a.png,I,m,1834,2,1,2720.2999992370605,182791.30000019073,9051,NNB,A,1
1,prac,1,1.0,1-Back,0.0,z,Tue Feb 10 2026 09:50:55 GMT-0500 (Eastern Standard Time),188294.5,063_y_f_n_a.png,I,None,2004,3,1,2770.9000005722046,185523.5999994278,9051,NNB,A,2
1,prac,1,0.0,1-Back,0.0,m,Tue Feb 10 2026 09:50:55 GMT-0500 (Eastern Standard Time),191127.80000019073,053_o_m_n_a.png,I,None,2011,4,1,2820.5,188307.30000019073,9051,NNB,A,3
2,prac,1,0.0,1-Back,1.0,m,Tue Feb 10 2026 09:50:55 GMT-0500 (Eastern Standard Time),193161.0999994278,058_m_m_n_a.png,I,m,1208,5,1,2022.8999996185303,191138.19999980927,9051,NNB,A,4
3,prac,1,1.0,1-Back,1.0,z,Tue Feb 10 2026 09:50:55 GMT-0500 (Eastern Standard Time),195161.30000019073,058_m_m_n_a.png,I,z,1213,6,1,1985.8000001907349,193175.5,9051,NNB,A,5
4,prac,1,0.0,1-Back,1.0,m,Tue Feb 10 2026 09:50:55 GMT-0500 (Eastern Standard Time),197077.89999961853,047_o_f_n_a.png,I,m,1042,7,1,1901.5999994277954,195176.30000019073,9051,NNB,A,6
4,prac,1,0.0,1-Back,0.0,m,Tue Feb 10 2026 09:50:55 GMT-0500 (Eastern Standard Time),199094.5,045_m_m_n_a.png,I,z,1193,8,1,2003.0,197091.5,9051,NNB,A,7
5,prac,1,0.0,1-Back,1.0,m,Tue Feb 10 2026 09:50:55 GMT-0500 (Eastern Standard Time),200994.5999994278,050_m_f_n_a.png,I,m,1104,9,1,1885.8999996185303,199108.69999980927,9051,NNB,A,8
6,prac,1,1.0,1-Back,1.0,z,Tue Feb 10 2026 09:50:55 GMT-0500 (Eastern Standard Time),202727.89999961853,050_m_f_n_a.png,I,z,948,10,1,1718.3999996185303,201009.5,9051,NNB,A,9
7,prac,1,0.0,1-Back,1.0,m,Tue Feb 10 2026 09:50:55 GMT-0500 (Eastern Standard Time),204344.5999994278,053_o_m_n_a.png,I,m,830,11,1,1601.8999996185303,202742.69999980927,9051,NNB,A,10
8,prac,1,0.0,1-Back,1.0,m,Tue Feb 10 2026 09:50:55 GMT-0500 (Eastern Standard Time),206511.30000019073,010_y_f_n_a.png,I,m,1289,12,1,2155.0,204356.30000019073,9051,NNB,A,11
0,test,1,0.0,1-Back,,,Tue Feb 10 2026 09:50:55 GMT-0500 (Eastern Standard Time),206511.30000019073,063_y_f_n_a.png,I,space,22119,1,1,2155.0,204356.30000019073,9051,NNB,A,0
1,test,1,0.0,1-Back,1.0,m,Tue Feb 10 2026 09:50:55 GMT-0500 (Eastern Standard Time),247878.0,043_m_f_n_a.png,I,m,965,2,1,1969.0,245909.0,9051,NNB,A,1
2,test,1,0.0,1-Back,1.0,m,Tue Feb 10 2026 09:50:55 GMT-0500 (Eastern Standard Time),250110.89999961853,010_y_f_n_a.png,I,m,1205,3,1,2225.199999809265,247885.69999980927,9051,NNB,A,2
3,test,1,1.0,1-Back,1.0,z,Tue Feb 10 2026 09:50:55 GMT-0500 (Eastern Standard Time),251961.0,010_y_f_n_a.png,I,z,829,4,1,1843.1000003814697,250117.89999961853,9051,NNB,A,3
4,test,1,0.0,1-Back,1.0,m,Tue Feb 10 2026 09:50:55 GMT-0500 (Eastern Standard Time),253744.30000019073,043_m_f_n_a.png,I,m,755,5,1,1775.4000005722046,251968.89999961853,9051,NNB,A,4
5,test,1,0.0,1-Back,1.0,m,Tue Feb 10 2026 09:50:55 GMT-0500 (Eastern Standard Time),255877.5999994278,053_o_m_n_a.png,I,m,1101,6,1,2121.5999994277954,253756.0,9051,NNB,A,5
6,test,1,1.0,1-Back,1.0,z,Tue Feb 10 2026 09:50:55 GMT-0500 (Eastern Standard Time),257561.0,053_o_m_n_a.png,I,z,662,7,1,1674.6999998092651,255886.30000019073,9051,NNB,A,6
7,test,1,0.0,1-Back,1.0,m,Tue Feb 10 2026 09:50:55 GMT-0500 (Eastern Standard Time),259294.30000019073,058_m_m_n_a.png,I,m,707,8,1,1725.8000001907349,257568.5,9051,NNB,A,7
8,test,1,0.0,1-Back,1.0,m,Tue Feb 10 2026 09:50:55 GMT-0500 (Eastern Standard Time),261261.0,047_o_f_n_a.png,I,m,942,9,1,1955.6000003814697,259305.39999961853,9051,NNB,A,8
9,test,1,0.0,1-Back,1.0,m,Tue Feb 10 2026 09:50:55 GMT-0500 (Eastern Standard Time),263144.30000019073,058_m_m_n_a.png,I,m,862,10,1,1875.3000001907349,261269.0,9051,NNB,A,9
10,test,1,0.0,1-Back,1.0,m,Tue Feb 10 2026 09:50:55 GMT-0500 (Eastern Standard Time),265027.69999980927,041_y_m_n_a.png,I,m,852,11,1,1875.3000001907349,263152.39999961853,9051,NNB,A,10
11,test,1,1.0,1-Back,1.0,z,Tue Feb 10 2026 09:50:55 GMT-0500 (Eastern Standard Time),266777.5999994278,041_y_m_n_a.png,I,z,729,12,1,1743.0,265034.5999994278,9051,NNB,A,11
12,test,1,0.0,1-Back,1.0,m,Tue Feb 10 2026 09:50:55 GMT-0500 (Eastern Standard Time),268744.30000019073,044_o_f_n_a.png,I,m,947,13,1,1959.7000007629395,266784.5999994278,9051,NNB,A,12
13,test,1,1.0,1-Back,1.0,z,Tue Feb 10 2026 09:50:55 GMT-0500 (Eastern Standard Time),270710.69999980927,044_o_f_n_a.png,I,z,947,14,1,1957.8000001907349,268752.89999961853,9051,NNB,A,13
14,test,1,0.0,1-Back,1.0,m,Tue Feb 10 2026 09:50:55 GMT-0500 (Eastern Standard Time),272427.69999980927,008_y_m_n_a.png,I,m,693,15,1,1709.0,270718.69999980927,9051,NNB,A,14
15,test,1,0.0,1-Back,1.0,m,Tue Feb 10 2026 09:50:55 GMT-0500 (Eastern Standard Time),274294.19999980927,050_m_f_n_a.png,I,m,849,16,1,1859.3999996185303,272434.80000019073,9051,NNB,A,15
16,test,1,0.0,1-Back,1.0,m,Tue Feb 10 2026 09:50:55 GMT-0500 (Eastern Standard Time),276111.0,046_o_m_n_a.png,I,m,790,17,1,1806.5,274304.5,9051,NNB,A,16
17,test,1,0.0,1-Back,1.0,m,Tue Feb 10 2026 09:50:55 GMT-0500 (Eastern Standard Time),278044.30000019073,050_m_f_n_a.png,I,m,910,18,1,1926.1000003814697,276118.19999980927,9051,NNB,A,17
0,test,2,0.0,1-Back,,,Tue Feb 10 2026 09:50:55 GMT-0500 (Eastern Standard Time),278044.30000019073,058_m_m_n_a.png,I,space,3927,1,1,1926.1000003814697,276118.19999980927,9051,NNB,A,0
1,test,2,0.0,1-Back,1.0,m,Tue Feb 10 2026 09:50:55 GMT-0500 (Eastern Standard Time),286044.19999980927,043_m_f_n_a.png,I,m,1025,2,1,2039.8999996185303,284004.30000019073,9051,NNB,A,1
2,test,2,1.0,1-Back,1.0,z,Tue Feb 10 2026 09:50:55 GMT-0500 (Eastern Standard Time),287877.5999994278,043_m_f_n_a.png,I,z,799,3,1,1824.6999998092651,286052.89999961853,9051,NNB,A,2
3,test,2,0.0,1-Back,1.0,m,Tue Feb 10 2026 09:50:55 GMT-0500 (Eastern Standard Time),289711.0,058_m_m_n_a.png,I,m,807,4,1,1824.8000001907349,287886.19999980927,9051,NNB,A,3
4,test,2,0.0,1-Back,1.0,m,Tue Feb 10 2026 09:50:55 GMT-0500 (Eastern Standard Time),291560.89999961853,041_y_m_n_a.png,I,m,829,5,1,1841.5999994277954,289719.30000019073,9051,NNB,A,4
5,test,2,0.0,1-Back,1.0,m,Tue Feb 10 2026 09:50:55 GMT-0500 (Eastern Standard Time),293394.39999961853,063_y_f_n_a.png,I,m,803,6,1,1826.1999998092651,291568.19999980927,9051,NNB,A,5
6,test,2,1.0,1-Back,1.0,z,Tue Feb 10 2026 09:50:55 GMT-0500 (Eastern Standard Time),295127.30000019073,063_y_f_n_a.png,I,z,713,7,1,1724.2000007629395,293403.0999994278,9051,NNB,A,6
7,test,2,0.0,1-Back,1.0,m,Tue Feb 10 2026 09:50:55 GMT-0500 (Eastern Standard Time),297044.30000019073,041_y_m_n_a.png,I,m,884,8,1,1906.5,295137.80000019073,9051,NNB,A,7
8,test,2,0.0,1-Back,1.0,m,Tue Feb 10 2026 09:50:55 GMT-0500 (Eastern Standard Time),298760.80000019073,044_o_f_n_a.png,I,m,695,9,1,1707.6000003814697,297053.19999980927,9051,NNB,A,8
9,test,2,0.0,1-Back,1.0,m,Tue Feb 10 2026 09:50:55 GMT-0500 (Eastern Standard Time),300511.0,045_m_m_n_a.png,I,m,724,10,1,1741.1999998092651,298769.80000019073,9051,NNB,A,9
10,test,2,1.0,1-Back,1.0,z,Tue Feb 10 2026 09:50:55 GMT-0500 (Eastern Standard Time),302211.0,045_m_m_n_a.png,I,z,669,11,1,1692.0,300519.0,9051,NNB,A,10
11,test,2,0.0,1-Back,1.0,m,Tue Feb 10 2026 09:50:55 GMT-0500 (Eastern Standard Time),303910.80000019073,044_o_f_n_a.png,I,m,681,12,1,1691.8000001907349,302219.0,9051,NNB,A,11
12,test,2,0.0,1-Back,1.0,m,Tue Feb 10 2026 09:50:55 GMT-0500 (Eastern Standard Time),305777.69999980927,047_o_f_n_a.png,I,m,837,13,1,1856.3000001907349,303921.39999961853,9051,NNB,A,12
13,test,2,0.0,1-Back,1.0,m,Tue Feb 10 2026 09:50:55 GMT-0500 (Eastern Standard Time),307544.19999980927,053_o_m_n_a.png,I,m,746,14,1,1758.6000003814697,305785.5999994278,9051,NNB,A,13
14,test,2,0.0,1-Back,1.0,m,Tue Feb 10 2026 09:50:55 GMT-0500 (Eastern Standard Time),309294.30000019073,046_o_m_n_a.png,I,m,724,15,1,1742.3000001907349,307552.0,9051,NNB,A,14
15,test,2,1.0,1-Back,1.0,z,Tue Feb 10 2026 09:50:55 GMT-0500 (Eastern Standard Time),311244.19999980927,046_o_m_n_a.png,I,z,927,16,1,1939.5,309304.69999980927,9051,NNB,A,15
16,test,2,0.0,1-Back,1.0,m,Tue Feb 10 2026 09:50:55 GMT-0500 (Eastern Standard Time),312994.19999980927,008_y_m_n_a.png,I,m,719,17,1,1741.6999998092651,311252.5,9051,NNB,A,16
17,test,2,1.0,1-Back,1.0,z,Tue Feb 10 2026 09:50:55 GMT-0500 (Eastern Standard Time),314744.0999994278,008_y_m_n_a.png,I,z,729,18,1,1741.5999994277954,313002.5,9051,NNB,A,17
0,test,3,1.0,1-Back,,,Tue Feb 10 2026 09:50:55 GMT-0500 (Eastern Standard Time),314744.0999994278,010_y_f_n_a.png,I,space,1163,1,1,1741.5999994277954,313002.5,9051,NNB,A,0
1,test,3,0.0,1-Back,1.0,m,Tue Feb 10 2026 09:50:55 GMT-0500 (Eastern Standard Time),319777.5999994278,046_o_m_n_a.png,I,m,737,2,1,1757.7999992370605,318019.80000019073,9051,NNB,A,1
2,test,3,1.0,1-Back,1.0,z,Tue Feb 10 2026 09:50:55 GMT-0500 (Eastern Standard Time),321577.5,046_o_m_n_a.png,I,z,779,3,1,1791.4000005722046,319786.0999994278,9051,NNB,A,2
3,test,3,0.0,1-Back,1.0,m,Tue Feb 10 2026 09:50:55 GMT-0500 (Eastern Standard Time),323527.39999961853,050_m_f_n_a.png,I,m,931,4,1,1939.6999998092651,321587.69999980927,9051,NNB,A,3
4,test,3,1.0,1-Back,1.0,z,Tue Feb 10 2026 09:50:55 GMT-0500 (Eastern Standard Time),325594.19999980927,050_m_f_n_a.png,I,z,1044,5,1,2059.800000190735,323534.39999961853,9051,NNB,A,4
5,test,3,0.0,1-Back,1.0,m,Tue Feb 10 2026 09:50:55 GMT-0500 (Eastern Standard Time),327527.19999980927,044_o_f_n_a.png,I,m,913,6,1,1924.6000003814697,325602.5999994278,9051,NNB,A,5
6,test,3,0.0,1-Back,1.0,m,Tue Feb 10 2026 09:50:55 GMT-0500 (Eastern Standard Time),329327.69999980927,041_y_m_n_a.png,I,m,773,7,1,1795.8999996185303,327531.80000019073,9051,NNB,A,6
7,test,3,0.0,1-Back,1.0,m,Tue Feb 10 2026 09:50:55 GMT-0500 (Eastern Standard Time),331177.39999961853,044_o_f_n_a.png,I,m,828,8,1,1841.5,329335.89999961853,9051,NNB,A,7
8,test,3,0.0,1-Back,1.0,m,Tue Feb 10 2026 09:50:55 GMT-0500 (Eastern Standard Time),332994.30000019073,008_y_m_n_a.png,I,m,787,9,1,1809.4000005722046,331184.89999961853,9051,NNB,A,8
9,test,3,1.0,1-Back,1.0,z,Tue Feb 10 2026 09:50:55 GMT-0500 (Eastern Standard Time),334693.89999961853,008_y_m_n_a.png,I,z,681,10,1,1690.5999994277954,333003.30000019073,9051,NNB,A,9
10,test,3,0.0,1-Back,1.0,m,Tue Feb 10 2026 09:50:55 GMT-0500 (Eastern Standard Time),336494.30000019073,043_m_f_n_a.png,I,m,774,11,1,1792.9000005722046,334701.39999961853,9051,NNB,A,10
11,test,3,0.0,1-Back,1.0,m,Tue Feb 10 2026 09:50:55 GMT-0500 (Eastern Standard Time),338344.19999980927,063_y_f_n_a.png,I,m,830,12,1,1839.1999998092651,336505.0,9051,NNB,A,11
12,test,3,1.0,1-Back,1.0,z,Tue Feb 10 2026 09:50:55 GMT-0500 (Eastern Standard Time),340127.69999980927,063_y_f_n_a.png,I,z,755,13,1,1776.1000003814697,338351.5999994278,9051,NNB,A,12
13,test,3,0.0,1-Back,1.0,m,Tue Feb 10 2026 09:50:55 GMT-0500 (Eastern Standard Time),341927.39999961853,043_m_f_n_a.png,I,m,780,14,1,1791.5999994277954,340135.80000019073,9051,NNB,A,13
14,test,3,0.0,1-Back,1.0,m,Tue Feb 10 2026 09:50:55 GMT-0500 (Eastern Standard Time),343710.89999961853,058_m_m_n_a.png,I,m,757,15,1,1776.5,341934.39999961853,9051,NNB,A,14
15,test,3,1.0,1-Back,1.0,z,Tue Feb 10 2026 09:50:55 GMT-0500 (Eastern Standard Time),345460.89999961853,058_m_m_n_a.png,I,z,717,16,1,1741.8000001907349,343719.0999994278,9051,NNB,A,15
16,test,3,0.0,1-Back,1.0,m,Tue Feb 10 2026 09:50:55 GMT-0500 (Eastern Standard Time),347261.0,047_o_f_n_a.png,I,m,775,17,1,1789.4000005722046,345471.5999994278,9051,NNB,A,16
17,test,3,1.0,1-Back,1.0,z,Tue Feb 10 2026 09:50:55 GMT-0500 (Eastern Standard Time),349160.89999961853,047_o_f_n_a.png,I,z,879,18,1,1891.8000001907349,347269.0999994278,9051,NNB,A,17
0,test,4,1.0,1-Back,,,Tue Feb 10 2026 09:50:55 GMT-0500 (Eastern Standard Time),349160.89999961853,050_m_f_n_a.png,I,space,1115,1,1,1891.8000001907349,347269.0999994278,9051,NNB,A,0
1,test,4,0.0,1-Back,1.0,m,Tue Feb 10 2026 09:50:55 GMT-0500 (Eastern Standard Time),354111.0,046_o_m_n_a.png,I,m,790,2,1,1808.6999998092651,352302.30000019073,9051,NNB,A,1
2,test,4,0.0,1-Back,1.0,m,Tue Feb 10 2026 09:50:55 GMT-0500 (Eastern Standard Time),355827.5999994278,050_m_f_n_a.png,I,m,685,3,1,1708.6999998092651,354118.89999961853,9051,NNB,A,2
3,test,4,0.0,1-Back,1.0,m,Tue Feb 10 2026 09:50:55 GMT-0500 (Eastern Standard Time),357577.5,044_o_f_n_a.png,I,m,728,4,1,1741.9000005722046,355835.5999994278,9051,NNB,A,3
4,test,4,1.0,1-Back,1.0,z,Tue Feb 10 2026 09:50:55 GMT-0500 (Eastern Standard Time),359210.89999961853,044_o_f_n_a.png,I,z,610,5,1,1623.3999996185303,357587.5,9051,NNB,A,4
5,test,4,0.0,1-Back,1.0,m,Tue Feb 10 2026 09:50:55 GMT-0500 (Eastern Standard Time),361027.5999994278,063_y_f_n_a.png,I,m,785,6,1,1808.7999992370605,359218.80000019073,9051,NNB,A,5
6,test,4,0.0,1-Back,1.0,m,Tue Feb 10 2026 09:50:55 GMT-0500 (Eastern Standard Time),362744.0999994278,041_y_m_n_a.png,I,m,697,7,1,1708.1999998092651,361035.89999961853,9051,NNB,A,6
7,test,4,1.0,1-Back,1.0,z,Tue Feb 10 2026 09:50:55 GMT-0500 (Eastern Standard Time),364527.5,041_y_m_n_a.png,I,z,756,8,1,1772.1999998092651,362755.30000019073,9051,NNB,A,7
8,test,4,0.0,1-Back,1.0,m,Tue Feb 10 2026 09:50:55 GMT-0500 (Eastern Standard Time),366327.30000019073,063_y_f_n_a.png,I,m,780,9,1,1791.6000003814697,364535.69999980927,9051,NNB,A,8
9,test,4,0.0,1-Back,1.0,m,Tue Feb 10 2026 09:50:55 GMT-0500 (Eastern Standard Time),368177.5999994278,045_m_m_n_a.png,I,m,821,10,1,1843.0999994277954,366334.5,9051,NNB,A,9
10,test,4,1.0,1-Back,1.0,z,Tue Feb 10 2026 09:50:55 GMT-0500 (Eastern Standard Time),369926.89999961853,045_m_m_n_a.png,I,z,729,11,1,1740.8999996185303,368186.0,9051,NNB,A,10
11,test,4,0.0,1-Back,1.0,m,Tue Feb 10 2026 09:50:55 GMT-0500 (Eastern Standard Time),371827.5999994278,047_o_f_n_a.png,I,m,868,12,1,1896.3999996185303,369931.19999980927,9051,NNB,A,11
12,test,4,0.0,1-Back,1.0,m,Tue Feb 10 2026 09:50:55 GMT-0500 (Eastern Standard Time),373661.0,053_o_m_n_a.png,I,m,809,13,1,1822.6000003814697,371838.39999961853,9051,NNB,A,12
13,test,4,0.0,1-Back,1.0,m,Tue Feb 10 2026 09:50:55 GMT-0500 (Eastern Standard Time),375427.30000019073,047_o_f_n_a.png,I,m,735,14,1,1758.8000001907349,373668.5,9051,NNB,A,13
14,test,4,0.0,1-Back,1.0,m,Tue Feb 10 2026 09:50:55 GMT-0500 (Eastern Standard Time),377277.5999994278,010_y_f_n_a.png,I,m,825,15,1,1841.6999998092651,375435.89999961853,9051,NNB,A,14
15,test,4,1.0,1-Back,1.0,z,Tue Feb 10 2026 09:50:55 GMT-0500 (Eastern Standard Time),378927.5,010_y_f_n_a.png,I,z,622,16,1,1641.9000005722046,377285.5999994278,9051,NNB,A,15
16,test,4,0.0,1-Back,1.0,m,Tue Feb 10 2026 09:50:55 GMT-0500 (Eastern Standard Time),380777.5,043_m_f_n_a.png,I,m,829,17,1,1841.6999998092651,378935.80000019073,9051,NNB,A,16
17,test,4,1.0,1-Back,1.0,z,Tue Feb 10 2026 09:50:55 GMT-0500 (Eastern Standard Time),382594.19999980927,043_m_f_n_a.png,I,z,786,18,1,1806.8000001907349,380787.39999961853,9051,NNB,A,17
0,test,5,1.0,1-Back,,,Tue Feb 10 2026 09:50:55 GMT-0500 (Eastern Standard Time),382594.19999980927,053_o_m_n_a.png,I,space,1697,1,1,1806.8000001907349,380787.39999961853,9051,NNB,A,0
1,test,5,1.0,1-Back,1.0,z,Tue Feb 10 2026 09:50:55 GMT-0500 (Eastern Standard Time),388244.19999980927,053_o_m_n_a.png,I,z,901,2,1,1920.1000003814697,386324.0999994278,9051,NNB,A,1
2,test,5,0.0,1-Back,1.0,m,Tue Feb 10 2026 09:50:55 GMT-0500 (Eastern Standard Time),390160.89999961853,063_y_f_n_a.png,I,m,888,3,1,1908.3999996185303,388252.5,9051,NNB,A,2
3,test,5,0.0,1-Back,1.0,m,Tue Feb 10 2026 09:50:55 GMT-0500 (Eastern Standard Time),391943.89999961853,041_y_m_n_a.png,I,m,763,4,1,1773.5,390170.39999961853,9051,NNB,A,3
4,test,5,0.0,1-Back,1.0,m,Tue Feb 10 2026 09:50:55 GMT-0500 (Eastern Standard Time),393844.19999980927,063_y_f_n_a.png,I,m,868,5,1,1892.8999996185303,391951.30000019073,9051,NNB,A,4
5,test,5,0.0,1-Back,1.0,m,Tue Feb 10 2026 09:50:55 GMT-0500 (Eastern Standard Time),395610.80000019073,058_m_m_n_a.png,I,m,744,6,1,1759.7000007629395,393851.0999994278,9051,NNB,A,5
6,test,5,1.0,1-Back,1.0,z,Tue Feb 10 2026 09:50:55 GMT-0500 (Eastern Standard Time),397477.80000019073,058_m_m_n_a.png,I,z,849,7,1,1859.1000003814697,395618.69999980927,9051,NNB,A,6
7,test,5,0.0,1-Back,1.0,m,Tue Feb 10 2026 09:50:55 GMT-0500 (Eastern Standard Time),399294.19999980927,010_y_f_n_a.png,I,m,791,8,1,1807.8000001907349,397486.39999961853,9051,NNB,A,7
8,test,5,0.0,1-Back,1.0,m,Tue Feb 10 2026 09:50:55 GMT-0500 (Eastern Standard Time),400943.5999994278,008_y_m_n_a.png,I,m,621,9,1,1637.5,399306.0999994278,9051,NNB,A,8
9,test,5,0.0,1-Back,1.0,m,Tue Feb 10 2026 09:50:55 GMT-0500 (Eastern Standard Time),402877.39999961853,010_y_f_n_a.png,I,m,909,10,1,1929.5999994277954,400947.80000019073,9051,NNB,A,9
10,test,5,0.0,1-Back,1.0,m,Tue Feb 10 2026 09:50:55 GMT-0500 (Eastern Standard Time),404627.5999994278,047_o_f_n_a.png,I,m,718,11,1,1739.1999998092651,402888.39999961853,9051,NNB,A,10
11,test,5,1.0,1-Back,1.0,z,Tue Feb 10 2026 09:50:55 GMT-0500 (Eastern Standard Time),406994.19999980927,047_o_f_n_a.png,I,z,1336,12,1,2358.6000003814697,404635.5999994278,9051,NNB,A,11
12,test,5,0.0,1-Back,1.0,m,Tue Feb 10 2026 09:50:55 GMT-0500 (Eastern Standard Time),408944.19999980927,046_o_m_n_a.png,I,m,922,13,1,1941.1999998092651,407003.0,9051,NNB,A,12
13,test,5,0.0,1-Back,1.0,m,Tue Feb 10 2026 09:50:55 GMT-0500 (Eastern Standard Time),410777.5,050_m_f_n_a.png,I,m,813,14,1,1822.3000001907349,408955.19999980927,9051,NNB,A,13
14,test,5,1.0,1-Back,1.0,z,Tue Feb 10 2026 09:50:55 GMT-0500 (Eastern Standard Time),412377.5,050_m_f_n_a.png,I,z,578,15,1,1591.9000005722046,410785.5999994278,9051,NNB,A,14
15,test,5,0.0,1-Back,1.0,m,Tue Feb 10 2026 09:50:55 GMT-0500 (Eastern Standard Time),414010.80000019073,046_o_m_n_a.png,I,m,610,16,1,1626.6000003814697,412384.19999980927,9051,NNB,A,15
16,test,5,0.0,1-Back,1.0,m,Tue Feb 10 2026 09:50:55 GMT-0500 (Eastern Standard Time),415860.89999961853,043_m_f_n_a.png,I,m,817,17,1,1841.0999994277954,414019.80000019073,9051,NNB,A,16
17,test,5,0.0,1-Back,1.0,m,Tue Feb 10 2026 09:50:55 GMT-0500 (Eastern Standard Time),417594.0999994278,045_m_m_n_a.png,I,m,711,18,1,1725.2999992370605,415868.80000019073,9051,NNB,A,17
0,prac,1,0.0,2-Back,,,Tue Feb 10 2026 09:50:55 GMT-0500 (Eastern Standard Time),417594.0999994278,008_y_m_n_a.png,I,space,17240,1,1,1725.2999992370605,415868.80000019073,9051,NNB,A,0
0,prac,1,0.0,2-Back,,,Tue Feb 10 2026 09:50:55 GMT-0500 (Eastern Standard Time),417594.0999994278,043_m_f_n_a.png,I,space,17240,2,1,1725.2999992370605,415868.80000019073,9051,NNB,A,0
1,prac,1,1.0,2-Back,1.0,m,Tue Feb 10 2026 09:50:55 GMT-0500 (Eastern Standard Time),574777.6999998093,046_o_m_n_a.png,I,m,1660,3,1,2472.8999996185303,572304.8000001907,9051,NNB,A,1
2,prac,1,0.0,2-Back,1.0,m,Tue Feb 10 2026 09:50:55 GMT-0500 (Eastern Standard Time),577444.0999994278,047_o_f_n_a.png,I,m,1778,4,1,2655.199999809265,574788.8999996185,9051,NNB,A,2
3,prac,1,0.0,2-Back,1.0,z,Tue Feb 10 2026 09:50:55 GMT-0500 (Eastern Standard Time),579544.0999994278,046_o_m_n_a.png,I,z,1320,5,1,2090.0999994277954,577454.0,9051,NNB,A,3
4,prac,1,1.0,2-Back,1.0,z,Tue Feb 10 2026 09:50:55 GMT-0500 (Eastern Standard Time),582143.5999994278,047_o_f_n_a.png,I,z,1811,6,1,2590.2999992370605,579553.3000001907,9051,NNB,A,4
5,prac,1,0.0,2-Back,1.0,m,Tue Feb 10 2026 09:50:55 GMT-0500 (Eastern Standard Time),584844.0999994278,045_m_m_n_a.png,I,m,1872,7,1,2691.699999809265,582152.3999996185,9051,NNB,A,5
6,prac,1,0.0,2-Back,1.0,m,Tue Feb 10 2026 09:50:55 GMT-0500 (Eastern Standard Time),586960.8000001907,053_o_m_n_a.png,I,m,1285,8,1,2106.1000003814697,584854.6999998093,9051,NNB,A,6
7,prac,1,0.0,2-Back,1.0,m,Tue Feb 10 2026 09:50:55 GMT-0500 (Eastern Standard Time),589244.0999994278,010_y_f_n_a.png,I,m,1414,9,1,2274.0,586970.0999994278,9051,NNB,A,7
8,prac,1,1.0,2-Back,1.0,z,Tue Feb 10 2026 09:50:55 GMT-0500 (Eastern Standard Time),591327.5,053_o_m_n_a.png,I,z,1295,10,1,2072.6000003814697,589254.8999996185,9051,NNB,A,8
9,prac,1,0.0,2-Back,1.0,m,Tue Feb 10 2026 09:50:55 GMT-0500 (Eastern Standard Time),593577.5,063_y_f_n_a.png,I,m,1413,11,1,2239.1000003814697,591338.3999996185,9051,NNB,A,9
10,prac,1,0.0,2-Back,1.0,m,Tue Feb 10 2026 09:50:55 GMT-0500 (Eastern Standard Time),596027.5,045_m_m_n_a.png,I,m,1665,12,1,2439.800000190735,593587.6999998093,9051,NNB,A,10
0,test,1,0.0,2-Back,,,Tue Feb 10 2026 09:50:55 GMT-0500 (Eastern Standard Time),596027.5,041_y_m_n_a.png,I,space,19088,1,1,2439.800000190735,593587.6999998093,9051,NNB,A,0
0,test,1,0.0,2-Back,,,Tue Feb 10 2026 09:50:55 GMT-0500 (Eastern Standard Time),596027.5,041_y_m_n_a.png,I,space,19088,2,1,2439.800000190735,593587.6999998093,9051,NNB,A,0
1,test,1,0.0,2-Back,1.0,m,Tue Feb 10 2026 09:50:55 GMT-0500 (Eastern Standard Time),636894.1999998093,047_o_f_n_a.png,I,m,1707,3,1,2724.300000190735,634169.8999996185,9051,NNB,A,1
2,test,1,0.0,2-Back,1.0,m,Tue Feb 10 2026 09:50:55 GMT-0500 (Eastern Standard Time),639277.1999998093,058_m_m_n_a.png,I,m,1358,4,1,2374.699999809265,636902.5,9051,NNB,A,2
3,test,1,1.0,2-Back,1.0,z,Tue Feb 10 2026 09:50:55 GMT-0500 (Eastern Standard Time),641843.5,047_o_f_n_a.png,I,z,1533,5,1,2558.699999809265,639284.8000001907,9051,NNB,A,3
4,test,1,0.0,2-Back,1.0,m,Tue Feb 10 2026 09:50:55 GMT-0500 (Eastern Standard Time),644060.5999994278,063_y_f_n_a.png,I,m,1192,6,1,2212.8999996185303,641847.6999998093,9051,NNB,A,4
4,test,1,0.0,2-Back,0.0,m,Tue Feb 10 2026 09:50:55 GMT-0500 (Eastern Standard Time),646410.3999996185,058_m_m_n_a.png,I,z,1327,7,1,2339.8999996185303,644070.5,9051,NNB,A,5
5,test,1,1.0,2-Back,1.0,z,Tue Feb 10 2026 09:50:55 GMT-0500 (Eastern Standard Time),648677.8000001907,063_y_f_n_a.png,I,z,1248,8,1,2256.6000003814697,646421.1999998093,9051,NNB,A,6
6,test,1,0.0,2-Back,1.0,m,Tue Feb 10 2026 09:50:55 GMT-0500 (Eastern Standard Time),650910.5999994278,008_y_m_n_a.png,I,m,1206,9,1,2224.699999809265,648685.8999996185,9051,NNB,A,7
7,test,1,0.0,2-Back,1.0,m,Tue Feb 10 2026 09:50:55 GMT-0500 (Eastern Standard Time),652893.8000001907,044_o_f_n_a.png,I,m,957,10,1,1975.2000007629395,650918.5999994278,9051,NNB,A,8
8,test,1,1.0,2-Back,1.0,z,Tue Feb 10 2026 09:50:55 GMT-0500 (Eastern Standard Time),655077.0999994278,008_y_m_n_a.png,I,z,1150,11,1,2175.0,652902.0999994278,9051,NNB,A,9
9,test,1,0.0,2-Back,1.0,m,Tue Feb 10 2026 09:50:55 GMT-0500 (Eastern Standard Time),657193.8000001907,043_m_f_n_a.png,I,m,1094,12,1,2109.2000007629395,655084.5999994278,9051,NNB,A,10
9,test,1,0.0,2-Back,0.0,m,Tue Feb 10 2026 09:50:55 GMT-0500 (Eastern Standard Time),660227.5999994278,043_m_f_n_a.png,I,None,2016,13,1,3025.699999809265,657201.8999996185,9051,NNB,A,11
10,test,1,0.0,2-Back,1.0,m,Tue Feb 10 2026 09:50:55 GMT-0500 (Eastern Standard Time),662193.8999996185,046_o_m_n_a.png,I,m,937,14,1,1955.8999996185303,660238.0,9051,NNB,A,12
11,test,1,0.0,2-Back,1.0,m,Tue Feb 10 2026 09:50:55 GMT-0500 (Eastern Standard Time),664293.6999998093,044_o_f_n_a.png,I,m,1082,15,1,2090.5,662203.1999998093,9051,NNB,A,13
12,test,1,1.0,2-Back,1.0,z,Tue Feb 10 2026 09:50:55 GMT-0500 (Eastern Standard Time),666127.1999998093,046_o_m_n_a.png,I,z,806,16,1,1824.8000001907349,664302.3999996185,9051,NNB,A,14
13,test,1,0.0,2-Back,1.0,m,Tue Feb 10 2026 09:50:55 GMT-0500 (Eastern Standard Time),668077.1999998093,050_m_f_n_a.png,I,m,925,17,1,1941.5,666135.6999998093,9051,NNB,A,15
14,test,1,0.0,2-Back,1.0,m,Tue Feb 10 2026 09:50:55 GMT-0500 (Eastern Standard Time),670260.5,045_m_m_n_a.png,I,m,1151,18,1,2176.199999809265,668084.3000001907,9051,NNB,A,16
0,test,2,0.0,2-Back,,,Tue Feb 10 2026 09:50:55 GMT-0500 (Eastern Standard Time),670260.5,045_m_m_n_a.png,I,space,1935,1,1,2176.199999809265,668084.3000001907,9051,NNB,A,0
0,test,2,0.0,2-Back,,,Tue Feb 10 2026 09:50:55 GMT-0500 (Eastern Standard Time),670260.5,010_y_f_n_a.png,I,space,1935,2,1,2176.199999809265,668084.3000001907,9051,NNB,A,0
1,test,2,1.0,2-Back,1.0,z,Tue Feb 10 2026 09:50:55 GMT-0500 (Eastern Standard Time),679910.1999998093,045_m_m_n_a.png,I,z,1548,3,1,2558.0,677352.1999998093,9051,NNB,A,1
2,test,2,0.0,2-Back,1.0,m,Tue Feb 10 2026 09:50:55 GMT-0500 (Eastern Standard Time),682110.3999996185,050_m_f_n_a.png,I,m,1172,4,1,2189.0,679921.3999996185,9051,NNB,A,2
2,test,2,0.0,2-Back,0.0,m,Tue Feb 10 2026 09:50:55 GMT-0500 (Eastern Standard Time),684343.5999994278,010_y_f_n_a.png,I,z,1213,5,1,2224.699999809265,682118.8999996185,9051,NNB,A,3
3,test,2,0.0,2-Back,1.0,m,Tue Feb 10 2026 09:50:55 GMT-0500 (Eastern Standard Time),686326.8999996185,046_o_m_n_a.png,I,m,964,6,1,1975.8999996185303,684351.0,9051,NNB,A,4
3,test,2,0.0,2-Back,0.0,m,Tue Feb 10 2026 09:50:55 GMT-0500 (Eastern Standard Time),688393.8000001907,063_y_f_n_a.png,I,z,1045,7,1,2060.800000190735,686333.0,9051,NNB,A,5
4,test,2,1.0,2-Back,1.0,z,Tue Feb 10 2026 09:50:55 GMT-0500 (Eastern Standard Time),690543.8000001907,046_o_m_n_a.png,I,z,1122,8,1,2142.800000190735,688401.0,9051,NNB,A,6
5,test,2,0.0,2-Back,1.0,m,Tue Feb 10 2026 09:50:55 GMT-0500 (Eastern Standard Time),692443.8000001907,008_y_m_n_a.png,I,m,876,9,1,1891.6000003814697,690552.1999998093,9051,NNB,A,7
6,test,2,0.0,2-Back,1.0,m,Tue Feb 10 2026 09:50:55 GMT-0500 (Eastern Standard Time),695360.5,008_y_m_n_a.png,I,m,1888,10,1,2908.699999809265,692451.8000001907,9051,NNB,A,8
7,test,2,0.0,2-Back,1.0,m,Tue Feb 10 2026 09:50:55 GMT-0500 (Eastern Standard Time),698160.5,043_m_f_n_a.png,I,m,1772,11,1,2791.0,695369.5,9051,NNB,A,9
8,test,2,0.0,2-Back,1.0,m,Tue Feb 10 2026 09:50:55 GMT-0500 (Eastern Standard Time),700277.5999994278,010_y_f_n_a.png,I,m,1099,12,1,2109.199999809265,698168.3999996185,9051,NNB,A,10
9,test,2,1.0,2-Back,1.0,z,Tue Feb 10 2026 09:50:55 GMT-0500 (Eastern Standard Time),702643.8999996185,043_m_f_n_a.png,I,z,1335,13,1,2359.0999994277954,700284.8000001907,9051,NNB,A,11
10,test,2,0.0,2-Back,1.0,m,Tue Feb 10 2026 09:50:55 GMT-0500 (Eastern Standard Time),704643.8999996185,053_o_m_n_a.png,I,m,968,14,1,1992.8999996185303,702651.0,9051,NNB,A,12
11,test,2,0.0,2-Back,1.0,m,Tue Feb 10 2026 09:50:55 GMT-0500 (Eastern Standard Time),707277.1999998093,053_o_m_n_a.png,I,m,1608,15,1,2626.199999809265,704651.0,9051,NNB,A,13
12,test,2,0.0,2-Back,1.0,m,Tue Feb 10 2026 09:50:55 GMT-0500 (Eastern Standard Time),709360.5,044_o_f_n_a.png,I,m,1055,16,1,2074.9000005722046,707285.5999994278,9051,NNB,A,14
13,test,2,0.0,2-Back,1.0,m,Tue Feb 10 2026 09:50:55 GMT-0500 (Eastern Standard Time),711410.3999996185,058_m_m_n_a.png,I,m,1019,17,1,2038.5999994277954,709371.8000001907,9051,NNB,A,15
14,test,2,1.0,2-Back,1.0,z,Tue Feb 10 2026 09:50:55 GMT-0500 (Eastern Standard Time),713310.5,044_o_f_n_a.png,I,z,873,18,1,1891.0,711419.5,9051,NNB,A,16
0,test,3,1.0,2-Back,,,Tue Feb 10 2026 09:50:55 GMT-0500 (Eastern Standard Time),713310.5,041_y_m_n_a.png,I,space,1461,1,1,1891.0,711419.5,9051,NNB,A,0
0,test,3,1.0,2-Back,,,Tue Feb 10 2026 09:50:55 GMT-0500 (Eastern Standard Time),713310.5,041_y_m_n_a.png,I,space,1461,2,1,1891.0,711419.5,9051,NNB,A,0
1,test,3,0.0,2-Back,1.0,m,Tue Feb 10 2026 09:50:55 GMT-0500 (Eastern Standard Time),722010.3999996185,044_o_f_n_a.png,I,m,1127,3,1,2142.800000190735,719867.5999994278,9051,NNB,A,1
2,test,3,0.0,2-Back,1.0,m,Tue Feb 10 2026 09:50:55 GMT-0500 (Eastern Standard Time),723993.8999996185,045_m_m_n_a.png,I,m,962,4,1,1974.3999996185303,722019.5,9051,NNB,A,2
3,test,3,1.0,2-Back,1.0,z,Tue Feb 10 2026 09:50:55 GMT-0500 (Eastern Standard Time),726193.8000001907,044_o_f_n_a.png,I,z,1170,5,1,2192.5,724001.3000001907,9051,NNB,A,3
4,test,3,0.0,2-Back,1.0,m,Tue Feb 10 2026 09:50:55 GMT-0500 (Eastern Standard Time),728211.3000001907,008_y_m_n_a.png,I,m,986,6,1,2009.4000005722046,726201.8999996185,9051,NNB,A,4
4,test,3,0.0,2-Back,0.0,m,Tue Feb 10 2026 09:50:55 GMT-0500 (Eastern Standard Time),730312.5,045_m_m_n_a.png,I,z,1081,7,1,2093.699999809265,728218.8000001907,9051,NNB,A,5
4,test,3,1.0,2-Back,0.0,z,Tue Feb 10 2026 09:50:55 GMT-0500 (Eastern Standard Time),732560.5,008_y_m_n_a.png,I,m,1221,8,1,2240.800000190735,730319.6999998093,9051,NNB,A,6
5,test,3,0.0,2-Back,1.0,m,Tue Feb 10 2026 09:50:55 GMT-0500 (Eastern Standard Time),734477.1999998093,010_y_f_n_a.png,I,m,892,9,1,1908.8000001907349,732568.3999996185,9051,NNB,A,7
6,test,3,0.0,2-Back,1.0,m,Tue Feb 10 2026 09:50:55 GMT-0500 (Eastern Standard Time),736577.0999994278,058_m_m_n_a.png,I,m,1071,10,1,2091.5,734485.5999994278,9051,NNB,A,8
7,test,3,1.0,2-Back,1.0,z,Tue Feb 10 2026 09:50:55 GMT-0500 (Eastern Standard Time),738277.3999996185,010_y_f_n_a.png,I,z,683,11,1,1691.8999996185303,736585.5,9051,NNB,A,9
8,test,3,1.0,2-Back,1.0,z,Tue Feb 10 2026 09:50:55 GMT-0500 (Eastern Standard Time),740293.6999998093,058_m_m_n_a.png,I,z,999,12,1,2009.3999996185303,738284.3000001907,9051,NNB,A,10
9,test,3,0.0,2-Back,1.0,m,Tue Feb 10 2026 09:50:55 GMT-0500 (Eastern Standard Time),742127.0999994278,044_o_f_n_a.png,I,m,806,13,1,1826.8999996185303,740300.1999998093,9051,NNB,A,11
10,test,3,0.0,2-Back,1.0,m,Tue Feb 10 2026 09:50:55 GMT-0500 (Eastern Standard Time),744060.5,050_m_f_n_a.png,I,m,909,14,1,1925.3000001907349,742135.1999998093,9051,NNB,A,12
11,test,3,0.0,2-Back,1.0,m,Tue Feb 10 2026 09:50:55 GMT-0500 (Eastern Standard Time),746060.3999996185,046_o_m_n_a.png,I,m,976,15,1,1991.0,744069.3999996185,9051,NNB,A,13
12,test,3,1.0,2-Back,1.0,z,Tue Feb 10 2026 09:50:55 GMT-0500 (Eastern Standard Time),747993.8000001907,050_m_f_n_a.png,I,z,911,16,1,1925.4000005722046,746068.3999996185,9051,NNB,A,14
13,test,3,0.0,2-Back,1.0,m,Tue Feb 10 2026 09:50:55 GMT-0500 (Eastern Standard Time),750027.1999998093,047_o_f_n_a.png,I,m,1010,17,1,2026.3000001907349,748000.8999996185,9051,NNB,A,15
14,test,3,0.0,2-Back,1.0,m,Tue Feb 10 2026 09:50:55 GMT-0500 (Eastern Standard Time),752160.3999996185,047_o_f_n_a.png,I,m,1105,18,1,2125.800000190735,750034.5999994278,9051,NNB,A,16
0,test,4,0.0,2-Back,,,Tue Feb 10 2026 09:50:55 GMT-0500 (Eastern Standard Time),752160.3999996185,053_o_m_n_a.png,I,space,1219,1,1,2125.800000190735,750034.5999994278,9051,NNB,A,0
0,test,4,0.0,2-Back,,,Tue Feb 10 2026 09:50:55 GMT-0500 (Eastern Standard Time),752160.3999996185,063_y_f_n_a.png,I,space,1219,2,1,2125.800000190735,750034.5999994278,9051,NNB,A,0
1,test,4,1.0,2-Back,1.0,z,Tue Feb 10 2026 09:50:55 GMT-0500 (Eastern Standard Time),760360.3000001907,053_o_m_n_a.png,I,z,796,3,1,1807.4000005722046,758552.8999996185,9051,NNB,A,1
2,test,4,1.0,2-Back,1.0,z,Tue Feb 10 2026 09:50:55 GMT-0500 (Eastern Standard Time),762243.8000001907,063_y_f_n_a.png,I,z,850,4,1,1875.9000005722046,760367.8999996185,9051,NNB,A,2
3,test,4,0.0,2-Back,1.0,m,Tue Feb 10 2026 09:50:55 GMT-0500 (Eastern Standard Time),764210.3999996185,044_o_f_n_a.png,I,m,935,5,1,1958.3000001907349,762252.0999994278,9051,NNB,A,3
4,test,4,0.0,2-Back,1.0,m,Tue Feb 10 2026 09:50:55 GMT-0500 (Eastern Standard Time),766377.0999994278,044_o_f_n_a.png,I,m,1145,6,1,2158.0999994277954,764219.0,9051,NNB,A,4
5,test,4,0.0,2-Back,1.0,m,Tue Feb 10 2026 09:50:55 GMT-0500 (Eastern Standard Time),768793.6999998093,043_m_f_n_a.png,I,m,1395,7,1,2408.199999809265,766385.5,9051,NNB,A,5
6,test,4,0.0,2-Back,1.0,m,Tue Feb 10 2026 09:50:55 GMT-0500 (Eastern Standard Time),770726.6999998093,008_y_m_n_a.png,I,m,915,8,1,1925.0,768801.6999998093,9051,NNB,A,6
7,test,4,1.0,2-Back,1.0,z,Tue Feb 10 2026 09:50:55 GMT-0500 (Eastern Standard Time),772460.3999996185,043_m_f_n_a.png,I,z,709,9,1,1725.8000001907349,770734.5999994278,9051,NNB,A,7
8,test,4,0.0,2-Back,1.0,m,Tue Feb 10 2026 09:50:55 GMT-0500 (Eastern Standard Time),774377.0,058_m_m_n_a.png,I,m,896,10,1,1905.1000003814697,772471.8999996185,9051,NNB,A,8
9,test,4,0.0,2-Back,1.0,m,Tue Feb 10 2026 09:50:55 GMT-0500 (Eastern Standard Time),777160.3000001907,008_y_m_n_a.png,I,m,1763,11,1,2775.4000005722046,774384.8999996185,9051,NNB,A,9
10,test,4,0.0,2-Back,1.0,m,Tue Feb 10 2026 09:50:55 GMT-0500 (Eastern Standard Time),779227.0999994278,047_o_f_n_a.png,I,m,1044,12,1,2059.2999992370605,777167.8000001907,9051,NNB,A,10
11,test,4,0.0,2-Back,1.0,m,Tue Feb 10 2026 09:50:55 GMT-0500 (Eastern Standard Time),781243.5,041_y_m_n_a.png,I,m,993,13,1,2008.0,779235.5,9051,NNB,A,11
12,test,4,1.0,2-Back,1.0,z,Tue Feb 10 2026 09:50:55 GMT-0500 (Eastern Standard Time),783193.6999998093,047_o_f_n_a.png,I,z,928,14,1,1942.6999998092651,781251.0,9051,NNB,A,12
13,test,4,1.0,2-Back,1.0,z,Tue Feb 10 2026 09:50:55 GMT-0500 (Eastern Standard Time),785093.6999998093,041_y_m_n_a.png,I,z,882,15,1,1889.6999998092651,783204.0,9051,NNB,A,13
14,test,4,0.0,2-Back,1.0,m,Tue Feb 10 2026 09:50:55 GMT-0500 (Eastern Standard Time),787027.0999994278,045_m_m_n_a.png,I,m,902,16,1,1926.7999992370605,785100.3000001907,9051,NNB,A,14
15,test,4,0.0,2-Back,1.0,m,Tue Feb 10 2026 09:50:55 GMT-0500 (Eastern Standard Time),789077.0,050_m_f_n_a.png,I,m,983,17,1,2014.9000005722046,787062.0999994278,9051,NNB,A,15
16,test,4,1.0,2-Back,1.0,z,Tue Feb 10 2026 09:50:55 GMT-0500 (Eastern Standard Time),790860.3999996185,045_m_m_n_a.png,I,z,759,18,1,1775.3000001907349,789085.0999994278,9051,NNB,A,16
0,test,5,1.0,2-Back,,,Tue Feb 10 2026 09:50:55 GMT-0500 (Eastern Standard Time),790860.3999996185,041_y_m_n_a.png,I,space,1287,1,1,1775.3000001907349,789085.0999994278,9051,NNB,A,0
0,test,5,1.0,2-Back,,,Tue Feb 10 2026 09:50:55 GMT-0500 (Eastern Standard Time),790860.3999996185,050_m_f_n_a.png,I,space,1287,2,1,1775.3000001907349,789085.0999994278,9051,NNB,A,0
1,test,5,1.0,2-Back,1.0,z,Tue Feb 10 2026 09:50:55 GMT-0500 (Eastern Standard Time),799277.0999994278,041_y_m_n_a.png,I,z,991,3,1,2005.2999992370605,797271.8000001907,9051,NNB,A,1
2,test,5,1.0,2-Back,1.0,z,Tue Feb 10 2026 09:50:55 GMT-0500 (Eastern Standard Time),801343.6999998093,050_m_f_n_a.png,I,z,1039,4,1,2059.300000190735,799284.3999996185,9051,NNB,A,2
3,test,5,0.0,2-Back,1.0,m,Tue Feb 10 2026 09:50:55 GMT-0500 (Eastern Standard Time),803260.5,047_o_f_n_a.png,I,m,892,5,1,1909.4000005722046,801351.0999994278,9051,NNB,A,3
4,test,5,0.0,2-Back,1.0,m,Tue Feb 10 2026 09:50:55 GMT-0500 (Eastern Standard Time),805410.3999996185,041_y_m_n_a.png,I,m,1119,6,1,2141.0999994277954,803269.3000001907,9051,NNB,A,4
5,test,5,0.0,2-Back,1.0,m,Tue Feb 10 2026 09:50:55 GMT-0500 (Eastern Standard Time),807410.3000001907,010_y_f_n_a.png,I,m,969,7,1,1992.9000005722046,805417.3999996185,9051,NNB,A,5
6,test,5,0.0,2-Back,1.0,m,Tue Feb 10 2026 09:50:55 GMT-0500 (Eastern Standard Time),810143.8000001907,047_o_f_n_a.png,I,m,1706,8,1,2725.4000005722046,807418.3999996185,9051,NNB,A,6
7,test,5,1.0,2-Back,1.0,z,Tue Feb 10 2026 09:50:55 GMT-0500 (Eastern Standard Time),811943.5999994278,010_y_f_n_a.png,I,z,780,9,1,1792.3999996185303,810151.1999998093,9051,NNB,A,7
8,test,5,0.0,2-Back,1.0,m,Tue Feb 10 2026 09:50:55 GMT-0500 (Eastern Standard Time),813926.8000001907,046_o_m_n_a.png,I,m,963,10,1,1974.6000003814697,811952.1999998093,9051,NNB,A,8
9,test,5,0.0,2-Back,1.0,m,Tue Feb 10 2026 09:50:55 GMT-0500 (Eastern Standard Time),815893.8999996185,043_m_f_n_a.png,I,m,933,11,1,1959.1999998092651,813934.6999998093,9051,NNB,A,9
10,test,5,0.0,2-Back,1.0,m,Tue Feb 10 2026 09:50:55 GMT-0500 (Eastern Standard Time),817793.6999998093,058_m_m_n_a.png,I,m,871,12,1,1890.5,815903.1999998093,9051,NNB,A,10
11,test,5,0.0,2-Back,1.0,m,Tue Feb 10 2026 09:50:55 GMT-0500 (Eastern Standard Time),819977.0,046_o_m_n_a.png,I,m,1162,13,1,2175.6000003814697,817801.3999996185,9051,NNB,A,11
12,test,5,1.0,2-Back,1.0,z,Tue Feb 10 2026 09:50:55 GMT-0500 (Eastern Standard Time),822093.5999994278,058_m_m_n_a.png,I,z,1091,14,1,2107.7999992370605,819985.8000001907,9051,NNB,A,12
13,test,5,0.0,2-Back,1.0,m,Tue Feb 10 2026 09:50:55 GMT-0500 (Eastern Standard Time),824210.3999996185,063_y_f_n_a.png,I,m,1085,15,1,2109.300000190735,822101.0999994278,9051,NNB,A,13
14,test,5,0.0,2-Back,1.0,m,Tue Feb 10 2026 09:50:55 GMT-0500 (Eastern Standard Time),826176.6999998093,053_o_m_n_a.png,I,m,936,16,1,1958.3000001907349,824218.3999996185,9051,NNB,A,14
15,test,5,0.0,2-Back,1.0,m,Tue Feb 10 2026 09:50:55 GMT-0500 (Eastern Standard Time),828110.0999994278,043_m_f_n_a.png,I,m,906,17,1,1928.2999992370605,826181.8000001907,9051,NNB,A,15
16,test,5,1.0,2-Back,1.0,z,Tue Feb 10 2026 09:50:55 GMT-0500 (Eastern Standard Time),830677.0999994278,053_o_m_n_a.png,I,z,1533,18,1,2559.0999994277954,828118.0,9051,NNB,A,16
