block_c,block_dur,condition,countdown,datetime,endtime,list,multichar_response,project,response,response_time,session_number,start_end,starttime,subject_id,task,task_vers,trial
,,,,Thu Dec 04 2025 10:09:09 GMT-0600 (Central Standard Time),,,,O,space,1339,1,,,7706,WL,B,
prac,,0,,Thu Dec 04 2025 10:09:09 GMT-0600 (Central Standard Time),,NA,b,O,b,2337,1,,,7706,WL,B,1.0
prac,,0,,Thu Dec 04 2025 10:09:09 GMT-0600 (Central Standard Time),,NA,bo,O,o,252,1,,,7706,WL,B,1.0
prac,,0,,Thu Dec 04 2025 10:09:09 GMT-0600 (Central Standard Time),,NA,boo,O,o,169,1,,,7706,WL,B,1.0
prac,,0,,Thu Dec 04 2025 10:09:09 GMT-0600 (Central Standard Time),,NA,boos,O,s,200,1,,,7706,WL,B,1.0
prac,,0,,Thu Dec 04 2025 10:09:09 GMT-0600 (Central Standard Time),,NA,boost,O,t,332,1,,,7706,WL,B,1.0
prac,,0,,Thu Dec 04 2025 10:09:09 GMT-0600 (Central Standard Time),,NA,boostenter,O,enter,2720,1,,,7706,WL,B,1.0
1,0.9000000953674316,learn,59099.99990463257,Thu Dec 04 2025 10:09:09 GMT-0600 (Central Standard Time),114133.70000004768,A,s,O,s,877,1,899.2000000476837,113234.5,7706,WL,B,1.0
1,1.2660000324249268,learn,58733.99996757507,Thu Dec 04 2025 10:09:09 GMT-0600 (Central Standard Time),114500.10000002384,A,st,O,t,344,1,1265.6000000238419,113234.5,7706,WL,B,1.0
1,1.6480000019073486,learn,58351.99999809265,Thu Dec 04 2025 10:09:09 GMT-0600 (Central Standard Time),114882.20000004768,A,str,O,r,372,1,1647.7000000476837,113234.5,7706,WL,B,1.0
1,2.001000165939331,learn,57998.99983406067,Thu Dec 04 2025 10:09:09 GMT-0600 (Central Standard Time),115235.0,A,stre,O,e,345,1,2000.5,113234.5,7706,WL,B,1.0
1,2.199000120162964,learn,57800.999879837036,Thu Dec 04 2025 10:09:09 GMT-0600 (Central Standard Time),115433.30000001192,A,stree,O,e,188,1,2198.800000011921,113234.5,7706,WL,B,1.0
1,2.4650001525878906,learn,57534.99984741211,Thu Dec 04 2025 10:09:09 GMT-0600 (Central Standard Time),115699.5,A,street,O,t,255,1,2465.0,113234.5,7706,WL,B,1.0
1,5.047000169754028,learn,54952.99983024597,Thu Dec 04 2025 10:09:09 GMT-0600 (Central Standard Time),118281.5,A,streetenter,O,enter,2572,1,5047.0,113234.5,7706,WL,B,1.0
1,5.7170000076293945,learn,54282.999992370605,Thu Dec 04 2025 10:09:09 GMT-0600 (Central Standard Time),118951.30000001192,A,g,O,g,646,1,669.3999999761581,118281.90000003576,7706,WL,B,2.0
1,6.0980000495910645,learn,53901.999950408936,Thu Dec 04 2025 10:09:09 GMT-0600 (Central Standard Time),119331.80000001192,A,gr,O,r,360,1,1049.8999999761581,118281.90000003576,7706,WL,B,2.0
1,6.414000034332275,learn,53585.999965667725,Thu Dec 04 2025 10:09:09 GMT-0600 (Central Standard Time),119648.30000001192,A,gra,O,a,295,1,1366.3999999761581,118281.90000003576,7706,WL,B,2.0
1,6.664000034332275,learn,53335.999965667725,Thu Dec 04 2025 10:09:09 GMT-0600 (Central Standard Time),119898.0,A,gras,O,s,237,1,1616.0999999642372,118281.90000003576,7706,WL,B,2.0
1,6.864000082015991,learn,53135.99991798401,Thu Dec 04 2025 10:09:09 GMT-0600 (Central Standard Time),120098.60000002384,A,grass,O,s,192,1,1816.699999988079,118281.90000003576,7706,WL,B,2.0
1,7.265000104904175,learn,52734.999895095825,Thu Dec 04 2025 10:09:09 GMT-0600 (Central Standard Time),120499.60000002384,A,grassenter,O,enter,390,1,2217.699999988079,118281.90000003576,7706,WL,B,2.0
1,7.8490002155303955,learn,52150.999784469604,Thu Dec 04 2025 10:09:09 GMT-0600 (Central Standard Time),121083.40000003576,A,s,O,s,561,1,583.4000000357628,120500.0,7706,WL,B,3.0
1,8.130000114440918,learn,51869.99988555908,Thu Dec 04 2025 10:09:09 GMT-0600 (Central Standard Time),121364.10000002384,A,st,O,t,269,1,864.1000000238419,120500.0,7706,WL,B,3.0
1,8.413000106811523,learn,51586.99989318848,Thu Dec 04 2025 10:09:09 GMT-0600 (Central Standard Time),121647.60000002384,A,sta,O,a,259,1,1147.6000000238419,120500.0,7706,WL,B,3.0
1,8.597000122070312,learn,51402.99987792969,Thu Dec 04 2025 10:09:09 GMT-0600 (Central Standard Time),121831.40000003576,A,star,O,r,166,1,1331.4000000357628,120500.0,7706,WL,B,3.0
1,9.063000202178955,learn,50936.999797821045,Thu Dec 04 2025 10:09:09 GMT-0600 (Central Standard Time),122297.60000002384,A,starenter,O,enter,448,1,1797.6000000238419,120500.0,7706,WL,B,3.0
1,9.480000019073486,learn,50519.999980926514,Thu Dec 04 2025 10:09:09 GMT-0600 (Central Standard Time),122714.10000002384,A,w,O,w,398,1,416.19999998807907,122297.90000003576,7706,WL,B,4.0
1,9.713000059127808,learn,50286.99994087219,Thu Dec 04 2025 10:09:09 GMT-0600 (Central Standard Time),122947.10000002384,A,wi,O,i,224,1,649.1999999880791,122297.90000003576,7706,WL,B,4.0
1,10.031000137329102,learn,49968.9998626709,Thu Dec 04 2025 10:09:09 GMT-0600 (Central Standard Time),123265.0,A,wif,O,f,295,1,967.0999999642372,122297.90000003576,7706,WL,B,4.0
1,10.264000177383423,learn,49735.99982261658,Thu Dec 04 2025 10:09:09 GMT-0600 (Central Standard Time),123497.70000004768,A,wife,O,e,207,1,1199.800000011921,122297.90000003576,7706,WL,B,4.0
1,10.462000131607056,learn,49537.999868392944,Thu Dec 04 2025 10:09:09 GMT-0600 (Central Standard Time),123696.5,A,wifeenter,O,enter,179,1,1398.5999999642372,122297.90000003576,7706,WL,B,4.0
1,11.115000009536743,learn,48884.99999046326,Thu Dec 04 2025 10:09:09 GMT-0600 (Central Standard Time),124349.10000002384,A,p,O,p,641,1,652.1999999880791,123696.90000003576,7706,WL,B,5.0
1,11.463000059127808,learn,48536.99994087219,Thu Dec 04 2025 10:09:09 GMT-0600 (Central Standard Time),124697.10000002384,A,pu,O,u,339,1,1000.1999999880791,123696.90000003576,7706,WL,B,5.0
1,12.545000076293945,learn,47454.999923706055,Thu Dec 04 2025 10:09:09 GMT-0600 (Central Standard Time),125779.5,A,pup,O,p,1064,1,2082.599999964237,123696.90000003576,7706,WL,B,5.0
1,13.080000162124634,learn,46919.999837875366,Thu Dec 04 2025 10:09:09 GMT-0600 (Central Standard Time),126313.80000001192,A,pupi,O,i,524,1,2616.899999976158,123696.90000003576,7706,WL,B,5.0
1,13.380000114440918,learn,46619.99988555908,Thu Dec 04 2025 10:09:09 GMT-0600 (Central Standard Time),126613.80000001192,A,pupil,O,l,279,1,2916.899999976158,123696.90000003576,7706,WL,B,5.0
1,13.67900013923645,learn,46320.99986076355,Thu Dec 04 2025 10:09:09 GMT-0600 (Central Standard Time),126913.0,A,pupilenter,O,enter,290,1,3216.099999964237,123696.90000003576,7706,WL,B,5.0
1,14.278000116348267,learn,45721.99988365173,Thu Dec 04 2025 10:09:09 GMT-0600 (Central Standard Time),127512.30000001192,A,c,O,c,579,1,599.0999999642372,126913.20000004768,7706,WL,B,6.0
1,14.728000164031982,learn,45271.99983596802,Thu Dec 04 2025 10:09:09 GMT-0600 (Central Standard Time),127961.80000001192,A,ci,O,i,433,1,1048.5999999642372,126913.20000004768,7706,WL,B,6.0
1,15.128000020980835,learn,44871.999979019165,Thu Dec 04 2025 10:09:09 GMT-0600 (Central Standard Time),128362.30000001192,A,cit,O,t,384,1,1449.0999999642372,126913.20000004768,7706,WL,B,6.0
1,16.813000202178955,learn,43186.999797821045,Thu Dec 04 2025 10:09:09 GMT-0600 (Central Standard Time),130050.60000002384,A,city,O,y,1672,1,3137.399999976158,126913.20000004768,7706,WL,B,6.0
1,17.861999988555908,learn,42138.00001144409,Thu Dec 04 2025 10:09:09 GMT-0600 (Central Standard Time),131095.90000003576,A,cityenter,O,enter,1037,1,4182.699999988079,126913.20000004768,7706,WL,B,6.0
1,18.444000005722046,learn,41555.999994277954,Thu Dec 04 2025 10:09:09 GMT-0600 (Central Standard Time),131677.80000001192,A,a,O,a,567,1,581.5999999642372,131096.20000004768,7706,WL,B,7.0
1,18.811000108718872,learn,41188.99989128113,Thu Dec 04 2025 10:09:09 GMT-0600 (Central Standard Time),132045.20000004768,A,ar,O,r,347,1,949.0,131096.20000004768,7706,WL,B,7.0
1,20.460000038146973,learn,39539.99996185303,Thu Dec 04 2025 10:09:09 GMT-0600 (Central Standard Time),133693.80000001192,A,arm,O,m,1630,1,2597.599999964237,131096.20000004768,7706,WL,B,7.0
1,23.52500009536743,learn,36474.99990463257,Thu Dec 04 2025 10:09:09 GMT-0600 (Central Standard Time),136759.70000004768,A,armenter,O,enter,3050,1,5663.5,131096.20000004768,7706,WL,B,7.0
1,24.407999992370605,learn,35592.000007629395,Thu Dec 04 2025 10:09:09 GMT-0600 (Central Standard Time),137642.20000004768,A,s,O,s,873,1,882.2000000476837,136760.0,7706,WL,B,8.0
1,24.758000135421753,learn,35241.99986457825,Thu Dec 04 2025 10:09:09 GMT-0600 (Central Standard Time),137992.60000002384,A,st,O,t,335,1,1232.6000000238419,136760.0,7706,WL,B,8.0
1,25.04200005531311,learn,34957.99994468689,Thu Dec 04 2025 10:09:09 GMT-0600 (Central Standard Time),138276.30000001192,A,sta,O,a,273,1,1516.300000011921,136760.0,7706,WL,B,8.0
1,25.20800018310547,learn,34791.99981689453,Thu Dec 04 2025 10:09:09 GMT-0600 (Central Standard Time),138441.70000004768,A,star,O,r,157,1,1681.7000000476837,136760.0,7706,WL,B,8.0
1,25.624000072479248,learn,34375.99992752075,Thu Dec 04 2025 10:09:09 GMT-0600 (Central Standard Time),138858.0,A,starenter,O,enter,407,1,2098.0,136760.0,7706,WL,B,8.0
1,35.02300000190735,learn,24976.99999809265,Thu Dec 04 2025 10:09:09 GMT-0600 (Central Standard Time),148256.80000001192,A,c,O,c,9384,1,9398.399999976158,138858.40000003576,7706,WL,B,9.0
1,35.289000034332275,learn,24710.999965667725,Thu Dec 04 2025 10:09:09 GMT-0600 (Central Standard Time),148523.10000002384,A,cl,O,l,247,1,9664.699999988079,138858.40000003576,7706,WL,B,9.0
1,35.557000160217285,learn,24442.999839782715,Thu Dec 04 2025 10:09:09 GMT-0600 (Central Standard Time),148790.90000003576,A,clo,O,o,244,1,9932.5,138858.40000003576,7706,WL,B,9.0
1,35.77500009536743,learn,24224.99990463257,Thu Dec 04 2025 10:09:09 GMT-0600 (Central Standard Time),149009.30000001192,A,cloc,O,c,213,1,10150.899999976158,138858.40000003576,7706,WL,B,9.0
1,35.88800001144409,learn,24111.99998855591,Thu Dec 04 2025 10:09:09 GMT-0600 (Central Standard Time),149122.20000004768,A,clock,O,k,105,1,10263.800000011921,138858.40000003576,7706,WL,B,9.0
1,36.32100009918213,learn,23678.99990081787,Thu Dec 04 2025 10:09:09 GMT-0600 (Central Standard Time),149554.70000004768,A,clockenter,O,enter,415,1,10696.300000011921,138858.40000003576,7706,WL,B,9.0
1,44.235000133514404,learn,15764.999866485596,Thu Dec 04 2025 10:09:09 GMT-0600 (Central Standard Time),157468.70000004768,A,p,O,p,7902,1,7913.700000047684,149555.0,7706,WL,B,10.0
1,44.55200004577637,learn,15447.999954223633,Thu Dec 04 2025 10:09:09 GMT-0600 (Central Standard Time),157786.30000001192,A,pr,O,r,310,1,8231.300000011921,149555.0,7706,WL,B,10.0
1,44.801000118255615,learn,15198.999881744385,Thu Dec 04 2025 10:09:09 GMT-0600 (Central Standard Time),158035.5,A,pre,O,e,230,1,8480.5,149555.0,7706,WL,B,10.0
1,45.10300016403198,learn,14896.999835968018,Thu Dec 04 2025 10:09:09 GMT-0600 (Central Standard Time),158337.0,A,pres,O,s,280,1,8782.0,149555.0,7706,WL,B,10.0
1,45.3030002117157,learn,14696.999788284302,Thu Dec 04 2025 10:09:09 GMT-0600 (Central Standard Time),158536.80000001192,A,press,O,s,180,1,8981.800000011921,149555.0,7706,WL,B,10.0
1,45.53500008583069,learn,14464.999914169312,Thu Dec 04 2025 10:09:09 GMT-0600 (Central Standard Time),158769.60000002384,A,pressenter,O,enter,223,1,9214.600000023842,149555.0,7706,WL,B,10.0
1,60.01300001144409,learn,-13.000011444091797,Thu Dec 04 2025 10:09:09 GMT-0600 (Central Standard Time),173247.20000004768,A,None,O,None,14473,1,14477.400000035763,158769.80000001192,7706,WL,B,11.0
2,0.75,learn,59250.0,Thu Dec 04 2025 10:09:09 GMT-0600 (Central Standard Time),249807.0,A,s,O,s,726,1,749.3999999761581,249057.60000002384,7706,WL,B,1.0
2,1.1499998569488525,learn,58850.00014305115,Thu Dec 04 2025 10:09:09 GMT-0600 (Central Standard Time),250207.5,A,st,O,t,378,1,1149.8999999761581,249057.60000002384,7706,WL,B,1.0
2,1.4829998016357422,learn,58517.00019836426,Thu Dec 04 2025 10:09:09 GMT-0600 (Central Standard Time),250539.80000001192,A,str,O,r,312,1,1482.199999988079,249057.60000002384,7706,WL,B,1.0
2,1.816999912261963,learn,58183.00008773804,Thu Dec 04 2025 10:09:09 GMT-0600 (Central Standard Time),250874.40000003576,A,stre,O,e,325,1,1816.800000011921,249057.60000002384,7706,WL,B,1.0
2,2.0159997940063477,learn,57984.00020599365,Thu Dec 04 2025 10:09:09 GMT-0600 (Central Standard Time),251073.5,A,stree,O,e,183,1,2015.8999999761581,249057.60000002384,7706,WL,B,1.0
2,2.2819998264312744,learn,57718.000173568726,Thu Dec 04 2025 10:09:09 GMT-0600 (Central Standard Time),251339.60000002384,A,street,O,t,254,1,2282.0,249057.60000002384,7706,WL,B,1.0
2,2.7829999923706055,learn,57217.000007629395,Thu Dec 04 2025 10:09:09 GMT-0600 (Central Standard Time),251839.80000001192,A,streetenter,O,enter,483,1,2782.199999988079,249057.60000002384,7706,WL,B,1.0
2,3.31499981880188,learn,56685.00018119812,Thu Dec 04 2025 10:09:09 GMT-0600 (Central Standard Time),252372.60000002384,A,f,O,f,515,1,532.5,251840.10000002384,7706,WL,B,2.0
2,4.565999984741211,learn,55434.00001525879,Thu Dec 04 2025 10:09:09 GMT-0600 (Central Standard Time),253623.30000001192,A,fi,O,i,1236,1,1783.199999988079,251840.10000002384,7706,WL,B,2.0
2,4.681999921798706,learn,55318.000078201294,Thu Dec 04 2025 10:09:09 GMT-0600 (Central Standard Time),253738.80000001192,A,fir,O,r,97,1,1898.699999988079,251840.10000002384,7706,WL,B,2.0
2,4.914999961853027,learn,55085.00003814697,Thu Dec 04 2025 10:09:09 GMT-0600 (Central Standard Time),253972.0,A,fire,O,e,212,1,2131.899999976158,251840.10000002384,7706,WL,B,2.0
2,5.31499981880188,learn,54685.00018119812,Thu Dec 04 2025 10:09:09 GMT-0600 (Central Standard Time),254372.5,A,fireenter,O,enter,379,1,2532.399999976158,251840.10000002384,7706,WL,B,2.0
2,5.697999954223633,learn,54302.00004577637,Thu Dec 04 2025 10:09:09 GMT-0600 (Central Standard Time),254755.5,A,g,O,g,374,1,382.7999999523163,254372.70000004768,7706,WL,B,3.0
2,6.0309998989105225,learn,53969.00010108948,Thu Dec 04 2025 10:09:09 GMT-0600 (Central Standard Time),255088.40000003576,A,gr,O,r,323,1,715.6999999880791,254372.70000004768,7706,WL,B,3.0
2,6.480999946594238,learn,53519.00005340576,Thu Dec 04 2025 10:09:09 GMT-0600 (Central Standard Time),255538.40000003576,A,gra,O,a,429,1,1165.699999988079,254372.70000004768,7706,WL,B,3.0
2,6.763999938964844,learn,53236.000061035156,Thu Dec 04 2025 10:09:09 GMT-0600 (Central Standard Time),255821.5,A,gras,O,s,260,1,1448.7999999523163,254372.70000004768,7706,WL,B,3.0
2,6.931999921798706,learn,53068.000078201294,Thu Dec 04 2025 10:09:09 GMT-0600 (Central Standard Time),255989.30000001192,A,grass,O,s,147,1,1616.5999999642372,254372.70000004768,7706,WL,B,3.0
2,7.447999954223633,learn,52552.00004577637,Thu Dec 04 2025 10:09:09 GMT-0600 (Central Standard Time),256505.0,A,grassenter,O,enter,506,1,2132.2999999523163,254372.70000004768,7706,WL,B,3.0
2,7.813999891281128,learn,52186.00010871887,Thu Dec 04 2025 10:09:09 GMT-0600 (Central Standard Time),256871.10000002384,A,a,O,a,352,1,365.80000001192093,256505.30000001192,7706,WL,B,4.0
2,8.031999826431274,learn,51968.000173568726,Thu Dec 04 2025 10:09:09 GMT-0600 (Central Standard Time),257089.20000004768,A,ar,O,r,201,1,583.9000000357628,256505.30000001192,7706,WL,B,4.0
2,8.496999979019165,learn,51503.000020980835,Thu Dec 04 2025 10:09:09 GMT-0600 (Central Standard Time),257553.80000001192,A,arm,O,m,450,1,1048.5,256505.30000001192,7706,WL,B,4.0
2,9.429999828338623,learn,50570.00017166138,Thu Dec 04 2025 10:09:09 GMT-0600 (Central Standard Time),258487.70000004768,A,armenter,O,enter,913,1,1982.4000000357628,256505.30000001192,7706,WL,B,4.0
2,9.86299991607666,learn,50137.00008392334,Thu Dec 04 2025 10:09:09 GMT-0600 (Central Standard Time),258920.10000002384,A,s,O,s,419,1,432.30000001192093,258487.80000001192,7706,WL,B,5.0
2,10.079999923706055,learn,49920.000076293945,Thu Dec 04 2025 10:09:09 GMT-0600 (Central Standard Time),259137.5,A,st,O,t,208,1,649.6999999880791,258487.80000001192,7706,WL,B,5.0
2,10.36299991607666,learn,49637.00008392334,Thu Dec 04 2025 10:09:09 GMT-0600 (Central Standard Time),259420.0,A,sta,O,a,274,1,932.1999999880791,258487.80000001192,7706,WL,B,5.0
2,10.562999963760376,learn,49437.000036239624,Thu Dec 04 2025 10:09:09 GMT-0600 (Central Standard Time),259620.70000004768,A,star,O,r,179,1,1132.9000000357628,258487.80000001192,7706,WL,B,5.0
2,11.014999866485596,learn,48985.000133514404,Thu Dec 04 2025 10:09:09 GMT-0600 (Central Standard Time),260071.90000003576,A,starenter,O,enter,430,1,1584.1000000238419,258487.80000001192,7706,WL,B,5.0
2,11.395999908447266,learn,48604.000091552734,Thu Dec 04 2025 10:09:09 GMT-0600 (Central Standard Time),260453.10000002384,A,c,O,c,361,1,381.0,260072.10000002384,7706,WL,B,6.0
2,11.679999828338623,learn,48320.00017166138,Thu Dec 04 2025 10:09:09 GMT-0600 (Central Standard Time),260737.30000001192,A,cl,O,l,279,1,665.1999999880791,260072.10000002384,7706,WL,B,6.0
2,12.013000011444092,learn,47986.99998855591,Thu Dec 04 2025 10:09:09 GMT-0600 (Central Standard Time),261070.0,A,clo,O,o,321,1,997.8999999761581,260072.10000002384,7706,WL,B,6.0
2,12.26199984550476,learn,47738.00015449524,Thu Dec 04 2025 10:09:09 GMT-0600 (Central Standard Time),261319.10000002384,A,cloc,O,c,236,1,1247.0,260072.10000002384,7706,WL,B,6.0
2,12.429999828338623,learn,47570.00017166138,Thu Dec 04 2025 10:09:09 GMT-0600 (Central Standard Time),261487.70000004768,A,clock,O,k,155,1,1415.6000000238419,260072.10000002384,7706,WL,B,6.0
2,12.76199984550476,learn,47238.00015449524,Thu Dec 04 2025 10:09:09 GMT-0600 (Central Standard Time),261818.90000003576,A,clockenter,O,enter,322,1,1746.800000011921,260072.10000002384,7706,WL,B,6.0
2,13.212999820709229,learn,46787.00017929077,Thu Dec 04 2025 10:09:09 GMT-0600 (Central Standard Time),262270.5,A,c,O,c,438,1,451.39999997615814,261819.10000002384,7706,WL,B,7.0
2,13.478999853134155,learn,46521.000146865845,Thu Dec 04 2025 10:09:09 GMT-0600 (Central Standard Time),262536.5,A,ca,O,a,251,1,717.3999999761581,261819.10000002384,7706,WL,B,7.0
2,13.76199984550476,learn,46238.00015449524,Thu Dec 04 2025 10:09:09 GMT-0600 (Central Standard Time),262818.8000000119,A,cab,O,b,263,1,999.6999999880791,261819.10000002384,7706,WL,B,7.0
2,13.978999853134155,learn,46021.000146865845,Thu Dec 04 2025 10:09:09 GMT-0600 (Central Standard Time),263035.8000000119,A,cabi,O,i,199,1,1216.699999988079,261819.10000002384,7706,WL,B,7.0
2,14.227999925613403,learn,45772.0000743866,Thu Dec 04 2025 10:09:09 GMT-0600 (Central Standard Time),263285.60000002384,A,cabin,O,n,231,1,1466.5,261819.10000002384,7706,WL,B,7.0
2,14.611999988555908,learn,45388.00001144409,Thu Dec 04 2025 10:09:09 GMT-0600 (Central Standard Time),263668.90000003576,A,cabinenter,O,enter,372,1,1849.800000011921,261819.10000002384,7706,WL,B,7.0
2,15.395999908447266,learn,44604.000091552734,Thu Dec 04 2025 10:09:09 GMT-0600 (Central Standard Time),264453.3000000119,A,l,O,l,773,1,784.1999999880791,263669.10000002384,7706,WL,B,8.0
2,15.712999820709229,learn,44287.00017929077,Thu Dec 04 2025 10:09:09 GMT-0600 (Central Standard Time),264769.7000000477,A,la,O,a,300,1,1100.6000000238419,263669.10000002384,7706,WL,B,8.0
2,16.176999807357788,learn,43823.00019264221,Thu Dec 04 2025 10:09:09 GMT-0600 (Central Standard Time),265234.60000002384,A,lak,O,k,455,1,1565.5,263669.10000002384,7706,WL,B,8.0
2,16.3439998626709,learn,43656.0001373291,Thu Dec 04 2025 10:09:09 GMT-0600 (Central Standard Time),265401.40000003576,A,lake,O,e,161,1,1732.300000011921,263669.10000002384,7706,WL,B,8.0
2,18.110999822616577,learn,41889.00017738342,Thu Dec 04 2025 10:09:09 GMT-0600 (Central Standard Time),267168.3000000119,A,lakeenter,O,enter,1751,1,3499.199999988079,263669.10000002384,7706,WL,B,8.0
2,19.078999996185303,learn,40921.0000038147,Thu Dec 04 2025 10:09:09 GMT-0600 (Central Standard Time),268136.10000002384,A,f,O,f,947,1,967.5,267168.60000002384,7706,WL,B,9.0
2,19.643999814987183,learn,40356.00018501282,Thu Dec 04 2025 10:09:09 GMT-0600 (Central Standard Time),268701.0,A,fi,O,i,541,1,1532.3999999761581,267168.60000002384,7706,WL,B,9.0
2,19.91100001335144,learn,40088.99998664856,Thu Dec 04 2025 10:09:09 GMT-0600 (Central Standard Time),268968.40000003576,A,fir,O,r,243,1,1799.800000011921,267168.60000002384,7706,WL,B,9.0
2,20.143999814987183,learn,39856.00018501282,Thu Dec 04 2025 10:09:09 GMT-0600 (Central Standard Time),269200.90000003576,A,fire,O,e,216,1,2032.300000011921,267168.60000002384,7706,WL,B,9.0
2,20.526999950408936,learn,39473.000049591064,Thu Dec 04 2025 10:09:09 GMT-0600 (Central Standard Time),269584.3000000119,A,fireenter,O,enter,369,1,2415.699999988079,267168.60000002384,7706,WL,B,9.0
2,21.176999807357788,learn,38823.00019264221,Thu Dec 04 2025 10:09:09 GMT-0600 (Central Standard Time),270233.7000000477,A,p,O,p,642,1,649.2000000476837,269584.5,7706,WL,B,10.0
2,21.80999994277954,learn,38190.00005722046,Thu Dec 04 2025 10:09:09 GMT-0600 (Central Standard Time),270866.90000003576,A,pi,O,i,624,1,1282.4000000357628,269584.5,7706,WL,B,10.0
2,22.14299988746643,learn,37857.00011253357,Thu Dec 04 2025 10:09:09 GMT-0600 (Central Standard Time),271200.2000000477,A,pip,O,p,322,1,1615.7000000476837,269584.5,7706,WL,B,10.0
2,22.692999839782715,learn,37307.000160217285,Thu Dec 04 2025 10:09:09 GMT-0600 (Central Standard Time),271749.90000003576,A,pipe,O,e,538,1,2165.400000035763,269584.5,7706,WL,B,10.0
2,22.944000005722046,learn,37055.999994277954,Thu Dec 04 2025 10:09:09 GMT-0600 (Central Standard Time),272000.7000000477,A,pipeenter,O,enter,237,1,2416.2000000476837,269584.5,7706,WL,B,10.0
2,23.424999952316284,learn,36575.000047683716,Thu Dec 04 2025 10:09:09 GMT-0600 (Central Standard Time),272482.7000000477,A,p,O,p,475,1,481.80000001192093,272000.90000003576,7706,WL,B,11.0
2,23.70899987220764,learn,36291.00012779236,Thu Dec 04 2025 10:09:09 GMT-0600 (Central Standard Time),272766.40000003576,A,pu,O,u,272,1,765.5,272000.90000003576,7706,WL,B,11.0
2,24.241999864578247,learn,35758.00013542175,Thu Dec 04 2025 10:09:09 GMT-0600 (Central Standard Time),273299.40000003576,A,pup,O,p,525,1,1298.5,272000.90000003576,7706,WL,B,11.0
2,24.72599983215332,learn,35274.00016784668,Thu Dec 04 2025 10:09:09 GMT-0600 (Central Standard Time),273783.5,A,pupi,O,i,469,1,1782.5999999642372,272000.90000003576,7706,WL,B,11.0
2,26.074999809265137,learn,33925.00019073486,Thu Dec 04 2025 10:09:09 GMT-0600 (Central Standard Time),275132.40000003576,A,pupil,O,l,1329,1,3131.5,272000.90000003576,7706,WL,B,11.0
2,26.524999856948853,learn,33475.00014305115,Thu Dec 04 2025 10:09:09 GMT-0600 (Central Standard Time),275582.5,A,pupilenter,O,enter,438,1,3581.599999964237,272000.90000003576,7706,WL,B,11.0
2,26.97499990463257,learn,33025.00009536743,Thu Dec 04 2025 10:09:09 GMT-0600 (Central Standard Time),276032.40000003576,A,w,O,w,429,1,449.60000002384186,275582.8000000119,7706,WL,B,12.0
2,27.807999849319458,learn,32192.000150680542,Thu Dec 04 2025 10:09:09 GMT-0600 (Central Standard Time),276864.90000003576,A,wi,O,i,819,1,1282.1000000238419,275582.8000000119,7706,WL,B,12.0
2,28.008999824523926,learn,31991.000175476074,Thu Dec 04 2025 10:09:09 GMT-0600 (Central Standard Time),277066.3000000119,A,win,O,n,183,1,1483.5,275582.8000000119,7706,WL,B,12.0
2,28.274999856948853,learn,31725.000143051147,Thu Dec 04 2025 10:09:09 GMT-0600 (Central Standard Time),277332.3000000119,A,wind,O,d,248,1,1749.5,275582.8000000119,7706,WL,B,12.0
2,28.590999841690063,learn,31409.000158309937,Thu Dec 04 2025 10:09:09 GMT-0600 (Central Standard Time),277648.3000000119,A,windo,O,o,300,1,2065.5,275582.8000000119,7706,WL,B,12.0
2,28.87399983406067,learn,31126.00016593933,Thu Dec 04 2025 10:09:09 GMT-0600 (Central Standard Time),277930.90000003576,A,window,O,w,275,1,2348.100000023842,275582.8000000119,7706,WL,B,12.0
2,30.006999969482422,learn,29993.000030517578,Thu Dec 04 2025 10:09:09 GMT-0600 (Central Standard Time),279064.5,A,windowenter,O,enter,1113,1,3481.699999988079,275582.8000000119,7706,WL,B,12.0
2,35.98799991607666,learn,24012.00008392334,Thu Dec 04 2025 10:09:09 GMT-0600 (Central Standard Time),285045.0,A,enter,O,enter,5970,1,5980.299999952316,279064.7000000477,7706,WL,B,13.0
2,60.01599979400635,learn,-15.999794006347656,Thu Dec 04 2025 10:09:09 GMT-0600 (Central Standard Time),309073.3000000119,A,None,O,None,24023,1,24028.0,285045.3000000119,7706,WL,B,14.0
3,0.9330000877380371,learn,59066.99991226196,Thu Dec 04 2025 10:09:09 GMT-0600 (Central Standard Time),381182.0,A,s,O,s,918,1,932.6999999880791,380249.3000000119,7706,WL,B,1.0
3,1.2330000400543213,learn,58766.99995994568,Thu Dec 04 2025 10:09:09 GMT-0600 (Central Standard Time),381482.10000002384,A,sk,O,k,292,1,1232.800000011921,380249.3000000119,7706,WL,B,1.0
3,1.4820001125335693,learn,58517.99988746643,Thu Dec 04 2025 10:09:09 GMT-0600 (Central Standard Time),381731.5,A,skk,O,k,230,1,1482.199999988079,380249.3000000119,7706,WL,B,1.0
3,2.5829999446868896,learn,57417.00005531311,Thu Dec 04 2025 10:09:09 GMT-0600 (Central Standard Time),382832.10000002384,A,sk,O,backspace,1079,1,2582.800000011921,380249.3000000119,7706,WL,B,1.0
3,3.947000026702881,learn,56052.99997329712,Thu Dec 04 2025 10:09:09 GMT-0600 (Central Standard Time),384196.60000002384,A,ski,O,i,1344,1,3947.300000011921,380249.3000000119,7706,WL,B,1.0
3,4.2820000648498535,learn,55717.99993515015,Thu Dec 04 2025 10:09:09 GMT-0600 (Central Standard Time),384531.3000000119,A,skin,O,n,316,1,4282.0,380249.3000000119,7706,WL,B,1.0
3,4.747999906539917,learn,55252.00009346008,Thu Dec 04 2025 10:09:09 GMT-0600 (Central Standard Time),384997.5,A,skinenter,O,enter,452,1,4748.199999988079,380249.3000000119,7706,WL,B,1.0
3,5.132999897003174,learn,54867.000102996826,Thu Dec 04 2025 10:09:09 GMT-0600 (Central Standard Time),385381.8000000119,A,f,O,f,363,1,384.0,384997.8000000119,7706,WL,B,2.0
3,5.29800009727478,learn,54701.99990272522,Thu Dec 04 2025 10:09:09 GMT-0600 (Central Standard Time),385547.10000002384,A,fi,O,i,155,1,549.3000000119209,384997.8000000119,7706,WL,B,2.0
3,5.497999906539917,learn,54502.00009346008,Thu Dec 04 2025 10:09:09 GMT-0600 (Central Standard Time),385747.10000002384,A,fir,O,r,190,1,749.3000000119209,384997.8000000119,7706,WL,B,2.0
3,5.732000112533569,learn,54267.99988746643,Thu Dec 04 2025 10:09:09 GMT-0600 (Central Standard Time),385980.90000003576,A,fire,O,e,214,1,983.1000000238419,384997.8000000119,7706,WL,B,2.0
3,6.813999891281128,learn,53186.00010871887,Thu Dec 04 2025 10:09:09 GMT-0600 (Central Standard Time),387063.7000000477,A,fireenter,O,enter,1062,1,2065.900000035763,384997.8000000119,7706,WL,B,2.0
3,7.2799999713897705,learn,52720.00002861023,Thu Dec 04 2025 10:09:09 GMT-0600 (Central Standard Time),387529.7000000477,A,c,O,c,449,1,465.80000001192093,387063.90000003576,7706,WL,B,3.0
3,7.415999889373779,learn,52584.00011062622,Thu Dec 04 2025 10:09:09 GMT-0600 (Central Standard Time),387665.0,A,cl,O,l,130,1,601.0999999642372,387063.90000003576,7706,WL,B,3.0
3,7.763000011444092,learn,52236.99998855591,Thu Dec 04 2025 10:09:09 GMT-0600 (Central Standard Time),388012.5,A,clo,O,o,336,1,948.5999999642372,387063.90000003576,7706,WL,B,3.0
3,7.980000019073486,learn,52019.999980926514,Thu Dec 04 2025 10:09:09 GMT-0600 (Central Standard Time),388229.5,A,cloc,O,c,195,1,1165.5999999642372,387063.90000003576,7706,WL,B,3.0
3,8.079999923706055,learn,51920.000076293945,Thu Dec 04 2025 10:09:09 GMT-0600 (Central Standard Time),388328.8000000119,A,clock,O,k,84,1,1264.8999999761581,387063.90000003576,7706,WL,B,3.0
3,8.463000059127808,learn,51536.99994087219,Thu Dec 04 2025 10:09:09 GMT-0600 (Central Standard Time),388712.0,A,clockenter,O,enter,369,1,1648.0999999642372,387063.90000003576,7706,WL,B,3.0
3,8.812999963760376,learn,51187.000036239624,Thu Dec 04 2025 10:09:09 GMT-0600 (Central Standard Time),389061.7000000477,A,c,O,c,339,1,349.4000000357628,388712.3000000119,7706,WL,B,4.0
3,9.019999980926514,learn,50980.000019073486,Thu Dec 04 2025 10:09:09 GMT-0600 (Central Standard Time),389268.8000000119,A,ci,O,i,189,1,556.5,388712.3000000119,7706,WL,B,4.0
3,9.282000064849854,learn,50717.99993515015,Thu Dec 04 2025 10:09:09 GMT-0600 (Central Standard Time),389530.7000000477,A,cit,O,t,254,1,818.4000000357628,388712.3000000119,7706,WL,B,4.0
3,9.414000034332275,learn,50585.999965667725,Thu Dec 04 2025 10:09:09 GMT-0600 (Central Standard Time),389663.60000002384,A,city,O,y,112,1,951.3000000119209,388712.3000000119,7706,WL,B,4.0
3,9.963000059127808,learn,50036.99994087219,Thu Dec 04 2025 10:09:09 GMT-0600 (Central Standard Time),390211.90000003576,A,cityenter,O,enter,528,1,1499.6000000238419,388712.3000000119,7706,WL,B,4.0
3,10.529000043869019,learn,49470.99995613098,Thu Dec 04 2025 10:09:09 GMT-0600 (Central Standard Time),390778.3000000119,A,w,O,w,549,1,566.0,390212.3000000119,7706,WL,B,5.0
3,10.76200008392334,learn,49237.99991607666,Thu Dec 04 2025 10:09:09 GMT-0600 (Central Standard Time),391011.8000000119,A,wi,O,i,213,1,799.5,390212.3000000119,7706,WL,B,5.0
3,10.897000074386597,learn,49102.9999256134,Thu Dec 04 2025 10:09:09 GMT-0600 (Central Standard Time),391146.3000000119,A,wif,O,f,125,1,934.0,390212.3000000119,7706,WL,B,5.0
3,11.128999948501587,learn,48871.00005149841,Thu Dec 04 2025 10:09:09 GMT-0600 (Central Standard Time),391378.40000003576,A,wife,O,e,215,1,1166.1000000238419,390212.3000000119,7706,WL,B,5.0
3,11.446000099182129,learn,48553.99990081787,Thu Dec 04 2025 10:09:09 GMT-0600 (Central Standard Time),391695.60000002384,A,wifeenter,O,enter,295,1,1483.300000011921,390212.3000000119,7706,WL,B,5.0
3,11.880000114440918,learn,48119.99988555908,Thu Dec 04 2025 10:09:09 GMT-0600 (Central Standard Time),392129.10000002384,A,s,O,s,418,1,433.30000001192093,391695.8000000119,7706,WL,B,6.0
3,12.163000106811523,learn,47836.99989318848,Thu Dec 04 2025 10:09:09 GMT-0600 (Central Standard Time),392412.10000002384,A,st,O,t,264,1,716.3000000119209,391695.8000000119,7706,WL,B,6.0
3,12.411999940872192,learn,47588.00005912781,Thu Dec 04 2025 10:09:09 GMT-0600 (Central Standard Time),392661.0,A,str,O,r,236,1,965.1999999880791,391695.8000000119,7706,WL,B,6.0
3,12.796000003814697,learn,47203.9999961853,Thu Dec 04 2025 10:09:09 GMT-0600 (Central Standard Time),393045.40000003576,A,stre,O,e,362,1,1349.6000000238419,391695.8000000119,7706,WL,B,6.0
3,12.946000099182129,learn,47053.99990081787,Thu Dec 04 2025 10:09:09 GMT-0600 (Central Standard Time),393195.0,A,stree,O,e,140,1,1499.199999988079,391695.8000000119,7706,WL,B,6.0
3,13.263000011444092,learn,46736.99998855591,Thu Dec 04 2025 10:09:09 GMT-0600 (Central Standard Time),393512.10000002384,A,street,O,t,294,1,1816.300000011921,391695.8000000119,7706,WL,B,6.0
3,14.01200008392334,learn,45987.99991607666,Thu Dec 04 2025 10:09:09 GMT-0600 (Central Standard Time),394261.2000000477,A,streetenter,O,enter,736,1,2565.400000035763,391695.8000000119,7706,WL,B,6.0
3,14.461999893188477,learn,45538.00010681152,Thu Dec 04 2025 10:09:09 GMT-0600 (Central Standard Time),394711.3000000119,A,g,O,g,437,1,449.89999997615814,394261.40000003576,7706,WL,B,7.0
3,14.777999877929688,learn,45222.00012207031,Thu Dec 04 2025 10:09:09 GMT-0600 (Central Standard Time),395027.7000000477,A,gr,O,r,307,1,766.3000000119209,394261.40000003576,7706,WL,B,7.0
3,15.094000101089478,learn,44905.99989891052,Thu Dec 04 2025 10:09:09 GMT-0600 (Central Standard Time),395343.40000003576,A,gra,O,a,301,1,1082.0,394261.40000003576,7706,WL,B,7.0
3,15.444000005722046,learn,44555.999994277954,Thu Dec 04 2025 10:09:09 GMT-0600 (Central Standard Time),395693.5,A,gras,O,s,330,1,1432.0999999642372,394261.40000003576,7706,WL,B,7.0
3,15.66100001335144,learn,44338.99998664856,Thu Dec 04 2025 10:09:09 GMT-0600 (Central Standard Time),395909.8000000119,A,grass,O,s,200,1,1648.3999999761581,394261.40000003576,7706,WL,B,7.0
3,16.177000045776367,learn,43822.99995422363,Thu Dec 04 2025 10:09:09 GMT-0600 (Central Standard Time),396426.0,A,grassenter,O,enter,507,1,2164.599999964237,394261.40000003576,7706,WL,B,7.0
3,16.55999994277954,learn,43440.00005722046,Thu Dec 04 2025 10:09:09 GMT-0600 (Central Standard Time),396809.5,A,d,O,d,375,1,383.2999999523163,396426.2000000477,7706,WL,B,8.0
3,16.776999950408936,learn,43223.000049591064,Thu Dec 04 2025 10:09:09 GMT-0600 (Central Standard Time),397026.0,A,do,O,o,208,1,599.7999999523163,396426.2000000477,7706,WL,B,8.0
3,16.92799997329712,learn,43072.00002670288,Thu Dec 04 2025 10:09:09 GMT-0600 (Central Standard Time),397177.2000000477,A,doo,O,o,146,1,751.0,396426.2000000477,7706,WL,B,8.0
3,17.078999996185303,learn,42921.0000038147,Thu Dec 04 2025 10:09:09 GMT-0600 (Central Standard Time),397328.3000000119,A,door,O,r,130,1,902.0999999642372,396426.2000000477,7706,WL,B,8.0
3,17.677000045776367,learn,42322.99995422363,Thu Dec 04 2025 10:09:09 GMT-0600 (Central Standard Time),397926.60000002384,A,doorenter,O,enter,585,1,1500.3999999761581,396426.2000000477,7706,WL,B,8.0
3,18.11299991607666,learn,41887.00008392334,Thu Dec 04 2025 10:09:09 GMT-0600 (Central Standard Time),398361.90000003576,A,a,O,a,420,1,435.10000002384186,397926.8000000119,7706,WL,B,9.0
3,18.39400005340576,learn,41605.99994659424,Thu Dec 04 2025 10:09:09 GMT-0600 (Central Standard Time),398642.8000000119,A,ar,O,r,274,1,716.0,397926.8000000119,7706,WL,B,9.0
3,18.943000078201294,learn,41056.999921798706,Thu Dec 04 2025 10:09:09 GMT-0600 (Central Standard Time),399192.2000000477,A,arm,O,m,543,1,1265.4000000357628,397926.8000000119,7706,WL,B,9.0
3,20.594000101089478,learn,39405.99989891052,Thu Dec 04 2025 10:09:09 GMT-0600 (Central Standard Time),400842.7000000477,A,armenter,O,enter,1635,1,2915.900000035763,397926.8000000119,7706,WL,B,9.0
3,21.14299988746643,learn,38857.00011253357,Thu Dec 04 2025 10:09:09 GMT-0600 (Central Standard Time),401392.40000003576,A,f,O,f,530,1,549.4000000357628,400843.0,7706,WL,B,10.0
3,21.74399995803833,learn,38256.00004196167,Thu Dec 04 2025 10:09:09 GMT-0600 (Central Standard Time),401993.0,A,fi,O,i,580,1,1150.0,400843.0,7706,WL,B,10.0
3,21.875999927520752,learn,38124.00007247925,Thu Dec 04 2025 10:09:09 GMT-0600 (Central Standard Time),402124.90000003576,A,fir,O,r,119,1,1281.9000000357628,400843.0,7706,WL,B,10.0
3,22.05900001525879,learn,37940.99998474121,Thu Dec 04 2025 10:09:09 GMT-0600 (Central Standard Time),402308.7000000477,A,fire,O,e,172,1,1465.7000000476837,400843.0,7706,WL,B,10.0
3,22.45900011062622,learn,37540.99988937378,Thu Dec 04 2025 10:09:09 GMT-0600 (Central Standard Time),402708.40000003576,A,fireenter,O,enter,386,1,1865.4000000357628,400843.0,7706,WL,B,10.0
3,22.825999975204468,learn,37174.00002479553,Thu Dec 04 2025 10:09:09 GMT-0600 (Central Standard Time),403075.3000000119,A,w,O,w,350,1,366.5999999642372,402708.7000000477,7706,WL,B,11.0
3,22.9760000705719,learn,37023.9999294281,Thu Dec 04 2025 10:09:09 GMT-0600 (Central Standard Time),403224.90000003576,A,wi,O,i,131,1,516.1999999880791,402708.7000000477,7706,WL,B,11.0
3,23.30900001525879,learn,36690.99998474121,Thu Dec 04 2025 10:09:09 GMT-0600 (Central Standard Time),403558.10000002384,A,win,O,n,313,1,849.3999999761581,402708.7000000477,7706,WL,B,11.0
3,23.641000032424927,learn,36358.99996757507,Thu Dec 04 2025 10:09:09 GMT-0600 (Central Standard Time),403890.5,A,wind,O,d,314,1,1181.7999999523163,402708.7000000477,7706,WL,B,11.0
3,23.973999977111816,learn,36026.00002288818,Thu Dec 04 2025 10:09:09 GMT-0600 (Central Standard Time),404223.5,A,windo,O,o,310,1,1514.7999999523163,402708.7000000477,7706,WL,B,11.0
3,24.175999879837036,learn,35824.000120162964,Thu Dec 04 2025 10:09:09 GMT-0600 (Central Standard Time),404425.40000003576,A,window,O,w,182,1,1716.699999988079,402708.7000000477,7706,WL,B,11.0
3,25.04099988937378,learn,34959.00011062622,Thu Dec 04 2025 10:09:09 GMT-0600 (Central Standard Time),405290.3000000119,A,windowenter,O,enter,847,1,2581.599999964237,402708.7000000477,7706,WL,B,11.0
3,31.490000009536743,learn,28509.999990463257,Thu Dec 04 2025 10:09:09 GMT-0600 (Central Standard Time),411739.60000002384,A,w,O,w,6440,1,6449.0,405290.60000002384,7706,WL,B,12.0
3,31.740000009536743,learn,28259.999990463257,Thu Dec 04 2025 10:09:09 GMT-0600 (Central Standard Time),411989.10000002384,A,wi,O,i,236,1,6698.5,405290.60000002384,7706,WL,B,12.0
3,31.890000104904175,learn,28109.999895095825,Thu Dec 04 2025 10:09:09 GMT-0600 (Central Standard Time),412138.90000003576,A,wif,O,f,132,1,6848.300000011921,405290.60000002384,7706,WL,B,12.0
3,32.140000104904175,learn,27859.999895095825,Thu Dec 04 2025 10:09:09 GMT-0600 (Central Standard Time),412389.40000003576,A,wife,O,e,229,1,7098.800000011921,405290.60000002384,7706,WL,B,12.0
3,32.388999938964844,learn,27611.000061035156,Thu Dec 04 2025 10:09:09 GMT-0600 (Central Standard Time),412637.8000000119,A,wifeenter,O,enter,227,1,7347.199999988079,405290.60000002384,7706,WL,B,12.0
3,37.78800010681152,learn,22211.999893188477,Thu Dec 04 2025 10:09:09 GMT-0600 (Central Standard Time),418036.90000003576,A,c,O,c,5380,1,5398.900000035763,412638.0,7706,WL,B,13.0
3,37.9210000038147,learn,22078.999996185303,Thu Dec 04 2025 10:09:09 GMT-0600 (Central Standard Time),418170.0,A,cl,O,l,115,1,5532.0,412638.0,7706,WL,B,13.0
3,38.1710000038147,learn,21828.999996185303,Thu Dec 04 2025 10:09:09 GMT-0600 (Central Standard Time),418420.0,A,clo,O,o,239,1,5782.0,412638.0,7706,WL,B,13.0
3,38.4210000038147,learn,21578.999996185303,Thu Dec 04 2025 10:09:09 GMT-0600 (Central Standard Time),418669.90000003576,A,cloc,O,c,229,1,6031.900000035763,412638.0,7706,WL,B,13.0
3,38.519999980926514,learn,21480.000019073486,Thu Dec 04 2025 10:09:09 GMT-0600 (Central Standard Time),418769.10000002384,A,clock,O,k,84,1,6131.100000023842,412638.0,7706,WL,B,13.0
3,38.986000061035156,learn,21013.999938964844,Thu Dec 04 2025 10:09:09 GMT-0600 (Central Standard Time),419235.3000000119,A,clockenter,O,enter,448,1,6597.300000011921,412638.0,7706,WL,B,13.0
3,47.467000007629395,learn,12532.999992370605,Thu Dec 04 2025 10:09:09 GMT-0600 (Central Standard Time),427716.60000002384,A,a,O,a,8472,1,8481.100000023842,419235.5,7706,WL,B,14.0
3,47.80200004577637,learn,12197.999954223633,Thu Dec 04 2025 10:09:09 GMT-0600 (Central Standard Time),428051.60000002384,A,ar,O,r,325,1,8816.100000023842,419235.5,7706,WL,B,14.0
3,48.08400011062622,learn,11915.99988937378,Thu Dec 04 2025 10:09:09 GMT-0600 (Central Standard Time),428333.7000000477,A,arm,O,m,277,1,9098.200000047684,419235.5,7706,WL,B,14.0
3,48.568000078201294,learn,11431.999921798706,Thu Dec 04 2025 10:09:09 GMT-0600 (Central Standard Time),428816.90000003576,A,armenter,O,enter,479,1,9581.400000035763,419235.5,7706,WL,B,14.0
3,52.00099992752075,learn,7999.000072479248,Thu Dec 04 2025 10:09:09 GMT-0600 (Central Standard Time),432249.90000003576,A,s,O,s,3429,1,3432.800000011921,428817.10000002384,7706,WL,B,15.0
3,52.31699991226196,learn,7683.000087738037,Thu Dec 04 2025 10:09:09 GMT-0600 (Central Standard Time),432565.90000003576,A,st,O,t,304,1,3748.800000011921,428817.10000002384,7706,WL,B,15.0
3,52.549999952316284,learn,7450.000047683716,Thu Dec 04 2025 10:09:09 GMT-0600 (Central Standard Time),432799.10000002384,A,sta,O,a,218,1,3982.0,428817.10000002384,7706,WL,B,15.0
3,52.681999921798706,learn,7318.000078201294,Thu Dec 04 2025 10:09:09 GMT-0600 (Central Standard Time),432931.40000003576,A,star,O,r,123,1,4114.300000011921,428817.10000002384,7706,WL,B,15.0
3,53.180999994277954,learn,6819.000005722046,Thu Dec 04 2025 10:09:09 GMT-0600 (Central Standard Time),433430.7000000477,A,starenter,O,enter,481,1,4613.600000023842,428817.10000002384,7706,WL,B,15.0
4,0.6499998569488525,learn,59350.00014305115,Thu Dec 04 2025 10:09:09 GMT-0600 (Central Standard Time),506609.2000000477,A,c,O,c,636,1,650.0,505959.2000000477,7706,WL,B,1.0
4,0.8499999046325684,learn,59150.00009536743,Thu Dec 04 2025 10:09:09 GMT-0600 (Central Standard Time),506809.8000000119,A,cl,O,l,195,1,850.5999999642372,505959.2000000477,7706,WL,B,1.0
4,1.1380000114440918,learn,58861.99998855591,Thu Dec 04 2025 10:09:09 GMT-0600 (Central Standard Time),507096.90000003576,A,clo,O,o,279,1,1137.699999988079,505959.2000000477,7706,WL,B,1.0
4,1.4869999885559082,learn,58513.00001144409,Thu Dec 04 2025 10:09:09 GMT-0600 (Central Standard Time),507446.60000002384,A,cloc,O,c,325,1,1487.3999999761581,505959.2000000477,7706,WL,B,1.0
4,1.931999921798706,learn,58068.000078201294,Thu Dec 04 2025 10:09:09 GMT-0600 (Central Standard Time),507891.0,A,clock,O,k,427,1,1931.7999999523163,505959.2000000477,7706,WL,B,1.0
4,2.247999906539917,learn,57752.00009346008,Thu Dec 04 2025 10:09:09 GMT-0600 (Central Standard Time),508207.3000000119,A,clockenter,O,enter,296,1,2248.099999964237,505959.2000000477,7706,WL,B,1.0
4,2.6989998817443848,learn,57301.000118255615,Thu Dec 04 2025 10:09:09 GMT-0600 (Central Standard Time),508658.10000002384,A,s,O,s,435,1,450.60000002384186,508207.5,7706,WL,B,2.0
4,3.066999912261963,learn,56933.00008773804,Thu Dec 04 2025 10:09:09 GMT-0600 (Central Standard Time),509026.60000002384,A,sk,O,k,345,1,819.1000000238419,508207.5,7706,WL,B,2.0
4,3.6989998817443848,learn,56301.000118255615,Thu Dec 04 2025 10:09:09 GMT-0600 (Central Standard Time),509657.90000003576,A,ski,O,i,627,1,1450.4000000357628,508207.5,7706,WL,B,2.0
4,3.999000072479248,learn,56000.99992752075,Thu Dec 04 2025 10:09:09 GMT-0600 (Central Standard Time),509957.90000003576,A,skin,O,n,278,1,1750.4000000357628,508207.5,7706,WL,B,2.0
4,4.365000009536743,learn,55634.99999046326,Thu Dec 04 2025 10:09:09 GMT-0600 (Central Standard Time),510324.2000000477,A,skinenter,O,enter,355,1,2116.7000000476837,508207.5,7706,WL,B,2.0
4,4.71399998664856,learn,55286.00001335144,Thu Dec 04 2025 10:09:09 GMT-0600 (Central Standard Time),510673.8000000119,A,f,O,f,333,1,349.39999997615814,510324.40000003576,7706,WL,B,3.0
4,5.0980000495910645,learn,54901.999950408936,Thu Dec 04 2025 10:09:09 GMT-0600 (Central Standard Time),511057.5,A,fr,O,r,367,1,733.0999999642372,510324.40000003576,7706,WL,B,3.0
4,6.448999881744385,learn,53551.000118255615,Thu Dec 04 2025 10:09:09 GMT-0600 (Central Standard Time),512408.3000000119,A,f,O,backspace,1331,1,2083.899999976158,510324.40000003576,7706,WL,B,3.0
4,7.414000034332275,learn,52585.999965667725,Thu Dec 04 2025 10:09:09 GMT-0600 (Central Standard Time),513373.8000000119,A,fi,O,i,951,1,3049.399999976158,510324.40000003576,7706,WL,B,3.0
4,7.513999938964844,learn,52486.000061035156,Thu Dec 04 2025 10:09:09 GMT-0600 (Central Standard Time),513473.5,A,fir,O,r,82,1,3149.099999964237,510324.40000003576,7706,WL,B,3.0
4,7.7149999141693115,learn,52285.00008583069,Thu Dec 04 2025 10:09:09 GMT-0600 (Central Standard Time),513674.0,A,fire,O,e,193,1,3349.599999964237,510324.40000003576,7706,WL,B,3.0
4,8.04699993133545,learn,51953.00006866455,Thu Dec 04 2025 10:09:09 GMT-0600 (Central Standard Time),514006.60000002384,A,fireenter,O,enter,318,1,3682.199999988079,510324.40000003576,7706,WL,B,3.0
4,8.963000059127808,learn,51036.99994087219,Thu Dec 04 2025 10:09:09 GMT-0600 (Central Standard Time),514922.0,A,l,O,l,908,1,915.0,514007.0,7706,WL,B,4.0
4,9.145999908447266,learn,50854.000091552734,Thu Dec 04 2025 10:09:09 GMT-0600 (Central Standard Time),515105.60000002384,A,la,O,a,175,1,1098.6000000238419,514007.0,7706,WL,B,4.0
4,9.430999994277954,learn,50569.000005722046,Thu Dec 04 2025 10:09:09 GMT-0600 (Central Standard Time),515390.2000000477,A,lak,O,k,272,1,1383.2000000476837,514007.0,7706,WL,B,4.0
4,9.52999997138977,learn,50470.00002861023,Thu Dec 04 2025 10:09:09 GMT-0600 (Central Standard Time),515489.2000000477,A,lake,O,e,90,1,1482.2000000476837,514007.0,7706,WL,B,4.0
4,9.914000034332275,learn,50085.999965667725,Thu Dec 04 2025 10:09:09 GMT-0600 (Central Standard Time),515873.5,A,lakeenter,O,enter,370,1,1866.5,514007.0,7706,WL,B,4.0
4,10.411999940872192,learn,49588.00005912781,Thu Dec 04 2025 10:09:09 GMT-0600 (Central Standard Time),516371.60000002384,A,c,O,c,489,1,497.80000001192093,515873.8000000119,7706,WL,B,5.0
4,11.062999963760376,learn,48937.000036239624,Thu Dec 04 2025 10:09:09 GMT-0600 (Central Standard Time),517022.0,A,ca,O,a,629,1,1148.199999988079,515873.8000000119,7706,WL,B,5.0
4,11.330999851226807,learn,48669.00014877319,Thu Dec 04 2025 10:09:09 GMT-0600 (Central Standard Time),517289.8000000119,A,cab,O,b,247,1,1416.0,515873.8000000119,7706,WL,B,5.0
4,11.562999963760376,learn,48437.000036239624,Thu Dec 04 2025 10:09:09 GMT-0600 (Central Standard Time),517522.10000002384,A,cabi,O,i,217,1,1648.300000011921,515873.8000000119,7706,WL,B,5.0
4,11.77999997138977,learn,48220.00002861023,Thu Dec 04 2025 10:09:09 GMT-0600 (Central Standard Time),517739.0,A,cabin,O,n,208,1,1865.199999988079,515873.8000000119,7706,WL,B,5.0
4,12.828999996185303,learn,47171.0000038147,Thu Dec 04 2025 10:09:09 GMT-0600 (Central Standard Time),518787.90000003576,A,cabinenter,O,enter,1030,1,2914.100000023842,515873.8000000119,7706,WL,B,5.0
4,13.378999948501587,learn,46621.00005149841,Thu Dec 04 2025 10:09:09 GMT-0600 (Central Standard Time),519337.90000003576,A,c,O,c,534,1,549.6999999880791,518788.2000000477,7706,WL,B,6.0
4,13.628999948501587,learn,46371.00005149841,Thu Dec 04 2025 10:09:09 GMT-0600 (Central Standard Time),519588.3000000119,A,cl,O,l,232,1,800.0999999642372,518788.2000000477,7706,WL,B,6.0
4,13.894999980926514,learn,46105.000019073486,Thu Dec 04 2025 10:09:09 GMT-0600 (Central Standard Time),519854.90000003576,A,clo,O,o,252,1,1066.699999988079,518788.2000000477,7706,WL,B,6.0
4,14.227999925613403,learn,45772.0000743866,Thu Dec 04 2025 10:09:09 GMT-0600 (Central Standard Time),520187.2000000477,A,cloc,O,c,322,1,1399.0,518788.2000000477,7706,WL,B,6.0
4,14.34500002861023,learn,45654.99997138977,Thu Dec 04 2025 10:09:09 GMT-0600 (Central Standard Time),520304.3000000119,A,clock,O,k,112,1,1516.0999999642372,518788.2000000477,7706,WL,B,6.0
4,14.894999980926514,learn,45105.000019073486,Thu Dec 04 2025 10:09:09 GMT-0600 (Central Standard Time),520854.2000000477,A,clockenter,O,enter,537,1,2066.0,518788.2000000477,7706,WL,B,6.0
4,15.24399995803833,learn,44756.00004196167,Thu Dec 04 2025 10:09:09 GMT-0600 (Central Standard Time),521203.60000002384,A,w,O,w,331,1,349.19999998807907,520854.40000003576,7706,WL,B,7.0
4,15.359999895095825,learn,44640.000104904175,Thu Dec 04 2025 10:09:09 GMT-0600 (Central Standard Time),521318.8000000119,A,wi,O,i,111,1,464.39999997615814,520854.40000003576,7706,WL,B,7.0
4,15.593999862670898,learn,44406.0001373291,Thu Dec 04 2025 10:09:09 GMT-0600 (Central Standard Time),521553.60000002384,A,wif,O,f,229,1,699.1999999880791,520854.40000003576,7706,WL,B,7.0
4,15.812000036239624,learn,44187.999963760376,Thu Dec 04 2025 10:09:09 GMT-0600 (Central Standard Time),521771.3000000119,A,wife,O,e,210,1,916.8999999761581,520854.40000003576,7706,WL,B,7.0
4,16.128000020980835,learn,43871.999979019165,Thu Dec 04 2025 10:09:09 GMT-0600 (Central Standard Time),522087.0,A,wifeenter,O,enter,295,1,1232.5999999642372,520854.40000003576,7706,WL,B,7.0
4,16.425999879837036,learn,43574.000120162964,Thu Dec 04 2025 10:09:09 GMT-0600 (Central Standard Time),522385.7000000477,A,s,O,s,290,1,298.5,522087.2000000477,7706,WL,B,8.0
4,16.694999933242798,learn,43305.0000667572,Thu Dec 04 2025 10:09:09 GMT-0600 (Central Standard Time),522654.3000000119,A,st,O,t,249,1,567.0999999642372,522087.2000000477,7706,WL,B,8.0
4,17.177000045776367,learn,42822.99995422363,Thu Dec 04 2025 10:09:09 GMT-0600 (Central Standard Time),523136.40000003576,A,str,O,r,458,1,1049.199999988079,522087.2000000477,7706,WL,B,8.0
4,17.496000051498413,learn,42503.99994850159,Thu Dec 04 2025 10:09:09 GMT-0600 (Central Standard Time),523455.10000002384,A,stre,O,e,301,1,1367.8999999761581,522087.2000000477,7706,WL,B,8.0
4,17.694000005722046,learn,42305.999994277954,Thu Dec 04 2025 10:09:09 GMT-0600 (Central Standard Time),523652.90000003576,A,stree,O,e,177,1,1565.699999988079,522087.2000000477,7706,WL,B,8.0
4,17.925999879837036,learn,42074.000120162964,Thu Dec 04 2025 10:09:09 GMT-0600 (Central Standard Time),523885.3000000119,A,street,O,t,213,1,1798.0999999642372,522087.2000000477,7706,WL,B,8.0
4,18.276999950408936,learn,41723.000049591064,Thu Dec 04 2025 10:09:09 GMT-0600 (Central Standard Time),524236.60000002384,A,streetenter,O,enter,333,1,2149.399999976158,522087.2000000477,7706,WL,B,8.0
4,18.592000007629395,learn,41407.999992370605,Thu Dec 04 2025 10:09:09 GMT-0600 (Central Standard Time),524551.3000000119,A,g,O,g,309,1,314.5,524236.8000000119,7706,WL,B,9.0
4,18.88100004196167,learn,41118.99995803833,Thu Dec 04 2025 10:09:09 GMT-0600 (Central Standard Time),524840.7000000477,A,gr,O,r,283,1,603.9000000357628,524236.8000000119,7706,WL,B,9.0
4,19.15999984741211,learn,40840.00015258789,Thu Dec 04 2025 10:09:09 GMT-0600 (Central Standard Time),525119.5,A,gra,O,a,260,1,882.6999999880791,524236.8000000119,7706,WL,B,9.0
4,19.442999839782715,learn,40557.000160217285,Thu Dec 04 2025 10:09:09 GMT-0600 (Central Standard Time),525402.7000000477,A,gras,O,s,265,1,1165.9000000357628,524236.8000000119,7706,WL,B,9.0
4,19.842999935150146,learn,40157.00006484985,Thu Dec 04 2025 10:09:09 GMT-0600 (Central Standard Time),525802.6000000238,A,grass,O,s,383,1,1565.800000011921,524236.8000000119,7706,WL,B,9.0
4,20.465999841690063,learn,39534.00015830994,Thu Dec 04 2025 10:09:09 GMT-0600 (Central Standard Time),526425.1000000238,A,grassenter,O,enter,607,1,2188.300000011921,524236.8000000119,7706,WL,B,9.0
4,20.82800006866455,learn,39171.99993133545,Thu Dec 04 2025 10:09:09 GMT-0600 (Central Standard Time),526787.2000000477,A,d,O,d,341,1,362.0,526425.2000000477,7706,WL,B,10.0
4,20.993000030517578,learn,39006.99996948242,Thu Dec 04 2025 10:09:09 GMT-0600 (Central Standard Time),526952.7000000477,A,do,O,o,145,1,527.5,526425.2000000477,7706,WL,B,10.0
4,21.175999879837036,learn,38824.000120162964,Thu Dec 04 2025 10:09:09 GMT-0600 (Central Standard Time),527135.5,A,doo,O,o,163,1,710.2999999523163,526425.2000000477,7706,WL,B,10.0
4,21.759999990463257,learn,38240.00000953674,Thu Dec 04 2025 10:09:09 GMT-0600 (Central Standard Time),527719.3000000119,A,door,O,r,569,1,1294.0999999642372,526425.2000000477,7706,WL,B,10.0
4,22.64299988746643,learn,37357.00011253357,Thu Dec 04 2025 10:09:09 GMT-0600 (Central Standard Time),528601.9000000358,A,doorenter,O,enter,872,1,2176.699999988079,526425.2000000477,7706,WL,B,10.0
4,23.092000007629395,learn,36907.999992370605,Thu Dec 04 2025 10:09:09 GMT-0600 (Central Standard Time),529051.2000000477,A,a,O,a,431,1,449.0,528602.2000000477,7706,WL,B,11.0
4,23.39299988746643,learn,36607.00011253357,Thu Dec 04 2025 10:09:09 GMT-0600 (Central Standard Time),529352.0,A,ar,O,r,297,1,749.7999999523163,528602.2000000477,7706,WL,B,11.0
4,24.141000032424927,learn,35858.99996757507,Thu Dec 04 2025 10:09:09 GMT-0600 (Central Standard Time),530100.7000000477,A,arm,O,m,738,1,1498.5,528602.2000000477,7706,WL,B,11.0
4,25.557999849319458,learn,34442.00015068054,Thu Dec 04 2025 10:09:09 GMT-0600 (Central Standard Time),531517.7000000477,A,armenter,O,enter,1413,1,2915.5,528602.2000000477,7706,WL,B,11.0
4,26.139999866485596,learn,33860.000133514404,Thu Dec 04 2025 10:09:09 GMT-0600 (Central Standard Time),532099.5,A,c,O,c,573,1,581.5,531518.0,7706,WL,B,12.0
4,26.457000017166138,learn,33542.99998283386,Thu Dec 04 2025 10:09:09 GMT-0600 (Central Standard Time),532416.5,A,ci,O,i,301,1,898.5,531518.0,7706,WL,B,12.0
4,26.70799994468689,learn,33292.00005531311,Thu Dec 04 2025 10:09:09 GMT-0600 (Central Standard Time),532667.0,A,cit,O,t,241,1,1149.0,531518.0,7706,WL,B,12.0
4,26.840999841690063,learn,33159.00015830994,Thu Dec 04 2025 10:09:09 GMT-0600 (Central Standard Time),532800.2000000477,A,city,O,y,127,1,1282.2000000476837,531518.0,7706,WL,B,12.0
4,29.490000009536743,learn,30509.999990463257,Thu Dec 04 2025 10:09:09 GMT-0600 (Central Standard Time),535449.5,A,cityenter,O,enter,2632,1,3931.5,531518.0,7706,WL,B,12.0
4,30.19000005722046,learn,29809.99994277954,Thu Dec 04 2025 10:09:09 GMT-0600 (Central Standard Time),536149.6000000238,A,p,O,p,688,1,699.8999999761581,535449.7000000477,7706,WL,B,13.0
4,30.44000005722046,learn,29559.99994277954,Thu Dec 04 2025 10:09:09 GMT-0600 (Central Standard Time),536399.8000000119,A,pu,O,u,230,1,950.0999999642372,535449.7000000477,7706,WL,B,13.0
4,30.723000049591064,learn,29276.999950408936,Thu Dec 04 2025 10:09:09 GMT-0600 (Central Standard Time),536682.0,A,pup,O,p,265,1,1232.2999999523163,535449.7000000477,7706,WL,B,13.0
4,31.00600004196167,learn,28993.99995803833,Thu Dec 04 2025 10:09:09 GMT-0600 (Central Standard Time),536965.0,A,pupi,O,i,263,1,1515.2999999523163,535449.7000000477,7706,WL,B,13.0
4,31.306999921798706,learn,28693.000078201294,Thu Dec 04 2025 10:09:09 GMT-0600 (Central Standard Time),537266.4000000358,A,pupil,O,l,284,1,1816.699999988079,535449.7000000477,7706,WL,B,13.0
4,31.655999898910522,learn,28344.000101089478,Thu Dec 04 2025 10:09:09 GMT-0600 (Central Standard Time),537615.5,A,pupilenter,O,enter,333,1,2165.7999999523163,535449.7000000477,7706,WL,B,13.0
4,32.121999979019165,learn,27878.000020980835,Thu Dec 04 2025 10:09:09 GMT-0600 (Central Standard Time),538081.6000000238,A,p,O,p,459,1,465.80000001192093,537615.8000000119,7706,WL,B,14.0
4,32.473999977111816,learn,27526.000022888184,Thu Dec 04 2025 10:09:09 GMT-0600 (Central Standard Time),538433.3000000119,A,pi,O,i,337,1,817.5,537615.8000000119,7706,WL,B,14.0
4,32.83899998664856,learn,27161.00001335144,Thu Dec 04 2025 10:09:09 GMT-0600 (Central Standard Time),538798.4000000358,A,pip,O,p,353,1,1182.6000000238419,537615.8000000119,7706,WL,B,14.0
4,33.388999938964844,learn,26611.000061035156,Thu Dec 04 2025 10:09:09 GMT-0600 (Central Standard Time),539348.6000000238,A,pipe,O,e,530,1,1732.800000011921,537615.8000000119,7706,WL,B,14.0
4,33.98899984359741,learn,26011.000156402588,Thu Dec 04 2025 10:09:09 GMT-0600 (Central Standard Time),539948.1000000238,A,pipeenter,O,enter,581,1,2332.300000011921,537615.8000000119,7706,WL,B,14.0
4,45.800999879837036,learn,14199.000120162964,Thu Dec 04 2025 10:09:09 GMT-0600 (Central Standard Time),551760.5,A,c,O,c,11807,1,11812.199999988079,539948.3000000119,7706,WL,B,15.0
4,46.21799993515015,learn,13782.000064849854,Thu Dec 04 2025 10:09:09 GMT-0600 (Central Standard Time),552177.3000000119,A,ca,O,a,407,1,12229.0,539948.3000000119,7706,WL,B,15.0
4,46.45099997520447,learn,13549.000024795532,Thu Dec 04 2025 10:09:09 GMT-0600 (Central Standard Time),552410.1000000238,A,cab,O,b,217,1,12461.800000011921,539948.3000000119,7706,WL,B,15.0
4,46.66700005531311,learn,13332.99994468689,Thu Dec 04 2025 10:09:09 GMT-0600 (Central Standard Time),552626.8000000119,A,cabi,O,i,200,1,12678.5,539948.3000000119,7706,WL,B,15.0
4,46.91700005531311,learn,13082.99994468689,Thu Dec 04 2025 10:09:09 GMT-0600 (Central Standard Time),552876.1000000238,A,cabin,O,n,231,1,12927.800000011921,539948.3000000119,7706,WL,B,15.0
4,47.21799993515015,learn,12782.000064849854,Thu Dec 04 2025 10:09:09 GMT-0600 (Central Standard Time),553177.5,A,cabinenter,O,enter,286,1,13229.199999988079,539948.3000000119,7706,WL,B,15.0
5,1.065999984741211,learn,60000.0,Thu Dec 04 2025 10:09:09 GMT-0600 (Central Standard Time),623155.2000000477,A,s,O,s,1045,1,1065.300000011921,622089.9000000358,7706,WL,B,1.0
5,1.4500000476837158,learn,60000.0,Thu Dec 04 2025 10:09:09 GMT-0600 (Central Standard Time),623539.0,A,st,O,t,364,1,1449.0999999642372,622089.9000000358,7706,WL,B,1.0
5,1.8489999771118164,learn,60000.0,Thu Dec 04 2025 10:09:09 GMT-0600 (Central Standard Time),623938.1000000238,A,str,O,r,390,1,1848.199999988079,622089.9000000358,7706,WL,B,1.0
5,2.182000160217285,learn,60000.0,Thu Dec 04 2025 10:09:09 GMT-0600 (Central Standard Time),624271.7000000477,A,stre,O,e,313,1,2181.800000011921,622089.9000000358,7706,WL,B,1.0
5,2.368000030517578,learn,60000.0,Thu Dec 04 2025 10:09:09 GMT-0600 (Central Standard Time),624457.2000000477,A,stree,O,e,169,1,2367.300000011921,622089.9000000358,7706,WL,B,1.0
5,2.6480000019073486,learn,60000.0,Thu Dec 04 2025 10:09:09 GMT-0600 (Central Standard Time),624737.2000000477,A,street,O,t,276,1,2647.300000011921,622089.9000000358,7706,WL,B,1.0
5,3.448000192642212,learn,60000.0,Thu Dec 04 2025 10:09:09 GMT-0600 (Central Standard Time),625537.9000000358,A,streetenter,O,enter,795,1,3448.0,622089.9000000358,7706,WL,B,1.0
5,4.031000137329102,learn,60000.0,Thu Dec 04 2025 10:09:09 GMT-0600 (Central Standard Time),626120.2000000477,A,g,O,g,568,1,582.1000000238419,625538.1000000238,7706,WL,B,2.0
5,4.332000017166138,learn,60000.0,Thu Dec 04 2025 10:09:09 GMT-0600 (Central Standard Time),626421.1000000238,A,gr,O,r,291,1,883.0,625538.1000000238,7706,WL,B,2.0
5,4.5970001220703125,learn,60000.0,Thu Dec 04 2025 10:09:09 GMT-0600 (Central Standard Time),626686.6000000238,A,gra,O,a,253,1,1148.5,625538.1000000238,7706,WL,B,2.0
5,4.8480000495910645,learn,60000.0,Thu Dec 04 2025 10:09:09 GMT-0600 (Central Standard Time),626937.3000000119,A,gras,O,s,245,1,1399.199999988079,625538.1000000238,7706,WL,B,2.0
5,5.0970001220703125,learn,60000.0,Thu Dec 04 2025 10:09:09 GMT-0600 (Central Standard Time),627186.6000000238,A,grass,O,s,240,1,1648.5,625538.1000000238,7706,WL,B,2.0
5,5.496999979019165,learn,60000.0,Thu Dec 04 2025 10:09:09 GMT-0600 (Central Standard Time),627586.8000000119,A,grassenter,O,enter,385,1,2048.699999988079,625538.1000000238,7706,WL,B,2.0
5,6.046000003814697,learn,60000.0,Thu Dec 04 2025 10:09:09 GMT-0600 (Central Standard Time),628135.3000000119,A,d,O,d,536,1,548.3000000119209,627587.0,7706,WL,B,3.0
5,6.264000177383423,learn,60000.0,Thu Dec 04 2025 10:09:09 GMT-0600 (Central Standard Time),628353.8000000119,A,do,O,o,203,1,766.8000000119209,627587.0,7706,WL,B,3.0
5,6.446000099182129,learn,60000.0,Thu Dec 04 2025 10:09:09 GMT-0600 (Central Standard Time),628535.8000000119,A,doo,O,o,176,1,948.8000000119209,627587.0,7706,WL,B,3.0
5,6.564000129699707,learn,60000.0,Thu Dec 04 2025 10:09:09 GMT-0600 (Central Standard Time),628653.1000000238,A,door,O,r,104,1,1066.1000000238419,627587.0,7706,WL,B,3.0
5,7.397000074386597,learn,60000.0,Thu Dec 04 2025 10:09:09 GMT-0600 (Central Standard Time),629485.9000000358,A,doorenter,O,enter,819,1,1898.9000000357628,627587.0,7706,WL,B,3.0
5,7.946000099182129,learn,60000.0,Thu Dec 04 2025 10:09:09 GMT-0600 (Central Standard Time),630035.4000000358,A,a,O,a,532,1,549.1999999880791,629486.2000000477,7706,WL,B,4.0
5,8.264000177383423,learn,60000.0,Thu Dec 04 2025 10:09:09 GMT-0600 (Central Standard Time),630353.0,A,ar,O,r,295,1,866.7999999523163,629486.2000000477,7706,WL,B,4.0
5,8.646000146865845,learn,60000.0,Thu Dec 04 2025 10:09:09 GMT-0600 (Central Standard Time),630735.6000000238,A,arm,O,m,368,1,1249.3999999761581,629486.2000000477,7706,WL,B,4.0
5,9.162000179290771,learn,60000.0,Thu Dec 04 2025 10:09:09 GMT-0600 (Central Standard Time),631251.8000000119,A,armenter,O,enter,507,1,1765.5999999642372,629486.2000000477,7706,WL,B,4.0
5,9.463000059127808,learn,60000.0,Thu Dec 04 2025 10:09:09 GMT-0600 (Central Standard Time),631552.5,A,f,O,f,295,1,300.5,631252.0,7706,WL,B,5.0
5,9.629000186920166,learn,60000.0,Thu Dec 04 2025 10:09:09 GMT-0600 (Central Standard Time),631718.5,A,fi,O,i,151,1,466.5,631252.0,7706,WL,B,5.0
5,9.796000003814697,learn,60000.0,Thu Dec 04 2025 10:09:09 GMT-0600 (Central Standard Time),631885.1000000238,A,fir,O,r,147,1,633.1000000238419,631252.0,7706,WL,B,5.0
5,9.979000091552734,learn,60000.0,Thu Dec 04 2025 10:09:09 GMT-0600 (Central Standard Time),632068.9000000358,A,fire,O,e,171,1,816.9000000357628,631252.0,7706,WL,B,5.0
5,10.496000051498413,learn,60000.0,Thu Dec 04 2025 10:09:09 GMT-0600 (Central Standard Time),632585.3000000119,A,fireenter,O,enter,500,1,1333.300000011921,631252.0,7706,WL,B,5.0
5,10.962000131607056,learn,60000.0,Thu Dec 04 2025 10:09:09 GMT-0600 (Central Standard Time),633051.4000000358,A,w,O,w,457,1,465.69999998807907,632585.7000000477,7706,WL,B,6.0
5,11.379000186920166,learn,60000.0,Thu Dec 04 2025 10:09:09 GMT-0600 (Central Standard Time),633468.0,A,wi,O,i,407,1,882.2999999523163,632585.7000000477,7706,WL,B,6.0
5,11.545000076293945,learn,60000.0,Thu Dec 04 2025 10:09:09 GMT-0600 (Central Standard Time),633634.5,A,wif,O,f,147,1,1048.7999999523163,632585.7000000477,7706,WL,B,6.0
5,11.76200008392334,learn,60000.0,Thu Dec 04 2025 10:09:09 GMT-0600 (Central Standard Time),633850.9000000358,A,wife,O,e,206,1,1265.199999988079,632585.7000000477,7706,WL,B,6.0
5,12.17900013923645,learn,60000.0,Thu Dec 04 2025 10:09:09 GMT-0600 (Central Standard Time),634268.3000000119,A,wifeenter,O,enter,407,1,1682.5999999642372,632585.7000000477,7706,WL,B,6.0
5,12.480000019073486,learn,60000.0,Thu Dec 04 2025 10:09:09 GMT-0600 (Central Standard Time),634569.6000000238,A,w,O,w,285,1,301.10000002384186,634268.5,7706,WL,B,7.0
5,12.646000146865845,learn,60000.0,Thu Dec 04 2025 10:09:09 GMT-0600 (Central Standard Time),634735.2000000477,A,wi,O,i,145,1,466.7000000476837,634268.5,7706,WL,B,7.0
5,12.912000179290771,learn,60000.0,Thu Dec 04 2025 10:09:09 GMT-0600 (Central Standard Time),635001.2000000477,A,win,O,n,259,1,732.7000000476837,634268.5,7706,WL,B,7.0
5,13.09600019454956,learn,60000.0,Thu Dec 04 2025 10:09:09 GMT-0600 (Central Standard Time),635185.6000000238,A,wind,O,d,175,1,917.1000000238419,634268.5,7706,WL,B,7.0
5,13.57800006866455,learn,60000.0,Thu Dec 04 2025 10:09:09 GMT-0600 (Central Standard Time),635667.3000000119,A,windo,O,o,464,1,1398.800000011921,634268.5,7706,WL,B,7.0
5,13.74400019645691,learn,60000.0,Thu Dec 04 2025 10:09:09 GMT-0600 (Central Standard Time),635833.5,A,window,O,w,150,1,1565.0,634268.5,7706,WL,B,7.0
5,14.144000053405762,learn,60000.0,Thu Dec 04 2025 10:09:09 GMT-0600 (Central Standard Time),636233.1000000238,A,windowenter,O,enter,394,1,1964.6000000238419,634268.5,7706,WL,B,7.0
5,14.511000156402588,learn,60000.0,Thu Dec 04 2025 10:09:09 GMT-0600 (Central Standard Time),636600.3000000119,A,c,O,c,362,1,366.89999997615814,636233.4000000358,7706,WL,B,8.0
5,14.677000045776367,learn,60000.0,Thu Dec 04 2025 10:09:09 GMT-0600 (Central Standard Time),636766.9000000358,A,ci,O,i,148,1,533.5,636233.4000000358,7706,WL,B,8.0
5,14.92799997329712,learn,60000.0,Thu Dec 04 2025 10:09:09 GMT-0600 (Central Standard Time),637017.1000000238,A,cit,O,t,233,1,783.6999999880791,636233.4000000358,7706,WL,B,8.0
5,15.044000148773193,learn,60000.0,Thu Dec 04 2025 10:09:09 GMT-0600 (Central Standard Time),637133.8000000119,A,city,O,y,107,1,900.3999999761581,636233.4000000358,7706,WL,B,8.0
5,15.710999965667725,learn,60000.0,Thu Dec 04 2025 10:09:09 GMT-0600 (Central Standard Time),637800.6000000238,A,cityenter,O,enter,646,1,1567.199999988079,636233.4000000358,7706,WL,B,8.0
5,16.110000133514404,learn,60000.0,Thu Dec 04 2025 10:09:09 GMT-0600 (Central Standard Time),638199.3000000119,A,c,O,c,379,1,398.39999997615814,637800.9000000358,7706,WL,B,9.0
5,16.259999990463257,learn,60000.0,Thu Dec 04 2025 10:09:09 GMT-0600 (Central Standard Time),638349.9000000358,A,cl,O,l,139,1,549.0,637800.9000000358,7706,WL,B,9.0
5,16.5770001411438,learn,60000.0,Thu Dec 04 2025 10:09:09 GMT-0600 (Central Standard Time),638666.5,A,clo,O,o,297,1,865.5999999642372,637800.9000000358,7706,WL,B,9.0
5,16.877000093460083,learn,60000.0,Thu Dec 04 2025 10:09:09 GMT-0600 (Central Standard Time),638966.1000000238,A,cloc,O,c,286,1,1165.199999988079,637800.9000000358,7706,WL,B,9.0
5,17.176000118255615,learn,60000.0,Thu Dec 04 2025 10:09:09 GMT-0600 (Central Standard Time),639265.9000000358,A,clock,O,k,292,1,1465.0,637800.9000000358,7706,WL,B,9.0
5,17.57800006866455,learn,60000.0,Thu Dec 04 2025 10:09:09 GMT-0600 (Central Standard Time),639667.8000000119,A,clockenter,O,enter,393,1,1866.8999999761581,637800.9000000358,7706,WL,B,9.0
5,18.009999990463257,learn,60000.0,Thu Dec 04 2025 10:09:09 GMT-0600 (Central Standard Time),640099.3000000119,A,p,O,p,414,1,431.19999998807907,639668.1000000238,7706,WL,B,10.0
5,18.294000148773193,learn,60000.0,Thu Dec 04 2025 10:09:09 GMT-0600 (Central Standard Time),640383.3000000119,A,pu,O,u,271,1,715.1999999880791,639668.1000000238,7706,WL,B,10.0
5,18.91100001335144,learn,60000.0,Thu Dec 04 2025 10:09:09 GMT-0600 (Central Standard Time),641000.7000000477,A,pup,O,p,592,1,1332.6000000238419,639668.1000000238,7706,WL,B,10.0
5,19.210000038146973,learn,60000.0,Thu Dec 04 2025 10:09:09 GMT-0600 (Central Standard Time),641299.0,A,pupi,O,i,288,1,1630.8999999761581,639668.1000000238,7706,WL,B,10.0
5,19.509000062942505,learn,60000.0,Thu Dec 04 2025 10:09:09 GMT-0600 (Central Standard Time),641598.8000000119,A,pupil,O,l,281,1,1930.699999988079,639668.1000000238,7706,WL,B,10.0
5,20.292999982833862,learn,60000.0,Thu Dec 04 2025 10:09:09 GMT-0600 (Central Standard Time),642382.3000000119,A,pupilenter,O,enter,764,1,2714.199999988079,639668.1000000238,7706,WL,B,10.0
5,20.759000062942505,learn,60000.0,Thu Dec 04 2025 10:09:09 GMT-0600 (Central Standard Time),642848.5,A,s,O,s,447,1,466.0,642382.5,7706,WL,B,11.0
5,21.026000022888184,learn,60000.0,Thu Dec 04 2025 10:09:09 GMT-0600 (Central Standard Time),643115.1000000238,A,st,O,t,251,1,732.6000000238419,642382.5,7706,WL,B,11.0
5,21.35800004005432,learn,60000.0,Thu Dec 04 2025 10:09:09 GMT-0600 (Central Standard Time),643447.8000000119,A,sta,O,a,310,1,1065.300000011921,642382.5,7706,WL,B,11.0
5,21.575000047683716,learn,60000.0,Thu Dec 04 2025 10:09:09 GMT-0600 (Central Standard Time),643664.9000000358,A,star,O,r,200,1,1282.4000000357628,642382.5,7706,WL,B,11.0
5,22.325000047683716,learn,60000.0,Thu Dec 04 2025 10:09:09 GMT-0600 (Central Standard Time),644414.0,A,starenter,O,enter,729,1,2031.5,642382.5,7706,WL,B,11.0
5,22.725000143051147,learn,60000.0,Thu Dec 04 2025 10:09:09 GMT-0600 (Central Standard Time),644814.5,A,p,O,p,388,1,400.19999998807907,644414.3000000119,7706,WL,B,12.0
5,23.725000143051147,learn,60000.0,Thu Dec 04 2025 10:09:09 GMT-0600 (Central Standard Time),645814.5,A,pi,O,i,986,1,1400.199999988079,644414.3000000119,7706,WL,B,12.0
5,24.02500009536743,learn,60000.0,Thu Dec 04 2025 10:09:09 GMT-0600 (Central Standard Time),646114.4000000358,A,pip,O,p,292,1,1700.1000000238419,644414.3000000119,7706,WL,B,12.0
5,24.37600016593933,learn,60000.0,Thu Dec 04 2025 10:09:09 GMT-0600 (Central Standard Time),646465.0,A,pipe,O,e,347,1,2050.699999988079,644414.3000000119,7706,WL,B,12.0
5,25.27400016784668,learn,60000.0,Thu Dec 04 2025 10:09:09 GMT-0600 (Central Standard Time),647363.3000000119,A,pipeenter,O,enter,880,1,2949.0,644414.3000000119,7706,WL,B,12.0
5,25.87600016593933,learn,60000.0,Thu Dec 04 2025 10:09:09 GMT-0600 (Central Standard Time),647965.2000000477,A,s,O,s,583,1,601.7000000476837,647363.5,7706,WL,B,13.0
5,26.074000120162964,learn,60000.0,Thu Dec 04 2025 10:09:09 GMT-0600 (Central Standard Time),648163.2000000477,A,sk,O,k,189,1,799.7000000476837,647363.5,7706,WL,B,13.0
5,26.35700011253357,learn,60000.0,Thu Dec 04 2025 10:09:09 GMT-0600 (Central Standard Time),648446.0,A,ski,O,i,272,1,1082.5,647363.5,7706,WL,B,13.0
5,26.58899998664856,learn,60000.0,Thu Dec 04 2025 10:09:09 GMT-0600 (Central Standard Time),648678.7000000477,A,skin,O,n,222,1,1315.2000000476837,647363.5,7706,WL,B,13.0
5,27.006999969482422,learn,60000.0,Thu Dec 04 2025 10:09:09 GMT-0600 (Central Standard Time),649096.7000000477,A,skinenter,O,enter,396,1,1733.2000000476837,647363.5,7706,WL,B,13.0
5,27.540000200271606,learn,60000.0,Thu Dec 04 2025 10:09:09 GMT-0600 (Central Standard Time),649629.6000000238,A,f,O,f,514,1,532.5,649097.1000000238,7706,WL,B,14.0
5,27.84000015258789,learn,60000.0,Thu Dec 04 2025 10:09:09 GMT-0600 (Central Standard Time),649929.5,A,fi,O,i,292,1,832.3999999761581,649097.1000000238,7706,WL,B,14.0
5,27.990000009536743,learn,60000.0,Thu Dec 04 2025 10:09:09 GMT-0600 (Central Standard Time),650079.7000000477,A,fir,O,r,131,1,982.6000000238419,649097.1000000238,7706,WL,B,14.0
5,28.290000200271606,learn,60000.0,Thu Dec 04 2025 10:09:09 GMT-0600 (Central Standard Time),650379.3000000119,A,fire,O,e,283,1,1282.199999988079,649097.1000000238,7706,WL,B,14.0
5,29.091000080108643,learn,60000.0,Thu Dec 04 2025 10:09:09 GMT-0600 (Central Standard Time),651180.7000000477,A,fireenter,O,enter,791,1,2083.600000023842,649097.1000000238,7706,WL,B,14.0
5,32.4539999961853,learn,60000.0,Thu Dec 04 2025 10:09:09 GMT-0600 (Central Standard Time),654543.6000000238,A,l,O,l,3349,1,3362.600000023842,651181.0,7706,WL,B,15.0
5,32.640000104904175,learn,60000.0,Thu Dec 04 2025 10:09:09 GMT-0600 (Central Standard Time),654729.7000000477,A,la,O,a,182,1,3548.7000000476837,651181.0,7706,WL,B,15.0
5,32.871999979019165,learn,60000.0,Thu Dec 04 2025 10:09:09 GMT-0600 (Central Standard Time),654961.5,A,lak,O,k,222,1,3780.5,651181.0,7706,WL,B,15.0
5,32.9539999961853,learn,60000.0,Thu Dec 04 2025 10:09:09 GMT-0600 (Central Standard Time),655043.6000000238,A,lake,O,e,64,1,3862.600000023842,651181.0,7706,WL,B,15.0
5,33.371999979019165,learn,60000.0,Thu Dec 04 2025 10:09:09 GMT-0600 (Central Standard Time),655461.6000000238,A,lakeenter,O,enter,398,1,4280.600000023842,651181.0,7706,WL,B,15.0
6,0.7999999523162842,distr,59200.000047683716,Thu Dec 04 2025 10:09:09 GMT-0600 (Central Standard Time),733536.1000000238,B,c,O,c,778,1,799.3000000119209,732736.8000000119,7706,WL,B,1.0
6,1.2320001125335693,distr,58767.99988746643,Thu Dec 04 2025 10:09:09 GMT-0600 (Central Standard Time),733969.0,B,ce,O,e,415,1,1232.199999988079,732736.8000000119,7706,WL,B,1.0
6,1.499000072479248,distr,58500.99992752075,Thu Dec 04 2025 10:09:09 GMT-0600 (Central Standard Time),734235.8000000119,B,cel,O,l,247,1,1499.0,732736.8000000119,7706,WL,B,1.0
6,1.683000087738037,distr,58316.99991226196,Thu Dec 04 2025 10:09:09 GMT-0600 (Central Standard Time),734419.0,B,cell,O,l,162,1,1682.199999988079,732736.8000000119,7706,WL,B,1.0
6,2.3489999771118164,distr,57651.00002288818,Thu Dec 04 2025 10:09:09 GMT-0600 (Central Standard Time),735085.8000000119,B,cellenter,O,enter,652,1,2349.0,732736.8000000119,7706,WL,B,1.0
6,3.2820000648498535,distr,56717.99993515015,Thu Dec 04 2025 10:09:09 GMT-0600 (Central Standard Time),736018.5,B,v,O,v,915,1,932.3999999761581,735086.1000000238,7706,WL,B,2.0
6,3.449000120162964,distr,56550.999879837036,Thu Dec 04 2025 10:09:09 GMT-0600 (Central Standard Time),736185.1000000238,B,vi,O,i,157,1,1099.0,735086.1000000238,7706,WL,B,2.0
6,3.7149999141693115,distr,56285.00008583069,Thu Dec 04 2025 10:09:09 GMT-0600 (Central Standard Time),736451.6000000238,B,vil,O,l,254,1,1365.5,735086.1000000238,7706,WL,B,2.0
6,3.931999921798706,distr,56068.000078201294,Thu Dec 04 2025 10:09:09 GMT-0600 (Central Standard Time),736668.4000000358,B,vill,O,l,204,1,1582.300000011921,735086.1000000238,7706,WL,B,2.0
6,4.04800009727478,distr,55951.99990272522,Thu Dec 04 2025 10:09:09 GMT-0600 (Central Standard Time),736784.7000000477,B,villa,O,a,107,1,1698.6000000238419,735086.1000000238,7706,WL,B,2.0
6,4.266000032424927,distr,55733.99996757507,Thu Dec 04 2025 10:09:09 GMT-0600 (Central Standard Time),737002.7000000477,B,villag,O,g,198,1,1916.6000000238419,735086.1000000238,7706,WL,B,2.0
6,4.497999906539917,distr,55502.00009346008,Thu Dec 04 2025 10:09:09 GMT-0600 (Central Standard Time),737234.7000000477,B,village,O,e,222,1,2148.600000023842,735086.1000000238,7706,WL,B,2.0
6,4.799000024795532,distr,55200.99997520447,Thu Dec 04 2025 10:09:09 GMT-0600 (Central Standard Time),737535.2000000477,B,villageenter,O,enter,278,1,2449.100000023842,735086.1000000238,7706,WL,B,2.0
6,5.232000112533569,distr,54767.99988746643,Thu Dec 04 2025 10:09:09 GMT-0600 (Central Standard Time),737968.7000000477,B,b,O,b,418,1,433.2000000476837,737535.5,7706,WL,B,3.0
6,5.5320000648498535,distr,54467.99993515015,Thu Dec 04 2025 10:09:09 GMT-0600 (Central Standard Time),738268.6000000238,B,ba,O,a,277,1,733.1000000238419,737535.5,7706,WL,B,3.0
6,5.765000104904175,distr,54234.999895095825,Thu Dec 04 2025 10:09:09 GMT-0600 (Central Standard Time),738501.7000000477,B,bab,O,b,219,1,966.2000000476837,737535.5,7706,WL,B,3.0
6,5.949000120162964,distr,54050.999879837036,Thu Dec 04 2025 10:09:09 GMT-0600 (Central Standard Time),738685.4000000358,B,baby,O,y,162,1,1149.9000000357628,737535.5,7706,WL,B,3.0
6,6.430999994277954,distr,53569.000005722046,Thu Dec 04 2025 10:09:09 GMT-0600 (Central Standard Time),739167.0,B,babyenter,O,enter,458,1,1631.5,737535.5,7706,WL,B,3.0
6,6.96399998664856,distr,53036.00001335144,Thu Dec 04 2025 10:09:09 GMT-0600 (Central Standard Time),739701.0,B,l,O,l,523,1,533.6999999880791,739167.3000000119,7706,WL,B,4.0
6,7.230000019073486,distr,52769.999980926514,Thu Dec 04 2025 10:09:09 GMT-0600 (Central Standard Time),739966.7000000477,B,li,O,i,253,1,799.4000000357628,739167.3000000119,7706,WL,B,4.0
6,7.513999938964844,distr,52486.000061035156,Thu Dec 04 2025 10:09:09 GMT-0600 (Central Standard Time),740250.2000000477,B,lip,O,p,267,1,1082.9000000357628,739167.3000000119,7706,WL,B,4.0
6,8.199000120162964,distr,51800.999879837036,Thu Dec 04 2025 10:09:09 GMT-0600 (Central Standard Time),740935.7000000477,B,lipenter,O,enter,664,1,1768.4000000357628,739167.3000000119,7706,WL,B,4.0
6,9.413000106811523,distr,50586.99989318848,Thu Dec 04 2025 10:09:09 GMT-0600 (Central Standard Time),742149.8000000119,B,o,O,o,1211,1,1213.800000011921,740936.0,7706,WL,B,5.0
6,9.897000074386597,distr,50102.9999256134,Thu Dec 04 2025 10:09:09 GMT-0600 (Central Standard Time),742633.8000000119,B,oc,O,c,468,1,1697.800000011921,740936.0,7706,WL,B,5.0
6,10.246999979019165,distr,49753.000020980835,Thu Dec 04 2025 10:09:09 GMT-0600 (Central Standard Time),742983.6000000238,B,oce,O,e,329,1,2047.6000000238419,740936.0,7706,WL,B,5.0
6,10.480000019073486,distr,49519.999980926514,Thu Dec 04 2025 10:09:09 GMT-0600 (Central Standard Time),743216.4000000358,B,ocea,O,a,226,1,2280.400000035763,740936.0,7706,WL,B,5.0
6,10.680000066757202,distr,49319.9999332428,Thu Dec 04 2025 10:09:09 GMT-0600 (Central Standard Time),743416.4000000358,B,ocean,O,n,196,1,2480.400000035763,740936.0,7706,WL,B,5.0
6,11.347000122070312,distr,48652.99987792969,Thu Dec 04 2025 10:09:09 GMT-0600 (Central Standard Time),744083.1000000238,B,oceanenter,O,enter,657,1,3147.100000023842,740936.0,7706,WL,B,5.0
6,11.864000082015991,distr,48135.99991798401,Thu Dec 04 2025 10:09:09 GMT-0600 (Central Standard Time),744600.8000000119,B,a,O,a,495,1,517.5,744083.3000000119,7706,WL,B,6.0
6,12.196000099182129,distr,47803.99990081787,Thu Dec 04 2025 10:09:09 GMT-0600 (Central Standard Time),744932.5,B,ar,O,r,311,1,849.1999999880791,744083.3000000119,7706,WL,B,6.0
6,12.779000043869019,distr,47220.99995613098,Thu Dec 04 2025 10:09:09 GMT-0600 (Central Standard Time),745515.4000000358,B,arm,O,m,573,1,1432.1000000238419,744083.3000000119,7706,WL,B,6.0
6,14.59500002861023,distr,45404.99997138977,Thu Dec 04 2025 10:09:09 GMT-0600 (Central Standard Time),747331.4000000358,B,army,O,y,1807,1,3248.100000023842,744083.3000000119,7706,WL,B,6.0
6,16.145999908447266,distr,43854.000091552734,Thu Dec 04 2025 10:09:09 GMT-0600 (Central Standard Time),748882.1000000238,B,armyenter,O,enter,1541,1,4798.800000011921,744083.3000000119,7706,WL,B,6.0
6,16.812000036239624,distr,43187.999963760376,Thu Dec 04 2025 10:09:09 GMT-0600 (Central Standard Time),749548.2000000477,B,v,O,v,655,1,665.8000000119209,748882.4000000358,7706,WL,B,7.0
6,16.944999933242798,distr,43055.0000667572,Thu Dec 04 2025 10:09:09 GMT-0600 (Central Standard Time),749681.7000000477,B,vi,O,i,117,1,799.3000000119209,748882.4000000358,7706,WL,B,7.0
6,17.227999925613403,distr,42772.0000743866,Thu Dec 04 2025 10:09:09 GMT-0600 (Central Standard Time),749964.4000000358,B,vil,O,l,270,1,1082.0,748882.4000000358,7706,WL,B,7.0
6,17.444999933242798,distr,42555.0000667572,Thu Dec 04 2025 10:09:09 GMT-0600 (Central Standard Time),750181.8000000119,B,vill,O,l,196,1,1299.3999999761581,748882.4000000358,7706,WL,B,7.0
6,17.611999988555908,distr,42388.00001144409,Thu Dec 04 2025 10:09:09 GMT-0600 (Central Standard Time),750348.2000000477,B,villa,O,a,147,1,1465.800000011921,748882.4000000358,7706,WL,B,7.0
6,17.861000061035156,distr,42138.999938964844,Thu Dec 04 2025 10:09:09 GMT-0600 (Central Standard Time),750597.6000000238,B,villag,O,g,239,1,1715.199999988079,748882.4000000358,7706,WL,B,7.0
6,18.14400005340576,distr,41855.99994659424,Thu Dec 04 2025 10:09:09 GMT-0600 (Central Standard Time),750880.9000000358,B,village,O,e,267,1,1998.5,748882.4000000358,7706,WL,B,7.0
6,18.89400005340576,distr,41105.99994659424,Thu Dec 04 2025 10:09:09 GMT-0600 (Central Standard Time),751630.6000000238,B,villageenter,O,enter,728,1,2748.199999988079,748882.4000000358,7706,WL,B,7.0
6,21.526000022888184,distr,38473.99997711182,Thu Dec 04 2025 10:09:09 GMT-0600 (Central Standard Time),754262.9000000358,B,c,O,c,2620,1,2632.0,751630.9000000358,7706,WL,B,8.0
6,21.70900011062622,distr,38290.99988937378,Thu Dec 04 2025 10:09:09 GMT-0600 (Central Standard Time),754446.0,B,co,O,o,161,1,2815.099999964237,751630.9000000358,7706,WL,B,8.0
6,21.95900011062622,distr,38040.99988937378,Thu Dec 04 2025 10:09:09 GMT-0600 (Central Standard Time),754695.7000000477,B,coi,O,i,246,1,3064.800000011921,751630.9000000358,7706,WL,B,8.0
6,22.41100001335144,distr,37588.99998664856,Thu Dec 04 2025 10:09:09 GMT-0600 (Central Standard Time),755147.1000000238,B,coin,O,n,441,1,3516.199999988079,751630.9000000358,7706,WL,B,8.0
6,23.075999975204468,distr,36924.00002479553,Thu Dec 04 2025 10:09:09 GMT-0600 (Central Standard Time),755812.5,B,coinenter,O,enter,648,1,4181.599999964237,751630.9000000358,7706,WL,B,8.0
6,39.3050000667572,distr,20694.999933242798,Thu Dec 04 2025 10:09:09 GMT-0600 (Central Standard Time),772041.9000000358,B,b,O,b,16224,1,16229.199999988079,755812.7000000477,7706,WL,B,9.0
6,39.4539999961853,distr,20546.000003814697,Thu Dec 04 2025 10:09:09 GMT-0600 (Central Standard Time),772190.4000000358,B,bu,O,u,134,1,16377.699999988079,755812.7000000477,7706,WL,B,9.0
6,39.687000036239624,distr,20312.999963760376,Thu Dec 04 2025 10:09:09 GMT-0600 (Central Standard Time),772423.7000000477,B,bui,O,i,219,1,16611.0,755812.7000000477,7706,WL,B,9.0
6,39.97200012207031,distr,20027.999877929688,Thu Dec 04 2025 10:09:09 GMT-0600 (Central Standard Time),772708.1000000238,B,buil,O,l,267,1,16895.399999976158,755812.7000000477,7706,WL,B,9.0
6,40.206000089645386,distr,19793.999910354614,Thu Dec 04 2025 10:09:09 GMT-0600 (Central Standard Time),772942.5,B,build,O,d,230,1,17129.799999952316,755812.7000000477,7706,WL,B,9.0
6,40.437000036239624,distr,19562.999963760376,Thu Dec 04 2025 10:09:09 GMT-0600 (Central Standard Time),773173.3000000119,B,buildi,O,i,211,1,17360.599999964237,755812.7000000477,7706,WL,B,9.0
6,40.65400004386902,distr,19345.99995613098,Thu Dec 04 2025 10:09:09 GMT-0600 (Central Standard Time),773390.8000000119,B,buildin,O,n,197,1,17578.099999964237,755812.7000000477,7706,WL,B,9.0
6,40.76900005340576,distr,19230.99994659424,Thu Dec 04 2025 10:09:09 GMT-0600 (Central Standard Time),773505.9000000358,B,building,O,g,105,1,17693.19999998808,755812.7000000477,7706,WL,B,9.0
6,41.236000061035156,distr,18763.999938964844,Thu Dec 04 2025 10:09:09 GMT-0600 (Central Standard Time),773972.6000000238,B,buildingenter,O,enter,455,1,18159.899999976158,755812.7000000477,7706,WL,B,9.0
6,60.015000104904175,distr,-15.000104904174805,Thu Dec 04 2025 10:09:09 GMT-0600 (Central Standard Time),792751.9000000358,B,None,O,None,18775,1,18779.0,773972.9000000358,7706,WL,B,10.0
7,0.9499998092651367,immed,59050.00019073486,Thu Dec 04 2025 10:09:09 GMT-0600 (Central Standard Time),808063.7000000477,A,g,O,g,937,1,950.0,807113.7000000477,7706,WL,B,1.0
7,1.4509999752044678,immed,58549.00002479553,Thu Dec 04 2025 10:09:09 GMT-0600 (Central Standard Time),808564.6000000238,A,gr,O,r,482,1,1450.8999999761581,807113.7000000477,7706,WL,B,1.0
7,1.7309999465942383,immed,58269.00005340576,Thu Dec 04 2025 10:09:09 GMT-0600 (Central Standard Time),808844.6000000238,A,gre,O,e,260,1,1730.8999999761581,807113.7000000477,7706,WL,B,1.0
7,1.9149999618530273,immed,58085.00003814697,Thu Dec 04 2025 10:09:09 GMT-0600 (Central Standard Time),809028.9000000358,A,gree,O,e,173,1,1915.199999988079,807113.7000000477,7706,WL,B,1.0
7,2.4149999618530273,immed,57585.00003814697,Thu Dec 04 2025 10:09:09 GMT-0600 (Central Standard Time),809528.4000000358,A,green,O,n,486,1,2414.699999988079,807113.7000000477,7706,WL,B,1.0
7,2.947999954223633,immed,57052.00004577637,Thu Dec 04 2025 10:09:09 GMT-0600 (Central Standard Time),810061.7000000477,A,greenenter,O,enter,513,1,2948.0,807113.7000000477,7706,WL,B,1.0
7,4.514999866485596,immed,55485.000133514404,Thu Dec 04 2025 10:09:09 GMT-0600 (Central Standard Time),811628.5,A,w,O,w,1549,1,1566.5999999642372,810061.9000000358,7706,WL,B,2.0
7,4.930999994277954,immed,55069.000005722046,Thu Dec 04 2025 10:09:09 GMT-0600 (Central Standard Time),812044.8000000119,A,wi,O,i,397,1,1982.8999999761581,810061.9000000358,7706,WL,B,2.0
7,5.06499981880188,immed,54935.00018119812,Thu Dec 04 2025 10:09:09 GMT-0600 (Central Standard Time),812178.2000000477,A,wif,O,f,125,1,2116.300000011921,810061.9000000358,7706,WL,B,2.0
7,5.33299994468689,immed,54667.00005531311,Thu Dec 04 2025 10:09:09 GMT-0600 (Central Standard Time),812446.1000000238,A,wife,O,e,246,1,2384.199999988079,810061.9000000358,7706,WL,B,2.0
7,5.664999961853027,immed,54335.00003814697,Thu Dec 04 2025 10:09:09 GMT-0600 (Central Standard Time),812778.2000000477,A,wifeenter,O,enter,323,1,2716.300000011921,810061.9000000358,7706,WL,B,2.0
7,6.080999851226807,immed,53919.00014877319,Thu Dec 04 2025 10:09:09 GMT-0600 (Central Standard Time),813194.3000000119,A,s,O,s,407,1,415.89999997615814,812778.4000000358,7706,WL,B,3.0
7,6.363999843597412,immed,53636.00015640259,Thu Dec 04 2025 10:09:09 GMT-0600 (Central Standard Time),813477.3000000119,A,st,O,t,271,1,698.8999999761581,812778.4000000358,7706,WL,B,3.0
7,6.728999853134155,immed,53271.000146865845,Thu Dec 04 2025 10:09:09 GMT-0600 (Central Standard Time),813842.8000000119,A,sta,O,a,334,1,1064.3999999761581,812778.4000000358,7706,WL,B,3.0
7,6.896999835968018,immed,53103.00016403198,Thu Dec 04 2025 10:09:09 GMT-0600 (Central Standard Time),814010.3000000119,A,star,O,r,152,1,1231.8999999761581,812778.4000000358,7706,WL,B,3.0
7,7.697999954223633,immed,52302.00004577637,Thu Dec 04 2025 10:09:09 GMT-0600 (Central Standard Time),814811.7000000477,A,starenter,O,enter,782,1,2033.300000011921,812778.4000000358,7706,WL,B,3.0
7,8.096999883651733,immed,51903.00011634827,Thu Dec 04 2025 10:09:09 GMT-0600 (Central Standard Time),815210.2000000477,A,a,O,a,391,1,398.30000001192093,814811.9000000358,7706,WL,B,4.0
7,8.361999988555908,immed,51638.00001144409,Thu Dec 04 2025 10:09:09 GMT-0600 (Central Standard Time),815475.9000000358,A,ar,O,r,255,1,664.0,814811.9000000358,7706,WL,B,4.0
7,8.896999835968018,immed,51103.00016403198,Thu Dec 04 2025 10:09:09 GMT-0600 (Central Standard Time),816010.4000000358,A,arm,O,m,516,1,1198.5,814811.9000000358,7706,WL,B,4.0
7,9.712999820709229,immed,50287.00017929077,Thu Dec 04 2025 10:09:09 GMT-0600 (Central Standard Time),816826.3000000119,A,armenter,O,enter,807,1,2014.3999999761581,814811.9000000358,7706,WL,B,4.0
7,11.111999988555908,immed,48888.00001144409,Thu Dec 04 2025 10:09:09 GMT-0600 (Central Standard Time),818225.1000000238,A,c,O,c,1384,1,1398.6000000238419,816826.5,7706,WL,B,5.0
7,11.413999795913696,immed,48586.000204086304,Thu Dec 04 2025 10:09:09 GMT-0600 (Central Standard Time),818527.5,A,ca,O,a,281,1,1701.0,816826.5,7706,WL,B,5.0
7,11.662999868392944,immed,48337.000131607056,Thu Dec 04 2025 10:09:09 GMT-0600 (Central Standard Time),818776.9000000358,A,cab,O,b,244,1,1950.4000000357628,816826.5,7706,WL,B,5.0
7,11.845999956130981,immed,48154.00004386902,Thu Dec 04 2025 10:09:09 GMT-0600 (Central Standard Time),818959.1000000238,A,cabi,O,i,168,1,2132.600000023842,816826.5,7706,WL,B,5.0
7,12.061999797821045,immed,47938.000202178955,Thu Dec 04 2025 10:09:09 GMT-0600 (Central Standard Time),819176.1000000238,A,cabin,O,n,196,1,2349.600000023842,816826.5,7706,WL,B,5.0
7,12.477999925613403,immed,47522.0000743866,Thu Dec 04 2025 10:09:09 GMT-0600 (Central Standard Time),819591.2000000477,A,cabinenter,O,enter,394,1,2764.7000000476837,816826.5,7706,WL,B,5.0
7,13.044999837875366,immed,46955.000162124634,Thu Dec 04 2025 10:09:09 GMT-0600 (Central Standard Time),820158.3000000119,A,l,O,l,554,1,566.8999999761581,819591.4000000358,7706,WL,B,6.0
7,13.57699990272522,immed,46423.00009727478,Thu Dec 04 2025 10:09:09 GMT-0600 (Central Standard Time),820690.5,A,la,O,a,525,1,1099.0999999642372,819591.4000000358,7706,WL,B,6.0
7,13.926999807357788,immed,46073.00019264221,Thu Dec 04 2025 10:09:09 GMT-0600 (Central Standard Time),821040.8000000119,A,lak,O,k,336,1,1449.3999999761581,819591.4000000358,7706,WL,B,6.0
7,14.061999797821045,immed,45938.000202178955,Thu Dec 04 2025 10:09:09 GMT-0600 (Central Standard Time),821175.9000000358,A,lake,O,e,115,1,1584.5,819591.4000000358,7706,WL,B,6.0
7,14.577999830245972,immed,45422.00016975403,Thu Dec 04 2025 10:09:09 GMT-0600 (Central Standard Time),821691.5,A,lakeenter,O,enter,497,1,2100.099999964237,819591.4000000358,7706,WL,B,6.0
7,14.944000005722046,immed,45055.999994277954,Thu Dec 04 2025 10:09:09 GMT-0600 (Central Standard Time),822057.4000000358,A,c,O,c,350,1,365.60000002384186,821691.8000000119,7706,WL,B,7.0
7,15.128999948501587,immed,44871.00005149841,Thu Dec 04 2025 10:09:09 GMT-0600 (Central Standard Time),822243.0,A,ci,O,i,167,1,551.1999999880791,821691.8000000119,7706,WL,B,7.0
7,15.40999984741211,immed,44590.00015258789,Thu Dec 04 2025 10:09:09 GMT-0600 (Central Standard Time),822523.5,A,cit,O,t,270,1,831.6999999880791,821691.8000000119,7706,WL,B,7.0
7,15.57699990272522,immed,44423.00009727478,Thu Dec 04 2025 10:09:09 GMT-0600 (Central Standard Time),822690.1000000238,A,city,O,y,151,1,998.3000000119209,821691.8000000119,7706,WL,B,7.0
7,17.30999994277954,immed,42690.00005722046,Thu Dec 04 2025 10:09:09 GMT-0600 (Central Standard Time),824424.0,A,cityenter,O,enter,1718,1,2732.199999988079,821691.8000000119,7706,WL,B,7.0
7,20.026999950408936,immed,39973.000049591064,Thu Dec 04 2025 10:09:09 GMT-0600 (Central Standard Time),827140.8000000119,A,s,O,s,2705,1,2716.599999964237,824424.2000000477,7706,WL,B,8.0
7,20.30999994277954,immed,39690.00005722046,Thu Dec 04 2025 10:09:09 GMT-0600 (Central Standard Time),827423.9000000358,A,st,O,t,270,1,2999.699999988079,824424.2000000477,7706,WL,B,8.0
7,20.842000007629395,immed,39157.999992370605,Thu Dec 04 2025 10:09:09 GMT-0600 (Central Standard Time),827955.8000000119,A,sta,O,a,523,1,3531.599999964237,824424.2000000477,7706,WL,B,8.0
7,21.07699990272522,immed,38923.00009727478,Thu Dec 04 2025 10:09:09 GMT-0600 (Central Standard Time),828190.7000000477,A,star,O,r,219,1,3766.5,824424.2000000477,7706,WL,B,8.0
7,21.858999967575073,immed,38141.00003242493,Thu Dec 04 2025 10:09:09 GMT-0600 (Central Standard Time),828972.8000000119,A,starenter,O,enter,764,1,4548.599999964237,824424.2000000477,7706,WL,B,8.0
7,22.307999849319458,immed,37692.00015068054,Thu Dec 04 2025 10:09:09 GMT-0600 (Central Standard Time),829421.6000000238,A,a,O,a,428,1,448.5,828973.1000000238,7706,WL,B,9.0
7,22.524999856948853,immed,37475.00014305115,Thu Dec 04 2025 10:09:09 GMT-0600 (Central Standard Time),829639.0,A,ar,O,r,205,1,665.8999999761581,828973.1000000238,7706,WL,B,9.0
7,22.944000005722046,immed,37055.999994277954,Thu Dec 04 2025 10:09:09 GMT-0600 (Central Standard Time),830057.0,A,arm,O,m,401,1,1083.8999999761581,828973.1000000238,7706,WL,B,9.0
7,24.05900001525879,immed,35940.99998474121,Thu Dec 04 2025 10:09:09 GMT-0600 (Central Standard Time),831172.3000000119,A,armenter,O,enter,1096,1,2199.199999988079,828973.1000000238,7706,WL,B,9.0
7,24.625,immed,35375.0,Thu Dec 04 2025 10:09:09 GMT-0600 (Central Standard Time),831738.8000000119,A,d,O,d,551,1,566.3000000119209,831172.5,7706,WL,B,10.0
7,24.924000024795532,immed,35075.99997520447,Thu Dec 04 2025 10:09:09 GMT-0600 (Central Standard Time),832038.0,A,do,O,o,284,1,865.5,831172.5,7706,WL,B,10.0
7,25.107999801635742,immed,34892.00019836426,Thu Dec 04 2025 10:09:09 GMT-0600 (Central Standard Time),832221.6000000238,A,doo,O,o,170,1,1049.1000000238419,831172.5,7706,WL,B,10.0
7,25.191999912261963,immed,34808.00008773804,Thu Dec 04 2025 10:09:09 GMT-0600 (Central Standard Time),832305.8000000119,A,door,O,r,73,1,1133.300000011921,831172.5,7706,WL,B,10.0
7,26.44099998474121,immed,33559.00001525879,Thu Dec 04 2025 10:09:09 GMT-0600 (Central Standard Time),833554.8000000119,A,doorenter,O,enter,1231,1,2382.300000011921,831172.5,7706,WL,B,10.0
7,26.993000030517578,immed,33006.99996948242,Thu Dec 04 2025 10:09:09 GMT-0600 (Central Standard Time),834106.5,A,w,O,w,532,1,551.5,833555.0,7706,WL,B,11.0
7,27.7739999294281,immed,32226.0000705719,Thu Dec 04 2025 10:09:09 GMT-0600 (Central Standard Time),834887.7000000477,A,wi,O,i,759,1,1332.7000000476837,833555.0,7706,WL,B,11.0
7,27.957000017166138,immed,32042.999982833862,Thu Dec 04 2025 10:09:09 GMT-0600 (Central Standard Time),835070.2000000477,A,win,O,n,161,1,1515.2000000476837,833555.0,7706,WL,B,11.0
7,28.156999826431274,immed,31843.000173568726,Thu Dec 04 2025 10:09:09 GMT-0600 (Central Standard Time),835270.4000000358,A,wind,O,d,186,1,1715.4000000357628,833555.0,7706,WL,B,11.0
7,28.44099998474121,immed,31559.00001525879,Thu Dec 04 2025 10:09:09 GMT-0600 (Central Standard Time),835554.9000000358,A,windo,O,o,274,1,1999.9000000357628,833555.0,7706,WL,B,11.0
7,28.60699987411499,immed,31393.00012588501,Thu Dec 04 2025 10:09:09 GMT-0600 (Central Standard Time),835721.0,A,window,O,w,145,1,2166.0,833555.0,7706,WL,B,11.0
7,29.18999981880188,immed,30810.00018119812,Thu Dec 04 2025 10:09:09 GMT-0600 (Central Standard Time),836303.6000000238,A,windowenter,O,enter,569,1,2748.600000023842,833555.0,7706,WL,B,11.0
7,36.23899984359741,immed,23761.000156402588,Thu Dec 04 2025 10:09:09 GMT-0600 (Central Standard Time),843352.9000000358,A,f,O,f,7030,1,7049.100000023842,836303.8000000119,7706,WL,B,12.0
7,36.4210000038147,immed,23578.999996185303,Thu Dec 04 2025 10:09:09 GMT-0600 (Central Standard Time),843534.8000000119,A,fi,O,i,161,1,7231.0,836303.8000000119,7706,WL,B,12.0
7,36.556999921798706,immed,23443.000078201294,Thu Dec 04 2025 10:09:09 GMT-0600 (Central Standard Time),843670.2000000477,A,fir,O,r,115,1,7366.400000035763,836303.8000000119,7706,WL,B,12.0
7,36.82200002670288,immed,23177.99997329712,Thu Dec 04 2025 10:09:09 GMT-0600 (Central Standard Time),843935.6000000238,A,fire,O,e,245,1,7631.800000011921,836303.8000000119,7706,WL,B,12.0
7,37.53600001335144,immed,22463.99998664856,Thu Dec 04 2025 10:09:09 GMT-0600 (Central Standard Time),844649.9000000358,A,fireenter,O,enter,697,1,8346.100000023842,836303.8000000119,7706,WL,B,12.0
7,39.1029999256134,immed,20897.000074386597,Thu Dec 04 2025 10:09:09 GMT-0600 (Central Standard Time),846216.6000000238,A,l,O,l,1551,1,1566.3999999761581,844650.2000000477,7706,WL,B,13.0
7,39.30499982833862,immed,20695.000171661377,Thu Dec 04 2025 10:09:09 GMT-0600 (Central Standard Time),846418.3000000119,A,la,O,a,191,1,1768.0999999642372,844650.2000000477,7706,WL,B,13.0
7,39.53699994087219,immed,20463.000059127808,Thu Dec 04 2025 10:09:09 GMT-0600 (Central Standard Time),846650.3000000119,A,lak,O,k,216,1,2000.0999999642372,844650.2000000477,7706,WL,B,13.0
7,39.63800001144409,immed,20361.99998855591,Thu Dec 04 2025 10:09:09 GMT-0600 (Central Standard Time),846751.2000000477,A,lake,O,e,89,1,2101.0,844650.2000000477,7706,WL,B,13.0
7,40.22000002861023,immed,19779.99997138977,Thu Dec 04 2025 10:09:09 GMT-0600 (Central Standard Time),847333.5,A,lakeenter,O,enter,560,1,2683.2999999523163,844650.2000000477,7706,WL,B,13.0
7,40.686999797821045,immed,19313.000202178955,Thu Dec 04 2025 10:09:09 GMT-0600 (Central Standard Time),847800.7000000477,A,c,O,c,462,1,466.9000000357628,847333.8000000119,7706,WL,B,14.0
7,40.936999797821045,immed,19063.000202178955,Thu Dec 04 2025 10:09:09 GMT-0600 (Central Standard Time),848050.4000000358,A,ca,O,a,233,1,716.6000000238419,847333.8000000119,7706,WL,B,14.0
7,41.186999797821045,immed,18813.000202178955,Thu Dec 04 2025 10:09:09 GMT-0600 (Central Standard Time),848300.1000000238,A,cab,O,b,231,1,966.3000000119209,847333.8000000119,7706,WL,B,14.0
7,41.3529999256134,immed,18647.000074386597,Thu Dec 04 2025 10:09:09 GMT-0600 (Central Standard Time),848466.2000000477,A,cabi,O,i,150,1,1132.4000000357628,847333.8000000119,7706,WL,B,14.0
7,41.569000005722046,immed,18430.999994277954,Thu Dec 04 2025 10:09:09 GMT-0600 (Central Standard Time),848682.3000000119,A,cabin,O,n,199,1,1348.5,847333.8000000119,7706,WL,B,14.0
7,42.03600001335144,immed,17963.99998664856,Thu Dec 04 2025 10:09:09 GMT-0600 (Central Standard Time),849149.2000000477,A,cabinenter,O,enter,448,1,1815.4000000357628,847333.8000000119,7706,WL,B,14.0
7,60.013999938964844,immed,-13.99993896484375,Thu Dec 04 2025 10:09:09 GMT-0600 (Central Standard Time),867127.7000000477,A,None,O,None,17974,1,17978.200000047684,849149.5,7706,WL,B,15.0
