Number,acc_sum,block,block_c,block_cond,con_img,correct,correct_response,datetime,endtime,jitter,project,response,response_time,row_sel,session_number,start_end,starttime,subject_id,task,task_vers,trial
7,1,prac,1,A,circle.png,1,m,Thu Mar 05 2026 12:04:35 GMT-0600 (Central Standard Time),64100.5,1700,O,m,1475,6,1,3961.0999999940395,60139.40000000596,7753,NTS,A,1
8,2,prac,1,A,circle.png,1,m,Thu Mar 05 2026 12:04:35 GMT-0600 (Central Standard Time),67332.09999999404,1600,O,m,839,7,1,3220.7999999821186,64111.30000001192,7753,NTS,A,2
7,3,prac,1,A,circle.png,1,m,Thu Mar 05 2026 12:04:35 GMT-0600 (Central Standard Time),70581.80000001192,1700,O,m,757,6,1,3240.100000023842,67341.69999998808,7753,NTS,A,3
1,4,prac,1,A,circle.png,1,z,Thu Mar 05 2026 12:04:35 GMT-0600 (Central Standard Time),73096.19999998808,1000,O,z,727,1,1,2505.899999976158,70590.30000001192,7753,NTS,A,4
8,5,prac,1,A,circle.png,1,m,Thu Mar 05 2026 12:04:35 GMT-0600 (Central Standard Time),76063.5,1600,O,m,573,7,1,2962.199999988079,73101.30000001192,7753,NTS,A,5
2,6,prac,1,A,circle.png,1,z,Thu Mar 05 2026 12:04:35 GMT-0600 (Central Standard Time),79461.69999998808,2000,O,z,606,2,1,3389.2999999821186,76072.40000000596,7753,NTS,A,6
4,7,prac,1,A,circle.png,1,z,Thu Mar 05 2026 12:04:35 GMT-0600 (Central Standard Time),82345.30000001192,1400,O,z,696,4,1,2876.300000011921,79469.0,7753,NTS,A,7
9,8,prac,1,A,circle.png,1,m,Thu Mar 05 2026 12:04:35 GMT-0600 (Central Standard Time),85244.19999998808,1500,O,m,602,8,1,2891.5999999940395,82352.59999999404,7753,NTS,A,8
4,9,prac,1,A,circle.png,1,z,Thu Mar 05 2026 12:04:35 GMT-0600 (Central Standard Time),88075.80000001192,1400,O,z,635,4,1,2823.9000000059605,85251.90000000596,7753,NTS,A,9
3,10,prac,1,A,circle.png,1,z,Thu Mar 05 2026 12:04:35 GMT-0600 (Central Standard Time),90742.80000001192,1200,O,z,666,3,1,2660.7000000178814,88082.09999999404,7753,NTS,A,10
3,11,prac,1,A,circle.png,1,z,Thu Mar 05 2026 12:04:35 GMT-0600 (Central Standard Time),93374.59999999404,1200,O,z,642,3,1,2624.699999988079,90749.90000000596,7753,NTS,A,11
6,12,prac,1,A,circle.png,1,m,Thu Mar 05 2026 12:04:35 GMT-0600 (Central Standard Time),96674.19999998808,1900,O,m,603,5,1,3290.899999976158,93383.30000001192,7753,NTS,A,12
4,0,prac,1,B,triangle.png,0,m,Thu Mar 05 2026 12:04:35 GMT-0600 (Central Standard Time),128781.40000000596,1500,O,None,1515,4,1,3793.7000000178814,124987.69999998808,7753,NTS,A,1
9,1,prac,1,B,triangle.png,1,z,Thu Mar 05 2026 12:04:35 GMT-0600 (Central Standard Time),131713.5,1400,O,z,749,8,1,2926.4000000059605,128787.09999999404,7753,NTS,A,2
3,2,prac,1,B,triangle.png,1,z,Thu Mar 05 2026 12:04:35 GMT-0600 (Central Standard Time),135045.19999998808,1600,O,z,936,3,1,3325.5,131719.69999998808,7753,NTS,A,3
6,3,prac,1,B,triangle.png,1,m,Thu Mar 05 2026 12:04:35 GMT-0600 (Central Standard Time),137510.59999999404,1000,O,m,673,5,1,2457.699999988079,135052.90000000596,7753,NTS,A,4
8,4,prac,1,B,triangle.png,1,m,Thu Mar 05 2026 12:04:35 GMT-0600 (Central Standard Time),140327.09999999404,1200,O,m,824,7,1,2808.7999999821186,137518.30000001192,7753,NTS,A,5
4,5,prac,1,B,triangle.png,1,m,Thu Mar 05 2026 12:04:35 GMT-0600 (Central Standard Time),143259.19999998808,1500,O,m,645,4,1,2924.699999988079,140334.5,7753,NTS,A,6
2,6,prac,1,B,triangle.png,1,m,Thu Mar 05 2026 12:04:35 GMT-0600 (Central Standard Time),146410.09999999404,1700,O,m,667,2,1,3144.2999999821186,143265.80000001192,7753,NTS,A,7
1,7,prac,1,B,triangle.png,1,z,Thu Mar 05 2026 12:04:35 GMT-0600 (Central Standard Time),149641.5,1900,O,z,549,1,1,3224.699999988079,146416.80000001192,7753,NTS,A,8
2,8,prac,1,B,triangle.png,1,m,Thu Mar 05 2026 12:04:35 GMT-0600 (Central Standard Time),152739.69999998808,1700,O,m,603,2,1,3094.199999988079,149645.5,7753,NTS,A,9
3,9,prac,1,B,triangle.png,1,z,Thu Mar 05 2026 12:04:35 GMT-0600 (Central Standard Time),155755.30000001192,1600,O,z,622,3,1,3008.800000011921,152746.5,7753,NTS,A,10
8,10,prac,1,B,triangle.png,1,m,Thu Mar 05 2026 12:04:35 GMT-0600 (Central Standard Time),158655.80000001192,1200,O,m,899,7,1,2894.300000011921,155761.5,7753,NTS,A,11
7,10,prac,1,B,triangle.png,0,z,Thu Mar 05 2026 12:04:35 GMT-0600 (Central Standard Time),162554.19999998808,2000,O,m,1104,6,1,3892.5999999940395,158661.59999999404,7753,NTS,A,12
8,1,test,1,A,circle.png,1,m,Thu Mar 05 2026 12:04:35 GMT-0600 (Central Standard Time),195309.09999999404,1600,O,m,1339,7,1,2959.5,192349.59999999404,7753,NTS,A,1
9,2,test,1,A,circle.png,1,m,Thu Mar 05 2026 12:04:35 GMT-0600 (Central Standard Time),197463.30000001192,1500,O,m,628,8,1,2147.9000000059605,195315.40000000596,7753,NTS,A,2
6,3,test,1,A,circle.png,1,m,Thu Mar 05 2026 12:04:35 GMT-0600 (Central Standard Time),200190.80000001192,1900,O,m,809,5,1,2724.9000000059605,197465.90000000596,7753,NTS,A,3
8,4,test,1,A,circle.png,1,m,Thu Mar 05 2026 12:04:35 GMT-0600 (Central Standard Time),202340.0,1600,O,m,527,7,1,2143.0999999940395,200196.90000000596,7753,NTS,A,4
3,5,test,1,A,circle.png,1,z,Thu Mar 05 2026 12:04:35 GMT-0600 (Central Standard Time),204173.0,1200,O,z,602,3,1,1827.4000000059605,202345.59999999404,7753,NTS,A,5
9,6,test,1,A,circle.png,1,m,Thu Mar 05 2026 12:04:35 GMT-0600 (Central Standard Time),206305.59999999404,1500,O,m,605,8,1,2126.5,204179.09999999404,7753,NTS,A,6
6,7,test,1,A,circle.png,1,m,Thu Mar 05 2026 12:04:35 GMT-0600 (Central Standard Time),208906.5,1900,O,m,686,5,1,2596.300000011921,206310.19999998808,7753,NTS,A,7
7,8,test,1,A,circle.png,1,m,Thu Mar 05 2026 12:04:35 GMT-0600 (Central Standard Time),211237.59999999404,1700,O,m,610,6,1,2326.199999988079,208911.40000000596,7753,NTS,A,8
6,9,test,1,A,circle.png,1,m,Thu Mar 05 2026 12:04:35 GMT-0600 (Central Standard Time),213736.40000000596,1900,O,m,582,5,1,2490.800000011921,211245.59999999404,7753,NTS,A,9
6,10,test,1,A,circle.png,1,m,Thu Mar 05 2026 12:04:35 GMT-0600 (Central Standard Time),216351.30000001192,1900,O,m,697,5,1,2609.800000011921,213741.5,7753,NTS,A,10
2,11,test,1,A,circle.png,1,z,Thu Mar 05 2026 12:04:35 GMT-0600 (Central Standard Time),219067.19999998808,2000,O,z,695,2,1,2713.0,216354.19999998808,7753,NTS,A,11
3,12,test,1,A,circle.png,1,z,Thu Mar 05 2026 12:04:35 GMT-0600 (Central Standard Time),220900.90000000596,1200,O,z,602,3,1,1828.5999999940395,219072.30000001192,7753,NTS,A,12
2,13,test,1,A,circle.png,1,z,Thu Mar 05 2026 12:04:35 GMT-0600 (Central Standard Time),223582.90000000596,2000,O,z,650,2,1,2679.0999999940395,220903.80000001192,7753,NTS,A,13
4,14,test,1,A,circle.png,1,z,Thu Mar 05 2026 12:04:35 GMT-0600 (Central Standard Time),225832.59999999404,1400,O,z,822,4,1,2245.699999988079,223586.90000000596,7753,NTS,A,14
3,15,test,1,A,circle.png,1,z,Thu Mar 05 2026 12:04:35 GMT-0600 (Central Standard Time),227897.80000001192,1200,O,z,836,3,1,2061.0,225836.80000001192,7753,NTS,A,15
1,16,test,1,A,circle.png,1,z,Thu Mar 05 2026 12:04:35 GMT-0600 (Central Standard Time),229613.80000001192,1000,O,z,692,1,1,1712.1000000238419,227901.69999998808,7753,NTS,A,16
3,17,test,1,A,circle.png,1,z,Thu Mar 05 2026 12:04:35 GMT-0600 (Central Standard Time),231495.69999998808,1200,O,z,653,3,1,1878.2999999821186,229617.40000000596,7753,NTS,A,17
1,18,test,1,A,circle.png,1,z,Thu Mar 05 2026 12:04:35 GMT-0600 (Central Standard Time),233146.19999998808,1000,O,z,629,1,1,1647.0,231499.19999998808,7753,NTS,A,18
9,19,test,1,A,circle.png,1,m,Thu Mar 05 2026 12:04:35 GMT-0600 (Central Standard Time),235295.69999998808,1500,O,m,625,8,1,2145.5,233150.19999998808,7753,NTS,A,19
4,20,test,1,A,circle.png,1,z,Thu Mar 05 2026 12:04:35 GMT-0600 (Central Standard Time),237412.30000001192,1400,O,z,696,4,1,2111.0,235301.30000001192,7753,NTS,A,20
7,21,test,1,A,circle.png,1,m,Thu Mar 05 2026 12:04:35 GMT-0600 (Central Standard Time),239760.90000000596,1700,O,m,630,6,1,2344.5,237416.40000000596,7753,NTS,A,21
7,22,test,1,A,circle.png,1,m,Thu Mar 05 2026 12:04:35 GMT-0600 (Central Standard Time),242010.19999998808,1700,O,m,528,6,1,2244.899999976158,239765.30000001192,7753,NTS,A,22
2,23,test,1,A,circle.png,1,z,Thu Mar 05 2026 12:04:35 GMT-0600 (Central Standard Time),244648.30000001192,2000,O,z,621,2,1,2631.300000011921,242017.0,7753,NTS,A,23
9,24,test,1,A,circle.png,1,m,Thu Mar 05 2026 12:04:35 GMT-0600 (Central Standard Time),246858.19999998808,1500,O,m,687,8,1,2206.899999976158,244651.30000001192,7753,NTS,A,24
1,1,test,1,B,triangle.png,1,z,Thu Mar 05 2026 12:04:35 GMT-0600 (Central Standard Time),263120.90000000596,1400,O,z,1016,9,1,2444.2000000178814,260676.69999998808,7753,NTS,A,1
7,2,test,1,B,triangle.png,1,z,Thu Mar 05 2026 12:04:35 GMT-0600 (Central Standard Time),266035.5,2000,O,z,885,6,1,2909.5,263126.0,7753,NTS,A,2
9,3,test,1,B,triangle.png,1,z,Thu Mar 05 2026 12:04:35 GMT-0600 (Central Standard Time),268835.1999999881,1900,O,z,864,16,1,2795.5999999940395,266039.59999999404,7753,NTS,A,3
3,4,test,1,B,triangle.png,1,z,Thu Mar 05 2026 12:04:35 GMT-0600 (Central Standard Time),271551.40000000596,2000,O,z,684,11,1,2712.9000000059605,268838.5,7753,NTS,A,4
7,5,test,1,B,triangle.png,1,z,Thu Mar 05 2026 12:04:35 GMT-0600 (Central Standard Time),274201.09999999404,2000,O,z,618,6,1,2644.199999988079,271556.90000000596,7753,NTS,A,5
1,6,test,1,B,triangle.png,1,z,Thu Mar 05 2026 12:04:35 GMT-0600 (Central Standard Time),276715.8000000119,1900,O,z,594,1,1,2509.100000023842,274206.6999999881,7753,NTS,A,6
4,7,test,1,B,triangle.png,1,m,Thu Mar 05 2026 12:04:35 GMT-0600 (Central Standard Time),278865.3000000119,1500,O,m,632,4,1,2146.800000011921,276718.5,7753,NTS,A,7
8,8,test,1,B,triangle.png,1,m,Thu Mar 05 2026 12:04:35 GMT-0600 (Central Standard Time),280665.59999999404,1200,O,m,583,7,1,1796.2999999821186,278869.3000000119,7753,NTS,A,8
8,9,test,1,B,triangle.png,1,m,Thu Mar 05 2026 12:04:35 GMT-0600 (Central Standard Time),283116.1999999881,1700,O,m,722,15,1,2444.899999976158,280671.3000000119,7753,NTS,A,9
7,10,test,1,B,triangle.png,1,z,Thu Mar 05 2026 12:04:35 GMT-0600 (Central Standard Time),285347.59999999404,1600,O,z,614,14,1,2227.199999988079,283120.40000000596,7753,NTS,A,10
7,11,test,1,B,triangle.png,1,z,Thu Mar 05 2026 12:04:35 GMT-0600 (Central Standard Time),287712.5,1600,O,z,742,14,1,2360.199999988079,285352.3000000119,7753,NTS,A,11
9,12,test,1,B,triangle.png,1,z,Thu Mar 05 2026 12:04:35 GMT-0600 (Central Standard Time),289745.59999999404,1400,O,z,613,8,1,2029.0999999940395,287716.5,7753,NTS,A,12
6,13,test,1,B,triangle.png,1,m,Thu Mar 05 2026 12:04:35 GMT-0600 (Central Standard Time),291547.0,1000,O,m,773,5,1,1797.699999988079,289749.3000000119,7753,NTS,A,13
8,14,test,1,B,triangle.png,1,m,Thu Mar 05 2026 12:04:35 GMT-0600 (Central Standard Time),294045.5,1700,O,m,782,15,1,2495.9000000059605,291549.59999999404,7753,NTS,A,14
4,15,test,1,B,triangle.png,1,m,Thu Mar 05 2026 12:04:35 GMT-0600 (Central Standard Time),296043.6999999881,1000,O,m,970,12,1,1993.699999988079,294050.0,7753,NTS,A,15
8,16,test,1,B,triangle.png,1,m,Thu Mar 05 2026 12:04:35 GMT-0600 (Central Standard Time),297842.59999999404,1200,O,m,581,7,1,1794.2999999821186,296048.3000000119,7753,NTS,A,16
2,17,test,1,B,triangle.png,1,m,Thu Mar 05 2026 12:04:35 GMT-0600 (Central Standard Time),299792.90000000596,1200,O,m,717,10,1,1945.5999999940395,297847.3000000119,7753,NTS,A,17
2,18,test,1,B,triangle.png,1,m,Thu Mar 05 2026 12:04:35 GMT-0600 (Central Standard Time),301724.90000000596,1200,O,m,701,10,1,1926.5999999940395,299798.3000000119,7753,NTS,A,18
9,19,test,1,B,triangle.png,1,z,Thu Mar 05 2026 12:04:35 GMT-0600 (Central Standard Time),303873.90000000596,1400,O,z,722,8,1,2145.0999999940395,301728.8000000119,7753,NTS,A,19
6,20,test,1,B,triangle.png,1,m,Thu Mar 05 2026 12:04:35 GMT-0600 (Central Standard Time),306439.0,1500,O,m,1041,13,1,2558.300000011921,303880.6999999881,7753,NTS,A,20
1,21,test,1,B,triangle.png,1,z,Thu Mar 05 2026 12:04:35 GMT-0600 (Central Standard Time),308972.8000000119,1900,O,z,603,1,1,2529.4000000059605,306443.40000000596,7753,NTS,A,21
2,22,test,1,B,triangle.png,1,m,Thu Mar 05 2026 12:04:35 GMT-0600 (Central Standard Time),311422.0,1700,O,m,719,2,1,2443.4000000059605,308978.59999999404,7753,NTS,A,22
4,23,test,1,B,triangle.png,1,m,Thu Mar 05 2026 12:04:35 GMT-0600 (Central Standard Time),313071.0,1000,O,m,632,12,1,1643.5999999940395,311427.40000000596,7753,NTS,A,23
3,24,test,1,B,triangle.png,1,z,Thu Mar 05 2026 12:04:35 GMT-0600 (Central Standard Time),315353.59999999404,1600,O,z,655,3,1,2280.0,313073.59999999404,7753,NTS,A,24
6,1,prac,1,C,circle.png,1,m,Thu Mar 05 2026 12:04:35 GMT-0600 (Central Standard Time),356859.90000000596,2000,O,m,1437,5,1,4227.5999999940395,352632.3000000119,7753,NTS,A,1
4,1,prac,1,C,circle.png,0,z,Thu Mar 05 2026 12:04:35 GMT-0600 (Central Standard Time),359489.8000000119,1000,O,m,845,4,1,2624.300000011921,356865.5,7753,NTS,A,2
8,1,prac,1,C,triangle.png,0,m,Thu Mar 05 2026 12:04:35 GMT-0600 (Central Standard Time),363188.59999999404,1400,O,None,1515,7,1,3691.199999988079,359497.40000000596,7753,NTS,A,3
6,2,prac,1,C,circle.png,1,m,Thu Mar 05 2026 12:04:35 GMT-0600 (Central Standard Time),367237.8000000119,2000,O,m,1248,5,1,4041.0,363196.8000000119,7753,NTS,A,4
1,3,prac,1,C,circle.png,1,z,Thu Mar 05 2026 12:04:35 GMT-0600 (Central Standard Time),370387.8000000119,1700,O,z,669,1,1,3143.100000023842,367244.6999999881,7753,NTS,A,5
3,4,prac,1,C,triangle.png,1,z,Thu Mar 05 2026 12:04:35 GMT-0600 (Central Standard Time),373570.09999999404,1500,O,z,900,3,1,3175.199999988079,370394.90000000596,7753,NTS,A,6
2,5,prac,1,C,triangle.png,1,m,Thu Mar 05 2026 12:04:35 GMT-0600 (Central Standard Time),377185.1999999881,1600,O,m,1231,2,1,3607.199999988079,373578.0,7753,NTS,A,7
7,5,prac,1,C,triangle.png,0,z,Thu Mar 05 2026 12:04:35 GMT-0600 (Central Standard Time),380683.6999999881,1200,O,None,1515,6,1,3492.5999999940395,377191.09999999404,7753,NTS,A,8
2,6,prac,1,C,triangle.png,1,m,Thu Mar 05 2026 12:04:35 GMT-0600 (Central Standard Time),383950.6999999881,1600,O,m,869,2,1,3260.699999988079,380690.0,7753,NTS,A,9
9,6,prac,1,C,circle.png,0,m,Thu Mar 05 2026 12:04:35 GMT-0600 (Central Standard Time),388148.5,1900,O,None,1510,8,1,4192.0,383956.5,7753,NTS,A,10
7,6,prac,1,C,triangle.png,0,z,Thu Mar 05 2026 12:04:35 GMT-0600 (Central Standard Time),391629.90000000596,1200,O,None,1501,6,1,3477.800000011921,388152.09999999404,7753,NTS,A,11
4,6,prac,1,C,circle.png,0,z,Thu Mar 05 2026 12:04:35 GMT-0600 (Central Standard Time),394445.59999999404,1000,O,m,1042,4,1,2809.199999988079,391636.40000000596,7753,NTS,A,12
8,0,prac,2,C,triangle.png,0,m,Thu Mar 05 2026 12:04:35 GMT-0600 (Central Standard Time),432516.59999999404,1400,O,None,1516,7,1,3676.0999999940395,428840.5,7753,NTS,A,1
7,1,prac,2,C,triangle.png,1,z,Thu Mar 05 2026 12:04:35 GMT-0600 (Central Standard Time),435848.5,1200,O,z,1346,6,1,3327.0,432521.5,7753,NTS,A,2
7,2,prac,2,C,triangle.png,1,z,Thu Mar 05 2026 12:04:35 GMT-0600 (Central Standard Time),438663.8000000119,1200,O,z,830,6,1,2807.9000000059605,435855.90000000596,7753,NTS,A,3
1,3,prac,2,C,circle.png,1,z,Thu Mar 05 2026 12:04:35 GMT-0600 (Central Standard Time),442247.1999999881,1700,O,z,1092,1,1,3578.399999976158,438668.8000000119,7753,NTS,A,4
6,4,prac,2,C,circle.png,1,m,Thu Mar 05 2026 12:04:35 GMT-0600 (Central Standard Time),445995.09999999404,2000,O,m,960,5,1,3738.4000000059605,442256.6999999881,7753,NTS,A,5
6,5,prac,2,C,circle.png,1,m,Thu Mar 05 2026 12:04:35 GMT-0600 (Central Standard Time),449577.40000000596,2000,O,m,795,5,1,3574.2000000178814,446003.1999999881,7753,NTS,A,6
2,5,prac,2,C,triangle.png,0,m,Thu Mar 05 2026 12:04:35 GMT-0600 (Central Standard Time),452777.8000000119,1600,O,z,822,2,1,3192.9000000059605,449584.90000000596,7753,NTS,A,7
4,5,prac,2,C,circle.png,0,z,Thu Mar 05 2026 12:04:35 GMT-0600 (Central Standard Time),455958.8000000119,1000,O,m,1390,4,1,3173.600000023842,452785.1999999881,7753,NTS,A,8
9,6,prac,2,C,circle.png,1,m,Thu Mar 05 2026 12:04:35 GMT-0600 (Central Standard Time),459708.1999999881,1900,O,m,1052,8,1,3743.899999976158,455964.3000000119,7753,NTS,A,9
1,7,prac,2,C,circle.png,1,z,Thu Mar 05 2026 12:04:35 GMT-0600 (Central Standard Time),463391.09999999404,1700,O,z,1182,1,1,3675.5999999940395,459715.5,7753,NTS,A,10
8,8,prac,2,C,triangle.png,1,m,Thu Mar 05 2026 12:04:35 GMT-0600 (Central Standard Time),466372.1999999881,1400,O,m,794,7,1,2974.699999988079,463397.5,7753,NTS,A,11
3,9,prac,2,C,triangle.png,1,z,Thu Mar 05 2026 12:04:35 GMT-0600 (Central Standard Time),469789.0,1500,O,z,1127,3,1,3410.0,466379.0,7753,NTS,A,12
3,1,test,1,C,triangle.png,1,z,Thu Mar 05 2026 12:04:35 GMT-0600 (Central Standard Time),493646.90000000596,1200,O,z,1266,3,1,2495.4000000059605,491151.5,7753,NTS,A,1
4,2,test,1,C,triangle.png,1,m,Thu Mar 05 2026 12:04:35 GMT-0600 (Central Standard Time),496479.90000000596,1500,O,m,1300,20,1,2827.0999999940395,493652.8000000119,7753,NTS,A,2
2,3,test,1,C,triangle.png,1,m,Thu Mar 05 2026 12:04:35 GMT-0600 (Central Standard Time),499330.1999999881,2000,O,m,816,2,1,2846.699999988079,496483.5,7753,NTS,A,3
8,4,test,1,C,circle.png,1,m,Thu Mar 05 2026 12:04:35 GMT-0600 (Central Standard Time),501461.40000000596,1200,O,m,901,15,1,2126.2000000178814,499335.1999999881,7753,NTS,A,4
7,5,test,1,C,triangle.png,1,z,Thu Mar 05 2026 12:04:35 GMT-0600 (Central Standard Time),504527.09999999404,1700,O,z,1340,6,1,3059.9000000059605,501467.1999999881,7753,NTS,A,5
1,5,test,1,C,circle.png,0,z,Thu Mar 05 2026 12:04:35 GMT-0600 (Central Standard Time),507059.6999999881,1000,O,None,1516,1,1,2529.199999988079,504530.5,7753,NTS,A,6
3,6,test,1,C,circle.png,1,z,Thu Mar 05 2026 12:04:35 GMT-0600 (Central Standard Time),509792.3000000119,1600,O,z,1107,11,1,2729.300000011921,507063.0,7753,NTS,A,7
2,7,test,1,C,circle.png,1,z,Thu Mar 05 2026 12:04:35 GMT-0600 (Central Standard Time),512374.59999999404,1700,O,z,852,10,1,2578.5999999940395,509796.0,7753,NTS,A,8
7,8,test,1,C,triangle.png,1,z,Thu Mar 05 2026 12:04:35 GMT-0600 (Central Standard Time),515205.3000000119,1700,O,z,1106,22,1,2826.300000011921,512379.0,7753,NTS,A,9
9,9,test,1,C,circle.png,1,m,Thu Mar 05 2026 12:04:35 GMT-0600 (Central Standard Time),518155.3000000119,1500,O,m,1419,8,1,2947.300000011921,515208.0,7753,NTS,A,10
7,10,test,1,C,circle.png,1,m,Thu Mar 05 2026 12:04:35 GMT-0600 (Central Standard Time),521287.8000000119,2000,O,m,1105,14,1,3127.4000000059605,518160.40000000596,7753,NTS,A,11
6,11,test,1,C,triangle.png,1,m,Thu Mar 05 2026 12:04:35 GMT-0600 (Central Standard Time),523670.40000000596,1000,O,m,1357,13,1,2380.0,521290.40000000596,7753,NTS,A,12
1,12,test,1,C,triangle.png,1,z,Thu Mar 05 2026 12:04:35 GMT-0600 (Central Standard Time),526688.099999994,1900,O,z,1100,9,1,3015.0,523673.09999999404,7753,NTS,A,13
9,13,test,1,C,triangle.png,1,z,Thu Mar 05 2026 12:04:35 GMT-0600 (Central Standard Time),529235.1999999881,1400,O,z,1120,16,1,2542.5999999940395,526692.599999994,7753,NTS,A,14
6,14,test,1,C,circle.png,1,m,Thu Mar 05 2026 12:04:35 GMT-0600 (Central Standard Time),532186.599999994,1900,O,m,1034,21,1,2946.199999988079,529240.400000006,7753,NTS,A,15
4,14,test,1,C,triangle.png,0,m,Thu Mar 05 2026 12:04:35 GMT-0600 (Central Standard Time),535217.8000000119,1500,O,None,1517,12,1,3025.9000000059605,532191.900000006,7753,NTS,A,16
4,14,test,1,C,circle.png,0,z,Thu Mar 05 2026 12:04:35 GMT-0600 (Central Standard Time),537867.1999999881,1400,O,m,1221,4,1,2645.399999976158,535221.8000000119,7753,NTS,A,17
3,15,test,1,C,circle.png,1,z,Thu Mar 05 2026 12:04:35 GMT-0600 (Central Standard Time),540765.400000006,1600,O,z,1278,19,1,2894.2000000178814,537871.1999999881,7753,NTS,A,18
8,16,test,1,C,triangle.png,1,m,Thu Mar 05 2026 12:04:35 GMT-0600 (Central Standard Time),543713.6999999881,1600,O,m,1322,23,1,2944.2999999821186,540769.400000006,7753,NTS,A,19
1,17,test,1,C,triangle.png,1,z,Thu Mar 05 2026 12:04:35 GMT-0600 (Central Standard Time),546713.900000006,1900,O,z,1072,17,1,2990.9000000059605,543723.0,7753,NTS,A,20
8,18,test,1,C,triangle.png,1,m,Thu Mar 05 2026 12:04:35 GMT-0600 (Central Standard Time),549446.5,1600,O,m,1101,7,1,2730.0999999940395,546716.400000006,7753,NTS,A,21
2,19,test,1,C,circle.png,1,z,Thu Mar 05 2026 12:04:35 GMT-0600 (Central Standard Time),552395.5,1700,O,z,1230,18,1,2941.5999999940395,549453.900000006,7753,NTS,A,22
9,20,test,1,C,circle.png,1,m,Thu Mar 05 2026 12:04:35 GMT-0600 (Central Standard Time),554910.599999994,1500,O,m,992,24,1,2509.9000000059605,552400.6999999881,7753,NTS,A,23
6,20,test,1,C,circle.png,0,m,Thu Mar 05 2026 12:04:35 GMT-0600 (Central Standard Time),558344.099999994,1900,O,None,1517,5,1,3429.199999988079,554914.900000006,7753,NTS,A,24
8,1,test,2,C,circle.png,1,m,Thu Mar 05 2026 12:04:35 GMT-0600 (Central Standard Time),575454.5,1200,O,m,1190,23,1,2409.800000011921,573044.6999999881,7753,NTS,A,1
2,1,test,2,C,circle.png,0,z,Thu Mar 05 2026 12:04:35 GMT-0600 (Central Standard Time),578687.099999994,1700,O,None,1516,10,1,3228.699999988079,575458.400000006,7753,NTS,A,2
1,1,test,2,C,triangle.png,0,z,Thu Mar 05 2026 12:04:35 GMT-0600 (Central Standard Time),582119.1999999881,1900,O,None,1516,17,1,3425.899999976158,578693.3000000119,7753,NTS,A,3
3,1,test,2,C,triangle.png,0,z,Thu Mar 05 2026 12:04:35 GMT-0600 (Central Standard Time),584851.599999994,1200,O,None,1516,3,1,2725.4000000059605,582126.1999999881,7753,NTS,A,4
8,2,test,2,C,triangle.png,1,m,Thu Mar 05 2026 12:04:35 GMT-0600 (Central Standard Time),587883.5,1600,O,m,1413,7,1,3026.4000000059605,584857.099999994,7753,NTS,A,5
2,2,test,2,C,circle.png,0,z,Thu Mar 05 2026 12:04:35 GMT-0600 (Central Standard Time),591117.099999994,1700,O,None,1515,18,1,3228.2999999821186,587888.8000000119,7753,NTS,A,6
4,3,test,2,C,triangle.png,1,m,Thu Mar 05 2026 12:04:35 GMT-0600 (Central Standard Time),593829.5,1500,O,m,1184,12,1,2707.800000011921,591121.6999999881,7753,NTS,A,7
2,4,test,2,C,triangle.png,1,m,Thu Mar 05 2026 12:04:35 GMT-0600 (Central Standard Time),596881.099999994,2000,O,m,1025,2,1,3048.7999999821186,593832.3000000119,7753,NTS,A,8
7,4,test,2,C,triangle.png,0,z,Thu Mar 05 2026 12:04:35 GMT-0600 (Central Standard Time),600112.900000006,1700,O,None,1517,6,1,3227.9000000059605,596885.0,7753,NTS,A,9
4,5,test,2,C,triangle.png,1,m,Thu Mar 05 2026 12:04:35 GMT-0600 (Central Standard Time),603046.1999999881,1500,O,m,1403,20,1,2928.2999999821186,600117.900000006,7753,NTS,A,10
9,6,test,2,C,circle.png,1,m,Thu Mar 05 2026 12:04:35 GMT-0600 (Central Standard Time),605578.1999999881,1500,O,m,1005,8,1,2527.399999976158,603050.8000000119,7753,NTS,A,11
7,7,test,2,C,circle.png,1,m,Thu Mar 05 2026 12:04:35 GMT-0600 (Central Standard Time),608395.099999994,2000,O,m,800,22,1,2811.699999988079,605583.400000006,7753,NTS,A,12
9,7,test,2,C,triangle.png,0,z,Thu Mar 05 2026 12:04:35 GMT-0600 (Central Standard Time),611326.5,1400,O,None,1515,24,1,2927.0,608399.5,7753,NTS,A,13
9,7,test,2,C,triangle.png,0,z,Thu Mar 05 2026 12:04:35 GMT-0600 (Central Standard Time),614256.5,1400,O,None,1513,16,1,2924.0999999940395,611332.400000006,7753,NTS,A,14
8,8,test,2,C,circle.png,1,m,Thu Mar 05 2026 12:04:35 GMT-0600 (Central Standard Time),616240.900000006,1200,O,m,755,15,1,1981.5,614259.400000006,7753,NTS,A,15
4,8,test,2,C,circle.png,0,z,Thu Mar 05 2026 12:04:35 GMT-0600 (Central Standard Time),619175.0,1400,O,None,1517,4,1,2928.9000000059605,616246.099999994,7753,NTS,A,16
1,8,test,2,C,triangle.png,0,z,Thu Mar 05 2026 12:04:35 GMT-0600 (Central Standard Time),622606.599999994,1900,O,None,1517,9,1,3427.199999988079,619179.400000006,7753,NTS,A,17
7,9,test,2,C,circle.png,1,m,Thu Mar 05 2026 12:04:35 GMT-0600 (Central Standard Time),625755.900000006,2000,O,m,1120,14,1,3144.0,622611.900000006,7753,NTS,A,18
6,9,test,2,C,triangle.png,0,m,Thu Mar 05 2026 12:04:35 GMT-0600 (Central Standard Time),628287.8000000119,1000,O,None,1516,21,1,2528.5,625759.3000000119,7753,NTS,A,19
3,9,test,2,C,circle.png,0,z,Thu Mar 05 2026 12:04:35 GMT-0600 (Central Standard Time),631420.1999999881,1600,O,None,1515,19,1,3128.899999976158,628291.3000000119,7753,NTS,A,20
1,9,test,2,C,circle.png,0,z,Thu Mar 05 2026 12:04:35 GMT-0600 (Central Standard Time),633936.599999994,1000,O,None,1501,1,1,2510.9000000059605,631425.6999999881,7753,NTS,A,21
6,10,test,2,C,triangle.png,1,m,Thu Mar 05 2026 12:04:35 GMT-0600 (Central Standard Time),636250.900000006,1000,O,m,1295,13,1,2308.0,633942.900000006,7753,NTS,A,22
3,10,test,2,C,circle.png,0,z,Thu Mar 05 2026 12:04:35 GMT-0600 (Central Standard Time),639384.8000000119,1600,O,None,1516,11,1,3128.4000000059605,636256.400000006,7753,NTS,A,23
6,11,test,2,C,circle.png,1,m,Thu Mar 05 2026 12:04:35 GMT-0600 (Central Standard Time),642282.5,1900,O,m,979,5,1,2891.5,639391.0,7753,NTS,A,24
2,1,test,3,C,circle.png,1,z,Thu Mar 05 2026 12:04:35 GMT-0600 (Central Standard Time),663826.5,1700,O,z,1356,10,1,3075.9000000059605,660750.599999994,7753,NTS,A,1
7,2,test,3,C,triangle.png,1,z,Thu Mar 05 2026 12:04:35 GMT-0600 (Central Standard Time),666774.599999994,1700,O,z,1225,22,1,2942.7999999821186,663831.8000000119,7753,NTS,A,2
2,3,test,3,C,triangle.png,1,m,Thu Mar 05 2026 12:04:35 GMT-0600 (Central Standard Time),670008.8000000119,2000,O,m,1201,2,1,3229.300000011921,666779.5,7753,NTS,A,3
1,4,test,3,C,circle.png,1,z,Thu Mar 05 2026 12:04:35 GMT-0600 (Central Standard Time),671739.8000000119,1000,O,z,703,17,1,1723.4000000059605,670016.400000006,7753,NTS,A,4
3,5,test,3,C,triangle.png,1,z,Thu Mar 05 2026 12:04:35 GMT-0600 (Central Standard Time),674238.599999994,1200,O,z,1274,3,1,2495.2999999821186,671743.3000000119,7753,NTS,A,5
6,6,test,3,C,circle.png,1,m,Thu Mar 05 2026 12:04:35 GMT-0600 (Central Standard Time),677071.400000006,1900,O,m,909,5,1,2829.5999999940395,674241.8000000119,7753,NTS,A,6
7,7,test,3,C,circle.png,1,m,Thu Mar 05 2026 12:04:35 GMT-0600 (Central Standard Time),679904.0,2000,O,m,815,14,1,2826.300000011921,677077.6999999881,7753,NTS,A,7
8,8,test,3,C,triangle.png,1,m,Thu Mar 05 2026 12:04:35 GMT-0600 (Central Standard Time),682637.1999999881,1600,O,m,1112,23,1,2728.399999976158,679908.8000000119,7753,NTS,A,8
4,9,test,3,C,circle.png,1,z,Thu Mar 05 2026 12:04:35 GMT-0600 (Central Standard Time),685353.900000006,1400,O,z,1292,4,1,2713.5999999940395,682640.3000000119,7753,NTS,A,9
9,9,test,3,C,triangle.png,0,z,Thu Mar 05 2026 12:04:35 GMT-0600 (Central Standard Time),687768.099999994,1400,O,m,981,16,1,2407.9000000059605,685360.1999999881,7753,NTS,A,10
3,10,test,3,C,triangle.png,1,z,Thu Mar 05 2026 12:04:35 GMT-0600 (Central Standard Time),690302.8000000119,1200,O,z,1310,19,1,2528.5,687774.3000000119,7753,NTS,A,11
6,11,test,3,C,triangle.png,1,m,Thu Mar 05 2026 12:04:35 GMT-0600 (Central Standard Time),692489.900000006,1000,O,m,1155,13,1,2181.4000000059605,690308.5,7753,NTS,A,12
4,12,test,3,C,circle.png,1,z,Thu Mar 05 2026 12:04:35 GMT-0600 (Central Standard Time),695082.1999999881,1400,O,z,1179,20,1,2589.399999976158,692492.8000000119,7753,NTS,A,13
8,13,test,3,C,circle.png,1,m,Thu Mar 05 2026 12:04:35 GMT-0600 (Central Standard Time),697131.599999994,1200,O,m,818,15,1,2046.0999999940395,695085.5,7753,NTS,A,14
7,14,test,3,C,triangle.png,1,z,Thu Mar 05 2026 12:04:35 GMT-0600 (Central Standard Time),699914.400000006,1700,O,z,1063,6,1,2779.9000000059605,697134.5,7753,NTS,A,15
2,15,test,3,C,triangle.png,1,m,Thu Mar 05 2026 12:04:35 GMT-0600 (Central Standard Time),702881.0,2000,O,m,936,18,1,2959.5,699921.5,7753,NTS,A,16
9,16,test,3,C,circle.png,1,m,Thu Mar 05 2026 12:04:35 GMT-0600 (Central Standard Time),705412.3000000119,1500,O,m,1012,8,1,2527.2000000178814,702885.099999994,7753,NTS,A,17
9,17,test,3,C,circle.png,1,m,Thu Mar 05 2026 12:04:35 GMT-0600 (Central Standard Time),707897.1999999881,1500,O,m,951,24,1,2479.5,705417.6999999881,7753,NTS,A,18
8,18,test,3,C,triangle.png,1,m,Thu Mar 05 2026 12:04:35 GMT-0600 (Central Standard Time),710961.3000000119,1600,O,m,1440,7,1,3058.5,707902.8000000119,7753,NTS,A,19
1,19,test,3,C,triangle.png,1,z,Thu Mar 05 2026 12:04:35 GMT-0600 (Central Standard Time),713677.400000006,1900,O,z,784,9,1,2712.9000000059605,710964.5,7753,NTS,A,20
3,19,test,3,C,circle.png,0,z,Thu Mar 05 2026 12:04:35 GMT-0600 (Central Standard Time),716242.099999994,1600,O,m,934,11,1,2560.2999999821186,713681.8000000119,7753,NTS,A,21
1,20,test,3,C,circle.png,1,z,Thu Mar 05 2026 12:04:35 GMT-0600 (Central Standard Time),718459.099999994,1000,O,z,1196,1,1,2212.2999999821186,716246.8000000119,7753,NTS,A,22
4,20,test,3,C,triangle.png,0,m,Thu Mar 05 2026 12:04:35 GMT-0600 (Central Standard Time),721490.6999999881,1500,O,None,1515,12,1,3027.399999976158,718463.3000000119,7753,NTS,A,23
6,21,test,3,C,circle.png,1,m,Thu Mar 05 2026 12:04:35 GMT-0600 (Central Standard Time),724439.1999999881,1900,O,m,1023,21,1,2940.5999999940395,721498.599999994,7753,NTS,A,24
4,1,test,4,C,circle.png,1,z,Thu Mar 05 2026 12:04:35 GMT-0600 (Central Standard Time),732038.3000000119,1400,O,z,1253,20,1,2678.4000000059605,729359.900000006,7753,NTS,A,1
3,2,test,4,C,circle.png,1,z,Thu Mar 05 2026 12:04:35 GMT-0600 (Central Standard Time),734670.1999999881,1600,O,z,1011,11,1,2628.399999976158,732041.8000000119,7753,NTS,A,2
9,3,test,4,C,circle.png,1,m,Thu Mar 05 2026 12:04:35 GMT-0600 (Central Standard Time),737037.099999994,1500,O,m,847,8,1,2362.5,734674.599999994,7753,NTS,A,3
9,4,test,4,C,circle.png,1,m,Thu Mar 05 2026 12:04:35 GMT-0600 (Central Standard Time),739417.8000000119,1500,O,m,863,24,1,2375.300000011921,737042.5,7753,NTS,A,4
4,5,test,4,C,triangle.png,1,m,Thu Mar 05 2026 12:04:35 GMT-0600 (Central Standard Time),742268.099999994,1500,O,m,1328,12,1,2847.0,739421.099999994,7753,NTS,A,5
8,6,test,4,C,circle.png,1,m,Thu Mar 05 2026 12:04:35 GMT-0600 (Central Standard Time),744351.8000000119,1200,O,m,859,15,1,2079.4000000059605,742272.400000006,7753,NTS,A,6
1,7,test,4,C,circle.png,1,z,Thu Mar 05 2026 12:04:35 GMT-0600 (Central Standard Time),746368.3000000119,1000,O,z,983,17,1,2012.9000000059605,744355.400000006,7753,NTS,A,7
4,8,test,4,C,circle.png,1,z,Thu Mar 05 2026 12:04:35 GMT-0600 (Central Standard Time),748731.900000006,1400,O,z,945,4,1,2359.300000011921,746372.599999994,7753,NTS,A,8
2,9,test,4,C,triangle.png,1,m,Thu Mar 05 2026 12:04:35 GMT-0600 (Central Standard Time),751883.3000000119,2000,O,m,1132,18,1,3147.9000000059605,748735.400000006,7753,NTS,A,9
6,10,test,4,C,triangle.png,1,m,Thu Mar 05 2026 12:04:35 GMT-0600 (Central Standard Time),753782.0,1000,O,m,870,13,1,1895.4000000059605,751886.599999994,7753,NTS,A,10
8,11,test,4,C,triangle.png,1,m,Thu Mar 05 2026 12:04:35 GMT-0600 (Central Standard Time),756029.3000000119,1600,O,m,618,23,1,2243.800000011921,753785.5,7753,NTS,A,11
9,12,test,4,C,triangle.png,1,z,Thu Mar 05 2026 12:04:35 GMT-0600 (Central Standard Time),758829.0,1400,O,z,1376,16,1,2793.9000000059605,756035.099999994,7753,NTS,A,12
8,13,test,4,C,triangle.png,1,m,Thu Mar 05 2026 12:04:35 GMT-0600 (Central Standard Time),761211.400000006,1600,O,m,753,7,1,2377.0999999940395,758834.3000000119,7753,NTS,A,13
1,14,test,4,C,circle.png,1,z,Thu Mar 05 2026 12:04:35 GMT-0600 (Central Standard Time),763578.099999994,1000,O,z,1339,1,1,2362.2999999821186,761215.8000000119,7753,NTS,A,14
3,14,test,4,C,triangle.png,0,z,Thu Mar 05 2026 12:04:35 GMT-0600 (Central Standard Time),766060.0,1200,O,m,1252,3,1,2478.800000011921,763581.1999999881,7753,NTS,A,15
6,15,test,4,C,circle.png,1,m,Thu Mar 05 2026 12:04:35 GMT-0600 (Central Standard Time),769276.3000000119,1900,O,m,1294,21,1,3211.0,766065.3000000119,7753,NTS,A,16
3,16,test,4,C,triangle.png,1,z,Thu Mar 05 2026 12:04:35 GMT-0600 (Central Standard Time),771441.900000006,1200,O,z,949,19,1,2161.4000000059605,769280.5,7753,NTS,A,17
2,17,test,4,C,circle.png,1,z,Thu Mar 05 2026 12:04:35 GMT-0600 (Central Standard Time),773858.599999994,1700,O,z,700,10,1,2412.199999988079,771446.400000006,7753,NTS,A,18
7,18,test,4,C,triangle.png,1,z,Thu Mar 05 2026 12:04:35 GMT-0600 (Central Standard Time),776724.0,1700,O,z,1149,22,1,2860.800000011921,773863.1999999881,7753,NTS,A,19
2,19,test,4,C,triangle.png,1,m,Thu Mar 05 2026 12:04:35 GMT-0600 (Central Standard Time),779623.1999999881,2000,O,m,869,2,1,2895.199999988079,776728.0,7753,NTS,A,20
6,20,test,4,C,circle.png,1,m,Thu Mar 05 2026 12:04:35 GMT-0600 (Central Standard Time),782455.599999994,1900,O,m,909,5,1,2827.699999988079,779627.900000006,7753,NTS,A,21
7,20,test,4,C,triangle.png,0,z,Thu Mar 05 2026 12:04:35 GMT-0600 (Central Standard Time),785686.8000000119,1700,O,None,1516,6,1,3226.7000000178814,782460.099999994,7753,NTS,A,22
1,21,test,4,C,triangle.png,1,z,Thu Mar 05 2026 12:04:35 GMT-0600 (Central Standard Time),788719.0,1900,O,z,1109,9,1,3022.0999999940395,785696.900000006,7753,NTS,A,23
7,22,test,4,C,circle.png,1,m,Thu Mar 05 2026 12:04:35 GMT-0600 (Central Standard Time),791352.900000006,2000,O,m,617,14,1,2631.300000011921,788721.599999994,7753,NTS,A,24
