block_c,block_dur,condition,countdown,datetime,endtime,list,multichar_response,project,response,response_time,session_number,start_end,starttime,subject_id,task,task_vers,trial
,,,,Wed Mar 04 2026 15:45:08 GMT-0600 (Central Standard Time),,,,O,space,893,1,,,7735,WL,A,
prac,,0,,Wed Mar 04 2026 15:45:08 GMT-0600 (Central Standard Time),,NA,b,O,b,8196,1,,,7735,WL,A,1.0
prac,,0,,Wed Mar 04 2026 15:45:08 GMT-0600 (Central Standard Time),,NA,bp,O,p,336,1,,,7735,WL,A,1.0
prac,,0,,Wed Mar 04 2026 15:45:08 GMT-0600 (Central Standard Time),,NA,bpp,O,p,123,1,,,7735,WL,A,1.0
prac,,0,,Wed Mar 04 2026 15:45:08 GMT-0600 (Central Standard Time),,NA,bpps,O,s,256,1,,,7735,WL,A,1.0
prac,,0,,Wed Mar 04 2026 15:45:08 GMT-0600 (Central Standard Time),,NA,bppst,O,t,227,1,,,7735,WL,A,1.0
prac,,0,,Wed Mar 04 2026 15:45:08 GMT-0600 (Central Standard Time),,NA,bpps,O,backspace,1741,1,,,7735,WL,A,1.0
prac,,0,,Wed Mar 04 2026 15:45:08 GMT-0600 (Central Standard Time),,NA,bpp,O,backspace,169,1,,,7735,WL,A,1.0
prac,,0,,Wed Mar 04 2026 15:45:08 GMT-0600 (Central Standard Time),,NA,bp,O,backspace,490,1,,,7735,WL,A,1.0
prac,,0,,Wed Mar 04 2026 15:45:08 GMT-0600 (Central Standard Time),,NA,b,O,backspace,422,1,,,7735,WL,A,1.0
prac,,0,,Wed Mar 04 2026 15:45:08 GMT-0600 (Central Standard Time),,NA,bo,O,o,1015,1,,,7735,WL,A,1.0
prac,,0,,Wed Mar 04 2026 15:45:08 GMT-0600 (Central Standard Time),,NA,boo,O,o,123,1,,,7735,WL,A,1.0
prac,,0,,Wed Mar 04 2026 15:45:08 GMT-0600 (Central Standard Time),,NA,boos,O,s,261,1,,,7735,WL,A,1.0
prac,,0,,Wed Mar 04 2026 15:45:08 GMT-0600 (Central Standard Time),,NA,boost,O,t,226,1,,,7735,WL,A,1.0
prac,,0,,Wed Mar 04 2026 15:45:08 GMT-0600 (Central Standard Time),,NA,boostenter,O,enter,2417,1,,,7735,WL,A,1.0
1,2.4499998092651367,learn,57550.00019073486,Wed Mar 04 2026 15:45:08 GMT-0600 (Central Standard Time),196925.79999999702,A,b,O,b,2432,1,2450.2000000029802,194475.59999999404,7735,WL,A,1.0
1,3.133999824523926,learn,56866.000175476074,Wed Mar 04 2026 15:45:08 GMT-0600 (Central Standard Time),197609.29999999702,A,bo,O,o,658,1,3133.7000000029802,194475.59999999404,7735,WL,A,1.0
1,3.2819998264312744,learn,56718.000173568726,Wed Mar 04 2026 15:45:08 GMT-0600 (Central Standard Time),197757.70000000298,A,boo,O,o,136,1,3282.1000000089407,194475.59999999404,7735,WL,A,1.0
1,3.5989999771118164,learn,56401.00002288818,Wed Mar 04 2026 15:45:08 GMT-0600 (Central Standard Time),198074.5,A,book,O,k,309,1,3598.9000000059605,194475.59999999404,7735,WL,A,1.0
1,4.4659998416900635,learn,55534.00015830994,Wed Mar 04 2026 15:45:08 GMT-0600 (Central Standard Time),198941.09999999404,A,bookenter,O,enter,854,1,4465.5,194475.59999999404,7735,WL,A,1.0
1,5.132999897003174,learn,54867.000102996826,Wed Mar 04 2026 15:45:08 GMT-0600 (Central Standard Time),199608.20000000298,A,f,O,f,644,1,666.7000000029802,198941.5,7735,WL,A,2.0
1,5.483999967575073,learn,54516.00003242493,Wed Mar 04 2026 15:45:08 GMT-0600 (Central Standard Time),199959.0,A,fl,O,l,338,1,1017.5,198941.5,7735,WL,A,2.0
1,5.75,learn,54250.0,Wed Mar 04 2026 15:45:08 GMT-0600 (Central Standard Time),200225.0,A,flo,O,o,252,1,1283.5,198941.5,7735,WL,A,2.0
1,5.915999889373779,learn,54084.00011062622,Wed Mar 04 2026 15:45:08 GMT-0600 (Central Standard Time),200391.29999999702,A,flow,O,w,153,1,1449.7999999970198,198941.5,7735,WL,A,2.0
1,6.348999977111816,learn,53651.00002288818,Wed Mar 04 2026 15:45:08 GMT-0600 (Central Standard Time),200824.29999999702,A,flowe,O,e,410,1,1882.7999999970198,198941.5,7735,WL,A,2.0
1,6.48199987411499,learn,53518.00012588501,Wed Mar 04 2026 15:45:08 GMT-0600 (Central Standard Time),200957.29999999702,A,flower,O,r,113,1,2015.7999999970198,198941.5,7735,WL,A,2.0
1,7.2149999141693115,learn,52785.00008583069,Wed Mar 04 2026 15:45:08 GMT-0600 (Central Standard Time),201690.79999999702,A,flowerenter,O,enter,716,1,2749.2999999970198,198941.5,7735,WL,A,2.0
1,7.681999921798706,learn,52318.000078201294,Wed Mar 04 2026 15:45:08 GMT-0600 (Central Standard Time),202157.5,A,r,O,r,455,1,466.29999999701977,201691.20000000298,7735,WL,A,3.0
1,7.830999851226807,learn,52169.00014877319,Wed Mar 04 2026 15:45:08 GMT-0600 (Central Standard Time),202306.0,A,ra,O,a,140,1,614.7999999970198,201691.20000000298,7735,WL,A,3.0
1,8.115000009536743,learn,51884.99999046326,Wed Mar 04 2026 15:45:08 GMT-0600 (Central Standard Time),202590.40000000596,A,rat,O,t,265,1,899.2000000029802,201691.20000000298,7735,WL,A,3.0
1,8.247999906539917,learn,51752.00009346008,Wed Mar 04 2026 15:45:08 GMT-0600 (Central Standard Time),202723.0,A,ratt,O,t,124,1,1031.7999999970198,201691.20000000298,7735,WL,A,3.0
1,8.515999794006348,learn,51484.00020599365,Wed Mar 04 2026 15:45:08 GMT-0600 (Central Standard Time),202991.0,A,rattl,O,l,256,1,1299.7999999970198,201691.20000000298,7735,WL,A,3.0
1,8.646999835968018,learn,51353.00016403198,Wed Mar 04 2026 15:45:08 GMT-0600 (Central Standard Time),203122.20000000298,A,rattle,O,e,109,1,1431.0,201691.20000000298,7735,WL,A,3.0
1,9.379999876022339,learn,50620.00012397766,Wed Mar 04 2026 15:45:08 GMT-0600 (Central Standard Time),203855.29999999702,A,rattleenter,O,enter,721,1,2164.0999999940395,201691.20000000298,7735,WL,A,3.0
1,9.930999994277954,learn,50069.000005722046,Wed Mar 04 2026 15:45:08 GMT-0600 (Central Standard Time),204406.09999999404,A,t,O,t,530,1,550.5,203855.59999999404,7735,WL,A,4.0
1,10.11299991607666,learn,49887.00008392334,Wed Mar 04 2026 15:45:08 GMT-0600 (Central Standard Time),204588.70000000298,A,tr,O,r,171,1,733.1000000089407,203855.59999999404,7735,WL,A,4.0
1,10.27899980545044,learn,49721.00019454956,Wed Mar 04 2026 15:45:08 GMT-0600 (Central Standard Time),204754.70000000298,A,tra,O,a,149,1,899.1000000089407,203855.59999999404,7735,WL,A,4.0
1,10.428999900817871,learn,49571.00009918213,Wed Mar 04 2026 15:45:08 GMT-0600 (Central Standard Time),204904.70000000298,A,trai,O,i,138,1,1049.1000000089407,203855.59999999404,7735,WL,A,4.0
1,10.562999963760376,learn,49437.000036239624,Wed Mar 04 2026 15:45:08 GMT-0600 (Central Standard Time),205038.09999999404,A,train,O,n,114,1,1182.5,203855.59999999404,7735,WL,A,4.0
1,11.34499979019165,learn,48655.00020980835,Wed Mar 04 2026 15:45:08 GMT-0600 (Central Standard Time),205820.70000000298,A,trainenter,O,enter,765,1,1965.1000000089407,203855.59999999404,7735,WL,A,4.0
1,12.84499979019165,learn,47155.00020980835,Wed Mar 04 2026 15:45:08 GMT-0600 (Central Standard Time),207320.20000000298,A,c,O,c,1494,1,1499.1000000089407,205821.09999999404,7735,WL,A,5.0
1,13.013999938964844,learn,46986.000061035156,Wed Mar 04 2026 15:45:08 GMT-0600 (Central Standard Time),207488.90000000596,A,ch,O,h,165,1,1667.800000011921,205821.09999999404,7735,WL,A,5.0
1,13.197999954223633,learn,46802.00004577637,Wed Mar 04 2026 15:45:08 GMT-0600 (Central Standard Time),207673.0,A,chi,O,i,178,1,1851.9000000059605,205821.09999999404,7735,WL,A,5.0
1,13.378999948501587,learn,46621.00005149841,Wed Mar 04 2026 15:45:08 GMT-0600 (Central Standard Time),207854.5,A,chim,O,m,160,1,2033.4000000059605,205821.09999999404,7735,WL,A,5.0
1,13.911999940872192,learn,46088.00005912781,Wed Mar 04 2026 15:45:08 GMT-0600 (Central Standard Time),208387.40000000596,A,chimn,O,n,515,1,2566.300000011921,205821.09999999404,7735,WL,A,5.0
1,14.19599986076355,learn,45804.00013923645,Wed Mar 04 2026 15:45:08 GMT-0600 (Central Standard Time),208671.70000000298,A,chimne,O,e,273,1,2850.6000000089407,205821.09999999404,7735,WL,A,5.0
1,14.478999853134155,learn,45521.000146865845,Wed Mar 04 2026 15:45:08 GMT-0600 (Central Standard Time),208954.79999999702,A,chimney,O,y,268,1,3133.7000000029802,205821.09999999404,7735,WL,A,5.0
1,15.311999797821045,learn,44688.000202178955,Wed Mar 04 2026 15:45:08 GMT-0600 (Central Standard Time),209787.20000000298,A,chimneyenter,O,enter,815,1,3966.1000000089407,205821.09999999404,7735,WL,A,5.0
1,16.078999996185303,learn,43921.0000038147,Wed Mar 04 2026 15:45:08 GMT-0600 (Central Standard Time),210554.70000000298,A,l,O,l,752,1,767.2000000029802,209787.5,7735,WL,A,6.0
1,16.34499979019165,learn,43655.00020980835,Wed Mar 04 2026 15:45:08 GMT-0600 (Central Standard Time),210819.90000000596,A,lo,O,o,248,1,1032.4000000059605,209787.5,7735,WL,A,6.0
1,16.644999980926514,learn,43355.000019073486,Wed Mar 04 2026 15:45:08 GMT-0600 (Central Standard Time),211120.70000000298,A,log,O,g,287,1,1333.2000000029802,209787.5,7735,WL,A,6.0
1,17.09499979019165,learn,42905.00020980835,Wed Mar 04 2026 15:45:08 GMT-0600 (Central Standard Time),211570.59999999404,A,logenter,O,enter,436,1,1783.0999999940395,209787.5,7735,WL,A,6.0
1,27.675999879837036,learn,32324.000120162964,Wed Mar 04 2026 15:45:08 GMT-0600 (Central Standard Time),222151.09999999404,A,t,O,t,10560,1,10580.09999999404,211571.0,7735,WL,A,7.0
1,27.908999919891357,learn,32091.000080108643,Wed Mar 04 2026 15:45:08 GMT-0600 (Central Standard Time),222384.09999999404,A,tr,O,r,211,1,10813.09999999404,211571.0,7735,WL,A,7.0
1,28.29199981689453,learn,31708.00018310547,Wed Mar 04 2026 15:45:08 GMT-0600 (Central Standard Time),222767.09999999404,A,tre,O,e,363,1,11196.09999999404,211571.0,7735,WL,A,7.0
1,28.45799994468689,learn,31542.00005531311,Wed Mar 04 2026 15:45:08 GMT-0600 (Central Standard Time),222933.20000000298,A,tree,O,e,147,1,11362.20000000298,211571.0,7735,WL,A,7.0
1,29.441999912261963,learn,30558.000087738037,Wed Mar 04 2026 15:45:08 GMT-0600 (Central Standard Time),223917.29999999702,A,treeenter,O,enter,975,1,12346.29999999702,211571.0,7735,WL,A,7.0
1,33.08999991416931,learn,26910.00008583069,Wed Mar 04 2026 15:45:08 GMT-0600 (Central Standard Time),227565.40000000596,A,b,O,b,3638,1,3647.800000011921,223917.59999999404,7735,WL,A,8.0
1,33.389999866485596,learn,26610.000133514404,Wed Mar 04 2026 15:45:08 GMT-0600 (Central Standard Time),227865.59999999404,A,bu,O,u,294,1,3948.0,223917.59999999404,7735,WL,A,8.0
1,33.6729998588562,learn,26327.0001411438,Wed Mar 04 2026 15:45:08 GMT-0600 (Central Standard Time),228148.29999999702,A,but,O,t,273,1,4230.70000000298,223917.59999999404,7735,WL,A,8.0
1,33.8219997882843,learn,26178.0002117157,Wed Mar 04 2026 15:45:08 GMT-0600 (Central Standard Time),228297.40000000596,A,butt,O,t,135,1,4379.800000011921,223917.59999999404,7735,WL,A,8.0
1,33.990999937057495,learn,26009.000062942505,Wed Mar 04 2026 15:45:08 GMT-0600 (Central Standard Time),228466.0,A,butto,O,o,165,1,4548.4000000059605,223917.59999999404,7735,WL,A,8.0
1,34.139999866485596,learn,25860.000133514404,Wed Mar 04 2026 15:45:08 GMT-0600 (Central Standard Time),228615.20000000298,A,button,O,n,135,1,4697.600000008941,223917.59999999404,7735,WL,A,8.0
1,35.138999938964844,learn,24861.000061035156,Wed Mar 04 2026 15:45:08 GMT-0600 (Central Standard Time),229614.59999999404,A,buttonenter,O,enter,978,1,5697.0,223917.59999999404,7735,WL,A,8.0
1,51.11699986457825,learn,8883.000135421753,Wed Mar 04 2026 15:45:08 GMT-0600 (Central Standard Time),245592.70000000298,A,enter,O,enter,15957,1,15977.79999999702,229614.90000000596,7735,WL,A,9.0
1,60.01599979400635,learn,-15.999794006347656,Wed Mar 04 2026 15:45:08 GMT-0600 (Central Standard Time),254492.40000000596,A,None,O,None,8894,1,8899.300000011921,245593.09999999404,7735,WL,A,10.0
2,1.2670001983642578,learn,58732.99980163574,Wed Mar 04 2026 15:45:08 GMT-0600 (Central Standard Time),331565.5,A,g,O,g,1257,1,1266.5999999940395,330298.90000000596,7735,WL,A,1.0
2,1.4840002059936523,learn,58515.99979400635,Wed Mar 04 2026 15:45:08 GMT-0600 (Central Standard Time),331782.59999999404,A,go,O,o,204,1,1483.699999988079,330298.90000000596,7735,WL,A,1.0
2,1.7340002059936523,learn,58265.99979400635,Wed Mar 04 2026 15:45:08 GMT-0600 (Central Standard Time),332032.90000000596,A,gol,O,l,244,1,1734.0,330298.90000000596,7735,WL,A,1.0
2,2.1500000953674316,learn,57849.99990463257,Wed Mar 04 2026 15:45:08 GMT-0600 (Central Standard Time),332449.0,A,gold,O,d,395,1,2150.0999999940395,330298.90000000596,7735,WL,A,1.0
2,2.9000000953674316,learn,57099.99990463257,Wed Mar 04 2026 15:45:08 GMT-0600 (Central Standard Time),333198.59999999404,A,goldenter,O,enter,728,1,2899.699999988079,330298.90000000596,7735,WL,A,1.0
2,3.2990000247955322,learn,56700.99997520447,Wed Mar 04 2026 15:45:08 GMT-0600 (Central Standard Time),333597.799999997,A,r,O,r,388,1,399.0,333198.799999997,7735,WL,A,2.0
2,3.501000165939331,learn,56498.99983406067,Wed Mar 04 2026 15:45:08 GMT-0600 (Central Standard Time),333800.0,A,ra,O,a,181,1,601.2000000029802,333198.799999997,7735,WL,A,2.0
2,4.017000198364258,learn,55982.99980163574,Wed Mar 04 2026 15:45:08 GMT-0600 (Central Standard Time),334315.59999999404,A,rat,O,t,498,1,1116.7999999970198,333198.799999997,7735,WL,A,2.0
2,4.166000127792358,learn,55833.99987220764,Wed Mar 04 2026 15:45:08 GMT-0600 (Central Standard Time),334464.5,A,ratt,O,t,142,1,1265.7000000029802,333198.799999997,7735,WL,A,2.0
2,4.4150002002716064,learn,55584.99979972839,Wed Mar 04 2026 15:45:08 GMT-0600 (Central Standard Time),334713.40000000596,A,rattl,O,l,235,1,1514.6000000089407,333198.799999997,7735,WL,A,2.0
2,4.531000137329102,learn,55468.9998626709,Wed Mar 04 2026 15:45:08 GMT-0600 (Central Standard Time),334829.5,A,rattle,O,e,98,1,1630.7000000029802,333198.799999997,7735,WL,A,2.0
2,5.281000137329102,learn,54718.9998626709,Wed Mar 04 2026 15:45:08 GMT-0600 (Central Standard Time),335579.40000000596,A,rattleenter,O,enter,743,1,2380.6000000089407,333198.799999997,7735,WL,A,2.0
2,5.797000169754028,learn,54202.99983024597,Wed Mar 04 2026 15:45:08 GMT-0600 (Central Standard Time),336095.799999997,A,k,O,k,504,1,516.2000000029802,335579.59999999404,7735,WL,A,3.0
2,5.9150002002716064,learn,54084.99979972839,Wed Mar 04 2026 15:45:08 GMT-0600 (Central Standard Time),336213.59999999404,A,ke,O,e,108,1,634.0,335579.59999999404,7735,WL,A,3.0
2,6.215000152587891,learn,53784.99984741211,Wed Mar 04 2026 15:45:08 GMT-0600 (Central Standard Time),336514.0,A,key,O,y,294,1,934.4000000059605,335579.59999999404,7735,WL,A,3.0
2,6.980000019073486,learn,53019.999980926514,Wed Mar 04 2026 15:45:08 GMT-0600 (Central Standard Time),337278.700000003,A,keyenter,O,enter,744,1,1699.1000000089407,335579.59999999404,7735,WL,A,3.0
2,7.482000112533569,learn,52517.99988746643,Wed Mar 04 2026 15:45:08 GMT-0600 (Central Standard Time),337780.90000000596,A,b,O,b,484,1,501.90000000596046,337279.0,7735,WL,A,4.0
2,7.815000057220459,learn,52184.99994277954,Wed Mar 04 2026 15:45:08 GMT-0600 (Central Standard Time),338113.90000000596,A,bu,O,u,319,1,834.9000000059605,337279.0,7735,WL,A,4.0
2,8.14900016784668,learn,51850.99983215332,Wed Mar 04 2026 15:45:08 GMT-0600 (Central Standard Time),338447.40000000596,A,but,O,t,328,1,1168.4000000059605,337279.0,7735,WL,A,4.0
2,8.29800009727478,learn,51701.99990272522,Wed Mar 04 2026 15:45:08 GMT-0600 (Central Standard Time),338596.299999997,A,butt,O,t,133,1,1317.2999999970198,337279.0,7735,WL,A,4.0
2,8.46399998664856,learn,51536.00001335144,Wed Mar 04 2026 15:45:08 GMT-0600 (Central Standard Time),338763.09999999404,A,butto,O,o,150,1,1484.0999999940395,337279.0,7735,WL,A,4.0
2,8.632000207901001,learn,51367.999792099,Wed Mar 04 2026 15:45:08 GMT-0600 (Central Standard Time),338931.09999999404,A,button,O,n,162,1,1652.0999999940395,337279.0,7735,WL,A,4.0
2,10.614000082015991,learn,49385.99991798401,Wed Mar 04 2026 15:45:08 GMT-0600 (Central Standard Time),340913.09999999404,A,buttonenter,O,enter,1974,1,3634.0999999940395,337279.0,7735,WL,A,4.0
2,11.147000074386597,learn,48852.9999256134,Wed Mar 04 2026 15:45:08 GMT-0600 (Central Standard Time),341446.0,A,b,O,b,522,1,532.5999999940395,340913.40000000596,7735,WL,A,5.0
2,11.979000091552734,learn,48020.999908447266,Wed Mar 04 2026 15:45:08 GMT-0600 (Central Standard Time),342278.09999999404,A,bb,O,b,820,1,1364.699999988079,340913.40000000596,7735,WL,A,5.0
2,12.448000192642212,learn,47551.99980735779,Wed Mar 04 2026 15:45:08 GMT-0600 (Central Standard Time),342746.09999999404,A,bbo,O,o,447,1,1832.699999988079,340913.40000000596,7735,WL,A,5.0
2,12.61300015449524,learn,47386.99984550476,Wed Mar 04 2026 15:45:08 GMT-0600 (Central Standard Time),342911.09999999404,A,bboo,O,o,152,1,1997.699999988079,340913.40000000596,7735,WL,A,5.0
2,12.895000219345093,learn,47104.99978065491,Wed Mar 04 2026 15:45:08 GMT-0600 (Central Standard Time),343193.700000003,A,bbo,O,backspace,275,1,2280.2999999970198,340913.40000000596,7735,WL,A,5.0
2,13.081000089645386,learn,46918.999910354614,Wed Mar 04 2026 15:45:08 GMT-0600 (Central Standard Time),343379.40000000596,A,bb,O,backspace,180,1,2466.0,340913.40000000596,7735,WL,A,5.0
2,13.230000019073486,learn,46769.999980926514,Wed Mar 04 2026 15:45:08 GMT-0600 (Central Standard Time),343528.40000000596,A,b,O,backspace,133,1,2615.0,340913.40000000596,7735,WL,A,5.0
2,13.696000099182129,learn,46303.99990081787,Wed Mar 04 2026 15:45:08 GMT-0600 (Central Standard Time),343994.59999999404,A,bo,O,o,448,1,3081.199999988079,340913.40000000596,7735,WL,A,5.0
2,13.84600019454956,learn,46153.99980545044,Wed Mar 04 2026 15:45:08 GMT-0600 (Central Standard Time),344144.59999999404,A,boo,O,o,144,1,3231.199999988079,340913.40000000596,7735,WL,A,5.0
2,14.129000186920166,learn,45870.999813079834,Wed Mar 04 2026 15:45:08 GMT-0600 (Central Standard Time),344427.90000000596,A,book,O,k,266,1,3514.5,340913.40000000596,7735,WL,A,5.0
2,14.796000003814697,learn,45203.9999961853,Wed Mar 04 2026 15:45:08 GMT-0600 (Central Standard Time),345094.59999999404,A,bookenter,O,enter,646,1,4181.199999988079,340913.40000000596,7735,WL,A,5.0
2,15.196000099182129,learn,44803.99990081787,Wed Mar 04 2026 15:45:08 GMT-0600 (Central Standard Time),345494.5,A,f,O,f,388,1,399.70000000298023,345094.799999997,7735,WL,A,6.0
2,15.412000179290771,learn,44587.99982070923,Wed Mar 04 2026 15:45:08 GMT-0600 (Central Standard Time),345711.0,A,fl,O,l,202,1,616.2000000029802,345094.799999997,7735,WL,A,6.0
2,15.59600019454956,learn,44403.99980545044,Wed Mar 04 2026 15:45:08 GMT-0600 (Central Standard Time),345895.0,A,flo,O,o,171,1,800.2000000029802,345094.799999997,7735,WL,A,6.0
2,15.712000131607056,learn,44287.999868392944,Wed Mar 04 2026 15:45:08 GMT-0600 (Central Standard Time),346010.5,A,flow,O,w,99,1,915.7000000029802,345094.799999997,7735,WL,A,6.0
2,15.912000179290771,learn,44087.99982070923,Wed Mar 04 2026 15:45:08 GMT-0600 (Central Standard Time),346210.40000000596,A,flowe,O,e,196,1,1115.6000000089407,345094.799999997,7735,WL,A,6.0
2,16.11300015449524,learn,43886.99984550476,Wed Mar 04 2026 15:45:08 GMT-0600 (Central Standard Time),346411.200000003,A,flower,O,r,181,1,1316.4000000059605,345094.799999997,7735,WL,A,6.0
2,16.84600019454956,learn,43153.99980545044,Wed Mar 04 2026 15:45:08 GMT-0600 (Central Standard Time),347144.799999997,A,flowerenter,O,enter,718,1,2050.0,345094.799999997,7735,WL,A,6.0
2,18.228000164031982,learn,41771.99983596802,Wed Mar 04 2026 15:45:08 GMT-0600 (Central Standard Time),348526.59999999404,A,m,O,m,1362,1,1381.5,347145.09999999404,7735,WL,A,7.0
2,18.57800006866455,learn,41421.99993133545,Wed Mar 04 2026 15:45:08 GMT-0600 (Central Standard Time),348876.59999999404,A,me,O,e,332,1,1731.5,347145.09999999404,7735,WL,A,7.0
2,18.694000005722046,learn,41305.999994277954,Wed Mar 04 2026 15:45:08 GMT-0600 (Central Standard Time),348992.90000000596,A,mea,O,a,100,1,1847.800000011921,347145.09999999404,7735,WL,A,7.0
2,19.044000148773193,learn,40955.99985122681,Wed Mar 04 2026 15:45:08 GMT-0600 (Central Standard Time),349342.40000000596,A,mead,O,d,338,1,2197.300000011921,347145.09999999404,7735,WL,A,7.0
2,19.211000204086304,learn,40788.999795913696,Wed Mar 04 2026 15:45:08 GMT-0600 (Central Standard Time),349509.40000000596,A,meado,O,o,150,1,2364.300000011921,347145.09999999404,7735,WL,A,7.0
2,19.360000133514404,learn,40639.999866485596,Wed Mar 04 2026 15:45:08 GMT-0600 (Central Standard Time),349658.299999997,A,meadow,O,w,131,1,2513.2000000029802,347145.09999999404,7735,WL,A,7.0
2,20.093000173568726,learn,39906.999826431274,Wed Mar 04 2026 15:45:08 GMT-0600 (Central Standard Time),350392.799999997,A,meadowenter,O,enter,721,1,3247.7000000029802,347145.09999999404,7735,WL,A,7.0
2,21.860000133514404,learn,38139.999866485596,Wed Mar 04 2026 15:45:08 GMT-0600 (Central Standard Time),352159.299999997,A,c,O,c,1746,1,1766.2999999970198,350393.0,7735,WL,A,8.0
2,21.992000102996826,learn,38007.999897003174,Wed Mar 04 2026 15:45:08 GMT-0600 (Central Standard Time),352291.09999999404,A,ch,O,h,113,1,1898.0999999940395,350393.0,7735,WL,A,8.0
2,22.194000005722046,learn,37805.999994277954,Wed Mar 04 2026 15:45:08 GMT-0600 (Central Standard Time),352493.09999999404,A,chi,O,i,182,1,2100.0999999940395,350393.0,7735,WL,A,8.0
2,22.344000101089478,learn,37655.99989891052,Wed Mar 04 2026 15:45:08 GMT-0600 (Central Standard Time),352642.90000000596,A,chim,O,m,135,1,2249.9000000059605,350393.0,7735,WL,A,8.0
2,22.692000150680542,learn,37307.99984931946,Wed Mar 04 2026 15:45:08 GMT-0600 (Central Standard Time),352991.5,A,chimn,O,n,327,1,2598.5,350393.0,7735,WL,A,8.0
2,22.9760000705719,learn,37023.9999294281,Wed Mar 04 2026 15:45:08 GMT-0600 (Central Standard Time),353275.299999997,A,chimne,O,e,267,1,2882.2999999970198,350393.0,7735,WL,A,8.0
2,23.242000102996826,learn,36757.999897003174,Wed Mar 04 2026 15:45:08 GMT-0600 (Central Standard Time),353541.09999999404,A,chimney,O,y,255,1,3148.0999999940395,350393.0,7735,WL,A,8.0
2,23.87600016593933,learn,36123.99983406067,Wed Mar 04 2026 15:45:08 GMT-0600 (Central Standard Time),354175.0,A,chimneyenter,O,enter,622,1,3782.0,350393.0,7735,WL,A,8.0
2,24.259999990463257,learn,35740.00000953674,Wed Mar 04 2026 15:45:08 GMT-0600 (Central Standard Time),354559.0,A,t,O,t,364,1,383.70000000298023,354175.299999997,7735,WL,A,9.0
2,24.49400019645691,learn,35505.99980354309,Wed Mar 04 2026 15:45:08 GMT-0600 (Central Standard Time),354793.700000003,A,tr,O,r,226,1,618.4000000059605,354175.299999997,7735,WL,A,9.0
2,24.725000143051147,learn,35274.99985694885,Wed Mar 04 2026 15:45:08 GMT-0600 (Central Standard Time),355023.90000000596,A,tri,O,i,217,1,848.6000000089407,354175.299999997,7735,WL,A,9.0
2,24.877000093460083,learn,35122.99990653992,Wed Mar 04 2026 15:45:08 GMT-0600 (Central Standard Time),355176.09999999404,A,trin,O,n,146,1,1000.7999999970198,354175.299999997,7735,WL,A,9.0
2,25.609000205993652,learn,34390.99979400635,Wed Mar 04 2026 15:45:08 GMT-0600 (Central Standard Time),355908.09999999404,A,tri,O,backspace,715,1,1732.7999999970198,354175.299999997,7735,WL,A,9.0
2,25.87600016593933,learn,34123.99983406067,Wed Mar 04 2026 15:45:08 GMT-0600 (Central Standard Time),356175.200000003,A,tria,O,a,256,1,1999.9000000059605,354175.299999997,7735,WL,A,9.0
2,26.807000160217285,learn,33192.999839782715,Wed Mar 04 2026 15:45:08 GMT-0600 (Central Standard Time),357106.799999997,A,tri,O,backspace,916,1,2931.5,354175.299999997,7735,WL,A,9.0
2,26.9760000705719,learn,33023.9999294281,Wed Mar 04 2026 15:45:08 GMT-0600 (Central Standard Time),357275.40000000596,A,tr,O,backspace,163,1,3100.1000000089407,354175.299999997,7735,WL,A,9.0
2,27.192000150680542,learn,32807.99984931946,Wed Mar 04 2026 15:45:08 GMT-0600 (Central Standard Time),357491.200000003,A,tra,O,a,209,1,3315.9000000059605,354175.299999997,7735,WL,A,9.0
2,27.45800018310547,learn,32541.99981689453,Wed Mar 04 2026 15:45:08 GMT-0600 (Central Standard Time),357757.299999997,A,trai,O,i,247,1,3582.0,354175.299999997,7735,WL,A,9.0
2,27.725000143051147,learn,32274.999856948853,Wed Mar 04 2026 15:45:08 GMT-0600 (Central Standard Time),358024.5,A,train,O,n,247,1,3849.2000000029802,354175.299999997,7735,WL,A,9.0
2,28.424000024795532,learn,31575.999975204468,Wed Mar 04 2026 15:45:08 GMT-0600 (Central Standard Time),358723.59999999404,A,trainenter,O,enter,692,1,4548.29999999702,354175.299999997,7735,WL,A,9.0
2,33.77300000190735,learn,26226.99999809265,Wed Mar 04 2026 15:45:08 GMT-0600 (Central Standard Time),364072.799999997,A,f,O,f,5328,1,5349.0,358723.799999997,7735,WL,A,10.0
2,33.92200016975403,learn,26077.99983024597,Wed Mar 04 2026 15:45:08 GMT-0600 (Central Standard Time),364221.40000000596,A,fl,O,l,137,1,5497.600000008941,358723.799999997,7735,WL,A,10.0
2,34.13800001144409,learn,25861.99998855591,Wed Mar 04 2026 15:45:08 GMT-0600 (Central Standard Time),364437.799999997,A,flo,O,o,197,1,5714.0,358723.799999997,7735,WL,A,10.0
2,34.27300000190735,learn,25726.99999809265,Wed Mar 04 2026 15:45:08 GMT-0600 (Central Standard Time),364572.0,A,flow,O,w,122,1,5848.20000000298,358723.799999997,7735,WL,A,10.0
2,34.48800015449524,learn,25511.99984550476,Wed Mar 04 2026 15:45:08 GMT-0600 (Central Standard Time),364787.299999997,A,flowe,O,e,197,1,6063.5,358723.799999997,7735,WL,A,10.0
2,34.67500019073486,learn,25324.999809265137,Wed Mar 04 2026 15:45:08 GMT-0600 (Central Standard Time),364973.90000000596,A,flower,O,r,182,1,6250.100000008941,358723.799999997,7735,WL,A,10.0
2,35.38700008392334,learn,24612.99991607666,Wed Mar 04 2026 15:45:08 GMT-0600 (Central Standard Time),365686.799999997,A,flowerenter,O,enter,694,1,6963.0,358723.799999997,7735,WL,A,10.0
2,36.78800010681152,learn,23211.999893188477,Wed Mar 04 2026 15:45:08 GMT-0600 (Central Standard Time),367087.59999999404,A,m,O,m,1390,1,1400.5999999940395,365687.0,7735,WL,A,11.0
2,37.223000049591064,learn,22776.999950408936,Wed Mar 04 2026 15:45:08 GMT-0600 (Central Standard Time),367521.90000000596,A,me,O,e,428,1,1834.9000000059605,365687.0,7735,WL,A,11.0
2,37.372000217437744,learn,22627.999782562256,Wed Mar 04 2026 15:45:08 GMT-0600 (Central Standard Time),367671.09999999404,A,mea,O,a,128,1,1984.0999999940395,365687.0,7735,WL,A,11.0
2,37.58800005912781,learn,22411.999940872192,Wed Mar 04 2026 15:45:08 GMT-0600 (Central Standard Time),367887.0,A,mead,O,d,202,1,2200.0,365687.0,7735,WL,A,11.0
2,37.97200012207031,learn,22027.999877929688,Wed Mar 04 2026 15:45:08 GMT-0600 (Central Standard Time),368271.299999997,A,meado,O,o,364,1,2584.2999999970198,365687.0,7735,WL,A,11.0
2,38.188000202178955,learn,21811.999797821045,Wed Mar 04 2026 15:45:08 GMT-0600 (Central Standard Time),368487.09999999404,A,meadow,O,w,195,1,2800.0999999940395,365687.0,7735,WL,A,11.0
2,39.23800015449524,learn,20761.99984550476,Wed Mar 04 2026 15:45:08 GMT-0600 (Central Standard Time),369537.09999999404,A,meadowenter,O,enter,1035,1,3850.0999999940395,365687.0,7735,WL,A,11.0
2,46.90000009536743,learn,13099.999904632568,Wed Mar 04 2026 15:45:08 GMT-0600 (Central Standard Time),377199.200000003,A,l,O,l,7649,1,7661.79999999702,369537.40000000596,7735,WL,A,12.0
2,47.16700005531311,learn,12832.99994468689,Wed Mar 04 2026 15:45:08 GMT-0600 (Central Standard Time),377466.700000003,A,lo,O,o,260,1,7929.29999999702,369537.40000000596,7735,WL,A,12.0
2,47.401000022888184,learn,12598.999977111816,Wed Mar 04 2026 15:45:08 GMT-0600 (Central Standard Time),377700.700000003,A,log,O,g,226,1,8163.29999999702,369537.40000000596,7735,WL,A,12.0
2,48.16700005531311,learn,11832.99994468689,Wed Mar 04 2026 15:45:08 GMT-0600 (Central Standard Time),378466.700000003,A,logenter,O,enter,757,1,8929.29999999702,369537.40000000596,7735,WL,A,12.0
2,56.849000215530396,learn,3150.9997844696045,Wed Mar 04 2026 15:45:08 GMT-0600 (Central Standard Time),387148.5,A,r,O,r,8665,1,8681.5,378467.0,7735,WL,A,13.0
2,57.23100018501282,learn,2768.9998149871826,Wed Mar 04 2026 15:45:08 GMT-0600 (Central Standard Time),387530.799999997,A,ru,O,u,376,1,9063.79999999702,378467.0,7735,WL,A,13.0
2,57.64800000190735,learn,2351.9999980926514,Wed Mar 04 2026 15:45:08 GMT-0600 (Central Standard Time),387947.59999999404,A,rug,O,g,410,1,9480.59999999404,378467.0,7735,WL,A,13.0
2,58.498000144958496,learn,1501.999855041504,Wed Mar 04 2026 15:45:08 GMT-0600 (Central Standard Time),388796.90000000596,A,rugenter,O,enter,838,1,10329.90000000596,378467.0,7735,WL,A,13.0
2,60.015000104904175,learn,-15.000104904174805,Wed Mar 04 2026 15:45:08 GMT-0600 (Central Standard Time),390314.09999999404,A,None,O,None,1512,1,1516.8999999910593,388797.200000003,7735,WL,A,14.0
3,1.4500000476837158,learn,58549.999952316284,Wed Mar 04 2026 15:45:08 GMT-0600 (Central Standard Time),462091.799999997,A,g,O,g,1432,1,1449.2999999970198,460642.5,7735,WL,A,1.0
3,1.632000207901001,learn,58367.999792099,Wed Mar 04 2026 15:45:08 GMT-0600 (Central Standard Time),462274.09999999404,A,go,O,o,169,1,1631.5999999940395,460642.5,7735,WL,A,1.0
3,1.8500001430511475,learn,58149.99985694885,Wed Mar 04 2026 15:45:08 GMT-0600 (Central Standard Time),462492.0,A,gol,O,l,210,1,1849.5,460642.5,7735,WL,A,1.0
3,2.0320000648498535,learn,57967.99993515015,Wed Mar 04 2026 15:45:08 GMT-0600 (Central Standard Time),462674.0,A,gold,O,d,176,1,2031.5,460642.5,7735,WL,A,1.0
3,2.75,learn,57250.0,Wed Mar 04 2026 15:45:08 GMT-0600 (Central Standard Time),463391.799999997,A,goldenter,O,enter,705,1,2749.2999999970198,460642.5,7735,WL,A,1.0
3,3.2320001125335693,learn,56767.99988746643,Wed Mar 04 2026 15:45:08 GMT-0600 (Central Standard Time),463873.700000003,A,r,O,r,467,1,481.6000000089407,463392.09999999404,7735,WL,A,2.0
3,3.4000000953674316,learn,56599.99990463257,Wed Mar 04 2026 15:45:08 GMT-0600 (Central Standard Time),464041.5,A,ra,O,a,146,1,649.4000000059605,463392.09999999404,7735,WL,A,2.0
3,3.765000104904175,learn,56234.999895095825,Wed Mar 04 2026 15:45:08 GMT-0600 (Central Standard Time),464407.09999999404,A,rat,O,t,346,1,1015.0,463392.09999999404,7735,WL,A,2.0
3,3.9140000343322754,learn,56085.999965667725,Wed Mar 04 2026 15:45:08 GMT-0600 (Central Standard Time),464556.40000000596,A,ratt,O,t,132,1,1164.300000011921,463392.09999999404,7735,WL,A,2.0
3,4.0980000495910645,learn,55901.999950408936,Wed Mar 04 2026 15:45:08 GMT-0600 (Central Standard Time),464740.0,A,rattl,O,l,167,1,1347.9000000059605,463392.09999999404,7735,WL,A,2.0
3,4.180000066757202,learn,55819.9999332428,Wed Mar 04 2026 15:45:08 GMT-0600 (Central Standard Time),464822.09999999404,A,rattle,O,e,70,1,1430.0,463392.09999999404,7735,WL,A,2.0
3,4.498000144958496,learn,55501.999855041504,Wed Mar 04 2026 15:45:08 GMT-0600 (Central Standard Time),465139.59999999404,A,rattleenter,O,enter,301,1,1747.5,463392.09999999404,7735,WL,A,2.0
3,5.164000034332275,learn,54835.999965667725,Wed Mar 04 2026 15:45:08 GMT-0600 (Central Standard Time),465805.700000003,A,m,O,m,648,1,665.7999999970198,465139.90000000596,7735,WL,A,3.0
3,5.2829999923706055,learn,54717.000007629395,Wed Mar 04 2026 15:45:08 GMT-0600 (Central Standard Time),465925.200000003,A,me,O,e,104,1,785.2999999970198,465139.90000000596,7735,WL,A,3.0
3,5.463000059127808,learn,54536.99994087219,Wed Mar 04 2026 15:45:08 GMT-0600 (Central Standard Time),466104.799999997,A,mea,O,a,166,1,964.8999999910593,465139.90000000596,7735,WL,A,3.0
3,5.697000026702881,learn,54302.99997329712,Wed Mar 04 2026 15:45:08 GMT-0600 (Central Standard Time),466338.799999997,A,mead,O,d,227,1,1198.8999999910593,465139.90000000596,7735,WL,A,3.0
3,5.914000034332275,learn,54085.999965667725,Wed Mar 04 2026 15:45:08 GMT-0600 (Central Standard Time),466555.799999997,A,meado,O,o,199,1,1415.8999999910593,465139.90000000596,7735,WL,A,3.0
3,6.180000066757202,learn,53819.9999332428,Wed Mar 04 2026 15:45:08 GMT-0600 (Central Standard Time),466821.700000003,A,meadow,O,w,245,1,1681.7999999970198,465139.90000000596,7735,WL,A,3.0
3,6.813000202178955,learn,53186.999797821045,Wed Mar 04 2026 15:45:08 GMT-0600 (Central Standard Time),467455.299999997,A,meadowenter,O,enter,615,1,2315.3999999910593,465139.90000000596,7735,WL,A,3.0
3,7.328999996185303,learn,52671.0000038147,Wed Mar 04 2026 15:45:08 GMT-0600 (Central Standard Time),467971.09999999404,A,k,O,k,508,1,515.5,467455.59999999404,7735,WL,A,4.0
3,7.46399998664856,learn,52536.00001335144,Wed Mar 04 2026 15:45:08 GMT-0600 (Central Standard Time),468106.09999999404,A,ke,O,e,129,1,650.5,467455.59999999404,7735,WL,A,4.0
3,7.680999994277954,learn,52319.000005722046,Wed Mar 04 2026 15:45:08 GMT-0600 (Central Standard Time),468322.59999999404,A,key,O,y,200,1,867.0,467455.59999999404,7735,WL,A,4.0
3,8.396000146865845,learn,51603.999853134155,Wed Mar 04 2026 15:45:08 GMT-0600 (Central Standard Time),469038.40000000596,A,keyenter,O,enter,705,1,1582.800000011921,467455.59999999404,7735,WL,A,4.0
3,11.028000116348267,learn,48971.99988365173,Wed Mar 04 2026 15:45:08 GMT-0600 (Central Standard Time),471670.299999997,A,b,O,b,2621,1,2631.5999999940395,469038.700000003,7735,WL,A,5.0
3,11.32800006866455,learn,48671.99993133545,Wed Mar 04 2026 15:45:08 GMT-0600 (Central Standard Time),471970.40000000596,A,bo,O,o,286,1,2931.7000000029802,469038.700000003,7735,WL,A,5.0
3,11.463000059127808,learn,48536.99994087219,Wed Mar 04 2026 15:45:08 GMT-0600 (Central Standard Time),472105.5,A,boo,O,o,115,1,3066.7999999970198,469038.700000003,7735,WL,A,5.0
3,11.67900013923645,learn,48320.99986076355,Wed Mar 04 2026 15:45:08 GMT-0600 (Central Standard Time),472321.40000000596,A,book,O,k,201,1,3282.7000000029802,469038.700000003,7735,WL,A,5.0
3,12.327000141143799,learn,47672.9998588562,Wed Mar 04 2026 15:45:08 GMT-0600 (Central Standard Time),472969.200000003,A,bookenter,O,enter,633,1,3930.5,469038.700000003,7735,WL,A,5.0
3,12.878000020980835,learn,47121.999979019165,Wed Mar 04 2026 15:45:08 GMT-0600 (Central Standard Time),473520.40000000596,A,f,O,f,530,1,550.9000000059605,472969.5,7735,WL,A,6.0
3,13.044000148773193,learn,46955.99985122681,Wed Mar 04 2026 15:45:08 GMT-0600 (Central Standard Time),473686.700000003,A,fl,O,l,155,1,717.2000000029802,472969.5,7735,WL,A,6.0
3,13.228000164031982,learn,46771.99983596802,Wed Mar 04 2026 15:45:08 GMT-0600 (Central Standard Time),473871.0,A,flo,O,o,173,1,901.5,472969.5,7735,WL,A,6.0
3,13.327000141143799,learn,46672.9998588562,Wed Mar 04 2026 15:45:08 GMT-0600 (Central Standard Time),473970.0,A,flow,O,w,84,1,1000.5,472969.5,7735,WL,A,6.0
3,13.511000156402588,learn,46488.99984359741,Wed Mar 04 2026 15:45:08 GMT-0600 (Central Standard Time),474153.200000003,A,flowe,O,e,179,1,1183.7000000029802,472969.5,7735,WL,A,6.0
3,13.644000053405762,learn,46355.99994659424,Wed Mar 04 2026 15:45:08 GMT-0600 (Central Standard Time),474287.09999999404,A,flower,O,r,120,1,1317.5999999940395,472969.5,7735,WL,A,6.0
3,14.261000156402588,learn,45738.99984359741,Wed Mar 04 2026 15:45:08 GMT-0600 (Central Standard Time),474903.59999999404,A,flowerenter,O,enter,606,1,1934.0999999940395,472969.5,7735,WL,A,6.0
3,14.76200008392334,learn,45237.99991607666,Wed Mar 04 2026 15:45:08 GMT-0600 (Central Standard Time),475404.799999997,A,c,O,c,495,1,501.0,474903.799999997,7735,WL,A,7.0
3,15.127000093460083,learn,44872.99990653992,Wed Mar 04 2026 15:45:08 GMT-0600 (Central Standard Time),475769.799999997,A,ch,O,h,350,1,866.0,474903.799999997,7735,WL,A,7.0
3,15.279000043869019,learn,44720.99995613098,Wed Mar 04 2026 15:45:08 GMT-0600 (Central Standard Time),475921.200000003,A,chi,O,i,144,1,1017.4000000059605,474903.799999997,7735,WL,A,7.0
3,15.476999998092651,learn,44523.00000190735,Wed Mar 04 2026 15:45:08 GMT-0600 (Central Standard Time),476119.90000000596,A,chim,O,m,178,1,1216.1000000089407,474903.799999997,7735,WL,A,7.0
3,15.695000171661377,learn,44304.99982833862,Wed Mar 04 2026 15:45:08 GMT-0600 (Central Standard Time),476337.59999999404,A,chimn,O,n,211,1,1433.7999999970198,474903.799999997,7735,WL,A,7.0
3,15.827000141143799,learn,44172.9998588562,Wed Mar 04 2026 15:45:08 GMT-0600 (Central Standard Time),476469.200000003,A,chimne,O,e,112,1,1565.4000000059605,474903.799999997,7735,WL,A,7.0
3,15.993000030517578,learn,44006.99996948242,Wed Mar 04 2026 15:45:08 GMT-0600 (Central Standard Time),476635.700000003,A,chimney,O,y,156,1,1731.9000000059605,474903.799999997,7735,WL,A,7.0
3,16.592000007629395,learn,43407.999992370605,Wed Mar 04 2026 15:45:08 GMT-0600 (Central Standard Time),477234.700000003,A,chimneyenter,O,enter,591,1,2330.9000000059605,474903.799999997,7735,WL,A,7.0
3,17.20900011062622,learn,42790.99988937378,Wed Mar 04 2026 15:45:08 GMT-0600 (Central Standard Time),477851.700000003,A,l,O,l,600,1,616.7000000029802,477235.0,7735,WL,A,8.0
3,17.443000078201294,learn,42556.999921798706,Wed Mar 04 2026 15:45:08 GMT-0600 (Central Standard Time),478085.200000003,A,lo,O,o,223,1,850.2000000029802,477235.0,7735,WL,A,8.0
3,17.792999982833862,learn,42207.00001716614,Wed Mar 04 2026 15:45:08 GMT-0600 (Central Standard Time),478435.200000003,A,log,O,g,334,1,1200.2000000029802,477235.0,7735,WL,A,8.0
3,18.392000198364258,learn,41607.99980163574,Wed Mar 04 2026 15:45:08 GMT-0600 (Central Standard Time),479034.700000003,A,logenter,O,enter,578,1,1799.7000000029802,477235.0,7735,WL,A,8.0
3,19.94099998474121,learn,40059.00001525879,Wed Mar 04 2026 15:45:08 GMT-0600 (Central Standard Time),480583.90000000596,A,b,O,b,1537,1,1549.0,479034.90000000596,7735,WL,A,9.0
3,20.308000087738037,learn,39691.99991226196,Wed Mar 04 2026 15:45:08 GMT-0600 (Central Standard Time),480951.0,A,bo,O,o,348,1,1916.0999999940395,479034.90000000596,7735,WL,A,9.0
3,20.442000150680542,learn,39557.99984931946,Wed Mar 04 2026 15:45:08 GMT-0600 (Central Standard Time),481084.700000003,A,boo,O,o,122,1,2049.7999999970198,479034.90000000596,7735,WL,A,9.0
3,20.659000158309937,learn,39340.99984169006,Wed Mar 04 2026 15:45:08 GMT-0600 (Central Standard Time),481301.700000003,A,book,O,k,207,1,2266.7999999970198,479034.90000000596,7735,WL,A,9.0
3,21.342000007629395,learn,38657.999992370605,Wed Mar 04 2026 15:45:08 GMT-0600 (Central Standard Time),481984.299999997,A,bookenter,O,enter,663,1,2949.3999999910593,479034.90000000596,7735,WL,A,9.0
3,21.657999992370605,learn,38342.000007629395,Wed Mar 04 2026 15:45:08 GMT-0600 (Central Standard Time),482300.299999997,A,f,O,f,308,1,315.79999999701977,481984.5,7735,WL,A,10.0
3,21.874000072479248,learn,38125.99992752075,Wed Mar 04 2026 15:45:08 GMT-0600 (Central Standard Time),482516.799999997,A,fl,O,l,199,1,532.2999999970198,481984.5,7735,WL,A,10.0
3,22.075000047683716,learn,37924.999952316284,Wed Mar 04 2026 15:45:08 GMT-0600 (Central Standard Time),482717.90000000596,A,flo,O,o,182,1,733.4000000059605,481984.5,7735,WL,A,10.0
3,22.175000190734863,learn,37824.99980926514,Wed Mar 04 2026 15:45:08 GMT-0600 (Central Standard Time),482817.200000003,A,flow,O,w,84,1,832.7000000029802,481984.5,7735,WL,A,10.0
3,22.374000072479248,learn,37625.99992752075,Wed Mar 04 2026 15:45:08 GMT-0600 (Central Standard Time),483016.59999999404,A,flowe,O,e,193,1,1032.0999999940395,481984.5,7735,WL,A,10.0
3,22.576000213623047,learn,37423.99978637695,Wed Mar 04 2026 15:45:08 GMT-0600 (Central Standard Time),483218.700000003,A,flower,O,r,195,1,1234.2000000029802,481984.5,7735,WL,A,10.0
3,23.175000190734863,learn,36824.99980926514,Wed Mar 04 2026 15:45:08 GMT-0600 (Central Standard Time),483817.90000000596,A,flowerenter,O,enter,593,1,1833.4000000059605,481984.5,7735,WL,A,10.0
3,30.9060001373291,learn,29093.9998626709,Wed Mar 04 2026 15:45:08 GMT-0600 (Central Standard Time),491548.799999997,A,c,O,c,7713,1,7730.5999999940395,483818.200000003,7735,WL,A,11.0
3,31.17200016975403,learn,28827.99983024597,Wed Mar 04 2026 15:45:08 GMT-0600 (Central Standard Time),491814.5,A,ch,O,h,254,1,7996.29999999702,483818.200000003,7735,WL,A,11.0
3,31.4060001373291,learn,28593.9998626709,Wed Mar 04 2026 15:45:08 GMT-0600 (Central Standard Time),492048.299999997,A,chi,O,i,212,1,8230.09999999404,483818.200000003,7735,WL,A,11.0
3,31.621000051498413,learn,28378.999948501587,Wed Mar 04 2026 15:45:08 GMT-0600 (Central Standard Time),492263.5,A,chim,O,m,195,1,8445.29999999702,483818.200000003,7735,WL,A,11.0
3,31.83899998664856,learn,28161.00001335144,Wed Mar 04 2026 15:45:08 GMT-0600 (Central Standard Time),492481.90000000596,A,chimn,O,n,212,1,8663.70000000298,483818.200000003,7735,WL,A,11.0
3,32.00600004196167,learn,27993.99995803833,Wed Mar 04 2026 15:45:08 GMT-0600 (Central Standard Time),492648.299999997,A,chimne,O,e,144,1,8830.09999999404,483818.200000003,7735,WL,A,11.0
3,32.1710000038147,learn,27828.999996185303,Wed Mar 04 2026 15:45:08 GMT-0600 (Central Standard Time),492814.09999999404,A,chimney,O,y,146,1,8995.89999999106,483818.200000003,7735,WL,A,11.0
3,33.0220000743866,learn,26977.999925613403,Wed Mar 04 2026 15:45:08 GMT-0600 (Central Standard Time),493664.799999997,A,chimneyenter,O,enter,844,1,9846.59999999404,483818.200000003,7735,WL,A,11.0
3,39.69099998474121,learn,20309.00001525879,Wed Mar 04 2026 15:45:08 GMT-0600 (Central Standard Time),500333.200000003,A,b,O,b,6651,1,6668.20000000298,493665.0,7735,WL,A,12.0
3,39.96900010108948,learn,20030.999898910522,Wed Mar 04 2026 15:45:08 GMT-0600 (Central Standard Time),500611.5,A,bu,O,u,271,1,6946.5,493665.0,7735,WL,A,12.0
3,40.271000146865845,learn,19728.999853134155,Wed Mar 04 2026 15:45:08 GMT-0600 (Central Standard Time),500913.799999997,A,but,O,t,281,1,7248.79999999702,493665.0,7735,WL,A,12.0
3,40.38600015640259,learn,19613.999843597412,Wed Mar 04 2026 15:45:08 GMT-0600 (Central Standard Time),501028.40000000596,A,butt,O,t,97,1,7363.4000000059605,493665.0,7735,WL,A,12.0
3,40.569000005722046,learn,19430.999994277954,Wed Mar 04 2026 15:45:08 GMT-0600 (Central Standard Time),501211.90000000596,A,butto,O,o,165,1,7546.9000000059605,493665.0,7735,WL,A,12.0
3,40.718000173568726,learn,19281.999826431274,Wed Mar 04 2026 15:45:08 GMT-0600 (Central Standard Time),501360.59999999404,A,button,O,n,141,1,7695.5999999940395,493665.0,7735,WL,A,12.0
3,41.43400001525879,learn,18565.99998474121,Wed Mar 04 2026 15:45:08 GMT-0600 (Central Standard Time),502077.0,A,buttonenter,O,enter,700,1,8412.0,493665.0,7735,WL,A,12.0
3,41.97000002861023,learn,18029.99997138977,Wed Mar 04 2026 15:45:08 GMT-0600 (Central Standard Time),502612.299999997,A,f,O,f,530,1,535.0,502077.299999997,7735,WL,A,13.0
3,42.068000078201294,learn,17931.999921798706,Wed Mar 04 2026 15:45:08 GMT-0600 (Central Standard Time),502710.90000000596,A,fi,O,i,78,1,633.6000000089407,502077.299999997,7735,WL,A,13.0
3,42.218000173568726,learn,17781.999826431274,Wed Mar 04 2026 15:45:08 GMT-0600 (Central Standard Time),502861.0,A,fin,O,n,132,1,783.7000000029802,502077.299999997,7735,WL,A,13.0
3,42.4520001411438,learn,17547.9998588562,Wed Mar 04 2026 15:45:08 GMT-0600 (Central Standard Time),503094.299999997,A,fing,O,g,215,1,1017.0,502077.299999997,7735,WL,A,13.0
3,42.63499999046326,learn,17365.000009536743,Wed Mar 04 2026 15:45:08 GMT-0600 (Central Standard Time),503277.5,A,finge,O,e,164,1,1200.2000000029802,502077.299999997,7735,WL,A,13.0
3,42.75200009346008,learn,17247.999906539917,Wed Mar 04 2026 15:45:08 GMT-0600 (Central Standard Time),503394.40000000596,A,finger,O,r,111,1,1317.1000000089407,502077.299999997,7735,WL,A,13.0
3,43.450000047683716,learn,16549.999952316284,Wed Mar 04 2026 15:45:08 GMT-0600 (Central Standard Time),504092.700000003,A,fingerenter,O,enter,683,1,2015.4000000059605,502077.299999997,7735,WL,A,13.0
3,47.66700005531311,learn,12332.99994468689,Wed Mar 04 2026 15:45:08 GMT-0600 (Central Standard Time),508309.799999997,A,t,O,t,4207,1,4216.79999999702,504093.0,7735,WL,A,14.0
3,47.882000207901,learn,12117.999792098999,Wed Mar 04 2026 15:45:08 GMT-0600 (Central Standard Time),508525.0,A,tr,O,r,205,1,4432.0,504093.0,7735,WL,A,14.0
3,48.032999992370605,learn,11967.000007629395,Wed Mar 04 2026 15:45:08 GMT-0600 (Central Standard Time),508675.59999999404,A,tra,O,a,141,1,4582.5999999940395,504093.0,7735,WL,A,14.0
3,48.217000007629395,learn,11782.999992370605,Wed Mar 04 2026 15:45:08 GMT-0600 (Central Standard Time),508859.200000003,A,trai,O,i,159,1,4766.20000000298,504093.0,7735,WL,A,14.0
3,48.35300016403198,learn,11646.999835968018,Wed Mar 04 2026 15:45:08 GMT-0600 (Central Standard Time),508995.299999997,A,train,O,n,128,1,4902.29999999702,504093.0,7735,WL,A,14.0
3,49.10000014305115,learn,10899.999856948853,Wed Mar 04 2026 15:45:08 GMT-0600 (Central Standard Time),509742.59999999404,A,trainenter,O,enter,725,1,5649.5999999940395,504093.0,7735,WL,A,14.0
3,60.01400017738342,learn,-14.000177383422852,Wed Mar 04 2026 15:45:08 GMT-0600 (Central Standard Time),520656.40000000596,A,None,O,None,10908,1,10913.5,509742.90000000596,7735,WL,A,15.0
4,1.9000000953674316,learn,58099.99990463257,Wed Mar 04 2026 15:45:08 GMT-0600 (Central Standard Time),596930.599999994,A,h,O,h,1892,1,1899.0,595031.599999994,7735,WL,A,1.0
4,2.0339999198913574,learn,57966.00008010864,Wed Mar 04 2026 15:45:08 GMT-0600 (Central Standard Time),597064.5,A,ha,O,a,122,1,2032.9000000059605,595031.599999994,7735,WL,A,1.0
4,2.2839999198913574,learn,57716.00008010864,Wed Mar 04 2026 15:45:08 GMT-0600 (Central Standard Time),597314.400000006,A,har,O,r,243,1,2282.800000011921,595031.599999994,7735,WL,A,1.0
4,2.6010000705718994,learn,57398.9999294281,Wed Mar 04 2026 15:45:08 GMT-0600 (Central Standard Time),597631.400000006,A,harp,O,p,305,1,2599.800000011921,595031.599999994,7735,WL,A,1.0
4,3.4509999752044678,learn,56549.00002479553,Wed Mar 04 2026 15:45:08 GMT-0600 (Central Standard Time),598481.700000003,A,harpenter,O,enter,846,1,3450.1000000089407,595031.599999994,7735,WL,A,1.0
4,3.8989999294281006,learn,56101.0000705719,Wed Mar 04 2026 15:45:08 GMT-0600 (Central Standard Time),598929.5,A,s,O,s,433,1,447.5,598482.0,7735,WL,A,2.0
4,4.049000024795532,learn,55950.99997520447,Wed Mar 04 2026 15:45:08 GMT-0600 (Central Standard Time),599079.900000006,A,sa,O,a,136,1,597.9000000059605,598482.0,7735,WL,A,2.0
4,4.148999929428101,learn,55851.0000705719,Wed Mar 04 2026 15:45:08 GMT-0600 (Central Standard Time),599180.299999997,A,sal,O,l,91,1,698.2999999970198,598482.0,7735,WL,A,2.0
4,4.466000080108643,learn,55533.99991989136,Wed Mar 04 2026 15:45:08 GMT-0600 (Central Standard Time),599497.099999994,A,salt,O,t,304,1,1015.0999999940395,598482.0,7735,WL,A,2.0
4,5.181999921798706,learn,54818.000078201294,Wed Mar 04 2026 15:45:08 GMT-0600 (Central Standard Time),600212.599999994,A,saltenter,O,enter,697,1,1730.5999999940395,598482.0,7735,WL,A,2.0
4,5.4670000076293945,learn,54532.999992370605,Wed Mar 04 2026 15:45:08 GMT-0600 (Central Standard Time),600497.700000003,A,a,O,a,264,1,285.0,600212.700000003,7735,WL,A,3.0
4,5.815999984741211,learn,54184.00001525879,Wed Mar 04 2026 15:45:08 GMT-0600 (Central Standard Time),600846.700000003,A,ap,O,p,328,1,634.0,600212.700000003,7735,WL,A,3.0
4,5.9649999141693115,learn,54035.00008583069,Wed Mar 04 2026 15:45:08 GMT-0600 (Central Standard Time),600996.0,A,app,O,p,131,1,783.2999999970198,600212.700000003,7735,WL,A,3.0
4,6.197999954223633,learn,53802.00004577637,Wed Mar 04 2026 15:45:08 GMT-0600 (Central Standard Time),601229.0,A,appl,O,l,217,1,1016.2999999970198,600212.700000003,7735,WL,A,3.0
4,6.2829999923706055,learn,53717.000007629395,Wed Mar 04 2026 15:45:08 GMT-0600 (Central Standard Time),601313.900000006,A,apple,O,e,79,1,1101.2000000029802,600212.700000003,7735,WL,A,3.0
4,6.898999929428101,learn,53101.0000705719,Wed Mar 04 2026 15:45:08 GMT-0600 (Central Standard Time),601929.900000006,A,appleenter,O,enter,609,1,1717.2000000029802,600212.700000003,7735,WL,A,3.0
4,7.615000009536743,learn,52384.99999046326,Wed Mar 04 2026 15:45:08 GMT-0600 (Central Standard Time),602646.0,A,f,O,f,705,1,715.9000000059605,601930.099999994,7735,WL,A,4.0
4,7.697999954223633,learn,52302.00004577637,Wed Mar 04 2026 15:45:08 GMT-0600 (Central Standard Time),602728.700000003,A,fi,O,i,68,1,798.6000000089407,601930.099999994,7735,WL,A,4.0
4,7.79800009727478,learn,52201.99990272522,Wed Mar 04 2026 15:45:08 GMT-0600 (Central Standard Time),602828.799999997,A,fin,O,n,92,1,898.7000000029802,601930.099999994,7735,WL,A,4.0
4,8.04800009727478,learn,51951.99990272522,Wed Mar 04 2026 15:45:08 GMT-0600 (Central Standard Time),603078.900000006,A,fing,O,g,239,1,1148.800000011921,601930.099999994,7735,WL,A,4.0
4,8.21399998664856,learn,51786.00001335144,Wed Mar 04 2026 15:45:08 GMT-0600 (Central Standard Time),603244.400000006,A,finge,O,e,154,1,1314.300000011921,601930.099999994,7735,WL,A,4.0
4,8.364000082015991,learn,51635.99991798401,Wed Mar 04 2026 15:45:08 GMT-0600 (Central Standard Time),603395.299999997,A,finger,O,r,144,1,1465.2000000029802,601930.099999994,7735,WL,A,4.0
4,8.914000034332275,learn,51085.999965667725,Wed Mar 04 2026 15:45:08 GMT-0600 (Central Standard Time),603945.0,A,fingerenter,O,enter,536,1,2014.9000000059605,601930.099999994,7735,WL,A,4.0
4,10.46399998664856,learn,49536.00001335144,Wed Mar 04 2026 15:45:08 GMT-0600 (Central Standard Time),605495.0,A,b,O,b,1538,1,1549.7999999970198,603945.200000003,7735,WL,A,5.0
4,10.680999994277954,learn,49319.000005722046,Wed Mar 04 2026 15:45:08 GMT-0600 (Central Standard Time),605711.799999997,A,bo,O,o,197,1,1766.5999999940395,603945.200000003,7735,WL,A,5.0
4,10.814000129699707,learn,49185.99987030029,Wed Mar 04 2026 15:45:08 GMT-0600 (Central Standard Time),605845.0,A,boo,O,o,113,1,1899.7999999970198,603945.200000003,7735,WL,A,5.0
4,11.013999938964844,learn,48986.000061035156,Wed Mar 04 2026 15:45:08 GMT-0600 (Central Standard Time),606044.900000006,A,book,O,k,191,1,2099.7000000029802,603945.200000003,7735,WL,A,5.0
4,11.663000106811523,learn,48336.99989318848,Wed Mar 04 2026 15:45:08 GMT-0600 (Central Standard Time),606694.099999994,A,bookenter,O,enter,639,1,2748.8999999910593,603945.200000003,7735,WL,A,5.0
4,12.535000085830688,learn,47464.99991416931,Wed Mar 04 2026 15:45:08 GMT-0600 (Central Standard Time),607565.400000006,A,f,O,f,852,1,871.1000000089407,606694.299999997,7735,WL,A,6.0
4,12.666000127792358,learn,47333.99987220764,Wed Mar 04 2026 15:45:08 GMT-0600 (Central Standard Time),607696.799999997,A,fl,O,l,118,1,1002.5,606694.299999997,7735,WL,A,6.0
4,12.880000114440918,learn,47119.99988555908,Wed Mar 04 2026 15:45:08 GMT-0600 (Central Standard Time),607910.5,A,flo,O,o,203,1,1216.2000000029802,606694.299999997,7735,WL,A,6.0
4,12.928999900817871,learn,47071.00009918213,Wed Mar 04 2026 15:45:08 GMT-0600 (Central Standard Time),607960.0,A,flow,O,w,44,1,1265.7000000029802,606694.299999997,7735,WL,A,6.0
4,13.213000059127808,learn,46786.99994087219,Wed Mar 04 2026 15:45:08 GMT-0600 (Central Standard Time),608244.099999994,A,flowe,O,e,264,1,1549.7999999970198,606694.299999997,7735,WL,A,6.0
4,13.380000114440918,learn,46619.99988555908,Wed Mar 04 2026 15:45:08 GMT-0600 (Central Standard Time),608410.700000003,A,flower,O,r,160,1,1716.4000000059605,606694.299999997,7735,WL,A,6.0
4,14.062000036239624,learn,45937.999963760376,Wed Mar 04 2026 15:45:08 GMT-0600 (Central Standard Time),609092.799999997,A,flowerenter,O,enter,663,1,2398.5,606694.299999997,7735,WL,A,6.0
4,14.696000099182129,learn,45303.99990081787,Wed Mar 04 2026 15:45:08 GMT-0600 (Central Standard Time),609726.799999997,A,m,O,m,622,1,633.7999999970198,609093.0,7735,WL,A,7.0
4,14.845999956130981,learn,45154.00004386902,Wed Mar 04 2026 15:45:08 GMT-0600 (Central Standard Time),609876.299999997,A,me,O,e,141,1,783.2999999970198,609093.0,7735,WL,A,7.0
4,14.996999979019165,learn,45003.000020980835,Wed Mar 04 2026 15:45:08 GMT-0600 (Central Standard Time),610027.400000006,A,mea,O,a,146,1,934.4000000059605,609093.0,7735,WL,A,7.0
4,15.23200011253357,learn,44767.99988746643,Wed Mar 04 2026 15:45:08 GMT-0600 (Central Standard Time),610262.900000006,A,mead,O,d,223,1,1169.9000000059605,609093.0,7735,WL,A,7.0
4,15.395999908447266,learn,44604.000091552734,Wed Mar 04 2026 15:45:08 GMT-0600 (Central Standard Time),610426.400000006,A,meado,O,o,149,1,1333.4000000059605,609093.0,7735,WL,A,7.0
4,15.495000123977661,learn,44504.99987602234,Wed Mar 04 2026 15:45:08 GMT-0600 (Central Standard Time),610525.799999997,A,meadow,O,w,89,1,1432.7999999970198,609093.0,7735,WL,A,7.0
4,16.26099991798401,learn,43739.00008201599,Wed Mar 04 2026 15:45:08 GMT-0600 (Central Standard Time),611291.900000006,A,meadowenter,O,enter,748,1,2198.9000000059605,609093.0,7735,WL,A,7.0
4,17.378999948501587,learn,42621.00005149841,Wed Mar 04 2026 15:45:08 GMT-0600 (Central Standard Time),612410.099999994,A,t,O,t,1104,1,1117.8999999910593,611292.200000003,7735,WL,A,8.0
4,17.61299991607666,learn,42387.00008392334,Wed Mar 04 2026 15:45:08 GMT-0600 (Central Standard Time),612643.5,A,tr,O,r,226,1,1351.2999999970198,611292.200000003,7735,WL,A,8.0
4,17.77900004386902,learn,42220.99995613098,Wed Mar 04 2026 15:45:08 GMT-0600 (Central Standard Time),612809.5,A,tra,O,a,145,1,1517.2999999970198,611292.200000003,7735,WL,A,8.0
4,17.944999933242798,learn,42055.0000667572,Wed Mar 04 2026 15:45:08 GMT-0600 (Central Standard Time),612976.099999994,A,trai,O,i,145,1,1683.8999999910593,611292.200000003,7735,WL,A,8.0
4,18.094000101089478,learn,41905.99989891052,Wed Mar 04 2026 15:45:08 GMT-0600 (Central Standard Time),613125.299999997,A,train,O,n,128,1,1833.0999999940395,611292.200000003,7735,WL,A,8.0
4,18.64400005340576,learn,41355.99994659424,Wed Mar 04 2026 15:45:08 GMT-0600 (Central Standard Time),613674.900000006,A,trainenter,O,enter,542,1,2382.7000000029802,611292.200000003,7735,WL,A,8.0
4,19.229000091552734,learn,40770.999908447266,Wed Mar 04 2026 15:45:08 GMT-0600 (Central Standard Time),614259.400000006,A,k,O,k,578,1,584.2000000029802,613675.200000003,7735,WL,A,9.0
4,19.460999965667725,learn,40539.000034332275,Wed Mar 04 2026 15:45:08 GMT-0600 (Central Standard Time),614491.799999997,A,ke,O,e,216,1,816.5999999940395,613675.200000003,7735,WL,A,9.0
4,19.677000045776367,learn,40322.99995422363,Wed Mar 04 2026 15:45:08 GMT-0600 (Central Standard Time),614708.200000003,A,key,O,y,199,1,1033.0,613675.200000003,7735,WL,A,9.0
4,20.344000101089478,learn,39655.99989891052,Wed Mar 04 2026 15:45:08 GMT-0600 (Central Standard Time),615375.099999994,A,keyenter,O,enter,645,1,1699.8999999910593,613675.200000003,7735,WL,A,9.0
4,20.844000101089478,learn,39155.99989891052,Wed Mar 04 2026 15:45:08 GMT-0600 (Central Standard Time),615874.599999994,A,r,O,r,484,1,499.29999999701977,615375.299999997,7735,WL,A,10.0
4,21.09500002861023,learn,38904.99997138977,Wed Mar 04 2026 15:45:08 GMT-0600 (Central Standard Time),616125.900000006,A,ru,O,u,231,1,750.6000000089407,615375.299999997,7735,WL,A,10.0
4,21.39400005340576,learn,38605.99994659424,Wed Mar 04 2026 15:45:08 GMT-0600 (Central Standard Time),616424.799999997,A,rug,O,g,285,1,1049.5,615375.299999997,7735,WL,A,10.0
4,21.759999990463257,learn,38240.00000953674,Wed Mar 04 2026 15:45:08 GMT-0600 (Central Standard Time),616790.900000006,A,rugenter,O,enter,355,1,1415.6000000089407,615375.299999997,7735,WL,A,10.0
4,22.29200005531311,learn,37707.99994468689,Wed Mar 04 2026 15:45:08 GMT-0600 (Central Standard Time),617322.900000006,A,c,O,c,524,1,531.7000000029802,616791.200000003,7735,WL,A,11.0
4,22.444000005722046,learn,37555.999994277954,Wed Mar 04 2026 15:45:08 GMT-0600 (Central Standard Time),617474.299999997,A,ch,O,h,145,1,683.0999999940395,616791.200000003,7735,WL,A,11.0
4,22.609999895095825,learn,37390.000104904175,Wed Mar 04 2026 15:45:08 GMT-0600 (Central Standard Time),617641.200000003,A,chi,O,i,153,1,850.0,616791.200000003,7735,WL,A,11.0
4,22.793999910354614,learn,37206.000089645386,Wed Mar 04 2026 15:45:08 GMT-0600 (Central Standard Time),617824.400000006,A,chim,O,m,172,1,1033.2000000029802,616791.200000003,7735,WL,A,11.0
4,23.05999994277954,learn,36940.00005722046,Wed Mar 04 2026 15:45:08 GMT-0600 (Central Standard Time),618091.0,A,chimn,O,n,251,1,1299.7999999970198,616791.200000003,7735,WL,A,11.0
4,23.176000118255615,learn,36823.999881744385,Wed Mar 04 2026 15:45:08 GMT-0600 (Central Standard Time),618207.200000003,A,chimne,O,e,95,1,1416.0,616791.200000003,7735,WL,A,11.0
4,23.358999967575073,learn,36641.00003242493,Wed Mar 04 2026 15:45:08 GMT-0600 (Central Standard Time),618390.299999997,A,chimney,O,y,163,1,1599.0999999940395,616791.200000003,7735,WL,A,11.0
4,23.89199995994568,learn,36108.00004005432,Wed Mar 04 2026 15:45:08 GMT-0600 (Central Standard Time),618922.299999997,A,chimneyenter,O,enter,523,1,2131.0999999940395,616791.200000003,7735,WL,A,11.0
4,24.377000093460083,learn,35622.99990653992,Wed Mar 04 2026 15:45:08 GMT-0600 (Central Standard Time),619407.700000003,A,l,O,l,467,1,485.20000000298023,618922.5,7735,WL,A,12.0
4,24.592999935150146,learn,35407.00006484985,Wed Mar 04 2026 15:45:08 GMT-0600 (Central Standard Time),619623.900000006,A,lo,O,o,205,1,701.4000000059605,618922.5,7735,WL,A,12.0
4,24.759999990463257,learn,35240.00000953674,Wed Mar 04 2026 15:45:08 GMT-0600 (Central Standard Time),619790.5,A,log,O,g,147,1,868.0,618922.5,7735,WL,A,12.0
4,25.70900011062622,learn,34290.99988937378,Wed Mar 04 2026 15:45:08 GMT-0600 (Central Standard Time),620739.299999997,A,logenter,O,enter,940,1,1816.7999999970198,618922.5,7735,WL,A,12.0
4,32.90700006484985,learn,27092.999935150146,Wed Mar 04 2026 15:45:08 GMT-0600 (Central Standard Time),627937.799999997,A,l,O,l,7185,1,7198.29999999702,620739.5,7735,WL,A,13.0
4,33.121999979019165,learn,26878.000020980835,Wed Mar 04 2026 15:45:08 GMT-0600 (Central Standard Time),628153.200000003,A,lo,O,o,200,1,7413.70000000298,620739.5,7735,WL,A,13.0
4,33.306999921798706,learn,26693.000078201294,Wed Mar 04 2026 15:45:08 GMT-0600 (Central Standard Time),628337.5,A,log,O,g,179,1,7598.0,620739.5,7735,WL,A,13.0
4,33.973000049591064,learn,26026.999950408936,Wed Mar 04 2026 15:45:08 GMT-0600 (Central Standard Time),629003.700000003,A,logenter,O,enter,649,1,8264.20000000298,620739.5,7735,WL,A,13.0
4,34.28999996185303,learn,25710.000038146973,Wed Mar 04 2026 15:45:08 GMT-0600 (Central Standard Time),629320.400000006,A,c,O,c,296,1,316.5,629003.900000006,7735,WL,A,14.0
4,34.50600004196167,learn,25493.99995803833,Wed Mar 04 2026 15:45:08 GMT-0600 (Central Standard Time),629536.700000003,A,ch,O,h,208,1,532.7999999970198,629003.900000006,7735,WL,A,14.0
4,34.759000062942505,learn,25240.999937057495,Wed Mar 04 2026 15:45:08 GMT-0600 (Central Standard Time),629789.5,A,chi,O,i,242,1,785.5999999940395,629003.900000006,7735,WL,A,14.0
4,34.973000049591064,learn,25026.999950408936,Wed Mar 04 2026 15:45:08 GMT-0600 (Central Standard Time),630003.400000006,A,chim,O,m,196,1,999.5,629003.900000006,7735,WL,A,14.0
4,35.223000049591064,learn,24776.999950408936,Wed Mar 04 2026 15:45:08 GMT-0600 (Central Standard Time),630254.0,A,chimn,O,n,239,1,1250.0999999940395,629003.900000006,7735,WL,A,14.0
4,35.34100008010864,learn,24658.999919891357,Wed Mar 04 2026 15:45:08 GMT-0600 (Central Standard Time),630371.5,A,chimne,O,e,111,1,1367.5999999940395,629003.900000006,7735,WL,A,14.0
4,35.539000034332275,learn,24460.999965667725,Wed Mar 04 2026 15:45:08 GMT-0600 (Central Standard Time),630569.799999997,A,chimney,O,y,184,1,1565.8999999910593,629003.900000006,7735,WL,A,14.0
4,36.295000076293945,learn,23704.999923706055,Wed Mar 04 2026 15:45:08 GMT-0600 (Central Standard Time),631325.599999994,A,chimneyenter,O,enter,733,1,2321.699999988079,629003.900000006,7735,WL,A,14.0
4,39.73799991607666,learn,20262.00008392334,Wed Mar 04 2026 15:45:08 GMT-0600 (Central Standard Time),634769.200000003,A,s,O,s,3440,1,3443.2999999970198,631325.900000006,7735,WL,A,15.0
4,39.93900012969971,learn,20060.999870300293,Wed Mar 04 2026 15:45:08 GMT-0600 (Central Standard Time),634969.5,A,sa,O,a,177,1,3643.5999999940395,631325.900000006,7735,WL,A,15.0
4,40.07200002670288,learn,19927.99997329712,Wed Mar 04 2026 15:45:08 GMT-0600 (Central Standard Time),635102.400000006,A,sal,O,l,120,1,3776.5,631325.900000006,7735,WL,A,15.0
4,40.30399990081787,learn,19696.00009918213,Wed Mar 04 2026 15:45:08 GMT-0600 (Central Standard Time),635335.0,A,salt,O,t,219,1,4009.0999999940395,631325.900000006,7735,WL,A,15.0
4,41.15400004386902,learn,18845.99995613098,Wed Mar 04 2026 15:45:08 GMT-0600 (Central Standard Time),636184.599999994,A,saltenter,O,enter,835,1,4858.699999988079,631325.900000006,7735,WL,A,15.0
5,0.6659998893737793,learn,60000.0,Wed Mar 04 2026 15:45:08 GMT-0600 (Central Standard Time),710828.599999994,A,h,O,h,661,1,666.6999999880791,710161.900000006,7735,WL,A,1.0
5,0.7669999599456787,learn,60000.0,Wed Mar 04 2026 15:45:08 GMT-0600 (Central Standard Time),710928.900000006,A,ha,O,a,79,1,767.0,710161.900000006,7735,WL,A,1.0
5,1.0329999923706055,learn,60000.0,Wed Mar 04 2026 15:45:08 GMT-0600 (Central Standard Time),711195.299999997,A,har,O,r,261,1,1033.3999999910593,710161.900000006,7735,WL,A,1.0
5,1.3989999294281006,learn,60000.0,Wed Mar 04 2026 15:45:08 GMT-0600 (Central Standard Time),711561.0,A,harp,O,p,360,1,1399.0999999940395,710161.900000006,7735,WL,A,1.0
5,2.232999801635742,learn,60000.0,Wed Mar 04 2026 15:45:08 GMT-0600 (Central Standard Time),712395.5,A,harpenter,O,enter,813,1,2233.5999999940395,710161.900000006,7735,WL,A,1.0
5,2.6649999618530273,learn,60000.0,Wed Mar 04 2026 15:45:08 GMT-0600 (Central Standard Time),712826.900000006,A,s,O,s,425,1,431.1000000089407,712395.799999997,7735,WL,A,2.0
5,2.8320000171661377,learn,60000.0,Wed Mar 04 2026 15:45:08 GMT-0600 (Central Standard Time),712994.299999997,A,sa,O,a,153,1,598.5,712395.799999997,7735,WL,A,2.0
5,2.930999994277954,learn,60000.0,Wed Mar 04 2026 15:45:08 GMT-0600 (Central Standard Time),713092.900000006,A,sal,O,l,91,1,697.1000000089407,712395.799999997,7735,WL,A,2.0
5,3.1659998893737793,learn,60000.0,Wed Mar 04 2026 15:45:08 GMT-0600 (Central Standard Time),713328.099999994,A,salt,O,t,225,1,932.2999999970198,712395.799999997,7735,WL,A,2.0
5,3.796999931335449,learn,60000.0,Wed Mar 04 2026 15:45:08 GMT-0600 (Central Standard Time),713959.099999994,A,saltenter,O,enter,620,1,1563.2999999970198,712395.799999997,7735,WL,A,2.0
5,4.513999938964844,learn,60000.0,Wed Mar 04 2026 15:45:08 GMT-0600 (Central Standard Time),714676.099999994,A,f,O,f,708,1,716.6999999880791,713959.400000006,7735,WL,A,3.0
5,4.598999977111816,learn,60000.0,Wed Mar 04 2026 15:45:08 GMT-0600 (Central Standard Time),714760.700000003,A,fi,O,i,62,1,801.2999999970198,713959.400000006,7735,WL,A,3.0
5,4.71399998664856,learn,60000.0,Wed Mar 04 2026 15:45:08 GMT-0600 (Central Standard Time),714876.599999994,A,fin,O,n,105,1,917.1999999880791,713959.400000006,7735,WL,A,3.0
5,4.914999961853027,learn,60000.0,Wed Mar 04 2026 15:45:08 GMT-0600 (Central Standard Time),715076.599999994,A,fing,O,g,189,1,1117.199999988079,713959.400000006,7735,WL,A,3.0
5,5.098999977111816,learn,60000.0,Wed Mar 04 2026 15:45:08 GMT-0600 (Central Standard Time),715261.0,A,finge,O,e,180,1,1301.5999999940395,713959.400000006,7735,WL,A,3.0
5,5.263999938964844,learn,60000.0,Wed Mar 04 2026 15:45:08 GMT-0600 (Central Standard Time),715426.5,A,finger,O,r,150,1,1467.0999999940395,713959.400000006,7735,WL,A,3.0
5,5.96399998664856,learn,60000.0,Wed Mar 04 2026 15:45:08 GMT-0600 (Central Standard Time),716126.400000006,A,fingerenter,O,enter,687,1,2167.0,713959.400000006,7735,WL,A,3.0
5,6.414999961853027,learn,60000.0,Wed Mar 04 2026 15:45:08 GMT-0600 (Central Standard Time),716577.0,A,g,O,g,445,1,450.40000000596046,716126.599999994,7735,WL,A,4.0
5,6.5309998989105225,learn,60000.0,Wed Mar 04 2026 15:45:08 GMT-0600 (Central Standard Time),716692.900000006,A,go,O,o,106,1,566.3000000119209,716126.599999994,7735,WL,A,4.0
5,6.729999780654907,learn,60000.0,Wed Mar 04 2026 15:45:08 GMT-0600 (Central Standard Time),716892.299999997,A,gol,O,l,181,1,765.7000000029802,716126.599999994,7735,WL,A,4.0
5,6.879999876022339,learn,60000.0,Wed Mar 04 2026 15:45:08 GMT-0600 (Central Standard Time),717041.799999997,A,gold,O,d,135,1,915.2000000029802,716126.599999994,7735,WL,A,4.0
5,7.579999923706055,learn,60000.0,Wed Mar 04 2026 15:45:08 GMT-0600 (Central Standard Time),717742.5,A,goldenter,O,enter,689,1,1615.9000000059605,716126.599999994,7735,WL,A,4.0
5,8.047999858856201,learn,60000.0,Wed Mar 04 2026 15:45:08 GMT-0600 (Central Standard Time),718210.099999994,A,b,O,b,463,1,467.3999999910593,717742.700000003,7735,WL,A,5.0
5,8.29699993133545,learn,60000.0,Wed Mar 04 2026 15:45:08 GMT-0600 (Central Standard Time),718459.299999997,A,bo,O,o,232,1,716.5999999940395,717742.700000003,7735,WL,A,5.0
5,8.428999900817871,learn,60000.0,Wed Mar 04 2026 15:45:08 GMT-0600 (Central Standard Time),718591.5,A,boo,O,o,118,1,848.7999999970198,717742.700000003,7735,WL,A,5.0
5,8.646999835968018,learn,60000.0,Wed Mar 04 2026 15:45:08 GMT-0600 (Central Standard Time),718809.5,A,book,O,k,204,1,1066.7999999970198,717742.700000003,7735,WL,A,5.0
5,9.313999891281128,learn,60000.0,Wed Mar 04 2026 15:45:08 GMT-0600 (Central Standard Time),719475.700000003,A,bookenter,O,enter,644,1,1733.0,717742.700000003,7735,WL,A,5.0
5,9.879999876022339,learn,60000.0,Wed Mar 04 2026 15:45:08 GMT-0600 (Central Standard Time),720042.200000003,A,f,O,f,551,1,566.2000000029802,719476.0,7735,WL,A,6.0
5,9.995999813079834,learn,60000.0,Wed Mar 04 2026 15:45:08 GMT-0600 (Central Standard Time),720157.799999997,A,fl,O,l,103,1,681.7999999970198,719476.0,7735,WL,A,6.0
5,10.179999828338623,learn,60000.0,Wed Mar 04 2026 15:45:08 GMT-0600 (Central Standard Time),720341.799999997,A,flo,O,o,163,1,865.7999999970198,719476.0,7735,WL,A,6.0
5,10.263999938964844,learn,60000.0,Wed Mar 04 2026 15:45:08 GMT-0600 (Central Standard Time),720425.599999994,A,flow,O,w,59,1,949.5999999940395,719476.0,7735,WL,A,6.0
5,10.446999788284302,learn,60000.0,Wed Mar 04 2026 15:45:08 GMT-0600 (Central Standard Time),720608.799999997,A,flowe,O,e,168,1,1132.7999999970198,719476.0,7735,WL,A,6.0
5,10.578999996185303,learn,60000.0,Wed Mar 04 2026 15:45:08 GMT-0600 (Central Standard Time),720741.0,A,flower,O,r,122,1,1265.0,719476.0,7735,WL,A,6.0
5,11.161999940872192,learn,60000.0,Wed Mar 04 2026 15:45:08 GMT-0600 (Central Standard Time),721324.0,A,flowerenter,O,enter,565,1,1848.0,719476.0,7735,WL,A,6.0
5,11.679999828338623,learn,60000.0,Wed Mar 04 2026 15:45:08 GMT-0600 (Central Standard Time),721842.200000003,A,m,O,m,511,1,517.9000000059605,721324.299999997,7735,WL,A,7.0
5,11.827999830245972,learn,60000.0,Wed Mar 04 2026 15:45:08 GMT-0600 (Central Standard Time),721990.400000006,A,me,O,e,136,1,666.1000000089407,721324.299999997,7735,WL,A,7.0
5,11.994999885559082,learn,60000.0,Wed Mar 04 2026 15:45:08 GMT-0600 (Central Standard Time),722157.200000003,A,mea,O,a,150,1,832.9000000059605,721324.299999997,7735,WL,A,7.0
5,12.228999853134155,learn,60000.0,Wed Mar 04 2026 15:45:08 GMT-0600 (Central Standard Time),722390.900000006,A,mead,O,d,220,1,1066.6000000089407,721324.299999997,7735,WL,A,7.0
5,12.394999980926514,learn,60000.0,Wed Mar 04 2026 15:45:08 GMT-0600 (Central Standard Time),722557.5,A,meado,O,o,156,1,1233.2000000029802,721324.299999997,7735,WL,A,7.0
5,12.479999780654907,learn,60000.0,Wed Mar 04 2026 15:45:08 GMT-0600 (Central Standard Time),722642.099999994,A,meadow,O,w,71,1,1317.7999999970198,721324.299999997,7735,WL,A,7.0
5,13.263000011444092,learn,60000.0,Wed Mar 04 2026 15:45:08 GMT-0600 (Central Standard Time),723424.900000006,A,meadowenter,O,enter,766,1,2100.6000000089407,721324.299999997,7735,WL,A,7.0
5,13.86299991607666,learn,60000.0,Wed Mar 04 2026 15:45:08 GMT-0600 (Central Standard Time),724025.299999997,A,r,O,r,579,1,600.2000000029802,723425.099999994,7735,WL,A,8.0
5,14.01199984550476,learn,60000.0,Wed Mar 04 2026 15:45:08 GMT-0600 (Central Standard Time),724173.700000003,A,ru,O,u,131,1,748.6000000089407,723425.099999994,7735,WL,A,8.0
5,14.245999813079834,learn,60000.0,Wed Mar 04 2026 15:45:08 GMT-0600 (Central Standard Time),724408.400000006,A,rug,O,g,213,1,983.3000000119209,723425.099999994,7735,WL,A,8.0
5,14.958999872207642,learn,60000.0,Wed Mar 04 2026 15:45:08 GMT-0600 (Central Standard Time),725121.599999994,A,rugenter,O,enter,698,1,1696.5,723425.099999994,7735,WL,A,8.0
5,15.893999814987183,learn,60000.0,Wed Mar 04 2026 15:45:08 GMT-0600 (Central Standard Time),726055.799999997,A,c,O,c,921,1,934.0,725121.799999997,7735,WL,A,9.0
5,16.027999877929688,learn,60000.0,Wed Mar 04 2026 15:45:08 GMT-0600 (Central Standard Time),726190.099999994,A,ch,O,h,122,1,1068.2999999970198,725121.799999997,7735,WL,A,9.0
5,16.210999965667725,learn,60000.0,Wed Mar 04 2026 15:45:08 GMT-0600 (Central Standard Time),726373.200000003,A,chi,O,i,164,1,1251.4000000059605,725121.799999997,7735,WL,A,9.0
5,16.394999980926514,learn,60000.0,Wed Mar 04 2026 15:45:08 GMT-0600 (Central Standard Time),726556.599999994,A,chim,O,m,165,1,1434.7999999970198,725121.799999997,7735,WL,A,9.0
5,16.626999855041504,learn,60000.0,Wed Mar 04 2026 15:45:08 GMT-0600 (Central Standard Time),726789.400000006,A,chimn,O,n,214,1,1667.6000000089407,725121.799999997,7735,WL,A,9.0
5,16.777999877929688,learn,60000.0,Wed Mar 04 2026 15:45:08 GMT-0600 (Central Standard Time),726940.400000006,A,chimne,O,e,132,1,1818.6000000089407,725121.799999997,7735,WL,A,9.0
5,16.944000005722046,learn,60000.0,Wed Mar 04 2026 15:45:08 GMT-0600 (Central Standard Time),727105.599999994,A,chimney,O,y,149,1,1983.7999999970198,725121.799999997,7735,WL,A,9.0
5,17.5939998626709,learn,60000.0,Wed Mar 04 2026 15:45:08 GMT-0600 (Central Standard Time),727756.400000006,A,chimneyenter,O,enter,633,1,2634.6000000089407,725121.799999997,7735,WL,A,9.0
5,20.676999807357788,learn,60000.0,Wed Mar 04 2026 15:45:08 GMT-0600 (Central Standard Time),730838.700000003,A,b,O,b,3063,1,3082.1000000089407,727756.599999994,7735,WL,A,10.0
5,21.009999990463257,learn,60000.0,Wed Mar 04 2026 15:45:08 GMT-0600 (Central Standard Time),731171.799999997,A,bo,O,o,310,1,3415.2000000029802,727756.599999994,7735,WL,A,10.0
5,21.108999967575073,learn,60000.0,Wed Mar 04 2026 15:45:08 GMT-0600 (Central Standard Time),731271.5,A,boo,O,o,85,1,3514.9000000059605,727756.599999994,7735,WL,A,10.0
5,21.342999935150146,learn,60000.0,Wed Mar 04 2026 15:45:08 GMT-0600 (Central Standard Time),731505.299999997,A,book,O,k,220,1,3748.7000000029802,727756.599999994,7735,WL,A,10.0
5,21.95899987220764,learn,60000.0,Wed Mar 04 2026 15:45:08 GMT-0600 (Central Standard Time),732121.099999994,A,bookenter,O,enter,593,1,4364.5,727756.599999994,7735,WL,A,10.0
5,22.360999822616577,learn,60000.0,Wed Mar 04 2026 15:45:08 GMT-0600 (Central Standard Time),732522.799999997,A,f,O,f,397,1,401.3999999910593,732121.400000006,7735,WL,A,11.0
5,22.51099991798401,learn,60000.0,Wed Mar 04 2026 15:45:08 GMT-0600 (Central Standard Time),732673.400000006,A,fl,O,l,127,1,552.0,732121.400000006,7735,WL,A,11.0
5,22.70899987220764,learn,60000.0,Wed Mar 04 2026 15:45:08 GMT-0600 (Central Standard Time),732871.099999994,A,flo,O,o,176,1,749.6999999880791,732121.400000006,7735,WL,A,11.0
5,22.79099988937378,learn,60000.0,Wed Mar 04 2026 15:45:08 GMT-0600 (Central Standard Time),732953.299999997,A,flow,O,w,67,1,831.8999999910593,732121.400000006,7735,WL,A,11.0
5,23.241999864578247,learn,60000.0,Wed Mar 04 2026 15:45:08 GMT-0600 (Central Standard Time),733404.0,A,flowe,O,e,429,1,1282.5999999940395,732121.400000006,7735,WL,A,11.0
5,23.408999919891357,learn,60000.0,Wed Mar 04 2026 15:45:08 GMT-0600 (Central Standard Time),733571.099999994,A,flower,O,r,160,1,1449.699999988079,732121.400000006,7735,WL,A,11.0
5,23.990999937057495,learn,60000.0,Wed Mar 04 2026 15:45:08 GMT-0600 (Central Standard Time),734152.900000006,A,flowerenter,O,enter,576,1,2031.5,732121.400000006,7735,WL,A,11.0
5,24.55999994277954,learn,60000.0,Wed Mar 04 2026 15:45:08 GMT-0600 (Central Standard Time),734722.200000003,A,t,O,t,565,1,569.1000000089407,734153.099999994,7735,WL,A,12.0
5,24.79199981689453,learn,60000.0,Wed Mar 04 2026 15:45:08 GMT-0600 (Central Standard Time),734953.700000003,A,tr,O,r,217,1,800.6000000089407,734153.099999994,7735,WL,A,12.0
5,24.94099998474121,learn,60000.0,Wed Mar 04 2026 15:45:08 GMT-0600 (Central Standard Time),735103.200000003,A,tra,O,a,136,1,950.1000000089407,734153.099999994,7735,WL,A,12.0
5,25.107999801635742,learn,60000.0,Wed Mar 04 2026 15:45:08 GMT-0600 (Central Standard Time),735270.400000006,A,trai,O,i,155,1,1117.300000011921,734153.099999994,7735,WL,A,12.0
5,25.257999897003174,learn,60000.0,Wed Mar 04 2026 15:45:08 GMT-0600 (Central Standard Time),735420.200000003,A,train,O,n,133,1,1267.1000000089407,734153.099999994,7735,WL,A,12.0
5,25.806999921798706,learn,60000.0,Wed Mar 04 2026 15:45:08 GMT-0600 (Central Standard Time),735969.400000006,A,trainenter,O,enter,533,1,1816.300000011921,734153.099999994,7735,WL,A,12.0
5,26.357999801635742,learn,60000.0,Wed Mar 04 2026 15:45:08 GMT-0600 (Central Standard Time),736520.5,A,m,O,m,538,1,550.9000000059605,735969.599999994,7735,WL,A,13.0
5,26.472999811172485,learn,60000.0,Wed Mar 04 2026 15:45:08 GMT-0600 (Central Standard Time),736635.400000006,A,me,O,e,97,1,665.8000000119209,735969.599999994,7735,WL,A,13.0
5,26.592000007629395,learn,60000.0,Wed Mar 04 2026 15:45:08 GMT-0600 (Central Standard Time),736754.200000003,A,mea,O,a,112,1,784.6000000089407,735969.599999994,7735,WL,A,13.0
5,26.80900001525879,learn,60000.0,Wed Mar 04 2026 15:45:08 GMT-0600 (Central Standard Time),736971.0,A,mead,O,d,209,1,1001.4000000059605,735969.599999994,7735,WL,A,13.0
5,27.2739999294281,learn,60000.0,Wed Mar 04 2026 15:45:08 GMT-0600 (Central Standard Time),737435.900000006,A,meado,O,o,455,1,1466.300000011921,735969.599999994,7735,WL,A,13.0
5,28.807999849319458,learn,60000.0,Wed Mar 04 2026 15:45:08 GMT-0600 (Central Standard Time),738970.200000003,A,meadow,O,w,1527,1,3000.6000000089407,735969.599999994,7735,WL,A,13.0
5,29.58799982070923,learn,60000.0,Wed Mar 04 2026 15:45:08 GMT-0600 (Central Standard Time),739750.099999994,A,meadowenter,O,enter,767,1,3780.5,735969.599999994,7735,WL,A,13.0
5,30.155999898910522,learn,60000.0,Wed Mar 04 2026 15:45:08 GMT-0600 (Central Standard Time),740317.700000003,A,b,O,b,559,1,567.4000000059605,739750.299999997,7735,WL,A,14.0
5,30.35599994659424,learn,60000.0,Wed Mar 04 2026 15:45:08 GMT-0600 (Central Standard Time),740518.200000003,A,bu,O,u,190,1,767.9000000059605,739750.299999997,7735,WL,A,14.0
5,30.721999883651733,learn,60000.0,Wed Mar 04 2026 15:45:08 GMT-0600 (Central Standard Time),740884.299999997,A,but,O,t,348,1,1134.0,739750.299999997,7735,WL,A,14.0
5,30.83899998664856,learn,60000.0,Wed Mar 04 2026 15:45:08 GMT-0600 (Central Standard Time),741001.5,A,butt,O,t,109,1,1251.2000000029802,739750.299999997,7735,WL,A,14.0
5,31.155999898910522,learn,60000.0,Wed Mar 04 2026 15:45:08 GMT-0600 (Central Standard Time),741318.299999997,A,butto,O,o,293,1,1568.0,739750.299999997,7735,WL,A,14.0
5,31.305999994277954,learn,60000.0,Wed Mar 04 2026 15:45:08 GMT-0600 (Central Standard Time),741468.200000003,A,button,O,n,133,1,1717.9000000059605,739750.299999997,7735,WL,A,14.0
5,31.955999851226807,learn,60000.0,Wed Mar 04 2026 15:45:08 GMT-0600 (Central Standard Time),742118.200000003,A,buttonenter,O,enter,630,1,2367.9000000059605,739750.299999997,7735,WL,A,14.0
5,33.97199988365173,learn,60000.0,Wed Mar 04 2026 15:45:08 GMT-0600 (Central Standard Time),744134.400000006,A,k,O,k,1997,1,2016.0,742118.400000006,7735,WL,A,15.0
5,34.10499978065491,learn,60000.0,Wed Mar 04 2026 15:45:08 GMT-0600 (Central Standard Time),744267.200000003,A,ke,O,e,112,1,2148.7999999970198,742118.400000006,7735,WL,A,15.0
5,34.35599994659424,learn,60000.0,Wed Mar 04 2026 15:45:08 GMT-0600 (Central Standard Time),744518.0,A,key,O,y,238,1,2399.5999999940395,742118.400000006,7735,WL,A,15.0
5,35.037999868392944,learn,60000.0,Wed Mar 04 2026 15:45:08 GMT-0600 (Central Standard Time),745199.900000006,A,keyenter,O,enter,659,1,3081.5,742118.400000006,7735,WL,A,15.0
6,1.1339998245239258,distr,58866.000175476074,Wed Mar 04 2026 15:45:08 GMT-0600 (Central Standard Time),830057.099999994,B,p,O,p,1129,1,1134.3999999910593,828922.700000003,7735,WL,A,1.0
6,1.3839998245239258,distr,58616.000175476074,Wed Mar 04 2026 15:45:08 GMT-0600 (Central Standard Time),830306.799999997,B,pe,O,e,244,1,1384.0999999940395,828922.700000003,7735,WL,A,1.0
6,1.5839998722076416,distr,58416.00012779236,Wed Mar 04 2026 15:45:08 GMT-0600 (Central Standard Time),830506.799999997,B,pea,O,a,182,1,1584.0999999940395,828922.700000003,7735,WL,A,1.0
6,1.8509998321533203,distr,58149.00016784668,Wed Mar 04 2026 15:45:08 GMT-0600 (Central Standard Time),830774.0,B,peac,O,c,254,1,1851.2999999970198,828922.700000003,7735,WL,A,1.0
6,2.0,distr,58000.0,Wed Mar 04 2026 15:45:08 GMT-0600 (Central Standard Time),830923.099999994,B,peach,O,h,140,1,2000.3999999910593,828922.700000003,7735,WL,A,1.0
6,2.7679998874664307,distr,57232.00011253357,Wed Mar 04 2026 15:45:08 GMT-0600 (Central Standard Time),831691.0,B,peachenter,O,enter,764,1,2768.2999999970198,828922.700000003,7735,WL,A,1.0
6,3.2659997940063477,distr,56734.00020599365,Wed Mar 04 2026 15:45:08 GMT-0600 (Central Standard Time),832189.599999994,B,c,O,c,482,1,498.3999999910593,831691.200000003,7735,WL,A,2.0
6,3.431999921798706,distr,56568.000078201294,Wed Mar 04 2026 15:45:08 GMT-0600 (Central Standard Time),832355.5,B,ch,O,h,149,1,664.2999999970198,831691.200000003,7735,WL,A,2.0
6,3.565999984741211,distr,56434.00001525879,Wed Mar 04 2026 15:45:08 GMT-0600 (Central Standard Time),832488.799999997,B,cha,O,a,121,1,797.5999999940395,831691.200000003,7735,WL,A,2.0
6,3.682999849319458,distr,56317.00015068054,Wed Mar 04 2026 15:45:08 GMT-0600 (Central Standard Time),832606.099999994,B,chai,O,i,107,1,914.8999999910593,831691.200000003,7735,WL,A,2.0
6,3.883999824523926,distr,56116.000175476074,Wed Mar 04 2026 15:45:08 GMT-0600 (Central Standard Time),832807.099999994,B,chair,O,r,190,1,1115.8999999910593,831691.200000003,7735,WL,A,2.0
6,4.615000009536743,distr,55384.99999046326,Wed Mar 04 2026 15:45:08 GMT-0600 (Central Standard Time),833538.5,B,chairenter,O,enter,726,1,1847.2999999970198,831691.200000003,7735,WL,A,2.0
6,5.031999826431274,distr,54968.000173568726,Wed Mar 04 2026 15:45:08 GMT-0600 (Central Standard Time),833954.900000006,B,b,O,b,409,1,416.20000000298023,833538.700000003,7735,WL,A,3.0
6,5.182999849319458,distr,54817.00015068054,Wed Mar 04 2026 15:45:08 GMT-0600 (Central Standard Time),834106.400000006,B,bo,O,o,138,1,567.7000000029802,833538.700000003,7735,WL,A,3.0
6,5.46399998664856,distr,54536.00001335144,Wed Mar 04 2026 15:45:08 GMT-0600 (Central Standard Time),834387.400000006,B,bol,O,l,265,1,848.7000000029802,833538.700000003,7735,WL,A,3.0
6,5.98199987411499,distr,54018.00012588501,Wed Mar 04 2026 15:45:08 GMT-0600 (Central Standard Time),834904.799999997,B,bo,O,backspace,497,1,1366.0999999940395,833538.700000003,7735,WL,A,3.0
6,6.296999931335449,distr,53703.00006866455,Wed Mar 04 2026 15:45:08 GMT-0600 (Central Standard Time),835220.200000003,B,bot,O,t,298,1,1681.5,833538.700000003,7735,WL,A,3.0
6,6.4649999141693115,distr,53535.00008583069,Wed Mar 04 2026 15:45:08 GMT-0600 (Central Standard Time),835388.599999994,B,bott,O,t,150,1,1849.8999999910593,833538.700000003,7735,WL,A,3.0
6,6.697999954223633,distr,53302.00004577637,Wed Mar 04 2026 15:45:08 GMT-0600 (Central Standard Time),835621.0,B,bottl,O,l,223,1,2082.2999999970198,833538.700000003,7735,WL,A,3.0
6,6.848999977111816,distr,53151.00002288818,Wed Mar 04 2026 15:45:08 GMT-0600 (Central Standard Time),835772.5,B,bottle,O,e,133,1,2233.7999999970198,833538.700000003,7735,WL,A,3.0
6,7.513999938964844,distr,52486.000061035156,Wed Mar 04 2026 15:45:08 GMT-0600 (Central Standard Time),836437.0,B,bottleenter,O,enter,656,1,2898.2999999970198,833538.700000003,7735,WL,A,3.0
6,10.830999851226807,distr,49169.00014877319,Wed Mar 04 2026 15:45:08 GMT-0600 (Central Standard Time),839753.799999997,B,f,O,f,3303,1,3316.5,836437.299999997,7735,WL,A,4.0
6,10.928999900817871,distr,49071.00009918213,Wed Mar 04 2026 15:45:08 GMT-0600 (Central Standard Time),839852.5,B,fi,O,i,78,1,3415.2000000029802,836437.299999997,7735,WL,A,4.0
6,11.078999996185303,distr,48921.0000038147,Wed Mar 04 2026 15:45:08 GMT-0600 (Central Standard Time),840002.299999997,B,fie,O,e,142,1,3565.0,836437.299999997,7735,WL,A,4.0
6,11.495999813079834,distr,48504.000186920166,Wed Mar 04 2026 15:45:08 GMT-0600 (Central Standard Time),840419.099999994,B,fiel,O,l,400,1,3981.7999999970198,836437.299999997,7735,WL,A,4.0
6,11.796000003814697,distr,48203.9999961853,Wed Mar 04 2026 15:45:08 GMT-0600 (Central Standard Time),840719.099999994,B,field,O,d,289,1,4281.79999999702,836437.299999997,7735,WL,A,4.0
6,12.480000019073486,distr,47519.999980926514,Wed Mar 04 2026 15:45:08 GMT-0600 (Central Standard Time),841403.099999994,B,fieldenter,O,enter,669,1,4965.79999999702,836437.299999997,7735,WL,A,4.0
6,18.393999814987183,distr,41606.00018501282,Wed Mar 04 2026 15:45:08 GMT-0600 (Central Standard Time),847317.700000003,B,p,O,p,5898,1,5914.5,841403.200000003,7735,WL,A,5.0
6,18.710999965667725,distr,41289.000034332275,Wed Mar 04 2026 15:45:08 GMT-0600 (Central Standard Time),847634.299999997,B,pe,O,e,301,1,6231.0999999940395,841403.200000003,7735,WL,A,5.0
6,18.8439998626709,distr,41156.0001373291,Wed Mar 04 2026 15:45:08 GMT-0600 (Central Standard Time),847767.5,B,pea,O,a,112,1,6364.29999999702,841403.200000003,7735,WL,A,5.0
6,19.161999940872192,distr,40838.00005912781,Wed Mar 04 2026 15:45:08 GMT-0600 (Central Standard Time),848084.799999997,B,peac,O,c,298,1,6681.5999999940395,841403.200000003,7735,WL,A,5.0
6,19.342999935150146,distr,40657.00006484985,Wed Mar 04 2026 15:45:08 GMT-0600 (Central Standard Time),848266.799999997,B,peach,O,h,173,1,6863.5999999940395,841403.200000003,7735,WL,A,5.0
6,20.210999965667725,distr,39789.000034332275,Wed Mar 04 2026 15:45:08 GMT-0600 (Central Standard Time),849134.400000006,B,peachenter,O,enter,850,1,7731.20000000298,841403.200000003,7735,WL,A,5.0
6,43.40299987792969,distr,16597.000122070312,Wed Mar 04 2026 15:45:08 GMT-0600 (Central Standard Time),872326.0,B,enter,O,enter,23181,1,23191.29999999702,849134.700000003,7735,WL,A,6.0
6,43.63599991798401,distr,16364.000082015991,Wed Mar 04 2026 15:45:08 GMT-0600 (Central Standard Time),872559.0,B,enter,O,enter,221,1,232.59999999403954,872326.400000006,7735,WL,A,7.0
6,43.8529999256134,distr,16147.000074386597,Wed Mar 04 2026 15:45:08 GMT-0600 (Central Standard Time),872776.299999997,B,enter,O,enter,212,1,217.0,872559.299999997,7735,WL,A,8.0
6,44.05299997329712,distr,15947.00002670288,Wed Mar 04 2026 15:45:08 GMT-0600 (Central Standard Time),872975.799999997,B,enter,O,enter,187,1,199.20000000298023,872776.599999994,7735,WL,A,9.0
6,44.23599982261658,distr,15764.000177383423,Wed Mar 04 2026 15:45:08 GMT-0600 (Central Standard Time),873158.799999997,B,enter,O,enter,171,1,182.79999999701977,872976.0,7735,WL,A,10.0
6,44.43899989128113,distr,15561.000108718872,Wed Mar 04 2026 15:45:08 GMT-0600 (Central Standard Time),873362.200000003,B,enter,O,enter,180,1,203.1000000089407,873159.099999994,7735,WL,A,11.0
6,44.60199999809265,distr,15398.000001907349,Wed Mar 04 2026 15:45:08 GMT-0600 (Central Standard Time),873525.700000003,B,enter,O,enter,146,1,163.29999999701977,873362.400000006,7735,WL,A,12.0
6,45.13599991798401,distr,14864.000082015991,Wed Mar 04 2026 15:45:08 GMT-0600 (Central Standard Time),874058.900000006,B,enter,O,enter,517,1,533.0,873525.900000006,7735,WL,A,13.0
6,45.319000005722046,distr,14680.999994277954,Wed Mar 04 2026 15:45:08 GMT-0600 (Central Standard Time),874242.400000006,B,enter,O,enter,178,1,183.30000001192093,874059.099999994,7735,WL,A,14.0
6,45.503000020980835,distr,14496.999979019165,Wed Mar 04 2026 15:45:08 GMT-0600 (Central Standard Time),874426.400000006,B,enter,O,enter,162,1,183.80000001192093,874242.599999994,7735,WL,A,15.0
7,1.2839999198913574,immed,58716.00008010864,Wed Mar 04 2026 15:45:08 GMT-0600 (Central Standard Time),1228396.0,A,b,O,b,1276,1,1283.7000000029802,1227112.299999997,7735,WL,A,1.0
7,1.6670000553131104,immed,58332.99994468689,Wed Mar 04 2026 15:45:08 GMT-0600 (Central Standard Time),1228779.0,A,bo,O,o,375,1,1666.7000000029802,1227112.299999997,7735,WL,A,1.0
7,1.8339998722076416,immed,58166.00012779236,Wed Mar 04 2026 15:45:08 GMT-0600 (Central Standard Time),1228945.400000006,A,boo,O,o,150,1,1833.1000000089407,1227112.299999997,7735,WL,A,1.0
7,2.0490000247955322,immed,57950.99997520447,Wed Mar 04 2026 15:45:08 GMT-0600 (Central Standard Time),1229160.900000006,A,book,O,k,199,1,2048.6000000089407,1227112.299999997,7735,WL,A,1.0
7,2.7170000076293945,immed,57282.999992370605,Wed Mar 04 2026 15:45:08 GMT-0600 (Central Standard Time),1229829.0,A,bookenter,O,enter,652,1,2716.7000000029802,1227112.299999997,7735,WL,A,1.0
7,3.1519999504089355,immed,56848.000049591064,Wed Mar 04 2026 15:45:08 GMT-0600 (Central Standard Time),1230263.5,A,f,O,f,414,1,434.20000000298023,1229829.299999997,7735,WL,A,2.0
7,3.2669999599456787,immed,56733.00004005432,Wed Mar 04 2026 15:45:08 GMT-0600 (Central Standard Time),1230378.599999994,A,fl,O,l,98,1,549.2999999970198,1229829.299999997,7735,WL,A,2.0
7,3.4519999027252197,immed,56548.00009727478,Wed Mar 04 2026 15:45:08 GMT-0600 (Central Standard Time),1230563.5,A,flo,O,o,176,1,734.2000000029802,1229829.299999997,7735,WL,A,2.0
7,3.549999952316284,immed,56450.000047683716,Wed Mar 04 2026 15:45:08 GMT-0600 (Central Standard Time),1230661.599999994,A,flow,O,w,85,1,832.2999999970198,1229829.299999997,7735,WL,A,2.0
7,3.750999927520752,immed,56249.00007247925,Wed Mar 04 2026 15:45:08 GMT-0600 (Central Standard Time),1230862.900000006,A,flowe,O,e,183,1,1033.6000000089407,1229829.299999997,7735,WL,A,2.0
7,3.932999849319458,immed,56067.00015068054,Wed Mar 04 2026 15:45:08 GMT-0600 (Central Standard Time),1231045.200000003,A,flower,O,r,170,1,1215.9000000059605,1229829.299999997,7735,WL,A,2.0
7,4.569999933242798,immed,55430.0000667572,Wed Mar 04 2026 15:45:08 GMT-0600 (Central Standard Time),1231681.099999994,A,flowerenter,O,enter,618,1,1851.7999999970198,1229829.299999997,7735,WL,A,2.0
7,6.450000047683716,immed,53549.999952316284,Wed Mar 04 2026 15:45:08 GMT-0600 (Central Standard Time),1233561.400000006,A,m,O,m,1875,1,1879.9000000059605,1231681.5,7735,WL,A,3.0
7,6.615999937057495,immed,53384.000062942505,Wed Mar 04 2026 15:45:08 GMT-0600 (Central Standard Time),1233727.599999994,A,me,O,e,152,1,2046.0999999940395,1231681.5,7735,WL,A,3.0
7,6.815999984741211,immed,53184.00001525879,Wed Mar 04 2026 15:45:08 GMT-0600 (Central Standard Time),1233927.400000006,A,mea,O,a,185,1,2245.9000000059605,1231681.5,7735,WL,A,3.0
7,7.132999897003174,immed,52867.000102996826,Wed Mar 04 2026 15:45:08 GMT-0600 (Central Standard Time),1234244.5,A,mead,O,d,299,1,2563.0,1231681.5,7735,WL,A,3.0
7,7.299000024795532,immed,52700.99997520447,Wed Mar 04 2026 15:45:08 GMT-0600 (Central Standard Time),1234410.5,A,meado,O,o,160,1,2729.0,1231681.5,7735,WL,A,3.0
7,7.398999929428101,immed,52601.0000705719,Wed Mar 04 2026 15:45:08 GMT-0600 (Central Standard Time),1234510.599999994,A,meadow,O,w,86,1,2829.0999999940395,1231681.5,7735,WL,A,3.0
7,8.249000072479248,immed,51750.99992752075,Wed Mar 04 2026 15:45:08 GMT-0600 (Central Standard Time),1235360.400000006,A,meadowenter,O,enter,843,1,3678.9000000059605,1231681.5,7735,WL,A,3.0
7,9.698999881744385,immed,50301.000118255615,Wed Mar 04 2026 15:45:08 GMT-0600 (Central Standard Time),1236810.799999997,A,r,O,r,1436,1,1450.0999999940395,1235360.700000003,7735,WL,A,4.0
7,9.931999921798706,immed,50068.000078201294,Wed Mar 04 2026 15:45:08 GMT-0600 (Central Standard Time),1237044.099999994,A,ru,O,u,222,1,1683.3999999910593,1235360.700000003,7735,WL,A,4.0
7,10.164999961853027,immed,49835.00003814697,Wed Mar 04 2026 15:45:08 GMT-0600 (Central Standard Time),1237276.599999994,A,rug,O,g,220,1,1915.8999999910593,1235360.700000003,7735,WL,A,4.0
7,10.8989999294281,immed,49101.0000705719,Wed Mar 04 2026 15:45:08 GMT-0600 (Central Standard Time),1238011.0,A,rugenter,O,enter,724,1,2650.2999999970198,1235360.700000003,7735,WL,A,4.0
7,12.065000057220459,immed,47934.99994277954,Wed Mar 04 2026 15:45:08 GMT-0600 (Central Standard Time),1239176.799999997,A,c,O,c,1153,1,1165.2999999970198,1238011.5,7735,WL,A,5.0
7,12.230999946594238,immed,47769.00005340576,Wed Mar 04 2026 15:45:08 GMT-0600 (Central Standard Time),1239342.299999997,A,ch,O,h,142,1,1330.7999999970198,1238011.5,7735,WL,A,5.0
7,12.647000074386597,immed,47352.9999256134,Wed Mar 04 2026 15:45:08 GMT-0600 (Central Standard Time),1239759.099999994,A,chi,O,i,393,1,1747.5999999940395,1238011.5,7735,WL,A,5.0
7,12.846999883651733,immed,47153.00011634827,Wed Mar 04 2026 15:45:08 GMT-0600 (Central Standard Time),1239959.099999994,A,chim,O,m,174,1,1947.5999999940395,1238011.5,7735,WL,A,5.0
7,13.096999883651733,immed,46903.00011634827,Wed Mar 04 2026 15:45:08 GMT-0600 (Central Standard Time),1240208.799999997,A,chimn,O,n,223,1,2197.2999999970198,1238011.5,7735,WL,A,5.0
7,13.230000019073486,immed,46769.999980926514,Wed Mar 04 2026 15:45:08 GMT-0600 (Central Standard Time),1240342.099999994,A,chimne,O,e,119,1,2330.5999999940395,1238011.5,7735,WL,A,5.0
7,13.397000074386597,immed,46602.9999256134,Wed Mar 04 2026 15:45:08 GMT-0600 (Central Standard Time),1240508.900000006,A,chimney,O,y,147,1,2497.4000000059605,1238011.5,7735,WL,A,5.0
7,14.114000082015991,immed,45885.99991798401,Wed Mar 04 2026 15:45:08 GMT-0600 (Central Standard Time),1241225.299999997,A,chimneyenter,O,enter,700,1,3213.7999999970198,1238011.5,7735,WL,A,5.0
7,14.598000049591064,immed,45401.999950408936,Wed Mar 04 2026 15:45:08 GMT-0600 (Central Standard Time),1241709.400000006,A,l,O,l,466,1,483.80000001192093,1241225.599999994,7735,WL,A,6.0
7,14.829999923706055,immed,45170.000076293945,Wed Mar 04 2026 15:45:08 GMT-0600 (Central Standard Time),1241941.900000006,A,lo,O,o,213,1,716.3000000119209,1241225.599999994,7735,WL,A,6.0
7,15.02999997138977,immed,44970.00002861023,Wed Mar 04 2026 15:45:08 GMT-0600 (Central Standard Time),1242141.700000003,A,log,O,g,177,1,916.1000000089407,1241225.599999994,7735,WL,A,6.0
7,15.746999979019165,immed,44253.000020980835,Wed Mar 04 2026 15:45:08 GMT-0600 (Central Standard Time),1242858.400000006,A,logenter,O,enter,704,1,1632.800000011921,1241225.599999994,7735,WL,A,6.0
7,17.200999975204468,immed,42799.00002479553,Wed Mar 04 2026 15:45:08 GMT-0600 (Central Standard Time),1244313.299999997,A,r,O,r,1450,1,1454.7000000029802,1242858.599999994,7735,WL,A,7.0
7,17.412999868392944,immed,42587.000131607056,Wed Mar 04 2026 15:45:08 GMT-0600 (Central Standard Time),1244524.200000003,A,ra,O,a,193,1,1665.6000000089407,1242858.599999994,7735,WL,A,7.0
7,17.730000019073486,immed,42269.999980926514,Wed Mar 04 2026 15:45:08 GMT-0600 (Central Standard Time),1244842.0,A,rat,O,t,295,1,1983.4000000059605,1242858.599999994,7735,WL,A,7.0
7,17.878999948501587,immed,42121.00005149841,Wed Mar 04 2026 15:45:08 GMT-0600 (Central Standard Time),1244990.900000006,A,ratt,O,t,135,1,2132.300000011921,1242858.599999994,7735,WL,A,7.0
7,18.161999940872192,immed,41838.00005912781,Wed Mar 04 2026 15:45:08 GMT-0600 (Central Standard Time),1245273.700000003,A,ratte,O,e,268,1,2415.1000000089407,1242858.599999994,7735,WL,A,7.0
7,22.277999877929688,immed,37722.00012207031,Wed Mar 04 2026 15:45:08 GMT-0600 (Central Standard Time),1249390.0,A,ratt,O,backspace,4103,1,6531.4000000059605,1242858.599999994,7735,WL,A,7.0
7,24.55999994277954,immed,35440.00005722046,Wed Mar 04 2026 15:45:08 GMT-0600 (Central Standard Time),1251671.900000006,A,rat,O,backspace,2268,1,8813.300000011921,1242858.599999994,7735,WL,A,7.0
7,25.39299988746643,immed,34607.00011253357,Wed Mar 04 2026 15:45:08 GMT-0600 (Central Standard Time),1252504.799999997,A,ratl,O,l,808,1,9646.20000000298,1242858.599999994,7735,WL,A,7.0
7,25.57699990272522,immed,34423.00009727478,Wed Mar 04 2026 15:45:08 GMT-0600 (Central Standard Time),1252689.400000006,A,ratle,O,e,167,1,9830.800000011921,1242858.599999994,7735,WL,A,7.0
7,26.30900001525879,immed,33690.99998474121,Wed Mar 04 2026 15:45:08 GMT-0600 (Central Standard Time),1253421.5,A,ratleenter,O,enter,713,1,10562.90000000596,1242858.599999994,7735,WL,A,7.0
7,28.358999967575073,immed,31641.000032424927,Wed Mar 04 2026 15:45:08 GMT-0600 (Central Standard Time),1255471.400000006,A,k,O,k,2030,1,2049.7000000029802,1253421.700000003,7735,WL,A,8.0
7,28.491999864578247,immed,31508.000135421753,Wed Mar 04 2026 15:45:08 GMT-0600 (Central Standard Time),1255603.799999997,A,ke,O,e,115,1,2182.0999999940395,1253421.700000003,7735,WL,A,8.0
7,28.741999864578247,immed,31258.000135421753,Wed Mar 04 2026 15:45:08 GMT-0600 (Central Standard Time),1255854.0,A,key,O,y,235,1,2432.2999999970198,1253421.700000003,7735,WL,A,8.0
7,29.54099988937378,immed,30459.00011062622,Wed Mar 04 2026 15:45:08 GMT-0600 (Central Standard Time),1256653.099999994,A,keyenter,O,enter,779,1,3231.3999999910593,1253421.700000003,7735,WL,A,8.0
7,30.009000062942505,immed,29990.999937057495,Wed Mar 04 2026 15:45:08 GMT-0600 (Central Standard Time),1257120.900000006,A,f,O,f,462,1,467.40000000596046,1256653.5,7735,WL,A,9.0
7,30.125,immed,29875.0,Wed Mar 04 2026 15:45:08 GMT-0600 (Central Standard Time),1257237.299999997,A,fi,O,i,97,1,583.7999999970198,1256653.5,7735,WL,A,9.0
7,30.274999856948853,immed,29725.000143051147,Wed Mar 04 2026 15:45:08 GMT-0600 (Central Standard Time),1257386.799999997,A,fin,O,n,123,1,733.2999999970198,1256653.5,7735,WL,A,9.0
7,30.524999856948853,immed,29475.000143051147,Wed Mar 04 2026 15:45:08 GMT-0600 (Central Standard Time),1257637.400000006,A,fing,O,g,229,1,983.9000000059605,1256653.5,7735,WL,A,9.0
7,30.72499990463257,immed,29275.00009536743,Wed Mar 04 2026 15:45:08 GMT-0600 (Central Standard Time),1257837.5,A,finge,O,e,179,1,1184.0,1256653.5,7735,WL,A,9.0
7,30.841000080108643,immed,29158.999919891357,Wed Mar 04 2026 15:45:08 GMT-0600 (Central Standard Time),1257953.200000003,A,finger,O,r,109,1,1299.7000000029802,1256653.5,7735,WL,A,9.0
7,31.256999969482422,immed,28743.000030517578,Wed Mar 04 2026 15:45:08 GMT-0600 (Central Standard Time),1258369.599999994,A,fingerenter,O,enter,408,1,1716.0999999940395,1256653.5,7735,WL,A,9.0
7,31.69099998474121,immed,28309.00001525879,Wed Mar 04 2026 15:45:08 GMT-0600 (Central Standard Time),1258802.700000003,A,h,O,h,425,1,432.70000000298023,1258370.0,7735,WL,A,10.0
7,31.825000047683716,immed,28174.999952316284,Wed Mar 04 2026 15:45:08 GMT-0600 (Central Standard Time),1258936.900000006,A,ha,O,a,118,1,566.9000000059605,1258370.0,7735,WL,A,10.0
7,32.04099988937378,immed,27959.00011062622,Wed Mar 04 2026 15:45:08 GMT-0600 (Central Standard Time),1259153.5,A,har,O,r,203,1,783.5,1258370.0,7735,WL,A,10.0
7,32.34100008010864,immed,27658.999919891357,Wed Mar 04 2026 15:45:08 GMT-0600 (Central Standard Time),1259452.700000003,A,harp,O,p,290,1,1082.7000000029802,1258370.0,7735,WL,A,10.0
7,33.08999991416931,immed,26910.00008583069,Wed Mar 04 2026 15:45:08 GMT-0600 (Central Standard Time),1260202.400000006,A,harpenter,O,enter,744,1,1832.4000000059605,1258370.0,7735,WL,A,10.0
7,39.40400004386902,immed,20595.99995613098,Wed Mar 04 2026 15:45:08 GMT-0600 (Central Standard Time),1266516.5,A,s,O,s,6305,1,6313.79999999702,1260202.700000003,7735,WL,A,11.0
7,39.62100005149841,immed,20378.999948501587,Wed Mar 04 2026 15:45:08 GMT-0600 (Central Standard Time),1266733.299999997,A,sa,O,a,199,1,6530.5999999940395,1260202.700000003,7735,WL,A,11.0
7,39.82099986076355,immed,20179.00013923645,Wed Mar 04 2026 15:45:08 GMT-0600 (Central Standard Time),1266933.299999997,A,sal,O,l,188,1,6730.5999999940395,1260202.700000003,7735,WL,A,11.0
7,40.08899998664856,immed,19911.00001335144,Wed Mar 04 2026 15:45:08 GMT-0600 (Central Standard Time),1267200.799999997,A,salt,O,t,249,1,6998.0999999940395,1260202.700000003,7735,WL,A,11.0
7,40.87299990653992,immed,19127.000093460083,Wed Mar 04 2026 15:45:08 GMT-0600 (Central Standard Time),1267985.700000003,A,saltenter,O,enter,761,1,7783.0,1260202.700000003,7735,WL,A,11.0
7,44.90400004386902,immed,15095.999956130981,Wed Mar 04 2026 15:45:08 GMT-0600 (Central Standard Time),1272015.799999997,A,b,O,b,4019,1,4029.7000000029802,1267986.099999994,7735,WL,A,12.0
7,45.20300006866455,immed,14796.99993133545,Wed Mar 04 2026 15:45:08 GMT-0600 (Central Standard Time),1272315.0,A,bu,O,u,289,1,4328.9000000059605,1267986.099999994,7735,WL,A,12.0
7,45.520999908447266,immed,14479.000091552734,Wed Mar 04 2026 15:45:08 GMT-0600 (Central Standard Time),1272633.099999994,A,but,O,t,304,1,4647.0,1267986.099999994,7735,WL,A,12.0
7,45.668999910354614,immed,14331.000089645386,Wed Mar 04 2026 15:45:08 GMT-0600 (Central Standard Time),1272781.400000006,A,butt,O,t,130,1,4795.300000011921,1267986.099999994,7735,WL,A,12.0
7,45.83699989318848,immed,14163.000106811523,Wed Mar 04 2026 15:45:08 GMT-0600 (Central Standard Time),1272948.799999997,A,butto,O,o,148,1,4962.70000000298,1267986.099999994,7735,WL,A,12.0
7,46.003000020980835,immed,13996.999979019165,Wed Mar 04 2026 15:45:08 GMT-0600 (Central Standard Time),1273115.599999994,A,button,O,n,151,1,5129.5,1267986.099999994,7735,WL,A,12.0
7,46.80299997329712,immed,13197.00002670288,Wed Mar 04 2026 15:45:08 GMT-0600 (Central Standard Time),1273915.200000003,A,buttonenter,O,enter,793,1,5929.100000008941,1267986.099999994,7735,WL,A,12.0
7,51.818000078201294,immed,8181.999921798706,Wed Mar 04 2026 15:45:08 GMT-0600 (Central Standard Time),1278930.200000003,A,r,O,r,5008,1,5014.70000000298,1273915.5,7735,WL,A,13.0
7,52.01699995994568,immed,7983.000040054321,Wed Mar 04 2026 15:45:08 GMT-0600 (Central Standard Time),1279129.599999994,A,ru,O,u,194,1,5214.0999999940395,1273915.5,7735,WL,A,13.0
7,52.26799988746643,immed,7732.000112533569,Wed Mar 04 2026 15:45:08 GMT-0600 (Central Standard Time),1279380.099999994,A,rug,O,g,232,1,5464.5999999940395,1273915.5,7735,WL,A,13.0
7,53.09999990463257,immed,6900.000095367432,Wed Mar 04 2026 15:45:08 GMT-0600 (Central Standard Time),1280212.400000006,A,rugenter,O,enter,823,1,6296.9000000059605,1273915.5,7735,WL,A,13.0
7,58.26699995994568,immed,1733.0000400543213,Wed Mar 04 2026 15:45:08 GMT-0600 (Central Standard Time),1285379.299999997,A,h,O,h,5159,1,5166.5999999940395,1280212.700000003,7735,WL,A,14.0
7,58.33099985122681,immed,1669.0001487731934,Wed Mar 04 2026 15:45:08 GMT-0600 (Central Standard Time),1285443.299999997,A,ha,O,a,54,1,5230.5999999940395,1280212.700000003,7735,WL,A,14.0
7,58.598999977111816,immed,1401.0000228881836,Wed Mar 04 2026 15:45:08 GMT-0600 (Central Standard Time),1285711.099999994,A,har,O,r,254,1,5498.399999991059,1280212.700000003,7735,WL,A,14.0
7,58.8989999294281,immed,1101.0000705718994,Wed Mar 04 2026 15:45:08 GMT-0600 (Central Standard Time),1286011.200000003,A,harp,O,p,292,1,5798.5,1280212.700000003,7735,WL,A,14.0
7,59.681999921798706,immed,318.00007820129395,Wed Mar 04 2026 15:45:08 GMT-0600 (Central Standard Time),1286794.400000006,A,harpenter,O,enter,766,1,6581.70000000298,1280212.700000003,7735,WL,A,14.0
7,60.01699995994568,immed,-16.99995994567871,Wed Mar 04 2026 15:45:08 GMT-0600 (Central Standard Time),1287128.799999997,A,None,O,None,329,1,334.20000000298023,1286794.599999994,7735,WL,A,15.0
