acc_sum,block,block_c,change,condition,correct,correct_response,datetime,endtime,face,project,response,response_time,row_sel,session_number,start_end,starttime,subject_id,task,task_vers,trial
0,prac,1,,1-Back,,,Tue Aug 12 2025 14:58:15 GMT-0500 (Central Daylight Time),,005_o_f_d_a.png,O,space,10480,1,1,,,7194,VNB,B,0
1,prac,1,0.0,1-Back,1,m,Tue Aug 12 2025 14:58:15 GMT-0500 (Central Daylight Time),159100.60000014305,020_y_f_n_a.png,O,m,1251,2,1,2161.800000190735,156938.79999995232,7194,VNB,B,1
2,prac,1,0.0,1-Back,1,m,Tue Aug 12 2025 14:58:15 GMT-0500 (Central Daylight Time),161115.90000009537,007_m_m_h_a.png,O,m,1055,3,1,1989.0,159126.90000009537,7194,VNB,B,2
3,prac,1,0.0,1-Back,1,m,Tue Aug 12 2025 14:58:15 GMT-0500 (Central Daylight Time),163315.29999995232,016_y_m_d_a.png,O,m,1229,4,1,2162.199999809265,161153.10000014305,7194,VNB,B,3
4,prac,1,0.0,1-Back,1,m,Tue Aug 12 2025 14:58:15 GMT-0500 (Central Daylight Time),165298.0,005_o_f_n_a.png,O,m,1026,5,1,1949.0999999046326,163348.90000009537,7194,VNB,B,4
5,prac,1,1.0,1-Back,1,z,Tue Aug 12 2025 14:58:15 GMT-0500 (Central Daylight Time),167164.10000014305,016_y_m_n_a.png,O,z,905,6,1,1830.6000001430511,165333.5,7194,VNB,B,5
6,prac,1,0.0,1-Back,1,m,Tue Aug 12 2025 14:58:15 GMT-0500 (Central Daylight Time),168996.90000009537,004_o_m_h_a.png,O,m,905,7,1,1800.7000000476837,167196.20000004768,7194,VNB,B,6
7,prac,1,0.0,1-Back,1,m,Tue Aug 12 2025 14:58:15 GMT-0500 (Central Daylight Time),171045.79999995232,011_m_f_d_a.png,O,m,1083,8,1,2019.0,169026.79999995232,7194,VNB,B,7
8,prac,1,1.0,1-Back,1,z,Tue Aug 12 2025 14:58:15 GMT-0500 (Central Daylight Time),172995.5,020_y_f_d_a.png,O,z,996,9,1,1908.0999999046326,171087.40000009537,7194,VNB,B,8
9,prac,1,0.0,1-Back,1,m,Tue Aug 12 2025 14:58:15 GMT-0500 (Central Daylight Time),174961.60000014305,007_m_m_n_a.png,O,m,983,10,1,1924.7000000476837,173036.90000009537,7194,VNB,B,9
10,prac,1,0.0,1-Back,1,m,Tue Aug 12 2025 14:58:15 GMT-0500 (Central Daylight Time),176910.79999995232,005_o_f_h_a.png,O,m,977,11,1,1914.0999999046326,174996.70000004768,7194,VNB,B,10
11,prac,1,0.0,1-Back,1,m,Tue Aug 12 2025 14:58:15 GMT-0500 (Central Daylight Time),178743.40000009537,016_y_m_d_a.png,O,m,869,12,1,1799.0,176944.40000009537,7194,VNB,B,11
0,test,1,0.0,1-Back,,,Tue Aug 12 2025 14:58:15 GMT-0500 (Central Daylight Time),178743.40000009537,020_y_f_d_a.png,O,space,50124,1,1,1799.0,176944.40000009537,7194,VNB,B,0
1,test,1,0.0,1-Back,1,m,Tue Aug 12 2025 14:58:15 GMT-0500 (Central Daylight Time),238140.70000004768,011_m_f_n_a.png,O,m,1174,2,1,2193.7000000476837,235947.0,7194,VNB,B,1
2,test,1,0.0,1-Back,1,m,Tue Aug 12 2025 14:58:15 GMT-0500 (Central Daylight Time),240006.5,004_o_m_h_a.png,O,m,819,3,1,1841.2999999523163,238165.20000004768,7194,VNB,B,2
3,test,1,1.0,1-Back,1,z,Tue Aug 12 2025 14:58:15 GMT-0500 (Central Daylight Time),242005.79999995232,007_m_m_h_a.png,O,z,955,4,1,1972.2999999523163,240033.5,7194,VNB,B,3
4,test,1,0.0,1-Back,1,m,Tue Aug 12 2025 14:58:15 GMT-0500 (Central Daylight Time),244004.29999995232,005_o_f_n_a.png,O,m,956,5,1,1976.0,242028.29999995232,7194,VNB,B,4
5,test,1,0.0,1-Back,1,m,Tue Aug 12 2025 14:58:15 GMT-0500 (Central Daylight Time),246204.10000014305,016_y_m_d_a.png,O,m,1174,6,1,2192.300000190735,244011.79999995232,7194,VNB,B,5
6,test,1,1.0,1-Back,1,z,Tue Aug 12 2025 14:58:15 GMT-0500 (Central Daylight Time),248220.40000009537,011_m_f_d_a.png,O,z,965,7,1,1985.4000000953674,246235.0,7194,VNB,B,6
7,test,1,0.0,1-Back,1,m,Tue Aug 12 2025 14:58:15 GMT-0500 (Central Daylight Time),250235.60000014305,020_y_f_h_a.png,O,m,957,8,1,1974.4000000953674,248261.20000004768,7194,VNB,B,7
8,test,1,0.0,1-Back,1,m,Tue Aug 12 2025 14:58:15 GMT-0500 (Central Daylight Time),252135.90000009537,004_o_m_n_a.png,O,m,878,9,1,1894.7000000476837,250241.20000004768,7194,VNB,B,8
9,test,1,0.0,1-Back,1,m,Tue Aug 12 2025 14:58:15 GMT-0500 (Central Daylight Time),254068.70000004768,016_y_m_h_a.png,O,m,889,10,1,1901.5,252167.20000004768,7194,VNB,B,9
10,test,1,0.0,1-Back,1,m,Tue Aug 12 2025 14:58:15 GMT-0500 (Central Daylight Time),256051.29999995232,004_o_m_d_a.png,O,m,917,11,1,1947.7999999523163,254103.5,7194,VNB,B,10
11,test,1,1.0,1-Back,1,z,Tue Aug 12 2025 14:58:15 GMT-0500 (Central Daylight Time),258250.70000004768,005_o_f_d_a.png,O,z,1152,12,1,2172.0999999046326,256078.60000014305,7194,VNB,B,11
12,test,1,0.0,1-Back,1,m,Tue Aug 12 2025 14:58:15 GMT-0500 (Central Daylight Time),260283.40000009537,007_m_m_n_a.png,O,m,968,13,1,2006.9000000953674,258276.5,7194,VNB,B,12
13,test,1,1.0,1-Back,1,z,Tue Aug 12 2025 14:58:15 GMT-0500 (Central Daylight Time),262282.5,020_y_f_n_a.png,O,z,960,14,1,1972.0,260310.5,7194,VNB,B,13
14,test,1,0.0,1-Back,1,m,Tue Aug 12 2025 14:58:15 GMT-0500 (Central Daylight Time),264648.40000009537,011_m_f_h_a.png,O,m,1329,15,1,2339.7000000476837,262308.7000000477,7194,VNB,B,14
15,test,1,0.0,1-Back,1,m,Tue Aug 12 2025 14:58:15 GMT-0500 (Central Daylight Time),266881.10000014305,007_m_m_d_a.png,O,m,1178,16,1,2195.0,264686.10000014305,7194,VNB,B,15
16,test,1,0.0,1-Back,1,m,Tue Aug 12 2025 14:58:15 GMT-0500 (Central Daylight Time),269130.5,016_y_m_n_a.png,O,m,1201,17,1,2223.7999999523163,266906.7000000477,7194,VNB,B,16
17,test,1,0.0,1-Back,1,m,Tue Aug 12 2025 14:58:15 GMT-0500 (Central Daylight Time),271096.5,005_o_f_h_a.png,O,m,920,18,1,1937.5999999046326,269158.90000009537,7194,VNB,B,17
0,test,2,0.0,1-Back,,,Tue Aug 12 2025 14:58:15 GMT-0500 (Central Daylight Time),271096.5,016_y_m_n_a.png,O,space,1834,1,1,1937.5999999046326,269158.90000009537,7194,VNB,B,0
1,test,2,0.0,1-Back,1,m,Tue Aug 12 2025 14:58:15 GMT-0500 (Central Daylight Time),276961.0,020_y_f_h_a.png,O,m,954,2,1,1972.5999999046326,274988.40000009537,7194,VNB,B,1
2,test,2,1.0,1-Back,1,m,Tue Aug 12 2025 14:58:15 GMT-0500 (Central Daylight Time),278777.10000014305,004_o_m_n_a.png,O,m,777,3,1,1786.6000001430511,276990.5,7194,VNB,B,2
3,test,2,0.0,1-Back,1,m,Tue Aug 12 2025 14:58:15 GMT-0500 (Central Daylight Time),280593.2999999523,011_m_f_d_a.png,O,m,761,4,1,1789.6999998092651,278803.60000014305,7194,VNB,B,3
4,test,2,0.0,1-Back,1,z,Tue Aug 12 2025 14:58:15 GMT-0500 (Central Daylight Time),282592.60000014305,007_m_m_d_a.png,O,z,961,5,1,1972.1000001430511,280620.5,7194,VNB,B,4
5,test,2,0.0,1-Back,1,m,Tue Aug 12 2025 14:58:15 GMT-0500 (Central Daylight Time),284541.60000014305,016_y_m_h_a.png,O,m,914,6,1,1923.6000001430511,282618.0,7194,VNB,B,5
6,test,2,1.0,1-Back,1,z,Tue Aug 12 2025 14:58:15 GMT-0500 (Central Daylight Time),286673.90000009537,005_o_f_h_a.png,O,z,1076,7,1,2098.7000000476837,284575.2000000477,7194,VNB,B,6
7,test,2,0.0,1-Back,1,m,Tue Aug 12 2025 14:58:15 GMT-0500 (Central Daylight Time),288673.5,011_m_f_n_a.png,O,m,976,8,1,1988.7000000476837,286684.7999999523,7194,VNB,B,7
7,test,2,0.0,1-Back,0,m,Tue Aug 12 2025 14:58:15 GMT-0500 (Central Daylight Time),290823.2999999523,020_y_f_d_a.png,O,z,1130,9,1,2136.399999856949,288686.90000009537,7194,VNB,B,8
8,test,2,0.0,1-Back,1,m,Tue Aug 12 2025 14:58:15 GMT-0500 (Central Daylight Time),292772.5,007_m_m_n_a.png,O,m,893,10,1,1921.2000000476837,290851.2999999523,7194,VNB,B,9
9,test,2,1.0,1-Back,1,m,Tue Aug 12 2025 14:58:15 GMT-0500 (Central Daylight Time),294755.2999999523,011_m_f_h_a.png,O,m,934,11,1,1956.0999999046326,292799.2000000477,7194,VNB,B,10
10,test,2,0.0,1-Back,1,z,Tue Aug 12 2025 14:58:15 GMT-0500 (Central Daylight Time),296737.90000009537,004_o_m_h_a.png,O,z,943,12,1,1957.2999999523163,294780.60000014305,7194,VNB,B,11
11,test,2,0.0,1-Back,1,m,Tue Aug 12 2025 14:58:15 GMT-0500 (Central Daylight Time),298737.2999999523,016_y_m_d_a.png,O,m,953,13,1,1974.5,296762.7999999523,7194,VNB,B,12
12,test,2,0.0,1-Back,1,m,Tue Aug 12 2025 14:58:15 GMT-0500 (Central Daylight Time),300852.7000000477,005_o_f_n_a.png,O,m,1081,14,1,2084.9000000953674,298767.7999999523,7194,VNB,B,13
13,test,2,0.0,1-Back,1,z,Tue Aug 12 2025 14:58:15 GMT-0500 (Central Daylight Time),302818.2999999523,020_y_f_n_a.png,O,z,916,15,1,1950.3999998569489,300867.90000009537,7194,VNB,B,14
14,test,2,1.0,1-Back,1,m,Tue Aug 12 2025 14:58:15 GMT-0500 (Central Daylight Time),304735.2999999523,007_m_m_h_a.png,O,m,887,16,1,1911.5,302823.7999999523,7194,VNB,B,15
15,test,2,0.0,1-Back,1,m,Tue Aug 12 2025 14:58:15 GMT-0500 (Central Daylight Time),306834.7000000477,005_o_f_d_a.png,O,m,1060,17,1,2069.4000000953674,304765.2999999523,7194,VNB,B,16
16,test,2,1.0,1-Back,1,z,Tue Aug 12 2025 14:58:15 GMT-0500 (Central Daylight Time),308886.10000014305,004_o_m_d_a.png,O,z,993,18,1,2012.6000001430511,306873.5,7194,VNB,B,17
0,test,3,1.0,1-Back,,,Tue Aug 12 2025 14:58:15 GMT-0500 (Central Daylight Time),308886.10000014305,005_o_f_h_a.png,O,space,1595,1,1,2012.6000001430511,306873.5,7194,VNB,B,0
1,test,3,0.0,1-Back,1,m,Tue Aug 12 2025 14:58:15 GMT-0500 (Central Daylight Time),314748.7999999523,011_m_f_d_a.png,O,m,1033,2,1,2065.399999856949,312683.40000009537,7194,VNB,B,1
2,test,3,1.0,1-Back,1,m,Tue Aug 12 2025 14:58:15 GMT-0500 (Central Daylight Time),316731.40000009537,007_m_m_n_a.png,O,m,926,3,1,1951.5,314779.90000009537,7194,VNB,B,2
3,test,3,0.0,1-Back,1,z,Tue Aug 12 2025 14:58:15 GMT-0500 (Central Daylight Time),318714.2000000477,005_o_f_n_a.png,O,z,945,4,1,1952.2000000476837,316762.0,7194,VNB,B,3
4,test,3,1.0,1-Back,1,m,Tue Aug 12 2025 14:58:15 GMT-0500 (Central Daylight Time),320730.0,004_o_m_d_a.png,O,m,970,5,1,1988.0,318742.0,7194,VNB,B,4
5,test,3,0.0,1-Back,1,m,Tue Aug 12 2025 14:58:15 GMT-0500 (Central Daylight Time),322679.5,020_y_f_h_a.png,O,m,913,6,1,1920.0999999046326,320759.40000009537,7194,VNB,B,5
6,test,3,0.0,1-Back,1,z,Tue Aug 12 2025 14:58:15 GMT-0500 (Central Daylight Time),324662.0,016_y_m_h_a.png,O,z,947,7,1,1953.0999999046326,322708.90000009537,7194,VNB,B,6
7,test,3,0.0,1-Back,1,m,Tue Aug 12 2025 14:58:15 GMT-0500 (Central Daylight Time),326428.2999999523,011_m_f_n_a.png,O,m,713,8,1,1739.2999999523163,324689.0,7194,VNB,B,7
8,test,3,0.0,1-Back,1,m,Tue Aug 12 2025 14:58:15 GMT-0500 (Central Daylight Time),328494.0,020_y_f_d_a.png,O,m,1031,9,1,2042.2999999523163,326451.7000000477,7194,VNB,B,8
9,test,3,1.0,1-Back,1,m,Tue Aug 12 2025 14:58:15 GMT-0500 (Central Daylight Time),330625.90000009537,004_o_m_n_a.png,O,m,1074,10,1,2099.4000000953674,328526.5,7194,VNB,B,9
10,test,3,0.0,1-Back,1,m,Tue Aug 12 2025 14:58:15 GMT-0500 (Central Daylight Time),332626.2999999523,007_m_m_h_a.png,O,m,977,11,1,1984.5999999046326,330641.7000000477,7194,VNB,B,10
11,test,3,0.0,1-Back,1,z,Tue Aug 12 2025 14:58:15 GMT-0500 (Central Daylight Time),334475.60000014305,011_m_f_h_a.png,O,z,792,12,1,1817.9000000953674,332657.7000000477,7194,VNB,B,11
12,test,3,1.0,1-Back,1,m,Tue Aug 12 2025 14:58:15 GMT-0500 (Central Daylight Time),336408.5,005_o_f_d_a.png,O,m,895,13,1,1909.7000000476837,334498.7999999523,7194,VNB,B,12
13,test,3,0.0,1-Back,1,z,Tue Aug 12 2025 14:58:15 GMT-0500 (Central Daylight Time),338357.10000014305,007_m_m_d_a.png,O,z,889,14,1,1915.4000000953674,336441.7000000477,7194,VNB,B,13
14,test,3,0.0,1-Back,1,m,Tue Aug 12 2025 14:58:15 GMT-0500 (Central Daylight Time),340392.90000009537,016_y_m_n_a.png,O,m,1000,15,1,2019.2000000476837,338373.7000000477,7194,VNB,B,14
15,test,3,1.0,1-Back,1,m,Tue Aug 12 2025 14:58:15 GMT-0500 (Central Daylight Time),342356.2999999523,004_o_m_h_a.png,O,m,924,16,1,1941.6999998092651,340414.60000014305,7194,VNB,B,15
16,test,3,0.0,1-Back,1,m,Tue Aug 12 2025 14:58:15 GMT-0500 (Central Daylight Time),344522.2000000477,016_y_m_d_a.png,O,m,1119,17,1,2147.5,342374.7000000477,7194,VNB,B,16
17,test,3,1.0,1-Back,1,m,Tue Aug 12 2025 14:58:15 GMT-0500 (Central Daylight Time),346588.40000009537,020_y_f_n_a.png,O,m,1024,18,1,2040.2999999523163,344548.10000014305,7194,VNB,B,17
0,test,4,1.0,1-Back,,,Tue Aug 12 2025 14:58:15 GMT-0500 (Central Daylight Time),346588.40000009537,007_m_m_d_a.png,O,space,1782,1,1,2040.2999999523163,344548.10000014305,7194,VNB,B,0
1,test,4,0.0,1-Back,1,z,Tue Aug 12 2025 14:58:15 GMT-0500 (Central Daylight Time),352552.2999999523,004_o_m_d_a.png,O,z,1109,2,1,2120.699999809265,350431.60000014305,7194,VNB,B,1
2,test,4,0.0,1-Back,1,m,Tue Aug 12 2025 14:58:15 GMT-0500 (Central Daylight Time),354734.60000014305,016_y_m_h_a.png,O,m,1160,3,1,2177.2000000476837,352557.40000009537,7194,VNB,B,2
3,test,4,0.0,1-Back,1,m,Tue Aug 12 2025 14:58:15 GMT-0500 (Central Daylight Time),356585.10000014305,011_m_f_n_a.png,O,m,819,4,1,1840.4000000953674,354744.7000000477,7194,VNB,B,3
4,test,4,1.0,1-Back,1,m,Tue Aug 12 2025 14:58:15 GMT-0500 (Central Daylight Time),358617.7000000477,005_o_f_h_a.png,O,m,993,5,1,2006.0999999046326,356611.60000014305,7194,VNB,B,4
5,test,4,0.0,1-Back,1,m,Tue Aug 12 2025 14:58:15 GMT-0500 (Central Daylight Time),360483.60000014305,007_m_m_n_a.png,O,m,824,6,1,1836.3000001907349,358647.2999999523,7194,VNB,B,5
6,test,4,0.0,1-Back,1,m,Tue Aug 12 2025 14:58:15 GMT-0500 (Central Daylight Time),362416.60000014305,016_y_m_d_a.png,O,m,894,7,1,1909.8000001907349,360506.7999999523,7194,VNB,B,6
7,test,4,1.0,1-Back,1,z,Tue Aug 12 2025 14:58:15 GMT-0500 (Central Daylight Time),364332.40000009537,020_y_f_d_a.png,O,z,850,8,1,1882.1000001430511,362450.2999999523,7194,VNB,B,7
8,test,4,0.0,1-Back,1,m,Tue Aug 12 2025 14:58:15 GMT-0500 (Central Daylight Time),366149.40000009537,011_m_f_h_a.png,O,m,782,9,1,1786.9000000953674,364362.5,7194,VNB,B,8
9,test,4,0.0,1-Back,1,z,Tue Aug 12 2025 14:58:15 GMT-0500 (Central Daylight Time),368064.7000000477,004_o_m_h_a.png,O,z,872,10,1,1884.7999999523163,366179.90000009537,7194,VNB,B,9
10,test,4,1.0,1-Back,1,m,Tue Aug 12 2025 14:58:15 GMT-0500 (Central Daylight Time),369746.90000009537,005_o_f_n_a.png,O,m,625,11,1,1650.6000001430511,368096.2999999523,7194,VNB,B,10
11,test,4,0.0,1-Back,1,m,Tue Aug 12 2025 14:58:15 GMT-0500 (Central Daylight Time),371846.7000000477,011_m_f_d_a.png,O,m,1056,12,1,2085.0,369761.7000000477,7194,VNB,B,11
12,test,4,0.0,1-Back,1,m,Tue Aug 12 2025 14:58:15 GMT-0500 (Central Daylight Time),373929.2999999523,020_y_f_n_a.png,O,m,1044,13,1,2052.5999999046326,371876.7000000477,7194,VNB,B,12
13,test,4,0.0,1-Back,1,m,Tue Aug 12 2025 14:58:15 GMT-0500 (Central Daylight Time),375829.5,005_o_f_d_a.png,O,m,866,14,1,1873.7000000476837,373955.7999999523,7194,VNB,B,13
14,test,4,0.0,1-Back,1,m,Tue Aug 12 2025 14:58:15 GMT-0500 (Central Daylight Time),377811.40000009537,020_y_f_h_a.png,O,m,943,15,1,1953.2999999523163,375858.10000014305,7194,VNB,B,14
15,test,4,1.0,1-Back,1,z,Tue Aug 12 2025 14:58:15 GMT-0500 (Central Daylight Time),379627.5,007_m_m_h_a.png,O,z,750,16,1,1781.2000000476837,377846.2999999523,7194,VNB,B,15
16,test,4,0.0,1-Back,1,m,Tue Aug 12 2025 14:58:15 GMT-0500 (Central Daylight Time),381776.7000000477,004_o_m_n_a.png,O,m,1102,17,1,2124.0999999046326,379652.60000014305,7194,VNB,B,16
17,test,4,1.0,1-Back,1,z,Tue Aug 12 2025 14:58:15 GMT-0500 (Central Daylight Time),383876.40000009537,016_y_m_n_a.png,O,z,1050,18,1,2068.7999999523163,381807.60000014305,7194,VNB,B,17
0,test,5,1.0,1-Back,,,Tue Aug 12 2025 14:58:15 GMT-0500 (Central Daylight Time),383876.40000009537,004_o_m_n_a.png,O,space,1517,1,1,2068.7999999523163,381807.60000014305,7194,VNB,B,0
1,test,5,1.0,1-Back,1,m,Tue Aug 12 2025 14:58:15 GMT-0500 (Central Daylight Time),389541.0,005_o_f_h_a.png,O,m,1058,2,1,2082.2999999523163,387458.7000000477,7194,VNB,B,1
2,test,5,0.0,1-Back,1,m,Tue Aug 12 2025 14:58:15 GMT-0500 (Central Daylight Time),391406.10000014305,016_y_m_d_a.png,O,m,813,3,1,1834.7000000476837,389571.40000009537,7194,VNB,B,2
3,test,5,0.0,1-Back,1,z,Tue Aug 12 2025 14:58:15 GMT-0500 (Central Daylight Time),393473.10000014305,004_o_m_d_a.png,O,z,1017,4,1,2052.7000000476837,391420.40000009537,7194,VNB,B,3
4,test,5,0.0,1-Back,1,m,Tue Aug 12 2025 14:58:15 GMT-0500 (Central Daylight Time),395438.90000009537,011_m_f_h_a.png,O,m,914,5,1,1931.1000001430511,393507.7999999523,7194,VNB,B,4
5,test,5,0.0,1-Back,1,m,Tue Aug 12 2025 14:58:15 GMT-0500 (Central Daylight Time),397488.40000009537,020_y_f_n_a.png,O,m,1011,6,1,2027.1000001430511,395461.2999999523,7194,VNB,B,5
6,test,5,1.0,1-Back,1,z,Tue Aug 12 2025 14:58:15 GMT-0500 (Central Daylight Time),399604.5,005_o_f_n_a.png,O,z,1067,7,1,2088.7000000476837,397515.7999999523,7194,VNB,B,6
7,test,5,0.0,1-Back,1,m,Tue Aug 12 2025 14:58:15 GMT-0500 (Central Daylight Time),401620.2999999523,011_m_f_d_a.png,O,m,974,8,1,1991.0,399629.2999999523,7194,VNB,B,7
8,test,5,0.0,1-Back,1,m,Tue Aug 12 2025 14:58:15 GMT-0500 (Central Daylight Time),403636.2999999523,016_y_m_h_a.png,O,m,974,9,1,1989.6999998092651,401646.60000014305,7194,VNB,B,8
9,test,5,0.0,1-Back,1,m,Tue Aug 12 2025 14:58:15 GMT-0500 (Central Daylight Time),405452.2999999523,020_y_f_d_a.png,O,m,767,10,1,1786.7999999523163,403665.5,7194,VNB,B,9
10,test,5,0.0,1-Back,1,m,Tue Aug 12 2025 14:58:15 GMT-0500 (Central Daylight Time),407434.7000000477,007_m_m_n_a.png,O,m,934,11,1,1955.0,405479.7000000477,7194,VNB,B,10
11,test,5,1.0,1-Back,1,z,Tue Aug 12 2025 14:58:15 GMT-0500 (Central Daylight Time),409550.40000009537,011_m_f_n_a.png,O,z,1078,12,1,2094.2000000476837,407456.2000000477,7194,VNB,B,11
12,test,5,0.0,1-Back,1,m,Tue Aug 12 2025 14:58:15 GMT-0500 (Central Daylight Time),411650.2000000477,004_o_m_h_a.png,O,m,1077,13,1,2085.4000000953674,409564.7999999523,7194,VNB,B,12
13,test,5,0.0,1-Back,1,z,Tue Aug 12 2025 14:58:15 GMT-0500 (Central Daylight Time),413516.2000000477,007_m_m_h_a.png,O,z,825,14,1,1836.2999999523163,411679.90000009537,7194,VNB,B,13
14,test,5,1.0,1-Back,1,m,Tue Aug 12 2025 14:58:15 GMT-0500 (Central Daylight Time),415815.2000000477,005_o_f_d_a.png,O,m,1237,15,1,2264.2999999523163,413550.90000009537,7194,VNB,B,14
15,test,5,0.0,1-Back,1,m,Tue Aug 12 2025 14:58:15 GMT-0500 (Central Daylight Time),417798.2999999523,016_y_m_n_a.png,O,m,947,16,1,1967.0,415831.2999999523,7194,VNB,B,15
16,test,5,0.0,1-Back,1,m,Tue Aug 12 2025 14:58:15 GMT-0500 (Central Daylight Time),419797.40000009537,020_y_f_h_a.png,O,m,957,17,1,1971.2999999523163,417826.10000014305,7194,VNB,B,16
17,test,5,0.0,1-Back,1,m,Tue Aug 12 2025 14:58:15 GMT-0500 (Central Daylight Time),421979.5,007_m_m_d_a.png,O,m,1140,18,1,2157.2999999523163,419822.2000000477,7194,VNB,B,17
0,prac,1,0.0,2-Back,,,Tue Aug 12 2025 14:58:15 GMT-0500 (Central Daylight Time),421979.5,011_m_f_n_a.png,O,space,8291,1,1,2157.2999999523163,419822.2000000477,7194,VNB,B,0
0,prac,1,0.0,2-Back,,,Tue Aug 12 2025 14:58:15 GMT-0500 (Central Daylight Time),421979.5,005_o_f_h_a.png,O,space,8291,2,1,2157.2999999523163,419822.2000000477,7194,VNB,B,0
1,prac,1,0.0,2-Back,1,m,Tue Aug 12 2025 14:58:15 GMT-0500 (Central Daylight Time),523297.5,004_o_m_d_a.png,O,m,1353,3,1,2258.2000000476837,521039.2999999523,7194,VNB,B,1
1,prac,1,1.0,2-Back,0,z,Tue Aug 12 2025 14:58:15 GMT-0500 (Central Daylight Time),525263.7000000477,007_m_m_h_a.png,O,m,976,4,1,1927.2999999523163,523336.40000009537,7194,VNB,B,2
2,prac,1,0.0,2-Back,1,m,Tue Aug 12 2025 14:58:15 GMT-0500 (Central Daylight Time),528111.4000000954,020_y_f_n_a.png,O,m,1894,5,1,2808.7999999523163,525302.600000143,7194,VNB,B,3
3,prac,1,1.0,2-Back,1,z,Tue Aug 12 2025 14:58:15 GMT-0500 (Central Daylight Time),529910.600000143,004_o_m_h_a.png,O,z,1018,6,1,1790.2000000476837,528120.4000000954,7194,VNB,B,4
4,prac,1,1.0,2-Back,1,z,Tue Aug 12 2025 14:58:15 GMT-0500 (Central Daylight Time),531993.4000000954,016_y_m_n_a.png,O,z,1111,7,1,2071.4000000953674,529922.0,7194,VNB,B,5
5,prac,1,0.0,2-Back,1,m,Tue Aug 12 2025 14:58:15 GMT-0500 (Central Daylight Time),533942.600000143,011_m_f_d_a.png,O,m,999,8,1,1939.2000000476837,532003.4000000954,7194,VNB,B,6
6,prac,1,0.0,2-Back,1,m,Tue Aug 12 2025 14:58:15 GMT-0500 (Central Daylight Time),535975.4000000954,005_o_f_d_a.png,O,m,1078,9,1,2024.1000001430511,533951.2999999523,7194,VNB,B,7
7,prac,1,0.0,2-Back,1,m,Tue Aug 12 2025 14:58:15 GMT-0500 (Central Daylight Time),537724.7999999523,007_m_m_h_a.png,O,m,965,10,1,1741.1999998092651,535983.600000143,7194,VNB,B,8
8,prac,1,1.0,2-Back,1,z,Tue Aug 12 2025 14:58:15 GMT-0500 (Central Daylight Time),539624.2000000477,020_y_f_d_a.png,O,z,962,11,1,1891.2999999523163,537732.9000000954,7194,VNB,B,9
9,prac,1,0.0,2-Back,1,m,Tue Aug 12 2025 14:58:15 GMT-0500 (Central Daylight Time),541656.7999999523,004_o_m_n_a.png,O,m,1094,12,1,2020.6999998092651,539636.100000143,7194,VNB,B,10
0,test,1,0.0,2-Back,,,Tue Aug 12 2025 14:58:15 GMT-0500 (Central Daylight Time),541656.7999999523,016_y_m_h_a.png,O,space,5268,1,1,2020.6999998092651,539636.100000143,7194,VNB,B,0
0,test,1,0.0,2-Back,,,Tue Aug 12 2025 14:58:15 GMT-0500 (Central Daylight Time),541656.7999999523,005_o_f_n_a.png,O,space,5268,2,1,2020.6999998092651,539636.100000143,7194,VNB,B,0
1,test,1,0.0,2-Back,1,z,Tue Aug 12 2025 14:58:15 GMT-0500 (Central Daylight Time),559118.0,004_o_m_h_a.png,O,z,1403,3,1,2422.899999856949,556695.100000143,7194,VNB,B,1
2,test,1,0.0,2-Back,1,m,Tue Aug 12 2025 14:58:15 GMT-0500 (Central Daylight Time),561533.7000000477,011_m_f_d_a.png,O,m,1387,4,1,2410.2999999523163,559123.4000000954,7194,VNB,B,2
3,test,1,1.0,2-Back,1,m,Tue Aug 12 2025 14:58:15 GMT-0500 (Central Daylight Time),563650.4000000954,016_y_m_n_a.png,O,m,1086,5,1,2110.5,561539.9000000954,7194,VNB,B,3
4,test,1,0.0,2-Back,1,z,Tue Aug 12 2025 14:58:15 GMT-0500 (Central Daylight Time),565865.5,020_y_f_d_a.png,O,z,1167,6,1,2191.399999856949,563674.100000143,7194,VNB,B,4
4,test,1,0.0,2-Back,0,m,Tue Aug 12 2025 14:58:15 GMT-0500 (Central Daylight Time),568531.4000000954,007_m_m_h_a.png,O,z,1648,7,1,2659.9000000953674,565871.5,7194,VNB,B,5
5,test,1,1.0,2-Back,1,m,Tue Aug 12 2025 14:58:15 GMT-0500 (Central Daylight Time),570297.7999999523,020_y_f_n_a.png,O,m,736,8,1,1761.1999998092651,568536.600000143,7194,VNB,B,6
6,test,1,0.0,2-Back,1,z,Tue Aug 12 2025 14:58:15 GMT-0500 (Central Daylight Time),572346.600000143,005_o_f_h_a.png,O,z,1008,9,1,2032.9000000953674,570313.7000000477,7194,VNB,B,7
7,test,1,0.0,2-Back,1,m,Tue Aug 12 2025 14:58:15 GMT-0500 (Central Daylight Time),574396.100000143,004_o_m_d_a.png,O,m,1030,10,1,2044.2000000476837,572351.9000000954,7194,VNB,B,8
8,test,1,1.0,2-Back,1,m,Tue Aug 12 2025 14:58:15 GMT-0500 (Central Daylight Time),576679.600000143,007_m_m_d_a.png,O,m,1255,11,1,2278.2000000476837,574401.4000000954,7194,VNB,B,9
9,test,1,0.0,2-Back,1,m,Tue Aug 12 2025 14:58:15 GMT-0500 (Central Daylight Time),578811.2999999523,011_m_f_n_a.png,O,m,1091,12,1,2106.2999999523163,576705.0,7194,VNB,B,10
10,test,1,0.0,2-Back,1,m,Tue Aug 12 2025 14:58:15 GMT-0500 (Central Daylight Time),580844.100000143,020_y_f_h_a.png,O,m,1007,13,1,2027.7000000476837,578816.4000000954,7194,VNB,B,11
11,test,1,0.0,2-Back,1,z,Tue Aug 12 2025 14:58:15 GMT-0500 (Central Daylight Time),583059.9000000954,007_m_m_n_a.png,O,z,1190,14,1,2210.100000143051,580849.7999999523,7194,VNB,B,12
12,test,1,0.0,2-Back,1,m,Tue Aug 12 2025 14:58:15 GMT-0500 (Central Daylight Time),585226.2999999523,016_y_m_d_a.png,O,m,1134,15,1,2160.699999809265,583065.600000143,7194,VNB,B,13
13,test,1,1.0,2-Back,1,m,Tue Aug 12 2025 14:58:15 GMT-0500 (Central Daylight Time),587291.7999999523,011_m_f_h_a.png,O,m,1048,16,1,2059.7999999523163,585232.0,7194,VNB,B,14
14,test,1,0.0,2-Back,1,z,Tue Aug 12 2025 14:58:15 GMT-0500 (Central Daylight Time),589275.100000143,005_o_f_d_a.png,O,z,959,17,1,1976.7000000476837,587298.4000000954,7194,VNB,B,15
15,test,1,0.0,2-Back,1,m,Tue Aug 12 2025 14:58:15 GMT-0500 (Central Daylight Time),591274.0,004_o_m_n_a.png,O,m,959,18,1,1970.5999999046326,589303.4000000954,7194,VNB,B,16
0,test,2,0.0,2-Back,,,Tue Aug 12 2025 14:58:15 GMT-0500 (Central Daylight Time),591274.0,007_m_m_h_a.png,O,space,1896,1,1,1970.5999999046326,589303.4000000954,7194,VNB,B,0
0,test,2,0.0,2-Back,,,Tue Aug 12 2025 14:58:15 GMT-0500 (Central Daylight Time),591274.0,020_y_f_n_a.png,O,space,1896,2,1,1970.5999999046326,589303.4000000954,7194,VNB,B,0
1,test,2,1.0,2-Back,1,z,Tue Aug 12 2025 14:58:15 GMT-0500 (Central Daylight Time),600587.5,005_o_f_h_a.png,O,z,1049,3,1,2070.5999999046326,598516.9000000954,7194,VNB,B,1
2,test,2,0.0,2-Back,1,m,Tue Aug 12 2025 14:58:15 GMT-0500 (Central Daylight Time),602786.7000000477,004_o_m_d_a.png,O,m,1166,4,1,2194.0999999046326,600592.600000143,7194,VNB,B,2
3,test,2,0.0,2-Back,1,m,Tue Aug 12 2025 14:58:15 GMT-0500 (Central Daylight Time),605286.7000000477,011_m_f_d_a.png,O,m,1473,5,1,2493.9000000953674,602792.7999999523,7194,VNB,B,3
4,test,2,0.0,2-Back,1,m,Tue Aug 12 2025 14:58:15 GMT-0500 (Central Daylight Time),607285.2999999523,016_y_m_h_a.png,O,m,947,6,1,1967.1999998092651,605318.100000143,7194,VNB,B,4
5,test,2,0.0,2-Back,1,m,Tue Aug 12 2025 14:58:15 GMT-0500 (Central Daylight Time),609301.2999999523,005_o_f_n_a.png,O,m,996,7,1,2010.1999998092651,607291.100000143,7194,VNB,B,5
6,test,2,1.0,2-Back,1,z,Tue Aug 12 2025 14:58:15 GMT-0500 (Central Daylight Time),611184.7999999523,004_o_m_h_a.png,O,z,863,8,1,1876.5,609308.2999999523,7194,VNB,B,6
7,test,2,0.0,2-Back,1,m,Tue Aug 12 2025 14:58:15 GMT-0500 (Central Daylight Time),613483.4000000954,020_y_f_d_a.png,O,m,1250,9,1,2274.7000000476837,611208.7000000477,7194,VNB,B,7
8,test,2,0.0,2-Back,1,m,Tue Aug 12 2025 14:58:15 GMT-0500 (Central Daylight Time),615682.600000143,016_y_m_d_a.png,O,m,1167,10,1,2194.2000000476837,613488.4000000954,7194,VNB,B,8
9,test,2,0.0,2-Back,1,m,Tue Aug 12 2025 14:58:15 GMT-0500 (Central Daylight Time),617499.9000000954,007_m_m_n_a.png,O,m,783,11,1,1811.7999999523163,615688.100000143,7194,VNB,B,9
10,test,2,0.0,2-Back,1,m,Tue Aug 12 2025 14:58:15 GMT-0500 (Central Daylight Time),619564.5,011_m_f_h_a.png,O,m,1005,12,1,2033.7000000476837,617530.7999999523,7194,VNB,B,10
11,test,2,1.0,2-Back,1,z,Tue Aug 12 2025 14:58:15 GMT-0500 (Central Daylight Time),621597.2999999523,004_o_m_n_a.png,O,z,1006,13,1,2026.1999998092651,619571.100000143,7194,VNB,B,11
12,test,2,0.0,2-Back,1,m,Tue Aug 12 2025 14:58:15 GMT-0500 (Central Daylight Time),623696.600000143,005_o_f_d_a.png,O,m,1069,14,1,2094.2000000476837,621602.4000000954,7194,VNB,B,12
12,test,2,0.0,2-Back,0,m,Tue Aug 12 2025 14:58:15 GMT-0500 (Central Daylight Time),626179.100000143,020_y_f_h_a.png,O,z,1449,15,1,2477.2000000476837,623701.9000000954,7194,VNB,B,13
13,test,2,0.0,2-Back,1,z,Tue Aug 12 2025 14:58:15 GMT-0500 (Central Daylight Time),628411.5,007_m_m_d_a.png,O,z,1199,16,1,2227.0999999046326,626184.4000000954,7194,VNB,B,14
14,test,2,0.0,2-Back,1,m,Tue Aug 12 2025 14:58:15 GMT-0500 (Central Daylight Time),630528.600000143,016_y_m_n_a.png,O,m,1087,17,1,2109.4000000953674,628419.2000000477,7194,VNB,B,15
15,test,2,1.0,2-Back,1,m,Tue Aug 12 2025 14:58:15 GMT-0500 (Central Daylight Time),632860.2999999523,011_m_f_n_a.png,O,m,1306,18,1,2325.7999999523163,630534.5,7194,VNB,B,16
0,test,3,1.0,2-Back,,,Tue Aug 12 2025 14:58:15 GMT-0500 (Central Daylight Time),632860.2999999523,004_o_m_n_a.png,O,space,2544,1,1,2325.7999999523163,630534.5,7194,VNB,B,0
0,test,3,1.0,2-Back,,,Tue Aug 12 2025 14:58:15 GMT-0500 (Central Daylight Time),632860.2999999523,005_o_f_d_a.png,O,space,2544,2,1,2325.7999999523163,630534.5,7194,VNB,B,0
1,test,3,0.0,2-Back,1,m,Tue Aug 12 2025 14:58:15 GMT-0500 (Central Daylight Time),642607.2999999523,020_y_f_h_a.png,O,m,1120,3,1,2141.5,640465.7999999523,7194,VNB,B,1
1,test,3,0.0,2-Back,0,z,Tue Aug 12 2025 14:58:15 GMT-0500 (Central Daylight Time),644790.600000143,011_m_f_d_a.png,O,m,1141,4,1,2166.300000190735,642624.2999999523,7194,VNB,B,2
2,test,3,1.0,2-Back,1,m,Tue Aug 12 2025 14:58:15 GMT-0500 (Central Daylight Time),646839.600000143,016_y_m_n_a.png,O,m,989,5,1,2006.3000001907349,644833.2999999523,7194,VNB,B,3
3,test,3,0.0,2-Back,1,m,Tue Aug 12 2025 14:58:15 GMT-0500 (Central Daylight Time),648872.5,004_o_m_h_a.png,O,m,987,6,1,2004.3999998569489,646868.100000143,7194,VNB,B,4
4,test,3,0.0,2-Back,1,z,Tue Aug 12 2025 14:58:15 GMT-0500 (Central Daylight Time),650722.100000143,020_y_f_n_a.png,O,z,804,7,1,1819.8000001907349,648902.2999999523,7194,VNB,B,5
5,test,3,1.0,2-Back,1,m,Tue Aug 12 2025 14:58:15 GMT-0500 (Central Daylight Time),652754.7999999523,007_m_m_d_a.png,O,m,986,8,1,2006.7999999523163,650748.0,7194,VNB,B,6
5,test,3,0.0,2-Back,0,m,Tue Aug 12 2025 14:58:15 GMT-0500 (Central Daylight Time),655603.600000143,016_y_m_d_a.png,O,z,1799,9,1,2817.7000000476837,652785.9000000954,7194,VNB,B,7
6,test,3,0.0,2-Back,1,m,Tue Aug 12 2025 14:58:15 GMT-0500 (Central Daylight Time),657519.7000000477,005_o_f_h_a.png,O,m,880,10,1,1886.5999999046326,655633.100000143,7194,VNB,B,8
7,test,3,1.0,2-Back,1,m,Tue Aug 12 2025 14:58:15 GMT-0500 (Central Daylight Time),660069.100000143,011_m_f_n_a.png,O,m,1484,11,1,2517.2000000476837,657551.9000000954,7194,VNB,B,9
8,test,3,1.0,2-Back,1,z,Tue Aug 12 2025 14:58:15 GMT-0500 (Central Daylight Time),662167.2999999523,007_m_m_h_a.png,O,z,1061,12,1,2073.7999999523163,660093.5,7194,VNB,B,10
9,test,3,0.0,2-Back,1,m,Tue Aug 12 2025 14:58:15 GMT-0500 (Central Daylight Time),664284.0,020_y_f_d_a.png,O,m,1092,13,1,2109.5999999046326,662174.4000000954,7194,VNB,B,11
10,test,3,0.0,2-Back,1,m,Tue Aug 12 2025 14:58:15 GMT-0500 (Central Daylight Time),667150.0,005_o_f_n_a.png,O,m,1831,14,1,2842.0999999046326,664307.9000000954,7194,VNB,B,12
11,test,3,0.0,2-Back,1,z,Tue Aug 12 2025 14:58:15 GMT-0500 (Central Daylight Time),670065.5,004_o_m_d_a.png,O,z,1874,15,1,2890.399999856949,667175.100000143,7194,VNB,B,13
12,test,3,1.0,2-Back,1,m,Tue Aug 12 2025 14:58:15 GMT-0500 (Central Daylight Time),672597.2000000477,011_m_f_h_a.png,O,m,1484,16,1,2503.0,670094.2000000477,7194,VNB,B,14
13,test,3,0.0,2-Back,1,m,Tue Aug 12 2025 14:58:15 GMT-0500 (Central Daylight Time),674664.2000000477,007_m_m_n_a.png,O,m,1038,17,1,2058.0,672606.2000000477,7194,VNB,B,15
14,test,3,0.0,2-Back,1,z,Tue Aug 12 2025 14:58:15 GMT-0500 (Central Daylight Time),676734.2999999523,016_y_m_h_a.png,O,z,1036,18,1,2043.5,674690.7999999523,7194,VNB,B,16
0,test,4,0.0,2-Back,,,Tue Aug 12 2025 14:58:15 GMT-0500 (Central Daylight Time),676734.2999999523,011_m_f_n_a.png,O,space,4107,1,1,2043.5,674690.7999999523,7194,VNB,B,0
0,test,4,0.0,2-Back,,,Tue Aug 12 2025 14:58:15 GMT-0500 (Central Daylight Time),676734.2999999523,004_o_m_n_a.png,O,space,4107,2,1,2043.5,674690.7999999523,7194,VNB,B,0
1,test,4,1.0,2-Back,1,m,Tue Aug 12 2025 14:58:15 GMT-0500 (Central Daylight Time),688492.9000000954,016_y_m_h_a.png,O,m,1266,3,1,2285.7999999523163,686207.100000143,7194,VNB,B,1
2,test,4,1.0,2-Back,1,m,Tue Aug 12 2025 14:58:15 GMT-0500 (Central Daylight Time),690608.5,005_o_f_d_a.png,O,m,1078,4,1,2085.5999999046326,688522.9000000954,7194,VNB,B,2
3,test,4,0.0,2-Back,1,z,Tue Aug 12 2025 14:58:15 GMT-0500 (Central Daylight Time),692660.100000143,004_o_m_h_a.png,O,z,1015,5,1,2037.2000000476837,690622.9000000954,7194,VNB,B,3
4,test,4,0.0,2-Back,1,m,Tue Aug 12 2025 14:58:15 GMT-0500 (Central Daylight Time),694657.2000000477,007_m_m_n_a.png,O,m,961,6,1,1973.7000000476837,692683.5,7194,VNB,B,4
5,test,4,0.0,2-Back,1,m,Tue Aug 12 2025 14:58:15 GMT-0500 (Central Daylight Time),696773.9000000954,011_m_f_d_a.png,O,m,1081,7,1,2100.2000000476837,694673.7000000477,7194,VNB,B,5
5,test,4,0.0,2-Back,0,z,Tue Aug 12 2025 14:58:15 GMT-0500 (Central Daylight Time),698806.100000143,020_y_f_n_a.png,O,m,998,8,1,2007.0,696799.100000143,7194,VNB,B,6
6,test,4,1.0,2-Back,1,m,Tue Aug 12 2025 14:58:15 GMT-0500 (Central Daylight Time),700805.600000143,005_o_f_h_a.png,O,m,958,9,1,1970.9000000953674,698834.7000000477,7194,VNB,B,7
7,test,4,0.0,2-Back,1,m,Tue Aug 12 2025 14:58:15 GMT-0500 (Central Daylight Time),702938.0,007_m_m_h_a.png,O,m,1077,10,1,2103.2999999523163,700834.7000000477,7194,VNB,B,8
7,test,4,0.0,2-Back,0,m,Tue Aug 12 2025 14:58:15 GMT-0500 (Central Daylight Time),705989.0,020_y_f_d_a.png,O,None,2016,11,1,3022.7000000476837,702966.2999999523,7194,VNB,B,9
8,test,4,0.0,2-Back,1,m,Tue Aug 12 2025 14:58:15 GMT-0500 (Central Daylight Time),708470.0,016_y_m_n_a.png,O,m,1448,12,1,2455.5,706014.5,7194,VNB,B,10
9,test,4,0.0,2-Back,1,z,Tue Aug 12 2025 14:58:15 GMT-0500 (Central Daylight Time),710585.7000000477,004_o_m_d_a.png,O,z,1069,13,1,2090.9000000953674,708494.7999999523,7194,VNB,B,11
10,test,4,1.0,2-Back,1,m,Tue Aug 12 2025 14:58:15 GMT-0500 (Central Daylight Time),712701.7999999523,011_m_f_h_a.png,O,m,1074,14,1,2092.5,710609.2999999523,7194,VNB,B,12
11,test,4,1.0,2-Back,1,m,Tue Aug 12 2025 14:58:15 GMT-0500 (Central Daylight Time),714934.100000143,020_y_f_h_a.png,O,m,1190,15,1,2204.600000143051,712729.5,7194,VNB,B,13
12,test,4,0.0,2-Back,1,m,Tue Aug 12 2025 14:58:15 GMT-0500 (Central Daylight Time),716718.0,005_o_f_n_a.png,O,m,741,16,1,1755.5999999046326,714962.4000000954,7194,VNB,B,14
13,test,4,0.0,2-Back,1,m,Tue Aug 12 2025 14:58:15 GMT-0500 (Central Daylight Time),718933.7999999523,016_y_m_d_a.png,O,m,1166,17,1,2175.199999809265,716758.600000143,7194,VNB,B,15
14,test,4,1.0,2-Back,1,m,Tue Aug 12 2025 14:58:15 GMT-0500 (Central Daylight Time),721048.9000000954,007_m_m_d_a.png,O,m,1078,18,1,2085.2999999523163,718963.600000143,7194,VNB,B,16
0,test,5,1.0,2-Back,,,Tue Aug 12 2025 14:58:15 GMT-0500 (Central Daylight Time),721048.9000000954,020_y_f_d_a.png,O,space,2594,1,1,2085.2999999523163,718963.600000143,7194,VNB,B,0
0,test,5,1.0,2-Back,,,Tue Aug 12 2025 14:58:15 GMT-0500 (Central Daylight Time),721048.9000000954,005_o_f_h_a.png,O,space,2594,2,1,2085.2999999523163,718963.600000143,7194,VNB,B,0
1,test,5,1.0,2-Back,1,z,Tue Aug 12 2025 14:58:15 GMT-0500 (Central Daylight Time),731212.100000143,004_o_m_d_a.png,O,z,1100,3,1,2135.7000000476837,729076.4000000954,7194,VNB,B,1
2,test,5,1.0,2-Back,1,m,Tue Aug 12 2025 14:58:15 GMT-0500 (Central Daylight Time),733361.5,011_m_f_n_a.png,O,m,1111,4,1,2123.7999999523163,731237.7000000477,7194,VNB,B,2
2,test,5,0.0,2-Back,0,m,Tue Aug 12 2025 14:58:15 GMT-0500 (Central Daylight Time),736427.600000143,007_m_m_h_a.png,O,None,2016,5,1,3029.2000000476837,733398.4000000954,7194,VNB,B,3
3,test,5,0.0,2-Back,1,z,Tue Aug 12 2025 14:58:15 GMT-0500 (Central Daylight Time),738526.600000143,020_y_f_n_a.png,O,z,1056,6,1,2071.0,736455.600000143,7194,VNB,B,4
4,test,5,0.0,2-Back,1,m,Tue Aug 12 2025 14:58:15 GMT-0500 (Central Daylight Time),740725.7999999523,005_o_f_d_a.png,O,m,1165,7,1,2171.5999999046326,738554.2000000477,7194,VNB,B,5
4,test,5,0.0,2-Back,0,m,Tue Aug 12 2025 14:58:15 GMT-0500 (Central Daylight Time),742775.2000000477,004_o_m_h_a.png,O,z,1013,8,1,2027.7999999523163,740747.4000000954,7194,VNB,B,6
5,test,5,1.0,2-Back,1,z,Tue Aug 12 2025 14:58:15 GMT-0500 (Central Daylight Time),745107.5,011_m_f_d_a.png,O,z,1285,9,1,2303.5,742804.0,7194,VNB,B,7
6,test,5,0.0,2-Back,1,m,Tue Aug 12 2025 14:58:15 GMT-0500 (Central Daylight Time),747906.2999999523,016_y_m_n_a.png,O,m,1743,10,1,2753.2999999523163,745153.0,7194,VNB,B,8
7,test,5,0.0,2-Back,1,m,Tue Aug 12 2025 14:58:15 GMT-0500 (Central Daylight Time),749960.2000000477,007_m_m_n_a.png,O,m,1029,11,1,2040.2000000476837,747920.0,7194,VNB,B,9
8,test,5,0.0,2-Back,1,m,Tue Aug 12 2025 14:58:15 GMT-0500 (Central Daylight Time),751938.4000000954,020_y_f_h_a.png,O,m,907,12,1,1952.5,749985.9000000954,7194,VNB,B,10
9,test,5,0.0,2-Back,1,m,Tue Aug 12 2025 14:58:15 GMT-0500 (Central Daylight Time),754138.0,016_y_m_d_a.png,O,m,1152,13,1,2168.7999999523163,751969.2000000477,7194,VNB,B,11
10,test,5,1.0,2-Back,1,z,Tue Aug 12 2025 14:58:15 GMT-0500 (Central Daylight Time),756004.0,011_m_f_h_a.png,O,z,798,14,1,1831.7999999523163,754172.2000000477,7194,VNB,B,12
10,test,5,0.0,2-Back,0,m,Tue Aug 12 2025 14:58:15 GMT-0500 (Central Daylight Time),758270.100000143,004_o_m_n_a.png,O,z,1215,15,1,2232.9000000953674,756037.2000000477,7194,VNB,B,13
10,test,5,0.0,2-Back,0,m,Tue Aug 12 2025 14:58:15 GMT-0500 (Central Daylight Time),761319.2999999523,007_m_m_d_a.png,O,None,2015,16,1,3023.899999856949,758295.4000000954,7194,VNB,B,14
10,test,5,0.0,2-Back,0,z,Tue Aug 12 2025 14:58:15 GMT-0500 (Central Daylight Time),763451.5,005_o_f_n_a.png,O,m,1076,17,1,2104.399999856949,761347.100000143,7194,VNB,B,15
11,test,5,1.0,2-Back,1,m,Tue Aug 12 2025 14:58:15 GMT-0500 (Central Daylight Time),765533.7000000477,016_y_m_h_a.png,O,m,1023,18,1,2046.0,763487.7000000477,7194,VNB,B,16
