acc_sum,block,block_c,condition,correct,correct_response,datetime,endtime,flanker,jitter,project,response,response_test_buffer_response,response_test_target_response,response_time,response_time_test_buffer_response,response_time_test_target_response,row_sel,session_number,start_end,starttime,subject_id,target,task,task_vers,time_test_buffer,time_test_buffer_response,time_test_constants,time_test_flanker,time_test_jitter,time_test_logger,time_test_target,time_test_target_response,time_test_variables,trial
1,prac,1,con,1,z,Thu Sep 11 2025 11:28:38 GMT-0400 (Eastern Daylight Time),113279.30000019073,lime,800,I,z,,,504,,,5,3,2607.300000190735,110672.0,9013,lime,NF,C,,,,,,,,,,1
2,prac,1,con,1,m,Thu Sep 11 2025 11:28:38 GMT-0400 (Eastern Daylight Time),115945.80000019073,gold,800,I,m,,,561,,,13,3,2654.800000190735,113291.0,9013,gold,NF,C,,,,,,,,,,2
3,prac,1,inc,1,m,Thu Sep 11 2025 11:28:38 GMT-0400 (Eastern Daylight Time),118779.10000038147,pear,900,I,m,,,625,,,14,3,2822.8999996185303,115956.20000076294,9013,iron,NF,C,,,,,,,,,,3
4,prac,1,inc,1,z,Thu Sep 11 2025 11:28:38 GMT-0400 (Eastern Daylight Time),121812.4000005722,lead,1100,I,z,,,616,,,8,3,3023.0,118789.4000005722,9013,plum,NF,C,,,,,,,,,,4
5,prac,1,inc,1,z,Thu Sep 11 2025 11:28:38 GMT-0400 (Eastern Daylight Time),124895.70000076294,cobalt,1100,I,z,,,671,,,4,3,3074.0,121821.70000076294,9013,raisin,NF,C,,,,,,,,,,5
6,prac,1,inc,1,m,Thu Sep 11 2025 11:28:38 GMT-0400 (Eastern Daylight Time),127912.4000005722,raisin,1100,I,m,,,612,,,12,3,3004.9000005722046,124907.5,9013,cobalt,NF,C,,,,,,,,,,6
7,prac,1,inc,1,m,Thu Sep 11 2025 11:28:38 GMT-0400 (Eastern Daylight Time),130745.70000076294,cherry,900,I,m,,,626,,,10,3,2823.4000005722046,127922.30000019073,9013,copper,NF,C,,,,,,,,,,7
8,prac,1,con,1,z,Thu Sep 11 2025 11:28:38 GMT-0400 (Eastern Daylight Time),133395.70000076294,banana,800,I,z,,,533,,,1,3,2640.2000007629395,130755.5,9013,banana,NF,C,,,,,,,,,,8
9,prac,1,con,1,z,Thu Sep 11 2025 11:28:38 GMT-0400 (Eastern Daylight Time),136262.30000019073,orange,1000,I,z,,,563,,,3,3,2857.699999809265,133404.60000038147,9013,orange,NF,C,,,,,,,,,,9
10,prac,1,inc,1,m,Thu Sep 11 2025 11:28:38 GMT-0400 (Eastern Daylight Time),139295.60000038147,plum,1100,I,m,,,621,,,16,3,3022.300000190735,136273.30000019073,9013,lead,NF,C,,,,,,,,,,10
11,prac,1,con,1,m,Thu Sep 11 2025 11:28:38 GMT-0400 (Eastern Daylight Time),142195.80000019073,silver,1000,I,m,,,583,,,11,3,2888.5,139307.30000019073,9013,silver,NF,C,,,,,,,,,,11
12,prac,1,inc,1,z,Thu Sep 11 2025 11:28:38 GMT-0400 (Eastern Daylight Time),145029.10000038147,copper,900,I,z,,,600,,,2,3,2814.800000190735,142214.30000019073,9013,cherry,NF,C,,,,,,,,,,12
13,prac,1,con,1,m,Thu Sep 11 2025 11:28:38 GMT-0400 (Eastern Daylight Time),147962.5,zinc,1000,I,m,,,627,,,15,3,2923.5999994277954,145038.9000005722,9013,zinc,NF,C,,,,,,,,,,13
14,prac,1,inc,1,z,Thu Sep 11 2025 11:28:38 GMT-0400 (Eastern Daylight Time),150795.60000038147,iron,900,I,z,,,625,,,6,3,2820.699999809265,147974.9000005722,9013,pear,NF,C,,,,,,,,,,14
15,prac,1,con,1,z,Thu Sep 11 2025 11:28:38 GMT-0400 (Eastern Daylight Time),153928.9000005722,kiwi,1000,I,z,,,828,,,7,3,3121.5,150807.4000005722,9013,kiwi,NF,C,,,,,,,,,,15
16,prac,1,con,1,m,Thu Sep 11 2025 11:28:38 GMT-0400 (Eastern Daylight Time),156612.4000005722,bronze,800,I,m,,,550,,,9,3,2667.199999809265,153945.20000076294,9013,bronze,NF,C,,,,,,,,,,16
1,test,1,inc,1,z,Thu Sep 11 2025 11:28:38 GMT-0400 (Eastern Daylight Time),171295.9000005722,bronze,800,I,z,z,None,622,423.0,199.0,21,3,1959.0,169336.9000005722,9013,orange,NF,C,164216,164216,162690,163499,162690,164649,164016,164016,164649,1
2,test,1,con,1,z,Thu Sep 11 2025 11:28:38 GMT-0400 (Eastern Daylight Time),173461.9000005722,cherry,1000,I,z,z,None,615,416.0,199.0,11,3,2156.6000003814697,171305.30000019073,9013,cherry,NF,C,166382,166382,164658,165666,164659,166815,166182,166182,166815,2
3,test,1,con,1,z,Thu Sep 11 2025 11:28:38 GMT-0400 (Eastern Daylight Time),175578.80000019073,orange,1000,I,z,z,None,578,378.0,200.0,19,3,2109.300000190735,173469.5,9013,orange,NF,C,168549,168549,166823,167832,166823,168932,168349,168349,168932,3
4,test,1,inc,1,z,Thu Sep 11 2025 11:28:38 GMT-0400 (Eastern Daylight Time),177895.10000038147,lead,1100,I,z,z,None,680,481.0,199.0,48,3,2307.300000190735,175587.80000019073,9013,pear,NF,C,170766,170766,168941,170049,168941,171248,170566,170566,171248,4
5,test,1,inc,1,m,Thu Sep 11 2025 11:28:38 GMT-0400 (Eastern Daylight Time),179962.20000076294,lime,800,I,m,m,None,728,529.0,199.0,117,3,2055.5,177906.70000076294,9013,zinc,NF,C,172783,172783,171260,172066,171260,173315,172582,172583,173315,5
6,test,1,con,1,m,Thu Sep 11 2025 11:28:38 GMT-0400 (Eastern Daylight Time),182112.10000038147,silver,1000,I,m,m,None,605,406.0,199.0,83,3,2141.199999809265,179970.9000005722,9013,silver,NF,C,175049,175049,173324,174333,173324,175465,174849,174849,175465,6
7,test,1,inc,1,m,Thu Sep 11 2025 11:28:38 GMT-0400 (Eastern Daylight Time),184178.9000005722,lime,800,I,m,m,None,720,520.0,200.0,109,3,2057.1000003814697,182121.80000019073,9013,iron,NF,C,176999,176999,175475,176282,175475,177532,176799,176799,177532,7
8,test,1,con,1,m,Thu Sep 11 2025 11:28:38 GMT-0400 (Eastern Daylight Time),186279.0,lead,900,I,m,m,None,665,466.0,199.0,122,3,2090.5,184188.5,9013,lead,NF,C,179166,179166,177542,178449,177542,179632,178966,178966,179632,8
9,test,1,inc,1,z,Thu Sep 11 2025 11:28:38 GMT-0400 (Eastern Daylight Time),188512.20000076294,cobalt,1100,I,z,z,None,588,389.0,199.0,8,3,2225.5,186286.70000076294,9013,banana,NF,C,181466,181466,179640,180749,179640,181865,181266,181266,181865,9
10,test,1,con,1,z,Thu Sep 11 2025 11:28:38 GMT-0400 (Eastern Daylight Time),190728.70000076294,banana,1100,I,z,z,None,579,380.0,199.0,4,3,2206.2000007629395,188522.5,9013,banana,NF,C,183699,183699,181876,182982,181876,184082,183499,183499,184082,10
11,test,1,con,1,z,Thu Sep 11 2025 11:28:38 GMT-0400 (Eastern Daylight Time),192828.9000005722,banana,900,I,z,z,None,642,443.0,199.0,2,3,2083.5,190745.4000005722,9013,banana,NF,C,185732,185732,184098,185015,184099,186182,185532,185533,186182,11
12,test,1,inc,1,z,Thu Sep 11 2025 11:28:38 GMT-0400 (Eastern Daylight Time),194895.70000076294,gold,800,I,z,z,None,722,523.0,199.0,45,3,2057.2000007629395,192838.5,9013,pear,NF,C,187716,187716,186192,186999,186192,188249,187516,187516,188249,12
13,test,1,inc,1,z,Thu Sep 11 2025 11:28:38 GMT-0400 (Eastern Daylight Time),197212.4000005722,zinc,1000,I,z,z,None,760,560.0,200.0,39,3,2300.0,194912.4000005722,9013,lime,NF,C,189999,189999,188265,189282,188266,190565,189799,189799,190565,13
14,test,1,inc,1,m,Thu Sep 11 2025 11:28:38 GMT-0400 (Eastern Daylight Time),199329.0,orange,1000,I,m,m,None,573,372.0,201.0,79,3,2107.3999996185303,197221.60000038147,9013,copper,NF,C,192299,192299,190575,191582,190575,192682,192098,192098,192682,14
15,test,1,inc,1,z,Thu Sep 11 2025 11:28:38 GMT-0400 (Eastern Daylight Time),201462.30000019073,iron,900,I,z,z,None,684,484.0,200.0,38,3,2124.0,199338.30000019073,9013,lime,NF,C,194316,194316,192691,193599,192692,194815,194115,194115,194815,15
16,test,1,con,1,z,Thu Sep 11 2025 11:28:38 GMT-0400 (Eastern Daylight Time),203512.0,kiwi,800,I,z,z,None,714,514.0,200.0,49,3,2038.0,201474.0,9013,kiwi,NF,C,196349,196349,194827,195632,194828,196865,196149,196149,196865,16
17,test,1,inc,1,m,Thu Sep 11 2025 11:28:38 GMT-0400 (Eastern Daylight Time),205728.70000076294,orange,1000,I,m,m,None,672,472.0,200.0,95,3,2207.6000003814697,203521.10000038147,9013,cobalt,NF,C,198599,198599,196874,197882,196874,199082,198399,198399,199082,17
18,test,1,con,1,m,Thu Sep 11 2025 11:28:38 GMT-0400 (Eastern Daylight Time),207928.80000019073,silver,900,I,m,m,None,762,563.0,199.0,82,3,2191.300000190735,205737.5,9013,silver,NF,C,200716,200716,199091,199999,199091,201282,200516,200516,201282,18
19,test,1,inc,1,m,Thu Sep 11 2025 11:28:38 GMT-0400 (Eastern Daylight Time),210112.30000019073,kiwi,1000,I,m,m,None,638,439.0,199.0,111,3,2173.8999996185303,207938.4000005722,9013,iron,NF,C,203016,203016,201291,202299,201292,203465,202816,202816,203465,19
20,test,1,inc,1,z,Thu Sep 11 2025 11:28:38 GMT-0400 (Eastern Daylight Time),212362.20000076294,zinc,1000,I,z,z,None,711,512.0,199.0,55,3,2240.2000007629395,210122.0,9013,kiwi,NF,C,205199,205199,203475,204482,203475,205715,204999,204999,205715,20
21,test,1,inc,1,m,Thu Sep 11 2025 11:28:38 GMT-0400 (Eastern Daylight Time),214479.0,banana,800,I,m,m,None,773,572.0,201.0,69,3,2106.7999992370605,212372.20000076294,9013,bronze,NF,C,207251,207251,205725,206532,205726,207832,207049,207049,207832,21
22,test,1,con,1,z,Thu Sep 11 2025 11:28:38 GMT-0400 (Eastern Daylight Time),216662.30000019073,pear,900,I,z,z,None,732,533.0,199.0,42,3,2172.199999809265,214490.10000038147,9013,pear,NF,C,209466,209466,207843,208749,207844,210015,209266,209266,210015,22
23,test,1,inc,1,m,Thu Sep 11 2025 11:28:38 GMT-0400 (Eastern Daylight Time),218829.0,pear,900,I,m,m,None,726,526.0,200.0,110,3,2153.699999809265,216675.30000019073,9013,iron,NF,C,211649,211649,210028,210932,210029,212182,211449,211449,212182,23
24,test,1,con,1,m,Thu Sep 11 2025 11:28:38 GMT-0400 (Eastern Daylight Time),221045.4000005722,gold,1000,I,m,m,None,666,467.0,199.0,99,3,2207.199999809265,218838.20000076294,9013,gold,NF,C,213916,213916,212191,213199,212192,214399,213716,213716,214398,24
25,test,1,con,1,m,Thu Sep 11 2025 11:28:38 GMT-0400 (Eastern Daylight Time),223162.20000076294,lead,1100,I,m,m,None,479,279.0,200.0,124,3,2101.7000007629395,221060.5,9013,lead,NF,C,216233,216233,214414,215516,214414,216515,216032,216032,216515,25
26,test,1,inc,1,z,Thu Sep 11 2025 11:28:38 GMT-0400 (Eastern Daylight Time),225445.70000076294,lead,1100,I,z,z,None,634,434.0,200.0,56,3,2273.7000007629395,223172.0,9013,kiwi,NF,C,218349,218349,216525,217632,216525,218799,218149,218149,218799,26
27,test,1,con,1,z,Thu Sep 11 2025 11:28:38 GMT-0400 (Eastern Daylight Time),227612.30000019073,pear,800,I,z,z,None,825,626.0,199.0,41,3,2157.199999809265,225455.10000038147,9013,pear,NF,C,220332,220333,218808,219616,218808,220965,220132,220133,220965,27
28,test,1,con,1,z,Thu Sep 11 2025 11:28:38 GMT-0400 (Eastern Daylight Time),229628.9000005722,cherry,800,I,z,z,None,676,476.0,200.0,9,3,2007.6000003814697,227621.30000019073,9013,cherry,NF,C,222499,222499,220974,221782,220975,222982,222299,222299,222982,28
29,test,1,con,1,z,Thu Sep 11 2025 11:28:38 GMT-0400 (Eastern Daylight Time),231845.70000076294,kiwi,1100,I,z,z,None,566,367.0,199.0,52,3,2207.6000003814697,229638.10000038147,9013,kiwi,NF,C,224816,224816,222991,224099,222991,225199,224616,224616,225199,29
30,test,1,con,1,m,Thu Sep 11 2025 11:28:38 GMT-0400 (Eastern Daylight Time),233812.30000019073,copper,800,I,m,m,None,618,419.0,199.0,73,3,1958.0999994277954,231854.20000076294,9013,copper,NF,C,226733,226733,225207,226015,225208,227165,226533,226533,227165,30
31,test,1,inc,1,z,Thu Sep 11 2025 11:28:38 GMT-0400 (Eastern Daylight Time),235828.80000019073,bronze,800,I,z,z,None,668,468.0,200.0,5,3,2008.1999998092651,233820.60000038147,9013,banana,NF,C,228699,228699,227174,227982,227174,229182,228499,228499,229182,31
32,test,1,inc,1,z,Thu Sep 11 2025 11:28:38 GMT-0400 (Eastern Daylight Time),238012.20000076294,zinc,1000,I,z,z,None,643,443.0,200.0,63,3,2172.1000003814697,235840.10000038147,9013,plum,NF,C,230916,230916,229193,230199,229194,231365,230715,230715,231365,32
33,test,1,con,1,z,Thu Sep 11 2025 11:28:38 GMT-0400 (Eastern Daylight Time),240162.4000005722,plum,900,I,z,z,None,704,504.0,200.0,58,3,2140.699999809265,238021.70000076294,9013,plum,NF,C,232999,232999,231375,232283,231375,233515,232799,232799,233515,33
34,test,1,inc,1,m,Thu Sep 11 2025 11:28:38 GMT-0400 (Eastern Daylight Time),242545.60000038147,raisin,1100,I,m,m,None,738,538.0,200.0,88,3,2374.300000190735,240171.30000019073,9013,silver,NF,C,235349,235349,233524,234632,233525,235899,235149,235149,235899,34
35,test,1,inc,1,z,Thu Sep 11 2025 11:28:38 GMT-0400 (Eastern Daylight Time),244795.60000038147,lead,1100,I,z,z,None,610,411.0,199.0,64,3,2239.5,242556.10000038147,9013,plum,NF,C,237733,237733,235909,237016,235909,238149,237533,237533,238149,35
36,test,1,con,1,m,Thu Sep 11 2025 11:28:38 GMT-0400 (Eastern Daylight Time),246895.60000038147,cobalt,900,I,m,m,None,640,440.0,200.0,90,3,2085.199999809265,244810.4000005722,9013,cobalt,NF,C,239799,239799,238163,239082,238165,240249,239599,239599,240249,36
37,test,1,inc,1,m,Thu Sep 11 2025 11:28:38 GMT-0400 (Eastern Daylight Time),248979.0,cherry,900,I,m,m,None,636,436.0,200.0,86,3,2072.5999994277954,246906.4000005722,9013,silver,NF,C,241883,241883,240259,241166,240260,242332,241682,241682,242332,37
38,test,1,con,1,z,Thu Sep 11 2025 11:28:38 GMT-0400 (Eastern Daylight Time),250912.30000019073,banana,800,I,z,z,None,589,389.0,200.0,1,3,1924.0,248988.30000019073,9013,banana,NF,C,243866,243866,242341,243149,242342,244265,243665,243665,244265,38
39,test,1,con,1,m,Thu Sep 11 2025 11:28:38 GMT-0400 (Eastern Daylight Time),252929.0,lead,800,I,m,m,None,664,455.0,209.0,121,3,2006.8999996185303,250922.10000038147,9013,lead,NF,C,245816,245816,244275,245082,244275,246282,245606,245606,246282,39
40,test,1,con,1,z,Thu Sep 11 2025 11:28:38 GMT-0400 (Eastern Daylight Time),254979.0,raisin,800,I,z,z,None,704,505.0,199.0,25,3,2041.3999996185303,252937.60000038147,9013,raisin,NF,C,247815,247815,246291,247099,246291,248332,247616,247616,248332,40
41,test,1,con,1,m,Thu Sep 11 2025 11:28:38 GMT-0400 (Eastern Daylight Time),257078.9000005722,zinc,1100,I,m,m,None,449,250.0,199.0,116,3,2090.800000190735,254988.10000038147,9013,zinc,NF,C,250166,250166,248341,249449,248342,250432,249966,249966,250432,41
42,test,1,inc,1,z,Thu Sep 11 2025 11:28:38 GMT-0400 (Eastern Daylight Time),259212.20000076294,silver,1000,I,z,z,None,592,393.0,199.0,31,3,2124.2000007629395,257088.0,9013,raisin,NF,C,252166,252166,250441,251449,250441,252565,251966,251966,252565,42
43,test,1,inc,1,m,Thu Sep 11 2025 11:28:38 GMT-0400 (Eastern Daylight Time),261295.70000076294,cherry,900,I,m,m,None,640,440.0,200.0,78,3,2074.0,259221.70000076294,9013,copper,NF,C,254199,254200,252575,253482,252575,254649,253999,253999,254649,43
44,test,1,inc,1,z,Thu Sep 11 2025 11:28:38 GMT-0400 (Eastern Daylight Time),263445.4000005722,copper,900,I,z,z,None,700,500.0,200.0,30,3,2140.0,261305.4000005722,9013,raisin,NF,C,256283,256283,254658,255566,254659,256799,256082,256082,256798,44
45,test,1,con,1,m,Thu Sep 11 2025 11:28:38 GMT-0400 (Eastern Daylight Time),265712.30000019073,gold,1100,I,m,m,None,623,423.0,200.0,100,3,2258.3999996185303,263453.9000005722,9013,gold,NF,C,258632,258633,256807,257916,256807,259065,258432,258432,259065,45
46,test,1,inc,1,m,Thu Sep 11 2025 11:28:38 GMT-0400 (Eastern Daylight Time),267962.30000019073,plum,1100,I,m,m,None,594,395.0,199.0,104,3,2234.699999809265,265727.60000038147,9013,gold,NF,C,260916,260916,259081,260199,259082,261315,260716,260716,261315,46
47,test,1,con,1,z,Thu Sep 11 2025 11:28:38 GMT-0400 (Eastern Daylight Time),270162.20000076294,orange,1100,I,z,z,None,554,354.0,200.0,20,3,2187.4000005722046,267974.80000019073,9013,orange,NF,C,263149,263149,261328,262432,261328,263515,262949,262949,263515,47
48,test,1,con,1,z,Thu Sep 11 2025 11:28:38 GMT-0400 (Eastern Daylight Time),272512.30000019073,cherry,1100,I,z,z,None,707,507.0,200.0,12,3,2340.300000190735,270172.0,9013,cherry,NF,C,265349,265349,263525,264632,263525,265865,265149,265149,265865,48
49,test,1,con,1,z,Thu Sep 11 2025 11:28:38 GMT-0400 (Eastern Daylight Time),274696.4000005722,raisin,1100,I,z,z,None,548,348.0,200.0,28,3,2174.199999809265,272522.20000076294,9013,raisin,NF,C,267699,267699,265875,266982,265876,268049,267499,267499,268049,49
50,test,1,inc,1,m,Thu Sep 11 2025 11:28:38 GMT-0400 (Eastern Daylight Time),276845.70000076294,cherry,900,I,m,m,None,693,493.0,200.0,70,3,2134.1000003814697,274711.60000038147,9013,bronze,NF,C,269699,269699,268065,268982,268066,270199,269499,269499,270199,50
51,test,1,inc,1,z,Thu Sep 11 2025 11:28:38 GMT-0400 (Eastern Daylight Time),278995.70000076294,silver,1000,I,z,z,None,602,402.0,200.0,15,3,2141.6000003814697,276854.10000038147,9013,cherry,NF,C,271933,271933,270207,271216,270208,272349,271732,271732,272349,51
52,test,1,inc,1,m,Thu Sep 11 2025 11:28:38 GMT-0400 (Eastern Daylight Time),281162.30000019073,plum,1100,I,m,m,None,528,328.0,200.0,120,3,2157.5999994277954,279004.70000076294,9013,zinc,NF,C,274183,274183,272358,273466,272358,274515,273982,273982,274515,52
53,test,1,con,1,z,Thu Sep 11 2025 11:28:38 GMT-0400 (Eastern Daylight Time),283212.4000005722,kiwi,900,I,z,z,None,610,410.0,200.0,50,3,2040.4000005722046,281172.0,9013,kiwi,NF,C,276149,276149,274525,275432,274525,276566,275949,275949,276565,53
54,test,1,inc,1,m,Thu Sep 11 2025 11:28:38 GMT-0400 (Eastern Daylight Time),285245.70000076294,pear,900,I,m,m,None,574,375.0,199.0,102,3,2016.6000003814697,283229.10000038147,9013,gold,NF,C,278216,278216,276582,277499,276583,278599,278016,278016,278599,54
55,test,1,con,1,m,Thu Sep 11 2025 11:28:38 GMT-0400 (Eastern Daylight Time),287145.60000038147,cobalt,800,I,m,m,None,562,362.0,200.0,89,3,1891.3999996185303,285254.20000076294,9013,cobalt,NF,C,280133,280133,278607,279416,278607,280499,279932,279932,280499,55
56,test,1,con,1,z,Thu Sep 11 2025 11:28:38 GMT-0400 (Eastern Daylight Time),289112.0,cherry,900,I,z,z,None,531,331.0,200.0,10,3,1956.7999992370605,287155.20000076294,9013,cherry,NF,C,282132,282132,280508,281416,280508,282465,281932,281932,282465,56
57,test,1,inc,1,m,Thu Sep 11 2025 11:28:38 GMT-0400 (Eastern Daylight Time),291312.30000019073,raisin,1100,I,m,m,None,556,356.0,200.0,72,3,2190.5999994277954,289121.70000076294,9013,bronze,NF,C,284299,284299,282475,283582,282475,284665,284099,284099,284665,57
58,test,1,con,1,m,Thu Sep 11 2025 11:28:38 GMT-0400 (Eastern Daylight Time),293145.60000038147,iron,800,I,m,m,None,495,296.0,199.0,105,3,1824.6999998092651,291320.9000005722,9013,iron,NF,C,286199,286199,284674,285482,284674,286499,285999,285999,286499,58
59,test,1,inc,1,m,Thu Sep 11 2025 11:28:38 GMT-0400 (Eastern Daylight Time),295145.60000038147,lime,800,I,m,m,None,662,462.0,200.0,125,3,1990.6000003814697,293155.0,9013,lead,NF,C,288033,288033,286508,287316,286508,288499,287832,287832,288499,59
60,test,1,inc,1,z,Thu Sep 11 2025 11:28:38 GMT-0400 (Eastern Daylight Time),297379.0,zinc,1000,I,z,z,None,688,488.0,200.0,47,3,2223.699999809265,295155.30000019073,9013,pear,NF,C,290232,290232,288508,289516,288509,290732,290032,290032,290732,60
61,test,1,inc,1,z,Thu Sep 11 2025 11:28:38 GMT-0400 (Eastern Daylight Time),299612.4000005722,cobalt,1100,I,z,z,None,592,393.0,199.0,24,3,2221.1000003814697,297391.30000019073,9013,orange,NF,C,292566,292566,290744,291849,290745,292965,292366,292366,292965,61
62,test,1,con,1,m,Thu Sep 11 2025 11:28:38 GMT-0400 (Eastern Daylight Time),301662.20000076294,iron,1100,I,m,m,None,408,208.0,200.0,108,3,2041.1000003814697,299621.10000038147,9013,iron,NF,C,294799,294799,292974,294082,292974,295015,294599,294599,295015,62
63,test,1,con,1,m,Thu Sep 11 2025 11:28:38 GMT-0400 (Eastern Daylight Time),303862.30000019073,silver,1100,I,m,m,None,551,351.0,200.0,84,3,2192.0,301670.30000019073,9013,silver,NF,C,296849,296849,295023,296132,295024,297215,296649,296649,297215,63
64,test,1,inc,1,z,Thu Sep 11 2025 11:28:38 GMT-0400 (Eastern Daylight Time),305945.30000019073,copper,900,I,z,z,None,645,445.0,200.0,22,3,2074.300000190735,303871.0,9013,orange,NF,C,298849,298849,297224,298132,297224,299298,298649,298649,299298,64
65,test,1,con,1,m,Thu Sep 11 2025 11:28:38 GMT-0400 (Eastern Daylight Time),308279.20000076294,bronze,1100,I,m,m,None,698,499.0,199.0,68,3,2327.9000005722046,305951.30000019073,9013,bronze,NF,C,301133,301133,299304,300415,299305,301632,300932,300933,301632,65
66,test,1,con,1,z,Thu Sep 11 2025 11:28:38 GMT-0400 (Eastern Daylight Time),310295.5,raisin,900,I,z,z,None,580,381.0,199.0,26,3,2006.7999992370605,308288.70000076294,9013,raisin,NF,C,303266,303266,301642,302549,301642,303649,303066,303066,303649,66
67,test,1,inc,1,m,Thu Sep 11 2025 11:28:38 GMT-0400 (Eastern Daylight Time),312328.9000005722,banana,800,I,m,m,None,696,496.0,200.0,77,3,2025.3000001907349,310303.60000038147,9013,copper,NF,C,305183,305183,303657,304466,303657,305682,304982,304982,305682,67
68,test,1,inc,1,z,Thu Sep 11 2025 11:28:38 GMT-0400 (Eastern Daylight Time),314579.0,cobalt,1100,I,z,z,None,602,403.0,199.0,32,3,2241.0999994277954,312337.9000005722,9013,raisin,NF,C,307516,307516,305691,306799,305691,307932,307316,307316,307932,68
69,test,1,con,1,m,Thu Sep 11 2025 11:28:38 GMT-0400 (Eastern Daylight Time),316728.80000019073,bronze,1000,I,m,m,None,612,413.0,199.0,67,3,2141.3999996185303,314587.4000005722,9013,bronze,NF,C,309666,309666,307940,308949,307941,310082,309466,309466,310082,69
70,test,1,inc,1,m,Thu Sep 11 2025 11:28:38 GMT-0400 (Eastern Daylight Time),318879.0,kiwi,1000,I,m,m,None,607,408.0,199.0,103,3,2141.7999992370605,316737.20000076294,9013,gold,NF,C,311816,311816,310090,311099,310091,312232,311616,311616,312232,70
71,test,1,inc,1,z,Thu Sep 11 2025 11:28:38 GMT-0400 (Eastern Daylight Time),321045.70000076294,iron,900,I,z,z,None,716,517.0,199.0,62,3,2157.5,318888.20000076294,9013,plum,NF,C,313866,313866,312241,313149,312242,314399,313666,313666,314399,71
72,test,1,inc,1,m,Thu Sep 11 2025 11:28:38 GMT-0400 (Eastern Daylight Time),323012.30000019073,banana,800,I,m,m,None,617,418.0,199.0,93,3,1955.5999994277954,321056.70000076294,9013,cobalt,NF,C,315933,315933,314410,315216,314410,316365,315732,315733,316365,72
73,test,1,con,1,z,Thu Sep 11 2025 11:28:38 GMT-0400 (Eastern Daylight Time),325245.80000019073,plum,1000,I,z,z,None,692,492.0,200.0,59,3,2223.699999809265,323022.10000038147,9013,plum,NF,C,318099,318099,316375,317383,316375,318599,317899,317899,318599,73
74,test,1,con,1,z,Thu Sep 11 2025 11:28:38 GMT-0400 (Eastern Daylight Time),327262.20000076294,lime,900,I,z,z,None,573,374.0,199.0,34,3,2008.7000007629395,325253.5,9013,lime,NF,C,320233,320233,318606,319516,318607,320615,320032,320033,320615,74
75,test,1,con,1,m,Thu Sep 11 2025 11:28:38 GMT-0400 (Eastern Daylight Time),329379.10000038147,cobalt,1000,I,m,m,None,571,371.0,200.0,91,3,2102.800000190735,327276.30000019073,9013,cobalt,NF,C,322349,322349,320629,321632,320630,322732,322149,322149,322732,75
76,test,1,inc,1,m,Thu Sep 11 2025 11:28:38 GMT-0400 (Eastern Daylight Time),331429.0,cherry,900,I,m,m,None,600,401.0,199.0,94,3,2041.0,329388.0,9013,cobalt,NF,C,324366,324366,322741,323649,322741,324782,324166,324166,324782,76
77,test,1,inc,1,m,Thu Sep 11 2025 11:28:38 GMT-0400 (Eastern Daylight Time),333512.0,pear,900,I,m,m,None,646,447.0,199.0,118,3,2073.2999992370605,331438.70000076294,9013,zinc,NF,C,326416,326416,324792,325699,324792,326865,326216,326216,326865,77
78,test,1,inc,1,z,Thu Sep 11 2025 11:28:38 GMT-0400 (Eastern Daylight Time),335779.0,cobalt,1100,I,z,z,None,620,420.0,200.0,16,3,2256.7999992370605,333522.20000076294,9013,cherry,NF,C,328699,328699,326875,327983,326876,329132,328499,328499,329132,78
79,test,1,con,1,m,Thu Sep 11 2025 11:28:38 GMT-0400 (Eastern Daylight Time),337745.80000019073,bronze,800,I,m,m,None,621,422.0,199.0,65,3,1958.6999998092651,335787.10000038147,9013,bronze,NF,C,330665,330665,329140,329949,329141,331099,330466,330466,331099,79
80,test,1,inc,1,z,Thu Sep 11 2025 11:28:38 GMT-0400 (Eastern Daylight Time),339862.30000019073,iron,900,I,z,z,None,666,467.0,199.0,54,3,2108.5,337753.80000019073,9013,kiwi,NF,C,332732,332733,331107,332016,331107,333215,332532,332533,333215,80
81,test,1,inc,1,z,Thu Sep 11 2025 11:28:38 GMT-0400 (Eastern Daylight Time),341829.10000038147,bronze,800,I,z,z,None,617,418.0,199.0,13,3,1958.1999998092651,339870.9000005722,9013,cherry,NF,C,334749,334749,333224,334033,333224,335182,334549,334549,335182,81
82,test,1,con,1,z,Thu Sep 11 2025 11:28:38 GMT-0400 (Eastern Daylight Time),343812.30000019073,orange,800,I,z,z,None,634,435.0,199.0,17,3,1971.0999994277954,341841.20000076294,9013,orange,NF,C,336716,336716,335194,335999,335195,337165,336516,336516,337165,82
83,test,1,inc,1,z,Thu Sep 11 2025 11:28:38 GMT-0400 (Eastern Daylight Time),345745.70000076294,gold,800,I,z,z,None,588,388.0,200.0,61,3,1923.5,343822.20000076294,9013,plum,NF,C,338699,338699,337175,337983,337176,339099,338499,338499,339099,83
84,test,1,inc,1,m,Thu Sep 11 2025 11:28:38 GMT-0400 (Eastern Daylight Time),347829.0,orange,1000,I,m,m,None,534,335.0,199.0,71,3,2074.699999809265,345754.30000019073,9013,bronze,NF,C,340832,340832,339107,340116,339108,341182,340632,340633,341182,84
85,test,1,con,1,z,Thu Sep 11 2025 11:28:38 GMT-0400 (Eastern Daylight Time),349928.80000019073,kiwi,1000,I,z,z,None,563,364.0,199.0,51,3,2091.3999996185303,347837.4000005722,9013,kiwi,NF,C,342916,342916,341190,342199,341191,343282,342716,342716,343282,85
86,test,1,con,1,m,Thu Sep 11 2025 11:28:38 GMT-0400 (Eastern Daylight Time),351862.4000005722,silver,800,I,m,m,None,582,383.0,199.0,81,3,1922.9000005722046,349939.5,9013,silver,NF,C,344816,344816,343293,344099,343293,345215,344616,344616,345215,86
87,test,1,con,1,m,Thu Sep 11 2025 11:28:38 GMT-0400 (Eastern Daylight Time),353928.80000019073,lead,1000,I,m,m,None,530,330.0,200.0,123,3,2057.5,351871.30000019073,9013,lead,NF,C,346949,346949,345224,346233,345225,347282,346749,346749,347282,87
88,test,1,con,1,z,Thu Sep 11 2025 11:28:38 GMT-0400 (Eastern Daylight Time),355945.60000038147,pear,1000,I,z,z,None,478,279.0,199.0,43,3,2007.5,353938.10000038147,9013,pear,NF,C,349016,349016,347291,348299,347292,349299,348816,348816,349299,88
89,test,1,con,1,m,Thu Sep 11 2025 11:28:38 GMT-0400 (Eastern Daylight Time),358045.80000019073,cobalt,1100,I,m,m,None,457,258.0,199.0,92,3,2090.5999994277954,355955.20000076294,9013,cobalt,NF,C,351133,351133,349308,350416,349308,351399,350933,350933,351399,89
90,test,1,con,1,z,Thu Sep 11 2025 11:28:38 GMT-0400 (Eastern Daylight Time),360145.70000076294,lime,1000,I,z,z,None,555,355.0,200.0,35,3,2091.2000007629395,358054.5,9013,lime,NF,C,353133,353133,351408,352416,351408,353499,352932,352932,353499,90
91,test,1,con,1,m,Thu Sep 11 2025 11:28:38 GMT-0400 (Eastern Daylight Time),362062.30000019073,zinc,900,I,m,m,None,473,274.0,199.0,114,3,1907.3999996185303,360154.9000005722,9013,zinc,NF,C,355133,355133,353508,354416,353508,355415,354932,354933,355415,91
92,test,1,inc,1,m,Thu Sep 11 2025 11:28:38 GMT-0400 (Eastern Daylight Time),364229.10000038147,kiwi,1000,I,m,m,None,617,417.0,200.0,127,3,2156.199999809265,362072.9000005722,9013,lead,NF,C,357149,357150,355426,356433,355426,357582,356949,356949,357582,92
93,test,1,con,1,z,Thu Sep 11 2025 11:28:38 GMT-0400 (Eastern Daylight Time),366328.80000019073,raisin,1000,I,z,z,None,562,363.0,199.0,27,3,2090.0,364238.80000019073,9013,raisin,NF,C,359316,359316,357592,358599,357592,359682,359116,359116,359682,93
94,test,1,con,1,z,Thu Sep 11 2025 11:28:38 GMT-0400 (Eastern Daylight Time),368362.30000019073,lime,800,I,z,z,None,694,495.0,199.0,33,3,2024.0999994277954,366338.20000076294,9013,lime,NF,C,361216,361216,359691,360499,359692,361715,361016,361016,361715,94
95,test,1,con,1,z,Thu Sep 11 2025 11:28:38 GMT-0400 (Eastern Daylight Time),370378.9000005722,plum,800,I,z,z,None,679,479.0,200.0,57,3,2005.0,368373.9000005722,9013,plum,NF,C,363249,363249,361727,362532,361727,363732,363049,363049,363732,95
96,test,1,con,1,m,Thu Sep 11 2025 11:28:38 GMT-0400 (Eastern Daylight Time),372279.10000038147,copper,900,I,m,m,None,449,250.0,199.0,74,3,1891.3000001907349,370387.80000019073,9013,copper,NF,C,365366,365366,363741,364649,363741,365632,365166,365166,365632,96
97,test,1,inc,1,m,Thu Sep 11 2025 11:28:38 GMT-0400 (Eastern Daylight Time),374312.10000038147,pear,900,I,m,m,None,596,397.0,199.0,126,3,2023.5,372288.60000038147,9013,lead,NF,C,367266,367266,365642,366549,365642,367665,367066,367066,367665,97
98,test,1,inc,1,z,Thu Sep 11 2025 11:28:38 GMT-0400 (Eastern Daylight Time),376512.4000005722,iron,900,I,z,z,None,756,556.0,200.0,46,3,2191.9000005722046,374320.5,9013,pear,NF,C,369299,369299,367674,368583,367674,369866,369099,369099,369865,98
99,test,1,con,1,m,Thu Sep 11 2025 11:28:38 GMT-0400 (Eastern Daylight Time),378728.80000019073,zinc,1000,I,m,m,None,679,479.0,200.0,115,3,2204.800000190735,376524.0,9013,zinc,NF,C,371600,371600,369877,370883,369877,372082,371399,371399,372082,99
100,test,1,inc,1,m,Thu Sep 11 2025 11:28:38 GMT-0400 (Eastern Daylight Time),380695.60000038147,lime,800,I,m,m,None,631,432.0,199.0,101,3,1952.8000001907349,378742.80000019073,9013,gold,NF,C,373616,373616,372096,372899,372096,374049,373416,373416,374049,100
101,test,1,con,1,m,Thu Sep 11 2025 11:28:38 GMT-0400 (Eastern Daylight Time),382745.70000076294,bronze,900,I,m,m,None,611,412.0,199.0,66,3,2039.4000005722046,380706.30000019073,9013,bronze,NF,C,375682,375683,374059,374965,374060,376099,375483,375483,376099,101
102,test,1,inc,1,z,Thu Sep 11 2025 11:28:38 GMT-0400 (Eastern Daylight Time),384945.60000038147,lead,1100,I,z,z,None,553,354.0,199.0,40,3,2189.699999809265,382755.9000005722,9013,lime,NF,C,377933,377933,376109,377216,376109,378299,377732,377733,378299,102
103,test,1,con,1,m,Thu Sep 11 2025 11:28:38 GMT-0400 (Eastern Daylight Time),387062.20000076294,iron,900,I,m,m,None,667,467.0,200.0,106,3,2103.9000005722046,384958.30000019073,9013,iron,NF,C,379932,379932,378311,379216,378312,380415,379732,379732,380415,103
104,test,1,con,1,z,Thu Sep 11 2025 11:28:38 GMT-0400 (Eastern Daylight Time),389245.80000019073,lime,1100,I,z,z,None,542,342.0,200.0,36,3,2174.5999994277954,387071.20000076294,9013,lime,NF,C,382249,382249,380424,381532,380425,382599,382049,382049,382599,104
105,test,1,inc,1,m,Thu Sep 11 2025 11:28:38 GMT-0400 (Eastern Daylight Time),391279.10000038147,banana,800,I,m,m,None,692,492.0,200.0,85,3,2022.1000003814697,389257.0,9013,silver,NF,C,384132,384132,382610,383416,382610,384632,383932,383932,384632,105
106,test,1,inc,1,z,Thu Sep 11 2025 11:28:38 GMT-0400 (Eastern Daylight Time),393445.80000019073,silver,1000,I,z,z,None,617,418.0,199.0,23,3,2157.699999809265,391288.10000038147,9013,orange,NF,C,386365,386365,384641,385649,384641,386799,386166,386166,386799,106
107,test,1,con,1,m,Thu Sep 11 2025 11:28:38 GMT-0400 (Eastern Daylight Time),395312.4000005722,gold,800,I,m,m,None,522,323.0,199.0,97,3,1857.9000005722046,393454.5,9013,gold,NF,C,388333,388333,386807,387616,386808,388665,388132,388133,388665,107
108,test,1,con,1,m,Thu Sep 11 2025 11:28:38 GMT-0400 (Eastern Daylight Time),397612.4000005722,copper,1100,I,m,m,None,660,460.0,200.0,76,3,2289.199999809265,395323.20000076294,9013,copper,NF,C,390499,390499,388676,389783,388677,390965,390299,390299,390965,108
109,test,1,inc,1,m,Thu Sep 11 2025 11:28:38 GMT-0400 (Eastern Daylight Time),399879.0,raisin,1100,I,m,m,None,617,417.0,200.0,96,3,2257.8999996185303,397621.10000038147,9013,cobalt,NF,C,392799,392799,390974,392083,390975,393232,392599,392599,393232,109
110,test,1,inc,1,m,Thu Sep 11 2025 11:28:38 GMT-0400 (Eastern Daylight Time),402012.4000005722,orange,1000,I,m,m,None,593,394.0,199.0,87,3,2124.0,399888.4000005722,9013,silver,NF,C,394966,394966,393241,394249,393242,395365,394765,394766,395365,110
111,test,1,inc,1,z,Thu Sep 11 2025 11:28:38 GMT-0400 (Eastern Daylight Time),404195.80000019073,silver,1000,I,z,z,None,636,436.0,200.0,7,3,2175.0,402020.80000019073,9013,banana,NF,C,397099,397099,395374,396382,395374,397549,396899,396899,397549,111
112,test,1,inc,1,z,Thu Sep 11 2025 11:28:38 GMT-0400 (Eastern Daylight Time),406279.0,copper,900,I,z,z,None,632,433.0,199.0,6,3,2073.5999994277954,404205.4000005722,9013,banana,NF,C,399183,399183,397558,398466,397559,399632,398983,398983,399632,112
113,test,1,con,1,m,Thu Sep 11 2025 11:28:38 GMT-0400 (Eastern Daylight Time),408429.0,iron,1000,I,m,m,None,608,409.0,199.0,107,3,2141.3999996185303,406287.60000038147,9013,iron,NF,C,401366,401366,399641,400649,399641,401782,401166,401166,401782,113
114,test,1,con,1,z,Thu Sep 11 2025 11:28:38 GMT-0400 (Eastern Daylight Time),410479.10000038147,orange,900,I,z,z,None,606,407.0,199.0,18,3,2038.1000003814697,408441.0,9013,orange,NF,C,403416,403416,401794,402699,401794,403832,403216,403216,403832,114
115,test,1,con,1,z,Thu Sep 11 2025 11:28:38 GMT-0400 (Eastern Daylight Time),412662.4000005722,plum,1100,I,z,z,None,533,334.0,199.0,60,3,2173.5,410488.9000005722,9013,plum,NF,C,405666,405666,403842,404949,403842,406016,405466,405466,406015,115
116,test,1,inc,1,z,Thu Sep 11 2025 11:28:38 GMT-0400 (Eastern Daylight Time),414679.10000038147,gold,800,I,z,z,None,683,483.0,200.0,53,3,2006.6999998092651,412672.4000005722,9013,kiwi,NF,C,407549,407549,406025,406832,406026,408032,407349,407349,408032,116
117,test,1,inc,1,m,Thu Sep 11 2025 11:28:38 GMT-0400 (Eastern Daylight Time),416845.80000019073,kiwi,1000,I,m,m,None,624,425.0,199.0,119,3,2159.199999809265,414686.60000038147,9013,zinc,NF,C,409766,409766,408040,409049,408040,410199,409566,409566,410199,117
118,test,1,con,1,z,Thu Sep 11 2025 11:28:38 GMT-0400 (Eastern Daylight Time),419128.80000019073,banana,1000,I,z,z,None,746,546.0,200.0,3,3,2274.0999994277954,416854.70000076294,9013,banana,NF,C,411933,411933,410208,411216,410208,412482,411732,411732,412482,118
119,test,1,inc,1,z,Thu Sep 11 2025 11:28:38 GMT-0400 (Eastern Daylight Time),421179.10000038147,copper,900,I,z,z,None,611,412.0,199.0,14,3,2042.6000003814697,419136.5,9013,cherry,NF,C,414116,414116,412490,413399,412490,414532,413916,413916,414532,119
120,test,1,inc,1,m,Thu Sep 11 2025 11:28:38 GMT-0400 (Eastern Daylight Time),423378.80000019073,plum,1100,I,m,m,None,552,353.0,199.0,112,3,2191.199999809265,421187.60000038147,9013,iron,NF,C,416366,416366,414541,415649,414541,416732,416166,416166,416732,120
121,test,1,inc,1,m,Thu Sep 11 2025 11:28:38 GMT-0400 (Eastern Daylight Time),425595.80000019073,raisin,1100,I,m,m,None,576,377.0,199.0,80,3,2209.5999994277954,423386.20000076294,9013,copper,NF,C,418566,418566,416739,417849,416740,418949,418366,418366,418949,121
122,test,1,con,1,m,Thu Sep 11 2025 11:28:38 GMT-0400 (Eastern Daylight Time),427545.60000038147,gold,900,I,m,m,None,511,312.0,199.0,98,3,1935.6999998092651,425609.9000005722,9013,gold,NF,C,420583,420583,418963,419866,418963,420899,420382,420383,420899,122
123,test,1,inc,1,z,Thu Sep 11 2025 11:28:38 GMT-0400 (Eastern Daylight Time),429495.5,bronze,800,I,z,z,None,613,414.0,199.0,29,3,1939.1999998092651,427556.30000019073,9013,raisin,NF,C,422432,422433,420909,421716,420910,422849,422233,422233,422849,123
124,test,1,con,1,m,Thu Sep 11 2025 11:28:38 GMT-0400 (Eastern Daylight Time),431461.9000005722,zinc,800,I,m,m,None,631,432.0,199.0,113,3,1959.6999998092651,429502.20000076294,9013,zinc,NF,C,424383,424383,422855,423666,422856,424815,424182,424183,424815,124
125,test,1,inc,1,m,Thu Sep 11 2025 11:28:38 GMT-0400 (Eastern Daylight Time),433695.80000019073,plum,1100,I,m,m,None,591,391.0,200.0,128,3,2228.8999996185303,431466.9000005722,9013,lead,NF,C,426649,426649,424820,425932,424820,427049,426449,426449,427049,125
126,test,1,inc,1,z,Thu Sep 11 2025 11:28:38 GMT-0400 (Eastern Daylight Time),435645.80000019073,gold,800,I,z,z,None,608,408.0,200.0,37,3,1940.6999998092651,433705.10000038147,9013,lime,NF,C,428583,428583,427058,427866,427058,428999,428382,428382,428999,126
127,test,1,con,1,m,Thu Sep 11 2025 11:28:38 GMT-0400 (Eastern Daylight Time),437779.20000076294,copper,1000,I,m,m,None,585,386.0,199.0,75,3,2123.2000007629395,435656.0,9013,copper,NF,C,430732,430733,429009,430016,429009,431132,430533,430533,431132,127
128,test,1,con,1,z,Thu Sep 11 2025 11:28:38 GMT-0400 (Eastern Daylight Time),440062.5,pear,1100,I,z,z,None,641,442.0,199.0,44,3,2274.3999996185303,437788.10000038147,9013,pear,NF,C,432966,432966,431141,432249,431141,433416,432766,432766,433415,128
