Q,Q1,Q2,Q3,Q4,acc_sum,block,block_c,correct,correct_response,datetime,endtime,project,response,response_time,row_sel,session_number,squiggle1,squiggle1x,squiggle1y,squiggle2,squiggle2x,squiggle2y,squiggle3,squiggle3x,squiggle3y,squiggle4,squiggle4x,squiggle4y,start_end,starttime,subject_id,target_congruent,task,task_vers,testsquiggle,testsquigglex,testsquiggley,time_practice_delay,time_practice_fixation,time_practice_stimuli,time_practice_study,time_test_delay,time_test_fixation,time_test_stimuli,time_test_study,trial
1,1,0,0,0,1,prac,1,1,z,Wed Mar 04 2026 16:16:43 GMT-0600 (Central Standard Time),187508.0,O,z,1552,1,1,116.bmp,-120,-120,117.bmp,120,-120,118.bmp,-120,120,119.bmp,120,120,10373.59999999404,177134.40000000596,7735,yes,SM,A,116.bmp,-120,-120,181062,175037,183078,177048,,,,,1
3,0,0,1,0,2,prac,1,1,m,Wed Mar 04 2026 16:16:43 GMT-0600 (Central Standard Time),198205.60000000894,O,m,1869,2,1,120.bmp,-120,-120,121.bmp,120,-120,122.bmp,-120,120,123.bmp,120,120,10687.10000000894,187518.5,7735,no,SM,A,123.bmp,-120,120,191441,185421,193457,187426,,,,,2
4,0,0,0,1,3,prac,1,1,m,Wed Mar 04 2026 16:16:43 GMT-0600 (Central Standard Time),208986.10000000894,O,m,1962,3,1,124.bmp,-120,-120,125.bmp,120,-120,126.bmp,-120,120,127.bmp,120,120,10773.5,198212.60000000894,7735,no,SM,A,124.bmp,120,120,202138,196115,204155,198123,,,,,3
2,0,1,0,0,3,prac,1,0,z,Wed Mar 04 2026 16:16:43 GMT-0600 (Central Standard Time),219815.60000000894,O,None,2014,4,1,128.bmp,-120,-120,129.bmp,120,-120,130.bmp,-120,120,131.bmp,120,120,10823.70000000298,208991.90000000596,7735,yes,SM,A,129.bmp,120,-120,212920,206894,214936,208904,,,,,4
3,0,0,1,0,3,prac,1,0,z,Wed Mar 04 2026 16:16:43 GMT-0600 (Central Standard Time),230644.80000001192,O,None,2014,5,1,132.bmp,-120,-120,133.bmp,120,-120,134.bmp,-120,120,135.bmp,120,120,10823.0,219821.80000001192,7735,yes,SM,A,134.bmp,-120,120,223749,217724,225765,219734,,,,,5
1,1,0,0,0,3,prac,1,0,m,Wed Mar 04 2026 16:16:43 GMT-0600 (Central Standard Time),240591.40000000596,O,z,1142,6,1,136.bmp,-120,-120,137.bmp,120,-120,138.bmp,-120,120,139.bmp,120,120,9942.40000000596,230649.0,7735,no,SM,A,139.bmp,-120,-120,234562,228551,236577,230561,,,,,6
2,0,1,0,0,3,prac,1,0,m,Wed Mar 04 2026 16:16:43 GMT-0600 (Central Standard Time),251405.10000000894,O,None,2015,7,1,140.bmp,-120,-120,141.bmp,120,-120,142.bmp,-120,120,143.bmp,120,120,10809.40000000596,240595.70000000298,7735,no,SM,A,140.bmp,120,-120,244524,238498,246525,240510,,,,,7
4,0,0,0,1,3,prac,1,0,z,Wed Mar 04 2026 16:16:43 GMT-0600 (Central Standard Time),261933.90000000596,O,m,1709,8,1,144.bmp,-120,-120,145.bmp,120,-120,146.bmp,-120,120,147.bmp,120,120,10524.70000000298,251409.20000000298,7735,yes,SM,A,147.bmp,120,120,255338,249312,257354,251323,,,,,8
1,1,0,0,0,1,prac,2,1,z,Wed Mar 04 2026 16:16:43 GMT-0600 (Central Standard Time),274581.40000000596,O,z,1568,1,1,116.bmp,-120,-120,117.bmp,120,-120,118.bmp,-120,120,119.bmp,120,120,10390.90000000596,264190.5,7735,yes,SM,A,116.bmp,-120,-120,268117,262093,270134,264102,,,,,1
3,0,0,1,0,1,prac,2,0,m,Wed Mar 04 2026 16:16:43 GMT-0600 (Central Standard Time),285411.700000003,O,None,2015,2,1,120.bmp,-120,-120,121.bmp,120,-120,122.bmp,-120,120,123.bmp,120,120,10824.70000000298,274587.0,7735,no,SM,A,123.bmp,-120,120,278514,272489,280530,274500,,,,,2
4,0,0,0,1,1,prac,2,0,m,Wed Mar 04 2026 16:16:43 GMT-0600 (Central Standard Time),295790.8000000119,O,z,1557,3,1,124.bmp,-120,-120,125.bmp,120,-120,126.bmp,-120,120,127.bmp,120,120,10375.40000000596,285415.40000000596,7735,no,SM,A,124.bmp,120,120,289344,283318,291361,285329,,,,,3
2,0,1,0,0,1,prac,2,0,z,Wed Mar 04 2026 16:16:43 GMT-0600 (Central Standard Time),306003.8000000119,O,m,1395,4,1,128.bmp,-120,-120,129.bmp,120,-120,130.bmp,-120,120,131.bmp,120,120,10209.40000000596,295794.40000000596,7735,yes,SM,A,129.bmp,120,-120,299726,293697,301739,295708,,,,,4
3,0,0,1,0,1,prac,2,0,z,Wed Mar 04 2026 16:16:43 GMT-0600 (Central Standard Time),316300.0,O,m,1470,5,1,132.bmp,-120,-120,133.bmp,120,-120,134.bmp,-120,120,135.bmp,120,120,10289.5,306010.5,7735,yes,SM,A,134.bmp,-120,120,309940,303913,311953,305922,,,,,5
1,1,0,0,0,1,prac,2,0,m,Wed Mar 04 2026 16:16:43 GMT-0600 (Central Standard Time),326764.5,O,z,1643,6,1,136.bmp,-120,-120,137.bmp,120,-120,138.bmp,-120,120,139.bmp,120,120,10457.29999999702,316307.200000003,7735,no,SM,A,139.bmp,-120,-120,320235,314209,322251,316219,,,,,6
2,0,1,0,0,2,prac,2,1,m,Wed Mar 04 2026 16:16:43 GMT-0600 (Central Standard Time),336796.200000003,O,m,1219,7,1,140.bmp,-120,-120,141.bmp,120,-120,142.bmp,-120,120,143.bmp,120,120,10025.59999999404,326770.60000000894,7735,no,SM,A,140.bmp,120,-120,330697,324673,332715,326683,,,,,7
4,0,0,0,1,2,prac,2,0,z,Wed Mar 04 2026 16:16:43 GMT-0600 (Central Standard Time),347325.3000000119,O,m,1702,8,1,144.bmp,-120,-120,145.bmp,120,-120,146.bmp,-120,120,147.bmp,120,120,10524.300000011921,336801.0,7735,yes,SM,A,147.bmp,120,120,340728,334703,342743,336712,,,,,8
1,1,0,0,0,1,prac,3,1,z,Wed Mar 04 2026 16:16:43 GMT-0600 (Central Standard Time),365968.5,O,z,1707,1,1,116.bmp,-120,-120,117.bmp,120,-120,118.bmp,-120,120,119.bmp,120,120,10528.09999999404,355440.40000000596,7735,yes,SM,A,116.bmp,-120,-120,359374,353343,361387,355355,,,,,1
3,0,0,1,0,2,prac,3,1,m,Wed Mar 04 2026 16:16:43 GMT-0600 (Central Standard Time),376614.0,O,m,1824,2,1,120.bmp,-120,-120,121.bmp,120,-120,122.bmp,-120,120,123.bmp,120,120,10642.5,365971.5,7735,no,SM,A,123.bmp,-120,120,369902,363874,371918,365886,,,,,2
4,0,0,0,1,3,prac,3,1,m,Wed Mar 04 2026 16:16:43 GMT-0600 (Central Standard Time),386978.60000000894,O,m,1539,3,1,124.bmp,-120,-120,125.bmp,120,-120,126.bmp,-120,120,127.bmp,120,120,10358.10000000894,376620.5,7735,no,SM,A,124.bmp,120,120,380549,374523,382564,376533,,,,,3
2,0,1,0,0,3,prac,3,0,z,Wed Mar 04 2026 16:16:43 GMT-0600 (Central Standard Time),397457.90000000596,O,m,1665,4,1,128.bmp,-120,-120,129.bmp,120,-120,130.bmp,-120,120,131.bmp,120,120,10475.90000000596,386982.0,7735,yes,SM,A,129.bmp,120,-120,390913,384884,392929,386897,,,,,4
3,0,0,1,0,4,prac,3,1,z,Wed Mar 04 2026 16:16:43 GMT-0600 (Central Standard Time),407838.5,O,z,1549,5,1,132.bmp,-120,-120,133.bmp,120,-120,134.bmp,-120,120,135.bmp,120,120,10377.79999999702,397460.700000003,7735,yes,SM,A,134.bmp,-120,120,401392,395363,403408,397375,,,,,5
1,1,0,0,0,4,prac,3,0,m,Wed Mar 04 2026 16:16:43 GMT-0600 (Central Standard Time),418235.3000000119,O,z,1579,6,1,136.bmp,-120,-120,137.bmp,120,-120,138.bmp,-120,120,139.bmp,120,120,10393.60000000894,407841.700000003,7735,no,SM,A,139.bmp,-120,-120,411771,405744,413788,407755,,,,,6
2,0,1,0,0,5,prac,3,1,m,Wed Mar 04 2026 16:16:43 GMT-0600 (Central Standard Time),428797.5,O,m,1743,7,1,140.bmp,-120,-120,141.bmp,120,-120,142.bmp,-120,120,143.bmp,120,120,10557.0,418240.5,7735,no,SM,A,140.bmp,120,-120,422168,416143,424184,418152,,,,,7
4,0,0,0,1,5,prac,3,0,z,Wed Mar 04 2026 16:16:43 GMT-0600 (Central Standard Time),439045.0,O,m,1427,8,1,144.bmp,-120,-120,145.bmp,120,-120,146.bmp,-120,120,147.bmp,120,120,10241.59999999404,428803.40000000596,7735,yes,SM,A,147.bmp,120,120,432731,426706,434747,428717,,,,,8
4,0,0,0,1,1,test,1,1,m,Wed Mar 04 2026 16:16:43 GMT-0600 (Central Standard Time),497925.60000000894,O,m,1659,1,1,148.bmp,-120,-120,149.bmp,120,-120,150.bmp,-120,120,143.bmp,120,120,9692.70000000298,488232.90000000596,7735,no,SM,A,150.bmp,120,120,432731,426706,434747,428717,492162.0,486135.0,494163.0,488148.0,1
2,0,1,0,0,2,test,1,1,m,Wed Mar 04 2026 16:16:43 GMT-0600 (Central Standard Time),507523.10000000894,O,m,1548,2,1,101.bmp,-120,-120,102.bmp,120,-120,103.bmp,-120,120,104.bmp,120,120,9594.70000000298,497928.40000000596,7735,no,SM,A,103.bmp,120,-120,432731,426706,434747,428717,501861.0,495831.0,503877.0,497845.0,2
1,1,0,0,0,3,test,1,1,z,Wed Mar 04 2026 16:16:43 GMT-0600 (Central Standard Time),517020.200000003,O,z,1445,3,1,105.bmp,-120,-120,106.bmp,120,-120,107.bmp,-120,120,108.bmp,120,120,9492.59999999404,507527.60000000894,7735,yes,SM,A,105.bmp,-120,-120,432731,426706,434747,428717,511456.0,505430.0,513473.0,507443.0,3
3,0,0,1,0,3,test,1,0,m,Wed Mar 04 2026 16:16:43 GMT-0600 (Central Standard Time),527084.400000006,O,None,2015,4,1,109.bmp,-120,-120,110.bmp,120,-120,111.bmp,-120,120,112.bmp,120,120,10059.59999999404,517024.8000000119,7735,no,SM,A,109.bmp,-120,120,432731,426706,434747,428717,520953.0,514927.0,522971.0,516939.0,4
2,0,1,0,0,4,test,1,1,z,Wed Mar 04 2026 16:16:43 GMT-0600 (Central Standard Time),536563.200000003,O,z,1428,5,1,113.bmp,-120,-120,114.bmp,120,-120,115.bmp,-120,120,116.bmp,120,120,9475.09999999404,527088.1000000089,7735,yes,SM,A,114.bmp,120,-120,432731,426706,434747,428717,531016.0,524990.0,533035.0,527000.0,5
3,0,0,1,0,5,test,1,1,z,Wed Mar 04 2026 16:16:43 GMT-0600 (Central Standard Time),546093.5,O,z,1492,6,1,117.bmp,-120,-120,118.bmp,120,-120,119.bmp,-120,120,120.bmp,120,120,9526.0,536567.5,7735,yes,SM,A,119.bmp,-120,120,432731,426706,434747,428717,540496.0,534470.0,542497.0,536483.0,6
4,0,0,0,1,6,test,1,1,z,Wed Mar 04 2026 16:16:43 GMT-0600 (Central Standard Time),555757.700000003,O,z,1610,7,1,121.bmp,-120,-120,122.bmp,120,-120,123.bmp,-120,120,124.bmp,120,120,9660.20000000298,546097.5,7735,yes,SM,A,124.bmp,120,120,432731,426706,434747,428717,550028.0,544000.0,552044.0,546013.0,7
2,0,1,0,0,7,test,1,1,m,Wed Mar 04 2026 16:16:43 GMT-0600 (Central Standard Time),565571.400000006,O,m,1772,8,1,125.bmp,-120,-120,126.bmp,120,-120,127.bmp,-120,120,128.bmp,120,120,9809.29999999702,555762.1000000089,7735,no,SM,A,125.bmp,120,-120,432731,426706,434747,428717,559690.0,553664.0,561691.0,555676.0,8
3,0,0,1,0,8,test,1,1,m,Wed Mar 04 2026 16:16:43 GMT-0600 (Central Standard Time),575201.400000006,O,m,1573,9,1,129.bmp,-120,-120,130.bmp,120,-120,131.bmp,-120,120,132.bmp,120,120,9626.40000000596,565575.0,7735,no,SM,A,130.bmp,-120,120,432731,426706,434747,428717,569504.0,563477.0,571522.0,565490.0,9
4,0,0,0,1,9,test,1,1,z,Wed Mar 04 2026 16:16:43 GMT-0600 (Central Standard Time),584665.3000000119,O,z,1408,10,1,137.bmp,-120,-120,138.bmp,120,-120,139.bmp,-120,120,140.bmp,120,120,9460.10000000894,575205.200000003,7735,yes,SM,A,140.bmp,120,120,432731,426706,434747,428717,579135.0,573107.0,581151.0,575121.0,10
3,0,0,1,0,9,test,1,0,z,Wed Mar 04 2026 16:16:43 GMT-0600 (Central Standard Time),594261.700000003,O,m,1544,11,1,133.bmp,-120,-120,134.bmp,120,-120,135.bmp,-120,120,136.bmp,120,120,9594.20000000298,584667.5,7735,yes,SM,A,135.bmp,-120,120,432731,426706,434747,428717,588599.0,582570.0,590615.0,584584.0,11
2,0,1,0,0,9,test,1,0,m,Wed Mar 04 2026 16:16:43 GMT-0600 (Central Standard Time),603908.1000000089,O,z,1596,12,1,141.bmp,-120,-120,142.bmp,120,-120,143.bmp,-120,120,144.bmp,120,120,9642.90000000596,594265.200000003,7735,no,SM,A,141.bmp,120,-120,432731,426706,434747,428717,598195.0,592167.0,600211.0,594178.0,12
3,0,0,1,0,10,test,1,1,m,Wed Mar 04 2026 16:16:43 GMT-0600 (Central Standard Time),613606.0,O,m,1652,13,1,145.bmp,-120,-120,146.bmp,120,-120,147.bmp,-120,120,148.bmp,120,120,9695.29999999702,603910.700000003,7735,no,SM,A,146.bmp,-120,120,432731,426706,434747,428717,607841.0,601813.0,609842.0,603827.0,13
1,1,0,0,0,10,test,1,0,z,Wed Mar 04 2026 16:16:43 GMT-0600 (Central Standard Time),623035.3000000119,O,m,1378,14,1,149.bmp,-120,-120,150.bmp,120,-120,104.bmp,-120,120,101.bmp,120,120,9425.40000000596,613609.900000006,7735,yes,SM,A,149.bmp,-120,-120,432731,426706,434747,428717,617540.0,611512.0,619556.0,613523.0,14
4,0,0,0,1,10,test,1,0,m,Wed Mar 04 2026 16:16:43 GMT-0600 (Central Standard Time),632800.900000006,O,z,1717,15,1,110.bmp,-120,-120,111.bmp,120,-120,112.bmp,-120,120,113.bmp,120,120,9762.5,623038.400000006,7735,no,SM,A,111.bmp,120,120,432731,426706,434747,428717,626969.0,620941.0,628986.0,622954.0,15
1,1,0,0,0,11,test,1,1,m,Wed Mar 04 2026 16:16:43 GMT-0600 (Central Standard Time),642647.5,O,m,1799,16,1,102.bmp,-120,-120,103.bmp,120,-120,104.bmp,-120,120,105.bmp,120,120,9842.5,632805.0,7735,no,SM,A,105.bmp,-120,-120,432731,426706,434747,428717,636733.0,630707.0,638750.0,632719.0,16
3,0,0,1,0,12,test,1,1,m,Wed Mar 04 2026 16:16:43 GMT-0600 (Central Standard Time),652359.200000003,O,m,1682,17,1,122.bmp,-120,-120,123.bmp,120,-120,124.bmp,-120,120,125.bmp,120,120,9709.0,642650.200000003,7735,no,SM,A,122.bmp,-120,120,432731,426706,434747,428717,646563.0,640552.0,648579.0,642562.0,17
1,1,0,0,0,13,test,1,1,z,Wed Mar 04 2026 16:16:43 GMT-0600 (Central Standard Time),662308.6000000089,O,z,1887,18,1,106.bmp,-120,-120,107.bmp,120,-120,108.bmp,-120,120,109.bmp,120,120,9947.10000000894,652361.5,7735,yes,SM,A,106.bmp,-120,-120,432731,426706,434747,428717,656295.0,650264.0,658312.0,652280.0,18
2,0,1,0,0,13,test,1,0,z,Wed Mar 04 2026 16:16:43 GMT-0600 (Central Standard Time),672221.0,O,m,1878,19,1,126.bmp,-120,-120,127.bmp,120,-120,128.bmp,-120,120,129.bmp,120,120,9908.699999988079,662312.3000000119,7735,yes,SM,A,127.bmp,120,-120,432731,426706,434747,428717,666228.0,660215.0,668240.0,662227.0,19
3,0,0,1,0,14,test,1,1,z,Wed Mar 04 2026 16:16:43 GMT-0600 (Central Standard Time),681852.1000000089,O,z,1574,20,1,130.bmp,-120,-120,131.bmp,120,-120,132.bmp,-120,120,133.bmp,120,120,9628.90000000596,672223.200000003,7735,yes,SM,A,132.bmp,-120,120,432731,426706,434747,428717,676152.0,670125.0,678169.0,672139.0,20
1,1,0,0,0,14,test,1,0,m,Wed Mar 04 2026 16:16:43 GMT-0600 (Central Standard Time),691314.200000003,O,z,1430,21,1,114.bmp,-120,-120,115.bmp,120,-120,116.bmp,-120,120,117.bmp,120,120,9459.0,681855.200000003,7735,no,SM,A,116.bmp,-120,-120,432731,426706,434747,428717,685783.0,679757.0,687784.0,681769.0,21
4,0,0,0,1,14,test,1,0,z,Wed Mar 04 2026 16:16:43 GMT-0600 (Central Standard Time),700743.6000000089,O,m,1389,22,1,118.bmp,-120,-120,119.bmp,120,-120,120.bmp,-120,120,121.bmp,120,120,9426.0,691317.6000000089,7735,yes,SM,A,121.bmp,120,120,432731,426706,434747,428717,695247.0,689220.0,697248.0,691233.0,22
1,1,0,0,0,15,test,1,1,m,Wed Mar 04 2026 16:16:43 GMT-0600 (Central Standard Time),710274.1000000089,O,m,1481,23,1,134.bmp,-120,-120,135.bmp,120,-120,136.bmp,-120,120,137.bmp,120,120,9528.40000000596,700745.700000003,7735,no,SM,A,137.bmp,-120,-120,432731,426706,434747,428717,704679.0,698648.0,706693.0,700665.0,23
2,0,1,0,0,16,test,1,1,z,Wed Mar 04 2026 16:16:43 GMT-0600 (Central Standard Time),719738.200000003,O,z,1414,24,1,142.bmp,-120,-120,143.bmp,120,-120,144.bmp,-120,120,145.bmp,120,120,9459.79999999702,710278.400000006,7735,yes,SM,A,143.bmp,120,-120,432731,426706,434747,428717,714210.0,708181.0,716225.0,710194.0,24
4,0,0,0,1,16,test,1,0,m,Wed Mar 04 2026 16:16:43 GMT-0600 (Central Standard Time),729153.400000006,O,z,1367,25,1,146.bmp,-120,-120,147.bmp,120,-120,148.bmp,-120,120,149.bmp,120,120,9413.09999999404,719740.3000000119,7735,no,SM,A,148.bmp,120,120,432731,426706,434747,428717,723672.0,717642.0,725688.0,719658.0,25
1,1,0,0,0,17,test,1,1,z,Wed Mar 04 2026 16:16:43 GMT-0600 (Central Standard Time),738784.900000006,O,z,1575,26,1,138.bmp,-120,-120,139.bmp,120,-120,140.bmp,-120,120,141.bmp,120,120,9628.5,729156.400000006,7735,yes,SM,A,138.bmp,-120,-120,432731,426706,434747,428717,733087.0,727059.0,735102.0,729072.0,26
4,0,0,0,1,18,test,1,1,z,Wed Mar 04 2026 16:16:43 GMT-0600 (Central Standard Time),748445.700000003,O,z,1609,27,1,150.bmp,-120,-120,111.bmp,120,-120,101.bmp,-120,120,102.bmp,120,120,9655.70000000298,738790.0,7735,yes,SM,A,102.bmp,120,120,432731,426706,434747,428717,742717.0,736692.0,744733.0,738702.0,27
3,0,0,1,0,18,test,1,0,m,Wed Mar 04 2026 16:16:43 GMT-0600 (Central Standard Time),758493.5,O,z,1986,28,1,103.bmp,-120,-120,104.bmp,120,-120,105.bmp,-120,120,106.bmp,120,120,10044.39999999106,748449.1000000089,7735,no,SM,A,103.bmp,-120,120,432731,426706,434747,428717,752380.0,746351.0,754397.0,748364.0,28
2,0,1,0,0,18,test,1,0,z,Wed Mar 04 2026 16:16:43 GMT-0600 (Central Standard Time),767955.200000003,O,m,1402,29,1,107.bmp,-120,-120,108.bmp,120,-120,109.bmp,-120,120,110.bmp,120,120,9457.59999999404,758497.6000000089,7735,yes,SM,A,108.bmp,120,-120,432731,426706,434747,428717,762426.0,756400.0,764443.0,758412.0,29
3,0,0,1,0,19,test,1,1,z,Wed Mar 04 2026 16:16:43 GMT-0600 (Central Standard Time),777519.3000000119,O,z,1507,30,1,111.bmp,-120,-120,112.bmp,120,-120,113.bmp,-120,120,114.bmp,120,120,9561.800000011921,767957.5,7735,yes,SM,A,113.bmp,-120,120,432731,426706,434747,428717,771889.0,765860.0,773906.0,767876.0,30
1,1,0,0,0,19,test,1,0,z,Wed Mar 04 2026 16:16:43 GMT-0600 (Central Standard Time),787033.200000003,O,m,1454,31,1,115.bmp,-120,-120,116.bmp,120,-120,117.bmp,-120,120,118.bmp,120,120,9511.89999999106,777521.3000000119,7735,yes,SM,A,115.bmp,-120,-120,432731,426706,434747,428717,781453.0,775423.0,783471.0,777438.0,31
2,0,1,0,0,20,test,1,1,m,Wed Mar 04 2026 16:16:43 GMT-0600 (Central Standard Time),796880.1000000089,O,m,1783,32,1,119.bmp,-120,-120,120.bmp,120,-120,121.bmp,-120,120,122.bmp,120,120,9844.29999999702,787035.8000000119,7735,no,SM,A,119.bmp,120,-120,432731,426706,434747,428717,790967.0,784938.0,792984.0,786951.0,32
4,0,0,0,1,21,test,1,1,z,Wed Mar 04 2026 16:16:43 GMT-0600 (Central Standard Time),806410.3000000119,O,z,1481,33,1,131.bmp,-120,-120,132.bmp,120,-120,133.bmp,-120,120,134.bmp,120,120,9524.40000000596,796885.900000006,7735,yes,SM,A,134.bmp,120,120,432731,426706,434747,428717,800813.0,794788.0,802830.0,796799.0,33
2,0,1,0,0,22,test,1,1,z,Wed Mar 04 2026 16:16:43 GMT-0600 (Central Standard Time),815591.200000003,O,z,1118,34,1,123.bmp,-120,-120,124.bmp,120,-120,125.bmp,-120,120,126.bmp,120,120,9176.0,806415.200000003,7735,yes,SM,A,124.bmp,120,-120,432731,426706,434747,428717,810344.0,804317.0,812360.0,806329.0,34
4,0,0,0,1,22,test,1,0,m,Wed Mar 04 2026 16:16:43 GMT-0600 (Central Standard Time),825654.900000006,O,None,2017,35,1,127.bmp,-120,-120,128.bmp,120,-120,129.bmp,-120,120,130.bmp,120,120,10060.70000000298,815594.200000003,7735,no,SM,A,129.bmp,120,120,432731,426706,434747,428717,819524.0,813496.0,821540.0,815509.0,35
3,0,0,1,0,23,test,1,1,m,Wed Mar 04 2026 16:16:43 GMT-0600 (Central Standard Time),835168.1000000089,O,m,1449,36,1,135.bmp,-120,-120,136.bmp,120,-120,137.bmp,-120,120,138.bmp,120,120,9509.40000000596,825658.700000003,7735,no,SM,A,135.bmp,-120,120,432731,426706,434747,428717,829588.0,823561.0,831605.0,825574.0,36
1,1,0,0,0,24,test,1,1,m,Wed Mar 04 2026 16:16:43 GMT-0600 (Central Standard Time),844566.0,O,m,1335,37,1,139.bmp,-120,-120,140.bmp,120,-120,141.bmp,-120,120,142.bmp,120,120,9394.09999999404,835171.900000006,7735,no,SM,A,140.bmp,-120,-120,432731,426706,434747,428717,839102.0,833074.0,841119.0,835088.0,37
2,0,1,0,0,25,test,1,1,m,Wed Mar 04 2026 16:16:43 GMT-0600 (Central Standard Time),853995.6000000089,O,m,1383,38,1,143.bmp,-120,-120,144.bmp,120,-120,145.bmp,-120,120,146.bmp,120,120,9426.60000000894,844569.0,7735,no,SM,A,145.bmp,120,-120,432731,426706,434747,428717,848498.0,842471.0,850499.0,844485.0,38
4,0,0,0,1,26,test,1,1,z,Wed Mar 04 2026 16:16:43 GMT-0600 (Central Standard Time),863559.3000000119,O,z,1510,39,1,147.bmp,-120,-120,148.bmp,120,-120,149.bmp,-120,120,150.bmp,120,120,9561.70000000298,853997.6000000089,7735,yes,SM,A,150.bmp,120,120,432731,426706,434747,428717,857929.0,851900.0,859945.0,853914.0,39
3,0,0,1,0,26,test,1,0,m,Wed Mar 04 2026 16:16:43 GMT-0600 (Central Standard Time),873622.900000006,O,None,2015,40,1,104.bmp,-120,-120,105.bmp,120,-120,106.bmp,-120,120,107.bmp,120,120,10061.29999999702,863561.6000000089,7735,no,SM,A,105.bmp,-120,120,432731,426706,434747,428717,867495.0,861464.0,869510.0,863479.0,40
1,1,0,0,0,26,test,1,0,z,Wed Mar 04 2026 16:16:43 GMT-0600 (Central Standard Time),882887.0,O,m,1209,41,1,108.bmp,-120,-120,109.bmp,120,-120,110.bmp,-120,120,111.bmp,120,120,9258.59999999404,873628.400000006,7735,yes,SM,A,108.bmp,-120,-120,432731,426706,434747,428717,877556.0,871531.0,879573.0,873543.0,41
4,0,0,0,1,26,test,1,0,z,Wed Mar 04 2026 16:16:43 GMT-0600 (Central Standard Time),892632.8000000119,O,m,1689,42,1,112.bmp,-120,-120,113.bmp,120,-120,114.bmp,-120,120,115.bmp,120,120,9742.40000000596,882890.400000006,7735,yes,SM,A,115.bmp,120,120,432731,426706,434747,428717,886822.0,880793.0,888837.0,882806.0,42
1,1,0,0,0,26,test,1,0,z,Wed Mar 04 2026 16:16:43 GMT-0600 (Central Standard Time),902683.3000000119,O,None,2002,43,1,116.bmp,-120,-120,117.bmp,120,-120,118.bmp,-120,120,119.bmp,120,120,10046.40000000596,892636.900000006,7735,yes,SM,A,116.bmp,-120,-120,432731,426706,434747,428717,896567.0,890539.0,898583.0,892552.0,43
4,0,0,0,1,27,test,1,1,m,Wed Mar 04 2026 16:16:43 GMT-0600 (Central Standard Time),911842.700000003,O,m,1103,44,1,104.bmp,-120,-120,101.bmp,120,-120,102.bmp,-120,120,103.bmp,120,120,9153.89999999106,902688.8000000119,7735,no,SM,A,104.bmp,120,120,432731,426706,434747,428717,906614.0,900591.0,908630.0,902598.0,44
1,1,0,0,0,27,test,1,0,m,Wed Mar 04 2026 16:16:43 GMT-0600 (Central Standard Time),921241.0,O,z,1355,45,1,128.bmp,-120,-120,129.bmp,120,-120,130.bmp,-120,120,131.bmp,120,120,9394.699999988079,911846.3000000119,7735,no,SM,A,131.bmp,-120,-120,432731,426706,434747,428717,915777.0,909749.0,917779.0,911764.0,45
1,1,0,0,0,27,test,1,0,m,Wed Mar 04 2026 16:16:43 GMT-0600 (Central Standard Time),930804.8000000119,O,z,1511,46,1,120.bmp,-120,-120,121.bmp,120,-120,122.bmp,-120,120,123.bmp,120,120,9560.10000000894,921244.700000003,7735,no,SM,A,121.bmp,-120,-120,432731,426706,434747,428717,925175.0,919147.0,927190.0,921159.0,46
3,0,0,1,0,27,test,1,0,z,Wed Mar 04 2026 16:16:43 GMT-0600 (Central Standard Time),940151.400000006,O,m,1289,47,1,124.bmp,-120,-120,125.bmp,120,-120,126.bmp,-120,120,127.bmp,120,120,9342.59999999404,930808.8000000119,7735,yes,SM,A,126.bmp,-120,120,432731,426706,434747,428717,934739.0,928711.0,936756.0,930724.0,47
3,0,0,1,0,27,test,1,0,z,Wed Mar 04 2026 16:16:43 GMT-0600 (Central Standard Time),949932.3000000119,O,m,1728,48,1,140.bmp,-120,-120,141.bmp,120,-120,142.bmp,-120,120,143.bmp,120,120,9778.60000000894,940153.700000003,7735,yes,SM,A,142.bmp,-120,120,432731,426706,434747,428717,944086.0,938056.0,946102.0,940073.0,48
2,0,1,0,0,27,test,1,0,z,Wed Mar 04 2026 16:16:43 GMT-0600 (Central Standard Time),959995.3000000119,O,None,2015,49,1,136.bmp,-120,-120,137.bmp,120,-120,138.bmp,-120,120,139.bmp,120,120,10060.60000000894,949934.700000003,7735,yes,SM,A,137.bmp,120,-120,432731,426706,434747,428717,953865.0,947837.0,955882.0,949851.0,49
3,0,0,1,0,28,test,1,1,m,Wed Mar 04 2026 16:16:43 GMT-0600 (Central Standard Time),969525.900000006,O,m,1468,50,1,132.bmp,-120,-120,133.bmp,120,-120,134.bmp,-120,120,135.bmp,120,120,9526.20000000298,959999.700000003,7735,no,SM,A,132.bmp,-120,120,432731,426706,434747,428717,963930.0,957902.0,965945.0,959913.0,50
2,0,1,0,0,29,test,1,1,z,Wed Mar 04 2026 16:16:43 GMT-0600 (Central Standard Time),979139.5,O,z,1549,51,1,144.bmp,-120,-120,145.bmp,120,-120,146.bmp,-120,120,147.bmp,120,120,9609.5,969530.0,7735,yes,SM,A,145.bmp,120,-120,432731,426706,434747,428717,973458.0,967432.0,975476.0,969444.0,51
4,0,0,0,1,29,test,1,0,m,Wed Mar 04 2026 16:16:43 GMT-0600 (Central Standard Time),988702.200000003,O,z,1501,52,1,148.bmp,-120,-120,149.bmp,120,-120,150.bmp,-120,120,131.bmp,120,120,9558.29999999702,979143.900000006,7735,no,SM,A,148.bmp,120,120,432731,426706,434747,428717,983073.0,977046.0,985089.0,979057.0,52
3,0,0,1,0,29,test,1,0,z,Wed Mar 04 2026 16:16:43 GMT-0600 (Central Standard Time),998317.8000000119,O,m,1552,53,1,101.bmp,-120,-120,102.bmp,120,-120,103.bmp,-120,120,104.bmp,120,120,9611.0,988706.8000000119,7735,yes,SM,A,103.bmp,-120,120,432731,426706,434747,428717,992637.0,986609.0,994654.0,988621.0,53
1,1,0,0,0,30,test,1,1,m,Wed Mar 04 2026 16:16:43 GMT-0600 (Central Standard Time),1007880.5,O,m,1499,54,1,105.bmp,-120,-120,106.bmp,120,-120,107.bmp,-120,120,108.bmp,120,120,9556.0,998324.5,7735,no,SM,A,107.bmp,-120,-120,432731,426706,434747,428717,1002251.0,996227.0,1004267.0,998235.0,54
4,0,0,0,1,30,test,1,0,z,Wed Mar 04 2026 16:16:43 GMT-0600 (Central Standard Time),1017527.0,O,m,1602,55,1,109.bmp,-120,-120,110.bmp,120,-120,111.bmp,-120,120,112.bmp,120,120,9641.39999999106,1007885.6000000089,7735,yes,SM,A,112.bmp,120,120,432731,426706,434747,428717,1011800.0,1005788.0,1013813.0,1007799.0,55
2,0,1,0,0,30,test,1,0,m,Wed Mar 04 2026 16:16:43 GMT-0600 (Central Standard Time),1027239.8000000119,O,z,1658,56,1,113.bmp,-120,-120,114.bmp,120,-120,115.bmp,-120,120,116.bmp,120,120,9708.20000000298,1017531.6000000089,7735,no,SM,A,113.bmp,120,-120,432731,426706,434747,428717,1021460.0,1015434.0,1023476.0,1017447.0,56
4,0,0,0,1,31,test,1,1,m,Wed Mar 04 2026 16:16:43 GMT-0600 (Central Standard Time),1036769.6000000089,O,m,1464,57,1,117.bmp,-120,-120,118.bmp,120,-120,119.bmp,-120,120,120.bmp,120,120,9525.5,1027244.1000000089,7735,no,SM,A,118.bmp,120,120,432731,426706,434747,428717,1031174.0,1025146.0,1033191.0,1027160.0,57
3,0,0,1,0,32,test,1,1,z,Wed Mar 04 2026 16:16:43 GMT-0600 (Central Standard Time),1046401.1000000089,O,z,1590,58,1,121.bmp,-120,-120,122.bmp,120,-120,123.bmp,-120,120,124.bmp,120,120,9628.10000000894,1036773.0,7735,yes,SM,A,123.bmp,-120,120,432731,426706,434747,428717,1040687.0,1034675.0,1042703.0,1036676.0,58
2,0,1,0,0,32,test,1,0,m,Wed Mar 04 2026 16:16:43 GMT-0600 (Central Standard Time),1055714.600000009,O,z,1265,59,1,125.bmp,-120,-120,126.bmp,120,-120,127.bmp,-120,120,128.bmp,120,120,9310.90000000596,1046403.700000003,7735,no,SM,A,128.bmp,120,-120,432731,426706,434747,428717,1050335.0,1044306.0,1052351.0,1046321.0,59
1,1,0,0,0,33,test,1,1,z,Wed Mar 04 2026 16:16:43 GMT-0600 (Central Standard Time),1065311.600000009,O,z,1543,60,1,129.bmp,-120,-120,130.bmp,120,-120,131.bmp,-120,120,132.bmp,120,120,9594.29999999702,1055717.300000012,7735,yes,SM,A,129.bmp,-120,-120,432731,426706,434747,428717,1059647.0,1053620.0,1061663.0,1055633.0,60
2,0,1,0,0,34,test,1,1,z,Wed Mar 04 2026 16:16:43 GMT-0600 (Central Standard Time),1075091.600000009,O,z,1730,61,1,133.bmp,-120,-120,134.bmp,120,-120,135.bmp,-120,120,136.bmp,120,120,9777.60000000894,1065314.0,7735,yes,SM,A,134.bmp,120,-120,432731,426706,434747,428717,1069245.0,1063216.0,1071261.0,1065231.0,61
4,0,0,0,1,34,test,1,0,z,Wed Mar 04 2026 16:16:43 GMT-0600 (Central Standard Time),1084889.0,O,m,1749,62,1,141.bmp,-120,-120,142.bmp,120,-120,143.bmp,-120,120,144.bmp,120,120,9794.699999988079,1075094.300000012,7735,yes,SM,A,144.bmp,120,120,432731,426706,434747,428717,1079026.0,1072997.0,1081042.0,1075011.0,62
1,1,0,0,0,35,test,1,1,m,Wed Mar 04 2026 16:16:43 GMT-0600 (Central Standard Time),1094402.700000003,O,m,1454,63,1,145.bmp,-120,-120,146.bmp,120,-120,147.bmp,-120,120,148.bmp,120,120,9510.5,1084892.200000003,7735,no,SM,A,145.bmp,-120,120,432731,426706,434747,428717,1088823.0,1082794.0,1090840.0,1084808.0,63
2,0,1,0,0,36,test,1,1,z,Wed Mar 04 2026 16:16:43 GMT-0600 (Central Standard Time),1103617.5,O,z,1148,64,1,149.bmp,-120,-120,150.bmp,120,-120,112.bmp,-120,120,101.bmp,120,120,9212.699999988079,1094404.800000012,7735,yes,SM,A,150.bmp,120,-120,432731,426706,434747,428717,1098337.0,1092307.0,1100354.0,1094321.0,64
4,0,0,0,1,36,test,1,0,m,Wed Mar 04 2026 16:16:43 GMT-0600 (Central Standard Time),1113079.700000003,O,z,1399,65,1,102.bmp,-120,-120,103.bmp,120,-120,104.bmp,-120,120,105.bmp,120,120,9457.70000000298,1103622.0,7735,no,SM,A,104.bmp,120,120,432731,426706,434747,428717,1107550.0,1101524.0,1109567.0,1103535.0,65
3,0,0,1,0,37,test,1,1,m,Wed Mar 04 2026 16:16:43 GMT-0600 (Central Standard Time),1122510.400000006,O,m,1378,66,1,106.bmp,-120,-120,107.bmp,120,-120,108.bmp,-120,120,109.bmp,120,120,9426.29999999702,1113084.100000009,7735,no,SM,A,109.bmp,-120,120,432731,426706,434747,428717,1117013.0,1110986.0,1119029.0,1112999.0,66
2,0,1,0,0,38,test,1,1,m,Wed Mar 04 2026 16:16:43 GMT-0600 (Central Standard Time),1132241.600000009,O,m,1683,67,1,137.bmp,-120,-120,138.bmp,120,-120,139.bmp,-120,120,140.bmp,120,120,9728.10000000894,1122513.5,7735,no,SM,A,139.bmp,120,-120,432731,426706,434747,428717,1126444.0,1120416.0,1128460.0,1122429.0,67
3,0,0,1,0,38,test,1,0,z,Wed Mar 04 2026 16:16:43 GMT-0600 (Central Standard Time),1141403.400000006,O,m,1112,68,1,110.bmp,-120,-120,111.bmp,120,-120,112.bmp,-120,120,113.bmp,120,120,9158.20000000298,1132245.200000003,7735,yes,SM,A,112.bmp,-120,120,432731,426706,434747,428717,1136173.0,1130147.0,1138190.0,1132159.0,68
1,1,0,0,0,39,test,1,1,m,Wed Mar 04 2026 16:16:43 GMT-0600 (Central Standard Time),1150917.200000003,O,m,1452,69,1,114.bmp,-120,-120,115.bmp,120,-120,116.bmp,-120,120,117.bmp,120,120,9509.79999999702,1141407.400000006,7735,no,SM,A,115.bmp,-120,-120,432731,426706,434747,428717,1145337.0,1139310.0,1147353.0,1141321.0,69
2,0,1,0,0,40,test,1,1,m,Wed Mar 04 2026 16:16:43 GMT-0600 (Central Standard Time),1160447.5,O,m,1466,70,1,118.bmp,-120,-120,119.bmp,120,-120,120.bmp,-120,120,121.bmp,120,120,9526.199999988079,1150921.300000012,7735,no,SM,A,120.bmp,120,-120,432731,426706,434747,428717,1154851.0,1148823.0,1156868.0,1150835.0,70
4,0,0,0,1,40,test,1,0,z,Wed Mar 04 2026 16:16:43 GMT-0600 (Central Standard Time),1170064.700000003,O,m,1504,71,1,122.bmp,-120,-120,123.bmp,120,-120,124.bmp,-120,120,125.bmp,120,120,9612.5,1160452.200000003,7735,yes,SM,A,125.bmp,120,120,432731,426706,434747,428717,1164382.0,1158354.0,1166397.0,1160367.0,71
1,1,0,0,0,40,test,1,0,z,Wed Mar 04 2026 16:16:43 GMT-0600 (Central Standard Time),1179374.700000003,O,m,1259,72,1,126.bmp,-120,-120,127.bmp,120,-120,128.bmp,-120,120,129.bmp,120,120,9307.70000000298,1170067.0,7735,yes,SM,A,126.bmp,-120,-120,432731,426706,434747,428717,1173996.0,1167969.0,1176011.0,1169980.0,72
2,0,1,0,0,41,test,1,1,z,Wed Mar 04 2026 16:16:43 GMT-0600 (Central Standard Time),1188605.200000003,O,z,1176,73,1,130.bmp,-120,-120,131.bmp,120,-120,132.bmp,-120,120,133.bmp,120,120,9227.70000000298,1179377.5,7735,yes,SM,A,131.bmp,120,-120,432731,426706,434747,428717,1183309.0,1177280.0,1185326.0,1179295.0,73
4,0,0,0,1,42,test,1,1,m,Wed Mar 04 2026 16:16:43 GMT-0600 (Central Standard Time),1197884.900000006,O,m,1216,74,1,134.bmp,-120,-120,135.bmp,120,-120,136.bmp,-120,120,137.bmp,120,120,9277.40000000596,1188607.5,7735,no,SM,A,136.bmp,120,120,432731,426706,434747,428717,1192540.0,1186510.0,1194557.0,1188525.0,74
2,0,1,0,0,43,test,1,1,m,Wed Mar 04 2026 16:16:43 GMT-0600 (Central Standard Time),1207466.900000006,O,m,1531,75,1,138.bmp,-120,-120,139.bmp,120,-120,140.bmp,-120,120,141.bmp,120,120,9579.79999999702,1197887.100000009,7735,no,SM,A,141.bmp,120,-120,432731,426706,434747,428717,1201819.0,1195789.0,1203836.0,1197805.0,75
1,1,0,0,0,44,test,1,1,z,Wed Mar 04 2026 16:16:43 GMT-0600 (Central Standard Time),1216829.600000009,O,z,1310,76,1,142.bmp,-120,-120,143.bmp,120,-120,144.bmp,-120,120,145.bmp,120,120,9358.29999999702,1207471.300000012,7735,yes,SM,A,142.bmp,-120,-120,432731,426706,434747,428717,1211401.0,1205374.0,1213416.0,1207385.0,76
3,0,0,1,0,44,test,1,0,z,Wed Mar 04 2026 16:16:43 GMT-0600 (Central Standard Time),1226477.0,O,m,1585,77,1,150.bmp,-120,-120,111.bmp,120,-120,101.bmp,-120,120,102.bmp,120,120,9644.09999999404,1216832.900000006,7735,yes,SM,A,101.bmp,-120,120,432731,426706,434747,428717,1220763.0,1214735.0,1222780.0,1216749.0,77
1,1,0,0,0,45,test,1,1,m,Wed Mar 04 2026 16:16:43 GMT-0600 (Central Standard Time),1235941.200000003,O,m,1403,78,1,146.bmp,-120,-120,147.bmp,120,-120,148.bmp,-120,120,149.bmp,120,120,9461.59999999404,1226479.600000009,7735,no,SM,A,147.bmp,-120,-120,432731,426706,434747,428717,1230411.0,1224382.0,1232427.0,1226395.0,78
4,0,0,0,1,46,test,1,1,m,Wed Mar 04 2026 16:16:43 GMT-0600 (Central Standard Time),1245687.600000009,O,m,1691,79,1,107.bmp,-120,-120,108.bmp,120,-120,109.bmp,-120,120,110.bmp,120,120,9743.10000000894,1235944.5,7735,no,SM,A,107.bmp,120,120,432731,426706,434747,428717,1239874.0,1233847.0,1241891.0,1235859.0,79
3,0,0,1,0,46,test,1,0,m,Wed Mar 04 2026 16:16:43 GMT-0600 (Central Standard Time),1255401.400000006,O,z,1649,80,1,103.bmp,-120,-120,104.bmp,120,-120,105.bmp,-120,120,106.bmp,120,120,9711.79999999702,1245689.600000009,7735,no,SM,A,106.bmp,-120,120,432731,426706,434747,428717,1249621.0,1243592.0,1251637.0,1245605.0,80
