acc_sum,block,block_c,change,condition,correct,correct_response,datetime,endtime,face,project,response,response_time,row_sel,session_number,start_end,starttime,subject_id,task,task_vers,trial
0,prac,1,,1-Back,,,Tue Jun 09 2026 15:42:51 GMT-0500 (Central Daylight Time),,097_m_f_n_a.png,I,space,35888,1,1,,,8120,NNB,B,0
0,prac,1,0.0,1-Back,0.0,m,Tue Jun 09 2026 15:42:51 GMT-0500 (Central Daylight Time),170904.20000004768,152_y_f_n_a.png,I,z,1130,2,1,1972.5,168931.70000004768,8120,NNB,B,1
0,prac,1,1.0,1-Back,0.0,z,Tue Jun 09 2026 15:42:51 GMT-0500 (Central Daylight Time),173686.70000004768,152_y_f_n_a.png,I,None,2011,3,1,2777.7000000476837,170909.0,8120,NNB,B,2
1,prac,1,0.0,1-Back,1.0,m,Tue Jun 09 2026 15:42:51 GMT-0500 (Central Daylight Time),175985.90000009537,176_o_m_n_a.png,I,m,1436,4,1,2294.600000143051,173691.29999995232,8120,NNB,B,3
2,prac,1,0.0,1-Back,1.0,m,Tue Jun 09 2026 15:42:51 GMT-0500 (Central Daylight Time),177918.90000009537,126_m_m_n_a.png,I,m,1072,5,1,1923.8000001907349,175995.09999990463,8120,NNB,B,4
3,prac,1,1.0,1-Back,1.0,z,Tue Jun 09 2026 15:42:51 GMT-0500 (Central Daylight Time),179601.29999995232,126_m_m_n_a.png,I,z,901,6,1,1678.0999999046326,177923.20000004768,8120,NNB,B,5
4,prac,1,0.0,1-Back,1.0,m,Tue Jun 09 2026 15:42:51 GMT-0500 (Central Daylight Time),181534.29999995232,086_o_f_n_a.png,I,m,1054,7,1,1928.5,179605.79999995232,8120,NNB,B,6
5,prac,1,0.0,1-Back,1.0,m,Tue Jun 09 2026 15:42:51 GMT-0500 (Central Daylight Time),183500.40000009537,178_m_m_n_a.png,I,m,1107,8,1,1956.1000001430511,181544.29999995232,8120,NNB,B,7
6,prac,1,0.0,1-Back,1.0,m,Tue Jun 09 2026 15:42:51 GMT-0500 (Central Daylight Time),185216.40000009537,097_m_f_n_a.png,I,m,936,9,1,1711.6000001430511,183504.79999995232,8120,NNB,B,8
7,prac,1,1.0,1-Back,1.0,z,Tue Jun 09 2026 15:42:51 GMT-0500 (Central Daylight Time),186733.90000009537,097_m_f_n_a.png,I,z,748,10,1,1513.7000000476837,185220.20000004768,8120,NNB,B,9
8,prac,1,0.0,1-Back,1.0,m,Tue Jun 09 2026 15:42:51 GMT-0500 (Central Daylight Time),188498.79999995232,176_o_m_n_a.png,I,m,978,11,1,1756.0999999046326,186742.70000004768,8120,NNB,B,10
9,prac,1,0.0,1-Back,1.0,m,Tue Jun 09 2026 15:42:51 GMT-0500 (Central Daylight Time),190431.29999995232,173_y_f_n_a.png,I,m,1070,12,1,1928.3999998569489,188502.90000009537,8120,NNB,B,11
0,test,1,0.0,1-Back,,,Tue Jun 09 2026 15:42:51 GMT-0500 (Central Daylight Time),190431.29999995232,152_y_f_n_a.png,I,space,2722,1,1,1928.3999998569489,188502.90000009537,8120,NNB,B,0
0,test,1,0.0,1-Back,0.0,m,Tue Jun 09 2026 15:42:51 GMT-0500 (Central Daylight Time),220622.09999990463,029_m_f_n_a.png,I,z,585,2,1,1612.0999999046326,219010.0,8120,NNB,B,1
0,test,1,0.0,1-Back,0.0,m,Tue Jun 09 2026 15:42:51 GMT-0500 (Central Daylight Time),223654.5,173_y_f_n_a.png,I,None,2016,3,1,3027.0999999046326,220627.40000009537,8120,NNB,B,2
1,test,1,1.0,1-Back,1.0,z,Tue Jun 09 2026 15:42:51 GMT-0500 (Central Daylight Time),225570.40000009537,173_y_f_n_a.png,I,z,890,4,1,1913.2000000476837,223657.20000004768,8120,NNB,B,3
2,test,1,0.0,1-Back,1.0,m,Tue Jun 09 2026 15:42:51 GMT-0500 (Central Daylight Time),227569.79999995232,029_m_f_n_a.png,I,m,973,5,1,1996.8999998569489,225572.90000009537,8120,NNB,B,4
3,test,1,0.0,1-Back,1.0,m,Tue Jun 09 2026 15:42:51 GMT-0500 (Central Daylight Time),229219.29999995232,176_o_m_n_a.png,I,m,622,6,1,1646.8999998569489,227572.40000009537,8120,NNB,B,5
3,test,1,1.0,1-Back,0.0,z,Tue Jun 09 2026 15:42:51 GMT-0500 (Central Daylight Time),232068.09999990463,176_o_m_n_a.png,I,m,1828,7,1,2845.899999856949,229222.20000004768,8120,NNB,B,6
4,test,1,0.0,1-Back,1.0,m,Tue Jun 09 2026 15:42:51 GMT-0500 (Central Daylight Time),233901.20000004768,126_m_m_n_a.png,I,m,804,8,1,1830.7999999523163,232070.40000009537,8120,NNB,B,7
5,test,1,0.0,1-Back,1.0,m,Tue Jun 09 2026 15:42:51 GMT-0500 (Central Daylight Time),235700.40000009537,086_o_f_n_a.png,I,m,779,9,1,1796.7000000476837,233903.70000004768,8120,NNB,B,8
6,test,1,0.0,1-Back,1.0,m,Tue Jun 09 2026 15:42:51 GMT-0500 (Central Daylight Time),237849.90000009537,126_m_m_n_a.png,I,m,1124,10,1,2146.5,235703.40000009537,8120,NNB,B,9
7,test,1,0.0,1-Back,1.0,m,Tue Jun 09 2026 15:42:51 GMT-0500 (Central Daylight Time),239499.59999990463,153_y_m_n_a.png,I,m,631,11,1,1646.8999998569489,237852.70000004768,8120,NNB,B,10
7,test,1,1.0,1-Back,0.0,z,Tue Jun 09 2026 15:42:51 GMT-0500 (Central Daylight Time),242231.70000004768,153_y_m_n_a.png,I,m,1709,12,1,2729.2000000476837,239502.5,8120,NNB,B,11
8,test,1,0.0,1-Back,1.0,m,Tue Jun 09 2026 15:42:51 GMT-0500 (Central Daylight Time),244131.40000009537,110_o_f_n_a.png,I,m,880,13,1,1897.0,242234.40000009537,8120,NNB,B,12
8,test,1,1.0,1-Back,0.0,z,Tue Jun 09 2026 15:42:51 GMT-0500 (Central Daylight Time),246614.0,110_o_f_n_a.png,I,m,1461,14,1,2480.4000000953674,244133.59999990463,8120,NNB,B,13
9,test,1,0.0,1-Back,1.0,m,Tue Jun 09 2026 15:42:51 GMT-0500 (Central Daylight Time),248496.59999990463,013_y_m_n_a.png,I,m,850,15,1,1879.8999998569489,246616.70000004768,8120,NNB,B,14
10,test,1,0.0,1-Back,1.0,m,Tue Jun 09 2026 15:42:51 GMT-0500 (Central Daylight Time),250379.29999995232,097_m_f_n_a.png,I,m,856,16,1,1878.7999999523163,248500.5,8120,NNB,B,15
11,test,1,0.0,1-Back,1.0,m,Tue Jun 09 2026 15:42:51 GMT-0500 (Central Daylight Time),252412.40000009537,065_o_m_n_a.png,I,m,1005,17,1,2030.1000001430511,250382.29999995232,8120,NNB,B,16
12,test,1,0.0,1-Back,1.0,m,Tue Jun 09 2026 15:42:51 GMT-0500 (Central Daylight Time),254728.29999995232,097_m_f_n_a.png,I,m,1283,18,1,2313.5,252414.79999995232,8120,NNB,B,17
0,test,2,0.0,1-Back,,,Tue Jun 09 2026 15:42:51 GMT-0500 (Central Daylight Time),254728.29999995232,126_m_m_n_a.png,I,space,2032,1,1,2313.5,252414.79999995232,8120,NNB,B,0
1,test,2,0.0,1-Back,1.0,m,Tue Jun 09 2026 15:42:51 GMT-0500 (Central Daylight Time),261325.90000009537,029_m_f_n_a.png,I,m,1502,2,1,2529.2000000476837,258796.70000004768,8120,NNB,B,1
2,test,2,1.0,1-Back,1.0,z,Tue Jun 09 2026 15:42:51 GMT-0500 (Central Daylight Time),263158.7999999523,029_m_f_n_a.png,I,z,803,3,1,1830.0,261328.79999995232,8120,NNB,B,2
3,test,2,0.0,1-Back,1.0,m,Tue Jun 09 2026 15:42:51 GMT-0500 (Central Daylight Time),265058.09999990463,126_m_m_n_a.png,I,m,874,4,1,1896.5999999046326,263161.5,8120,NNB,B,3
4,test,2,0.0,1-Back,1.0,m,Tue Jun 09 2026 15:42:51 GMT-0500 (Central Daylight Time),267007.40000009537,153_y_m_n_a.png,I,m,918,5,1,1946.4000000953674,265061.0,8120,NNB,B,4
5,test,2,0.0,1-Back,1.0,m,Tue Jun 09 2026 15:42:51 GMT-0500 (Central Daylight Time),268840.2999999523,152_y_f_n_a.png,I,m,800,6,1,1830.2999999523163,267010.0,8120,NNB,B,5
6,test,2,1.0,1-Back,1.0,z,Tue Jun 09 2026 15:42:51 GMT-0500 (Central Daylight Time),270572.7999999523,152_y_f_n_a.png,I,z,704,7,1,1729.7999999523163,268843.0,8120,NNB,B,6
7,test,2,0.0,1-Back,1.0,m,Tue Jun 09 2026 15:42:51 GMT-0500 (Central Daylight Time),272606.7000000477,153_y_m_n_a.png,I,m,1012,8,1,2031.4000000953674,270575.2999999523,8120,NNB,B,7
8,test,2,0.0,1-Back,1.0,m,Tue Jun 09 2026 15:42:51 GMT-0500 (Central Daylight Time),274455.2000000477,110_o_f_n_a.png,I,m,818,9,1,1845.2999999523163,272609.90000009537,8120,NNB,B,8
9,test,2,0.0,1-Back,1.0,m,Tue Jun 09 2026 15:42:51 GMT-0500 (Central Daylight Time),276037.90000009537,178_m_m_n_a.png,I,m,553,10,1,1579.9000000953674,274458.0,8120,NNB,B,9
10,test,2,1.0,1-Back,1.0,z,Tue Jun 09 2026 15:42:51 GMT-0500 (Central Daylight Time),277753.7999999523,178_m_m_n_a.png,I,z,698,11,1,1713.2999999523163,276040.5,8120,NNB,B,10
11,test,2,0.0,1-Back,1.0,m,Tue Jun 09 2026 15:42:51 GMT-0500 (Central Daylight Time),279603.2000000477,110_o_f_n_a.png,I,m,830,12,1,1846.9000000953674,277756.2999999523,8120,NNB,B,11
12,test,2,0.0,1-Back,1.0,m,Tue Jun 09 2026 15:42:51 GMT-0500 (Central Daylight Time),281302.7999999523,086_o_f_n_a.png,I,m,677,13,1,1696.8999998569489,279605.90000009537,8120,NNB,B,12
13,test,2,0.0,1-Back,1.0,m,Tue Jun 09 2026 15:42:51 GMT-0500 (Central Daylight Time),283035.7000000477,176_o_m_n_a.png,I,m,713,14,1,1730.2000000476837,281305.5,8120,NNB,B,13
14,test,2,0.0,1-Back,1.0,m,Tue Jun 09 2026 15:42:51 GMT-0500 (Central Daylight Time),284719.7999999523,065_o_m_n_a.png,I,m,653,15,1,1681.0999999046326,283038.7000000477,8120,NNB,B,14
15,test,2,1.0,1-Back,1.0,z,Tue Jun 09 2026 15:42:51 GMT-0500 (Central Daylight Time),286501.59999990463,065_o_m_n_a.png,I,z,754,16,1,1779.2999999523163,284722.2999999523,8120,NNB,B,15
16,test,2,0.0,1-Back,1.0,m,Tue Jun 09 2026 15:42:51 GMT-0500 (Central Daylight Time),288200.7999999523,013_y_m_n_a.png,I,m,667,17,1,1696.5,286504.2999999523,8120,NNB,B,16
17,test,2,1.0,1-Back,1.0,z,Tue Jun 09 2026 15:42:51 GMT-0500 (Central Daylight Time),289917.0,013_y_m_n_a.png,I,z,688,18,1,1713.7000000476837,288203.2999999523,8120,NNB,B,17
0,test,3,1.0,1-Back,,,Tue Jun 09 2026 15:42:51 GMT-0500 (Central Daylight Time),289917.0,173_y_f_n_a.png,I,space,1307,1,1,1713.7000000476837,288203.2999999523,8120,NNB,B,0
1,test,3,0.0,1-Back,1.0,m,Tue Jun 09 2026 15:42:51 GMT-0500 (Central Daylight Time),294898.59999990463,065_o_m_n_a.png,I,m,538,1,1,1563.5,293335.09999990463,8120,NNB,B,1
2,test,3,1.0,1-Back,1.0,z,Tue Jun 09 2026 15:42:51 GMT-0500 (Central Daylight Time),297214.7999999523,065_o_m_n_a.png,I,z,1285,1,1,2313.5999999046326,294901.2000000477,8120,NNB,B,2
3,test,3,0.0,1-Back,1.0,m,Tue Jun 09 2026 15:42:51 GMT-0500 (Central Daylight Time),298681.0,097_m_f_n_a.png,I,m,434,1,1,1463.5999999046326,297217.40000009537,8120,NNB,B,3
4,test,3,1.0,1-Back,1.0,z,Tue Jun 09 2026 15:42:51 GMT-0500 (Central Daylight Time),300447.09999990463,097_m_f_n_a.png,I,z,741,1,1,1763.5999999046326,298683.5,8120,NNB,B,4
5,test,3,0.0,1-Back,1.0,m,Tue Jun 09 2026 15:42:51 GMT-0500 (Central Daylight Time),302063.2000000477,110_o_f_n_a.png,I,m,585,1,1,1613.4000000953674,300449.7999999523,8120,NNB,B,5
6,test,3,0.0,1-Back,1.0,m,Tue Jun 09 2026 15:42:51 GMT-0500 (Central Daylight Time),303979.2000000477,153_y_m_n_a.png,I,m,897,1,1,1913.4000000953674,302065.7999999523,8120,NNB,B,6
7,test,3,0.0,1-Back,1.0,m,Tue Jun 09 2026 15:42:51 GMT-0500 (Central Daylight Time),305995.2000000477,110_o_f_n_a.png,I,m,997,1,1,2012.7999999523163,303982.40000009537,8120,NNB,B,7
8,test,3,0.0,1-Back,1.0,m,Tue Jun 09 2026 15:42:51 GMT-0500 (Central Daylight Time),307644.7999999523,013_y_m_n_a.png,I,m,628,1,1,1647.0999999046326,305997.7000000477,8120,NNB,B,8
9,test,3,1.0,1-Back,1.0,z,Tue Jun 09 2026 15:42:51 GMT-0500 (Central Daylight Time),309077.7999999523,013_y_m_n_a.png,I,z,411,1,1,1430.2999999523163,307647.5,8120,NNB,B,9
10,test,3,0.0,1-Back,1.0,m,Tue Jun 09 2026 15:42:51 GMT-0500 (Central Daylight Time),310860.5,029_m_f_n_a.png,I,m,763,1,1,1780.2999999523163,309080.2000000477,8120,NNB,B,10
11,test,3,0.0,1-Back,1.0,m,Tue Jun 09 2026 15:42:51 GMT-0500 (Central Daylight Time),312526.40000009537,152_y_f_n_a.png,I,m,644,1,1,1663.2000000476837,310863.2000000477,8120,NNB,B,11
12,test,3,1.0,1-Back,1.0,z,Tue Jun 09 2026 15:42:51 GMT-0500 (Central Daylight Time),314292.59999990463,152_y_f_n_a.png,I,z,738,1,1,1763.2999999523163,312529.2999999523,8120,NNB,B,12
13,test,3,0.0,1-Back,1.0,m,Tue Jun 09 2026 15:42:51 GMT-0500 (Central Daylight Time),315992.2999999523,029_m_f_n_a.png,I,m,675,1,1,1696.8999998569489,314295.40000009537,8120,NNB,B,13
14,test,3,0.0,1-Back,1.0,m,Tue Jun 09 2026 15:42:51 GMT-0500 (Central Daylight Time),317692.2999999523,126_m_m_n_a.png,I,m,679,1,1,1697.2999999523163,315995.0,8120,NNB,B,14
15,test,3,1.0,1-Back,1.0,z,Tue Jun 09 2026 15:42:51 GMT-0500 (Central Daylight Time),319424.5,126_m_m_n_a.png,I,z,708,1,1,1729.7999999523163,317694.7000000477,8120,NNB,B,15
16,test,3,0.0,1-Back,1.0,m,Tue Jun 09 2026 15:42:51 GMT-0500 (Central Daylight Time),321257.2000000477,086_o_f_n_a.png,I,m,808,1,1,1830.1000001430511,319427.09999990463,8120,NNB,B,16
17,test,3,1.0,1-Back,1.0,z,Tue Jun 09 2026 15:42:51 GMT-0500 (Central Daylight Time),323089.90000009537,086_o_f_n_a.png,I,z,807,1,1,1830.2000000476837,321259.7000000477,8120,NNB,B,17
0,test,4,1.0,1-Back,,,Tue Jun 09 2026 15:42:51 GMT-0500 (Central Daylight Time),323089.90000009537,097_m_f_n_a.png,I,space,1629,1,1,1830.2000000476837,321259.7000000477,8120,NNB,B,0
1,test,4,0.0,1-Back,1.0,m,Tue Jun 09 2026 15:42:51 GMT-0500 (Central Daylight Time),328271.7000000477,065_o_m_n_a.png,I,m,443,2,1,1463.5,326808.2000000477,8120,NNB,B,1
2,test,4,0.0,1-Back,1.0,m,Tue Jun 09 2026 15:42:51 GMT-0500 (Central Daylight Time),329954.5,097_m_f_n_a.png,I,m,657,3,1,1680.4000000953674,328274.09999990463,8120,NNB,B,2
3,test,4,0.0,1-Back,1.0,m,Tue Jun 09 2026 15:42:51 GMT-0500 (Central Daylight Time),331648.09999990463,110_o_f_n_a.png,I,m,677,4,1,1691.0,329957.09999990463,8120,NNB,B,3
4,test,4,1.0,1-Back,1.0,z,Tue Jun 09 2026 15:42:51 GMT-0500 (Central Daylight Time),333303.2999999523,110_o_f_n_a.png,I,z,635,5,1,1652.2999999523163,331651.0,8120,NNB,B,4
5,test,4,0.0,1-Back,1.0,m,Tue Jun 09 2026 15:42:51 GMT-0500 (Central Daylight Time),334869.2999999523,152_y_f_n_a.png,I,m,537,6,1,1563.5,333305.7999999523,8120,NNB,B,5
6,test,4,0.0,1-Back,1.0,m,Tue Jun 09 2026 15:42:51 GMT-0500 (Central Daylight Time),336419.0,153_y_m_n_a.png,I,m,531,7,1,1547.2000000476837,334871.7999999523,8120,NNB,B,6
7,test,4,1.0,1-Back,1.0,z,Tue Jun 09 2026 15:42:51 GMT-0500 (Central Daylight Time),338101.90000009537,153_y_m_n_a.png,I,z,661,8,1,1680.5,336421.40000009537,8120,NNB,B,7
8,test,4,0.0,1-Back,1.0,m,Tue Jun 09 2026 15:42:51 GMT-0500 (Central Daylight Time),339784.59999990463,152_y_f_n_a.png,I,m,657,9,1,1679.8999998569489,338104.7000000477,8120,NNB,B,8
9,test,4,0.0,1-Back,1.0,m,Tue Jun 09 2026 15:42:51 GMT-0500 (Central Daylight Time),341334.40000009537,178_m_m_n_a.png,I,m,520,10,1,1547.2000000476837,339787.2000000477,8120,NNB,B,9
10,test,4,1.0,1-Back,1.0,z,Tue Jun 09 2026 15:42:51 GMT-0500 (Central Daylight Time),343000.5,178_m_m_n_a.png,I,z,634,11,1,1663.5999999046326,341336.90000009537,8120,NNB,B,10
11,test,4,0.0,1-Back,1.0,m,Tue Jun 09 2026 15:42:51 GMT-0500 (Central Daylight Time),344566.2999999523,086_o_f_n_a.png,I,m,536,12,1,1563.2000000476837,343003.09999990463,8120,NNB,B,11
12,test,4,0.0,1-Back,1.0,m,Tue Jun 09 2026 15:42:51 GMT-0500 (Central Daylight Time),346282.2999999523,176_o_m_n_a.png,I,m,698,13,1,1713.0,344569.2999999523,8120,NNB,B,12
13,test,4,0.0,1-Back,1.0,m,Tue Jun 09 2026 15:42:51 GMT-0500 (Central Daylight Time),348798.40000009537,086_o_f_n_a.png,I,m,1494,14,1,2513.300000190735,346285.09999990463,8120,NNB,B,13
14,test,4,0.0,1-Back,1.0,m,Tue Jun 09 2026 15:42:51 GMT-0500 (Central Daylight Time),350481.40000009537,173_y_f_n_a.png,I,m,657,15,1,1680.6000001430511,348800.7999999523,8120,NNB,B,14
15,test,4,1.0,1-Back,1.0,z,Tue Jun 09 2026 15:42:51 GMT-0500 (Central Daylight Time),352047.59999990463,173_y_f_n_a.png,I,z,535,16,1,1563.6999998092651,350483.90000009537,8120,NNB,B,15
16,test,4,0.0,1-Back,1.0,m,Tue Jun 09 2026 15:42:51 GMT-0500 (Central Daylight Time),353630.2999999523,029_m_f_n_a.png,I,m,553,17,1,1580.0999999046326,352050.2000000477,8120,NNB,B,16
16,test,4,1.0,1-Back,0.0,z,Tue Jun 09 2026 15:42:51 GMT-0500 (Central Daylight Time),355730.7999999523,029_m_f_n_a.png,I,m,1082,18,1,2098.0,353632.7999999523,8120,NNB,B,17
0,test,5,1.0,1-Back,,,Tue Jun 09 2026 15:42:51 GMT-0500 (Central Daylight Time),355730.7999999523,176_o_m_n_a.png,I,space,1124,1,1,2098.0,353632.7999999523,8120,NNB,B,0
0,test,5,1.0,1-Back,0.0,z,Tue Jun 09 2026 15:42:51 GMT-0500 (Central Daylight Time),360528.09999990463,176_o_m_n_a.png,I,m,617,2,1,1646.8999998569489,358881.2000000477,8120,NNB,B,1
1,test,5,0.0,1-Back,1.0,m,Tue Jun 09 2026 15:42:51 GMT-0500 (Central Daylight Time),362861.0,152_y_f_n_a.png,I,m,1304,3,1,2330.2999999523163,360530.7000000477,8120,NNB,B,2
2,test,5,0.0,1-Back,1.0,m,Tue Jun 09 2026 15:42:51 GMT-0500 (Central Daylight Time),365009.90000009537,153_y_m_n_a.png,I,m,1132,4,1,2146.4000000953674,362863.5,8120,NNB,B,3
3,test,5,0.0,1-Back,1.0,m,Tue Jun 09 2026 15:42:51 GMT-0500 (Central Daylight Time),367175.7999999523,152_y_f_n_a.png,I,m,1134,5,1,2163.0999999046326,365012.7000000477,8120,NNB,B,4
4,test,5,0.0,1-Back,1.0,m,Tue Jun 09 2026 15:42:51 GMT-0500 (Central Daylight Time),368893.5,126_m_m_n_a.png,I,m,695,6,1,1715.2000000476837,367178.2999999523,8120,NNB,B,5
5,test,5,1.0,1-Back,1.0,z,Tue Jun 09 2026 15:42:51 GMT-0500 (Central Daylight Time),370508.09999990463,126_m_m_n_a.png,I,z,588,7,1,1609.0999999046326,368899.0,8120,NNB,B,6
6,test,5,0.0,1-Back,1.0,m,Tue Jun 09 2026 15:42:51 GMT-0500 (Central Daylight Time),372674.0,173_y_f_n_a.png,I,m,1139,8,1,2163.0999999046326,370510.90000009537,8120,NNB,B,7
7,test,5,0.0,1-Back,1.0,m,Tue Jun 09 2026 15:42:51 GMT-0500 (Central Daylight Time),374473.90000009537,013_y_m_n_a.png,I,m,773,9,1,1797.5,372676.40000009537,8120,NNB,B,8
8,test,5,0.0,1-Back,1.0,m,Tue Jun 09 2026 15:42:51 GMT-0500 (Central Daylight Time),377223.2000000477,173_y_f_n_a.png,I,m,1718,10,1,2746.7000000476837,374476.5,8120,NNB,B,9
9,test,5,0.0,1-Back,1.0,m,Tue Jun 09 2026 15:42:51 GMT-0500 (Central Daylight Time),378874.09999990463,086_o_f_n_a.png,I,m,633,11,1,1646.3999998569489,377227.7000000477,8120,NNB,B,10
10,test,5,1.0,1-Back,1.0,z,Tue Jun 09 2026 15:42:51 GMT-0500 (Central Daylight Time),380571.90000009537,086_o_f_n_a.png,I,z,672,12,1,1693.3000001907349,378878.59999990463,8120,NNB,B,11
11,test,5,0.0,1-Back,1.0,m,Tue Jun 09 2026 15:42:51 GMT-0500 (Central Daylight Time),382637.7999999523,065_o_m_n_a.png,I,m,1036,13,1,2063.2000000476837,380574.59999990463,8120,NNB,B,12
12,test,5,0.0,1-Back,1.0,m,Tue Jun 09 2026 15:42:51 GMT-0500 (Central Daylight Time),384272.5,097_m_f_n_a.png,I,m,618,14,1,1632.2000000476837,382640.2999999523,8120,NNB,B,13
13,test,5,1.0,1-Back,1.0,z,Tue Jun 09 2026 15:42:51 GMT-0500 (Central Daylight Time),385886.90000009537,097_m_f_n_a.png,I,z,594,15,1,1610.4000000953674,384276.5,8120,NNB,B,14
14,test,5,0.0,1-Back,1.0,m,Tue Jun 09 2026 15:42:51 GMT-0500 (Central Daylight Time),387952.7999999523,065_o_m_n_a.png,I,m,1048,16,1,2063.399999856949,385889.40000009537,8120,NNB,B,15
15,test,5,0.0,1-Back,1.0,m,Tue Jun 09 2026 15:42:51 GMT-0500 (Central Daylight Time),389569.2000000477,029_m_f_n_a.png,I,m,583,17,1,1614.0,387955.2000000477,8120,NNB,B,16
16,test,5,0.0,1-Back,1.0,m,Tue Jun 09 2026 15:42:51 GMT-0500 (Central Daylight Time),391352.09999990463,178_m_m_n_a.png,I,m,751,18,1,1780.2999999523163,389571.7999999523,8120,NNB,B,17
0,prac,1,0.0,2-Back,,,Tue Jun 09 2026 15:42:51 GMT-0500 (Central Daylight Time),391352.09999990463,013_y_m_n_a.png,I,space,9343,1,1,1780.2999999523163,389571.7999999523,8120,NNB,B,0
0,prac,1,0.0,2-Back,,,Tue Jun 09 2026 15:42:51 GMT-0500 (Central Daylight Time),391352.09999990463,029_m_f_n_a.png,I,space,9343,2,1,1780.2999999523163,389571.7999999523,8120,NNB,B,0
1,prac,1,1.0,2-Back,1.0,m,Tue Jun 09 2026 15:42:51 GMT-0500 (Central Daylight Time),538255.9000000954,065_o_m_n_a.png,I,m,1066,3,1,1912.2000000476837,536343.7000000477,8120,NNB,B,1
1,prac,1,0.0,2-Back,0.0,m,Tue Jun 09 2026 15:42:51 GMT-0500 (Central Daylight Time),541121.4000000954,086_o_f_n_a.png,I,None,2001,4,1,2861.2000000476837,538260.2000000477,8120,NNB,B,2
1,prac,1,0.0,2-Back,0.0,z,Tue Jun 09 2026 15:42:51 GMT-0500 (Central Daylight Time),542904.5999999046,065_o_m_n_a.png,I,m,1003,5,1,1770.8999998569489,541133.7000000477,8120,NNB,B,3
1,prac,1,1.0,2-Back,0.0,z,Tue Jun 09 2026 15:42:51 GMT-0500 (Central Daylight Time),545686.5,086_o_f_n_a.png,I,None,2011,6,1,2777.9000000953674,542908.5999999046,8120,NNB,B,4
2,prac,1,0.0,2-Back,1.0,m,Tue Jun 09 2026 15:42:51 GMT-0500 (Central Daylight Time),547719.2999999523,178_m_m_n_a.png,I,m,1179,7,1,2028.2000000476837,545691.0999999046,8120,NNB,B,5
3,prac,1,0.0,2-Back,1.0,m,Tue Jun 09 2026 15:42:51 GMT-0500 (Central Daylight Time),549752.2999999523,176_o_m_n_a.png,I,m,1169,8,1,2028.8999998569489,547723.4000000954,8120,NNB,B,6
3,prac,1,0.0,2-Back,0.0,m,Tue Jun 09 2026 15:42:51 GMT-0500 (Central Daylight Time),551785.0,173_y_f_n_a.png,I,z,1177,9,1,2028.7000000476837,549756.2999999523,8120,NNB,B,7
3,prac,1,1.0,2-Back,0.0,z,Tue Jun 09 2026 15:42:51 GMT-0500 (Central Daylight Time),553517.7999999523,176_o_m_n_a.png,I,m,941,10,1,1722.7999999523163,551795.0,8120,NNB,B,8
3,prac,1,0.0,2-Back,0.0,m,Tue Jun 09 2026 15:42:51 GMT-0500 (Central Daylight Time),556366.9000000954,152_y_f_n_a.png,I,None,2004,11,1,2845.600000143051,553521.2999999523,8120,NNB,B,9
4,prac,1,0.0,2-Back,1.0,m,Tue Jun 09 2026 15:42:51 GMT-0500 (Central Daylight Time),558183.0,178_m_m_n_a.png,I,m,1038,12,1,1812.0999999046326,556370.9000000954,8120,NNB,B,10
0,prac,2,0.0,2-Back,,,Tue Jun 09 2026 15:42:51 GMT-0500 (Central Daylight Time),558183.0,013_y_m_n_a.png,I,a,18935,1,1,1812.0999999046326,556370.9000000954,8120,NNB,B,0
0,prac,2,0.0,2-Back,,,Tue Jun 09 2026 15:42:51 GMT-0500 (Central Daylight Time),558183.0,029_m_f_n_a.png,I,a,18935,2,1,1812.0999999046326,556370.9000000954,8120,NNB,B,0
1,prac,2,1.0,2-Back,1.0,m,Tue Jun 09 2026 15:42:51 GMT-0500 (Central Daylight Time),584441.2999999523,065_o_m_n_a.png,I,m,1257,3,1,2107.0,582334.2999999523,8120,NNB,B,1
2,prac,2,0.0,2-Back,1.0,m,Tue Jun 09 2026 15:42:51 GMT-0500 (Central Daylight Time),587206.9000000954,086_o_f_n_a.png,I,m,1886,4,1,2762.0,584444.9000000954,8120,NNB,B,2
2,prac,2,0.0,2-Back,0.0,z,Tue Jun 09 2026 15:42:51 GMT-0500 (Central Daylight Time),589989.7000000477,065_o_m_n_a.png,I,None,2012,5,1,2779.100000143051,587210.5999999046,8120,NNB,B,3
3,prac,2,1.0,2-Back,1.0,z,Tue Jun 09 2026 15:42:51 GMT-0500 (Central Daylight Time),592139.0999999046,086_o_f_n_a.png,I,z,1375,6,1,2145.899999856949,589993.2000000477,8120,NNB,B,4
4,prac,2,0.0,2-Back,1.0,m,Tue Jun 09 2026 15:42:51 GMT-0500 (Central Daylight Time),593855.2999999523,178_m_m_n_a.png,I,m,840,7,1,1712.0999999046326,592143.2000000477,8120,NNB,B,5
4,prac,2,0.0,2-Back,0.0,m,Tue Jun 09 2026 15:42:51 GMT-0500 (Central Daylight Time),596404.4000000954,176_o_m_n_a.png,I,z,1680,8,1,2540.5,593863.9000000954,8120,NNB,B,6
5,prac,2,0.0,2-Back,1.0,m,Tue Jun 09 2026 15:42:51 GMT-0500 (Central Daylight Time),599186.7000000477,173_y_f_n_a.png,I,m,1933,9,1,2778.2999999523163,596408.4000000954,8120,NNB,B,7
6,prac,2,1.0,2-Back,1.0,z,Tue Jun 09 2026 15:42:51 GMT-0500 (Central Daylight Time),601369.0999999046,176_o_m_n_a.png,I,z,1411,10,1,2179.2999999523163,599189.7999999523,8120,NNB,B,8
6,prac,2,0.0,2-Back,0.0,m,Tue Jun 09 2026 15:42:51 GMT-0500 (Central Daylight Time),603936.7999999523,152_y_f_n_a.png,I,z,1713,11,1,2563.399999856949,601373.4000000954,8120,NNB,B,9
7,prac,2,0.0,2-Back,1.0,m,Tue Jun 09 2026 15:42:51 GMT-0500 (Central Daylight Time),606585.7999999523,178_m_m_n_a.png,I,m,1876,12,1,2645.0,603940.7999999523,8120,NNB,B,10
0,test,1,0.0,2-Back,,,Tue Jun 09 2026 15:42:51 GMT-0500 (Central Daylight Time),606585.7999999523,153_y_m_n_a.png,I,space,5566,1,1,2645.0,603940.7999999523,8120,NNB,B,0
0,test,1,0.0,2-Back,,,Tue Jun 09 2026 15:42:51 GMT-0500 (Central Daylight Time),606585.7999999523,153_y_m_n_a.png,I,space,5566,2,1,2645.0,603940.7999999523,8120,NNB,B,0
1,test,1,0.0,2-Back,1.0,m,Tue Jun 09 2026 15:42:51 GMT-0500 (Central Daylight Time),635492.2000000477,086_o_f_n_a.png,I,m,1413,3,1,2430.2000000476837,633062.0,8120,NNB,B,1
2,test,1,0.0,2-Back,1.0,m,Tue Jun 09 2026 15:42:51 GMT-0500 (Central Daylight Time),638207.7999999523,126_m_m_n_a.png,I,m,1692,4,1,2713.0999999046326,635494.7000000477,8120,NNB,B,2
2,test,1,1.0,2-Back,0.0,z,Tue Jun 09 2026 15:42:51 GMT-0500 (Central Daylight Time),640373.7999999523,086_o_f_n_a.png,I,m,1145,5,1,2163.2000000476837,638210.5999999046,8120,NNB,B,3
2,test,1,0.0,2-Back,0.0,m,Tue Jun 09 2026 15:42:51 GMT-0500 (Central Daylight Time),643406.2999999523,152_y_f_n_a.png,I,None,2016,6,1,3030.0,640376.2999999523,8120,NNB,B,4
3,test,1,0.0,2-Back,1.0,m,Tue Jun 09 2026 15:42:51 GMT-0500 (Central Daylight Time),646355.2000000477,126_m_m_n_a.png,I,m,1930,7,1,2946.2000000476837,643409.0,8120,NNB,B,5
4,test,1,1.0,2-Back,1.0,z,Tue Jun 09 2026 15:42:51 GMT-0500 (Central Daylight Time),648487.7999999523,152_y_f_n_a.png,I,z,1109,8,1,2130.0999999046326,646357.7000000477,8120,NNB,B,6
5,test,1,0.0,2-Back,1.0,m,Tue Jun 09 2026 15:42:51 GMT-0500 (Central Daylight Time),651454.9000000954,013_y_m_n_a.png,I,m,1944,9,1,2964.0,648490.9000000954,8120,NNB,B,7
5,test,1,0.0,2-Back,0.0,m,Tue Jun 09 2026 15:42:51 GMT-0500 (Central Daylight Time),654486.0999999046,110_o_f_n_a.png,I,None,2016,10,1,3028.5999999046326,651457.5,8120,NNB,B,8
6,test,1,1.0,2-Back,1.0,z,Tue Jun 09 2026 15:42:51 GMT-0500 (Central Daylight Time),657353.0,013_y_m_n_a.png,I,z,1850,11,1,2862.7000000476837,654490.2999999523,8120,NNB,B,9
7,test,1,0.0,2-Back,1.0,m,Tue Jun 09 2026 15:42:51 GMT-0500 (Central Daylight Time),660334.4000000954,029_m_f_n_a.png,I,m,1953,12,1,2979.0,657355.4000000954,8120,NNB,B,10
7,test,1,0.0,2-Back,0.0,m,Tue Jun 09 2026 15:42:51 GMT-0500 (Central Daylight Time),663383.5,029_m_f_n_a.png,I,None,2002,13,1,3046.5999999046326,660336.9000000954,8120,NNB,B,11
7,test,1,0.0,2-Back,0.0,m,Tue Jun 09 2026 15:42:51 GMT-0500 (Central Daylight Time),665332.7000000477,065_o_m_n_a.png,I,z,921,14,1,1946.5,663386.2000000477,8120,NNB,B,12
8,test,1,0.0,2-Back,1.0,m,Tue Jun 09 2026 15:42:51 GMT-0500 (Central Daylight Time),667548.7999999523,110_o_f_n_a.png,I,m,1188,15,1,2213.399999856949,665335.4000000954,8120,NNB,B,13
9,test,1,1.0,2-Back,1.0,z,Tue Jun 09 2026 15:42:51 GMT-0500 (Central Daylight Time),669681.5,065_o_m_n_a.png,I,z,1108,16,1,2130.0999999046326,667551.4000000954,8120,NNB,B,14
9,test,1,0.0,2-Back,0.0,m,Tue Jun 09 2026 15:42:51 GMT-0500 (Central Daylight Time),672480.5999999046,097_m_f_n_a.png,I,z,1775,17,1,2796.5999999046326,669684.0,8120,NNB,B,15
10,test,1,0.0,2-Back,1.0,m,Tue Jun 09 2026 15:42:51 GMT-0500 (Central Daylight Time),675212.7000000477,178_m_m_n_a.png,I,m,1704,18,1,2729.600000143051,672483.0999999046,8120,NNB,B,16
0,test,2,0.0,2-Back,,,Tue Jun 09 2026 15:42:51 GMT-0500 (Central Daylight Time),675212.7000000477,178_m_m_n_a.png,I,space,18084,1,1,2729.600000143051,672483.0999999046,8120,NNB,B,0
0,test,2,0.0,2-Back,,,Tue Jun 09 2026 15:42:51 GMT-0500 (Central Daylight Time),675212.7000000477,173_y_f_n_a.png,I,space,18084,2,1,2729.600000143051,672483.0999999046,8120,NNB,B,0
1,test,2,1.0,2-Back,1.0,z,Tue Jun 09 2026 15:42:51 GMT-0500 (Central Daylight Time),701139.2999999523,178_m_m_n_a.png,I,z,1697,3,1,2714.2999999523163,698425.0,8120,NNB,B,1
2,test,2,0.0,2-Back,1.0,m,Tue Jun 09 2026 15:42:51 GMT-0500 (Central Daylight Time),703787.2999999523,097_m_f_n_a.png,I,m,1622,4,1,2645.0999999046326,701142.2000000477,8120,NNB,B,2
2,test,2,0.0,2-Back,0.0,m,Tue Jun 09 2026 15:42:51 GMT-0500 (Central Daylight Time),706819.5999999046,173_y_f_n_a.png,I,None,2015,5,1,3029.899999856949,703789.7000000477,8120,NNB,B,3
3,test,2,0.0,2-Back,1.0,m,Tue Jun 09 2026 15:42:51 GMT-0500 (Central Daylight Time),709019.0999999046,065_o_m_n_a.png,I,m,1173,6,1,2197.0,706822.0999999046,8120,NNB,B,4
4,test,2,0.0,2-Back,1.0,m,Tue Jun 09 2026 15:42:51 GMT-0500 (Central Daylight Time),711201.7999999523,152_y_f_n_a.png,I,m,1157,7,1,2180.399999856949,709021.4000000954,8120,NNB,B,5
4,test,2,1.0,2-Back,0.0,z,Tue Jun 09 2026 15:42:51 GMT-0500 (Central Daylight Time),714234.0999999046,065_o_m_n_a.png,I,None,2016,8,1,3029.899999856949,711204.2000000477,8120,NNB,B,6
5,test,2,0.0,2-Back,1.0,m,Tue Jun 09 2026 15:42:51 GMT-0500 (Central Daylight Time),716966.2999999523,013_y_m_n_a.png,I,m,1703,9,1,2729.2999999523163,714237.0,8120,NNB,B,7
6,test,2,0.0,2-Back,1.0,m,Tue Jun 09 2026 15:42:51 GMT-0500 (Central Daylight Time),719549.0999999046,013_y_m_n_a.png,I,m,1561,10,1,2580.0999999046326,716969.0,8120,NNB,B,8
7,test,2,0.0,2-Back,1.0,m,Tue Jun 09 2026 15:42:51 GMT-0500 (Central Daylight Time),721798.2999999523,029_m_f_n_a.png,I,m,1227,11,1,2244.7000000476837,719553.5999999046,8120,NNB,B,9
8,test,2,0.0,2-Back,1.0,m,Tue Jun 09 2026 15:42:51 GMT-0500 (Central Daylight Time),723830.7999999523,173_y_f_n_a.png,I,m,1001,12,1,2030.0,721800.7999999523,8120,NNB,B,10
9,test,2,1.0,2-Back,1.0,z,Tue Jun 09 2026 15:42:51 GMT-0500 (Central Daylight Time),725663.7000000477,029_m_f_n_a.png,I,z,800,13,1,1830.4000000953674,723833.2999999523,8120,NNB,B,11
10,test,2,0.0,2-Back,1.0,m,Tue Jun 09 2026 15:42:51 GMT-0500 (Central Daylight Time),728046.2000000477,176_o_m_n_a.png,I,m,1352,14,1,2379.9000000953674,725666.2999999523,8120,NNB,B,12
11,test,2,0.0,2-Back,1.0,m,Tue Jun 09 2026 15:42:51 GMT-0500 (Central Daylight Time),730429.0,176_o_m_n_a.png,I,m,1362,15,1,2380.2999999523163,728048.7000000477,8120,NNB,B,13
12,test,2,0.0,2-Back,1.0,m,Tue Jun 09 2026 15:42:51 GMT-0500 (Central Daylight Time),732761.5,110_o_f_n_a.png,I,m,1315,16,1,2330.2000000476837,730431.2999999523,8120,NNB,B,14
13,test,2,0.0,2-Back,1.0,m,Tue Jun 09 2026 15:42:51 GMT-0500 (Central Daylight Time),735177.4000000954,126_m_m_n_a.png,I,m,1399,17,1,2411.7000000476837,732765.7000000477,8120,NNB,B,15
14,test,2,1.0,2-Back,1.0,z,Tue Jun 09 2026 15:42:51 GMT-0500 (Central Daylight Time),738126.7999999523,110_o_f_n_a.png,I,z,1919,18,1,2947.0999999046326,735179.7000000477,8120,NNB,B,16
0,test,3,1.0,2-Back,,,Tue Jun 09 2026 15:42:51 GMT-0500 (Central Daylight Time),738126.7999999523,153_y_m_n_a.png,I,space,5634,1,1,2947.0999999046326,735179.7000000477,8120,NNB,B,0
0,test,3,1.0,2-Back,,,Tue Jun 09 2026 15:42:51 GMT-0500 (Central Daylight Time),738126.7999999523,153_y_m_n_a.png,I,space,5634,2,1,2947.0999999046326,735179.7000000477,8120,NNB,B,0
1,test,3,0.0,2-Back,1.0,m,Tue Jun 09 2026 15:42:51 GMT-0500 (Central Daylight Time),750705.5999999046,110_o_f_n_a.png,I,m,798,3,1,1813.0999999046326,748892.5,8120,NNB,B,1
2,test,3,0.0,2-Back,1.0,m,Tue Jun 09 2026 15:42:51 GMT-0500 (Central Daylight Time),752721.9000000954,178_m_m_n_a.png,I,m,990,4,1,2013.9000000953674,750708.0,8120,NNB,B,2
3,test,3,1.0,2-Back,1.0,z,Tue Jun 09 2026 15:42:51 GMT-0500 (Central Daylight Time),754821.0999999046,110_o_f_n_a.png,I,z,1079,5,1,2095.5,752725.5999999046,8120,NNB,B,3
4,test,3,0.0,2-Back,1.0,m,Tue Jun 09 2026 15:42:51 GMT-0500 (Central Daylight Time),757553.7999999523,013_y_m_n_a.png,I,m,1712,6,1,2730.0,754823.7999999523,8120,NNB,B,4
5,test,3,0.0,2-Back,1.0,m,Tue Jun 09 2026 15:42:51 GMT-0500 (Central Daylight Time),759836.5999999046,178_m_m_n_a.png,I,m,1263,7,1,2280.399999856949,757556.2000000477,8120,NNB,B,5
6,test,3,1.0,2-Back,1.0,z,Tue Jun 09 2026 15:42:51 GMT-0500 (Central Daylight Time),761902.2000000477,013_y_m_n_a.png,I,z,1036,8,1,2062.9000000953674,759839.2999999523,8120,NNB,B,6
7,test,3,0.0,2-Back,1.0,m,Tue Jun 09 2026 15:42:51 GMT-0500 (Central Daylight Time),764768.0,173_y_f_n_a.png,I,m,1840,9,1,2863.0999999046326,761904.9000000954,8120,NNB,B,7
7,test,3,0.0,2-Back,0.0,m,Tue Jun 09 2026 15:42:51 GMT-0500 (Central Daylight Time),767134.0999999046,126_m_m_n_a.png,I,z,1343,10,1,2363.5,764770.5999999046,8120,NNB,B,8
7,test,3,1.0,2-Back,0.0,z,Tue Jun 09 2026 15:42:51 GMT-0500 (Central Daylight Time),769216.7999999523,173_y_f_n_a.png,I,m,1050,11,1,2080.0999999046326,767136.7000000477,8120,NNB,B,9
8,test,3,1.0,2-Back,1.0,z,Tue Jun 09 2026 15:42:51 GMT-0500 (Central Daylight Time),772066.0,126_m_m_n_a.png,I,z,1823,12,1,2846.5999999046326,769219.4000000954,8120,NNB,B,10
9,test,3,0.0,2-Back,1.0,m,Tue Jun 09 2026 15:42:51 GMT-0500 (Central Daylight Time),774148.5999999046,110_o_f_n_a.png,I,m,1062,13,1,2079.7999999523163,772068.7999999523,8120,NNB,B,11
10,test,3,0.0,2-Back,1.0,m,Tue Jun 09 2026 15:42:51 GMT-0500 (Central Daylight Time),776131.2999999523,097_m_f_n_a.png,I,m,964,14,1,1980.2000000476837,774151.0999999046,8120,NNB,B,12
10,test,3,0.0,2-Back,0.0,m,Tue Jun 09 2026 15:42:51 GMT-0500 (Central Daylight Time),779244.2000000477,065_o_m_n_a.png,I,None,2096,15,1,3110.4000000953674,776133.7999999523,8120,NNB,B,13
10,test,3,1.0,2-Back,0.0,z,Tue Jun 09 2026 15:42:51 GMT-0500 (Central Daylight Time),782279.0999999046,097_m_f_n_a.png,I,None,2015,16,1,3032.199999809265,779246.9000000954,8120,NNB,B,14
11,test,3,0.0,2-Back,1.0,m,Tue Jun 09 2026 15:42:51 GMT-0500 (Central Daylight Time),784278.7999999523,086_o_f_n_a.png,I,m,969,17,1,1996.3999998569489,782282.4000000954,8120,NNB,B,15
12,test,3,0.0,2-Back,1.0,m,Tue Jun 09 2026 15:42:51 GMT-0500 (Central Daylight Time),787144.5999999046,086_o_f_n_a.png,I,m,1842,18,1,2863.0,784281.5999999046,8120,NNB,B,16
0,test,4,0.0,2-Back,,,Tue Jun 09 2026 15:42:51 GMT-0500 (Central Daylight Time),787144.5999999046,176_o_m_n_a.png,I,space,2544,1,1,2863.0,784281.5999999046,8120,NNB,B,0
0,test,4,0.0,2-Back,,,Tue Jun 09 2026 15:42:51 GMT-0500 (Central Daylight Time),787144.5999999046,152_y_f_n_a.png,I,space,2544,2,1,2863.0,784281.5999999046,8120,NNB,B,0
1,test,4,1.0,2-Back,1.0,z,Tue Jun 09 2026 15:42:51 GMT-0500 (Central Daylight Time),796991.7000000477,176_o_m_n_a.png,I,z,1093,3,1,2114.0,794877.7000000477,8120,NNB,B,1
2,test,4,1.0,2-Back,1.0,z,Tue Jun 09 2026 15:42:51 GMT-0500 (Central Daylight Time),798973.9000000954,152_y_f_n_a.png,I,z,961,4,1,1979.6000001430511,796994.2999999523,8120,NNB,B,2
3,test,4,0.0,2-Back,1.0,m,Tue Jun 09 2026 15:42:51 GMT-0500 (Central Daylight Time),800923.5,110_o_f_n_a.png,I,m,930,5,1,1947.2999999523163,798976.2000000477,8120,NNB,B,3
3,test,4,0.0,2-Back,0.0,m,Tue Jun 09 2026 15:42:51 GMT-0500 (Central Daylight Time),803855.9000000954,110_o_f_n_a.png,I,z,1899,6,1,2929.5,800926.4000000954,8120,NNB,B,4
4,test,4,0.0,2-Back,1.0,m,Tue Jun 09 2026 15:42:51 GMT-0500 (Central Daylight Time),806288.5,029_m_f_n_a.png,I,m,1400,7,1,2429.9000000953674,803858.5999999046,8120,NNB,B,5
5,test,4,0.0,2-Back,1.0,m,Tue Jun 09 2026 15:42:51 GMT-0500 (Central Daylight Time),808337.7999999523,013_y_m_n_a.png,I,m,1025,8,1,2046.7999999523163,806291.0,8120,NNB,B,6
6,test,4,1.0,2-Back,1.0,z,Tue Jun 09 2026 15:42:51 GMT-0500 (Central Daylight Time),810253.7999999523,029_m_f_n_a.png,I,z,886,9,1,1913.5999999046326,808340.2000000477,8120,NNB,B,7
7,test,4,0.0,2-Back,1.0,m,Tue Jun 09 2026 15:42:51 GMT-0500 (Central Daylight Time),812470.0,126_m_m_n_a.png,I,m,1186,10,1,2213.4000000953674,810256.5999999046,8120,NNB,B,8
8,test,4,0.0,2-Back,1.0,m,Tue Jun 09 2026 15:42:51 GMT-0500 (Central Daylight Time),815485.7000000477,013_y_m_n_a.png,I,m,1994,11,1,3013.100000143051,812472.5999999046,8120,NNB,B,9
9,test,4,0.0,2-Back,1.0,m,Tue Jun 09 2026 15:42:51 GMT-0500 (Central Daylight Time),817435.2000000477,086_o_f_n_a.png,I,m,923,12,1,1946.4000000953674,815488.7999999523,8120,NNB,B,10
10,test,4,0.0,2-Back,1.0,m,Tue Jun 09 2026 15:42:51 GMT-0500 (Central Daylight Time),819734.2000000477,153_y_m_n_a.png,I,m,1269,13,1,2296.5,817437.7000000477,8120,NNB,B,11
11,test,4,1.0,2-Back,1.0,z,Tue Jun 09 2026 15:42:51 GMT-0500 (Central Daylight Time),821283.7999999523,086_o_f_n_a.png,I,z,530,14,1,1546.7999999523163,819737.0,8120,NNB,B,12
11,test,4,1.0,2-Back,0.0,z,Tue Jun 09 2026 15:42:51 GMT-0500 (Central Daylight Time),823816.2999999523,153_y_m_n_a.png,I,m,1508,15,1,2530.0999999046326,821286.2000000477,8120,NNB,B,13
12,test,4,0.0,2-Back,1.0,m,Tue Jun 09 2026 15:42:51 GMT-0500 (Central Daylight Time),826508.5,178_m_m_n_a.png,I,m,1675,16,1,2689.9000000953674,823818.5999999046,8120,NNB,B,14
13,test,4,0.0,2-Back,1.0,m,Tue Jun 09 2026 15:42:51 GMT-0500 (Central Daylight Time),829248.0,097_m_f_n_a.png,I,m,1726,17,1,2736.2999999523163,826511.7000000477,8120,NNB,B,15
14,test,4,1.0,2-Back,1.0,z,Tue Jun 09 2026 15:42:51 GMT-0500 (Central Daylight Time),831297.2000000477,178_m_m_n_a.png,I,z,1024,18,1,2046.5,829250.7000000477,8120,NNB,B,16
0,test,5,1.0,2-Back,,,Tue Jun 09 2026 15:42:51 GMT-0500 (Central Daylight Time),831297.2000000477,153_y_m_n_a.png,I,space,1487,1,1,2046.5,829250.7000000477,8120,NNB,B,0
0,test,5,1.0,2-Back,,,Tue Jun 09 2026 15:42:51 GMT-0500 (Central Daylight Time),831297.2000000477,097_m_f_n_a.png,I,space,1487,2,1,2046.5,829250.7000000477,8120,NNB,B,0
1,test,5,1.0,2-Back,1.0,z,Tue Jun 09 2026 15:42:51 GMT-0500 (Central Daylight Time),839827.9000000954,153_y_m_n_a.png,I,z,963,3,1,1980.1000001430511,837847.7999999523,8120,NNB,B,1
2,test,5,1.0,2-Back,1.0,z,Tue Jun 09 2026 15:42:51 GMT-0500 (Central Daylight Time),842077.2999999523,097_m_f_n_a.png,I,z,1219,4,1,2246.7999999523163,839830.5,8120,NNB,B,2
3,test,5,0.0,2-Back,1.0,m,Tue Jun 09 2026 15:42:51 GMT-0500 (Central Daylight Time),844476.7000000477,086_o_f_n_a.png,I,m,1379,5,1,2396.7000000476837,842080.0,8120,NNB,B,3
3,test,5,0.0,2-Back,0.0,m,Tue Jun 09 2026 15:42:51 GMT-0500 (Central Daylight Time),846409.2999999523,153_y_m_n_a.png,I,z,916,6,1,1929.8999998569489,844479.4000000954,8120,NNB,B,4
4,test,5,0.0,2-Back,1.0,m,Tue Jun 09 2026 15:42:51 GMT-0500 (Central Daylight Time),849158.5,173_y_f_n_a.png,I,m,1727,7,1,2746.7000000476837,846411.7999999523,8120,NNB,B,5
4,test,5,0.0,2-Back,0.0,m,Tue Jun 09 2026 15:42:51 GMT-0500 (Central Daylight Time),852191.0,086_o_f_n_a.png,I,None,2013,8,1,3029.9000000953674,849161.0999999046,8120,NNB,B,6
5,test,5,1.0,2-Back,1.0,z,Tue Jun 09 2026 15:42:51 GMT-0500 (Central Daylight Time),853690.0999999046,173_y_f_n_a.png,I,z,482,9,1,1496.5,852193.5999999046,8120,NNB,B,7
6,test,5,0.0,2-Back,1.0,m,Tue Jun 09 2026 15:42:51 GMT-0500 (Central Daylight Time),855689.5999999046,065_o_m_n_a.png,I,m,966,10,1,1997.0999999046326,853692.5,8120,NNB,B,8
6,test,5,0.0,2-Back,0.0,m,Tue Jun 09 2026 15:42:51 GMT-0500 (Central Daylight Time),857989.0999999046,029_m_f_n_a.png,I,z,1271,11,1,2297.0999999046326,855692.0,8120,NNB,B,9
7,test,5,0.0,2-Back,1.0,m,Tue Jun 09 2026 15:42:51 GMT-0500 (Central Daylight Time),860621.5,126_m_m_n_a.png,I,m,1602,12,1,2629.7000000476837,857991.7999999523,8120,NNB,B,10
8,test,5,0.0,2-Back,1.0,m,Tue Jun 09 2026 15:42:51 GMT-0500 (Central Daylight Time),863020.5999999046,065_o_m_n_a.png,I,m,1372,13,1,2396.2999999523163,860624.2999999523,8120,NNB,B,11
9,test,5,1.0,2-Back,1.0,z,Tue Jun 09 2026 15:42:51 GMT-0500 (Central Daylight Time),865203.5,126_m_m_n_a.png,I,z,1164,14,1,2180.2000000476837,863023.2999999523,8120,NNB,B,12
10,test,5,0.0,2-Back,1.0,m,Tue Jun 09 2026 15:42:51 GMT-0500 (Central Daylight Time),867402.7999999523,152_y_f_n_a.png,I,m,1173,15,1,2196.899999856949,865205.9000000954,8120,NNB,B,13
11,test,5,0.0,2-Back,1.0,m,Tue Jun 09 2026 15:42:51 GMT-0500 (Central Daylight Time),869318.5999999046,176_o_m_n_a.png,I,m,894,16,1,1913.2999999523163,867405.2999999523,8120,NNB,B,14
12,test,5,0.0,2-Back,1.0,m,Tue Jun 09 2026 15:42:51 GMT-0500 (Central Daylight Time),871684.9000000954,029_m_f_n_a.png,I,m,1338,17,1,2363.9000000953674,869321.0,8120,NNB,B,15
13,test,5,1.0,2-Back,1.0,z,Tue Jun 09 2026 15:42:51 GMT-0500 (Central Daylight Time),874150.5999999046,176_o_m_n_a.png,I,z,1436,18,1,2457.2999999523163,871693.2999999523,8120,NNB,B,16
