block_c,block_dur,condition,countdown,datetime,endtime,list,multichar_response,project,response,response_time,session_number,start_end,starttime,subject_id,task,task_vers,trial
,,,,Fri Aug 15 2025 10:46:27 GMT-0500 (Central Daylight Time),,,,I,space,431,2,,,8036,WL,C,
prac,,0,,Fri Aug 15 2025 10:46:27 GMT-0500 (Central Daylight Time),,NA,b,I,b,7989,2,,,8036,WL,C,1.0
prac,,0,,Fri Aug 15 2025 10:46:27 GMT-0500 (Central Daylight Time),,NA,bo,I,o,570,2,,,8036,WL,C,1.0
prac,,0,,Fri Aug 15 2025 10:46:27 GMT-0500 (Central Daylight Time),,NA,boo,I,o,155,2,,,8036,WL,C,1.0
prac,,0,,Fri Aug 15 2025 10:46:27 GMT-0500 (Central Daylight Time),,NA,boos,I,s,190,2,,,8036,WL,C,1.0
prac,,0,,Fri Aug 15 2025 10:46:27 GMT-0500 (Central Daylight Time),,NA,boost,I,t,317,2,,,8036,WL,C,1.0
prac,,0,,Fri Aug 15 2025 10:46:27 GMT-0500 (Central Daylight Time),,NA,boostenter,I,enter,2441,2,,,8036,WL,C,1.0
1,4.598999977111816,learn,55401.00002288818,Fri Aug 15 2025 10:46:27 GMT-0500 (Central Daylight Time),133965.10000002384,A,t,I,t,4582,2,4598.600000023842,129366.5,8036,WL,C,1.0
1,4.915999889373779,learn,55084.00011062622,Fri Aug 15 2025 10:46:27 GMT-0500 (Central Daylight Time),134281.30000001192,A,to,I,o,294,2,4914.800000011921,129366.5,8036,WL,C,1.0
1,5.098999977111816,learn,54901.00002288818,Fri Aug 15 2025 10:46:27 GMT-0500 (Central Daylight Time),134464.5,A,tow,I,w,162,2,5098.0,129366.5,8036,WL,C,1.0
1,5.332000017166138,learn,54667.99998283386,Fri Aug 15 2025 10:46:27 GMT-0500 (Central Daylight Time),134697.80000001192,A,towe,I,e,220,2,5331.300000011921,129366.5,8036,WL,C,1.0
1,5.665999889373779,learn,54334.00011062622,Fri Aug 15 2025 10:46:27 GMT-0500 (Central Daylight Time),135031.40000003576,A,tower,I,r,322,2,5664.900000035763,129366.5,8036,WL,C,1.0
1,7.615000009536743,learn,52384.99999046326,Fri Aug 15 2025 10:46:27 GMT-0500 (Central Daylight Time),136980.40000003576,A,towerw,I,w,1933,2,7613.900000035763,129366.5,8036,WL,C,1.0
1,7.8480000495910645,learn,52151.999950408936,Fri Aug 15 2025 10:46:27 GMT-0500 (Central Daylight Time),137214.0,A,towerwh,I,h,215,2,7847.5,129366.5,8036,WL,C,1.0
1,8.648000001907349,learn,51351.99999809265,Fri Aug 15 2025 10:46:27 GMT-0500 (Central Daylight Time),138013.40000003576,A,towerwhe,I,e,782,2,8646.900000035763,129366.5,8036,WL,C,1.0
1,8.980999946594238,learn,51019.00005340576,Fri Aug 15 2025 10:46:27 GMT-0500 (Central Daylight Time),138346.70000004768,A,towerwhea,I,a,319,2,8980.200000047684,129366.5,8036,WL,C,1.0
1,9.330999851226807,learn,50669.00014877319,Fri Aug 15 2025 10:46:27 GMT-0500 (Central Daylight Time),138696.5,A,towerwheat,I,t,338,2,9330.0,129366.5,8036,WL,C,1.0
1,9.896999835968018,learn,50103.00016403198,Fri Aug 15 2025 10:46:27 GMT-0500 (Central Daylight Time),139263.10000002384,A,towerwheats,I,s,555,2,9896.600000023842,129366.5,8036,WL,C,1.0
1,14.078999996185303,learn,45921.0000038147,Fri Aug 15 2025 10:46:27 GMT-0500 (Central Daylight Time),143445.10000002384,A,towerwheatss,I,s,4174,2,14078.600000023842,129366.5,8036,WL,C,1.0
1,14.36299991607666,learn,45637.00008392334,Fri Aug 15 2025 10:46:27 GMT-0500 (Central Daylight Time),143728.20000004768,A,towerwheatssu,I,u,263,2,14361.700000047684,129366.5,8036,WL,C,1.0
1,14.61299991607666,learn,45387.00008392334,Fri Aug 15 2025 10:46:27 GMT-0500 (Central Daylight Time),143978.30000001192,A,towerwheatssug,I,g,245,2,14611.800000011921,129366.5,8036,WL,C,1.0
1,14.928999900817871,learn,45071.00009918213,Fri Aug 15 2025 10:46:27 GMT-0500 (Central Daylight Time),144294.80000001192,A,towerwheatssuga,I,a,306,2,14928.300000011921,129366.5,8036,WL,C,1.0
1,15.162999868392944,learn,44837.000131607056,Fri Aug 15 2025 10:46:27 GMT-0500 (Central Daylight Time),144528.10000002384,A,towerwheatssugar,I,r,213,2,15161.600000023842,129366.5,8036,WL,C,1.0
1,18.294999837875366,learn,41705.000162124634,Fri Aug 15 2025 10:46:27 GMT-0500 (Central Daylight Time),147660.40000003576,A,towerwheatssuga,I,backspace,3116,2,18293.900000035763,129366.5,8036,WL,C,1.0
1,19.210999965667725,learn,40789.000034332275,Fri Aug 15 2025 10:46:27 GMT-0500 (Central Daylight Time),148576.90000003576,A,towerwheatssug,I,backspace,905,2,19210.400000035763,129366.5,8036,WL,C,1.0
1,20.07699990272522,learn,39923.00009727478,Fri Aug 15 2025 10:46:27 GMT-0500 (Central Daylight Time),149443.10000002384,A,towerwheatssu,I,backspace,860,2,20076.600000023842,129366.5,8036,WL,C,1.0
1,20.444000005722046,learn,39555.999994277954,Fri Aug 15 2025 10:46:27 GMT-0500 (Central Daylight Time),149809.60000002384,A,towerwheatss,I,backspace,361,2,20443.100000023842,129366.5,8036,WL,C,1.0
1,20.67799997329712,learn,39322.00002670288,Fri Aug 15 2025 10:46:27 GMT-0500 (Central Daylight Time),150043.10000002384,A,towerwheats,I,backspace,218,2,20676.600000023842,129366.5,8036,WL,C,1.0
1,21.109999895095825,learn,38890.000104904175,Fri Aug 15 2025 10:46:27 GMT-0500 (Central Daylight Time),150475.90000003576,A,towerwheat,I,backspace,426,2,21109.400000035763,129366.5,8036,WL,C,1.0
1,21.444000005722046,learn,38555.999994277954,Fri Aug 15 2025 10:46:27 GMT-0500 (Central Daylight Time),150809.40000003576,A,towerwhea,I,backspace,312,2,21442.900000035763,129366.5,8036,WL,C,1.0
1,21.694000005722046,learn,38305.999994277954,Fri Aug 15 2025 10:46:27 GMT-0500 (Central Daylight Time),151059.70000004768,A,towerwhe,I,backspace,235,2,21693.200000047684,129366.5,8036,WL,C,1.0
1,21.944000005722046,learn,38055.999994277954,Fri Aug 15 2025 10:46:27 GMT-0500 (Central Daylight Time),151309.40000003576,A,towerwh,I,backspace,240,2,21942.900000035763,129366.5,8036,WL,C,1.0
1,24.33299994468689,learn,35667.00005531311,Fri Aug 15 2025 10:46:27 GMT-0500 (Central Daylight Time),153698.90000003576,A,towerw,I,backspace,2368,2,24332.400000035763,129366.5,8036,WL,C,1.0
1,26.925999879837036,learn,33074.000120162964,Fri Aug 15 2025 10:46:27 GMT-0500 (Central Daylight Time),156291.20000004768,A,tower,I,backspace,2578,2,26924.700000047684,129366.5,8036,WL,C,1.0
1,29.057999849319458,learn,30942.000150680542,Fri Aug 15 2025 10:46:27 GMT-0500 (Central Daylight Time),158423.5,A,towerenter,I,enter,2120,2,29057.0,129366.5,8036,WL,C,1.0
1,30.35800004005432,learn,29641.99995994568,Fri Aug 15 2025 10:46:27 GMT-0500 (Central Daylight Time),159723.10000002384,A,s,I,s,1293,2,1299.1000000238419,158424.0,8036,WL,C,2.0
1,30.62399983406067,learn,29376.00016593933,Fri Aug 15 2025 10:46:27 GMT-0500 (Central Daylight Time),159989.70000004768,A,su,I,u,258,2,1565.7000000476837,158424.0,8036,WL,C,2.0
1,30.823999881744385,learn,29176.000118255615,Fri Aug 15 2025 10:46:27 GMT-0500 (Central Daylight Time),160189.70000004768,A,sug,I,g,191,2,1765.7000000476837,158424.0,8036,WL,C,2.0
1,31.10699987411499,learn,28893.00012588501,Fri Aug 15 2025 10:46:27 GMT-0500 (Central Daylight Time),160473.10000002384,A,suga,I,a,270,2,2049.100000023842,158424.0,8036,WL,C,2.0
1,31.323999881744385,learn,28676.000118255615,Fri Aug 15 2025 10:46:27 GMT-0500 (Central Daylight Time),160689.30000001192,A,sugar,I,r,211,2,2265.300000011921,158424.0,8036,WL,C,2.0
1,31.94000005722046,learn,28059.99994277954,Fri Aug 15 2025 10:46:27 GMT-0500 (Central Daylight Time),161306.0,A,sugarenter,I,enter,603,2,2882.0,158424.0,8036,WL,C,2.0
1,34.00600004196167,learn,25993.99995803833,Fri Aug 15 2025 10:46:27 GMT-0500 (Central Daylight Time),163372.10000002384,A,c,I,c,2050,2,2065.600000023842,161306.5,8036,WL,C,3.0
1,34.20599985122681,learn,25794.000148773193,Fri Aug 15 2025 10:46:27 GMT-0500 (Central Daylight Time),163572.0,A,co,I,o,192,2,2265.5,161306.5,8036,WL,C,3.0
1,34.4229998588562,learn,25577.0001411438,Fri Aug 15 2025 10:46:27 GMT-0500 (Central Daylight Time),163788.80000001192,A,cor,I,r,209,2,2482.300000011921,161306.5,8036,WL,C,3.0
1,35.19000005722046,learn,24809.99994277954,Fri Aug 15 2025 10:46:27 GMT-0500 (Central Daylight Time),164555.20000004768,A,corn,I,n,760,2,3248.7000000476837,161306.5,8036,WL,C,3.0
1,36.35599994659424,learn,23644.00005340576,Fri Aug 15 2025 10:46:27 GMT-0500 (Central Daylight Time),165721.30000001192,A,cornenter,I,enter,1154,2,4414.800000011921,161306.5,8036,WL,C,3.0
1,37.42199993133545,learn,22578.00006866455,Fri Aug 15 2025 10:46:27 GMT-0500 (Central Daylight Time),166787.60000002384,A,s,I,s,1050,2,1065.8999999761581,165721.70000004768,8036,WL,C,4.0
1,37.67199993133545,learn,22328.00006866455,Fri Aug 15 2025 10:46:27 GMT-0500 (Central Daylight Time),167037.60000002384,A,su,I,u,233,2,1315.8999999761581,165721.70000004768,8036,WL,C,4.0
1,37.871999979019165,learn,22128.000020980835,Fri Aug 15 2025 10:46:27 GMT-0500 (Central Daylight Time),167237.70000004768,A,sug,I,g,183,2,1516.0,165721.70000004768,8036,WL,C,4.0
1,38.17199993133545,learn,21828.00006866455,Fri Aug 15 2025 10:46:27 GMT-0500 (Central Daylight Time),167537.60000002384,A,suga,I,a,279,2,1815.8999999761581,165721.70000004768,8036,WL,C,4.0
1,38.371999979019165,learn,21628.000020980835,Fri Aug 15 2025 10:46:27 GMT-0500 (Central Daylight Time),167737.40000003576,A,sugar,I,r,188,2,2015.699999988079,165721.70000004768,8036,WL,C,4.0
1,39.22199988365173,learn,20778.000116348267,Fri Aug 15 2025 10:46:27 GMT-0500 (Central Daylight Time),168587.20000004768,A,sugarenter,I,enter,835,2,2865.5,165721.70000004768,8036,WL,C,4.0
1,40.38800001144409,learn,19611.99998855591,Fri Aug 15 2025 10:46:27 GMT-0500 (Central Daylight Time),169753.30000001192,A,l,I,l,1146,2,1165.699999988079,168587.60000002384,8036,WL,C,5.0
1,40.57099986076355,learn,19429.00013923645,Fri Aug 15 2025 10:46:27 GMT-0500 (Central Daylight Time),169937.10000002384,A,le,I,e,163,2,1349.5,168587.60000002384,8036,WL,C,5.0
1,40.88800001144409,learn,19111.99998855591,Fri Aug 15 2025 10:46:27 GMT-0500 (Central Daylight Time),170253.40000003576,A,let,I,t,308,2,1665.800000011921,168587.60000002384,8036,WL,C,5.0
1,41.07200002670288,learn,18927.99997329712,Fri Aug 15 2025 10:46:27 GMT-0500 (Central Daylight Time),170437.80000001192,A,lett,I,t,168,2,1850.199999988079,168587.60000002384,8036,WL,C,5.0
1,41.32099986076355,learn,18679.00013923645,Fri Aug 15 2025 10:46:27 GMT-0500 (Central Daylight Time),170686.40000003576,A,lette,I,e,238,2,2098.800000011921,168587.60000002384,8036,WL,C,5.0
1,41.520999908447266,learn,18479.000091552734,Fri Aug 15 2025 10:46:27 GMT-0500 (Central Daylight Time),170886.40000003576,A,letter,I,r,191,2,2298.800000011921,168587.60000002384,8036,WL,C,5.0
1,42.58699989318848,learn,17413.000106811523,Fri Aug 15 2025 10:46:27 GMT-0500 (Central Daylight Time),171952.90000003576,A,letterenter,I,enter,1054,2,3365.300000011921,168587.60000002384,8036,WL,C,5.0
1,44.734999895095825,learn,15265.000104904175,Fri Aug 15 2025 10:46:27 GMT-0500 (Central Daylight Time),174102.0,A,s,I,s,2133,2,2148.7999999523163,171953.20000004768,8036,WL,C,6.0
1,44.9689998626709,learn,15031.000137329102,Fri Aug 15 2025 10:46:27 GMT-0500 (Central Daylight Time),174335.60000002384,A,sh,I,h,223,2,2382.399999976158,171953.20000004768,8036,WL,C,6.0
1,45.41799998283386,learn,14582.000017166138,Fri Aug 15 2025 10:46:27 GMT-0500 (Central Daylight Time),174785.20000004768,A,sho,I,o,429,2,2832.0,171953.20000004768,8036,WL,C,6.0
1,45.61899995803833,learn,14381.00004196167,Fri Aug 15 2025 10:46:27 GMT-0500 (Central Daylight Time),174985.30000001192,A,shor,I,r,195,2,3032.099999964237,171953.20000004768,8036,WL,C,6.0
1,45.85199999809265,learn,14148.000001907349,Fri Aug 15 2025 10:46:27 GMT-0500 (Central Daylight Time),175218.70000004768,A,shore,I,e,220,2,3265.5,171953.20000004768,8036,WL,C,6.0
1,46.86800003051758,learn,13131.999969482422,Fri Aug 15 2025 10:46:27 GMT-0500 (Central Daylight Time),176234.80000001192,A,shoreenter,I,enter,1003,2,4281.599999964237,171953.20000004768,8036,WL,C,6.0
1,51.467000007629395,learn,8532.999992370605,Fri Aug 15 2025 10:46:27 GMT-0500 (Central Daylight Time),180833.60000002384,A,w,I,w,4586,2,4598.5,176235.10000002384,8036,WL,C,7.0
1,51.83299994468689,learn,8167.00005531311,Fri Aug 15 2025 10:46:27 GMT-0500 (Central Daylight Time),181200.0,A,wh,I,h,346,2,4964.899999976158,176235.10000002384,8036,WL,C,7.0
1,51.98300004005432,learn,8016.999959945679,Fri Aug 15 2025 10:46:27 GMT-0500 (Central Daylight Time),181350.0,A,whe,I,e,141,2,5114.899999976158,176235.10000002384,8036,WL,C,7.0
1,52.26699995994568,learn,7733.000040054321,Fri Aug 15 2025 10:46:27 GMT-0500 (Central Daylight Time),181633.40000003576,A,whea,I,a,271,2,5398.300000011921,176235.10000002384,8036,WL,C,7.0
1,52.56599998474121,learn,7434.000015258789,Fri Aug 15 2025 10:46:27 GMT-0500 (Central Daylight Time),181932.90000003576,A,wheat,I,t,284,2,5697.800000011921,176235.10000002384,8036,WL,C,7.0
1,53.71599984169006,learn,6284.0001583099365,Fri Aug 15 2025 10:46:27 GMT-0500 (Central Daylight Time),183082.5,A,wheatenter,I,enter,1136,2,6847.399999976158,176235.10000002384,8036,WL,C,7.0
1,60.013999938964844,learn,-13.99993896484375,Fri Aug 15 2025 10:46:27 GMT-0500 (Central Daylight Time),189380.60000002384,A,None,I,None,6293,2,6297.800000011921,183082.80000001192,8036,WL,C,8.0
2,1.7000000476837158,learn,58299.999952316284,Fri Aug 15 2025 10:46:27 GMT-0500 (Central Daylight Time),263874.10000002384,A,w,I,w,1688,2,1699.3999999761581,262174.7000000477,8036,WL,C,1.0
2,1.9160001277923584,learn,58083.99987220764,Fri Aug 15 2025 10:46:27 GMT-0500 (Central Daylight Time),264090.8000000119,A,wh,I,h,202,2,1916.0999999642372,262174.7000000477,8036,WL,C,1.0
2,2.0989999771118164,learn,57901.00002288818,Fri Aug 15 2025 10:46:27 GMT-0500 (Central Daylight Time),264273.90000003576,A,whe,I,e,171,2,2099.199999988079,262174.7000000477,8036,WL,C,1.0
2,2.431999921798706,learn,57568.000078201294,Fri Aug 15 2025 10:46:27 GMT-0500 (Central Daylight Time),264607.0,A,whea,I,a,323,2,2432.2999999523163,262174.7000000477,8036,WL,C,1.0
2,2.7320001125335693,learn,57267.99988746643,Fri Aug 15 2025 10:46:27 GMT-0500 (Central Daylight Time),264906.8000000119,A,wheat,I,t,286,2,2732.099999964237,262174.7000000477,8036,WL,C,1.0
2,3.5820000171661377,learn,56417.99998283386,Fri Aug 15 2025 10:46:27 GMT-0500 (Central Daylight Time),265756.40000003576,A,wheatenter,I,enter,834,2,3581.699999988079,262174.7000000477,8036,WL,C,1.0
2,4.398999929428101,learn,55601.0000705719,Fri Aug 15 2025 10:46:27 GMT-0500 (Central Daylight Time),266573.10000002384,A,s,I,s,808,2,816.3999999761581,265756.7000000477,8036,WL,C,2.0
2,4.681999921798706,learn,55318.000078201294,Fri Aug 15 2025 10:46:27 GMT-0500 (Central Daylight Time),266856.2000000477,A,su,I,u,263,2,1099.5,265756.7000000477,8036,WL,C,2.0
2,4.88100004196167,learn,55118.99995803833,Fri Aug 15 2025 10:46:27 GMT-0500 (Central Daylight Time),267055.8000000119,A,sug,I,g,188,2,1299.0999999642372,265756.7000000477,8036,WL,C,2.0
2,5.148000001907349,learn,54851.99999809265,Fri Aug 15 2025 10:46:27 GMT-0500 (Central Daylight Time),267322.5,A,suga,I,a,261,2,1565.7999999523163,265756.7000000477,8036,WL,C,2.0
2,5.381999969482422,learn,54618.00003051758,Fri Aug 15 2025 10:46:27 GMT-0500 (Central Daylight Time),267556.40000003576,A,sugar,I,r,219,2,1799.699999988079,265756.7000000477,8036,WL,C,2.0
2,6.081000089645386,learn,53918.999910354614,Fri Aug 15 2025 10:46:27 GMT-0500 (Central Daylight Time),268255.90000003576,A,sugarenter,I,enter,689,2,2499.199999988079,265756.7000000477,8036,WL,C,2.0
2,6.531000137329102,learn,53468.9998626709,Fri Aug 15 2025 10:46:27 GMT-0500 (Central Daylight Time),268705.5,A,t,I,t,444,2,449.2999999523163,268256.2000000477,8036,WL,C,3.0
2,6.781000137329102,learn,53218.9998626709,Fri Aug 15 2025 10:46:27 GMT-0500 (Central Daylight Time),268955.90000003576,A,to,I,o,235,2,699.6999999880791,268256.2000000477,8036,WL,C,3.0
2,7.04800009727478,learn,52951.99990272522,Fri Aug 15 2025 10:46:27 GMT-0500 (Central Daylight Time),269222.10000002384,A,tow,I,w,257,2,965.8999999761581,268256.2000000477,8036,WL,C,3.0
2,7.314000129699707,learn,52685.99987030029,Fri Aug 15 2025 10:46:27 GMT-0500 (Central Daylight Time),269488.7000000477,A,towe,I,e,254,2,1232.5,268256.2000000477,8036,WL,C,3.0
2,7.581000089645386,learn,52418.999910354614,Fri Aug 15 2025 10:46:27 GMT-0500 (Central Daylight Time),269755.5,A,tower,I,r,260,2,1499.2999999523163,268256.2000000477,8036,WL,C,3.0
2,8.680000066757202,learn,51319.9999332428,Fri Aug 15 2025 10:46:27 GMT-0500 (Central Daylight Time),270854.90000003576,A,towerenter,I,enter,1082,2,2598.699999988079,268256.2000000477,8036,WL,C,3.0
2,9.829999923706055,learn,50170.000076293945,Fri Aug 15 2025 10:46:27 GMT-0500 (Central Daylight Time),272004.90000003576,A,b,I,b,1134,2,1149.699999988079,270855.2000000477,8036,WL,C,4.0
2,10.329999923706055,learn,49670.000076293945,Fri Aug 15 2025 10:46:27 GMT-0500 (Central Daylight Time),272504.3000000119,A,bo,I,o,480,2,1649.0999999642372,270855.2000000477,8036,WL,C,4.0
2,10.763000011444092,learn,49236.99998855591,Fri Aug 15 2025 10:46:27 GMT-0500 (Central Daylight Time),272937.5,A,boy,I,y,428,2,2082.2999999523163,270855.2000000477,8036,WL,C,4.0
2,11.61299991607666,learn,48387.00008392334,Fri Aug 15 2025 10:46:27 GMT-0500 (Central Daylight Time),273787.0,A,boyenter,I,enter,834,2,2931.7999999523163,270855.2000000477,8036,WL,C,4.0
2,13.529000043869019,learn,46470.99995613098,Fri Aug 15 2025 10:46:27 GMT-0500 (Central Daylight Time),275703.8000000119,A,s,I,s,1898,2,1916.5,273787.3000000119,8036,WL,C,5.0
2,13.779000043869019,learn,46220.99995613098,Fri Aug 15 2025 10:46:27 GMT-0500 (Central Daylight Time),275953.3000000119,A,su,I,u,237,2,2166.0,273787.3000000119,8036,WL,C,5.0
2,14.01200008392334,learn,45987.99991607666,Fri Aug 15 2025 10:46:27 GMT-0500 (Central Daylight Time),276186.7000000477,A,sug,I,g,227,2,2399.400000035763,273787.3000000119,8036,WL,C,5.0
2,14.312000036239624,learn,45687.999963760376,Fri Aug 15 2025 10:46:27 GMT-0500 (Central Daylight Time),276486.60000002384,A,suga,I,a,282,2,2699.300000011921,273787.3000000119,8036,WL,C,5.0
2,14.529000043869019,learn,45470.99995613098,Fri Aug 15 2025 10:46:27 GMT-0500 (Central Daylight Time),276703.2000000477,A,sugar,I,r,207,2,2915.900000035763,273787.3000000119,8036,WL,C,5.0
2,15.59500002861023,learn,44404.99997138977,Fri Aug 15 2025 10:46:27 GMT-0500 (Central Daylight Time),277769.60000002384,A,sugarenter,I,enter,1053,2,3982.300000011921,273787.3000000119,8036,WL,C,5.0
2,17.16100001335144,learn,42838.99998664856,Fri Aug 15 2025 10:46:27 GMT-0500 (Central Daylight Time),279335.7000000477,A,s,I,s,1547,2,1565.7000000476837,277770.0,8036,WL,C,6.0
2,17.39400005340576,learn,42605.99994659424,Fri Aug 15 2025 10:46:27 GMT-0500 (Central Daylight Time),279569.0,A,sh,I,h,213,2,1799.0,277770.0,8036,WL,C,6.0
2,17.710999965667725,learn,42289.000034332275,Fri Aug 15 2025 10:46:27 GMT-0500 (Central Daylight Time),279885.60000002384,A,sho,I,o,299,2,2115.600000023842,277770.0,8036,WL,C,6.0
2,17.878000020980835,learn,42121.999979019165,Fri Aug 15 2025 10:46:27 GMT-0500 (Central Daylight Time),280052.3000000119,A,shor,I,r,160,2,2282.300000011921,277770.0,8036,WL,C,6.0
2,18.111000061035156,learn,41888.999938964844,Fri Aug 15 2025 10:46:27 GMT-0500 (Central Daylight Time),280286.0,A,shore,I,e,225,2,2516.0,277770.0,8036,WL,C,6.0
2,19.26099991798401,learn,40739.00008201599,Fri Aug 15 2025 10:46:27 GMT-0500 (Central Daylight Time),281435.0,A,shoreenter,I,enter,1143,2,3665.0,277770.0,8036,WL,C,6.0
2,20.943000078201294,learn,39056.999921798706,Fri Aug 15 2025 10:46:27 GMT-0500 (Central Daylight Time),283118.0,A,l,I,l,1674,2,1682.5999999642372,281435.40000003576,8036,WL,C,7.0
2,21.110000133514404,learn,38889.999866485596,Fri Aug 15 2025 10:46:27 GMT-0500 (Central Daylight Time),283284.5,A,le,I,e,151,2,1849.0999999642372,281435.40000003576,8036,WL,C,7.0
2,21.427000045776367,learn,38572.99995422363,Fri Aug 15 2025 10:46:27 GMT-0500 (Central Daylight Time),283601.10000002384,A,let,I,t,296,2,2165.699999988079,281435.40000003576,8036,WL,C,7.0
2,21.610000133514404,learn,38389.999866485596,Fri Aug 15 2025 10:46:27 GMT-0500 (Central Daylight Time),283784.3000000119,A,lett,I,t,163,2,2348.899999976158,281435.40000003576,8036,WL,C,7.0
2,21.8270001411438,learn,38172.9998588562,Fri Aug 15 2025 10:46:27 GMT-0500 (Central Daylight Time),284001.0,A,lette,I,e,196,2,2565.599999964237,281435.40000003576,8036,WL,C,7.0
2,21.993000030517578,learn,38006.99996948242,Fri Aug 15 2025 10:46:27 GMT-0500 (Central Daylight Time),284167.60000002384,A,letter,I,r,148,2,2732.199999988079,281435.40000003576,8036,WL,C,7.0
2,23.358999967575073,learn,36641.00003242493,Fri Aug 15 2025 10:46:27 GMT-0500 (Central Daylight Time),285533.8000000119,A,letterenter,I,enter,1357,2,4098.399999976158,281435.40000003576,8036,WL,C,7.0
2,26.10800004005432,learn,33891.99995994568,Fri Aug 15 2025 10:46:27 GMT-0500 (Central Daylight Time),288282.90000003576,A,f,I,f,2735,2,2748.800000011921,285534.10000002384,8036,WL,C,8.0
2,26.39199995994568,learn,33608.00004005432,Fri Aug 15 2025 10:46:27 GMT-0500 (Central Daylight Time),288566.10000002384,A,fl,I,l,266,2,3032.0,285534.10000002384,8036,WL,C,8.0
2,26.60800004005432,learn,33391.99995994568,Fri Aug 15 2025 10:46:27 GMT-0500 (Central Daylight Time),288782.90000003576,A,fla,I,a,198,2,3248.800000011921,285534.10000002384,8036,WL,C,8.0
2,26.907999992370605,learn,33092.000007629395,Fri Aug 15 2025 10:46:27 GMT-0500 (Central Daylight Time),289082.40000003576,A,flag,I,g,293,2,3548.300000011921,285534.10000002384,8036,WL,C,8.0
2,27.891000032424927,learn,32108.999967575073,Fri Aug 15 2025 10:46:27 GMT-0500 (Central Daylight Time),290065.90000003576,A,flagenter,I,enter,979,2,4531.800000011921,285534.10000002384,8036,WL,C,8.0
2,34.621999979019165,learn,25378.000020980835,Fri Aug 15 2025 10:46:27 GMT-0500 (Central Daylight Time),296796.90000003576,A,n,I,n,6723,2,6730.699999988079,290066.2000000477,8036,WL,C,9.0
2,34.855000019073486,learn,25144.999980926514,Fri Aug 15 2025 10:46:27 GMT-0500 (Central Daylight Time),297030.3000000119,A,na,I,a,215,2,6964.099999964237,290066.2000000477,8036,WL,C,9.0
2,35.08899998664856,learn,24911.00001335144,Fri Aug 15 2025 10:46:27 GMT-0500 (Central Daylight Time),297263.8000000119,A,nai,I,i,214,2,7197.599999964237,290066.2000000477,8036,WL,C,9.0
2,35.437999963760376,learn,24562.000036239624,Fri Aug 15 2025 10:46:27 GMT-0500 (Central Daylight Time),297613.40000003576,A,nail,I,l,333,2,7547.199999988079,290066.2000000477,8036,WL,C,9.0
2,36.48799991607666,learn,23512.00008392334,Fri Aug 15 2025 10:46:27 GMT-0500 (Central Daylight Time),298663.0,A,nailenter,I,enter,1040,2,8596.799999952316,290066.2000000477,8036,WL,C,9.0
2,42.20300006866455,learn,17796.99993133545,Fri Aug 15 2025 10:46:27 GMT-0500 (Central Daylight Time),304377.60000002384,A,b,I,b,5709,2,5714.199999988079,298663.40000003576,8036,WL,C,10.0
2,42.753000020980835,learn,17246.999979019165,Fri Aug 15 2025 10:46:27 GMT-0500 (Central Daylight Time),304927.90000003576,A,bo,I,o,539,2,6264.5,298663.40000003576,8036,WL,C,10.0
2,43.003000020980835,learn,16996.999979019165,Fri Aug 15 2025 10:46:27 GMT-0500 (Central Daylight Time),305177.7000000477,A,bod,I,d,237,2,6514.300000011921,298663.40000003576,8036,WL,C,10.0
2,43.319000005722046,learn,16680.999994277954,Fri Aug 15 2025 10:46:27 GMT-0500 (Central Daylight Time),305494.10000002384,A,body,I,y,308,2,6830.699999988079,298663.40000003576,8036,WL,C,10.0
2,44.35199999809265,learn,15648.000001907349,Fri Aug 15 2025 10:46:27 GMT-0500 (Central Daylight Time),306527.2000000477,A,bodyenter,I,enter,1014,2,7863.800000011921,298663.40000003576,8036,WL,C,10.0
2,52.26600003242493,learn,7733.999967575073,Fri Aug 15 2025 10:46:27 GMT-0500 (Central Daylight Time),314441.40000003576,A,enter,I,enter,7902,2,7914.0,306527.40000003576,8036,WL,C,11.0
2,52.74900007247925,learn,7250.999927520752,Fri Aug 15 2025 10:46:27 GMT-0500 (Central Daylight Time),314924.60000002384,A,enter,I,enter,468,2,482.80000001192093,314441.8000000119,8036,WL,C,12.0
2,53.01600003242493,learn,6983.999967575073,Fri Aug 15 2025 10:46:27 GMT-0500 (Central Daylight Time),315191.0,A,enter,I,enter,248,2,266.0,314925.0,8036,WL,C,13.0
2,53.26600003242493,learn,6733.999967575073,Fri Aug 15 2025 10:46:27 GMT-0500 (Central Daylight Time),315441.0,A,enter,I,enter,230,2,249.5999999642372,315191.40000003576,8036,WL,C,14.0
2,53.48300004005432,learn,6516.999959945679,Fri Aug 15 2025 10:46:27 GMT-0500 (Central Daylight Time),315657.90000003576,A,enter,I,enter,204,2,216.5,315441.40000003576,8036,WL,C,15.0
3,2.6659998893737793,learn,57334.00011062622,Fri Aug 15 2025 10:46:27 GMT-0500 (Central Daylight Time),392133.7000000477,A,q,I,q,2650,2,2665.600000023842,389468.10000002384,8036,WL,C,1.0
3,2.9159998893737793,learn,57084.00011062622,Fri Aug 15 2025 10:46:27 GMT-0500 (Central Daylight Time),392383.3000000119,A,qu,I,u,238,2,2915.199999988079,389468.10000002384,8036,WL,C,1.0
3,3.2990000247955322,learn,56700.99997520447,Fri Aug 15 2025 10:46:27 GMT-0500 (Central Daylight Time),392766.8000000119,A,que,I,e,374,2,3298.699999988079,389468.10000002384,8036,WL,C,1.0
3,3.5160000324249268,learn,56483.99996757507,Fri Aug 15 2025 10:46:27 GMT-0500 (Central Daylight Time),392983.60000002384,A,quee,I,e,206,2,3515.5,389468.10000002384,8036,WL,C,1.0
3,3.931999921798706,learn,56068.000078201294,Fri Aug 15 2025 10:46:27 GMT-0500 (Central Daylight Time),393399.90000003576,A,queen,I,n,398,2,3931.800000011921,389468.10000002384,8036,WL,C,1.0
3,4.999000072479248,learn,55000.99992752075,Fri Aug 15 2025 10:46:27 GMT-0500 (Central Daylight Time),394466.10000002384,A,queenenter,I,enter,1054,2,4998.0,389468.10000002384,8036,WL,C,1.0
3,5.8480000495910645,learn,54151.999950408936,Fri Aug 15 2025 10:46:27 GMT-0500 (Central Daylight Time),395316.0,A,b,I,b,836,2,849.6999999880791,394466.3000000119,8036,WL,C,2.0
3,6.264999866485596,learn,53735.000133514404,Fri Aug 15 2025 10:46:27 GMT-0500 (Central Daylight Time),395732.5,A,bo,I,o,408,2,1266.199999988079,394466.3000000119,8036,WL,C,2.0
3,6.581000089645386,learn,53418.999910354614,Fri Aug 15 2025 10:46:27 GMT-0500 (Central Daylight Time),396049.0,A,bod,I,d,305,2,1582.699999988079,394466.3000000119,8036,WL,C,2.0
3,6.815000057220459,learn,53184.99994277954,Fri Aug 15 2025 10:46:27 GMT-0500 (Central Daylight Time),396282.10000002384,A,body,I,y,228,2,1815.800000011921,394466.3000000119,8036,WL,C,2.0
3,7.3480000495910645,learn,52651.999950408936,Fri Aug 15 2025 10:46:27 GMT-0500 (Central Daylight Time),396815.7000000477,A,bodyenter,I,enter,523,2,2349.400000035763,394466.3000000119,8036,WL,C,2.0
3,7.815999984741211,learn,52184.00001525879,Fri Aug 15 2025 10:46:27 GMT-0500 (Central Daylight Time),397283.90000003576,A,s,I,s,453,2,467.9000000357628,396816.0,8036,WL,C,3.0
3,8.098000049591064,learn,51901.999950408936,Fri Aug 15 2025 10:46:27 GMT-0500 (Central Daylight Time),397565.3000000119,A,sh,I,h,265,2,749.3000000119209,396816.0,8036,WL,C,3.0
3,8.364000082015991,learn,51635.99991798401,Fri Aug 15 2025 10:46:27 GMT-0500 (Central Daylight Time),397832.0,A,sho,I,o,247,2,1016.0,396816.0,8036,WL,C,3.0
3,8.563999891281128,learn,51436.00010871887,Fri Aug 15 2025 10:46:27 GMT-0500 (Central Daylight Time),398031.60000002384,A,shor,I,r,181,2,1215.6000000238419,396816.0,8036,WL,C,3.0
3,8.780999898910522,learn,51219.00010108948,Fri Aug 15 2025 10:46:27 GMT-0500 (Central Daylight Time),398248.3000000119,A,shore,I,e,197,2,1432.300000011921,396816.0,8036,WL,C,3.0
3,9.381999969482422,learn,50618.00003051758,Fri Aug 15 2025 10:46:27 GMT-0500 (Central Daylight Time),398849.3000000119,A,shoreenter,I,enter,588,2,2033.300000011921,396816.0,8036,WL,C,3.0
3,10.063999891281128,learn,49936.00010871887,Fri Aug 15 2025 10:46:27 GMT-0500 (Central Daylight Time),399531.40000003576,A,h,I,h,667,2,681.8000000119209,398849.60000002384,8036,WL,C,4.0
3,10.364000082015991,learn,49635.99991798401,Fri Aug 15 2025 10:46:27 GMT-0500 (Central Daylight Time),399831.40000003576,A,ho,I,o,290,2,981.8000000119209,398849.60000002384,8036,WL,C,4.0
3,10.864000082015991,learn,49135.99991798401,Fri Aug 15 2025 10:46:27 GMT-0500 (Central Daylight Time),400331.2000000477,A,hoo,I,o,486,2,1481.6000000238419,398849.60000002384,8036,WL,C,4.0
3,11.52999997138977,learn,48470.00002861023,Fri Aug 15 2025 10:46:27 GMT-0500 (Central Daylight Time),400997.5,A,hoom,I,m,657,2,2147.899999976158,398849.60000002384,8036,WL,C,4.0
3,12.095999956130981,learn,47904.00004386902,Fri Aug 15 2025 10:46:27 GMT-0500 (Central Daylight Time),401563.90000003576,A,hoome,I,e,551,2,2714.300000011921,398849.60000002384,8036,WL,C,4.0
3,13.845999956130981,learn,46154.00004386902,Fri Aug 15 2025 10:46:27 GMT-0500 (Central Daylight Time),403313.60000002384,A,hoom,I,backspace,1736,2,4464.0,398849.60000002384,8036,WL,C,4.0
3,14.078999996185303,learn,45921.0000038147,Fri Aug 15 2025 10:46:27 GMT-0500 (Central Daylight Time),403546.40000003576,A,hoo,I,backspace,226,2,4696.800000011921,398849.60000002384,8036,WL,C,4.0
3,14.296000003814697,learn,45703.9999961853,Fri Aug 15 2025 10:46:27 GMT-0500 (Central Daylight Time),403763.40000003576,A,ho,I,backspace,202,2,4913.800000011921,398849.60000002384,8036,WL,C,4.0
3,15.312000036239624,learn,44687.999963760376,Fri Aug 15 2025 10:46:27 GMT-0500 (Central Daylight Time),404779.8000000119,A,hom,I,m,1002,2,5930.199999988079,398849.60000002384,8036,WL,C,4.0
3,15.595999956130981,learn,44404.00004386902,Fri Aug 15 2025 10:46:27 GMT-0500 (Central Daylight Time),405063.2000000477,A,home,I,e,266,2,6213.600000023842,398849.60000002384,8036,WL,C,4.0
3,16.494999885559082,learn,43505.00011444092,Fri Aug 15 2025 10:46:27 GMT-0500 (Central Daylight Time),405962.40000003576,A,homeenter,I,enter,894,2,7112.800000011921,398849.60000002384,8036,WL,C,4.0
3,17.82800006866455,learn,42171.99993133545,Fri Aug 15 2025 10:46:27 GMT-0500 (Central Daylight Time),407295.5,A,s,I,s,1323,2,1332.699999988079,405962.8000000119,8036,WL,C,5.0
3,18.09500002861023,learn,41904.99997138977,Fri Aug 15 2025 10:46:27 GMT-0500 (Central Daylight Time),407562.2000000477,A,su,I,u,246,2,1599.4000000357628,405962.8000000119,8036,WL,C,5.0
3,18.3439998626709,learn,41656.0001373291,Fri Aug 15 2025 10:46:27 GMT-0500 (Central Daylight Time),407812.0,A,sug,I,g,235,2,1849.199999988079,405962.8000000119,8036,WL,C,5.0
3,18.628000020980835,learn,41371.999979019165,Fri Aug 15 2025 10:46:27 GMT-0500 (Central Daylight Time),408095.40000003576,A,suga,I,a,265,2,2132.600000023842,405962.8000000119,8036,WL,C,5.0
3,18.84500002861023,learn,41154.99997138977,Fri Aug 15 2025 10:46:27 GMT-0500 (Central Daylight Time),408312.10000002384,A,sugar,I,r,197,2,2349.300000011921,405962.8000000119,8036,WL,C,5.0
3,20.0939998626709,learn,39906.0001373291,Fri Aug 15 2025 10:46:27 GMT-0500 (Central Daylight Time),409561.60000002384,A,sugarenter,I,enter,1244,2,3598.800000011921,405962.8000000119,8036,WL,C,5.0
3,21.792999982833862,learn,38207.00001716614,Fri Aug 15 2025 10:46:27 GMT-0500 (Central Daylight Time),411260.7000000477,A,c,I,c,1692,2,1698.800000011921,409561.90000003576,8036,WL,C,6.0
3,22.07699990272522,learn,37923.00009727478,Fri Aug 15 2025 10:46:27 GMT-0500 (Central Daylight Time),411544.3000000119,A,co,I,o,272,2,1982.3999999761581,409561.90000003576,8036,WL,C,6.0
3,22.292999982833862,learn,37707.00001716614,Fri Aug 15 2025 10:46:27 GMT-0500 (Central Daylight Time),411760.90000003576,A,cor,I,r,205,2,2199.0,409561.90000003576,8036,WL,C,6.0
3,22.859999895095825,learn,37140.000104904175,Fri Aug 15 2025 10:46:27 GMT-0500 (Central Daylight Time),412327.5,A,corn,I,n,548,2,2765.599999964237,409561.90000003576,8036,WL,C,6.0
3,23.710000038146973,learn,36289.99996185303,Fri Aug 15 2025 10:46:27 GMT-0500 (Central Daylight Time),413177.10000002384,A,cornenter,I,enter,829,2,3615.199999988079,409561.90000003576,8036,WL,C,6.0
3,24.259999990463257,learn,35740.00000953674,Fri Aug 15 2025 10:46:27 GMT-0500 (Central Daylight Time),413727.2000000477,A,n,I,n,540,2,549.7000000476837,413177.5,8036,WL,C,7.0
3,24.45899987220764,learn,35541.00012779236,Fri Aug 15 2025 10:46:27 GMT-0500 (Central Daylight Time),413926.7000000477,A,na,I,a,189,2,749.2000000476837,413177.5,8036,WL,C,7.0
3,24.64199995994568,learn,35358.00004005432,Fri Aug 15 2025 10:46:27 GMT-0500 (Central Daylight Time),414110.2000000477,A,nai,I,i,174,2,932.7000000476837,413177.5,8036,WL,C,7.0
3,24.924999952316284,learn,35075.000047683716,Fri Aug 15 2025 10:46:27 GMT-0500 (Central Daylight Time),414393.3000000119,A,nail,I,l,270,2,1215.800000011921,413177.5,8036,WL,C,7.0
3,25.89199995994568,learn,34108.00004005432,Fri Aug 15 2025 10:46:27 GMT-0500 (Central Daylight Time),415359.8000000119,A,nailenter,I,enter,955,2,2182.300000011921,413177.5,8036,WL,C,7.0
3,29.539999961853027,learn,30460.000038146973,Fri Aug 15 2025 10:46:27 GMT-0500 (Central Daylight Time),419008.5,A,w,I,w,3629,2,3648.2999999523163,415360.2000000477,8036,WL,C,8.0
3,29.924000024795532,learn,30075.999975204468,Fri Aug 15 2025 10:46:27 GMT-0500 (Central Daylight Time),419391.8000000119,A,wh,I,h,372,2,4031.599999964237,415360.2000000477,8036,WL,C,8.0
3,30.073999881744385,learn,29926.000118255615,Fri Aug 15 2025 10:46:27 GMT-0500 (Central Daylight Time),419541.90000003576,A,wha,I,a,141,2,4181.699999988079,415360.2000000477,8036,WL,C,8.0
3,30.374000072479248,learn,29625.999927520752,Fri Aug 15 2025 10:46:27 GMT-0500 (Central Daylight Time),419841.7000000477,A,whae,I,e,288,2,4481.5,415360.2000000477,8036,WL,C,8.0
3,30.822999954223633,learn,29177.000045776367,Fri Aug 15 2025 10:46:27 GMT-0500 (Central Daylight Time),420291.5,A,whaet,I,t,435,2,4931.299999952316,415360.2000000477,8036,WL,C,8.0
3,31.889999866485596,learn,28110.000133514404,Fri Aug 15 2025 10:46:27 GMT-0500 (Central Daylight Time),421357.90000003576,A,whaetenter,I,enter,1049,2,5997.699999988079,415360.2000000477,8036,WL,C,8.0
3,38.25399994850159,learn,21746.000051498413,Fri Aug 15 2025 10:46:27 GMT-0500 (Central Daylight Time),427722.40000003576,A,b,I,b,6359,2,6364.199999988079,421358.2000000477,8036,WL,C,9.0
3,38.956000089645386,learn,21043.999910354614,Fri Aug 15 2025 10:46:27 GMT-0500 (Central Daylight Time),428423.7000000477,A,bo,I,o,690,2,7065.5,421358.2000000477,8036,WL,C,9.0
3,39.25399994850159,learn,20746.000051498413,Fri Aug 15 2025 10:46:27 GMT-0500 (Central Daylight Time),428721.8000000119,A,bod,I,d,292,2,7363.599999964237,421358.2000000477,8036,WL,C,9.0
3,39.50399994850159,learn,20496.000051498413,Fri Aug 15 2025 10:46:27 GMT-0500 (Central Daylight Time),428972.3000000119,A,body,I,y,243,2,7614.099999964237,421358.2000000477,8036,WL,C,9.0
3,40.7039999961853,learn,19296.000003814697,Fri Aug 15 2025 10:46:27 GMT-0500 (Central Daylight Time),430171.90000003576,A,bodyenter,I,enter,1185,2,8813.699999988079,421358.2000000477,8036,WL,C,9.0
3,45.13599991798401,learn,14864.000082015991,Fri Aug 15 2025 10:46:27 GMT-0500 (Central Daylight Time),434603.60000002384,A,l,I,l,4425,2,4431.399999976158,430172.2000000477,8036,WL,C,10.0
3,45.35199999809265,learn,14648.000001907349,Fri Aug 15 2025 10:46:27 GMT-0500 (Central Daylight Time),434820.10000002384,A,le,I,e,210,2,4647.899999976158,430172.2000000477,8036,WL,C,10.0
3,45.68499994277954,learn,14315.000057220459,Fri Aug 15 2025 10:46:27 GMT-0500 (Central Daylight Time),435153.40000003576,A,let,I,t,322,2,4981.199999988079,430172.2000000477,8036,WL,C,10.0
3,45.88599991798401,learn,14114.000082015991,Fri Aug 15 2025 10:46:27 GMT-0500 (Central Daylight Time),435353.7000000477,A,lett,I,t,179,2,5181.5,430172.2000000477,8036,WL,C,10.0
3,46.11899995803833,learn,13881.00004196167,Fri Aug 15 2025 10:46:27 GMT-0500 (Central Daylight Time),435586.60000002384,A,lette,I,e,227,2,5414.399999976158,430172.2000000477,8036,WL,C,10.0
3,46.35199999809265,learn,13648.000001907349,Fri Aug 15 2025 10:46:27 GMT-0500 (Central Daylight Time),435819.90000003576,A,letter,I,r,218,2,5647.699999988079,430172.2000000477,8036,WL,C,10.0
3,48.01799988746643,learn,11982.00011253357,Fri Aug 15 2025 10:46:27 GMT-0500 (Central Daylight Time),437486.10000002384,A,letterenter,I,enter,1648,2,7313.899999976158,430172.2000000477,8036,WL,C,10.0
3,51.51699995994568,learn,8483.000040054321,Fri Aug 15 2025 10:46:27 GMT-0500 (Central Daylight Time),440985.0,A,h,I,h,3488,2,3498.5,437486.5,8036,WL,C,11.0
3,52.049999952316284,learn,7950.000047683716,Fri Aug 15 2025 10:46:27 GMT-0500 (Central Daylight Time),441518.0,A,ho,I,o,524,2,4031.5,437486.5,8036,WL,C,11.0
3,52.34999990463257,learn,7650.000095367432,Fri Aug 15 2025 10:46:27 GMT-0500 (Central Daylight Time),441818.3000000119,A,hom,I,m,287,2,4331.800000011921,437486.5,8036,WL,C,11.0
3,52.64999985694885,learn,7350.0001430511475,Fri Aug 15 2025 10:46:27 GMT-0500 (Central Daylight Time),442118.0,A,home,I,e,283,2,4631.5,437486.5,8036,WL,C,11.0
3,53.76600003242493,learn,6233.999967575073,Fri Aug 15 2025 10:46:27 GMT-0500 (Central Daylight Time),443234.3000000119,A,homeenter,I,enter,1104,2,5747.800000011921,437486.5,8036,WL,C,11.0
3,59.31399989128113,learn,686.0001087188721,Fri Aug 15 2025 10:46:27 GMT-0500 (Central Daylight Time),448782.40000003576,A,n,I,n,5530,2,5547.800000011921,443234.60000002384,8036,WL,C,12.0
3,59.5479998588562,learn,452.0001411437988,Fri Aug 15 2025 10:46:27 GMT-0500 (Central Daylight Time),449015.7000000477,A,na,I,a,222,2,5781.100000023842,443234.60000002384,8036,WL,C,12.0
3,59.74799990653992,learn,252.000093460083,Fri Aug 15 2025 10:46:27 GMT-0500 (Central Daylight Time),449215.60000002384,A,nai,I,i,189,2,5981.0,443234.60000002384,8036,WL,C,12.0
3,60.013999938964844,learn,-13.99993896484375,Fri Aug 15 2025 10:46:27 GMT-0500 (Central Daylight Time),449482.3000000119,A,naiNone,I,None,262,2,6247.699999988079,443234.60000002384,8036,WL,C,12.0
4,1.315999984741211,learn,58684.00001525879,Fri Aug 15 2025 10:46:27 GMT-0500 (Central Daylight Time),519926.90000003576,A,t,I,t,1307,2,1316.1000000238419,518610.8000000119,8036,WL,C,1.0
4,1.6159999370574951,learn,58384.000062942505,Fri Aug 15 2025 10:46:27 GMT-0500 (Central Daylight Time),520226.5,A,to,I,o,294,2,1615.699999988079,518610.8000000119,8036,WL,C,1.0
4,1.8829998970031738,learn,58117.000102996826,Fri Aug 15 2025 10:46:27 GMT-0500 (Central Daylight Time),520493.40000003576,A,tow,I,w,251,2,1882.6000000238419,518610.8000000119,8036,WL,C,1.0
4,2.1489999294281006,learn,57851.0000705719,Fri Aug 15 2025 10:46:27 GMT-0500 (Central Daylight Time),520759.90000003576,A,towe,I,e,247,2,2149.100000023842,518610.8000000119,8036,WL,C,1.0
4,2.433000087738037,learn,57566.99991226196,Fri Aug 15 2025 10:46:27 GMT-0500 (Central Daylight Time),521043.3000000119,A,tower,I,r,277,2,2432.5,518610.8000000119,8036,WL,C,1.0
4,3.8989999294281006,learn,56101.0000705719,Fri Aug 15 2025 10:46:27 GMT-0500 (Central Daylight Time),522509.40000003576,A,towerenter,I,enter,1450,2,3898.600000023842,518610.8000000119,8036,WL,C,1.0
4,4.9649999141693115,learn,55035.00008583069,Fri Aug 15 2025 10:46:27 GMT-0500 (Central Daylight Time),523575.5,A,w,I,w,1047,2,1065.5999999642372,522509.90000003576,8036,WL,C,2.0
4,5.181999921798706,learn,54818.000078201294,Fri Aug 15 2025 10:46:27 GMT-0500 (Central Daylight Time),523792.3000000119,A,wh,I,h,205,2,1282.3999999761581,522509.90000003576,8036,WL,C,2.0
4,5.332000017166138,learn,54667.99998283386,Fri Aug 15 2025 10:46:27 GMT-0500 (Central Daylight Time),523942.2000000477,A,whe,I,e,133,2,1432.300000011921,522509.90000003576,8036,WL,C,2.0
4,5.615000009536743,learn,54384.99999046326,Fri Aug 15 2025 10:46:27 GMT-0500 (Central Daylight Time),524225.7000000477,A,whea,I,a,262,2,1715.800000011921,522509.90000003576,8036,WL,C,2.0
4,5.898000001907349,learn,54101.99999809265,Fri Aug 15 2025 10:46:27 GMT-0500 (Central Daylight Time),524508.8000000119,A,wheat,I,t,267,2,1998.8999999761581,522509.90000003576,8036,WL,C,2.0
4,6.815000057220459,learn,53184.99994277954,Fri Aug 15 2025 10:46:27 GMT-0500 (Central Daylight Time),525425.2000000477,A,wheatenter,I,enter,912,2,2915.300000011921,522509.90000003576,8036,WL,C,2.0
4,8.730999946594238,learn,51269.00005340576,Fri Aug 15 2025 10:46:27 GMT-0500 (Central Daylight Time),527341.2000000477,A,q,I,q,1899,2,1915.7000000476837,525425.5,8036,WL,C,3.0
4,8.980999946594238,learn,51019.00005340576,Fri Aug 15 2025 10:46:27 GMT-0500 (Central Daylight Time),527591.4000000358,A,qu,I,u,232,2,2165.900000035763,525425.5,8036,WL,C,3.0
4,9.164000034332275,learn,50835.999965667725,Fri Aug 15 2025 10:46:27 GMT-0500 (Central Daylight Time),527774.4000000358,A,que,I,e,165,2,2348.900000035763,525425.5,8036,WL,C,3.0
4,9.44700002670288,learn,50552.99997329712,Fri Aug 15 2025 10:46:27 GMT-0500 (Central Daylight Time),528057.7000000477,A,ques,I,s,271,2,2632.2000000476837,525425.5,8036,WL,C,3.0
4,10.314000129699707,learn,49685.99987030029,Fri Aug 15 2025 10:46:27 GMT-0500 (Central Daylight Time),528924.1000000238,A,que,I,backspace,851,2,3498.600000023842,525425.5,8036,WL,C,3.0
4,10.52999997138977,learn,49470.00002861023,Fri Aug 15 2025 10:46:27 GMT-0500 (Central Daylight Time),529140.7000000477,A,quee,I,e,202,2,3715.2000000476837,525425.5,8036,WL,C,3.0
4,11.763000011444092,learn,48236.99998855591,Fri Aug 15 2025 10:46:27 GMT-0500 (Central Daylight Time),530373.6000000238,A,queen,I,n,1216,2,4948.100000023842,525425.5,8036,WL,C,3.0
4,12.763000011444092,learn,47236.99998855591,Fri Aug 15 2025 10:46:27 GMT-0500 (Central Daylight Time),531373.1000000238,A,queenenter,I,enter,983,2,5947.600000023842,525425.5,8036,WL,C,3.0
4,14.279000043869019,learn,45720.99995613098,Fri Aug 15 2025 10:46:27 GMT-0500 (Central Daylight Time),532889.5,A,s,I,s,1496,2,1516.0999999642372,531373.4000000358,8036,WL,C,4.0
4,14.51200008392334,learn,45487.99991607666,Fri Aug 15 2025 10:46:27 GMT-0500 (Central Daylight Time),533122.6000000238,A,sh,I,h,219,2,1749.199999988079,531373.4000000358,8036,WL,C,4.0
4,14.928999900817871,learn,45071.00009918213,Fri Aug 15 2025 10:46:27 GMT-0500 (Central Daylight Time),533539.1000000238,A,sho,I,o,410,2,2165.699999988079,531373.4000000358,8036,WL,C,4.0
4,15.212000131607056,learn,44787.999868392944,Fri Aug 15 2025 10:46:27 GMT-0500 (Central Daylight Time),533822.4000000358,A,shor,I,r,274,2,2449.0,531373.4000000358,8036,WL,C,4.0
4,15.462000131607056,learn,44537.999868392944,Fri Aug 15 2025 10:46:27 GMT-0500 (Central Daylight Time),534072.5,A,shore,I,e,230,2,2699.099999964237,531373.4000000358,8036,WL,C,4.0
4,16.611000061035156,learn,43388.999938964844,Fri Aug 15 2025 10:46:27 GMT-0500 (Central Daylight Time),535222.2000000477,A,shoreenter,I,enter,1132,2,3848.800000011921,531373.4000000358,8036,WL,C,4.0
4,17.194000005722046,learn,42805.999994277954,Fri Aug 15 2025 10:46:27 GMT-0500 (Central Daylight Time),535805.3000000119,A,b,I,b,575,2,582.8000000119209,535222.5,8036,WL,C,5.0
4,17.543999910354614,learn,42456.000089645386,Fri Aug 15 2025 10:46:27 GMT-0500 (Central Daylight Time),536155.2000000477,A,bo,I,o,335,2,932.7000000476837,535222.5,8036,WL,C,5.0
4,17.811000108718872,learn,42188.99989128113,Fri Aug 15 2025 10:46:27 GMT-0500 (Central Daylight Time),536421.7000000477,A,bod,I,d,258,2,1199.2000000476837,535222.5,8036,WL,C,5.0
4,18.111000061035156,learn,41888.999938964844,Fri Aug 15 2025 10:46:27 GMT-0500 (Central Daylight Time),536721.6000000238,A,body,I,y,288,2,1499.1000000238419,535222.5,8036,WL,C,5.0
4,19.22699999809265,learn,40773.00000190735,Fri Aug 15 2025 10:46:27 GMT-0500 (Central Daylight Time),537838.0,A,bodyenter,I,enter,1099,2,2615.5,535222.5,8036,WL,C,5.0
4,19.792999982833862,learn,40207.00001716614,Fri Aug 15 2025 10:46:27 GMT-0500 (Central Daylight Time),538404.1000000238,A,c,I,c,551,2,565.8000000119209,537838.3000000119,8036,WL,C,6.0
4,20.092999935150146,learn,39907.00006484985,Fri Aug 15 2025 10:46:27 GMT-0500 (Central Daylight Time),538704.3000000119,A,co,I,o,281,2,866.0,537838.3000000119,8036,WL,C,6.0
4,20.30999994277954,learn,39690.00005722046,Fri Aug 15 2025 10:46:27 GMT-0500 (Central Daylight Time),538920.9000000358,A,cor,I,r,204,2,1082.6000000238419,537838.3000000119,8036,WL,C,6.0
4,20.72699999809265,learn,39273.00000190735,Fri Aug 15 2025 10:46:27 GMT-0500 (Central Daylight Time),539337.5,A,corn,I,n,404,2,1499.199999988079,537838.3000000119,8036,WL,C,6.0
4,21.66000008583069,learn,38339.99991416931,Fri Aug 15 2025 10:46:27 GMT-0500 (Central Daylight Time),540270.5,A,cornenter,I,enter,915,2,2432.199999988079,537838.3000000119,8036,WL,C,6.0
4,23.158999919891357,learn,36841.00008010864,Fri Aug 15 2025 10:46:27 GMT-0500 (Central Daylight Time),541770.0,A,n,I,n,1486,2,1499.199999988079,540270.8000000119,8036,WL,C,7.0
4,23.39199995994568,learn,36608.00004005432,Fri Aug 15 2025 10:46:27 GMT-0500 (Central Daylight Time),542003.2000000477,A,na,I,a,226,2,1732.4000000357628,540270.8000000119,8036,WL,C,7.0
4,23.625999927520752,learn,36374.00007247925,Fri Aug 15 2025 10:46:27 GMT-0500 (Central Daylight Time),542236.5,A,nai,I,i,217,2,1965.699999988079,540270.8000000119,8036,WL,C,7.0
4,23.95900011062622,learn,36040.99988937378,Fri Aug 15 2025 10:46:27 GMT-0500 (Central Daylight Time),542569.6000000238,A,nail,I,l,328,2,2298.800000011921,540270.8000000119,8036,WL,C,7.0
4,24.77500009536743,learn,35224.99990463257,Fri Aug 15 2025 10:46:27 GMT-0500 (Central Daylight Time),543386.2000000477,A,nailenter,I,enter,796,2,3115.400000035763,540270.8000000119,8036,WL,C,7.0
4,25.558000087738037,learn,34441.99991226196,Fri Aug 15 2025 10:46:27 GMT-0500 (Central Daylight Time),544169.3000000119,A,l,I,l,771,2,782.6999999880791,543386.6000000238,8036,WL,C,8.0
4,25.89199995994568,learn,34108.00004005432,Fri Aug 15 2025 10:46:27 GMT-0500 (Central Daylight Time),544502.4000000358,A,le,I,e,323,2,1115.800000011921,543386.6000000238,8036,WL,C,8.0
4,26.308000087738037,learn,33691.99991226196,Fri Aug 15 2025 10:46:27 GMT-0500 (Central Daylight Time),544918.8000000119,A,let,I,t,406,2,1532.199999988079,543386.6000000238,8036,WL,C,8.0
4,26.490999937057495,learn,33509.000062942505,Fri Aug 15 2025 10:46:27 GMT-0500 (Central Daylight Time),545102.2000000477,A,lett,I,t,166,2,1715.6000000238419,543386.6000000238,8036,WL,C,8.0
4,26.72499990463257,learn,33275.00009536743,Fri Aug 15 2025 10:46:27 GMT-0500 (Central Daylight Time),545335.4000000358,A,lette,I,e,223,2,1948.800000011921,543386.6000000238,8036,WL,C,8.0
4,26.97499990463257,learn,33025.00009536743,Fri Aug 15 2025 10:46:27 GMT-0500 (Central Daylight Time),545585.8000000119,A,letter,I,r,229,2,2199.199999988079,543386.6000000238,8036,WL,C,8.0
4,27.641000032424927,learn,32358.999967575073,Fri Aug 15 2025 10:46:27 GMT-0500 (Central Daylight Time),546252.0,A,letterenter,I,enter,660,2,2865.399999976158,543386.6000000238,8036,WL,C,8.0
4,28.341000080108643,learn,31658.999919891357,Fri Aug 15 2025 10:46:27 GMT-0500 (Central Daylight Time),546951.7000000477,A,d,I,d,681,2,699.4000000357628,546252.3000000119,8036,WL,C,9.0
4,28.591000080108643,learn,31408.999919891357,Fri Aug 15 2025 10:46:27 GMT-0500 (Central Daylight Time),547201.7000000477,A,do,I,o,228,2,949.4000000357628,546252.3000000119,8036,WL,C,9.0
4,28.756999969482422,learn,31243.000030517578,Fri Aug 15 2025 10:46:27 GMT-0500 (Central Daylight Time),547368.1000000238,A,doc,I,c,147,2,1115.800000011921,546252.3000000119,8036,WL,C,9.0
4,29.074000120162964,learn,30925.999879837036,Fri Aug 15 2025 10:46:27 GMT-0500 (Central Daylight Time),547684.7000000477,A,doct,I,t,301,2,1432.4000000357628,546252.3000000119,8036,WL,C,9.0
4,29.2739999294281,learn,30726.0000705719,Fri Aug 15 2025 10:46:27 GMT-0500 (Central Daylight Time),547884.7000000477,A,docto,I,o,185,2,1632.4000000357628,546252.3000000119,8036,WL,C,9.0
4,29.473999977111816,learn,30526.000022888184,Fri Aug 15 2025 10:46:27 GMT-0500 (Central Daylight Time),548085.0,A,doctor,I,r,185,2,1832.699999988079,546252.3000000119,8036,WL,C,9.0
4,30.890000104904175,learn,29109.999895095825,Fri Aug 15 2025 10:46:27 GMT-0500 (Central Daylight Time),549500.8000000119,A,doctorenter,I,enter,1400,2,3248.5,546252.3000000119,8036,WL,C,9.0
4,39.37100005149841,learn,20628.999948501587,Fri Aug 15 2025 10:46:27 GMT-0500 (Central Daylight Time),557981.7000000477,A,c,I,c,8473,2,8480.5,549501.2000000477,8036,WL,C,10.0
4,39.6710000038147,learn,20328.999996185303,Fri Aug 15 2025 10:46:27 GMT-0500 (Central Daylight Time),558281.6000000238,A,ca,I,a,279,2,8780.399999976158,549501.2000000477,8036,WL,C,10.0
4,40.03699994087219,learn,19963.000059127808,Fri Aug 15 2025 10:46:27 GMT-0500 (Central Daylight Time),558648.2000000477,A,cam,I,m,356,2,9147.0,549501.2000000477,8036,WL,C,10.0
4,40.9539999961853,learn,19046.000003814697,Fri Aug 15 2025 10:46:27 GMT-0500 (Central Daylight Time),559564.5,A,camp,I,p,908,2,10063.299999952316,549501.2000000477,8036,WL,C,10.0
4,42.47000002861023,learn,17529.99997138977,Fri Aug 15 2025 10:46:27 GMT-0500 (Central Daylight Time),561080.6000000238,A,campenter,I,enter,1496,2,11579.399999976158,549501.2000000477,8036,WL,C,10.0
4,43.503000020980835,learn,16496.999979019165,Fri Aug 15 2025 10:46:27 GMT-0500 (Central Daylight Time),562113.7000000477,A,s,I,s,1012,2,1032.7000000476837,561081.0,8036,WL,C,11.0
4,43.70300006866455,learn,16296.99993133545,Fri Aug 15 2025 10:46:27 GMT-0500 (Central Daylight Time),562313.6000000238,A,sh,I,h,187,2,1232.6000000238419,561081.0,8036,WL,C,11.0
4,44.05200004577637,learn,15947.999954223633,Fri Aug 15 2025 10:46:27 GMT-0500 (Central Daylight Time),562663.4000000358,A,sho,I,o,332,2,1582.4000000357628,561081.0,8036,WL,C,11.0
4,44.28600001335144,learn,15713.99998664856,Fri Aug 15 2025 10:46:27 GMT-0500 (Central Daylight Time),562896.7000000477,A,shor,I,r,221,2,1815.7000000476837,561081.0,8036,WL,C,11.0
4,44.55200004577637,learn,15447.999954223633,Fri Aug 15 2025 10:46:27 GMT-0500 (Central Daylight Time),563163.4000000358,A,shore,I,e,252,2,2082.400000035763,561081.0,8036,WL,C,11.0
4,46.05200004577637,learn,13947.999954223633,Fri Aug 15 2025 10:46:27 GMT-0500 (Central Daylight Time),564662.9000000358,A,shoreenter,I,enter,1490,2,3581.900000035763,561081.0,8036,WL,C,11.0
4,54.365999937057495,learn,5634.000062942505,Fri Aug 15 2025 10:46:27 GMT-0500 (Central Daylight Time),572977.2000000477,A,d,I,d,8294,2,8314.0,564663.2000000477,8036,WL,C,12.0
4,54.91600012779236,learn,5083.999872207642,Fri Aug 15 2025 10:46:27 GMT-0500 (Central Daylight Time),573526.8000000119,A,do,I,o,532,2,8863.599999964237,564663.2000000477,8036,WL,C,12.0
4,55.115999937057495,learn,4884.000062942505,Fri Aug 15 2025 10:46:27 GMT-0500 (Central Daylight Time),573726.5,A,doc,I,c,182,2,9063.299999952316,564663.2000000477,8036,WL,C,12.0
4,55.49900007247925,learn,4500.999927520752,Fri Aug 15 2025 10:46:27 GMT-0500 (Central Daylight Time),574109.7000000477,A,doct,I,t,375,2,9446.5,564663.2000000477,8036,WL,C,12.0
4,55.765000104904175,learn,4234.999895095825,Fri Aug 15 2025 10:46:27 GMT-0500 (Central Daylight Time),574376.2000000477,A,docto,I,o,247,2,9713.0,564663.2000000477,8036,WL,C,12.0
4,56.04900002479553,learn,3950.999975204468,Fri Aug 15 2025 10:46:27 GMT-0500 (Central Daylight Time),574659.5,A,doctor,I,r,269,2,9996.299999952316,564663.2000000477,8036,WL,C,12.0
4,56.31500005722046,learn,3684.999942779541,Fri Aug 15 2025 10:46:27 GMT-0500 (Central Daylight Time),574926.2000000477,A,doctore,I,e,258,2,10263.0,564663.2000000477,8036,WL,C,12.0
4,57.56500005722046,learn,2434.999942779541,Fri Aug 15 2025 10:46:27 GMT-0500 (Central Daylight Time),576175.7000000477,A,doctor,I,backspace,1239,2,11512.5,564663.2000000477,8036,WL,C,12.0
4,57.831000089645386,learn,2168.9999103546143,Fri Aug 15 2025 10:46:27 GMT-0500 (Central Daylight Time),576442.4000000358,A,docto,I,backspace,261,2,11779.199999988079,564663.2000000477,8036,WL,C,12.0
4,59.348000049591064,learn,651.9999504089355,Fri Aug 15 2025 10:46:27 GMT-0500 (Central Daylight Time),577959.0,A,doctor,I,r,1512,2,13295.799999952316,564663.2000000477,8036,WL,C,12.0
4,59.89800000190735,learn,101.99999809265137,Fri Aug 15 2025 10:46:27 GMT-0500 (Central Daylight Time),578508.6000000238,A,doctorenter,I,enter,541,2,13845.399999976158,564663.2000000477,8036,WL,C,12.0
4,60.013999938964844,learn,-13.99993896484375,Fri Aug 15 2025 10:46:27 GMT-0500 (Central Daylight Time),578625.0,A,None,I,None,112,2,116.09999996423721,578508.9000000358,8036,WL,C,13.0
5,1.8329999446868896,learn,60000.0,Fri Aug 15 2025 10:46:27 GMT-0500 (Central Daylight Time),649786.3000000119,A,t,I,t,1829,2,1832.699999988079,647953.6000000238,8036,WL,C,1.0
5,2.115999937057495,learn,60000.0,Fri Aug 15 2025 10:46:27 GMT-0500 (Central Daylight Time),650069.5,A,to,I,o,274,2,2115.899999976158,647953.6000000238,8036,WL,C,1.0
5,2.382999897003174,learn,60000.0,Fri Aug 15 2025 10:46:27 GMT-0500 (Central Daylight Time),650336.0,A,tow,I,w,255,2,2382.399999976158,647953.6000000238,8036,WL,C,1.0
5,2.699000120162964,learn,60000.0,Fri Aug 15 2025 10:46:27 GMT-0500 (Central Daylight Time),650652.5,A,towe,I,e,309,2,2698.899999976158,647953.6000000238,8036,WL,C,1.0
5,2.999000072479248,learn,60000.0,Fri Aug 15 2025 10:46:27 GMT-0500 (Central Daylight Time),650952.4000000358,A,tower,I,r,280,2,2998.800000011921,647953.6000000238,8036,WL,C,1.0
5,4.115999937057495,learn,60000.0,Fri Aug 15 2025 10:46:27 GMT-0500 (Central Daylight Time),652068.8000000119,A,towerenter,I,enter,1109,2,4115.199999988079,647953.6000000238,8036,WL,C,1.0
5,5.332000017166138,learn,60000.0,Fri Aug 15 2025 10:46:27 GMT-0500 (Central Daylight Time),653285.0,A,w,I,w,1209,2,1215.7999999523163,652069.2000000477,8036,WL,C,2.0
5,5.765000104904175,learn,60000.0,Fri Aug 15 2025 10:46:27 GMT-0500 (Central Daylight Time),653718.3000000119,A,wh,I,h,425,2,1649.0999999642372,652069.2000000477,8036,WL,C,2.0
5,5.949000120162964,learn,60000.0,Fri Aug 15 2025 10:46:27 GMT-0500 (Central Daylight Time),653901.7000000477,A,whe,I,e,166,2,1832.5,652069.2000000477,8036,WL,C,2.0
5,6.2149999141693115,learn,60000.0,Fri Aug 15 2025 10:46:27 GMT-0500 (Central Daylight Time),654167.9000000358,A,whea,I,a,247,2,2098.699999988079,652069.2000000477,8036,WL,C,2.0
5,6.497999906539917,learn,60000.0,Fri Aug 15 2025 10:46:27 GMT-0500 (Central Daylight Time),654451.0,A,wheat,I,t,278,2,2381.7999999523163,652069.2000000477,8036,WL,C,2.0
5,7.180999994277954,learn,60000.0,Fri Aug 15 2025 10:46:27 GMT-0500 (Central Daylight Time),655134.8000000119,A,wheatenter,I,enter,666,2,3065.599999964237,652069.2000000477,8036,WL,C,2.0
5,7.88100004196167,learn,60000.0,Fri Aug 15 2025 10:46:27 GMT-0500 (Central Daylight Time),655834.1000000238,A,s,I,s,687,2,699.0,655135.1000000238,8036,WL,C,3.0
5,8.280999898910522,learn,60000.0,Fri Aug 15 2025 10:46:27 GMT-0500 (Central Daylight Time),656234.0,A,su,I,u,387,2,1098.8999999761581,655135.1000000238,8036,WL,C,3.0
5,8.579999923706055,learn,60000.0,Fri Aug 15 2025 10:46:27 GMT-0500 (Central Daylight Time),656533.8000000119,A,sug,I,g,284,2,1398.699999988079,655135.1000000238,8036,WL,C,3.0
5,8.880000114440918,learn,60000.0,Fri Aug 15 2025 10:46:27 GMT-0500 (Central Daylight Time),656833.8000000119,A,suga,I,a,296,2,1698.699999988079,655135.1000000238,8036,WL,C,3.0
5,9.164000034332275,learn,60000.0,Fri Aug 15 2025 10:46:27 GMT-0500 (Central Daylight Time),657117.2000000477,A,sugar,I,r,275,2,1982.1000000238419,655135.1000000238,8036,WL,C,3.0
5,10.130000114440918,learn,60000.0,Fri Aug 15 2025 10:46:27 GMT-0500 (Central Daylight Time),658083.6000000238,A,sugarenter,I,enter,953,2,2948.5,655135.1000000238,8036,WL,C,3.0
5,11.364000082015991,learn,60000.0,Fri Aug 15 2025 10:46:27 GMT-0500 (Central Daylight Time),659317.4000000358,A,d,I,d,1225,2,1233.5,658083.9000000358,8036,WL,C,4.0
5,11.630000114440918,learn,60000.0,Fri Aug 15 2025 10:46:27 GMT-0500 (Central Daylight Time),659583.2000000477,A,do,I,o,248,2,1499.300000011921,658083.9000000358,8036,WL,C,4.0
5,11.812999963760376,learn,60000.0,Fri Aug 15 2025 10:46:27 GMT-0500 (Central Daylight Time),659766.5,A,doc,I,c,175,2,1682.5999999642372,658083.9000000358,8036,WL,C,4.0
5,12.163000106811523,learn,60000.0,Fri Aug 15 2025 10:46:27 GMT-0500 (Central Daylight Time),660116.1000000238,A,doct,I,t,342,2,2032.199999988079,658083.9000000358,8036,WL,C,4.0
5,12.378999948501587,learn,60000.0,Fri Aug 15 2025 10:46:27 GMT-0500 (Central Daylight Time),660332.8000000119,A,docto,I,o,208,2,2248.899999976158,658083.9000000358,8036,WL,C,4.0
5,12.713000059127808,learn,60000.0,Fri Aug 15 2025 10:46:27 GMT-0500 (Central Daylight Time),660666.2000000477,A,doctor,I,r,313,2,2582.300000011921,658083.9000000358,8036,WL,C,4.0
5,13.878999948501587,learn,60000.0,Fri Aug 15 2025 10:46:27 GMT-0500 (Central Daylight Time),661832.4000000358,A,doctorenter,I,enter,1147,2,3748.5,658083.9000000358,8036,WL,C,4.0
5,15.545000076293945,learn,60000.0,Fri Aug 15 2025 10:46:27 GMT-0500 (Central Daylight Time),663498.1000000238,A,q,I,q,1659,2,1665.3999999761581,661832.7000000477,8036,WL,C,5.0
5,15.878999948501587,learn,60000.0,Fri Aug 15 2025 10:46:27 GMT-0500 (Central Daylight Time),663831.9000000358,A,qu,I,u,322,2,1999.199999988079,661832.7000000477,8036,WL,C,5.0
5,16.111000061035156,learn,60000.0,Fri Aug 15 2025 10:46:27 GMT-0500 (Central Daylight Time),664064.9000000358,A,que,I,e,222,2,2232.199999988079,661832.7000000477,8036,WL,C,5.0
5,17.628000020980835,learn,60000.0,Fri Aug 15 2025 10:46:27 GMT-0500 (Central Daylight Time),665581.2000000477,A,quee,I,e,1500,2,3748.5,661832.7000000477,8036,WL,C,5.0
5,18.028000116348267,learn,60000.0,Fri Aug 15 2025 10:46:27 GMT-0500 (Central Daylight Time),665981.3000000119,A,queen,I,n,392,2,4148.599999964237,661832.7000000477,8036,WL,C,5.0
5,19.32699990272522,learn,60000.0,Fri Aug 15 2025 10:46:27 GMT-0500 (Central Daylight Time),667280.6000000238,A,queenenter,I,enter,1279,2,5447.899999976158,661832.7000000477,8036,WL,C,5.0
5,20.41000008583069,learn,60000.0,Fri Aug 15 2025 10:46:27 GMT-0500 (Central Daylight Time),668363.3000000119,A,b,I,b,1077,2,1082.5,667280.8000000119,8036,WL,C,6.0
5,20.927000045776367,learn,60000.0,Fri Aug 15 2025 10:46:27 GMT-0500 (Central Daylight Time),668880.1000000238,A,bo,I,o,497,2,1599.300000011921,667280.8000000119,8036,WL,C,6.0
5,21.375999927520752,learn,60000.0,Fri Aug 15 2025 10:46:27 GMT-0500 (Central Daylight Time),669329.5,A,boy,I,y,444,2,2048.699999988079,667280.8000000119,8036,WL,C,6.0
5,22.01099991798401,learn,60000.0,Fri Aug 15 2025 10:46:27 GMT-0500 (Central Daylight Time),669964.1000000238,A,boyenter,I,enter,627,2,2683.300000011921,667280.8000000119,8036,WL,C,6.0
5,22.493000030517578,learn,60000.0,Fri Aug 15 2025 10:46:27 GMT-0500 (Central Daylight Time),670446.4000000358,A,n,I,n,473,2,482.0,669964.4000000358,8036,WL,C,7.0
5,22.7260000705719,learn,60000.0,Fri Aug 15 2025 10:46:27 GMT-0500 (Central Daylight Time),670679.6000000238,A,na,I,a,215,2,715.1999999880791,669964.4000000358,8036,WL,C,7.0
5,22.858999967575073,learn,60000.0,Fri Aug 15 2025 10:46:27 GMT-0500 (Central Daylight Time),670812.8000000119,A,nai,I,i,126,2,848.3999999761581,669964.4000000358,8036,WL,C,7.0
5,23.176000118255615,learn,60000.0,Fri Aug 15 2025 10:46:27 GMT-0500 (Central Daylight Time),671129.7000000477,A,nail,I,l,305,2,1165.300000011921,669964.4000000358,8036,WL,C,7.0
5,24.322999954223633,learn,60000.0,Fri Aug 15 2025 10:46:27 GMT-0500 (Central Daylight Time),672276.8000000119,A,nailenter,I,enter,995,2,2312.399999976158,669964.4000000358,8036,WL,C,7.0
5,26.407999992370605,learn,60000.0,Fri Aug 15 2025 10:46:27 GMT-0500 (Central Daylight Time),674361.7000000477,A,l,I,l,2071,2,2084.5,672277.2000000477,8036,WL,C,8.0
5,26.657999992370605,learn,60000.0,Fri Aug 15 2025 10:46:27 GMT-0500 (Central Daylight Time),674611.7000000477,A,le,I,e,235,2,2334.5,672277.2000000477,8036,WL,C,8.0
5,27.058000087738037,learn,60000.0,Fri Aug 15 2025 10:46:27 GMT-0500 (Central Daylight Time),675011.5,A,let,I,t,385,2,2734.2999999523163,672277.2000000477,8036,WL,C,8.0
5,27.240999937057495,learn,60000.0,Fri Aug 15 2025 10:46:27 GMT-0500 (Central Daylight Time),675194.6000000238,A,lett,I,t,169,2,2917.399999976158,672277.2000000477,8036,WL,C,8.0
5,27.473999977111816,learn,60000.0,Fri Aug 15 2025 10:46:27 GMT-0500 (Central Daylight Time),675427.9000000358,A,lette,I,e,226,2,3150.699999988079,672277.2000000477,8036,WL,C,8.0
5,27.657999992370605,learn,60000.0,Fri Aug 15 2025 10:46:27 GMT-0500 (Central Daylight Time),675611.4000000358,A,letter,I,r,169,2,3334.199999988079,672277.2000000477,8036,WL,C,8.0
5,28.424000024795532,learn,60000.0,Fri Aug 15 2025 10:46:27 GMT-0500 (Central Daylight Time),676377.8000000119,A,letterenter,I,enter,746,2,4100.599999964237,672277.2000000477,8036,WL,C,8.0
5,28.757999897003174,learn,60000.0,Fri Aug 15 2025 10:46:27 GMT-0500 (Central Daylight Time),676711.0,A,c,I,c,314,2,332.7999999523163,676378.2000000477,8036,WL,C,9.0
5,28.990999937057495,learn,60000.0,Fri Aug 15 2025 10:46:27 GMT-0500 (Central Daylight Time),676944.3000000119,A,ca,I,a,222,2,566.0999999642372,676378.2000000477,8036,WL,C,9.0
5,29.29099988937378,learn,60000.0,Fri Aug 15 2025 10:46:27 GMT-0500 (Central Daylight Time),677243.9000000358,A,cat,I,t,286,2,865.6999999880791,676378.2000000477,8036,WL,C,9.0
5,29.47499990463257,learn,60000.0,Fri Aug 15 2025 10:46:27 GMT-0500 (Central Daylight Time),677428.2000000477,A,catt,I,t,169,2,1050.0,676378.2000000477,8036,WL,C,9.0
5,29.740999937057495,learn,60000.0,Fri Aug 15 2025 10:46:27 GMT-0500 (Central Daylight Time),677694.0,A,cattl,I,l,250,2,1315.7999999523163,676378.2000000477,8036,WL,C,9.0
5,29.973999977111816,learn,60000.0,Fri Aug 15 2025 10:46:27 GMT-0500 (Central Daylight Time),677927.2000000477,A,cattle,I,e,224,2,1549.0,676378.2000000477,8036,WL,C,9.0
5,31.374000072479248,learn,60000.0,Fri Aug 15 2025 10:46:27 GMT-0500 (Central Daylight Time),679327.0,A,cattleenter,I,enter,1382,2,2948.7999999523163,676378.2000000477,8036,WL,C,9.0
5,32.08999991416931,learn,60000.0,Fri Aug 15 2025 10:46:27 GMT-0500 (Central Daylight Time),680043.2000000477,A,n,I,n,710,2,715.8000000119209,679327.4000000358,8036,WL,C,10.0
5,32.35700011253357,learn,60000.0,Fri Aug 15 2025 10:46:27 GMT-0500 (Central Daylight Time),680309.9000000358,A,na,I,a,258,2,982.5,679327.4000000358,8036,WL,C,10.0
5,32.57299995422363,learn,60000.0,Fri Aug 15 2025 10:46:27 GMT-0500 (Central Daylight Time),680526.3000000119,A,nai,I,i,199,2,1198.8999999761581,679327.4000000358,8036,WL,C,10.0
5,32.90599989891052,learn,60000.0,Fri Aug 15 2025 10:46:27 GMT-0500 (Central Daylight Time),680859.4000000358,A,nail,I,l,326,2,1532.0,679327.4000000358,8036,WL,C,10.0
5,33.65599989891052,learn,60000.0,Fri Aug 15 2025 10:46:27 GMT-0500 (Central Daylight Time),681609.6000000238,A,nailenter,I,enter,745,2,2282.199999988079,679327.4000000358,8036,WL,C,10.0
5,34.25600004196167,learn,60000.0,Fri Aug 15 2025 10:46:27 GMT-0500 (Central Daylight Time),682209.2000000477,A,c,I,c,587,2,599.3000000119209,681609.9000000358,8036,WL,C,11.0
5,34.48900008201599,learn,60000.0,Fri Aug 15 2025 10:46:27 GMT-0500 (Central Daylight Time),682442.6000000238,A,co,I,o,220,2,832.6999999880791,681609.9000000358,8036,WL,C,11.0
5,34.706000089645386,learn,60000.0,Fri Aug 15 2025 10:46:27 GMT-0500 (Central Daylight Time),682659.5,A,cor,I,r,203,2,1049.5999999642372,681609.9000000358,8036,WL,C,11.0
5,35.039000034332275,learn,60000.0,Fri Aug 15 2025 10:46:27 GMT-0500 (Central Daylight Time),682992.4000000358,A,corn,I,n,321,2,1382.5,681609.9000000358,8036,WL,C,11.0
5,36.23900008201599,learn,60000.0,Fri Aug 15 2025 10:46:27 GMT-0500 (Central Daylight Time),684191.9000000358,A,cornenter,I,enter,1188,2,2582.0,681609.9000000358,8036,WL,C,11.0
5,40.4210000038147,learn,60000.0,Fri Aug 15 2025 10:46:27 GMT-0500 (Central Daylight Time),688374.1000000238,A,b,I,b,4165,2,4181.800000011921,684192.3000000119,8036,WL,C,12.0
5,41.22000002861023,learn,60000.0,Fri Aug 15 2025 10:46:27 GMT-0500 (Central Daylight Time),689173.9000000358,A,bo,I,o,792,2,4981.600000023842,684192.3000000119,8036,WL,C,12.0
5,41.73699998855591,learn,60000.0,Fri Aug 15 2025 10:46:27 GMT-0500 (Central Daylight Time),689690.2000000477,A,boy,I,y,504,2,5497.900000035763,684192.3000000119,8036,WL,C,12.0
5,42.38700008392334,learn,60000.0,Fri Aug 15 2025 10:46:27 GMT-0500 (Central Daylight Time),690340.0,A,boyenter,I,enter,643,2,6147.699999988079,684192.3000000119,8036,WL,C,12.0
5,42.78699994087219,learn,60000.0,Fri Aug 15 2025 10:46:27 GMT-0500 (Central Daylight Time),690740.3000000119,A,g,I,g,386,2,400.0999999642372,690340.2000000477,8036,WL,C,13.0
5,45.319000005722046,learn,60000.0,Fri Aug 15 2025 10:46:27 GMT-0500 (Central Daylight Time),693272.4000000358,A,,I,backspace,2512,2,2932.199999988079,690340.2000000477,8036,WL,C,13.0
5,46.55200004577637,learn,60000.0,Fri Aug 15 2025 10:46:27 GMT-0500 (Central Daylight Time),694505.3000000119,A,f,I,f,1220,2,4165.099999964237,690340.2000000477,8036,WL,C,13.0
5,46.86899995803833,learn,60000.0,Fri Aug 15 2025 10:46:27 GMT-0500 (Central Daylight Time),694822.0,A,fl,I,l,307,2,4481.799999952316,690340.2000000477,8036,WL,C,13.0
5,47.13499999046326,learn,60000.0,Fri Aug 15 2025 10:46:27 GMT-0500 (Central Daylight Time),695088.4000000358,A,fla,I,a,255,2,4748.199999988079,690340.2000000477,8036,WL,C,13.0
5,47.484999895095825,learn,60000.0,Fri Aug 15 2025 10:46:27 GMT-0500 (Central Daylight Time),695438.5,A,flag,I,g,340,2,5098.299999952316,690340.2000000477,8036,WL,C,13.0
5,48.818000078201294,learn,60000.0,Fri Aug 15 2025 10:46:27 GMT-0500 (Central Daylight Time),696771.1000000238,A,flagenter,I,enter,1319,2,6430.899999976158,690340.2000000477,8036,WL,C,13.0
5,55.81599998474121,learn,60000.0,Fri Aug 15 2025 10:46:27 GMT-0500 (Central Daylight Time),703769.0,A,s,I,s,6987,2,6997.599999964237,696771.4000000358,8036,WL,C,14.0
5,56.08200001716614,learn,60000.0,Fri Aug 15 2025 10:46:27 GMT-0500 (Central Daylight Time),704035.6000000238,A,sh,I,h,259,2,7264.199999988079,696771.4000000358,8036,WL,C,14.0
5,56.56599998474121,learn,60000.0,Fri Aug 15 2025 10:46:27 GMT-0500 (Central Daylight Time),704519.0,A,sho,I,o,473,2,7747.599999964237,696771.4000000358,8036,WL,C,14.0
5,56.83200001716614,learn,60000.0,Fri Aug 15 2025 10:46:27 GMT-0500 (Central Daylight Time),704785.7000000477,A,shor,I,r,246,2,8014.300000011921,696771.4000000358,8036,WL,C,14.0
5,57.098999977111816,learn,60000.0,Fri Aug 15 2025 10:46:27 GMT-0500 (Central Daylight Time),705052.2000000477,A,shore,I,e,259,2,8280.800000011921,696771.4000000358,8036,WL,C,14.0
5,58.848000049591064,learn,60000.0,Fri Aug 15 2025 10:46:27 GMT-0500 (Central Daylight Time),706801.5,A,shoreenter,I,enter,1737,2,10030.099999964237,696771.4000000358,8036,WL,C,14.0
5,65.52900004386902,learn,60000.0,Fri Aug 15 2025 10:46:27 GMT-0500 (Central Daylight Time),713482.6000000238,A,n,I,n,6675,2,6680.699999988079,706801.9000000358,8036,WL,C,15.0
6,1.567000150680542,distr,58432.99984931946,Fri Aug 15 2025 10:46:27 GMT-0500 (Central Daylight Time),790708.8000000119,B,s,I,s,1552,2,1566.300000011921,789142.5,8036,WL,C,1.0
6,1.7999999523162842,distr,58200.000047683716,Fri Aug 15 2025 10:46:27 GMT-0500 (Central Daylight Time),790941.8000000119,B,sk,I,k,224,2,1799.300000011921,789142.5,8036,WL,C,1.0
6,2.25,distr,57750.0,Fri Aug 15 2025 10:46:27 GMT-0500 (Central Daylight Time),791392.0,B,sky,I,y,432,2,2249.5,789142.5,8036,WL,C,1.0
6,2.9830000400543213,distr,57016.99995994568,Fri Aug 15 2025 10:46:27 GMT-0500 (Central Daylight Time),792124.8000000119,B,skyenter,I,enter,718,2,2982.300000011921,789142.5,8036,WL,C,1.0
6,3.815999984741211,distr,56184.00001525879,Fri Aug 15 2025 10:46:27 GMT-0500 (Central Daylight Time),792957.8000000119,B,v,I,v,825,2,832.6999999880791,792125.1000000238,8036,WL,C,2.0
6,4.065999984741211,distr,55934.00001525879,Fri Aug 15 2025 10:46:27 GMT-0500 (Central Daylight Time),793207.7000000477,B,va,I,a,230,2,1082.6000000238419,792125.1000000238,8036,WL,C,2.0
6,4.249000072479248,distr,55750.99992752075,Fri Aug 15 2025 10:46:27 GMT-0500 (Central Daylight Time),793391.0,B,val,I,l,165,2,1265.8999999761581,792125.1000000238,8036,WL,C,2.0
6,4.433000087738037,distr,55566.99991226196,Fri Aug 15 2025 10:46:27 GMT-0500 (Central Daylight Time),793574.6000000238,B,vall,I,l,166,2,1449.5,792125.1000000238,8036,WL,C,2.0
6,4.615999937057495,distr,55384.000062942505,Fri Aug 15 2025 10:46:27 GMT-0500 (Central Daylight Time),793757.6000000238,B,valle,I,e,166,2,1632.5,792125.1000000238,8036,WL,C,2.0
6,4.982000112533569,distr,55017.99988746643,Fri Aug 15 2025 10:46:27 GMT-0500 (Central Daylight Time),794123.9000000358,B,valley,I,y,352,2,1998.800000011921,792125.1000000238,8036,WL,C,2.0
6,5.947999954223633,distr,54052.00004577637,Fri Aug 15 2025 10:46:27 GMT-0500 (Central Daylight Time),795090.1000000238,B,valleyenter,I,enter,961,2,2965.0,792125.1000000238,8036,WL,C,2.0
6,10.79699993133545,distr,49203.00006866455,Fri Aug 15 2025 10:46:27 GMT-0500 (Central Daylight Time),799939.1000000238,B,f,I,f,4843,2,4848.699999988079,795090.4000000358,8036,WL,C,3.0
6,11.02999997138977,distr,48970.00002861023,Fri Aug 15 2025 10:46:27 GMT-0500 (Central Daylight Time),800172.3000000119,B,fo,I,o,217,2,5081.899999976158,795090.4000000358,8036,WL,C,3.0
6,11.180000066757202,distr,48819.9999332428,Fri Aug 15 2025 10:46:27 GMT-0500 (Central Daylight Time),800322.2000000477,B,for,I,r,130,2,5231.800000011921,795090.4000000358,8036,WL,C,3.0
6,11.380000114440918,distr,48619.99988555908,Fri Aug 15 2025 10:46:27 GMT-0500 (Central Daylight Time),800522.1000000238,B,fore,I,e,187,2,5431.699999988079,795090.4000000358,8036,WL,C,3.0
6,11.630000114440918,distr,48369.99988555908,Fri Aug 15 2025 10:46:27 GMT-0500 (Central Daylight Time),800772.1000000238,B,fores,I,s,244,2,5681.699999988079,795090.4000000358,8036,WL,C,3.0
6,11.94700002670288,distr,48052.99997329712,Fri Aug 15 2025 10:46:27 GMT-0500 (Central Daylight Time),801088.6000000238,B,forest,I,t,304,2,5998.199999988079,795090.4000000358,8036,WL,C,3.0
6,13.61300015449524,distr,46386.99984550476,Fri Aug 15 2025 10:46:27 GMT-0500 (Central Daylight Time),802754.4000000358,B,forestenter,I,enter,1660,2,7664.0,795090.4000000358,8036,WL,C,3.0
6,22.127000093460083,distr,37872.99990653992,Fri Aug 15 2025 10:46:27 GMT-0500 (Central Daylight Time),811268.8000000119,B,w,I,w,8507,2,8514.099999964237,802754.7000000477,8036,WL,C,4.0
6,22.39300012588501,distr,37606.99987411499,Fri Aug 15 2025 10:46:27 GMT-0500 (Central Daylight Time),811535.2000000477,B,wi,I,i,248,2,8780.5,802754.7000000477,8036,WL,C,4.0
6,22.627000093460083,distr,37372.99990653992,Fri Aug 15 2025 10:46:27 GMT-0500 (Central Daylight Time),811768.4000000358,B,win,I,n,221,2,9013.699999988079,802754.7000000477,8036,WL,C,4.0
6,22.80999994277954,distr,37190.00005722046,Fri Aug 15 2025 10:46:27 GMT-0500 (Central Daylight Time),811951.8000000119,B,wint,I,t,172,2,9197.099999964237,802754.7000000477,8036,WL,C,4.0
6,23.05999994277954,distr,36940.00005722046,Fri Aug 15 2025 10:46:27 GMT-0500 (Central Daylight Time),812201.8000000119,B,winte,I,e,230,2,9447.099999964237,802754.7000000477,8036,WL,C,4.0
6,23.243000030517578,distr,36756.99996948242,Fri Aug 15 2025 10:46:27 GMT-0500 (Central Daylight Time),812385.2000000477,B,winter,I,r,163,2,9630.5,802754.7000000477,8036,WL,C,4.0
6,24.57800006866455,distr,35421.99993133545,Fri Aug 15 2025 10:46:27 GMT-0500 (Central Daylight Time),813719.5,B,winterenter,I,enter,1313,2,10964.799999952316,802754.7000000477,8036,WL,C,4.0
6,44.12000012397766,distr,15879.999876022339,Fri Aug 15 2025 10:46:27 GMT-0500 (Central Daylight Time),833261.8000000119,B,enter,I,enter,19534,2,19542.0,813719.8000000119,8036,WL,C,5.0
6,44.37000012397766,distr,15629.999876022339,Fri Aug 15 2025 10:46:27 GMT-0500 (Central Daylight Time),833511.8000000119,B,enter,I,enter,239,2,249.5999999642372,833262.2000000477,8036,WL,C,6.0
6,44.57100009918213,distr,15428.999900817871,Fri Aug 15 2025 10:46:27 GMT-0500 (Central Daylight Time),833712.4000000358,B,enter,I,enter,190,2,200.30000001192093,833512.1000000238,8036,WL,C,7.0
6,44.73699998855591,distr,15263.000011444092,Fri Aug 15 2025 10:46:27 GMT-0500 (Central Daylight Time),833878.4000000358,B,enter,I,enter,156,2,165.69999998807907,833712.7000000477,8036,WL,C,8.0
6,44.920000076293945,distr,15079.999923706055,Fri Aug 15 2025 10:46:27 GMT-0500 (Central Daylight Time),834061.5,B,enter,I,enter,175,2,182.79999995231628,833878.7000000477,8036,WL,C,9.0
6,45.12000012397766,distr,14879.999876022339,Fri Aug 15 2025 10:46:27 GMT-0500 (Central Daylight Time),834261.5,B,enter,I,enter,192,2,199.5999999642372,834061.9000000358,8036,WL,C,10.0
6,45.335999965667725,distr,14664.000034332275,Fri Aug 15 2025 10:46:27 GMT-0500 (Central Daylight Time),834478.3000000119,B,enter,I,enter,199,2,216.39999997615814,834261.9000000358,8036,WL,C,11.0
6,45.53600001335144,distr,14463.99998664856,Fri Aug 15 2025 10:46:27 GMT-0500 (Central Daylight Time),834678.1000000238,B,enter,I,enter,183,2,199.5,834478.6000000238,8036,WL,C,12.0
6,45.71900010108948,distr,14280.999898910522,Fri Aug 15 2025 10:46:27 GMT-0500 (Central Daylight Time),834861.2000000477,B,enter,I,enter,176,2,182.70000004768372,834678.5,8036,WL,C,13.0
6,45.91900014877319,distr,14080.999851226807,Fri Aug 15 2025 10:46:27 GMT-0500 (Central Daylight Time),835061.4000000358,B,enter,I,enter,185,2,199.9000000357628,834861.5,8036,WL,C,14.0
6,50.45099997520447,distr,9549.000024795532,Fri Aug 15 2025 10:46:27 GMT-0500 (Central Daylight Time),839593.1000000238,B,enter,I,enter,4511,2,4531.399999976158,835061.7000000477,8036,WL,C,15.0
7,2.0,immed,58000.0,Fri Aug 15 2025 10:46:27 GMT-0500 (Central Daylight Time),873615.7000000477,A,w,I,w,1981,2,1999.0,871616.7000000477,8036,WL,C,1.0
7,2.2330000400543213,immed,57766.99995994568,Fri Aug 15 2025 10:46:27 GMT-0500 (Central Daylight Time),873848.8000000119,A,wh,I,h,220,2,2232.099999964237,871616.7000000477,8036,WL,C,1.0
7,2.433000087738037,immed,57566.99991226196,Fri Aug 15 2025 10:46:27 GMT-0500 (Central Daylight Time),874049.0,A,whe,I,e,180,2,2432.2999999523163,871616.7000000477,8036,WL,C,1.0
7,2.7160000801086426,immed,57283.99991989136,Fri Aug 15 2025 10:46:27 GMT-0500 (Central Daylight Time),874332.3000000119,A,whea,I,a,268,2,2715.599999964237,871616.7000000477,8036,WL,C,1.0
7,3.0490000247955322,immed,56950.99997520447,Fri Aug 15 2025 10:46:27 GMT-0500 (Central Daylight Time),874665.2000000477,A,wheat,I,t,312,2,3048.5,871616.7000000477,8036,WL,C,1.0
7,4.348999977111816,immed,55651.00002288818,Fri Aug 15 2025 10:46:27 GMT-0500 (Central Daylight Time),875965.0,A,wheatenter,I,enter,1292,2,4348.299999952316,871616.7000000477,8036,WL,C,1.0
7,6.299999952316284,immed,53700.000047683716,Fri Aug 15 2025 10:46:27 GMT-0500 (Central Daylight Time),877915.6000000238,A,s,I,s,1944,2,1950.300000011921,875965.3000000119,8036,WL,C,2.0
7,6.54800009727478,immed,53451.99990272522,Fri Aug 15 2025 10:46:27 GMT-0500 (Central Daylight Time),878164.4000000358,A,sh,I,h,233,2,2199.100000023842,875965.3000000119,8036,WL,C,2.0
7,6.914999961853027,immed,53085.00003814697,Fri Aug 15 2025 10:46:27 GMT-0500 (Central Daylight Time),878530.6000000238,A,sho,I,o,361,2,2565.300000011921,875965.3000000119,8036,WL,C,2.0
7,7.164999961853027,immed,52835.00003814697,Fri Aug 15 2025 10:46:27 GMT-0500 (Central Daylight Time),878780.9000000358,A,shor,I,r,235,2,2815.600000023842,875965.3000000119,8036,WL,C,2.0
7,7.38100004196167,immed,52618.99995803833,Fri Aug 15 2025 10:46:27 GMT-0500 (Central Daylight Time),878997.4000000358,A,shore,I,e,201,2,3032.100000023842,875965.3000000119,8036,WL,C,2.0
7,8.248000144958496,immed,51751.999855041504,Fri Aug 15 2025 10:46:27 GMT-0500 (Central Daylight Time),879863.7000000477,A,shoreenter,I,enter,855,2,3898.400000035763,875965.3000000119,8036,WL,C,2.0
7,8.764000177383423,immed,51235.99982261658,Fri Aug 15 2025 10:46:27 GMT-0500 (Central Daylight Time),880380.2000000477,A,b,I,b,501,2,516.0,879864.2000000477,8036,WL,C,3.0
7,9.04800009727478,immed,50951.99990272522,Fri Aug 15 2025 10:46:27 GMT-0500 (Central Daylight Time),880663.6000000238,A,bo,I,o,273,2,799.3999999761581,879864.2000000477,8036,WL,C,3.0
7,9.581000089645386,immed,50418.999910354614,Fri Aug 15 2025 10:46:27 GMT-0500 (Central Daylight Time),881196.8000000119,A,boy,I,y,526,2,1332.5999999642372,879864.2000000477,8036,WL,C,3.0
7,10.814000129699707,immed,49185.99987030029,Fri Aug 15 2025 10:46:27 GMT-0500 (Central Daylight Time),882429.6000000238,A,boyenter,I,enter,1217,2,2565.399999976158,879864.2000000477,8036,WL,C,3.0
7,11.480000019073486,immed,48519.999980926514,Fri Aug 15 2025 10:46:27 GMT-0500 (Central Daylight Time),883096.2000000477,A,n,I,n,646,2,666.1000000238419,882430.1000000238,8036,WL,C,4.0
7,11.71399998664856,immed,48286.00001335144,Fri Aug 15 2025 10:46:27 GMT-0500 (Central Daylight Time),883329.5,A,na,I,a,212,2,899.3999999761581,882430.1000000238,8036,WL,C,4.0
7,11.930000066757202,immed,48069.9999332428,Fri Aug 15 2025 10:46:27 GMT-0500 (Central Daylight Time),883546.0,A,nai,I,i,212,2,1115.8999999761581,882430.1000000238,8036,WL,C,4.0
7,12.27999997138977,immed,47720.00002861023,Fri Aug 15 2025 10:46:27 GMT-0500 (Central Daylight Time),883895.9000000358,A,nail,I,l,339,2,1465.800000011921,882430.1000000238,8036,WL,C,4.0
7,13.128999948501587,immed,46871.00005149841,Fri Aug 15 2025 10:46:27 GMT-0500 (Central Daylight Time),884745.4000000358,A,nailenter,I,enter,837,2,2315.300000011921,882430.1000000238,8036,WL,C,4.0
7,14.67900013923645,immed,45320.99986076355,Fri Aug 15 2025 10:46:27 GMT-0500 (Central Daylight Time),886295.3000000119,A,l,I,l,1541,2,1549.699999988079,884745.6000000238,8036,WL,C,5.0
7,14.878999948501587,immed,45121.00005149841,Fri Aug 15 2025 10:46:27 GMT-0500 (Central Daylight Time),886494.9000000358,A,le,I,e,190,2,1749.300000011921,884745.6000000238,8036,WL,C,5.0
7,15.196000099182129,immed,44803.99990081787,Fri Aug 15 2025 10:46:27 GMT-0500 (Central Daylight Time),886811.7000000477,A,let,I,t,303,2,2066.100000023842,884745.6000000238,8036,WL,C,5.0
7,15.394999980926514,immed,44605.000019073486,Fri Aug 15 2025 10:46:27 GMT-0500 (Central Daylight Time),887011.5,A,lett,I,t,185,2,2265.899999976158,884745.6000000238,8036,WL,C,5.0
7,15.578999996185303,immed,44421.0000038147,Fri Aug 15 2025 10:46:27 GMT-0500 (Central Daylight Time),887194.9000000358,A,lette,I,e,169,2,2449.300000011921,884745.6000000238,8036,WL,C,5.0
7,15.745000123977661,immed,44254.99987602234,Fri Aug 15 2025 10:46:27 GMT-0500 (Central Daylight Time),887361.5,A,letter,I,r,162,2,2615.899999976158,884745.6000000238,8036,WL,C,5.0
7,16.795000076293945,immed,43204.999923706055,Fri Aug 15 2025 10:46:27 GMT-0500 (Central Daylight Time),888411.1000000238,A,letterenter,I,enter,1043,2,3665.5,884745.6000000238,8036,WL,C,5.0
7,23.62600016593933,immed,36373.99983406067,Fri Aug 15 2025 10:46:27 GMT-0500 (Central Daylight Time),895242.4000000358,A,c,I,c,6826,2,6831.0,888411.4000000358,8036,WL,C,6.0
7,23.9760000705719,immed,36023.9999294281,Fri Aug 15 2025 10:46:27 GMT-0500 (Central Daylight Time),895592.3000000119,A,ca,I,a,339,2,7180.899999976158,888411.4000000358,8036,WL,C,6.0
7,24.39300012588501,immed,35606.99987411499,Fri Aug 15 2025 10:46:27 GMT-0500 (Central Daylight Time),896008.9000000358,A,cat,I,t,405,2,7597.5,888411.4000000358,8036,WL,C,6.0
7,24.575999975204468,immed,35424.00002479553,Fri Aug 15 2025 10:46:27 GMT-0500 (Central Daylight Time),896192.0,A,catt,I,t,164,2,7780.599999964237,888411.4000000358,8036,WL,C,6.0
7,24.825999975204468,immed,35174.00002479553,Fri Aug 15 2025 10:46:27 GMT-0500 (Central Daylight Time),896442.1000000238,A,cattl,I,l,237,2,8030.699999988079,888411.4000000358,8036,WL,C,6.0
7,25.075999975204468,immed,34924.00002479553,Fri Aug 15 2025 10:46:27 GMT-0500 (Central Daylight Time),896691.7000000477,A,cattle,I,e,234,2,8280.300000011921,888411.4000000358,8036,WL,C,6.0
7,26.02500009536743,immed,33974.99990463257,Fri Aug 15 2025 10:46:27 GMT-0500 (Central Daylight Time),897641.5,A,cattleenter,I,enter,945,2,9230.099999964237,888411.4000000358,8036,WL,C,6.0
7,28.70800018310547,immed,31291.99981689453,Fri Aug 15 2025 10:46:27 GMT-0500 (Central Daylight Time),900323.7000000477,A,c,I,c,2666,2,2681.900000035763,897641.8000000119,8036,WL,C,7.0
7,29.04100012779236,immed,30958.99987220764,Fri Aug 15 2025 10:46:27 GMT-0500 (Central Daylight Time),900657.2000000477,A,co,I,o,320,2,3015.400000035763,897641.8000000119,8036,WL,C,7.0
7,29.241000175476074,immed,30758.999824523926,Fri Aug 15 2025 10:46:27 GMT-0500 (Central Daylight Time),900857.1000000238,A,cor,I,r,179,2,3215.300000011921,897641.8000000119,8036,WL,C,7.0
7,29.758000135421753,immed,30241.999864578247,Fri Aug 15 2025 10:46:27 GMT-0500 (Central Daylight Time),901373.6000000238,A,corn,I,n,508,2,3731.800000011921,897641.8000000119,8036,WL,C,7.0
7,30.891000032424927,immed,29108.999967575073,Fri Aug 15 2025 10:46:27 GMT-0500 (Central Daylight Time),902506.8000000119,A,cornenter,I,enter,1119,2,4865.0,897641.8000000119,8036,WL,C,7.0
7,33.390000104904175,immed,26609.999895095825,Fri Aug 15 2025 10:46:27 GMT-0500 (Central Daylight Time),905006.0,A,h,I,h,2482,2,2498.699999988079,902507.3000000119,8036,WL,C,8.0
7,33.85599994659424,immed,26144.00005340576,Fri Aug 15 2025 10:46:27 GMT-0500 (Central Daylight Time),905472.4000000358,A,ho,I,o,456,2,2965.100000023842,902507.3000000119,8036,WL,C,8.0
7,34.19000005722046,immed,25809.99994277954,Fri Aug 15 2025 10:46:27 GMT-0500 (Central Daylight Time),905806.0,A,hom,I,m,317,2,3298.699999988079,902507.3000000119,8036,WL,C,8.0
7,34.52300000190735,immed,25476.99999809265,Fri Aug 15 2025 10:46:27 GMT-0500 (Central Daylight Time),906138.6000000238,A,home,I,e,328,2,3631.300000011921,902507.3000000119,8036,WL,C,8.0
7,35.555999994277954,immed,24444.000005722046,Fri Aug 15 2025 10:46:27 GMT-0500 (Central Daylight Time),907171.8000000119,A,homeenter,I,enter,1019,2,4664.5,902507.3000000119,8036,WL,C,8.0
7,40.15400004386902,immed,19845.99995613098,Fri Aug 15 2025 10:46:27 GMT-0500 (Central Daylight Time),911770.1000000238,A,q,I,q,4593,2,4597.899999976158,907172.2000000477,8036,WL,C,9.0
7,40.57100009918213,immed,19428.99990081787,Fri Aug 15 2025 10:46:27 GMT-0500 (Central Daylight Time),912187.3000000119,A,qu,I,u,404,2,5015.099999964237,907172.2000000477,8036,WL,C,9.0
7,41.23699998855591,immed,18763.00001144409,Fri Aug 15 2025 10:46:27 GMT-0500 (Central Daylight Time),912853.5,A,que,I,e,650,2,5681.299999952316,907172.2000000477,8036,WL,C,9.0
7,41.420000076293945,immed,18579.999923706055,Fri Aug 15 2025 10:46:27 GMT-0500 (Central Daylight Time),913036.5,A,quee,I,e,176,2,5864.299999952316,907172.2000000477,8036,WL,C,9.0
7,41.82100009918213,immed,18178.99990081787,Fri Aug 15 2025 10:46:27 GMT-0500 (Central Daylight Time),913436.8000000119,A,queen,I,n,393,2,6264.599999964237,907172.2000000477,8036,WL,C,9.0
7,43.12000012397766,immed,16879.99987602234,Fri Aug 15 2025 10:46:27 GMT-0500 (Central Daylight Time),914736.1000000238,A,queenenter,I,enter,1280,2,7563.899999976158,907172.2000000477,8036,WL,C,9.0
7,52.43400001525879,immed,7565.999984741211,Fri Aug 15 2025 10:46:27 GMT-0500 (Central Daylight Time),924050.0,A,b,I,b,9302,2,9313.5,914736.5,8036,WL,C,10.0
7,53.01699995994568,immed,6983.000040054321,Fri Aug 15 2025 10:46:27 GMT-0500 (Central Daylight Time),924633.3000000119,A,bo,I,o,571,2,9896.800000011921,914736.5,8036,WL,C,10.0
7,53.31700015068054,immed,6682.999849319458,Fri Aug 15 2025 10:46:27 GMT-0500 (Central Daylight Time),924933.1000000238,A,bod,I,d,284,2,10196.600000023842,914736.5,8036,WL,C,10.0
7,53.53400015830994,immed,6465.9998416900635,Fri Aug 15 2025 10:46:27 GMT-0500 (Central Daylight Time),925149.8000000119,A,body,I,y,200,2,10413.300000011921,914736.5,8036,WL,C,10.0
7,54.56599998474121,immed,5434.000015258789,Fri Aug 15 2025 10:46:27 GMT-0500 (Central Daylight Time),926182.6000000238,A,bodyenter,I,enter,1024,2,11446.100000023842,914736.5,8036,WL,C,10.0
7,60.01699995994568,immed,-16.99995994567871,Fri Aug 15 2025 10:46:27 GMT-0500 (Central Daylight Time),931632.7000000477,A,None,I,None,5446,2,5449.800000011921,926182.9000000358,8036,WL,C,11.0
