block_c,block_dur,condition,countdown,datetime,endtime,list,multichar_response,project,response,response_time,session_number,start_end,starttime,subject_id,task,task_vers,trial
,,,,Wed Jan 07 2026 09:42:03 GMT-0600 (Central Standard Time),,,,I,space,589,3,,,8036,WL,B,
prac,,0,,Wed Jan 07 2026 09:42:03 GMT-0600 (Central Standard Time),,NA,b,I,b,8350,3,,,8036,WL,B,1.0
prac,,0,,Wed Jan 07 2026 09:42:03 GMT-0600 (Central Standard Time),,NA,bo,I,o,718,3,,,8036,WL,B,1.0
prac,,0,,Wed Jan 07 2026 09:42:03 GMT-0600 (Central Standard Time),,NA,boo,I,o,185,3,,,8036,WL,B,1.0
prac,,0,,Wed Jan 07 2026 09:42:03 GMT-0600 (Central Standard Time),,NA,boos,I,s,176,3,,,8036,WL,B,1.0
prac,,0,,Wed Jan 07 2026 09:42:03 GMT-0600 (Central Standard Time),,NA,boost,I,t,378,3,,,8036,WL,B,1.0
prac,,0,,Wed Jan 07 2026 09:42:03 GMT-0600 (Central Standard Time),,NA,boostenter,I,enter,1946,3,,,8036,WL,B,1.0
1,2.9649999141693115,learn,57035.00008583069,Wed Jan 07 2026 09:42:03 GMT-0600 (Central Standard Time),113771.0,A,s,I,s,2959,3,2965.0999999046326,110805.90000009537,8036,WL,B,1.0
1,3.4149999618530273,learn,56585.00003814697,Wed Jan 07 2026 09:42:03 GMT-0600 (Central Standard Time),114221.0,A,st,I,t,430,3,3415.0999999046326,110805.90000009537,8036,WL,B,1.0
1,3.697999954223633,learn,56302.00004577637,Wed Jan 07 2026 09:42:03 GMT-0600 (Central Standard Time),114504.20000004768,A,str,I,r,264,3,3698.2999999523163,110805.90000009537,8036,WL,B,1.0
1,3.9809999465942383,learn,56019.00005340576,Wed Jan 07 2026 09:42:03 GMT-0600 (Central Standard Time),114787.10000002384,A,stre,I,e,268,3,3981.1999999284744,110805.90000009537,8036,WL,B,1.0
1,4.199000120162964,learn,55800.999879837036,Wed Jan 07 2026 09:42:03 GMT-0600 (Central Standard Time),115004.60000002384,A,stree,I,e,201,3,4198.699999928474,110805.90000009537,8036,WL,B,1.0
1,4.496999979019165,learn,55503.000020980835,Wed Jan 07 2026 09:42:03 GMT-0600 (Central Standard Time),115304.5,A,street,I,t,288,3,4498.599999904633,110805.90000009537,8036,WL,B,1.0
1,5.86299991607666,learn,54137.00008392334,Wed Jan 07 2026 09:42:03 GMT-0600 (Central Standard Time),116670.10000002384,A,streetenter,I,enter,1349,3,5864.199999928474,110805.90000009537,8036,WL,B,1.0
1,7.163000106811523,learn,52836.99989318848,Wed Jan 07 2026 09:42:03 GMT-0600 (Central Standard Time),117969.70000004768,A,c,I,c,1286,3,1298.8999999761581,116670.80000007153,8036,WL,B,2.0
1,7.446000099182129,learn,52553.99990081787,Wed Jan 07 2026 09:42:03 GMT-0600 (Central Standard Time),118252.80000007153,A,ca,I,a,275,3,1582.0,116670.80000007153,8036,WL,B,2.0
1,7.678999900817871,learn,52321.00009918213,Wed Jan 07 2026 09:42:03 GMT-0600 (Central Standard Time),118486.10000002384,A,cab,I,b,216,3,1815.2999999523163,116670.80000007153,8036,WL,B,2.0
1,7.996000051498413,learn,52003.99994850159,Wed Jan 07 2026 09:42:03 GMT-0600 (Central Standard Time),118802.90000009537,A,cabi,I,i,311,3,2132.100000023842,116670.80000007153,8036,WL,B,2.0
1,8.246000051498413,learn,51753.99994850159,Wed Jan 07 2026 09:42:03 GMT-0600 (Central Standard Time),119052.60000002384,A,cabin,I,n,235,3,2381.7999999523163,116670.80000007153,8036,WL,B,2.0
1,9.328999996185303,learn,50671.0000038147,Wed Jan 07 2026 09:42:03 GMT-0600 (Central Standard Time),120135.70000004768,A,cabinenter,I,enter,1064,3,3464.899999976158,116670.80000007153,8036,WL,B,2.0
1,11.07800006866455,learn,48921.99993133545,Wed Jan 07 2026 09:42:03 GMT-0600 (Central Standard Time),121885.40000009537,A,f,I,f,1742,3,1749.2000000476837,120136.20000004768,8036,WL,B,3.0
1,11.312000036239624,learn,48687.999963760376,Wed Jan 07 2026 09:42:03 GMT-0600 (Central Standard Time),122118.5,A,fi,I,i,223,3,1982.2999999523163,120136.20000004768,8036,WL,B,3.0
1,11.444999933242798,learn,48555.0000667572,Wed Jan 07 2026 09:42:03 GMT-0600 (Central Standard Time),122251.80000007153,A,fir,I,r,125,3,2115.600000023842,120136.20000004768,8036,WL,B,3.0
1,11.745000123977661,learn,48254.99987602234,Wed Jan 07 2026 09:42:03 GMT-0600 (Central Standard Time),122551.70000004768,A,fire,I,e,289,3,2415.5,120136.20000004768,8036,WL,B,3.0
1,13.526999950408936,learn,46473.000049591064,Wed Jan 07 2026 09:42:03 GMT-0600 (Central Standard Time),124334.30000007153,A,fireenter,I,enter,1765,3,4198.100000023842,120136.20000004768,8036,WL,B,3.0
1,17.026000022888184,learn,42973.99997711182,Wed Jan 07 2026 09:42:03 GMT-0600 (Central Standard Time),127833.20000004768,A,c,I,c,3487,3,3498.600000023842,124334.60000002384,8036,WL,B,4.0
1,17.30900001525879,learn,42690.99998474121,Wed Jan 07 2026 09:42:03 GMT-0600 (Central Standard Time),128116.40000009537,A,ca,I,a,277,3,3781.8000000715256,124334.60000002384,8036,WL,B,4.0
1,17.542999982833862,learn,42457.00001716614,Wed Jan 07 2026 09:42:03 GMT-0600 (Central Standard Time),128349.80000007153,A,cab,I,b,224,3,4015.2000000476837,124334.60000002384,8036,WL,B,4.0
1,18.043999910354614,learn,41956.000089645386,Wed Jan 07 2026 09:42:03 GMT-0600 (Central Standard Time),128851.20000004768,A,cabi,I,i,479,3,4516.600000023842,124334.60000002384,8036,WL,B,4.0
1,18.325999975204468,learn,41674.00002479553,Wed Jan 07 2026 09:42:03 GMT-0600 (Central Standard Time),129132.90000009537,A,cabin,I,n,266,3,4798.300000071526,124334.60000002384,8036,WL,B,4.0
1,20.358999967575073,learn,39641.00003242493,Wed Jan 07 2026 09:42:03 GMT-0600 (Central Standard Time),131165.60000002384,A,cabinenter,I,enter,2016,3,6831.0,124334.60000002384,8036,WL,B,4.0
1,21.54200005531311,learn,38457.99994468689,Wed Jan 07 2026 09:42:03 GMT-0600 (Central Standard Time),132348.60000002384,A,l,I,l,1175,3,1182.6000000238419,131166.0,8036,WL,B,5.0
1,21.808000087738037,learn,38191.99991226196,Wed Jan 07 2026 09:42:03 GMT-0600 (Central Standard Time),132615.10000002384,A,la,I,a,249,3,1449.1000000238419,131166.0,8036,WL,B,5.0
1,22.02500009536743,learn,37974.99990463257,Wed Jan 07 2026 09:42:03 GMT-0600 (Central Standard Time),132831.90000009537,A,lak,I,k,206,3,1665.9000000953674,131166.0,8036,WL,B,5.0
1,22.257999897003174,learn,37742.000102996826,Wed Jan 07 2026 09:42:03 GMT-0600 (Central Standard Time),133065.10000002384,A,lake,I,e,220,3,1899.1000000238419,131166.0,8036,WL,B,5.0
1,23.473999977111816,learn,36526.00002288818,Wed Jan 07 2026 09:42:03 GMT-0600 (Central Standard Time),134281.30000007153,A,lakeenter,I,enter,1196,3,3115.3000000715256,131166.0,8036,WL,B,5.0
1,33.50500011444092,learn,26494.999885559082,Wed Jan 07 2026 09:42:03 GMT-0600 (Central Standard Time),144311.70000004768,A,c,I,c,10021,3,10030.0,134281.70000004768,8036,WL,B,6.0
1,33.83800005912781,learn,26161.999940872192,Wed Jan 07 2026 09:42:03 GMT-0600 (Central Standard Time),144644.80000007153,A,ci,I,i,325,3,10363.100000023842,134281.70000004768,8036,WL,B,6.0
1,34.08800005912781,learn,25911.999940872192,Wed Jan 07 2026 09:42:03 GMT-0600 (Central Standard Time),144894.70000004768,A,cit,I,t,240,3,10613.0,134281.70000004768,8036,WL,B,6.0
1,34.37100005149841,learn,25628.999948501587,Wed Jan 07 2026 09:42:03 GMT-0600 (Central Standard Time),145178.10000002384,A,city,I,y,262,3,10896.399999976158,134281.70000004768,8036,WL,B,6.0
1,35.63700008392334,learn,24362.99991607666,Wed Jan 07 2026 09:42:03 GMT-0600 (Central Standard Time),146444.40000009537,A,cityenter,I,enter,1259,3,12162.700000047684,134281.70000004768,8036,WL,B,6.0
1,60.01300001144409,learn,-13.000011444091797,Wed Jan 07 2026 09:42:03 GMT-0600 (Central Standard Time),170820.0,A,None,I,None,24369,3,24375.299999952316,146444.70000004768,8036,WL,B,7.0
2,1.7330000400543213,learn,58266.99995994568,Wed Jan 07 2026 09:42:03 GMT-0600 (Central Standard Time),241364.30000007153,A,c,I,c,1718,3,1732.6000000238419,239631.70000004768,8036,WL,B,1.0
2,1.999000072479248,learn,58000.99992752075,Wed Jan 07 2026 09:42:03 GMT-0600 (Central Standard Time),241630.40000009537,A,cl,I,l,254,3,1998.7000000476837,239631.70000004768,8036,WL,B,1.0
2,2.933000087738037,learn,57066.99991226196,Wed Jan 07 2026 09:42:03 GMT-0600 (Central Standard Time),242563.90000009537,A,clo,I,o,919,3,2932.2000000476837,239631.70000004768,8036,WL,B,1.0
2,3.3329999446868896,learn,56667.00005531311,Wed Jan 07 2026 09:42:03 GMT-0600 (Central Standard Time),242964.0,A,cloc,I,c,393,3,3332.2999999523163,239631.70000004768,8036,WL,B,1.0
2,3.565999984741211,learn,56434.00001525879,Wed Jan 07 2026 09:42:03 GMT-0600 (Central Standard Time),243196.80000007153,A,clock,I,k,217,3,3565.100000023842,239631.70000004768,8036,WL,B,1.0
2,4.749000072479248,learn,55250.99992752075,Wed Jan 07 2026 09:42:03 GMT-0600 (Central Standard Time),244380.20000004768,A,clockenter,I,enter,1169,3,4748.5,239631.70000004768,8036,WL,B,1.0
2,5.216000080108643,learn,54783.99991989136,Wed Jan 07 2026 09:42:03 GMT-0600 (Central Standard Time),244846.70000004768,A,s,I,s,457,3,466.10000002384186,244380.60000002384,8036,WL,B,2.0
2,5.516000032424927,learn,54483.99996757507,Wed Jan 07 2026 09:42:03 GMT-0600 (Central Standard Time),245146.5,A,st,I,t,287,3,765.8999999761581,244380.60000002384,8036,WL,B,2.0
2,5.765000104904175,learn,54234.999895095825,Wed Jan 07 2026 09:42:03 GMT-0600 (Central Standard Time),245396.5,A,str,I,r,235,3,1015.8999999761581,244380.60000002384,8036,WL,B,2.0
2,6.115000009536743,learn,53884.99999046326,Wed Jan 07 2026 09:42:03 GMT-0600 (Central Standard Time),245746.20000004768,A,stre,I,e,329,3,1365.6000000238419,244380.60000002384,8036,WL,B,2.0
2,6.315000057220459,learn,53684.99994277954,Wed Jan 07 2026 09:42:03 GMT-0600 (Central Standard Time),245946.20000004768,A,stree,I,e,179,3,1565.6000000238419,244380.60000002384,8036,WL,B,2.0
2,6.615000009536743,learn,53384.99999046326,Wed Jan 07 2026 09:42:03 GMT-0600 (Central Standard Time),246246.30000007153,A,street,I,t,292,3,1865.7000000476837,244380.60000002384,8036,WL,B,2.0
2,8.265000104904175,learn,51734.999895095825,Wed Jan 07 2026 09:42:03 GMT-0600 (Central Standard Time),247896.10000002384,A,streetenter,I,enter,1632,3,3515.5,244380.60000002384,8036,WL,B,2.0
2,9.430999994277954,learn,50569.000005722046,Wed Jan 07 2026 09:42:03 GMT-0600 (Central Standard Time),249062.0,A,c,I,c,1158,3,1165.5,247896.5,8036,WL,B,3.0
2,9.71399998664856,learn,50286.00001335144,Wed Jan 07 2026 09:42:03 GMT-0600 (Central Standard Time),249345.5,A,ca,I,a,271,3,1449.0,247896.5,8036,WL,B,3.0
2,10.07200002670288,learn,49927.99997329712,Wed Jan 07 2026 09:42:03 GMT-0600 (Central Standard Time),249703.5,A,cab,I,b,353,3,1807.0,247896.5,8036,WL,B,3.0
2,10.746999979019165,learn,49253.000020980835,Wed Jan 07 2026 09:42:03 GMT-0600 (Central Standard Time),250378.40000009537,A,cabi,I,i,653,3,2481.9000000953674,247896.5,8036,WL,B,3.0
2,11.080000162124634,learn,48919.999837875366,Wed Jan 07 2026 09:42:03 GMT-0600 (Central Standard Time),250711.5,A,cabin,I,n,323,3,2815.0,247896.5,8036,WL,B,3.0
2,12.064000129699707,learn,47935.99987030029,Wed Jan 07 2026 09:42:03 GMT-0600 (Central Standard Time),251694.60000002384,A,cabinenter,I,enter,975,3,3798.100000023842,247896.5,8036,WL,B,3.0
2,13.046000003814697,learn,46953.9999961853,Wed Jan 07 2026 09:42:03 GMT-0600 (Central Standard Time),252677.5,A,l,I,l,974,3,982.5999999046326,251694.90000009537,8036,WL,B,4.0
2,13.330000162124634,learn,46669.999837875366,Wed Jan 07 2026 09:42:03 GMT-0600 (Central Standard Time),252960.90000009537,A,la,I,a,272,3,1266.0,251694.90000009537,8036,WL,B,4.0
2,13.595999956130981,learn,46404.00004386902,Wed Jan 07 2026 09:42:03 GMT-0600 (Central Standard Time),253227.40000009537,A,lak,I,k,261,3,1532.5,251694.90000009537,8036,WL,B,4.0
2,13.896000146865845,learn,46103.999853134155,Wed Jan 07 2026 09:42:03 GMT-0600 (Central Standard Time),253527.30000007153,A,lake,I,e,282,3,1832.3999999761581,251694.90000009537,8036,WL,B,4.0
2,14.878999948501587,learn,45121.00005149841,Wed Jan 07 2026 09:42:03 GMT-0600 (Central Standard Time),254510.30000007153,A,lakeenter,I,enter,974,3,2815.399999976158,251694.90000009537,8036,WL,B,4.0
2,15.246000051498413,learn,44753.99994850159,Wed Jan 07 2026 09:42:03 GMT-0600 (Central Standard Time),254876.80000007153,A,a,I,a,351,3,366.10000002384186,254510.70000004768,8036,WL,B,5.0
2,15.611999988555908,learn,44388.00001144409,Wed Jan 07 2026 09:42:03 GMT-0600 (Central Standard Time),255243.10000002384,A,ar,I,r,352,3,732.3999999761581,254510.70000004768,8036,WL,B,5.0
2,15.979000091552734,learn,44020.999908447266,Wed Jan 07 2026 09:42:03 GMT-0600 (Central Standard Time),255610.0,A,arm,I,m,346,3,1099.2999999523163,254510.70000004768,8036,WL,B,5.0
2,17.312000036239624,learn,42687.999963760376,Wed Jan 07 2026 09:42:03 GMT-0600 (Central Standard Time),256942.70000004768,A,armenter,I,enter,1315,3,2432.0,254510.70000004768,8036,WL,B,5.0
2,18.295000076293945,learn,41704.999923706055,Wed Jan 07 2026 09:42:03 GMT-0600 (Central Standard Time),257925.90000009537,A,s,I,s,974,3,982.8000000715256,256943.10000002384,8036,WL,B,6.0
2,18.611999988555908,learn,41388.00001144409,Wed Jan 07 2026 09:42:03 GMT-0600 (Central Standard Time),258242.90000009537,A,sk,I,k,296,3,1299.8000000715256,256943.10000002384,8036,WL,B,6.0
2,18.861000061035156,learn,41138.999938964844,Wed Jan 07 2026 09:42:03 GMT-0600 (Central Standard Time),258492.40000009537,A,ski,I,i,244,3,1549.3000000715256,256943.10000002384,8036,WL,B,6.0
2,19.111000061035156,learn,40888.999938964844,Wed Jan 07 2026 09:42:03 GMT-0600 (Central Standard Time),258742.40000009537,A,skin,I,n,233,3,1799.3000000715256,256943.10000002384,8036,WL,B,6.0
2,20.361000061035156,learn,39638.999938964844,Wed Jan 07 2026 09:42:03 GMT-0600 (Central Standard Time),259992.0,A,skinenter,I,enter,1231,3,3048.899999976158,256943.10000002384,8036,WL,B,6.0
2,22.877000093460083,learn,37122.99990653992,Wed Jan 07 2026 09:42:03 GMT-0600 (Central Standard Time),262507.90000009537,A,c,I,c,2509,3,2515.2000000476837,259992.70000004768,8036,WL,B,7.0
2,23.12600016593933,learn,36873.99983406067,Wed Jan 07 2026 09:42:03 GMT-0600 (Central Standard Time),262757.5,A,ci,I,i,242,3,2764.7999999523163,259992.70000004768,8036,WL,B,7.0
2,23.377000093460083,learn,36622.99990653992,Wed Jan 07 2026 09:42:03 GMT-0600 (Central Standard Time),263007.60000002384,A,cit,I,t,232,3,3014.899999976158,259992.70000004768,8036,WL,B,7.0
2,23.64300012588501,learn,36356.99987411499,Wed Jan 07 2026 09:42:03 GMT-0600 (Central Standard Time),263274.2000000477,A,city,I,y,246,3,3281.5,259992.70000004768,8036,WL,B,7.0
2,25.825999975204468,learn,34174.00002479553,Wed Jan 07 2026 09:42:03 GMT-0600 (Central Standard Time),265457.0,A,cityenter,I,enter,2163,3,5464.299999952316,259992.70000004768,8036,WL,B,7.0
2,29.741000175476074,learn,30258.999824523926,Wed Jan 07 2026 09:42:03 GMT-0600 (Central Standard Time),269372.3000000715,A,c,I,c,3900,3,3915.0,265457.3000000715,8036,WL,B,8.0
2,30.02500009536743,learn,29974.99990463257,Wed Jan 07 2026 09:42:03 GMT-0600 (Central Standard Time),269655.90000009537,A,ca,I,a,273,3,4198.600000023842,265457.3000000715,8036,WL,B,8.0
2,30.241000175476074,learn,29758.999824523926,Wed Jan 07 2026 09:42:03 GMT-0600 (Central Standard Time),269872.10000002384,A,cab,I,b,205,3,4414.799999952316,265457.3000000715,8036,WL,B,8.0
2,30.641000032424927,learn,29358.999967575073,Wed Jan 07 2026 09:42:03 GMT-0600 (Central Standard Time),270272.0,A,cabi,I,i,389,3,4814.699999928474,265457.3000000715,8036,WL,B,8.0
2,30.924000024795532,learn,29075.999975204468,Wed Jan 07 2026 09:42:03 GMT-0600 (Central Standard Time),270555.0,A,cabin,I,n,277,3,5097.699999928474,265457.3000000715,8036,WL,B,8.0
2,32.15700006484985,learn,27842.999935150146,Wed Jan 07 2026 09:42:03 GMT-0600 (Central Standard Time),271788.2000000477,A,cabinenter,I,enter,1219,3,6330.899999976158,265457.3000000715,8036,WL,B,8.0
2,41.187999963760376,learn,18812.000036239624,Wed Jan 07 2026 09:42:03 GMT-0600 (Central Standard Time),280818.60000002384,A,l,I,l,9025,3,9030.0,271788.60000002384,8036,WL,B,9.0
2,42.00399994850159,learn,17996.000051498413,Wed Jan 07 2026 09:42:03 GMT-0600 (Central Standard Time),281635.0,A,la,I,a,803,3,9846.399999976158,271788.60000002384,8036,WL,B,9.0
2,42.271000146865845,learn,17728.999853134155,Wed Jan 07 2026 09:42:03 GMT-0600 (Central Standard Time),281901.7000000477,A,lak,I,k,250,3,10113.100000023842,271788.60000002384,8036,WL,B,9.0
2,42.521000146865845,learn,17478.999853134155,Wed Jan 07 2026 09:42:03 GMT-0600 (Central Standard Time),282151.8000000715,A,lake,I,e,232,3,10363.200000047684,271788.60000002384,8036,WL,B,9.0
2,44.88600015640259,learn,15113.999843597412,Wed Jan 07 2026 09:42:03 GMT-0600 (Central Standard Time),284517.0,A,lakeenter,I,enter,2358,3,12728.399999976158,271788.60000002384,8036,WL,B,9.0
2,47.235000133514404,learn,12764.999866485596,Wed Jan 07 2026 09:42:03 GMT-0600 (Central Standard Time),286866.40000009537,A,p,I,p,2344,3,2349.100000023842,284517.3000000715,8036,WL,B,10.0
2,47.63600015640259,learn,12363.999843597412,Wed Jan 07 2026 09:42:03 GMT-0600 (Central Standard Time),287266.60000002384,A,pi,I,i,387,3,2749.2999999523163,284517.3000000715,8036,WL,B,10.0
2,47.93600010871887,learn,12063.999891281128,Wed Jan 07 2026 09:42:03 GMT-0600 (Central Standard Time),287566.90000009537,A,pip,I,p,284,3,3049.600000023842,284517.3000000715,8036,WL,B,10.0
2,48.235000133514404,learn,11764.999866485596,Wed Jan 07 2026 09:42:03 GMT-0600 (Central Standard Time),287866.5,A,pipe,I,e,287,3,3349.1999999284744,284517.3000000715,8036,WL,B,10.0
2,49.76800012588501,learn,10231.99987411499,Wed Jan 07 2026 09:42:03 GMT-0600 (Central Standard Time),289399.5,A,pipeenter,I,enter,1524,3,4882.199999928474,284517.3000000715,8036,WL,B,10.0
2,60.015000104904175,learn,-15.000104904174805,Wed Jan 07 2026 09:42:03 GMT-0600 (Central Standard Time),299646.2000000477,A,None,I,None,10241,3,10246.299999952316,289399.90000009537,8036,WL,B,11.0
3,3.4160001277923584,learn,56583.99987220764,Wed Jan 07 2026 09:42:03 GMT-0600 (Central Standard Time),369757.60000002384,A,c,I,c,3408,3,3415.1999999284744,366342.40000009537,8036,WL,B,1.0
3,3.6489999294281006,learn,56351.0000705719,Wed Jan 07 2026 09:42:03 GMT-0600 (Central Standard Time),369990.8000000715,A,cl,I,l,224,3,3648.399999976158,366342.40000009537,8036,WL,B,1.0
3,3.9149999618530273,learn,56085.00003814697,Wed Jan 07 2026 09:42:03 GMT-0600 (Central Standard Time),370257.40000009537,A,clo,I,o,247,3,3915.0,366342.40000009537,8036,WL,B,1.0
3,4.148999929428101,learn,55851.0000705719,Wed Jan 07 2026 09:42:03 GMT-0600 (Central Standard Time),370490.60000002384,A,cloc,I,c,220,3,4148.199999928474,366342.40000009537,8036,WL,B,1.0
3,4.381999969482422,learn,55618.00003051758,Wed Jan 07 2026 09:42:03 GMT-0600 (Central Standard Time),370723.8000000715,A,clock,I,k,227,3,4381.399999976158,366342.40000009537,8036,WL,B,1.0
3,5.581000089645386,learn,54418.999910354614,Wed Jan 07 2026 09:42:03 GMT-0600 (Central Standard Time),371923.40000009537,A,clockenter,I,enter,1179,3,5581.0,366342.40000009537,8036,WL,B,1.0
3,6.796999931335449,learn,53203.00006866455,Wed Jan 07 2026 09:42:03 GMT-0600 (Central Standard Time),373139.40000009537,A,f,I,f,1211,3,1215.6000000238419,371923.8000000715,8036,WL,B,2.0
3,7.281000137329102,learn,52718.9998626709,Wed Jan 07 2026 09:42:03 GMT-0600 (Central Standard Time),373623.10000002384,A,fi,I,i,465,3,1699.2999999523163,371923.8000000715,8036,WL,B,2.0
3,7.497999906539917,learn,52502.00009346008,Wed Jan 07 2026 09:42:03 GMT-0600 (Central Standard Time),373839.7000000477,A,fir,I,r,206,3,1915.8999999761581,371923.8000000715,8036,WL,B,2.0
3,7.763999938964844,learn,52236.000061035156,Wed Jan 07 2026 09:42:03 GMT-0600 (Central Standard Time),374106.2000000477,A,fire,I,e,246,3,2182.399999976158,371923.8000000715,8036,WL,B,2.0
3,8.579999923706055,learn,51420.000076293945,Wed Jan 07 2026 09:42:03 GMT-0600 (Central Standard Time),374922.2000000477,A,fireenter,I,enter,812,3,2998.399999976158,371923.8000000715,8036,WL,B,2.0
3,8.996999979019165,learn,51003.000020980835,Wed Jan 07 2026 09:42:03 GMT-0600 (Central Standard Time),375338.90000009537,A,c,I,c,411,3,416.3000000715256,374922.60000002384,8036,WL,B,3.0
3,9.263999938964844,learn,50736.000061035156,Wed Jan 07 2026 09:42:03 GMT-0600 (Central Standard Time),375605.7000000477,A,ci,I,i,258,3,683.1000000238419,374922.60000002384,8036,WL,B,3.0
3,9.52999997138977,learn,50470.00002861023,Wed Jan 07 2026 09:42:03 GMT-0600 (Central Standard Time),375872.10000002384,A,cit,I,t,256,3,949.5,374922.60000002384,8036,WL,B,3.0
3,9.763000011444092,learn,50236.99998855591,Wed Jan 07 2026 09:42:03 GMT-0600 (Central Standard Time),376105.5,A,city,I,y,222,3,1182.8999999761581,374922.60000002384,8036,WL,B,3.0
3,11.180000066757202,learn,48819.9999332428,Wed Jan 07 2026 09:42:03 GMT-0600 (Central Standard Time),377521.60000002384,A,cityenter,I,enter,1396,3,2599.0,374922.60000002384,8036,WL,B,3.0
3,13.196000099182129,learn,46803.99990081787,Wed Jan 07 2026 09:42:03 GMT-0600 (Central Standard Time),379538.2000000477,A,s,I,s,1996,3,2016.2000000476837,377522.0,8036,WL,B,4.0
3,13.812000036239624,learn,46187.999963760376,Wed Jan 07 2026 09:42:03 GMT-0600 (Central Standard Time),380154.10000002384,A,st,I,t,611,3,2632.100000023842,377522.0,8036,WL,B,4.0
3,14.111999988555908,learn,45888.00001144409,Wed Jan 07 2026 09:42:03 GMT-0600 (Central Standard Time),380454.3000000715,A,sta,I,a,291,3,2932.3000000715256,377522.0,8036,WL,B,4.0
3,14.361999988555908,learn,45638.00001144409,Wed Jan 07 2026 09:42:03 GMT-0600 (Central Standard Time),380704.10000002384,A,star,I,r,231,3,3182.100000023842,377522.0,8036,WL,B,4.0
3,15.194999933242798,learn,44805.0000667572,Wed Jan 07 2026 09:42:03 GMT-0600 (Central Standard Time),381537.10000002384,A,starenter,I,enter,811,3,4015.100000023842,377522.0,8036,WL,B,4.0
3,15.84500002861023,learn,44154.99997138977,Wed Jan 07 2026 09:42:03 GMT-0600 (Central Standard Time),382187.10000002384,A,p,I,p,629,3,649.6000000238419,381537.5,8036,WL,B,5.0
3,16.17799997329712,learn,43822.00002670288,Wed Jan 07 2026 09:42:03 GMT-0600 (Central Standard Time),382519.90000009537,A,pi,I,i,322,3,982.4000000953674,381537.5,8036,WL,B,5.0
3,17.01099991798401,learn,42989.00008201599,Wed Jan 07 2026 09:42:03 GMT-0600 (Central Standard Time),383353.10000002384,A,pip,I,p,821,3,1815.6000000238419,381537.5,8036,WL,B,5.0
3,17.311000108718872,learn,42688.99989128113,Wed Jan 07 2026 09:42:03 GMT-0600 (Central Standard Time),383652.90000009537,A,pipe,I,e,293,3,2115.4000000953674,381537.5,8036,WL,B,5.0
3,18.47699999809265,learn,41523.00000190735,Wed Jan 07 2026 09:42:03 GMT-0600 (Central Standard Time),384819.40000009537,A,pipeenter,I,enter,1153,3,3281.9000000953674,381537.5,8036,WL,B,5.0
3,19.844000101089478,learn,40155.99989891052,Wed Jan 07 2026 09:42:03 GMT-0600 (Central Standard Time),386185.7000000477,A,w,I,w,1355,3,1366.1000000238419,384819.60000002384,8036,WL,B,6.0
3,20.210000038146973,learn,39789.99996185303,Wed Jan 07 2026 09:42:03 GMT-0600 (Central Standard Time),386552.40000009537,A,wi,I,i,356,3,1732.8000000715256,384819.60000002384,8036,WL,B,6.0
3,20.47699999809265,learn,39523.00000190735,Wed Jan 07 2026 09:42:03 GMT-0600 (Central Standard Time),386818.90000009537,A,win,I,n,253,3,1999.3000000715256,384819.60000002384,8036,WL,B,6.0
3,20.759999990463257,learn,39240.00000953674,Wed Jan 07 2026 09:42:03 GMT-0600 (Central Standard Time),387101.90000009537,A,wind,I,d,275,3,2282.3000000715256,384819.60000002384,8036,WL,B,6.0
3,21.05999994277954,learn,38940.00005722046,Wed Jan 07 2026 09:42:03 GMT-0600 (Central Standard Time),387402.10000002384,A,windo,I,o,295,3,2582.5,384819.60000002384,8036,WL,B,6.0
3,21.377000093460083,learn,38622.99990653992,Wed Jan 07 2026 09:42:03 GMT-0600 (Central Standard Time),387718.90000009537,A,window,I,w,309,3,2899.3000000715256,384819.60000002384,8036,WL,B,6.0
3,22.509999990463257,learn,37490.00000953674,Wed Jan 07 2026 09:42:03 GMT-0600 (Central Standard Time),388851.7000000477,A,windowenter,I,enter,1119,3,4032.100000023842,384819.60000002384,8036,WL,B,6.0
3,23.992000102996826,learn,36007.999897003174,Wed Jan 07 2026 09:42:03 GMT-0600 (Central Standard Time),390334.5,A,p,I,p,1474,3,1482.5,388852.0,8036,WL,B,7.0
3,24.39199995994568,learn,35608.00004005432,Wed Jan 07 2026 09:42:03 GMT-0600 (Central Standard Time),390734.40000009537,A,pi,I,i,383,3,1882.4000000953674,388852.0,8036,WL,B,7.0
3,24.944000005722046,learn,35055.999994277954,Wed Jan 07 2026 09:42:03 GMT-0600 (Central Standard Time),391286.40000009537,A,pip,I,p,543,3,2434.4000000953674,388852.0,8036,WL,B,7.0
3,25.35800004005432,learn,34641.99995994568,Wed Jan 07 2026 09:42:03 GMT-0600 (Central Standard Time),391700.40000009537,A,pipe,I,e,406,3,2848.4000000953674,388852.0,8036,WL,B,7.0
3,26.02500009536743,learn,33974.99990463257,Wed Jan 07 2026 09:42:03 GMT-0600 (Central Standard Time),392367.10000002384,A,pipeenter,I,enter,649,3,3515.100000023842,388852.0,8036,WL,B,7.0
3,27.308000087738037,learn,32691.999912261963,Wed Jan 07 2026 09:42:03 GMT-0600 (Central Standard Time),393649.8000000715,A,l,I,l,1263,3,1282.3999999761581,392367.40000009537,8036,WL,B,8.0
3,27.52500009536743,learn,32474.99990463257,Wed Jan 07 2026 09:42:03 GMT-0600 (Central Standard Time),393866.8000000715,A,la,I,a,203,3,1499.3999999761581,392367.40000009537,8036,WL,B,8.0
3,27.758000135421753,learn,32241.999864578247,Wed Jan 07 2026 09:42:03 GMT-0600 (Central Standard Time),394100.3000000715,A,lak,I,k,219,3,1732.8999999761581,392367.40000009537,8036,WL,B,8.0
3,28.0239999294281,learn,31976.0000705719,Wed Jan 07 2026 09:42:03 GMT-0600 (Central Standard Time),394366.3000000715,A,lake,I,e,257,3,1998.8999999761581,392367.40000009537,8036,WL,B,8.0
3,28.824000120162964,learn,31175.999879837036,Wed Jan 07 2026 09:42:03 GMT-0600 (Central Standard Time),395166.40000009537,A,lakeenter,I,enter,783,3,2799.0,392367.40000009537,8036,WL,B,8.0
3,29.490999937057495,learn,30509.000062942505,Wed Jan 07 2026 09:42:03 GMT-0600 (Central Standard Time),395832.8000000715,A,c,I,c,656,3,666.2000000476837,395166.60000002384,8036,WL,B,9.0
3,29.85700011253357,learn,30142.99988746643,Wed Jan 07 2026 09:42:03 GMT-0600 (Central Standard Time),396199.3000000715,A,ca,I,a,357,3,1032.7000000476837,395166.60000002384,8036,WL,B,9.0
3,30.10700011253357,learn,29892.99988746643,Wed Jan 07 2026 09:42:03 GMT-0600 (Central Standard Time),396449.3000000715,A,cab,I,b,230,3,1282.7000000476837,395166.60000002384,8036,WL,B,9.0
3,30.556999921798706,learn,29443.000078201294,Wed Jan 07 2026 09:42:03 GMT-0600 (Central Standard Time),396898.8000000715,A,cabi,I,i,436,3,1732.2000000476837,395166.60000002384,8036,WL,B,9.0
3,30.822999954223633,learn,29177.000045776367,Wed Jan 07 2026 09:42:03 GMT-0600 (Central Standard Time),397165.40000009537,A,cabin,I,n,258,3,1998.8000000715256,395166.60000002384,8036,WL,B,9.0
3,32.02300000190735,learn,27976.99999809265,Wed Jan 07 2026 09:42:03 GMT-0600 (Central Standard Time),398365.3000000715,A,cabinenter,I,enter,1184,3,3198.7000000476837,395166.60000002384,8036,WL,B,9.0
3,33.289000034332275,learn,26710.999965667725,Wed Jan 07 2026 09:42:03 GMT-0600 (Central Standard Time),399631.60000002384,A,s,I,s,1248,3,1266.0,398365.60000002384,8036,WL,B,10.0
3,33.57200002670288,learn,26427.99997329712,Wed Jan 07 2026 09:42:03 GMT-0600 (Central Standard Time),399914.40000009537,A,st,I,t,277,3,1548.8000000715256,398365.60000002384,8036,WL,B,10.0
3,33.83899998664856,learn,26161.00001335144,Wed Jan 07 2026 09:42:03 GMT-0600 (Central Standard Time),400181.5,A,str,I,r,250,3,1815.8999999761581,398365.60000002384,8036,WL,B,10.0
3,34.138999938964844,learn,25861.000061035156,Wed Jan 07 2026 09:42:03 GMT-0600 (Central Standard Time),400481.40000009537,A,stre,I,e,288,3,2115.8000000715256,398365.60000002384,8036,WL,B,10.0
3,34.37299990653992,learn,25627.000093460083,Wed Jan 07 2026 09:42:03 GMT-0600 (Central Standard Time),400714.7000000477,A,stree,I,e,228,3,2349.100000023842,398365.60000002384,8036,WL,B,10.0
3,34.706000089645386,learn,25293.999910354614,Wed Jan 07 2026 09:42:03 GMT-0600 (Central Standard Time),401047.90000009537,A,street,I,t,323,3,2682.3000000715256,398365.60000002384,8036,WL,B,10.0
3,35.98799991607666,learn,24012.00008392334,Wed Jan 07 2026 09:42:03 GMT-0600 (Central Standard Time),402330.40000009537,A,streetenter,I,enter,1278,3,3964.8000000715256,398365.60000002384,8036,WL,B,10.0
3,39.7039999961853,learn,20296.000003814697,Wed Jan 07 2026 09:42:03 GMT-0600 (Central Standard Time),406046.2000000477,A,g,I,g,3707,3,3715.5,402330.7000000477,8036,WL,B,11.0
3,39.937000036239624,learn,20062.999963760376,Wed Jan 07 2026 09:42:03 GMT-0600 (Central Standard Time),406279.40000009537,A,gr,I,r,223,3,3948.7000000476837,402330.7000000477,8036,WL,B,11.0
3,40.28699994087219,learn,19713.000059127808,Wed Jan 07 2026 09:42:03 GMT-0600 (Central Standard Time),406629.10000002384,A,gra,I,a,334,3,4298.399999976158,402330.7000000477,8036,WL,B,11.0
3,40.670000076293945,learn,19329.999923706055,Wed Jan 07 2026 09:42:03 GMT-0600 (Central Standard Time),407012.5,A,gras,I,s,376,3,4681.799999952316,402330.7000000477,8036,WL,B,11.0
3,41.30400013923645,learn,18695.99986076355,Wed Jan 07 2026 09:42:03 GMT-0600 (Central Standard Time),407645.7000000477,A,grass,I,s,617,3,5315.0,402330.7000000477,8036,WL,B,11.0
3,42.37000012397766,learn,17629.99987602234,Wed Jan 07 2026 09:42:03 GMT-0600 (Central Standard Time),408711.8000000715,A,grassenter,I,enter,1048,3,6381.100000023842,402330.7000000477,8036,WL,B,11.0
3,43.8199999332428,learn,16180.000066757202,Wed Jan 07 2026 09:42:03 GMT-0600 (Central Standard Time),410161.8000000715,A,w,I,w,1430,3,1449.7000000476837,408712.10000002384,8036,WL,B,12.0
3,44.168999910354614,learn,15831.000089645386,Wed Jan 07 2026 09:42:03 GMT-0600 (Central Standard Time),410511.3000000715,A,wi,I,i,339,3,1799.2000000476837,408712.10000002384,8036,WL,B,12.0
3,44.38599991798401,learn,15614.000082015991,Wed Jan 07 2026 09:42:03 GMT-0600 (Central Standard Time),410727.8000000715,A,wif,I,f,206,3,2015.7000000476837,408712.10000002384,8036,WL,B,12.0
3,44.63599991798401,learn,15364.000082015991,Wed Jan 07 2026 09:42:03 GMT-0600 (Central Standard Time),410978.0,A,wife,I,e,246,3,2265.899999976158,408712.10000002384,8036,WL,B,12.0
3,45.96900010108948,learn,14030.999898910522,Wed Jan 07 2026 09:42:03 GMT-0600 (Central Standard Time),412311.10000002384,A,wifeenter,I,enter,1324,3,3599.0,408712.10000002384,8036,WL,B,12.0
3,50.25,learn,9750.0,Wed Jan 07 2026 09:42:03 GMT-0600 (Central Standard Time),416592.8000000715,A,s,I,s,4262,3,4281.399999976158,412311.40000009537,8036,WL,B,13.0
3,50.549999952316284,learn,9450.000047683716,Wed Jan 07 2026 09:42:03 GMT-0600 (Central Standard Time),416892.7000000477,A,st,I,t,293,3,4581.299999952316,412311.40000009537,8036,WL,B,13.0
3,51.23300004005432,learn,8766.999959945679,Wed Jan 07 2026 09:42:03 GMT-0600 (Central Standard Time),417576.0,A,sta,I,a,665,3,5264.599999904633,412311.40000009537,8036,WL,B,13.0
3,51.5,learn,8500.0,Wed Jan 07 2026 09:42:03 GMT-0600 (Central Standard Time),417842.3000000715,A,star,I,r,253,3,5530.899999976158,412311.40000009537,8036,WL,B,13.0
3,53.68300008773804,learn,6316.999912261963,Wed Jan 07 2026 09:42:03 GMT-0600 (Central Standard Time),420025.3000000715,A,starenter,I,enter,2171,3,7713.899999976158,412311.40000009537,8036,WL,B,13.0
3,57.98099994659424,learn,2019.0000534057617,Wed Jan 07 2026 09:42:03 GMT-0600 (Central Standard Time),424323.7000000477,A,a,I,a,4284,3,4298.0,420025.7000000477,8036,WL,B,14.0
3,58.31400012969971,learn,1685.999870300293,Wed Jan 07 2026 09:42:03 GMT-0600 (Central Standard Time),424656.90000009537,A,ar,I,r,321,3,4631.200000047684,420025.7000000477,8036,WL,B,14.0
3,58.914000034332275,learn,1085.9999656677246,Wed Jan 07 2026 09:42:03 GMT-0600 (Central Standard Time),425256.5,A,arm,I,m,579,3,5230.799999952316,420025.7000000477,8036,WL,B,14.0
3,60.013999938964844,learn,-13.99993896484375,Wed Jan 07 2026 09:42:03 GMT-0600 (Central Standard Time),426356.2000000477,A,armNone,I,None,1095,3,6330.5,420025.7000000477,8036,WL,B,14.0
4,1.4660000801086426,learn,58533.99991989136,Wed Jan 07 2026 09:42:03 GMT-0600 (Central Standard Time),497600.90000009537,A,s,I,s,1456,3,1466.1000000238419,496134.8000000715,8036,WL,B,1.0
4,1.749000072479248,learn,58250.99992752075,Wed Jan 07 2026 09:42:03 GMT-0600 (Central Standard Time),497884.0,A,st,I,t,267,3,1749.1999999284744,496134.8000000715,8036,WL,B,1.0
4,2.0820000171661377,learn,57917.99998283386,Wed Jan 07 2026 09:42:03 GMT-0600 (Central Standard Time),498217.10000002384,A,str,I,r,321,3,2082.2999999523163,496134.8000000715,8036,WL,B,1.0
4,2.5490000247955322,learn,57450.99997520447,Wed Jan 07 2026 09:42:03 GMT-0600 (Central Standard Time),498683.90000009537,A,stre,I,e,453,3,2549.100000023842,496134.8000000715,8036,WL,B,1.0
4,2.7319998741149902,learn,57268.00012588501,Wed Jan 07 2026 09:42:03 GMT-0600 (Central Standard Time),498867.0,A,stree,I,e,177,3,2732.1999999284744,496134.8000000715,8036,WL,B,1.0
4,3.6489999294281006,learn,56351.0000705719,Wed Jan 07 2026 09:42:03 GMT-0600 (Central Standard Time),499783.60000002384,A,street,I,t,907,3,3648.7999999523163,496134.8000000715,8036,WL,B,1.0
4,4.5980000495910645,learn,55401.999950408936,Wed Jan 07 2026 09:42:03 GMT-0600 (Central Standard Time),500733.10000002384,A,streetenter,I,enter,934,3,4598.299999952316,496134.8000000715,8036,WL,B,1.0
4,5.330999851226807,learn,54669.00014877319,Wed Jan 07 2026 09:42:03 GMT-0600 (Central Standard Time),501466.3000000715,A,g,I,g,712,3,733.0,500733.3000000715,8036,WL,B,2.0
4,5.5320000648498535,learn,54467.99993515015,Wed Jan 07 2026 09:42:03 GMT-0600 (Central Standard Time),501666.7000000477,A,gr,I,r,195,3,933.3999999761581,500733.3000000715,8036,WL,B,2.0
4,5.830999851226807,learn,54169.00014877319,Wed Jan 07 2026 09:42:03 GMT-0600 (Central Standard Time),501965.90000009537,A,gra,I,a,291,3,1232.6000000238419,500733.3000000715,8036,WL,B,2.0
4,6.230999946594238,learn,53769.00005340576,Wed Jan 07 2026 09:42:03 GMT-0600 (Central Standard Time),502365.90000009537,A,gras,I,s,384,3,1632.6000000238419,500733.3000000715,8036,WL,B,2.0
4,6.398000001907349,learn,53601.99999809265,Wed Jan 07 2026 09:42:03 GMT-0600 (Central Standard Time),502532.5,A,grass,I,s,152,3,1799.1999999284744,500733.3000000715,8036,WL,B,2.0
4,7.497999906539917,learn,52502.00009346008,Wed Jan 07 2026 09:42:03 GMT-0600 (Central Standard Time),503632.40000009537,A,grassenter,I,enter,1081,3,2899.100000023842,500733.3000000715,8036,WL,B,2.0
4,8.180000066757202,learn,51819.9999332428,Wed Jan 07 2026 09:42:03 GMT-0600 (Central Standard Time),504315.3000000715,A,w,I,w,669,3,682.6000000238419,503632.7000000477,8036,WL,B,3.0
4,8.480000019073486,learn,51519.999980926514,Wed Jan 07 2026 09:42:03 GMT-0600 (Central Standard Time),504615.2000000477,A,wi,I,i,290,3,982.5,503632.7000000477,8036,WL,B,3.0
4,8.763999938964844,learn,51236.000061035156,Wed Jan 07 2026 09:42:03 GMT-0600 (Central Standard Time),504898.5,A,win,I,n,270,3,1265.7999999523163,503632.7000000477,8036,WL,B,3.0
4,8.930000066757202,learn,51069.9999332428,Wed Jan 07 2026 09:42:03 GMT-0600 (Central Standard Time),505064.90000009537,A,wind,I,d,146,3,1432.2000000476837,503632.7000000477,8036,WL,B,3.0
4,9.114000082015991,learn,50885.99991798401,Wed Jan 07 2026 09:42:03 GMT-0600 (Central Standard Time),505248.40000009537,A,windo,I,o,173,3,1615.7000000476837,503632.7000000477,8036,WL,B,3.0
4,9.44700002670288,learn,50552.99997329712,Wed Jan 07 2026 09:42:03 GMT-0600 (Central Standard Time),505581.60000002384,A,window,I,w,317,3,1948.8999999761581,503632.7000000477,8036,WL,B,3.0
4,10.546000003814697,learn,49453.9999961853,Wed Jan 07 2026 09:42:03 GMT-0600 (Central Standard Time),506681.40000009537,A,windowenter,I,enter,1080,3,3048.7000000476837,503632.7000000477,8036,WL,B,3.0
4,11.796000003814697,learn,48203.9999961853,Wed Jan 07 2026 09:42:03 GMT-0600 (Central Standard Time),507930.60000002384,A,s,I,s,1244,3,1248.8999999761581,506681.7000000477,8036,WL,B,4.0
4,12.095999956130981,learn,47904.00004386902,Wed Jan 07 2026 09:42:03 GMT-0600 (Central Standard Time),508230.8000000715,A,sk,I,k,291,3,1549.1000000238419,506681.7000000477,8036,WL,B,4.0
4,12.345999956130981,learn,47654.00004386902,Wed Jan 07 2026 09:42:03 GMT-0600 (Central Standard Time),508480.60000002384,A,ski,I,i,239,3,1798.8999999761581,506681.7000000477,8036,WL,B,4.0
4,12.578999996185303,learn,47421.0000038147,Wed Jan 07 2026 09:42:03 GMT-0600 (Central Standard Time),508714.0,A,skin,I,n,221,3,2032.2999999523163,506681.7000000477,8036,WL,B,4.0
4,13.678999900817871,learn,46321.00009918213,Wed Jan 07 2026 09:42:03 GMT-0600 (Central Standard Time),509813.60000002384,A,skinenter,I,enter,1092,3,3131.899999976158,506681.7000000477,8036,WL,B,4.0
4,14.661999940872192,learn,45338.00005912781,Wed Jan 07 2026 09:42:03 GMT-0600 (Central Standard Time),510796.60000002384,A,a,I,a,968,3,982.6000000238419,509814.0,8036,WL,B,5.0
4,14.994999885559082,learn,45005.00011444092,Wed Jan 07 2026 09:42:03 GMT-0600 (Central Standard Time),511129.8000000715,A,ar,I,r,328,3,1315.8000000715256,509814.0,8036,WL,B,5.0
4,15.394999980926514,learn,44605.000019073486,Wed Jan 07 2026 09:42:03 GMT-0600 (Central Standard Time),511529.60000002384,A,arm,I,m,378,3,1715.6000000238419,509814.0,8036,WL,B,5.0
4,16.527999877929688,learn,43472.00012207031,Wed Jan 07 2026 09:42:03 GMT-0600 (Central Standard Time),512662.8000000715,A,armenter,I,enter,1116,3,2848.8000000715256,509814.0,8036,WL,B,5.0
4,17.3439998626709,learn,42656.0001373291,Wed Jan 07 2026 09:42:03 GMT-0600 (Central Standard Time),513478.90000009537,A,l,I,l,799,3,815.8000000715256,512663.10000002384,8036,WL,B,6.0
4,17.5939998626709,learn,42406.0001373291,Wed Jan 07 2026 09:42:03 GMT-0600 (Central Standard Time),513729.0,A,la,I,a,230,3,1065.8999999761581,512663.10000002384,8036,WL,B,6.0
4,17.82699990272522,learn,42173.00009727478,Wed Jan 07 2026 09:42:03 GMT-0600 (Central Standard Time),513962.0,A,lak,I,k,228,3,1298.8999999761581,512663.10000002384,8036,WL,B,6.0
4,18.111000061035156,learn,41888.999938964844,Wed Jan 07 2026 09:42:03 GMT-0600 (Central Standard Time),514245.5,A,lake,I,e,268,3,1582.3999999761581,512663.10000002384,8036,WL,B,6.0
4,18.944000005722046,learn,41055.999994277954,Wed Jan 07 2026 09:42:03 GMT-0600 (Central Standard Time),515078.5,A,lakeenter,I,enter,824,3,2415.399999976158,512663.10000002384,8036,WL,B,6.0
4,20.47699999809265,learn,39523.00000190735,Wed Jan 07 2026 09:42:03 GMT-0600 (Central Standard Time),516611.5,A,c,I,c,1519,3,1532.5999999046326,515078.90000009537,8036,WL,B,7.0
4,20.89299988746643,learn,39107.00011253357,Wed Jan 07 2026 09:42:03 GMT-0600 (Central Standard Time),517028.0,A,ca,I,a,402,3,1949.0999999046326,515078.90000009537,8036,WL,B,7.0
4,21.292999982833862,learn,38707.00001716614,Wed Jan 07 2026 09:42:03 GMT-0600 (Central Standard Time),517427.7000000477,A,cab,I,b,386,3,2348.7999999523163,515078.90000009537,8036,WL,B,7.0
4,21.875999927520752,learn,38124.00007247925,Wed Jan 07 2026 09:42:03 GMT-0600 (Central Standard Time),518010.8000000715,A,cabi,I,i,578,3,2931.899999976158,515078.90000009537,8036,WL,B,7.0
4,22.158999919891357,learn,37841.00008010864,Wed Jan 07 2026 09:42:03 GMT-0600 (Central Standard Time),518294.2000000477,A,cabin,I,n,266,3,3215.2999999523163,515078.90000009537,8036,WL,B,7.0
4,23.491999864578247,learn,36508.00013542175,Wed Jan 07 2026 09:42:03 GMT-0600 (Central Standard Time),519626.90000009537,A,cabinenter,I,enter,1328,3,4548.0,515078.90000009537,8036,WL,B,7.0
4,25.54200005531311,learn,34457.99994468689,Wed Jan 07 2026 09:42:03 GMT-0600 (Central Standard Time),521676.5,A,c,I,c,2034,3,2049.1999999284744,519627.3000000715,8036,WL,B,8.0
4,25.759000062942505,learn,34240.999937057495,Wed Jan 07 2026 09:42:03 GMT-0600 (Central Standard Time),521893.40000009537,A,ci,I,i,201,3,2266.100000023842,519627.3000000715,8036,WL,B,8.0
4,25.990999937057495,learn,34009.000062942505,Wed Jan 07 2026 09:42:03 GMT-0600 (Central Standard Time),522126.3000000715,A,cit,I,t,216,3,2499.0,519627.3000000715,8036,WL,B,8.0
4,26.240999937057495,learn,33759.000062942505,Wed Jan 07 2026 09:42:03 GMT-0600 (Central Standard Time),522376.3000000715,A,city,I,y,231,3,2749.0,519627.3000000715,8036,WL,B,8.0
4,28.240999937057495,learn,31759.000062942505,Wed Jan 07 2026 09:42:03 GMT-0600 (Central Standard Time),524376.0,A,cityenter,I,enter,1981,3,4748.699999928474,519627.3000000715,8036,WL,B,8.0
4,29.341000080108643,learn,30658.999919891357,Wed Jan 07 2026 09:42:03 GMT-0600 (Central Standard Time),525475.5,A,p,I,p,1086,3,1099.2999999523163,524376.2000000477,8036,WL,B,9.0
4,29.707000017166138,learn,30292.999982833862,Wed Jan 07 2026 09:42:03 GMT-0600 (Central Standard Time),525842.1000000238,A,pi,I,i,353,3,1465.8999999761581,524376.2000000477,8036,WL,B,9.0
4,30.006999969482422,learn,29993.000030517578,Wed Jan 07 2026 09:42:03 GMT-0600 (Central Standard Time),526141.9000000954,A,pip,I,p,291,3,1765.7000000476837,524376.2000000477,8036,WL,B,9.0
4,30.277999877929688,learn,29722.000122070312,Wed Jan 07 2026 09:42:03 GMT-0600 (Central Standard Time),526412.9000000954,A,pipe,I,e,267,3,2036.7000000476837,524376.2000000477,8036,WL,B,9.0
4,31.50600004196167,learn,28493.99995803833,Wed Jan 07 2026 09:42:03 GMT-0600 (Central Standard Time),527641.3000000715,A,pipeenter,I,enter,1209,3,3265.100000023842,524376.2000000477,8036,WL,B,9.0
4,32.40599989891052,learn,27594.000101089478,Wed Jan 07 2026 09:42:03 GMT-0600 (Central Standard Time),528540.9000000954,A,p,I,p,892,3,899.3000000715256,527641.6000000238,8036,WL,B,10.0
4,32.85599994659424,learn,27144.00005340576,Wed Jan 07 2026 09:42:03 GMT-0600 (Central Standard Time),528990.9000000954,A,pu,I,u,432,3,1349.3000000715256,527641.6000000238,8036,WL,B,10.0
4,33.58899998664856,learn,26411.00001335144,Wed Jan 07 2026 09:42:03 GMT-0600 (Central Standard Time),529724.1000000238,A,pup,I,p,726,3,2082.5,527641.6000000238,8036,WL,B,10.0
4,33.98900008201599,learn,26010.99991798401,Wed Jan 07 2026 09:42:03 GMT-0600 (Central Standard Time),530123.9000000954,A,pupi,I,i,393,3,2482.3000000715256,527641.6000000238,8036,WL,B,10.0
4,34.5220000743866,learn,25477.999925613403,Wed Jan 07 2026 09:42:03 GMT-0600 (Central Standard Time),530657.1000000238,A,pupil,I,l,513,3,3015.5,527641.6000000238,8036,WL,B,10.0
4,36.43299984931946,learn,23567.000150680542,Wed Jan 07 2026 09:42:03 GMT-0600 (Central Standard Time),532568.2000000477,A,pupilenter,I,enter,1890,3,4926.600000023842,527641.6000000238,8036,WL,B,10.0
4,38.57200002670288,learn,21427.99997329712,Wed Jan 07 2026 09:42:03 GMT-0600 (Central Standard Time),534707.1000000238,A,s,I,s,2122,3,2138.600000023842,532568.5,8036,WL,B,11.0
4,40.8199999332428,learn,19180.000066757202,Wed Jan 07 2026 09:42:03 GMT-0600 (Central Standard Time),536954.9000000954,A,st,I,t,2243,3,4386.400000095367,532568.5,8036,WL,B,11.0
4,41.38700008392334,learn,18612.99991607666,Wed Jan 07 2026 09:42:03 GMT-0600 (Central Standard Time),537521.7000000477,A,sta,I,a,554,3,4953.200000047684,532568.5,8036,WL,B,11.0
4,41.670000076293945,learn,18329.999923706055,Wed Jan 07 2026 09:42:03 GMT-0600 (Central Standard Time),537804.8000000715,A,star,I,r,276,3,5236.300000071526,532568.5,8036,WL,B,11.0
4,43.35199999809265,learn,16648.00000190735,Wed Jan 07 2026 09:42:03 GMT-0600 (Central Standard Time),539487.5,A,starenter,I,enter,1665,3,6919.0,532568.5,8036,WL,B,11.0
4,45.38499999046326,learn,14615.000009536743,Wed Jan 07 2026 09:42:03 GMT-0600 (Central Standard Time),541520.4000000954,A,s,I,s,2022,3,2032.6000000238419,539487.8000000715,8036,WL,B,12.0
4,45.60199999809265,learn,14398.000001907349,Wed Jan 07 2026 09:42:03 GMT-0600 (Central Standard Time),541736.7000000477,A,sk,I,k,196,3,2248.899999976158,539487.8000000715,8036,WL,B,12.0
4,45.85199999809265,learn,14148.000001907349,Wed Jan 07 2026 09:42:03 GMT-0600 (Central Standard Time),541986.8000000715,A,ski,I,i,237,3,2499.0,539487.8000000715,8036,WL,B,12.0
4,46.068000078201294,learn,13931.999921798706,Wed Jan 07 2026 09:42:03 GMT-0600 (Central Standard Time),542203.6000000238,A,skin,I,n,202,3,2715.7999999523163,539487.8000000715,8036,WL,B,12.0
4,47.25099992752075,learn,12749.000072479248,Wed Jan 07 2026 09:42:03 GMT-0600 (Central Standard Time),543386.5,A,skinenter,I,enter,1161,3,3898.6999999284744,539487.8000000715,8036,WL,B,12.0
4,53.8989999294281,learn,6101.000070571899,Wed Jan 07 2026 09:42:03 GMT-0600 (Central Standard Time),550034.4000000954,A,p,I,p,6627,3,6647.600000023842,543386.8000000715,8036,WL,B,13.0
4,54.3989999294281,learn,5601.000070571899,Wed Jan 07 2026 09:42:03 GMT-0600 (Central Standard Time),550534.1000000238,A,pi,I,i,483,3,7147.299999952316,543386.8000000715,8036,WL,B,13.0
4,54.698999881744385,learn,5301.000118255615,Wed Jan 07 2026 09:42:03 GMT-0600 (Central Standard Time),550833.9000000954,A,pip,I,p,279,3,7447.100000023842,543386.8000000715,8036,WL,B,13.0
4,54.91499996185303,learn,5085.000038146973,Wed Jan 07 2026 09:42:03 GMT-0600 (Central Standard Time),551050.5,A,pipe,I,e,211,3,7663.699999928474,543386.8000000715,8036,WL,B,13.0
4,56.56500005722046,learn,3434.999942779541,Wed Jan 07 2026 09:42:03 GMT-0600 (Central Standard Time),552700.0,A,pipeenter,I,enter,1643,3,9313.199999928474,543386.8000000715,8036,WL,B,13.0
4,59.24799990653992,learn,752.000093460083,Wed Jan 07 2026 09:42:03 GMT-0600 (Central Standard Time),555382.7000000477,A,l,I,l,2665,3,2682.399999976158,552700.3000000715,8036,WL,B,14.0
4,59.53099989891052,learn,469.00010108947754,Wed Jan 07 2026 09:42:03 GMT-0600 (Central Standard Time),555665.9000000954,A,la,I,a,271,3,2965.600000023842,552700.3000000715,8036,WL,B,14.0
4,59.73099994659424,learn,269.0000534057617,Wed Jan 07 2026 09:42:03 GMT-0600 (Central Standard Time),555865.7000000477,A,lak,I,k,179,3,3165.399999976158,552700.3000000715,8036,WL,B,14.0
4,60.02499985694885,learn,-24.99985694885254,Wed Jan 07 2026 09:42:03 GMT-0600 (Central Standard Time),556160.3000000715,A,lakNone,I,None,290,3,3460.0,552700.3000000715,8036,WL,B,14.0
5,1.6500000953674316,learn,60000.0,Wed Jan 07 2026 09:42:03 GMT-0600 (Central Standard Time),624894.2000000477,A,c,I,c,1632,3,1649.3999999761581,623244.8000000715,8036,WL,B,1.0
5,1.933000087738037,learn,60000.0,Wed Jan 07 2026 09:42:03 GMT-0600 (Central Standard Time),625177.3000000715,A,ci,I,i,270,3,1932.5,623244.8000000715,8036,WL,B,1.0
5,2.1659998893737793,learn,60000.0,Wed Jan 07 2026 09:42:03 GMT-0600 (Central Standard Time),625410.7000000477,A,cit,I,t,220,3,2165.899999976158,623244.8000000715,8036,WL,B,1.0
5,2.433000087738037,learn,60000.0,Wed Jan 07 2026 09:42:03 GMT-0600 (Central Standard Time),625676.9000000954,A,city,I,y,251,3,2432.100000023842,623244.8000000715,8036,WL,B,1.0
5,3.2160000801086426,learn,60000.0,Wed Jan 07 2026 09:42:03 GMT-0600 (Central Standard Time),626460.3000000715,A,cityenter,I,enter,768,3,3215.5,623244.8000000715,8036,WL,B,1.0
5,4.181999921798706,learn,60000.0,Wed Jan 07 2026 09:42:03 GMT-0600 (Central Standard Time),627426.7000000477,A,f,I,f,954,3,966.1000000238419,626460.6000000238,8036,WL,B,2.0
5,4.499000072479248,learn,60000.0,Wed Jan 07 2026 09:42:03 GMT-0600 (Central Standard Time),627743.2000000477,A,fi,I,i,299,3,1282.6000000238419,626460.6000000238,8036,WL,B,2.0
5,4.799000024795532,learn,60000.0,Wed Jan 07 2026 09:42:03 GMT-0600 (Central Standard Time),628043.3000000715,A,fir,I,r,286,3,1582.7000000476837,626460.6000000238,8036,WL,B,2.0
5,5.049000024795532,learn,60000.0,Wed Jan 07 2026 09:42:03 GMT-0600 (Central Standard Time),628293.4000000954,A,fire,I,e,234,3,1832.8000000715256,626460.6000000238,8036,WL,B,2.0
5,5.631999969482422,learn,60000.0,Wed Jan 07 2026 09:42:03 GMT-0600 (Central Standard Time),628876.3000000715,A,fireenter,I,enter,577,3,2415.7000000476837,626460.6000000238,8036,WL,B,2.0
5,6.398000001907349,learn,60000.0,Wed Jan 07 2026 09:42:03 GMT-0600 (Central Standard Time),629642.7000000477,A,c,I,c,753,3,766.1000000238419,628876.6000000238,8036,WL,B,3.0
5,6.648000001907349,learn,60000.0,Wed Jan 07 2026 09:42:03 GMT-0600 (Central Standard Time),629892.5,A,ca,I,a,235,3,1015.8999999761581,628876.6000000238,8036,WL,B,3.0
5,6.914999961853027,learn,60000.0,Wed Jan 07 2026 09:42:03 GMT-0600 (Central Standard Time),630159.0,A,cab,I,b,249,3,1282.3999999761581,628876.6000000238,8036,WL,B,3.0
5,7.197999954223633,learn,60000.0,Wed Jan 07 2026 09:42:03 GMT-0600 (Central Standard Time),630442.5,A,cabi,I,i,270,3,1565.8999999761581,628876.6000000238,8036,WL,B,3.0
5,7.447999954223633,learn,60000.0,Wed Jan 07 2026 09:42:03 GMT-0600 (Central Standard Time),630692.3000000715,A,cabin,I,n,243,3,1815.7000000476837,628876.6000000238,8036,WL,B,3.0
5,8.497999906539917,learn,60000.0,Wed Jan 07 2026 09:42:03 GMT-0600 (Central Standard Time),631742.0,A,cabinenter,I,enter,1033,3,2865.399999976158,628876.6000000238,8036,WL,B,3.0
5,9.397000074386597,learn,60000.0,Wed Jan 07 2026 09:42:03 GMT-0600 (Central Standard Time),632641.5,A,l,I,l,887,3,899.0999999046326,631742.4000000954,8036,WL,B,4.0
5,9.680999994277954,learn,60000.0,Wed Jan 07 2026 09:42:03 GMT-0600 (Central Standard Time),632925.0,A,la,I,a,267,3,1182.5999999046326,631742.4000000954,8036,WL,B,4.0
5,9.94700002670288,learn,60000.0,Wed Jan 07 2026 09:42:03 GMT-0600 (Central Standard Time),633191.7000000477,A,lak,I,k,249,3,1449.2999999523163,631742.4000000954,8036,WL,B,4.0
5,10.230000019073486,learn,60000.0,Wed Jan 07 2026 09:42:03 GMT-0600 (Central Standard Time),633474.5,A,lake,I,e,278,3,1732.0999999046326,631742.4000000954,8036,WL,B,4.0
5,11.147000074386597,learn,60000.0,Wed Jan 07 2026 09:42:03 GMT-0600 (Central Standard Time),634391.4000000954,A,lakeenter,I,enter,907,3,2649.0,631742.4000000954,8036,WL,B,4.0
5,12.013000011444092,learn,60000.0,Wed Jan 07 2026 09:42:03 GMT-0600 (Central Standard Time),635257.5,A,p,I,p,854,3,865.7999999523163,634391.7000000477,8036,WL,B,5.0
5,12.645999908447266,learn,60000.0,Wed Jan 07 2026 09:42:03 GMT-0600 (Central Standard Time),635890.8000000715,A,pu,I,u,621,3,1499.1000000238419,634391.7000000477,8036,WL,B,5.0
5,13.046000003814697,learn,60000.0,Wed Jan 07 2026 09:42:03 GMT-0600 (Central Standard Time),636290.7000000477,A,pup,I,p,395,3,1899.0,634391.7000000477,8036,WL,B,5.0
5,13.413000106811523,learn,60000.0,Wed Jan 07 2026 09:42:03 GMT-0600 (Central Standard Time),636657.2000000477,A,pupi,I,i,346,3,2265.5,634391.7000000477,8036,WL,B,5.0
5,13.696000099182129,learn,60000.0,Wed Jan 07 2026 09:42:03 GMT-0600 (Central Standard Time),636940.5,A,pupil,I,l,268,3,2548.7999999523163,634391.7000000477,8036,WL,B,5.0
5,14.628999948501587,learn,60000.0,Wed Jan 07 2026 09:42:03 GMT-0600 (Central Standard Time),637873.4000000954,A,pupilenter,I,enter,921,3,3481.7000000476837,634391.7000000477,8036,WL,B,5.0
5,15.84500002861023,learn,60000.0,Wed Jan 07 2026 09:42:03 GMT-0600 (Central Standard Time),639089.8000000715,A,p,I,p,1195,3,1216.1000000238419,637873.7000000477,8036,WL,B,6.0
5,16.562000036239624,learn,60000.0,Wed Jan 07 2026 09:42:03 GMT-0600 (Central Standard Time),639806.2000000477,A,pi,I,i,708,3,1932.5,637873.7000000477,8036,WL,B,6.0
5,17.07800006866455,learn,60000.0,Wed Jan 07 2026 09:42:03 GMT-0600 (Central Standard Time),640322.5,A,pip,I,p,495,3,2448.7999999523163,637873.7000000477,8036,WL,B,6.0
5,17.51099991798401,learn,60000.0,Wed Jan 07 2026 09:42:03 GMT-0600 (Central Standard Time),640755.7000000477,A,pipe,I,e,427,3,2882.0,637873.7000000477,8036,WL,B,6.0
5,18.32800006866455,learn,60000.0,Wed Jan 07 2026 09:42:03 GMT-0600 (Central Standard Time),641572.2000000477,A,pipeenter,I,enter,802,3,3698.5,637873.7000000477,8036,WL,B,6.0
5,18.795000076293945,learn,60000.0,Wed Jan 07 2026 09:42:03 GMT-0600 (Central Standard Time),642039.0,A,s,I,s,449,3,466.39999997615814,641572.6000000238,8036,WL,B,7.0
5,19.09500002861023,learn,60000.0,Wed Jan 07 2026 09:42:03 GMT-0600 (Central Standard Time),642339.7000000477,A,st,I,t,294,3,767.1000000238419,641572.6000000238,8036,WL,B,7.0
5,19.361000061035156,learn,60000.0,Wed Jan 07 2026 09:42:03 GMT-0600 (Central Standard Time),642605.2000000477,A,str,I,r,250,3,1032.6000000238419,641572.6000000238,8036,WL,B,7.0
5,19.64400005340576,learn,60000.0,Wed Jan 07 2026 09:42:03 GMT-0600 (Central Standard Time),642888.7000000477,A,stre,I,e,264,3,1316.1000000238419,641572.6000000238,8036,WL,B,7.0
5,19.844000101089478,learn,60000.0,Wed Jan 07 2026 09:42:03 GMT-0600 (Central Standard Time),643088.6000000238,A,stree,I,e,180,3,1516.0,641572.6000000238,8036,WL,B,7.0
5,20.127000093460083,learn,60000.0,Wed Jan 07 2026 09:42:03 GMT-0600 (Central Standard Time),643371.7000000477,A,street,I,t,269,3,1799.1000000238419,641572.6000000238,8036,WL,B,7.0
5,20.76099991798401,learn,60000.0,Wed Jan 07 2026 09:42:03 GMT-0600 (Central Standard Time),644005.0,A,streetenter,I,enter,625,3,2432.399999976158,641572.6000000238,8036,WL,B,7.0
5,21.259999990463257,learn,60000.0,Wed Jan 07 2026 09:42:03 GMT-0600 (Central Standard Time),644504.3000000715,A,s,I,s,487,3,499.0,644005.3000000715,8036,WL,B,8.0
5,21.526999950408936,learn,60000.0,Wed Jan 07 2026 09:42:03 GMT-0600 (Central Standard Time),644771.0,A,st,I,t,261,3,765.6999999284744,644005.3000000715,8036,WL,B,8.0
5,21.82699990272522,learn,60000.0,Wed Jan 07 2026 09:42:03 GMT-0600 (Central Standard Time),645071.0,A,sta,I,a,290,3,1065.6999999284744,644005.3000000715,8036,WL,B,8.0
5,22.05999994277954,learn,60000.0,Wed Jan 07 2026 09:42:03 GMT-0600 (Central Standard Time),645304.4000000954,A,star,I,r,214,3,1299.1000000238419,644005.3000000715,8036,WL,B,8.0
5,22.842999935150146,learn,60000.0,Wed Jan 07 2026 09:42:03 GMT-0600 (Central Standard Time),646087.7000000477,A,starenter,I,enter,765,3,2082.399999976158,644005.3000000715,8036,WL,B,8.0
5,23.375999927520752,learn,60000.0,Wed Jan 07 2026 09:42:03 GMT-0600 (Central Standard Time),646620.6000000238,A,w,I,w,518,3,532.6000000238419,646088.0,8036,WL,B,9.0
5,24.026000022888184,learn,60000.0,Wed Jan 07 2026 09:42:03 GMT-0600 (Central Standard Time),647270.4000000954,A,wi,I,i,641,3,1182.4000000953674,646088.0,8036,WL,B,9.0
5,24.30999994277954,learn,60000.0,Wed Jan 07 2026 09:42:03 GMT-0600 (Central Standard Time),647554.0,A,win,I,n,262,3,1466.0,646088.0,8036,WL,B,9.0
5,24.55900001525879,learn,60000.0,Wed Jan 07 2026 09:42:03 GMT-0600 (Central Standard Time),647803.6000000238,A,wind,I,d,235,3,1715.6000000238419,646088.0,8036,WL,B,9.0
5,24.842000007629395,learn,60000.0,Wed Jan 07 2026 09:42:03 GMT-0600 (Central Standard Time),648086.8000000715,A,windo,I,o,274,3,1998.8000000715256,646088.0,8036,WL,B,9.0
5,25.14299988746643,learn,60000.0,Wed Jan 07 2026 09:42:03 GMT-0600 (Central Standard Time),648386.9000000954,A,window,I,w,286,3,2298.9000000953674,646088.0,8036,WL,B,9.0
5,26.52500009536743,learn,60000.0,Wed Jan 07 2026 09:42:03 GMT-0600 (Central Standard Time),649769.8000000715,A,windowenter,I,enter,1361,3,3681.8000000715256,646088.0,8036,WL,B,9.0
5,27.95799994468689,learn,60000.0,Wed Jan 07 2026 09:42:03 GMT-0600 (Central Standard Time),651202.4000000954,A,s,I,s,1413,3,1432.3000000715256,649770.1000000238,8036,WL,B,10.0
5,28.157999992370605,learn,60000.0,Wed Jan 07 2026 09:42:03 GMT-0600 (Central Standard Time),651402.7000000477,A,sk,I,k,187,3,1632.6000000238419,649770.1000000238,8036,WL,B,10.0
5,28.424999952316284,learn,60000.0,Wed Jan 07 2026 09:42:03 GMT-0600 (Central Standard Time),651669.0,A,ski,I,i,258,3,1898.8999999761581,649770.1000000238,8036,WL,B,10.0
5,28.69099998474121,learn,60000.0,Wed Jan 07 2026 09:42:03 GMT-0600 (Central Standard Time),651935.8000000715,A,skin,I,n,248,3,2165.7000000476837,649770.1000000238,8036,WL,B,10.0
5,29.825000047683716,learn,60000.0,Wed Jan 07 2026 09:42:03 GMT-0600 (Central Standard Time),653068.9000000954,A,skinenter,I,enter,1118,3,3298.8000000715256,649770.1000000238,8036,WL,B,10.0
5,32.67300009727478,learn,60000.0,Wed Jan 07 2026 09:42:03 GMT-0600 (Central Standard Time),655917.8000000715,A,s,I,s,2841,3,2848.600000023842,653069.2000000477,8036,WL,B,11.0
5,33.12299990653992,learn,60000.0,Wed Jan 07 2026 09:42:03 GMT-0600 (Central Standard Time),656367.7000000477,A,st,I,t,431,3,3298.5,653069.2000000477,8036,WL,B,11.0
5,33.37299990653992,learn,60000.0,Wed Jan 07 2026 09:42:03 GMT-0600 (Central Standard Time),656617.3000000715,A,str,I,r,238,3,3548.100000023842,653069.2000000477,8036,WL,B,11.0
5,33.67300009727478,learn,60000.0,Wed Jan 07 2026 09:42:03 GMT-0600 (Central Standard Time),656917.4000000954,A,stre,I,e,293,3,3848.2000000476837,653069.2000000477,8036,WL,B,11.0
5,33.890000104904175,learn,60000.0,Wed Jan 07 2026 09:42:03 GMT-0600 (Central Standard Time),657134.4000000954,A,stree,I,e,201,3,4065.2000000476837,653069.2000000477,8036,WL,B,11.0
5,34.15599989891052,learn,60000.0,Wed Jan 07 2026 09:42:03 GMT-0600 (Central Standard Time),657400.7000000477,A,street,I,t,255,3,4331.5,653069.2000000477,8036,WL,B,11.0
5,35.18899989128113,learn,60000.0,Wed Jan 07 2026 09:42:03 GMT-0600 (Central Standard Time),658433.6000000238,A,streetenter,I,enter,1013,3,5364.399999976158,653069.2000000477,8036,WL,B,11.0
5,35.67199993133545,learn,60000.0,Wed Jan 07 2026 09:42:03 GMT-0600 (Central Standard Time),658916.8000000715,A,g,I,g,468,3,483.0,658433.8000000715,8036,WL,B,12.0
5,35.97199988365173,learn,60000.0,Wed Jan 07 2026 09:42:03 GMT-0600 (Central Standard Time),659216.8000000715,A,gr,I,r,280,3,783.0,658433.8000000715,8036,WL,B,12.0
5,37.53800010681152,learn,60000.0,Wed Jan 07 2026 09:42:03 GMT-0600 (Central Standard Time),660782.9000000954,A,gra,I,a,1557,3,2349.100000023842,658433.8000000715,8036,WL,B,12.0
5,38.03800010681152,learn,60000.0,Wed Jan 07 2026 09:42:03 GMT-0600 (Central Standard Time),661282.7000000477,A,gras,I,s,487,3,2848.899999976158,658433.8000000715,8036,WL,B,12.0
5,38.25500011444092,learn,60000.0,Wed Jan 07 2026 09:42:03 GMT-0600 (Central Standard Time),661499.4000000954,A,grass,I,s,202,3,3065.600000023842,658433.8000000715,8036,WL,B,12.0
5,39.78800010681152,learn,60000.0,Wed Jan 07 2026 09:42:03 GMT-0600 (Central Standard Time),663032.2000000477,A,grassenter,I,enter,1514,3,4598.399999976158,658433.8000000715,8036,WL,B,12.0
5,41.03699994087219,learn,60000.0,Wed Jan 07 2026 09:42:03 GMT-0600 (Central Standard Time),664281.9000000954,A,d,I,d,1228,3,1249.3000000715256,663032.6000000238,8036,WL,B,13.0
5,41.40400004386902,learn,60000.0,Wed Jan 07 2026 09:42:03 GMT-0600 (Central Standard Time),664648.4000000954,A,do,I,o,347,3,1615.8000000715256,663032.6000000238,8036,WL,B,13.0
5,41.604000091552734,learn,60000.0,Wed Jan 07 2026 09:42:03 GMT-0600 (Central Standard Time),664848.3000000715,A,doo,I,o,189,3,1815.7000000476837,663032.6000000238,8036,WL,B,13.0
5,41.937000036239624,learn,60000.0,Wed Jan 07 2026 09:42:03 GMT-0600 (Central Standard Time),665181.6000000238,A,door,I,r,325,3,2149.0,663032.6000000238,8036,WL,B,13.0
5,43.70300006866455,learn,60000.0,Wed Jan 07 2026 09:42:03 GMT-0600 (Central Standard Time),666947.8000000715,A,doorenter,I,enter,1752,3,3915.2000000476837,663032.6000000238,8036,WL,B,13.0
5,44.80299997329712,learn,60000.0,Wed Jan 07 2026 09:42:03 GMT-0600 (Central Standard Time),668047.2000000477,A,s,I,s,1082,3,1099.2000000476837,666948.0,8036,WL,B,14.0
5,45.151999950408936,learn,60000.0,Wed Jan 07 2026 09:42:03 GMT-0600 (Central Standard Time),668397.0,A,st,I,t,342,3,1449.0,666948.0,8036,WL,B,14.0
5,45.45199990272522,learn,60000.0,Wed Jan 07 2026 09:42:03 GMT-0600 (Central Standard Time),668697.0,A,str,I,r,279,3,1749.0,666948.0,8036,WL,B,14.0
5,45.88599991798401,learn,60000.0,Wed Jan 07 2026 09:42:03 GMT-0600 (Central Standard Time),669130.3000000715,A,stre,I,e,412,3,2182.3000000715256,666948.0,8036,WL,B,14.0
5,46.085999965667725,learn,60000.0,Wed Jan 07 2026 09:42:03 GMT-0600 (Central Standard Time),669330.3000000715,A,stree,I,e,179,3,2382.3000000715256,666948.0,8036,WL,B,14.0
5,46.43600010871887,learn,60000.0,Wed Jan 07 2026 09:42:03 GMT-0600 (Central Standard Time),669680.3000000715,A,street,I,t,331,3,2732.3000000715256,666948.0,8036,WL,B,14.0
5,47.63499999046326,learn,60000.0,Wed Jan 07 2026 09:42:03 GMT-0600 (Central Standard Time),670880.0,A,streetenter,I,enter,1189,3,3932.0,666948.0,8036,WL,B,14.0
5,50.95099997520447,learn,60000.0,Wed Jan 07 2026 09:42:03 GMT-0600 (Central Standard Time),674195.1000000238,A,a,I,a,3300,3,3314.7999999523163,670880.3000000715,8036,WL,B,15.0
5,51.318000078201294,learn,60000.0,Wed Jan 07 2026 09:42:03 GMT-0600 (Central Standard Time),674562.2000000477,A,ar,I,r,346,3,3681.899999976158,670880.3000000715,8036,WL,B,15.0
5,51.95099997520447,learn,60000.0,Wed Jan 07 2026 09:42:03 GMT-0600 (Central Standard Time),675195.1000000238,A,arm,I,m,619,3,4314.799999952316,670880.3000000715,8036,WL,B,15.0
5,53.81599998474121,learn,60000.0,Wed Jan 07 2026 09:42:03 GMT-0600 (Central Standard Time),677061.0,A,armenter,I,enter,1858,3,6180.699999928474,670880.3000000715,8036,WL,B,15.0
6,2.0329999923706055,distr,57967.000007629395,Wed Jan 07 2026 09:42:03 GMT-0600 (Central Standard Time),754920.2000000477,B,a,I,a,2014,3,2032.8999999761581,752887.3000000715,8036,WL,B,1.0
6,2.5,distr,57500.0,Wed Jan 07 2026 09:42:03 GMT-0600 (Central Standard Time),755386.3000000715,B,ar,I,r,460,3,2499.0,752887.3000000715,8036,WL,B,1.0
6,2.9000000953674316,distr,57099.99990463257,Wed Jan 07 2026 09:42:03 GMT-0600 (Central Standard Time),755786.3000000715,B,arm,I,m,379,3,2899.0,752887.3000000715,8036,WL,B,1.0
6,3.3989999294281006,distr,56601.0000705719,Wed Jan 07 2026 09:42:03 GMT-0600 (Central Standard Time),756286.2000000477,B,army,I,y,491,3,3398.899999976158,752887.3000000715,8036,WL,B,1.0
6,4.565999984741211,distr,55434.00001525879,Wed Jan 07 2026 09:42:03 GMT-0600 (Central Standard Time),757452.6000000238,B,armyenter,I,enter,1159,3,4565.299999952316,752887.3000000715,8036,WL,B,1.0
6,4.949000120162964,distr,55050.999879837036,Wed Jan 07 2026 09:42:03 GMT-0600 (Central Standard Time),757835.8000000715,B,c,I,c,377,3,382.89999997615814,757452.9000000954,8036,WL,B,2.0
6,5.232000112533569,distr,54767.99988746643,Wed Jan 07 2026 09:42:03 GMT-0600 (Central Standard Time),758119.1000000238,B,ce,I,e,265,3,666.1999999284744,757452.9000000954,8036,WL,B,2.0
6,5.582000017166138,distr,54417.99998283386,Wed Jan 07 2026 09:42:03 GMT-0600 (Central Standard Time),758468.8000000715,B,cel,I,l,335,3,1015.8999999761581,757452.9000000954,8036,WL,B,2.0
6,5.7820000648498535,distr,54217.99993515015,Wed Jan 07 2026 09:42:03 GMT-0600 (Central Standard Time),758668.7000000477,B,cell,I,l,184,3,1215.7999999523163,757452.9000000954,8036,WL,B,2.0
6,6.431999921798706,distr,53568.000078201294,Wed Jan 07 2026 09:42:03 GMT-0600 (Central Standard Time),759318.6000000238,B,cellenter,I,enter,640,3,1865.6999999284744,757452.9000000954,8036,WL,B,2.0
6,7.365000009536743,distr,52634.99999046326,Wed Jan 07 2026 09:42:03 GMT-0600 (Central Standard Time),760251.9000000954,B,o,I,o,927,3,933.0,759318.9000000954,8036,WL,B,3.0
6,7.648000001907349,distr,52351.99999809265,Wed Jan 07 2026 09:42:03 GMT-0600 (Central Standard Time),760535.1000000238,B,oc,I,c,266,3,1216.1999999284744,759318.9000000954,8036,WL,B,3.0
6,7.930999994277954,distr,52069.000005722046,Wed Jan 07 2026 09:42:03 GMT-0600 (Central Standard Time),760818.0,B,oce,I,e,270,3,1499.0999999046326,759318.9000000954,8036,WL,B,3.0
6,8.248000144958496,distr,51751.999855041504,Wed Jan 07 2026 09:42:03 GMT-0600 (Central Standard Time),761134.9000000954,B,ocea,I,a,299,3,1816.0,759318.9000000954,8036,WL,B,3.0
6,8.54800009727478,distr,51451.99990272522,Wed Jan 07 2026 09:42:03 GMT-0600 (Central Standard Time),761434.4000000954,B,ocean,I,n,295,3,2115.5,759318.9000000954,8036,WL,B,3.0
6,10.147000074386597,distr,49852.9999256134,Wed Jan 07 2026 09:42:03 GMT-0600 (Central Standard Time),763034.2000000477,B,oceanenter,I,enter,1579,3,3715.2999999523163,759318.9000000954,8036,WL,B,3.0
6,11.064000129699707,distr,48935.99987030029,Wed Jan 07 2026 09:42:03 GMT-0600 (Central Standard Time),763951.0,B,r,I,r,899,3,916.5,763034.5,8036,WL,B,4.0
6,11.365000009536743,distr,48634.99999046326,Wed Jan 07 2026 09:42:03 GMT-0600 (Central Standard Time),764251.5,B,ro,I,o,294,3,1217.0,763034.5,8036,WL,B,4.0
6,11.630000114440918,distr,48369.99988555908,Wed Jan 07 2026 09:42:03 GMT-0600 (Central Standard Time),764516.6000000238,B,roc,I,c,257,3,1482.1000000238419,763034.5,8036,WL,B,4.0
6,12.02999997138977,distr,47970.00002861023,Wed Jan 07 2026 09:42:03 GMT-0600 (Central Standard Time),764916.9000000954,B,rock,I,k,385,3,1882.4000000953674,763034.5,8036,WL,B,4.0
6,13.396000146865845,distr,46603.999853134155,Wed Jan 07 2026 09:42:03 GMT-0600 (Central Standard Time),766282.8000000715,B,rockenter,I,enter,1361,3,3248.3000000715256,763034.5,8036,WL,B,4.0
6,19.92799997329712,distr,40072.00002670288,Wed Jan 07 2026 09:42:03 GMT-0600 (Central Standard Time),772814.6000000238,B,o,I,o,6523,3,6531.600000023842,766283.0,8036,WL,B,5.0
6,20.14400005340576,distr,39855.99994659424,Wed Jan 07 2026 09:42:03 GMT-0600 (Central Standard Time),773031.0,B,oc,I,c,198,3,6748.0,766283.0,8036,WL,B,5.0
6,20.42799997329712,distr,39572.00002670288,Wed Jan 07 2026 09:42:03 GMT-0600 (Central Standard Time),773314.3000000715,B,oce,I,e,263,3,7031.300000071526,766283.0,8036,WL,B,5.0
6,20.72699999809265,distr,39273.00000190735,Wed Jan 07 2026 09:42:03 GMT-0600 (Central Standard Time),773614.0,B,ocea,I,a,283,3,7331.0,766283.0,8036,WL,B,5.0
6,21.011000156402588,distr,38988.99984359741,Wed Jan 07 2026 09:42:03 GMT-0600 (Central Standard Time),773897.8000000715,B,ocean,I,n,263,3,7614.800000071526,766283.0,8036,WL,B,5.0
6,22.443000078201294,distr,37556.999921798706,Wed Jan 07 2026 09:42:03 GMT-0600 (Central Standard Time),775330.3000000715,B,oceanenter,I,enter,1428,3,9047.300000071526,766283.0,8036,WL,B,5.0
6,26.192000150680542,distr,33807.99984931946,Wed Jan 07 2026 09:42:03 GMT-0600 (Central Standard Time),779079.1000000238,B,b,I,b,3730,3,3748.5,775330.6000000238,8036,WL,B,6.0
6,26.409000158309937,distr,33590.99984169006,Wed Jan 07 2026 09:42:03 GMT-0600 (Central Standard Time),779296.1000000238,B,ba,I,a,206,3,3965.5,775330.6000000238,8036,WL,B,6.0
6,26.575000047683716,distr,33424.999952316284,Wed Jan 07 2026 09:42:03 GMT-0600 (Central Standard Time),779462.3000000715,B,bab,I,b,157,3,4131.700000047684,775330.6000000238,8036,WL,B,6.0
6,26.924999952316284,distr,33075.000047683716,Wed Jan 07 2026 09:42:03 GMT-0600 (Central Standard Time),779812.4000000954,B,baby,I,y,335,3,4481.800000071526,775330.6000000238,8036,WL,B,6.0
6,28.075000047683716,distr,31924.999952316284,Wed Jan 07 2026 09:42:03 GMT-0600 (Central Standard Time),780961.8000000715,B,babyenter,I,enter,1128,3,5631.200000047684,775330.6000000238,8036,WL,B,6.0
6,33.09000015258789,distr,26909.99984741211,Wed Jan 07 2026 09:42:03 GMT-0600 (Central Standard Time),785976.9000000954,B,b,I,b,4995,3,5014.700000047684,780962.2000000477,8036,WL,B,7.0
6,33.34000015258789,distr,26659.99984741211,Wed Jan 07 2026 09:42:03 GMT-0600 (Central Standard Time),786227.2000000477,B,bu,I,u,237,3,5265.0,780962.2000000477,8036,WL,B,7.0
6,33.60700011253357,distr,26392.99988746643,Wed Jan 07 2026 09:42:03 GMT-0600 (Central Standard Time),786493.6000000238,B,bui,I,i,258,3,5531.399999976158,780962.2000000477,8036,WL,B,7.0
6,34.32299995422363,distr,25677.000045776367,Wed Jan 07 2026 09:42:03 GMT-0600 (Central Standard Time),787209.7000000477,B,buil,I,l,695,3,6247.5,780962.2000000477,8036,WL,B,7.0
6,34.6560001373291,distr,25343.9998626709,Wed Jan 07 2026 09:42:03 GMT-0600 (Central Standard Time),787543.2000000477,B,build,I,d,322,3,6581.0,780962.2000000477,8036,WL,B,7.0
6,34.84000015258789,distr,25159.99984741211,Wed Jan 07 2026 09:42:03 GMT-0600 (Central Standard Time),787726.4000000954,B,buildi,I,i,175,3,6764.200000047684,780962.2000000477,8036,WL,B,7.0
6,35.07299995422363,distr,24927.000045776367,Wed Jan 07 2026 09:42:03 GMT-0600 (Central Standard Time),787959.7000000477,B,buildin,I,n,223,3,6997.5,780962.2000000477,8036,WL,B,7.0
6,35.25600004196167,distr,24743.99995803833,Wed Jan 07 2026 09:42:03 GMT-0600 (Central Standard Time),788142.9000000954,B,building,I,g,174,3,7180.700000047684,780962.2000000477,8036,WL,B,7.0
6,36.456000089645386,distr,23543.999910354614,Wed Jan 07 2026 09:42:03 GMT-0600 (Central Standard Time),789342.6000000238,B,buildingenter,I,enter,1190,3,8380.399999976158,780962.2000000477,8036,WL,B,7.0
6,39.23800015449524,distr,20761.99984550476,Wed Jan 07 2026 09:42:03 GMT-0600 (Central Standard Time),792124.7000000477,B,v,I,v,2775,3,2781.600000023842,789343.1000000238,8036,WL,B,8.0
6,39.57100009918213,distr,20428.99990081787,Wed Jan 07 2026 09:42:03 GMT-0600 (Central Standard Time),792457.9000000954,B,vi,I,i,320,3,3114.8000000715256,789343.1000000238,8036,WL,B,8.0
6,39.937999963760376,distr,20062.000036239624,Wed Jan 07 2026 09:42:03 GMT-0600 (Central Standard Time),792824.6000000238,B,vil,I,l,347,3,3481.5,789343.1000000238,8036,WL,B,8.0
6,40.13800001144409,distr,19861.99998855591,Wed Jan 07 2026 09:42:03 GMT-0600 (Central Standard Time),793024.6000000238,B,vill,I,l,189,3,3681.5,789343.1000000238,8036,WL,B,8.0
6,40.23800015449524,distr,19761.99984550476,Wed Jan 07 2026 09:42:03 GMT-0600 (Central Standard Time),793124.8000000715,B,villa,I,a,84,3,3781.7000000476837,789343.1000000238,8036,WL,B,8.0
6,40.58800005912781,distr,19411.999940872192,Wed Jan 07 2026 09:42:03 GMT-0600 (Central Standard Time),793474.5,B,villag,I,g,337,3,4131.399999976158,789343.1000000238,8036,WL,B,8.0
6,40.80400013923645,distr,19195.99986076355,Wed Jan 07 2026 09:42:03 GMT-0600 (Central Standard Time),793691.2000000477,B,village,I,e,211,3,4348.100000023842,789343.1000000238,8036,WL,B,8.0
6,42.15400004386902,distr,17845.99995613098,Wed Jan 07 2026 09:42:03 GMT-0600 (Central Standard Time),795041.2000000477,B,villageenter,I,enter,1329,3,5698.100000023842,789343.1000000238,8036,WL,B,8.0
6,60.015000104904175,distr,-15.000104904174805,Wed Jan 07 2026 09:42:03 GMT-0600 (Central Standard Time),812902.0,B,None,I,None,17856,3,17860.5,795041.5,8036,WL,B,9.0
7,8.69700002670288,immed,51302.99997329712,Wed Jan 07 2026 09:42:03 GMT-0600 (Central Standard Time),823098.4000000954,A,s,I,s,8693,3,8696.800000071526,814401.6000000238,8036,WL,B,1.0
7,9.314000129699707,immed,50685.99987030029,Wed Jan 07 2026 09:42:03 GMT-0600 (Central Standard Time),823715.0,A,st,I,t,609,3,9313.399999976158,814401.6000000238,8036,WL,B,1.0
7,9.581000089645386,immed,50418.999910354614,Wed Jan 07 2026 09:42:03 GMT-0600 (Central Standard Time),823981.7000000477,A,str,I,r,251,3,9580.100000023842,814401.6000000238,8036,WL,B,1.0
7,9.847000122070312,immed,50152.99987792969,Wed Jan 07 2026 09:42:03 GMT-0600 (Central Standard Time),824248.3000000715,A,stre,I,e,248,3,9846.700000047684,814401.6000000238,8036,WL,B,1.0
7,10.047000169754028,immed,49952.99983024597,Wed Jan 07 2026 09:42:03 GMT-0600 (Central Standard Time),824448.0,A,stree,I,e,189,3,10046.399999976158,814401.6000000238,8036,WL,B,1.0
7,11.130000114440918,immed,48869.99988555908,Wed Jan 07 2026 09:42:03 GMT-0600 (Central Standard Time),825531.0,A,street,I,t,1069,3,11129.399999976158,814401.6000000238,8036,WL,B,1.0
7,12.696000099182129,immed,47303.99990081787,Wed Jan 07 2026 09:42:03 GMT-0600 (Central Standard Time),827097.2000000477,A,streetenter,I,enter,1554,3,12695.600000023842,814401.6000000238,8036,WL,B,1.0
7,14.162000179290771,immed,45837.99982070923,Wed Jan 07 2026 09:42:03 GMT-0600 (Central Standard Time),828563.4000000954,A,c,I,c,1459,3,1465.9000000953674,827097.5,8036,WL,B,2.0
7,14.396000146865845,immed,45603.999853134155,Wed Jan 07 2026 09:42:03 GMT-0600 (Central Standard Time),828797.2000000477,A,ci,I,i,218,3,1699.7000000476837,827097.5,8036,WL,B,2.0
7,14.578999996185303,immed,45421.0000038147,Wed Jan 07 2026 09:42:03 GMT-0600 (Central Standard Time),828980.0,A,cit,I,t,168,3,1882.5,827097.5,8036,WL,B,2.0
7,14.813000202178955,immed,45186.999797821045,Wed Jan 07 2026 09:42:03 GMT-0600 (Central Standard Time),829213.6000000238,A,city,I,y,225,3,2116.100000023842,827097.5,8036,WL,B,2.0
7,15.828999996185303,immed,44171.0000038147,Wed Jan 07 2026 09:42:03 GMT-0600 (Central Standard Time),830229.8000000715,A,cityenter,I,enter,1000,3,3132.3000000715256,827097.5,8036,WL,B,2.0
7,19.74500012397766,immed,40254.99987602234,Wed Jan 07 2026 09:42:03 GMT-0600 (Central Standard Time),834145.4000000954,A,a,I,a,3904,3,3915.3000000715256,830230.1000000238,8036,WL,B,3.0
7,20.0770001411438,immed,39922.9998588562,Wed Jan 07 2026 09:42:03 GMT-0600 (Central Standard Time),834478.3000000715,A,ar,I,r,324,3,4248.200000047684,830230.1000000238,8036,WL,B,3.0
7,20.561000108718872,immed,39438.99989128113,Wed Jan 07 2026 09:42:03 GMT-0600 (Central Standard Time),834961.7000000477,A,arm,I,m,471,3,4731.600000023842,830230.1000000238,8036,WL,B,3.0
7,21.627000093460083,immed,38372.99990653992,Wed Jan 07 2026 09:42:03 GMT-0600 (Central Standard Time),836028.0,A,armenter,I,enter,1059,3,5797.899999976158,830230.1000000238,8036,WL,B,3.0
7,21.943000078201294,immed,38056.999921798706,Wed Jan 07 2026 09:42:03 GMT-0600 (Central Standard Time),836344.5,A,s,I,s,298,3,316.09999990463257,836028.4000000954,8036,WL,B,4.0
7,22.627000093460083,immed,37372.99990653992,Wed Jan 07 2026 09:42:03 GMT-0600 (Central Standard Time),837027.8000000715,A,sk,I,k,669,3,999.3999999761581,836028.4000000954,8036,WL,B,4.0
7,22.87600016593933,immed,37123.99983406067,Wed Jan 07 2026 09:42:03 GMT-0600 (Central Standard Time),837277.5,A,ski,I,i,232,3,1249.0999999046326,836028.4000000954,8036,WL,B,4.0
7,23.127000093460083,immed,36872.99990653992,Wed Jan 07 2026 09:42:03 GMT-0600 (Central Standard Time),837527.7000000477,A,skin,I,n,232,3,1499.2999999523163,836028.4000000954,8036,WL,B,4.0
7,24.37600016593933,immed,35623.99983406067,Wed Jan 07 2026 09:42:03 GMT-0600 (Central Standard Time),838777.0,A,skinenter,I,enter,1238,3,2748.5999999046326,836028.4000000954,8036,WL,B,4.0
7,25.426000118255615,immed,34573.999881744385,Wed Jan 07 2026 09:42:03 GMT-0600 (Central Standard Time),839827.1000000238,A,p,I,p,1037,3,1049.6999999284744,838777.4000000954,8036,WL,B,5.0
7,25.79200005531311,immed,34207.99994468689,Wed Jan 07 2026 09:42:03 GMT-0600 (Central Standard Time),840193.3000000715,A,pi,I,i,347,3,1415.8999999761581,838777.4000000954,8036,WL,B,5.0
7,26.22699999809265,immed,33773.00000190735,Wed Jan 07 2026 09:42:03 GMT-0600 (Central Standard Time),840627.5,A,pip,I,p,428,3,1850.0999999046326,838777.4000000954,8036,WL,B,5.0
7,26.676000118255615,immed,33323.999881744385,Wed Jan 07 2026 09:42:03 GMT-0600 (Central Standard Time),841076.5,A,pipe,I,e,434,3,2299.0999999046326,838777.4000000954,8036,WL,B,5.0
7,28.54100012779236,immed,31458.99987220764,Wed Jan 07 2026 09:42:03 GMT-0600 (Central Standard Time),842942.5,A,pipeenter,I,enter,1857,3,4165.099999904633,838777.4000000954,8036,WL,B,5.0
7,29.69099998474121,immed,30309.00001525879,Wed Jan 07 2026 09:42:03 GMT-0600 (Central Standard Time),844091.9000000954,A,p,I,p,1135,3,1149.0,842942.9000000954,8036,WL,B,6.0
7,30.308000087738037,immed,29691.999912261963,Wed Jan 07 2026 09:42:03 GMT-0600 (Central Standard Time),844708.6000000238,A,pu,I,u,601,3,1765.6999999284744,842942.9000000954,8036,WL,B,6.0
7,30.991000175476074,immed,29008.999824523926,Wed Jan 07 2026 09:42:03 GMT-0600 (Central Standard Time),845392.2000000477,A,pup,I,p,673,3,2449.2999999523163,842942.9000000954,8036,WL,B,6.0
7,31.35700011253357,immed,28642.99988746643,Wed Jan 07 2026 09:42:03 GMT-0600 (Central Standard Time),845758.4000000954,A,pupi,I,i,349,3,2815.5,842942.9000000954,8036,WL,B,6.0
7,31.657000064849854,immed,28342.999935150146,Wed Jan 07 2026 09:42:03 GMT-0600 (Central Standard Time),846058.3000000715,A,pupil,I,l,279,3,3115.399999976158,842942.9000000954,8036,WL,B,6.0
7,32.92300009727478,immed,27076.99990272522,Wed Jan 07 2026 09:42:03 GMT-0600 (Central Standard Time),847324.3000000715,A,pupilenter,I,enter,1251,3,4381.399999976158,842942.9000000954,8036,WL,B,6.0
7,36.140000104904175,immed,23859.999895095825,Wed Jan 07 2026 09:42:03 GMT-0600 (Central Standard Time),850541.4000000954,A,a,I,a,3201,3,3216.9000000953674,847324.5,8036,WL,B,7.0
7,37.90500020980835,immed,22094.99979019165,Wed Jan 07 2026 09:42:03 GMT-0600 (Central Standard Time),852306.0,A,,I,backspace,1744,3,4981.5,847324.5,8036,WL,B,7.0
7,38.188000202178955,immed,21811.999797821045,Wed Jan 07 2026 09:42:03 GMT-0600 (Central Standard Time),852589.5,A,s,I,s,275,3,5265.0,847324.5,8036,WL,B,7.0
7,38.63800001144409,immed,21361.99998855591,Wed Jan 07 2026 09:42:03 GMT-0600 (Central Standard Time),853039.2000000477,A,sk,I,k,440,3,5714.700000047684,847324.5,8036,WL,B,7.0
7,38.855000019073486,immed,21144.999980926514,Wed Jan 07 2026 09:42:03 GMT-0600 (Central Standard Time),853255.7000000477,A,ski,I,i,206,3,5931.200000047684,847324.5,8036,WL,B,7.0
7,39.105000019073486,immed,20894.999980926514,Wed Jan 07 2026 09:42:03 GMT-0600 (Central Standard Time),853505.9000000954,A,skin,I,n,238,3,6181.400000095367,847324.5,8036,WL,B,7.0
7,40.521000146865845,immed,19478.999853134155,Wed Jan 07 2026 09:42:03 GMT-0600 (Central Standard Time),854922.0,A,skinenter,I,enter,1403,3,7597.5,847324.5,8036,WL,B,7.0
7,41.40400004386902,immed,18595.99995613098,Wed Jan 07 2026 09:42:03 GMT-0600 (Central Standard Time),855804.9000000954,A,g,I,g,876,3,882.5,854922.4000000954,8036,WL,B,8.0
7,41.63700008392334,immed,18362.99991607666,Wed Jan 07 2026 09:42:03 GMT-0600 (Central Standard Time),856038.4000000954,A,gr,I,r,216,3,1116.0,854922.4000000954,8036,WL,B,8.0
7,41.9539999961853,immed,18046.000003814697,Wed Jan 07 2026 09:42:03 GMT-0600 (Central Standard Time),856354.6000000238,A,gra,I,a,311,3,1432.1999999284744,854922.4000000954,8036,WL,B,8.0
7,42.32000017166138,immed,17679.999828338623,Wed Jan 07 2026 09:42:03 GMT-0600 (Central Standard Time),856721.3000000715,A,gras,I,s,346,3,1798.8999999761581,854922.4000000954,8036,WL,B,8.0
7,42.53700017929077,immed,17462.99982070923,Wed Jan 07 2026 09:42:03 GMT-0600 (Central Standard Time),856938.2000000477,A,grass,I,s,196,3,2015.7999999523163,854922.4000000954,8036,WL,B,8.0
7,43.53700017929077,immed,16462.99982070923,Wed Jan 07 2026 09:42:03 GMT-0600 (Central Standard Time),857937.8000000715,A,grassenter,I,enter,987,3,3015.399999976158,854922.4000000954,8036,WL,B,8.0
7,44.32000017166138,immed,15679.999828338623,Wed Jan 07 2026 09:42:03 GMT-0600 (Central Standard Time),858720.7000000477,A,d,I,d,763,3,782.6000000238419,857938.1000000238,8036,WL,B,9.0
7,44.66900014877319,immed,15330.999851226807,Wed Jan 07 2026 09:42:03 GMT-0600 (Central Standard Time),859070.5,A,do,I,o,332,3,1132.3999999761581,857938.1000000238,8036,WL,B,9.0
7,44.88600015640259,immed,15113.999843597412,Wed Jan 07 2026 09:42:03 GMT-0600 (Central Standard Time),859287.1000000238,A,doo,I,o,196,3,1349.0,857938.1000000238,8036,WL,B,9.0
7,45.086000204086304,immed,14913.999795913696,Wed Jan 07 2026 09:42:03 GMT-0600 (Central Standard Time),859486.8000000715,A,door,I,r,189,3,1548.7000000476837,857938.1000000238,8036,WL,B,9.0
7,46.4520001411438,immed,13547.999858856201,Wed Jan 07 2026 09:42:03 GMT-0600 (Central Standard Time),860853.2000000477,A,doorenter,I,enter,1358,3,2915.100000023842,857938.1000000238,8036,WL,B,9.0
7,48.313000202178955,immed,11686.999797821045,Wed Jan 07 2026 09:42:03 GMT-0600 (Central Standard Time),862713.8000000715,A,s,I,s,1853,3,1860.2000000476837,860853.6000000238,8036,WL,B,10.0
7,48.652000188827515,immed,11347.999811172485,Wed Jan 07 2026 09:42:03 GMT-0600 (Central Standard Time),863052.8000000715,A,st,I,t,323,3,2199.2000000476837,860853.6000000238,8036,WL,B,10.0
7,48.88499999046326,immed,11115.000009536743,Wed Jan 07 2026 09:42:03 GMT-0600 (Central Standard Time),863286.2000000477,A,str,I,r,225,3,2432.600000023842,860853.6000000238,8036,WL,B,10.0
7,49.18500018119812,immed,10814.99981880188,Wed Jan 07 2026 09:42:03 GMT-0600 (Central Standard Time),863585.8000000715,A,stre,I,e,286,3,2732.2000000476837,860853.6000000238,8036,WL,B,10.0
7,49.38499999046326,immed,10615.000009536743,Wed Jan 07 2026 09:42:03 GMT-0600 (Central Standard Time),863785.9000000954,A,stree,I,e,196,3,2932.3000000715256,860853.6000000238,8036,WL,B,10.0
7,49.68500018119812,immed,10314.99981880188,Wed Jan 07 2026 09:42:03 GMT-0600 (Central Standard Time),864085.9000000954,A,street,I,t,292,3,3232.3000000715256,860853.6000000238,8036,WL,B,10.0
7,50.83400011062622,immed,9165.99988937378,Wed Jan 07 2026 09:42:03 GMT-0600 (Central Standard Time),865235.5,A,streetenter,I,enter,1136,3,4381.899999976158,860853.6000000238,8036,WL,B,10.0
7,60.015000104904175,immed,-15.000104904174805,Wed Jan 07 2026 09:42:03 GMT-0600 (Central Standard Time),874415.9000000954,A,None,I,None,9176,3,9180.200000047684,865235.7000000477,8036,WL,B,11.0
