acc_sum,block,block_c,change,condition,correct,correct_response,datetime,endtime,face,project,response,response_time,row_sel,session_number,start_end,starttime,subject_id,task,task_vers,trial
0,prac,1,,1-Back,,,Thu Jun 19 2025 16:51:31 GMT-0500 (Central Daylight Time),,012_o_f_d_a.png,O,space,2511,1,1,,,7168,VNB,C,0
0,prac,1,0.0,1-Back,0,m,Thu Jun 19 2025 16:51:31 GMT-0500 (Central Daylight Time),113547.0,022_y_f_n_a.png,O,None,2016,2,1,2946.5,110600.5,7168,VNB,C,1
1,prac,1,0.0,1-Back,1,m,Thu Jun 19 2025 16:51:31 GMT-0500 (Central Daylight Time),116046.30000001192,014_m_m_h_a.png,O,m,1545,3,1,2465.899999976158,113580.40000003576,7168,VNB,C,2
1,prac,1,0.0,1-Back,0,m,Thu Jun 19 2025 16:51:31 GMT-0500 (Central Daylight Time),118012.40000003576,025_y_m_d_a.png,O,z,1007,4,1,1936.300000011921,116076.10000002384,7168,VNB,C,3
2,prac,1,0.0,1-Back,1,m,Thu Jun 19 2025 16:51:31 GMT-0500 (Central Daylight Time),120060.60000002384,012_o_f_n_a.png,O,m,1074,5,1,2012.0,118048.60000002384,7168,VNB,C,4
2,prac,1,1.0,1-Back,0,z,Thu Jun 19 2025 16:51:31 GMT-0500 (Central Daylight Time),121811.19999998808,025_y_m_n_a.png,O,m,840,6,1,1739.0,120072.19999998808,7168,VNB,C,5
3,prac,1,0.0,1-Back,1,m,Thu Jun 19 2025 16:51:31 GMT-0500 (Central Daylight Time),123843.80000001192,015_o_m_h_a.png,O,m,1058,7,1,1994.300000011921,121849.5,7168,VNB,C,6
3,prac,1,0.0,1-Back,0,m,Thu Jun 19 2025 16:51:31 GMT-0500 (Central Daylight Time),125892.69999998808,019_m_f_d_a.png,O,z,1071,8,1,2009.8999999761581,123882.80000001192,7168,VNB,C,7
3,prac,1,1.0,1-Back,0,z,Thu Jun 19 2025 16:51:31 GMT-0500 (Central Daylight Time),127859.10000002384,022_y_f_d_a.png,O,m,997,9,1,1930.5,125928.60000002384,7168,VNB,C,8
4,prac,1,0.0,1-Back,1,m,Thu Jun 19 2025 16:51:31 GMT-0500 (Central Daylight Time),129911.40000003576,014_m_m_n_a.png,O,m,1103,10,1,2011.1000000238419,127900.30000001192,7168,VNB,C,9
5,prac,1,0.0,1-Back,1,m,Thu Jun 19 2025 16:51:31 GMT-0500 (Central Daylight Time),131707.60000002384,012_o_f_h_a.png,O,m,826,11,1,1761.4000000357628,129946.19999998808,7168,VNB,C,10
6,prac,1,0.0,1-Back,1,m,Thu Jun 19 2025 16:51:31 GMT-0500 (Central Daylight Time),133607.40000003576,025_y_m_d_a.png,O,m,940,12,1,1838.2000000476837,131769.19999998808,7168,VNB,C,11
0,test,1,0.0,1-Back,,,Thu Jun 19 2025 16:51:31 GMT-0500 (Central Daylight Time),133607.40000003576,022_y_f_d_a.png,O,space,9448,1,1,1838.2000000476837,131769.19999998808,7168,VNB,C,0
1,test,1,0.0,1-Back,1,m,Thu Jun 19 2025 16:51:31 GMT-0500 (Central Daylight Time),153100.90000003576,019_m_f_n_a.png,O,m,873,2,1,1888.7000000476837,151212.19999998808,7168,VNB,C,1
2,test,1,0.0,1-Back,1,m,Thu Jun 19 2025 16:51:31 GMT-0500 (Central Daylight Time),156016.90000003576,015_o_m_h_a.png,O,m,1870,3,1,2886.800000011921,153130.10000002384,7168,VNB,C,2
2,test,1,1.0,1-Back,0,z,Thu Jun 19 2025 16:51:31 GMT-0500 (Central Daylight Time),158965.40000003576,014_m_m_h_a.png,O,m,1890,4,1,2918.100000023842,156047.30000001192,7168,VNB,C,3
3,test,1,0.0,1-Back,1,m,Thu Jun 19 2025 16:51:31 GMT-0500 (Central Daylight Time),160965.10000002384,012_o_f_n_a.png,O,m,964,5,1,1972.6000000238419,158992.5,7168,VNB,C,4
3,test,1,0.0,1-Back,0,m,Thu Jun 19 2025 16:51:31 GMT-0500 (Central Daylight Time),163963.80000001192,025_y_m_d_a.png,O,z,1958,6,1,2970.0,160993.80000001192,7168,VNB,C,5
4,test,1,1.0,1-Back,1,z,Thu Jun 19 2025 16:51:31 GMT-0500 (Central Daylight Time),165879.19999998808,019_m_f_d_a.png,O,z,862,7,1,1880.2999999523163,163998.90000003576,7168,VNB,C,6
5,test,1,0.0,1-Back,1,m,Thu Jun 19 2025 16:51:31 GMT-0500 (Central Daylight Time),168761.19999998808,022_y_f_h_a.png,O,m,1843,8,1,2862.899999976158,165898.30000001192,7168,VNB,C,7
6,test,1,0.0,1-Back,1,m,Thu Jun 19 2025 16:51:31 GMT-0500 (Central Daylight Time),170994.10000002384,015_o_m_n_a.png,O,m,1207,9,1,2222.300000011921,168771.80000001192,7168,VNB,C,8
6,test,1,0.0,1-Back,0,m,Thu Jun 19 2025 16:51:31 GMT-0500 (Central Daylight Time),174028.69999998808,025_y_m_h_a.png,O,None,2015,10,1,3020.199999988079,171008.5,7168,VNB,C,9
7,test,1,0.0,1-Back,1,m,Thu Jun 19 2025 16:51:31 GMT-0500 (Central Daylight Time),176193.10000002384,015_o_m_d_a.png,O,m,1111,11,1,2133.199999988079,174059.90000003576,7168,VNB,C,10
7,test,1,1.0,1-Back,0,z,Thu Jun 19 2025 16:51:31 GMT-0500 (Central Daylight Time),178059.19999998808,012_o_f_d_a.png,O,m,801,12,1,1836.0999999642372,176223.10000002384,7168,VNB,C,11
8,test,1,0.0,1-Back,1,m,Thu Jun 19 2025 16:51:31 GMT-0500 (Central Daylight Time),180841.5,014_m_m_n_a.png,O,m,1726,13,1,2750.699999988079,178090.80000001192,7168,VNB,C,12
8,test,1,1.0,1-Back,0,z,Thu Jun 19 2025 16:51:31 GMT-0500 (Central Daylight Time),183373.5,022_y_f_n_a.png,O,m,1480,14,1,2497.199999988079,180876.30000001192,7168,VNB,C,13
8,test,1,0.0,1-Back,0,m,Thu Jun 19 2025 16:51:31 GMT-0500 (Central Daylight Time),185839.19999998808,019_m_f_h_a.png,O,z,1420,15,1,2434.0,183405.19999998808,7168,VNB,C,14
9,test,1,0.0,1-Back,1,m,Thu Jun 19 2025 16:51:31 GMT-0500 (Central Daylight Time),187889.30000001192,014_m_m_d_a.png,O,m,1026,16,1,2039.0,185850.30000001192,7168,VNB,C,15
10,test,1,0.0,1-Back,1,m,Thu Jun 19 2025 16:51:31 GMT-0500 (Central Daylight Time),190038.60000002384,025_y_m_n_a.png,O,m,1105,17,1,2121.300000011921,187917.30000001192,7168,VNB,C,16
11,test,1,0.0,1-Back,1,m,Thu Jun 19 2025 16:51:31 GMT-0500 (Central Daylight Time),192637.19999998808,012_o_f_h_a.png,O,m,1546,18,1,2562.599999964237,190074.60000002384,7168,VNB,C,17
0,test,2,0.0,1-Back,,,Thu Jun 19 2025 16:51:31 GMT-0500 (Central Daylight Time),192637.19999998808,025_y_m_n_a.png,O,space,2500,1,1,2562.599999964237,190074.60000002384,7168,VNB,C,0
1,test,2,0.0,1-Back,1,m,Thu Jun 19 2025 16:51:31 GMT-0500 (Central Daylight Time),199767.90000003576,022_y_f_h_a.png,O,m,1386,2,1,2418.300000011921,197349.60000002384,7168,VNB,C,1
2,test,2,1.0,1-Back,1,m,Thu Jun 19 2025 16:51:31 GMT-0500 (Central Daylight Time),201500.40000003576,015_o_m_n_a.png,O,m,705,3,1,1722.5,199777.90000003576,7168,VNB,C,2
3,test,2,0.0,1-Back,1,m,Thu Jun 19 2025 16:51:31 GMT-0500 (Central Daylight Time),203434.19999998808,019_m_f_d_a.png,O,m,901,4,1,1928.199999988079,201506.0,7168,VNB,C,3
4,test,2,0.0,1-Back,1,z,Thu Jun 19 2025 16:51:31 GMT-0500 (Central Daylight Time),205833.40000003576,014_m_m_d_a.png,O,z,1352,5,1,2373.400000035763,203460.0,7168,VNB,C,4
5,test,2,0.0,1-Back,1,m,Thu Jun 19 2025 16:51:31 GMT-0500 (Central Daylight Time),207998.40000003576,025_y_m_h_a.png,O,m,1119,6,1,2138.400000035763,205860.0,7168,VNB,C,5
6,test,2,1.0,1-Back,1,z,Thu Jun 19 2025 16:51:31 GMT-0500 (Central Daylight Time),210098.5,012_o_f_h_a.png,O,z,1075,7,1,2093.800000011921,208004.69999998808,7168,VNB,C,6
7,test,2,0.0,1-Back,1,m,Thu Jun 19 2025 16:51:31 GMT-0500 (Central Daylight Time),212247.69999998808,019_m_f_n_a.png,O,m,1106,8,1,2124.399999976158,210123.30000001192,7168,VNB,C,7
8,test,2,0.0,1-Back,1,m,Thu Jun 19 2025 16:51:31 GMT-0500 (Central Daylight Time),214896.90000003576,022_y_f_d_a.png,O,m,1602,9,1,2620.400000035763,212276.5,7168,VNB,C,8
9,test,2,0.0,1-Back,1,m,Thu Jun 19 2025 16:51:31 GMT-0500 (Central Daylight Time),217612.5,014_m_m_n_a.png,O,m,1672,10,1,2687.699999988079,214924.80000001192,7168,VNB,C,9
9,test,2,1.0,1-Back,0,m,Thu Jun 19 2025 16:51:31 GMT-0500 (Central Daylight Time),219595.10000002384,019_m_f_h_a.png,O,z,942,11,1,1966.1000000238419,217629.0,7168,VNB,C,10
10,test,2,0.0,1-Back,1,z,Thu Jun 19 2025 16:51:31 GMT-0500 (Central Daylight Time),221511.5,015_o_m_h_a.png,O,z,853,12,1,1881.800000011921,219629.69999998808,7168,VNB,C,11
11,test,2,0.0,1-Back,1,m,Thu Jun 19 2025 16:51:31 GMT-0500 (Central Daylight Time),223393.69999998808,025_y_m_d_a.png,O,m,834,13,1,1852.199999988079,221541.5,7168,VNB,C,12
12,test,2,0.0,1-Back,1,m,Thu Jun 19 2025 16:51:31 GMT-0500 (Central Daylight Time),225343.40000003576,012_o_f_n_a.png,O,m,903,14,1,1926.4000000357628,223417.0,7168,VNB,C,13
13,test,2,0.0,1-Back,1,z,Thu Jun 19 2025 16:51:31 GMT-0500 (Central Daylight Time),227842.80000001192,022_y_f_n_a.png,O,z,1435,15,1,2460.699999988079,225382.10000002384,7168,VNB,C,14
14,test,2,1.0,1-Back,1,m,Thu Jun 19 2025 16:51:31 GMT-0500 (Central Daylight Time),229775.60000002384,014_m_m_h_a.png,O,m,870,16,1,1898.6000000238419,227877.0,7168,VNB,C,15
15,test,2,0.0,1-Back,1,m,Thu Jun 19 2025 16:51:31 GMT-0500 (Central Daylight Time),231641.60000002384,012_o_f_d_a.png,O,m,826,17,1,1840.199999988079,229801.40000003576,7168,VNB,C,16
15,test,2,1.0,1-Back,0,z,Thu Jun 19 2025 16:51:31 GMT-0500 (Central Daylight Time),234024.10000002384,015_o_m_d_a.png,O,m,1321,18,1,2340.400000035763,231683.69999998808,7168,VNB,C,17
0,test,3,1.0,1-Back,,,Thu Jun 19 2025 16:51:31 GMT-0500 (Central Daylight Time),234024.10000002384,012_o_f_h_a.png,O,space,3586,1,1,2340.400000035763,231683.69999998808,7168,VNB,C,0
1,test,3,0.0,1-Back,1,m,Thu Jun 19 2025 16:51:31 GMT-0500 (Central Daylight Time),241971.40000003576,019_m_f_d_a.png,O,m,1066,2,1,2096.2000000476837,239875.19999998808,7168,VNB,C,1
2,test,3,1.0,1-Back,1,m,Thu Jun 19 2025 16:51:31 GMT-0500 (Central Daylight Time),244187.40000003576,014_m_m_n_a.png,O,m,1168,3,1,2189.7000000476837,241997.69999998808,7168,VNB,C,2
2,test,3,0.0,1-Back,0,z,Thu Jun 19 2025 16:51:31 GMT-0500 (Central Daylight Time),246220.10000002384,012_o_f_n_a.png,O,m,991,4,1,2016.1000000238419,244204.0,7168,VNB,C,3
3,test,3,1.0,1-Back,1,m,Thu Jun 19 2025 16:51:31 GMT-0500 (Central Daylight Time),248303.0,015_o_m_d_a.png,O,m,1042,5,1,2056.699999988079,246246.30000001192,7168,VNB,C,4
4,test,3,0.0,1-Back,1,m,Thu Jun 19 2025 16:51:31 GMT-0500 (Central Daylight Time),250284.90000003576,022_y_f_h_a.png,O,m,921,6,1,1946.0,248338.90000003576,7168,VNB,C,5
5,test,3,0.0,1-Back,1,z,Thu Jun 19 2025 16:51:31 GMT-0500 (Central Daylight Time),252218.10000002384,025_y_m_h_a.png,O,z,851,7,1,1874.1000000238419,250344.0,7168,VNB,C,6
6,test,3,0.0,1-Back,1,m,Thu Jun 19 2025 16:51:31 GMT-0500 (Central Daylight Time),254217.30000001192,019_m_f_n_a.png,O,m,961,8,1,1976.6000000238419,252240.69999998808,7168,VNB,C,7
7,test,3,0.0,1-Back,1,m,Thu Jun 19 2025 16:51:31 GMT-0500 (Central Daylight Time),256066.80000001192,022_y_f_d_a.png,O,m,793,9,1,1810.8999999761581,254255.90000003576,7168,VNB,C,8
8,test,3,1.0,1-Back,1,m,Thu Jun 19 2025 16:51:31 GMT-0500 (Central Daylight Time),257999.5,015_o_m_n_a.png,O,m,878,10,1,1898.800000011921,256100.69999998808,7168,VNB,C,9
9,test,3,0.0,1-Back,1,m,Thu Jun 19 2025 16:51:31 GMT-0500 (Central Daylight Time),260098.5,014_m_m_h_a.png,O,m,1051,11,1,2069.899999976158,258028.60000002384,7168,VNB,C,10
10,test,3,0.0,1-Back,1,z,Thu Jun 19 2025 16:51:31 GMT-0500 (Central Daylight Time),261681.30000001192,019_m_f_h_a.png,O,z,544,12,1,1555.1000000238419,260126.19999998808,7168,VNB,C,11
11,test,3,1.0,1-Back,1,m,Thu Jun 19 2025 16:51:31 GMT-0500 (Central Daylight Time),263464.5,012_o_f_d_a.png,O,m,744,13,1,1755.699999988079,261708.80000001192,7168,VNB,C,12
12,test,3,0.0,1-Back,1,z,Thu Jun 19 2025 16:51:31 GMT-0500 (Central Daylight Time),265747.0,014_m_m_d_a.png,O,z,1241,14,1,2252.099999964237,263494.90000003576,7168,VNB,C,13
13,test,3,0.0,1-Back,1,m,Thu Jun 19 2025 16:51:31 GMT-0500 (Central Daylight Time),267646.3000000119,025_y_m_n_a.png,O,m,862,15,1,1878.8999999761581,265767.40000003576,7168,VNB,C,14
14,test,3,1.0,1-Back,1,m,Thu Jun 19 2025 16:51:31 GMT-0500 (Central Daylight Time),269512.3000000119,015_o_m_h_a.png,O,m,810,16,1,1823.199999988079,267689.10000002384,7168,VNB,C,15
15,test,3,0.0,1-Back,1,m,Thu Jun 19 2025 16:51:31 GMT-0500 (Central Daylight Time),271445.3000000119,025_y_m_d_a.png,O,m,890,17,1,1903.3999999761581,269541.90000003576,7168,VNB,C,16
16,test,3,1.0,1-Back,1,m,Thu Jun 19 2025 16:51:31 GMT-0500 (Central Daylight Time),273311.10000002384,022_y_f_n_a.png,O,m,820,18,1,1838.800000011921,271472.3000000119,7168,VNB,C,17
0,test,4,1.0,1-Back,,,Thu Jun 19 2025 16:51:31 GMT-0500 (Central Daylight Time),273311.10000002384,014_m_m_d_a.png,O,space,1779,1,1,1838.800000011921,271472.3000000119,7168,VNB,C,0
1,test,4,0.0,1-Back,1,z,Thu Jun 19 2025 16:51:31 GMT-0500 (Central Daylight Time),279542.5,015_o_m_d_a.png,O,z,1205,2,1,2231.399999976158,277311.10000002384,7168,VNB,C,1
2,test,4,0.0,1-Back,1,m,Thu Jun 19 2025 16:51:31 GMT-0500 (Central Daylight Time),281658.5,025_y_m_h_a.png,O,m,1065,3,1,2091.599999964237,279566.90000003576,7168,VNB,C,2
3,test,4,0.0,1-Back,1,m,Thu Jun 19 2025 16:51:31 GMT-0500 (Central Daylight Time),283491.10000002384,019_m_f_n_a.png,O,m,776,4,1,1793.300000011921,281697.8000000119,7168,VNB,C,3
4,test,4,1.0,1-Back,1,m,Thu Jun 19 2025 16:51:31 GMT-0500 (Central Daylight Time),285823.6999999881,012_o_f_h_a.png,O,m,1270,5,1,2293.399999976158,283530.3000000119,7168,VNB,C,4
5,test,4,0.0,1-Back,1,m,Thu Jun 19 2025 16:51:31 GMT-0500 (Central Daylight Time),287756.0,014_m_m_n_a.png,O,m,875,6,1,1900.0,285856.0,7168,VNB,C,5
6,test,4,0.0,1-Back,1,m,Thu Jun 19 2025 16:51:31 GMT-0500 (Central Daylight Time),289588.60000002384,025_y_m_d_a.png,O,m,805,7,1,1818.6000000238419,287770.0,7168,VNB,C,6
7,test,4,1.0,1-Back,1,z,Thu Jun 19 2025 16:51:31 GMT-0500 (Central Daylight Time),291288.3000000119,022_y_f_d_a.png,O,z,652,8,1,1670.199999988079,289618.10000002384,7168,VNB,C,7
8,test,4,0.0,1-Back,1,m,Thu Jun 19 2025 16:51:31 GMT-0500 (Central Daylight Time),293321.1999999881,019_m_f_h_a.png,O,m,984,9,1,2012.699999988079,291308.5,7168,VNB,C,8
9,test,4,0.0,1-Back,1,z,Thu Jun 19 2025 16:51:31 GMT-0500 (Central Daylight Time),295004.1999999881,015_o_m_h_a.png,O,z,614,10,1,1648.199999988079,293356.0,7168,VNB,C,9
10,test,4,1.0,1-Back,1,m,Thu Jun 19 2025 16:51:31 GMT-0500 (Central Daylight Time),296819.90000003576,012_o_f_n_a.png,O,m,757,11,1,1778.7000000476837,295041.1999999881,7168,VNB,C,10
11,test,4,0.0,1-Back,1,m,Thu Jun 19 2025 16:51:31 GMT-0500 (Central Daylight Time),298952.8000000119,019_m_f_d_a.png,O,m,1087,12,1,2105.399999976158,296847.40000003576,7168,VNB,C,11
12,test,4,0.0,1-Back,1,m,Thu Jun 19 2025 16:51:31 GMT-0500 (Central Daylight Time),300901.10000002384,022_y_f_n_a.png,O,m,903,13,1,1921.4000000357628,298979.6999999881,7168,VNB,C,12
13,test,4,0.0,1-Back,1,m,Thu Jun 19 2025 16:51:31 GMT-0500 (Central Daylight Time),302768.1999999881,012_o_f_d_a.png,O,m,844,14,1,1861.8999999761581,300906.3000000119,7168,VNB,C,13
14,test,4,0.0,1-Back,1,m,Thu Jun 19 2025 16:51:31 GMT-0500 (Central Daylight Time),304783.1999999881,022_y_f_h_a.png,O,m,976,15,1,1994.199999988079,302789.0,7168,VNB,C,14
15,test,4,1.0,1-Back,1,z,Thu Jun 19 2025 16:51:31 GMT-0500 (Central Daylight Time),306416.90000003576,014_m_m_h_a.png,O,z,610,16,1,1628.4000000357628,304788.5,7168,VNB,C,15
16,test,4,0.0,1-Back,1,m,Thu Jun 19 2025 16:51:31 GMT-0500 (Central Daylight Time),308149.6999999881,015_o_m_n_a.png,O,m,699,17,1,1707.5,306442.1999999881,7168,VNB,C,16
17,test,4,1.0,1-Back,1,z,Thu Jun 19 2025 16:51:31 GMT-0500 (Central Daylight Time),309932.3000000119,025_y_m_n_a.png,O,z,723,18,1,1751.3999999761581,308180.90000003576,7168,VNB,C,17
0,test,5,1.0,1-Back,,,Thu Jun 19 2025 16:51:31 GMT-0500 (Central Daylight Time),309932.3000000119,015_o_m_n_a.png,O,space,1942,1,1,1751.3999999761581,308180.90000003576,7168,VNB,C,0
1,test,5,1.0,1-Back,1,m,Thu Jun 19 2025 16:51:31 GMT-0500 (Central Daylight Time),316030.40000003576,012_o_f_h_a.png,O,m,1096,2,1,2107.7000000476837,313922.6999999881,7168,VNB,C,1
2,test,5,0.0,1-Back,1,m,Thu Jun 19 2025 16:51:31 GMT-0500 (Central Daylight Time),318396.5,025_y_m_d_a.png,O,m,1312,3,1,2343.399999976158,316053.10000002384,7168,VNB,C,2
2,test,5,0.0,1-Back,0,z,Thu Jun 19 2025 16:51:31 GMT-0500 (Central Daylight Time),321078.6999999881,015_o_m_d_a.png,O,m,1637,4,1,2657.199999988079,318421.5,7168,VNB,C,3
3,test,5,0.0,1-Back,1,m,Thu Jun 19 2025 16:51:31 GMT-0500 (Central Daylight Time),322977.40000003576,019_m_f_h_a.png,O,m,850,5,1,1868.1000000238419,321109.3000000119,7168,VNB,C,4
4,test,5,0.0,1-Back,1,m,Thu Jun 19 2025 16:51:31 GMT-0500 (Central Daylight Time),324694.0,022_y_f_n_a.png,O,m,696,6,1,1704.800000011921,322989.1999999881,7168,VNB,C,5
5,test,5,1.0,1-Back,1,z,Thu Jun 19 2025 16:51:31 GMT-0500 (Central Daylight Time),326493.1999999881,012_o_f_n_a.png,O,z,754,7,1,1773.2999999523163,324719.90000003576,7168,VNB,C,6
6,test,5,0.0,1-Back,1,m,Thu Jun 19 2025 16:51:31 GMT-0500 (Central Daylight Time),328293.10000002384,019_m_f_d_a.png,O,m,764,8,1,1783.1000000238419,326510.0,7168,VNB,C,7
7,test,5,0.0,1-Back,1,m,Thu Jun 19 2025 16:51:31 GMT-0500 (Central Daylight Time),330159.0,025_y_m_h_a.png,O,m,829,9,1,1839.0999999642372,328319.90000003576,7168,VNB,C,8
8,test,5,0.0,1-Back,1,m,Thu Jun 19 2025 16:51:31 GMT-0500 (Central Daylight Time),332042.0,022_y_f_d_a.png,O,m,835,10,1,1859.8999999761581,330182.10000002384,7168,VNB,C,9
9,test,5,0.0,1-Back,1,m,Thu Jun 19 2025 16:51:31 GMT-0500 (Central Daylight Time),333841.3000000119,014_m_m_n_a.png,O,m,752,11,1,1773.3999999761581,332067.90000003576,7168,VNB,C,10
10,test,5,1.0,1-Back,1,z,Thu Jun 19 2025 16:51:31 GMT-0500 (Central Daylight Time),335906.60000002384,019_m_f_n_a.png,O,z,1023,12,1,2037.800000011921,333868.8000000119,7168,VNB,C,11
11,test,5,0.0,1-Back,1,m,Thu Jun 19 2025 16:51:31 GMT-0500 (Central Daylight Time),337640.0,015_o_m_h_a.png,O,m,711,13,1,1721.699999988079,335918.3000000119,7168,VNB,C,12
12,test,5,0.0,1-Back,1,z,Thu Jun 19 2025 16:51:31 GMT-0500 (Central Daylight Time),339239.5,014_m_m_h_a.png,O,z,562,14,1,1573.8999999761581,337665.60000002384,7168,VNB,C,13
13,test,5,1.0,1-Back,1,m,Thu Jun 19 2025 16:51:31 GMT-0500 (Central Daylight Time),341005.60000002384,012_o_f_d_a.png,O,m,731,15,1,1737.300000011921,339268.3000000119,7168,VNB,C,14
14,test,5,0.0,1-Back,1,m,Thu Jun 19 2025 16:51:31 GMT-0500 (Central Daylight Time),342755.1999999881,025_y_m_n_a.png,O,m,708,16,1,1719.0999999642372,341036.10000002384,7168,VNB,C,15
15,test,5,0.0,1-Back,1,m,Thu Jun 19 2025 16:51:31 GMT-0500 (Central Daylight Time),344487.0,022_y_f_h_a.png,O,m,694,17,1,1709.0,342778.0,7168,VNB,C,16
16,test,5,0.0,1-Back,1,m,Thu Jun 19 2025 16:51:31 GMT-0500 (Central Daylight Time),346320.40000003576,014_m_m_d_a.png,O,m,802,18,1,1821.4000000357628,344499.0,7168,VNB,C,17
0,prac,1,0.0,2-Back,,,Thu Jun 19 2025 16:51:31 GMT-0500 (Central Daylight Time),346320.40000003576,019_m_f_n_a.png,O,space,6606,1,1,1821.4000000357628,344499.0,7168,VNB,C,0
0,prac,1,0.0,2-Back,,,Thu Jun 19 2025 16:51:31 GMT-0500 (Central Daylight Time),346320.40000003576,012_o_f_h_a.png,O,space,6606,2,1,1821.4000000357628,344499.0,7168,VNB,C,0
1,prac,1,0.0,2-Back,1,m,Thu Jun 19 2025 16:51:31 GMT-0500 (Central Daylight Time),454067.60000002384,015_o_m_d_a.png,O,m,1693,3,1,2655.5,451412.10000002384,7168,VNB,C,1
1,prac,1,1.0,2-Back,0,z,Thu Jun 19 2025 16:51:31 GMT-0500 (Central Daylight Time),456999.8000000119,014_m_m_h_a.png,O,None,2003,4,1,2922.600000023842,454077.1999999881,7168,VNB,C,2
2,prac,1,0.0,2-Back,1,m,Thu Jun 19 2025 16:51:31 GMT-0500 (Central Daylight Time),457949.5,022_y_f_n_a.png,O,m,0,5,1,939.3999999761581,457010.10000002384,7168,VNB,C,3
2,prac,1,1.0,2-Back,0,z,Thu Jun 19 2025 16:51:31 GMT-0500 (Central Daylight Time),459948.6999999881,015_o_m_h_a.png,O,m,1029,6,1,1989.5999999642372,457959.10000002384,7168,VNB,C,4
2,prac,1,1.0,2-Back,0,z,Thu Jun 19 2025 16:51:31 GMT-0500 (Central Daylight Time),462332.40000003576,025_y_m_n_a.png,O,m,1460,7,1,2374.5,459957.90000003576,7168,VNB,C,5
2,prac,1,0.0,2-Back,0,m,Thu Jun 19 2025 16:51:31 GMT-0500 (Central Daylight Time),464480.6999999881,019_m_f_d_a.png,O,z,1155,8,1,2117.5,462363.1999999881,7168,VNB,C,6
2,prac,1,0.0,2-Back,0,m,Thu Jun 19 2025 16:51:31 GMT-0500 (Central Daylight Time),466513.5,012_o_f_d_a.png,O,z,1081,9,1,2018.8999999761581,464494.60000002384,7168,VNB,C,7
2,prac,1,0.0,2-Back,0,m,Thu Jun 19 2025 16:51:31 GMT-0500 (Central Daylight Time),468513.90000003576,014_m_m_h_a.png,O,z,1071,10,1,1992.800000011921,466521.10000002384,7168,VNB,C,8
2,prac,1,1.0,2-Back,0,z,Thu Jun 19 2025 16:51:31 GMT-0500 (Central Daylight Time),469479.1999999881,022_y_f_d_a.png,O,m,1,11,1,931.5,468547.6999999881,7168,VNB,C,9
3,prac,1,0.0,2-Back,1,m,Thu Jun 19 2025 16:51:31 GMT-0500 (Central Daylight Time),472029.5,015_o_m_n_a.png,O,m,1579,12,1,2531.899999976158,469497.60000002384,7168,VNB,C,10
0,prac,2,0.0,2-Back,,,Thu Jun 19 2025 16:51:31 GMT-0500 (Central Daylight Time),472029.5,019_m_f_n_a.png,O,a,7319,1,1,2531.899999976158,469497.60000002384,7168,VNB,C,0
0,prac,2,0.0,2-Back,,,Thu Jun 19 2025 16:51:31 GMT-0500 (Central Daylight Time),472029.5,012_o_f_h_a.png,O,a,7319,2,1,2531.899999976158,469497.60000002384,7168,VNB,C,0
0,prac,2,0.0,2-Back,0,m,Thu Jun 19 2025 16:51:31 GMT-0500 (Central Daylight Time),487740.60000002384,015_o_m_d_a.png,O,None,2002,3,1,2935.400000035763,484805.1999999881,7168,VNB,C,1
0,prac,2,1.0,2-Back,0,z,Thu Jun 19 2025 16:51:31 GMT-0500 (Central Daylight Time),488673.8000000119,014_m_m_h_a.png,O,m,0,4,1,905.1999999880791,487768.60000002384,7168,VNB,C,2
0,prac,2,0.0,2-Back,0,m,Thu Jun 19 2025 16:51:31 GMT-0500 (Central Daylight Time),491655.1999999881,022_y_f_n_a.png,O,None,2016,5,1,2947.699999988079,488707.5,7168,VNB,C,3
1,prac,2,1.0,2-Back,1,z,Thu Jun 19 2025 16:51:31 GMT-0500 (Central Daylight Time),492589.1999999881,015_o_m_h_a.png,O,z,1,6,1,925.8999999761581,491663.3000000119,7168,VNB,C,4
1,prac,2,1.0,2-Back,0,z,Thu Jun 19 2025 16:51:31 GMT-0500 (Central Daylight Time),494338.90000003576,025_y_m_n_a.png,O,m,806,7,1,1710.800000011921,492628.10000002384,7168,VNB,C,5
2,prac,2,0.0,2-Back,1,m,Thu Jun 19 2025 16:51:31 GMT-0500 (Central Daylight Time),495305.0,019_m_f_d_a.png,O,m,1,8,1,931.5999999642372,494373.40000003576,7168,VNB,C,6
3,prac,2,0.0,2-Back,1,m,Thu Jun 19 2025 16:51:31 GMT-0500 (Central Daylight Time),497237.0,012_o_f_d_a.png,O,m,965,9,1,1901.5999999642372,495335.40000003576,7168,VNB,C,7
4,prac,2,0.0,2-Back,1,m,Thu Jun 19 2025 16:51:31 GMT-0500 (Central Daylight Time),499020.40000003576,014_m_m_h_a.png,O,m,852,10,1,1764.300000011921,497256.10000002384,7168,VNB,C,8
4,prac,2,1.0,2-Back,0,z,Thu Jun 19 2025 16:51:31 GMT-0500 (Central Daylight Time),501019.6999999881,022_y_f_d_a.png,O,m,1015,11,1,1959.2999999523163,499060.40000003576,7168,VNB,C,9
5,prac,2,0.0,2-Back,1,m,Thu Jun 19 2025 16:51:31 GMT-0500 (Central Daylight Time),503119.0,015_o_m_n_a.png,O,m,1111,12,1,2062.699999988079,501056.3000000119,7168,VNB,C,10
0,test,1,0.0,2-Back,,,Thu Jun 19 2025 16:51:31 GMT-0500 (Central Daylight Time),503119.0,025_y_m_h_a.png,O,space,19401,1,1,2062.699999988079,501056.3000000119,7168,VNB,C,0
0,test,1,0.0,2-Back,,,Thu Jun 19 2025 16:51:31 GMT-0500 (Central Daylight Time),503119.0,012_o_f_n_a.png,O,space,19401,2,1,2062.699999988079,501056.3000000119,7168,VNB,C,0
1,test,1,0.0,2-Back,1,z,Thu Jun 19 2025 16:51:31 GMT-0500 (Central Daylight Time),537674.1999999881,015_o_m_h_a.png,O,z,1259,3,1,2283.2999999523163,535390.9000000358,7168,VNB,C,1
2,test,1,0.0,2-Back,1,m,Thu Jun 19 2025 16:51:31 GMT-0500 (Central Daylight Time),540157.1000000238,019_m_f_d_a.png,O,m,1433,4,1,2454.100000023842,537703.0,7168,VNB,C,2
2,test,1,1.0,2-Back,0,m,Thu Jun 19 2025 16:51:31 GMT-0500 (Central Daylight Time),542339.5,025_y_m_n_a.png,O,z,1117,5,1,2147.300000011921,540192.1999999881,7168,VNB,C,3
2,test,1,0.0,2-Back,0,z,Thu Jun 19 2025 16:51:31 GMT-0500 (Central Daylight Time),544422.0,022_y_f_d_a.png,O,m,1039,6,1,2059.5,542362.5,7168,VNB,C,4
2,test,1,0.0,2-Back,0,m,Thu Jun 19 2025 16:51:31 GMT-0500 (Central Daylight Time),546554.6000000238,014_m_m_h_a.png,O,z,1085,7,1,2103.100000023842,544451.5,7168,VNB,C,5
3,test,1,1.0,2-Back,1,m,Thu Jun 19 2025 16:51:31 GMT-0500 (Central Daylight Time),549203.8000000119,022_y_f_n_a.png,O,m,1609,8,1,2621.100000023842,546582.6999999881,7168,VNB,C,6
3,test,1,0.0,2-Back,0,z,Thu Jun 19 2025 16:51:31 GMT-0500 (Central Daylight Time),551518.6000000238,012_o_f_h_a.png,O,m,1267,9,1,2289.5,549229.1000000238,7168,VNB,C,7
3,test,1,0.0,2-Back,0,m,Thu Jun 19 2025 16:51:31 GMT-0500 (Central Daylight Time),553968.9000000358,015_o_m_d_a.png,O,z,1420,10,1,2442.900000035763,551526.0,7168,VNB,C,8
3,test,1,1.0,2-Back,0,m,Thu Jun 19 2025 16:51:31 GMT-0500 (Central Daylight Time),556184.9000000358,014_m_m_d_a.png,O,z,1178,11,1,2187.900000035763,553997.0,7168,VNB,C,9
4,test,1,0.0,2-Back,1,m,Thu Jun 19 2025 16:51:31 GMT-0500 (Central Daylight Time),558237.9000000358,019_m_f_n_a.png,O,m,994,12,1,2020.300000011921,556217.6000000238,7168,VNB,C,10
5,test,1,0.0,2-Back,1,m,Thu Jun 19 2025 16:51:31 GMT-0500 (Central Daylight Time),560716.6000000238,022_y_f_h_a.png,O,m,1439,13,1,2460.199999988079,558256.4000000358,7168,VNB,C,11
6,test,1,0.0,2-Back,1,z,Thu Jun 19 2025 16:51:31 GMT-0500 (Central Daylight Time),562916.0,014_m_m_n_a.png,O,z,1143,14,1,2172.399999976158,560743.6000000238,7168,VNB,C,12
7,test,1,0.0,2-Back,1,m,Thu Jun 19 2025 16:51:31 GMT-0500 (Central Daylight Time),565414.9000000358,025_y_m_d_a.png,O,m,1462,15,1,2474.400000035763,562940.5,7168,VNB,C,13
8,test,1,1.0,2-Back,1,m,Thu Jun 19 2025 16:51:31 GMT-0500 (Central Daylight Time),567747.5,019_m_f_h_a.png,O,m,1266,16,1,2296.199999988079,565451.3000000119,7168,VNB,C,14
9,test,1,0.0,2-Back,1,z,Thu Jun 19 2025 16:51:31 GMT-0500 (Central Daylight Time),569747.4000000358,012_o_f_d_a.png,O,z,941,17,1,1966.800000011921,567780.6000000238,7168,VNB,C,15
10,test,1,0.0,2-Back,1,m,Thu Jun 19 2025 16:51:31 GMT-0500 (Central Daylight Time),572062.6999999881,015_o_m_n_a.png,O,m,1279,18,1,2290.2999999523163,569772.4000000358,7168,VNB,C,16
0,test,2,0.0,2-Back,,,Thu Jun 19 2025 16:51:31 GMT-0500 (Central Daylight Time),572062.6999999881,014_m_m_h_a.png,O,space,2124,1,1,2290.2999999523163,569772.4000000358,7168,VNB,C,0
0,test,2,0.0,2-Back,,,Thu Jun 19 2025 16:51:31 GMT-0500 (Central Daylight Time),572062.6999999881,022_y_f_n_a.png,O,space,2124,2,1,2290.2999999523163,569772.4000000358,7168,VNB,C,0
0,test,2,1.0,2-Back,0,z,Thu Jun 19 2025 16:51:31 GMT-0500 (Central Daylight Time),581709.5,012_o_f_h_a.png,O,m,1069,3,1,2100.300000011921,579609.1999999881,7168,VNB,C,1
0,test,2,0.0,2-Back,0,m,Thu Jun 19 2025 16:51:31 GMT-0500 (Central Daylight Time),583608.1999999881,015_o_m_d_a.png,O,z,875,4,1,1887.3999999761581,581720.8000000119,7168,VNB,C,2
0,test,2,0.0,2-Back,0,m,Thu Jun 19 2025 16:51:31 GMT-0500 (Central Daylight Time),585525.1999999881,019_m_f_d_a.png,O,z,890,5,1,1910.2999999523163,583614.9000000358,7168,VNB,C,3
1,test,2,0.0,2-Back,1,m,Thu Jun 19 2025 16:51:31 GMT-0500 (Central Daylight Time),587555.9000000358,025_y_m_h_a.png,O,m,956,6,1,2003.7000000476837,585552.1999999881,7168,VNB,C,4
2,test,2,0.0,2-Back,1,m,Thu Jun 19 2025 16:51:31 GMT-0500 (Central Daylight Time),589523.0,012_o_f_n_a.png,O,m,947,7,1,1957.199999988079,587565.8000000119,7168,VNB,C,5
3,test,2,1.0,2-Back,1,z,Thu Jun 19 2025 16:51:31 GMT-0500 (Central Daylight Time),591656.8000000119,015_o_m_h_a.png,O,z,1112,8,1,2128.699999988079,589528.1000000238,7168,VNB,C,6
4,test,2,0.0,2-Back,1,m,Thu Jun 19 2025 16:51:31 GMT-0500 (Central Daylight Time),593838.9000000358,022_y_f_d_a.png,O,m,1145,9,1,2163.2000000476837,591675.6999999881,7168,VNB,C,7
4,test,2,0.0,2-Back,0,m,Thu Jun 19 2025 16:51:31 GMT-0500 (Central Daylight Time),595788.5,025_y_m_d_a.png,O,z,906,10,1,1921.699999988079,593866.8000000119,7168,VNB,C,8
5,test,2,0.0,2-Back,1,m,Thu Jun 19 2025 16:51:31 GMT-0500 (Central Daylight Time),597887.9000000358,014_m_m_n_a.png,O,m,1053,11,1,2073.600000023842,595814.3000000119,7168,VNB,C,9
5,test,2,0.0,2-Back,0,m,Thu Jun 19 2025 16:51:31 GMT-0500 (Central Daylight Time),600203.5,019_m_f_h_a.png,O,z,1273,12,1,2286.5,597917.0,7168,VNB,C,10
6,test,2,1.0,2-Back,1,z,Thu Jun 19 2025 16:51:31 GMT-0500 (Central Daylight Time),602202.9000000358,015_o_m_n_a.png,O,z,950,13,1,1972.6000000238419,600230.3000000119,7168,VNB,C,11
7,test,2,0.0,2-Back,1,m,Thu Jun 19 2025 16:51:31 GMT-0500 (Central Daylight Time),604152.4000000358,012_o_f_d_a.png,O,m,888,14,1,1914.1000000238419,602238.3000000119,7168,VNB,C,12
7,test,2,0.0,2-Back,0,m,Thu Jun 19 2025 16:51:31 GMT-0500 (Central Daylight Time),606134.6999999881,022_y_f_h_a.png,O,z,938,15,1,1951.5999999642372,604183.1000000238,7168,VNB,C,13
8,test,2,0.0,2-Back,1,z,Thu Jun 19 2025 16:51:31 GMT-0500 (Central Daylight Time),608567.6000000238,014_m_m_d_a.png,O,z,1395,16,1,2411.600000023842,606156.0,7168,VNB,C,14
9,test,2,0.0,2-Back,1,m,Thu Jun 19 2025 16:51:31 GMT-0500 (Central Daylight Time),610317.3000000119,025_y_m_n_a.png,O,m,714,17,1,1722.3999999761581,608594.9000000358,7168,VNB,C,15
9,test,2,1.0,2-Back,0,m,Thu Jun 19 2025 16:51:31 GMT-0500 (Central Daylight Time),612681.9000000358,019_m_f_n_a.png,O,z,1323,18,1,2338.300000011921,610343.6000000238,7168,VNB,C,16
0,test,3,1.0,2-Back,,,Thu Jun 19 2025 16:51:31 GMT-0500 (Central Daylight Time),612681.9000000358,015_o_m_n_a.png,O,space,1617,1,1,2338.300000011921,610343.6000000238,7168,VNB,C,0
0,test,3,1.0,2-Back,,,Thu Jun 19 2025 16:51:31 GMT-0500 (Central Daylight Time),612681.9000000358,012_o_f_d_a.png,O,space,1617,2,1,2338.300000011921,610343.6000000238,7168,VNB,C,0
1,test,3,0.0,2-Back,1,m,Thu Jun 19 2025 16:51:31 GMT-0500 (Central Daylight Time),621597.1999999881,022_y_f_h_a.png,O,m,1215,3,1,2220.699999988079,619376.5,7168,VNB,C,1
2,test,3,0.0,2-Back,1,z,Thu Jun 19 2025 16:51:31 GMT-0500 (Central Daylight Time),623462.8000000119,019_m_f_d_a.png,O,z,822,4,1,1842.800000011921,621620.0,7168,VNB,C,2
3,test,3,1.0,2-Back,1,m,Thu Jun 19 2025 16:51:31 GMT-0500 (Central Daylight Time),625562.1999999881,025_y_m_n_a.png,O,m,1030,5,1,2067.399999976158,623494.8000000119,7168,VNB,C,3
3,test,3,0.0,2-Back,0,m,Thu Jun 19 2025 16:51:31 GMT-0500 (Central Daylight Time),627794.5,015_o_m_h_a.png,O,z,1183,6,1,2207.300000011921,625587.1999999881,7168,VNB,C,4
4,test,3,0.0,2-Back,1,z,Thu Jun 19 2025 16:51:31 GMT-0500 (Central Daylight Time),630227.6000000238,022_y_f_n_a.png,O,z,1383,7,1,2404.600000023842,627823.0,7168,VNB,C,5
5,test,3,1.0,2-Back,1,m,Thu Jun 19 2025 16:51:31 GMT-0500 (Central Daylight Time),631993.4000000358,014_m_m_d_a.png,O,m,727,8,1,1738.2000000476837,630255.1999999881,7168,VNB,C,6
5,test,3,0.0,2-Back,0,m,Thu Jun 19 2025 16:51:31 GMT-0500 (Central Daylight Time),634059.3000000119,025_y_m_d_a.png,O,z,1028,9,1,2037.0,632022.3000000119,7168,VNB,C,7
6,test,3,0.0,2-Back,1,m,Thu Jun 19 2025 16:51:31 GMT-0500 (Central Daylight Time),635975.3000000119,012_o_f_h_a.png,O,m,855,10,1,1886.1000000238419,634089.1999999881,7168,VNB,C,8
7,test,3,1.0,2-Back,1,m,Thu Jun 19 2025 16:51:31 GMT-0500 (Central Daylight Time),638191.1999999881,019_m_f_n_a.png,O,m,1178,11,1,2191.199999988079,636000.0,7168,VNB,C,9
7,test,3,1.0,2-Back,0,z,Thu Jun 19 2025 16:51:31 GMT-0500 (Central Daylight Time),640257.0,014_m_m_h_a.png,O,m,1002,12,1,2036.5999999642372,638220.4000000358,7168,VNB,C,10
8,test,3,0.0,2-Back,1,m,Thu Jun 19 2025 16:51:31 GMT-0500 (Central Daylight Time),642123.5,022_y_f_d_a.png,O,m,829,13,1,1855.5999999642372,640267.9000000358,7168,VNB,C,11
9,test,3,0.0,2-Back,1,m,Thu Jun 19 2025 16:51:31 GMT-0500 (Central Daylight Time),644173.3000000119,012_o_f_n_a.png,O,m,998,14,1,2018.6000000238419,642154.6999999881,7168,VNB,C,12
10,test,3,0.0,2-Back,1,z,Thu Jun 19 2025 16:51:31 GMT-0500 (Central Daylight Time),645805.3000000119,015_o_m_d_a.png,O,z,581,15,1,1600.8999999761581,644204.4000000358,7168,VNB,C,13
11,test,3,1.0,2-Back,1,m,Thu Jun 19 2025 16:51:31 GMT-0500 (Central Daylight Time),647788.1000000238,019_m_f_h_a.png,O,m,940,16,1,1959.1000000238419,645829.0,7168,VNB,C,14
12,test,3,0.0,2-Back,1,m,Thu Jun 19 2025 16:51:31 GMT-0500 (Central Daylight Time),649804.6999999881,014_m_m_n_a.png,O,m,965,17,1,1981.2999999523163,647823.4000000358,7168,VNB,C,15
13,test,3,0.0,2-Back,1,z,Thu Jun 19 2025 16:51:31 GMT-0500 (Central Daylight Time),651853.3000000119,025_y_m_h_a.png,O,z,997,18,1,2008.5,649844.8000000119,7168,VNB,C,16
0,test,4,0.0,2-Back,,,Thu Jun 19 2025 16:51:31 GMT-0500 (Central Daylight Time),651853.3000000119,019_m_f_n_a.png,O,space,1581,1,1,2008.5,649844.8000000119,7168,VNB,C,0
0,test,4,0.0,2-Back,,,Thu Jun 19 2025 16:51:31 GMT-0500 (Central Daylight Time),651853.3000000119,015_o_m_n_a.png,O,space,1581,2,1,2008.5,649844.8000000119,7168,VNB,C,0
1,test,4,1.0,2-Back,1,m,Thu Jun 19 2025 16:51:31 GMT-0500 (Central Daylight Time),660916.5,025_y_m_h_a.png,O,m,995,3,1,2005.5,658911.0,7168,VNB,C,1
2,test,4,1.0,2-Back,1,m,Thu Jun 19 2025 16:51:31 GMT-0500 (Central Daylight Time),663099.1999999881,012_o_f_d_a.png,O,m,1149,4,1,2168.099999964237,660931.1000000238,7168,VNB,C,2
3,test,4,0.0,2-Back,1,z,Thu Jun 19 2025 16:51:31 GMT-0500 (Central Daylight Time),664815.8000000119,015_o_m_h_a.png,O,z,689,5,1,1702.8999999761581,663112.9000000358,7168,VNB,C,3
3,test,4,0.0,2-Back,0,m,Thu Jun 19 2025 16:51:31 GMT-0500 (Central Daylight Time),666798.1999999881,014_m_m_n_a.png,O,z,946,6,1,1954.8999999761581,664843.3000000119,7168,VNB,C,4
4,test,4,0.0,2-Back,1,m,Thu Jun 19 2025 16:51:31 GMT-0500 (Central Daylight Time),668564.3000000119,019_m_f_d_a.png,O,m,725,7,1,1750.800000011921,666813.5,7168,VNB,C,5
4,test,4,0.0,2-Back,0,z,Thu Jun 19 2025 16:51:31 GMT-0500 (Central Daylight Time),670497.4000000358,022_y_f_n_a.png,O,m,890,8,1,1903.300000011921,668594.1000000238,7168,VNB,C,6
5,test,4,1.0,2-Back,1,m,Thu Jun 19 2025 16:51:31 GMT-0500 (Central Daylight Time),672630.0,012_o_f_h_a.png,O,m,1088,9,1,2103.5,670526.5,7168,VNB,C,7
5,test,4,0.0,2-Back,0,m,Thu Jun 19 2025 16:51:31 GMT-0500 (Central Daylight Time),674594.9000000358,014_m_m_h_a.png,O,z,915,10,1,1933.4000000357628,672661.5,7168,VNB,C,8
6,test,4,0.0,2-Back,1,m,Thu Jun 19 2025 16:51:31 GMT-0500 (Central Daylight Time),676712.0,022_y_f_d_a.png,O,m,1085,11,1,2106.399999976158,674605.6000000238,7168,VNB,C,9
7,test,4,0.0,2-Back,1,m,Thu Jun 19 2025 16:51:31 GMT-0500 (Central Daylight Time),678927.9000000358,025_y_m_n_a.png,O,m,1178,12,1,2189.400000035763,676738.5,7168,VNB,C,10
8,test,4,0.0,2-Back,1,z,Thu Jun 19 2025 16:51:31 GMT-0500 (Central Daylight Time),681093.6999999881,015_o_m_d_a.png,O,z,1106,13,1,2128.399999976158,678965.3000000119,7168,VNB,C,11
8,test,4,1.0,2-Back,0,m,Thu Jun 19 2025 16:51:31 GMT-0500 (Central Daylight Time),683209.8000000119,019_m_f_h_a.png,O,z,1069,14,1,2087.0,681122.8000000119,7168,VNB,C,12
8,test,4,1.0,2-Back,0,m,Thu Jun 19 2025 16:51:31 GMT-0500 (Central Daylight Time),685093.0,022_y_f_h_a.png,O,z,849,15,1,1856.5999999642372,683236.4000000358,7168,VNB,C,13
9,test,4,0.0,2-Back,1,m,Thu Jun 19 2025 16:51:31 GMT-0500 (Central Daylight Time),686975.0,012_o_f_n_a.png,O,m,821,16,1,1848.300000011921,685126.6999999881,7168,VNB,C,14
10,test,4,0.0,2-Back,1,m,Thu Jun 19 2025 16:51:31 GMT-0500 (Central Daylight Time),688774.5,025_y_m_d_a.png,O,m,739,17,1,1765.8999999761581,687008.6000000238,7168,VNB,C,15
11,test,4,1.0,2-Back,1,m,Thu Jun 19 2025 16:51:31 GMT-0500 (Central Daylight Time),690573.6000000238,014_m_m_d_a.png,O,m,764,18,1,1770.4000000357628,688803.1999999881,7168,VNB,C,16
0,test,5,1.0,2-Back,,,Thu Jun 19 2025 16:51:31 GMT-0500 (Central Daylight Time),690573.6000000238,022_y_f_d_a.png,O,space,1737,1,1,1770.4000000357628,688803.1999999881,7168,VNB,C,0
0,test,5,1.0,2-Back,,,Thu Jun 19 2025 16:51:31 GMT-0500 (Central Daylight Time),690573.6000000238,012_o_f_h_a.png,O,space,1737,2,1,1770.4000000357628,688803.1999999881,7168,VNB,C,0
1,test,5,1.0,2-Back,1,z,Thu Jun 19 2025 16:51:31 GMT-0500 (Central Daylight Time),699887.1999999881,015_o_m_d_a.png,O,z,1104,3,1,2131.699999988079,697755.5,7168,VNB,C,1
2,test,5,1.0,2-Back,1,m,Thu Jun 19 2025 16:51:31 GMT-0500 (Central Daylight Time),701669.9000000358,019_m_f_n_a.png,O,m,746,4,1,1755.2000000476837,699914.6999999881,7168,VNB,C,2
2,test,5,0.0,2-Back,0,m,Thu Jun 19 2025 16:51:31 GMT-0500 (Central Daylight Time),703602.8000000119,014_m_m_h_a.png,O,z,891,5,1,1905.5,701697.3000000119,7168,VNB,C,3
2,test,5,0.0,2-Back,0,z,Thu Jun 19 2025 16:51:31 GMT-0500 (Central Daylight Time),705502.1000000238,022_y_f_n_a.png,O,m,854,6,1,1870.0,703632.1000000238,7168,VNB,C,4
3,test,5,0.0,2-Back,1,m,Thu Jun 19 2025 16:51:31 GMT-0500 (Central Daylight Time),707551.6000000238,012_o_f_d_a.png,O,m,1005,7,1,2028.4000000357628,705523.1999999881,7168,VNB,C,5
4,test,5,0.0,2-Back,1,m,Thu Jun 19 2025 16:51:31 GMT-0500 (Central Daylight Time),709619.6999999881,015_o_m_h_a.png,O,m,1034,8,1,2047.3999999761581,707572.3000000119,7168,VNB,C,6
5,test,5,1.0,2-Back,1,z,Thu Jun 19 2025 16:51:31 GMT-0500 (Central Daylight Time),711300.6000000238,019_m_f_d_a.png,O,z,614,9,1,1649.0,709651.6000000238,7168,VNB,C,7
6,test,5,0.0,2-Back,1,m,Thu Jun 19 2025 16:51:31 GMT-0500 (Central Daylight Time),713099.6999999881,025_y_m_n_a.png,O,m,734,10,1,1767.5999999642372,711332.1000000238,7168,VNB,C,8
6,test,5,0.0,2-Back,0,m,Thu Jun 19 2025 16:51:31 GMT-0500 (Central Daylight Time),715399.1000000238,014_m_m_n_a.png,O,z,1254,11,1,2275.5,713123.6000000238,7168,VNB,C,9
7,test,5,0.0,2-Back,1,m,Thu Jun 19 2025 16:51:31 GMT-0500 (Central Daylight Time),717182.0,022_y_f_h_a.png,O,m,738,12,1,1756.300000011921,715425.6999999881,7168,VNB,C,10
8,test,5,0.0,2-Back,1,m,Thu Jun 19 2025 16:51:31 GMT-0500 (Central Daylight Time),719148.3000000119,025_y_m_d_a.png,O,m,907,13,1,1931.3999999761581,717216.9000000358,7168,VNB,C,11
9,test,5,1.0,2-Back,1,z,Thu Jun 19 2025 16:51:31 GMT-0500 (Central Daylight Time),720830.8000000119,019_m_f_h_a.png,O,z,638,14,1,1658.6000000238419,719172.1999999881,7168,VNB,C,12
10,test,5,0.0,2-Back,1,m,Thu Jun 19 2025 16:51:31 GMT-0500 (Central Daylight Time),722846.6999999881,015_o_m_n_a.png,O,m,955,15,1,1987.0,720859.6999999881,7168,VNB,C,13
11,test,5,0.0,2-Back,1,m,Thu Jun 19 2025 16:51:31 GMT-0500 (Central Daylight Time),724997.4000000358,014_m_m_d_a.png,O,m,1115,16,1,2125.900000035763,722871.5,7168,VNB,C,14
11,test,5,0.0,2-Back,0,z,Thu Jun 19 2025 16:51:31 GMT-0500 (Central Daylight Time),727078.6000000238,012_o_f_n_a.png,O,m,1039,17,1,2053.5,725025.1000000238,7168,VNB,C,15
11,test,5,1.0,2-Back,0,m,Thu Jun 19 2025 16:51:31 GMT-0500 (Central Daylight Time),729245.3000000119,025_y_m_h_a.png,O,z,1133,18,1,2137.300000011921,727108.0,7168,VNB,C,16
