Q,Q1,Q2,Q3,Q4,acc_sum,block,block_c,correct,correct_response,datetime,endtime,project,response,response_time,row_sel,session_number,squiggle1,squiggle1x,squiggle1y,squiggle2,squiggle2x,squiggle2y,squiggle3,squiggle3x,squiggle3y,squiggle4,squiggle4x,squiggle4y,start_end,starttime,subject_id,target_congruent,task,task_vers,testsquiggle,testsquigglex,testsquiggley,time_practice_delay,time_practice_fixation,time_practice_stimuli,time_practice_study,time_test_delay,time_test_fixation,time_test_stimuli,time_test_study,trial
1,1,0,0,0,1,prac,1,1,z,Mon Nov 17 2025 14:50:16 GMT-0600 (Central Standard Time),100646.5,I,z,1450,1,3,116.bmp,-120,-120,117.bmp,120,-120,118.bmp,-120,120,119.bmp,120,120,10277.09999999404,90369.40000000596,8032,yes,SM,A,116.bmp,-120,-120,94515,88488,96532,90501,,,,,1
3,0,0,1,0,2,prac,1,1,m,Mon Nov 17 2025 14:50:16 GMT-0600 (Central Standard Time),110893.40000000596,I,m,1427,2,3,120.bmp,-120,-120,121.bmp,120,-120,122.bmp,-120,120,123.bmp,120,120,10242.300000011921,100651.09999999404,8032,no,SM,A,123.bmp,-120,120,104796,98770,106812,100780,,,,,2
4,0,0,0,1,3,prac,1,1,m,Mon Nov 17 2025 14:50:16 GMT-0600 (Central Standard Time),121073.69999998808,I,m,1264,3,3,124.bmp,-120,-120,125.bmp,120,-120,126.bmp,-120,120,127.bmp,120,120,10176.09999999404,110897.59999999404,8032,no,SM,A,124.bmp,120,120,115142,109016,117159,111139,,,,,3
2,0,1,0,0,4,prac,1,1,z,Mon Nov 17 2025 14:50:16 GMT-0600 (Central Standard Time),131186.80000001192,I,z,1288,4,3,128.bmp,-120,-120,129.bmp,120,-120,130.bmp,-120,120,131.bmp,120,120,10107.800000011921,121079.0,8032,yes,SM,A,129.bmp,120,-120,125223,119197,127239,121208,,,,,4
3,0,0,1,0,5,prac,1,1,z,Mon Nov 17 2025 14:50:16 GMT-0600 (Central Standard Time),141666.80000001192,I,z,1663,5,3,132.bmp,-120,-120,133.bmp,120,-120,134.bmp,-120,120,135.bmp,120,120,10476.300000011921,131190.5,8032,yes,SM,A,134.bmp,-120,120,135336,129309,137352,131321,,,,,5
1,1,0,0,0,6,prac,1,1,m,Mon Nov 17 2025 14:50:16 GMT-0600 (Central Standard Time),151680.19999998808,I,m,1199,6,3,136.bmp,-120,-120,137.bmp,120,-120,138.bmp,-120,120,139.bmp,120,120,10008.899999976158,141671.30000001192,8032,no,SM,A,139.bmp,-120,-120,145816,139789,147832,141801,,,,,6
2,0,1,0,0,7,prac,1,1,m,Mon Nov 17 2025 14:50:16 GMT-0600 (Central Standard Time),161610.5,I,m,1113,7,3,140.bmp,-120,-120,141.bmp,120,-120,142.bmp,-120,120,143.bmp,120,120,9926.90000000596,151683.59999999404,8032,no,SM,A,140.bmp,120,-120,155830,149802,157846,151814,,,,,7
4,0,0,0,1,7,prac,1,0,z,Mon Nov 17 2025 14:50:16 GMT-0600 (Central Standard Time),171690.69999998808,I,m,1255,8,3,144.bmp,-120,-120,145.bmp,120,-120,146.bmp,-120,120,147.bmp,120,120,10075.399999976158,161615.30000001192,8032,yes,SM,A,147.bmp,120,120,165760,159734,167776,161745,,,,,8
4,0,0,0,1,1,test,1,1,m,Mon Nov 17 2025 14:50:16 GMT-0600 (Central Standard Time),195983.0,I,m,902,1,3,148.bmp,-120,-120,149.bmp,120,-120,150.bmp,-120,120,143.bmp,120,120,8961.300000011921,187021.69999998808,8032,no,SM,A,150.bmp,120,120,165760,159734,167776,161745,191169.0,185140.0,193185.0,187153.0,1
2,0,1,0,0,2,test,1,1,m,Mon Nov 17 2025 14:50:16 GMT-0600 (Central Standard Time),205196.80000001192,I,m,1162,2,3,101.bmp,-120,-120,102.bmp,120,-120,103.bmp,-120,120,104.bmp,120,120,9210.200000017881,195986.59999999404,8032,no,SM,A,103.bmp,120,-120,165760,159734,167776,161745,200133.0,194105.0,202149.0,196117.0,2
1,1,0,0,0,2,test,1,0,z,Mon Nov 17 2025 14:50:16 GMT-0600 (Central Standard Time),215277.0,I,None,2016,3,3,105.bmp,-120,-120,106.bmp,120,-120,107.bmp,-120,120,108.bmp,120,120,10076.59999999404,205200.40000000596,8032,yes,SM,A,105.bmp,-120,-120,165760,159734,167776,161745,209363.0,203319.0,211379.0,205356.0,3
3,0,0,1,0,3,test,1,1,m,Mon Nov 17 2025 14:50:16 GMT-0600 (Central Standard Time),225107.19999998808,I,m,1781,4,3,109.bmp,-120,-120,110.bmp,120,-120,111.bmp,-120,120,112.bmp,120,120,9826.09999999404,215281.09999999404,8032,no,SM,A,109.bmp,-120,120,165760,159734,167776,161745,219427.0,213399.0,221443.0,215412.0,4
2,0,1,0,0,4,test,1,1,z,Mon Nov 17 2025 14:50:16 GMT-0600 (Central Standard Time),234654.40000000596,I,z,1495,5,3,113.bmp,-120,-120,114.bmp,120,-120,115.bmp,-120,120,116.bmp,120,120,9543.700000017881,225110.69999998808,8032,yes,SM,A,114.bmp,120,-120,165760,159734,167776,161745,229257.0,223229.0,231273.0,225242.0,5
3,0,0,1,0,5,test,1,1,z,Mon Nov 17 2025 14:50:16 GMT-0600 (Central Standard Time),243984.90000000596,I,z,1267,6,3,117.bmp,-120,-120,118.bmp,120,-120,119.bmp,-120,120,120.bmp,120,120,9327.300000011921,234657.59999999404,8032,yes,SM,A,119.bmp,-120,120,165760,159734,167776,161745,238804.0,232776.0,240820.0,234789.0,6
4,0,0,0,1,6,test,1,1,z,Mon Nov 17 2025 14:50:16 GMT-0600 (Central Standard Time),253232.0,I,z,1193,7,3,121.bmp,-120,-120,122.bmp,120,-120,123.bmp,-120,120,124.bmp,120,120,9243.90000000596,243988.09999999404,8032,yes,SM,A,124.bmp,120,120,165760,159734,167776,161745,248134.0,242106.0,250150.0,244119.0,7
2,0,1,0,0,7,test,1,1,m,Mon Nov 17 2025 14:50:16 GMT-0600 (Central Standard Time),262345.59999999404,I,m,1051,8,3,125.bmp,-120,-120,126.bmp,120,-120,127.bmp,-120,120,128.bmp,120,120,9110.199999988079,253235.40000000596,8032,no,SM,A,125.bmp,120,-120,165760,159734,167776,161745,257382.0,251354.0,259397.0,253366.0,8
3,0,0,1,0,8,test,1,1,m,Mon Nov 17 2025 14:50:16 GMT-0600 (Central Standard Time),271509.40000000596,I,m,1112,9,3,129.bmp,-120,-120,130.bmp,120,-120,131.bmp,-120,120,132.bmp,120,120,9160.700000017881,262348.6999999881,8032,no,SM,A,130.bmp,-120,120,165760,159734,167776,161745,266497.0,260467.0,268511.0,262480.0,9
4,0,0,0,1,9,test,1,1,z,Mon Nov 17 2025 14:50:16 GMT-0600 (Central Standard Time),281173.09999999404,I,z,1612,10,3,137.bmp,-120,-120,138.bmp,120,-120,139.bmp,-120,120,140.bmp,120,120,9660.40000000596,271512.6999999881,8032,yes,SM,A,140.bmp,120,120,165760,159734,167776,161745,275659.0,269631.0,277675.0,271644.0,10
3,0,0,1,0,10,test,1,1,z,Mon Nov 17 2025 14:50:16 GMT-0600 (Central Standard Time),290803.3000000119,I,z,1572,11,3,133.bmp,-120,-120,134.bmp,120,-120,135.bmp,-120,120,136.bmp,120,120,9625.600000023842,281177.6999999881,8032,yes,SM,A,135.bmp,-120,120,165760,159734,167776,161745,285323.0,279296.0,287339.0,281308.0,11
2,0,1,0,0,11,test,1,1,m,Mon Nov 17 2025 14:50:16 GMT-0600 (Central Standard Time),299884.0,I,m,1030,12,3,141.bmp,-120,-120,142.bmp,120,-120,143.bmp,-120,120,144.bmp,120,120,9077.09999999404,290806.90000000596,8032,no,SM,A,141.bmp,120,-120,165760,159734,167776,161745,294953.0,288925.0,296969.0,290938.0,12
3,0,0,1,0,12,test,1,1,m,Mon Nov 17 2025 14:50:16 GMT-0600 (Central Standard Time),308881.09999999404,I,m,949,13,3,145.bmp,-120,-120,146.bmp,120,-120,147.bmp,-120,120,148.bmp,120,120,8993.09999999404,299888.0,8032,no,SM,A,146.bmp,-120,120,165760,159734,167776,161745,304033.0,298006.0,306050.0,300018.0,13
1,1,0,0,0,13,test,1,1,z,Mon Nov 17 2025 14:50:16 GMT-0600 (Central Standard Time),318228.1999999881,I,z,1288,14,3,149.bmp,-120,-120,150.bmp,120,-120,104.bmp,-120,120,101.bmp,120,120,9342.899999976158,308885.3000000119,8032,yes,SM,A,149.bmp,-120,-120,165760,159734,167776,161745,313031.0,307003.0,315047.0,309015.0,14
4,0,0,0,1,13,test,1,0,m,Mon Nov 17 2025 14:50:16 GMT-0600 (Central Standard Time),328291.6999999881,I,None,2016,15,3,110.bmp,-120,-120,111.bmp,120,-120,112.bmp,-120,120,113.bmp,120,120,10058.59999999404,318233.09999999404,8032,no,SM,A,111.bmp,120,120,165760,159734,167776,161745,322378.0,316351.0,324394.0,318363.0,15
1,1,0,0,0,14,test,1,1,m,Mon Nov 17 2025 14:50:16 GMT-0600 (Central Standard Time),337455.40000000596,I,m,1110,16,3,102.bmp,-120,-120,103.bmp,120,-120,104.bmp,-120,120,105.bmp,120,120,9160.200000017881,328295.1999999881,8032,no,SM,A,105.bmp,-120,-120,165760,159734,167776,161745,332441.0,326414.0,334457.0,328426.0,16
3,0,0,1,0,15,test,1,1,m,Mon Nov 17 2025 14:50:16 GMT-0600 (Central Standard Time),347218.90000000596,I,m,1706,17,3,122.bmp,-120,-120,123.bmp,120,-120,124.bmp,-120,120,125.bmp,120,120,9760.09999999404,337458.8000000119,8032,no,SM,A,122.bmp,-120,120,165760,159734,167776,161745,341605.0,335577.0,343621.0,337590.0,17
1,1,0,0,0,16,test,1,1,z,Mon Nov 17 2025 14:50:16 GMT-0600 (Central Standard Time),356632.6999999881,I,z,1350,18,3,106.bmp,-120,-120,107.bmp,120,-120,108.bmp,-120,120,109.bmp,120,120,9410.09999999404,347222.59999999404,8032,yes,SM,A,106.bmp,-120,-120,165760,159734,167776,161745,351369.0,345341.0,353385.0,347354.0,18
2,0,1,0,0,17,test,1,1,z,Mon Nov 17 2025 14:50:16 GMT-0600 (Central Standard Time),365996.5,I,z,1304,19,3,126.bmp,-120,-120,127.bmp,120,-120,128.bmp,-120,120,129.bmp,120,120,9358.90000000596,356637.59999999404,8032,yes,SM,A,127.bmp,120,-120,165760,159734,167776,161745,360782.0,354756.0,362798.0,356767.0,19
3,0,0,1,0,18,test,1,1,z,Mon Nov 17 2025 14:50:16 GMT-0600 (Central Standard Time),375460.40000000596,I,z,1404,20,3,130.bmp,-120,-120,131.bmp,120,-120,132.bmp,-120,120,133.bmp,120,120,9460.40000000596,366000.0,8032,yes,SM,A,132.bmp,-120,120,165760,159734,167776,161745,370146.0,364118.0,372163.0,366131.0,20
1,1,0,0,0,19,test,1,1,m,Mon Nov 17 2025 14:50:16 GMT-0600 (Central Standard Time),384740.6999999881,I,m,1229,21,3,114.bmp,-120,-120,115.bmp,120,-120,116.bmp,-120,120,117.bmp,120,120,9276.899999976158,375463.8000000119,8032,no,SM,A,116.bmp,-120,-120,165760,159734,167776,161745,379610.0,373582.0,381626.0,375595.0,21
4,0,0,0,1,20,test,1,1,z,Mon Nov 17 2025 14:50:16 GMT-0600 (Central Standard Time),394321.0,I,z,1525,22,3,118.bmp,-120,-120,119.bmp,120,-120,120.bmp,-120,120,121.bmp,120,120,9577.300000011921,384743.6999999881,8032,yes,SM,A,121.bmp,120,120,165760,159734,167776,161745,388890.0,382862.0,390906.0,384876.0,22
1,1,0,0,0,21,test,1,1,m,Mon Nov 17 2025 14:50:16 GMT-0600 (Central Standard Time),403384.8000000119,I,m,1009,23,3,134.bmp,-120,-120,135.bmp,120,-120,136.bmp,-120,120,137.bmp,120,120,9060.800000011921,394324.0,8032,no,SM,A,137.bmp,-120,-120,165760,159734,167776,161745,398471.0,392442.0,400487.0,394455.0,23
2,0,1,0,0,22,test,1,1,z,Mon Nov 17 2025 14:50:16 GMT-0600 (Central Standard Time),412648.40000000596,I,z,1208,24,3,142.bmp,-120,-120,143.bmp,120,-120,144.bmp,-120,120,145.bmp,120,120,9260.5,403387.90000000596,8032,yes,SM,A,143.bmp,120,-120,165760,159734,167776,161745,407534.0,401506.0,409551.0,403520.0,24
4,0,0,0,1,23,test,1,1,m,Mon Nov 17 2025 14:50:16 GMT-0600 (Central Standard Time),421845.90000000596,I,m,1145,25,3,146.bmp,-120,-120,147.bmp,120,-120,148.bmp,-120,120,149.bmp,120,120,9194.300000011921,412651.59999999404,8032,no,SM,A,148.bmp,120,120,165760,159734,167776,161745,416798.0,410770.0,418814.0,412783.0,25
1,1,0,0,0,24,test,1,1,z,Mon Nov 17 2025 14:50:16 GMT-0600 (Central Standard Time),431559.09999999404,I,z,1660,26,3,138.bmp,-120,-120,139.bmp,120,-120,140.bmp,-120,120,141.bmp,120,120,9709.90000000596,421849.1999999881,8032,yes,SM,A,138.bmp,-120,-120,165760,159734,167776,161745,425995.0,419967.0,428011.0,421980.0,26
4,0,0,0,1,25,test,1,1,z,Mon Nov 17 2025 14:50:16 GMT-0600 (Central Standard Time),440473.1999999881,I,z,866,27,3,150.bmp,-120,-120,111.bmp,120,-120,101.bmp,-120,120,102.bmp,120,120,8909.799999982119,431563.40000000596,8032,yes,SM,A,102.bmp,120,120,165760,159734,167776,161745,435711.0,429682.0,437725.0,431693.0,27
3,0,0,1,0,26,test,1,1,m,Mon Nov 17 2025 14:50:16 GMT-0600 (Central Standard Time),449987.0,I,m,1456,28,3,103.bmp,-120,-120,104.bmp,120,-120,105.bmp,-120,120,106.bmp,120,120,9510.699999988079,440476.3000000119,8032,no,SM,A,103.bmp,-120,120,165760,159734,167776,161745,444623.0,438595.0,446639.0,440608.0,28
2,0,1,0,0,27,test,1,1,z,Mon Nov 17 2025 14:50:16 GMT-0600 (Central Standard Time),459167.1999999881,I,z,1126,29,3,107.bmp,-120,-120,108.bmp,120,-120,109.bmp,-120,120,110.bmp,120,120,9176.199999988079,449991.0,8032,yes,SM,A,108.bmp,120,-120,165760,159734,167776,161745,454137.0,448109.0,456153.0,450121.0,29
3,0,0,1,0,28,test,1,1,z,Mon Nov 17 2025 14:50:16 GMT-0600 (Central Standard Time),468597.90000000596,I,z,1379,30,3,111.bmp,-120,-120,112.bmp,120,-120,113.bmp,-120,120,114.bmp,120,120,9427.5,459170.40000000596,8032,yes,SM,A,113.bmp,-120,120,165760,159734,167776,161745,463317.0,457289.0,465333.0,459302.0,30
1,1,0,0,0,28,test,1,0,z,Mon Nov 17 2025 14:50:16 GMT-0600 (Central Standard Time),478661.1999999881,I,None,2016,31,3,115.bmp,-120,-120,116.bmp,120,-120,117.bmp,-120,120,118.bmp,120,120,10058.199999988079,468603.0,8032,yes,SM,A,115.bmp,-120,-120,165760,159734,167776,161745,472748.0,466722.0,474763.0,468732.0,31
2,0,1,0,0,29,test,1,1,m,Mon Nov 17 2025 14:50:16 GMT-0600 (Central Standard Time),487875.0,I,m,1156,32,3,119.bmp,-120,-120,120.bmp,120,-120,121.bmp,-120,120,122.bmp,120,120,9210.699999988079,478664.3000000119,8032,no,SM,A,119.bmp,120,-120,165760,159734,167776,161745,482811.0,476783.0,484827.0,478796.0,32
4,0,0,0,1,29,test,1,0,z,Mon Nov 17 2025 14:50:16 GMT-0600 (Central Standard Time),497971.90000000596,I,None,2016,33,3,131.bmp,-120,-120,132.bmp,120,-120,133.bmp,-120,120,134.bmp,120,120,10093.5,487878.40000000596,8032,yes,SM,A,134.bmp,120,120,165760,159734,167776,161745,492058.0,485997.0,494074.0,488055.0,33
2,0,1,0,0,30,test,1,1,z,Mon Nov 17 2025 14:50:16 GMT-0600 (Central Standard Time),506969.40000000596,I,z,933,34,3,123.bmp,-120,-120,124.bmp,120,-120,125.bmp,-120,120,126.bmp,120,120,8994.300000011921,497975.09999999404,8032,yes,SM,A,124.bmp,120,-120,165760,159734,167776,161745,502121.0,496093.0,504138.0,498106.0,34
4,0,0,0,1,31,test,1,1,m,Mon Nov 17 2025 14:50:16 GMT-0600 (Central Standard Time),516399.3000000119,I,m,1368,35,3,127.bmp,-120,-120,128.bmp,120,-120,129.bmp,-120,120,130.bmp,120,120,9424.600000023842,506974.6999999881,8032,no,SM,A,129.bmp,120,120,165760,159734,167776,161745,511119.0,505093.0,513135.0,507104.0,35
3,0,0,1,0,31,test,1,0,m,Mon Nov 17 2025 14:50:16 GMT-0600 (Central Standard Time),526463.099999994,I,None,2016,36,3,135.bmp,-120,-120,136.bmp,120,-120,137.bmp,-120,120,138.bmp,120,120,10060.699999988079,516402.40000000596,8032,no,SM,A,135.bmp,-120,120,165760,159734,167776,161745,520550.0,514521.0,522565.0,516534.0,36
1,1,0,0,0,32,test,1,1,m,Mon Nov 17 2025 14:50:16 GMT-0600 (Central Standard Time),535643.1999999881,I,m,1130,37,3,139.bmp,-120,-120,140.bmp,120,-120,141.bmp,-120,120,142.bmp,120,120,9176.699999988079,526466.5,8032,no,SM,A,140.bmp,-120,-120,165760,159734,167776,161745,530613.0,524585.0,532629.0,526597.0,37
2,0,1,0,0,33,test,1,1,m,Mon Nov 17 2025 14:50:16 GMT-0600 (Central Standard Time),544823.8000000119,I,m,1127,38,3,143.bmp,-120,-120,144.bmp,120,-120,145.bmp,-120,120,146.bmp,120,120,9176.800000011921,535647.0,8032,no,SM,A,145.bmp,120,-120,165760,159734,167776,161745,539793.0,533765.0,541809.0,535778.0,38
4,0,0,0,1,34,test,1,1,z,Mon Nov 17 2025 14:50:16 GMT-0600 (Central Standard Time),554221.0,I,z,1345,39,3,147.bmp,-120,-120,148.bmp,120,-120,149.bmp,-120,120,150.bmp,120,120,9392.699999988079,544828.3000000119,8032,yes,SM,A,150.bmp,120,120,165760,159734,167776,161745,548973.0,542947.0,550990.0,544958.0,39
3,0,0,1,0,35,test,1,1,m,Mon Nov 17 2025 14:50:16 GMT-0600 (Central Standard Time),563318.1999999881,I,m,1037,40,3,104.bmp,-120,-120,105.bmp,120,-120,106.bmp,-120,120,107.bmp,120,120,9093.59999999404,554224.599999994,8032,no,SM,A,105.bmp,-120,120,165760,159734,167776,161745,558371.0,552343.0,560387.0,554355.0,40
1,1,0,0,0,36,test,1,1,z,Mon Nov 17 2025 14:50:16 GMT-0600 (Central Standard Time),572481.8000000119,I,z,1115,41,3,108.bmp,-120,-120,109.bmp,120,-120,110.bmp,-120,120,111.bmp,120,120,9160.100000023842,563321.6999999881,8032,yes,SM,A,108.bmp,-120,-120,165760,159734,167776,161745,567468.0,561440.0,569484.0,563452.0,41
4,0,0,0,1,37,test,1,1,z,Mon Nov 17 2025 14:50:16 GMT-0600 (Central Standard Time),581928.8000000119,I,z,1383,42,3,112.bmp,-120,-120,113.bmp,120,-120,114.bmp,-120,120,115.bmp,120,120,9443.700000017881,572485.099999994,8032,yes,SM,A,115.bmp,120,120,165760,159734,167776,161745,576632.0,570603.0,578648.0,572616.0,42
1,1,0,0,0,38,test,1,1,z,Mon Nov 17 2025 14:50:16 GMT-0600 (Central Standard Time),591226.0,I,z,1240,43,3,116.bmp,-120,-120,117.bmp,120,-120,118.bmp,-120,120,119.bmp,120,120,9293.90000000596,581932.099999994,8032,yes,SM,A,116.bmp,-120,-120,165760,159734,167776,161745,586079.0,580050.0,588095.0,582063.0,43
4,0,0,0,1,39,test,1,1,m,Mon Nov 17 2025 14:50:16 GMT-0600 (Central Standard Time),600256.599999994,I,m,974,44,3,104.bmp,-120,-120,101.bmp,120,-120,102.bmp,-120,120,103.bmp,120,120,9027.5,591229.099999994,8032,no,SM,A,104.bmp,120,120,165760,159734,167776,161745,595376.0,589348.0,597393.0,591360.0,44
1,1,0,0,0,40,test,1,1,m,Mon Nov 17 2025 14:50:16 GMT-0600 (Central Standard Time),609453.6999999881,I,m,1145,45,3,128.bmp,-120,-120,129.bmp,120,-120,130.bmp,-120,120,131.bmp,120,120,9194.09999999404,600259.599999994,8032,no,SM,A,131.bmp,-120,-120,165760,159734,167776,161745,604406.0,598378.0,606422.0,600391.0,45
1,1,0,0,0,41,test,1,1,m,Mon Nov 17 2025 14:50:16 GMT-0600 (Central Standard Time),618617.599999994,I,m,1100,46,3,120.bmp,-120,-120,121.bmp,120,-120,122.bmp,-120,120,123.bmp,120,120,9161.09999999404,609456.5,8032,no,SM,A,121.bmp,-120,-120,165760,159734,167776,161745,613604.0,607575.0,615619.0,609588.0,46
3,0,0,1,0,42,test,1,1,z,Mon Nov 17 2025 14:50:16 GMT-0600 (Central Standard Time),628065.5,I,z,1393,47,3,124.bmp,-120,-120,125.bmp,120,-120,126.bmp,-120,120,127.bmp,120,120,9444.699999988079,618620.8000000119,8032,yes,SM,A,126.bmp,-120,120,165760,159734,167776,161745,622767.0,616739.0,624783.0,618752.0,47
3,0,0,1,0,43,test,1,1,z,Mon Nov 17 2025 14:50:16 GMT-0600 (Central Standard Time),637245.099999994,I,z,1120,48,3,140.bmp,-120,-120,141.bmp,120,-120,142.bmp,-120,120,143.bmp,120,120,9176.59999999404,628068.5,8032,yes,SM,A,142.bmp,-120,120,165760,159734,167776,161745,632215.0,626187.0,634231.0,628199.0,48
2,0,1,0,0,44,test,1,1,z,Mon Nov 17 2025 14:50:16 GMT-0600 (Central Standard Time),647275.0,I,z,1973,49,3,136.bmp,-120,-120,137.bmp,120,-120,138.bmp,-120,120,139.bmp,120,120,10026.199999988079,637248.8000000119,8032,yes,SM,A,137.bmp,120,-120,165760,159734,167776,161745,641395.0,635367.0,643411.0,637380.0,49
3,0,0,1,0,45,test,1,1,m,Mon Nov 17 2025 14:50:16 GMT-0600 (Central Standard Time),656638.8000000119,I,m,1302,50,3,132.bmp,-120,-120,133.bmp,120,-120,134.bmp,-120,120,135.bmp,120,120,9360.600000023842,647278.1999999881,8032,no,SM,A,132.bmp,-120,120,165760,159734,167776,161745,651425.0,645396.0,653441.0,647410.0,50
2,0,1,0,0,46,test,1,1,z,Mon Nov 17 2025 14:50:16 GMT-0600 (Central Standard Time),666085.8000000119,I,z,1387,51,3,144.bmp,-120,-120,145.bmp,120,-120,146.bmp,-120,120,147.bmp,120,120,9444.0,656641.8000000119,8032,yes,SM,A,145.bmp,120,-120,165760,159734,167776,161745,660788.0,654760.0,662805.0,656773.0,51
4,0,0,0,1,47,test,1,1,m,Mon Nov 17 2025 14:50:16 GMT-0600 (Central Standard Time),675299.599999994,I,m,1165,52,3,148.bmp,-120,-120,149.bmp,120,-120,150.bmp,-120,120,131.bmp,120,120,9210.699999988079,666088.900000006,8032,no,SM,A,148.bmp,120,120,165760,159734,167776,161745,670235.0,664207.0,672251.0,666220.0,52
3,0,0,1,0,47,test,1,0,z,Mon Nov 17 2025 14:50:16 GMT-0600 (Central Standard Time),685363.400000006,I,None,2015,53,3,101.bmp,-120,-120,102.bmp,120,-120,103.bmp,-120,120,104.bmp,120,120,10060.90000000596,675302.5,8032,yes,SM,A,103.bmp,-120,120,165760,159734,167776,161745,679449.0,673421.0,681465.0,675434.0,53
1,1,0,0,0,48,test,1,1,m,Mon Nov 17 2025 14:50:16 GMT-0600 (Central Standard Time),695060.400000006,I,m,1639,54,3,105.bmp,-120,-120,106.bmp,120,-120,107.bmp,-120,120,108.bmp,120,120,9693.5,685366.900000006,8032,no,SM,A,107.bmp,-120,-120,165760,159734,167776,161745,689513.0,683485.0,691529.0,685498.0,54
4,0,0,0,1,49,test,1,1,z,Mon Nov 17 2025 14:50:16 GMT-0600 (Central Standard Time),704440.599999994,I,z,1316,55,3,109.bmp,-120,-120,110.bmp,120,-120,111.bmp,-120,120,112.bmp,120,120,9377.0,695063.599999994,8032,yes,SM,A,112.bmp,120,120,165760,159734,167776,161745,699210.0,693182.0,701227.0,695194.0,55
2,0,1,0,0,50,test,1,1,m,Mon Nov 17 2025 14:50:16 GMT-0600 (Central Standard Time),713488.0,I,m,993,56,3,113.bmp,-120,-120,114.bmp,120,-120,115.bmp,-120,120,116.bmp,120,120,9044.0,704444.0,8032,no,SM,A,113.bmp,120,-120,165760,159734,167776,161745,708591.0,702562.0,710606.0,704575.0,56
4,0,0,0,1,51,test,1,1,m,Mon Nov 17 2025 14:50:16 GMT-0600 (Central Standard Time),722951.5,I,m,1401,57,3,117.bmp,-120,-120,118.bmp,120,-120,119.bmp,-120,120,120.bmp,120,120,9460.699999988079,713490.8000000119,8032,no,SM,A,118.bmp,120,120,165760,159734,167776,161745,717637.0,711609.0,719654.0,713622.0,57
3,0,0,1,0,52,test,1,1,z,Mon Nov 17 2025 14:50:16 GMT-0600 (Central Standard Time),732165.400000006,I,z,1163,58,3,121.bmp,-120,-120,122.bmp,120,-120,123.bmp,-120,120,124.bmp,120,120,9210.700000017881,722954.6999999881,8032,yes,SM,A,123.bmp,-120,120,165760,159734,167776,161745,727101.0,721073.0,729117.0,723086.0,58
2,0,1,0,0,53,test,1,1,m,Mon Nov 17 2025 14:50:16 GMT-0600 (Central Standard Time),741462.3000000119,I,m,1236,59,3,125.bmp,-120,-120,126.bmp,120,-120,127.bmp,-120,120,128.bmp,120,120,9293.800000011921,732168.5,8032,no,SM,A,128.bmp,120,-120,165760,159734,167776,161745,736315.0,730287.0,738331.0,732300.0,59
1,1,0,0,0,54,test,1,1,z,Mon Nov 17 2025 14:50:16 GMT-0600 (Central Standard Time),751159.1999999881,I,z,1636,60,3,129.bmp,-120,-120,130.bmp,120,-120,131.bmp,-120,120,132.bmp,120,120,9694.0,741465.1999999881,8032,yes,SM,A,129.bmp,-120,-120,165760,159734,167776,161745,745612.0,739583.0,747628.0,741597.0,60
2,0,1,0,0,55,test,1,1,z,Mon Nov 17 2025 14:50:16 GMT-0600 (Central Standard Time),760439.599999994,I,z,1227,61,3,133.bmp,-120,-120,134.bmp,120,-120,135.bmp,-120,120,136.bmp,120,120,9276.799999982119,751162.8000000119,8032,yes,SM,A,134.bmp,120,-120,165760,159734,167776,161745,755309.0,749281.0,757325.0,751294.0,61
4,0,0,0,1,56,test,1,1,z,Mon Nov 17 2025 14:50:16 GMT-0600 (Central Standard Time),769736.900000006,I,z,1242,62,3,141.bmp,-120,-120,142.bmp,120,-120,143.bmp,-120,120,144.bmp,120,120,9293.90000000596,760443.0,8032,yes,SM,A,144.bmp,120,120,165760,159734,167776,161745,764589.0,758561.0,766606.0,760574.0,62
1,1,0,0,0,57,test,1,1,m,Mon Nov 17 2025 14:50:16 GMT-0600 (Central Standard Time),779100.599999994,I,m,1313,63,3,145.bmp,-120,-120,146.bmp,120,-120,147.bmp,-120,120,148.bmp,120,120,9360.5,769740.099999994,8032,no,SM,A,145.bmp,-120,120,165760,159734,167776,161745,773886.0,767858.0,775903.0,769871.0,63
2,0,1,0,0,58,test,1,1,z,Mon Nov 17 2025 14:50:16 GMT-0600 (Central Standard Time),788414.3000000119,I,z,1253,64,3,149.bmp,-120,-120,150.bmp,120,-120,112.bmp,-120,120,101.bmp,120,120,9310.600000023842,779103.6999999881,8032,yes,SM,A,150.bmp,120,-120,165760,159734,167776,161745,783250.0,777222.0,785266.0,779235.0,64
4,0,0,0,1,59,test,1,1,m,Mon Nov 17 2025 14:50:16 GMT-0600 (Central Standard Time),797511.400000006,I,m,1035,65,3,102.bmp,-120,-120,103.bmp,120,-120,104.bmp,-120,120,105.bmp,120,120,9094.200000017881,788417.1999999881,8032,no,SM,A,104.bmp,120,120,165760,159734,167776,161745,792564.0,786535.0,794580.0,788549.0,65
3,0,0,1,0,60,test,1,1,m,Mon Nov 17 2025 14:50:16 GMT-0600 (Central Standard Time),806825.0,I,m,1258,66,3,106.bmp,-120,-120,107.bmp,120,-120,108.bmp,-120,120,109.bmp,120,120,9310.40000000596,797514.599999994,8032,no,SM,A,109.bmp,-120,120,165760,159734,167776,161745,801661.0,795633.0,803677.0,797646.0,66
2,0,1,0,0,61,test,1,1,m,Mon Nov 17 2025 14:50:16 GMT-0600 (Central Standard Time),815922.400000006,I,m,1041,67,3,137.bmp,-120,-120,138.bmp,120,-120,139.bmp,-120,120,140.bmp,120,120,9094.59999999404,806827.8000000119,8032,no,SM,A,139.bmp,120,-120,165760,159734,167776,161745,810975.0,804946.0,812991.0,806959.0,67
3,0,0,1,0,62,test,1,1,z,Mon Nov 17 2025 14:50:16 GMT-0600 (Central Standard Time),825319.3000000119,I,z,1343,68,3,110.bmp,-120,-120,111.bmp,120,-120,112.bmp,-120,120,113.bmp,120,120,9394.200000017881,815925.099999994,8032,yes,SM,A,112.bmp,-120,120,165760,159734,167776,161745,820072.0,814043.0,822088.0,816057.0,68
1,1,0,0,0,63,test,1,1,m,Mon Nov 17 2025 14:50:16 GMT-0600 (Central Standard Time),834466.8000000119,I,m,1090,69,3,114.bmp,-120,-120,115.bmp,120,-120,116.bmp,-120,120,117.bmp,120,120,9144.5,825322.3000000119,8032,no,SM,A,115.bmp,-120,-120,165760,159734,167776,161745,829469.0,823441.0,831485.0,825454.0,69
2,0,1,0,0,64,test,1,1,m,Mon Nov 17 2025 14:50:16 GMT-0600 (Central Standard Time),843525.599999994,I,m,996,70,3,118.bmp,-120,-120,119.bmp,120,-120,120.bmp,-120,120,121.bmp,120,120,9056.09999999404,834469.5,8032,no,SM,A,120.bmp,120,-120,165760,159734,167776,161745,838616.0,832588.0,840632.0,834601.0,70
4,0,0,0,1,65,test,1,1,z,Mon Nov 17 2025 14:50:16 GMT-0600 (Central Standard Time),853294.1999999881,I,z,1728,71,3,122.bmp,-120,-120,123.bmp,120,-120,124.bmp,-120,120,125.bmp,120,120,9765.0,843529.1999999881,8032,yes,SM,A,125.bmp,120,120,165760,159734,167776,161745,847664.0,841647.0,849679.0,843648.0,71
1,1,0,0,0,66,test,1,1,z,Mon Nov 17 2025 14:50:16 GMT-0600 (Central Standard Time),862891.099999994,I,z,1547,72,3,126.bmp,-120,-120,127.bmp,120,-120,128.bmp,-120,120,129.bmp,120,120,9593.699999988079,853297.400000006,8032,yes,SM,A,126.bmp,-120,-120,165760,159734,167776,161745,857444.0,851416.0,859460.0,853429.0,72
2,0,1,0,0,67,test,1,1,z,Mon Nov 17 2025 14:50:16 GMT-0600 (Central Standard Time),872004.6999999881,I,z,1063,73,3,130.bmp,-120,-120,131.bmp,120,-120,132.bmp,-120,120,133.bmp,120,120,9110.59999999404,862894.099999994,8032,yes,SM,A,131.bmp,120,-120,165760,159734,167776,161745,867041.0,861012.0,869057.0,863026.0,73
4,0,0,0,1,68,test,1,1,m,Mon Nov 17 2025 14:50:16 GMT-0600 (Central Standard Time),881435.3000000119,I,m,1373,74,3,134.bmp,-120,-120,135.bmp,120,-120,136.bmp,-120,120,137.bmp,120,120,9427.0,872008.3000000119,8032,no,SM,A,136.bmp,120,120,165760,159734,167776,161745,876155.0,870127.0,878171.0,872139.0,74
2,0,1,0,0,69,test,1,1,m,Mon Nov 17 2025 14:50:16 GMT-0600 (Central Standard Time),891198.900000006,I,m,1702,75,3,138.bmp,-120,-120,139.bmp,120,-120,140.bmp,-120,120,141.bmp,120,120,9760.300000011921,881438.599999994,8032,no,SM,A,141.bmp,120,-120,165760,159734,167776,161745,885585.0,879557.0,887601.0,881569.0,75
1,1,0,0,0,69,test,1,0,z,Mon Nov 17 2025 14:50:16 GMT-0600 (Central Standard Time),901262.8000000119,I,None,2017,76,3,142.bmp,-120,-120,143.bmp,120,-120,144.bmp,-120,120,145.bmp,120,120,10060.90000000596,891201.900000006,8032,yes,SM,A,142.bmp,-120,-120,165760,159734,167776,161745,895349.0,889320.0,897364.0,891333.0,76
3,0,0,1,0,70,test,1,1,z,Mon Nov 17 2025 14:50:16 GMT-0600 (Central Standard Time),910826.0,I,z,1508,77,3,150.bmp,-120,-120,111.bmp,120,-120,101.bmp,-120,120,102.bmp,120,120,9559.59999999404,901266.400000006,8032,yes,SM,A,101.bmp,-120,120,165760,159734,167776,161745,905412.0,899385.0,907428.0,901397.0,77
1,1,0,0,0,71,test,1,1,m,Mon Nov 17 2025 14:50:16 GMT-0600 (Central Standard Time),920323.0,I,m,1440,78,3,146.bmp,-120,-120,147.bmp,120,-120,148.bmp,-120,120,149.bmp,120,120,9493.300000011921,910829.6999999881,8032,no,SM,A,147.bmp,-120,-120,165760,159734,167776,161745,914976.0,908948.0,916992.0,910960.0,78
4,0,0,0,1,72,test,1,1,m,Mon Nov 17 2025 14:50:16 GMT-0600 (Central Standard Time),929570.099999994,I,m,1191,79,3,107.bmp,-120,-120,108.bmp,120,-120,109.bmp,-120,120,110.bmp,120,120,9242.0,920328.099999994,8032,no,SM,A,107.bmp,120,120,165760,159734,167776,161745,924473.0,918446.0,926489.0,920459.0,79
3,0,0,1,0,73,test,1,1,m,Mon Nov 17 2025 14:50:16 GMT-0600 (Central Standard Time),938700.599999994,I,m,1019,80,3,103.bmp,-120,-120,104.bmp,120,-120,105.bmp,-120,120,106.bmp,120,120,9127.40000000596,929573.1999999881,8032,no,SM,A,106.bmp,-120,120,165760,159734,167776,161745,933720.0,927691.0,935797.0,929704.0,80
