block_c,block_dur,condition,countdown,datetime,endtime,list,multichar_response,project,response,response_time,session_number,start_end,starttime,subject_id,task,task_vers,trial
,,,,Tue Oct 21 2025 11:05:04 GMT-0500 (Central Daylight Time),,,,I,space,582,2,,,8009,WL,A,
prac,,0,,Tue Oct 21 2025 11:05:04 GMT-0500 (Central Daylight Time),,NA,b,I,b,4550,2,,,8009,WL,A,1.0
prac,,0,,Tue Oct 21 2025 11:05:04 GMT-0500 (Central Daylight Time),,NA,bo,I,o,851,2,,,8009,WL,A,1.0
prac,,0,,Tue Oct 21 2025 11:05:04 GMT-0500 (Central Daylight Time),,NA,boo,I,o,146,2,,,8009,WL,A,1.0
prac,,0,,Tue Oct 21 2025 11:05:04 GMT-0500 (Central Daylight Time),,NA,boos,I,s,67,2,,,8009,WL,A,1.0
prac,,0,,Tue Oct 21 2025 11:05:04 GMT-0500 (Central Daylight Time),,NA,boost,I,t,207,2,,,8009,WL,A,1.0
prac,,0,,Tue Oct 21 2025 11:05:04 GMT-0500 (Central Daylight Time),,NA,boostenter,I,enter,271,2,,,8009,WL,A,1.0
1,1.1670000553131104,learn,58832.99994468689,Tue Oct 21 2025 11:05:04 GMT-0500 (Central Daylight Time),106368.39999961853,A,b,I,b,1156,2,1166.2999997138977,105202.09999990463,8009,WL,A,1.0
1,1.433000087738037,learn,58566.99991226196,Tue Oct 21 2025 11:05:04 GMT-0500 (Central Daylight Time),106634.7999997139,A,bo,I,o,252,2,1432.6999998092651,105202.09999990463,8009,WL,A,1.0
1,1.633000135421753,learn,58366.99986457825,Tue Oct 21 2025 11:05:04 GMT-0500 (Central Daylight Time),106834.59999990463,A,boo,I,o,187,2,1632.5,105202.09999990463,8009,WL,A,1.0
1,1.7330000400543213,learn,58266.99995994568,Tue Oct 21 2025 11:05:04 GMT-0500 (Central Daylight Time),106934.89999961853,A,book,I,k,83,2,1732.7999997138977,105202.09999990463,8009,WL,A,1.0
1,2.25,learn,57750.0,Tue Oct 21 2025 11:05:04 GMT-0500 (Central Daylight Time),107451.5,A,bookenter,I,enter,503,2,2249.4000000953674,105202.09999990463,8009,WL,A,1.0
1,3.9830000400543213,learn,56016.99995994568,Tue Oct 21 2025 11:05:04 GMT-0500 (Central Daylight Time),109184.0,A,f,I,f,1722,2,1732.1000003814697,107451.89999961853,8009,WL,A,2.0
1,4.065999984741211,learn,55934.00001525879,Tue Oct 21 2025 11:05:04 GMT-0500 (Central Daylight Time),109267.19999980927,A,fl,I,l,77,2,1815.3000001907349,107451.89999961853,8009,WL,A,2.0
1,4.249000072479248,learn,55750.99992752075,Tue Oct 21 2025 11:05:04 GMT-0500 (Central Daylight Time),109450.59999990463,A,flo,I,o,171,2,1998.7000002861023,107451.89999961853,8009,WL,A,2.0
1,4.366000175476074,learn,55633.999824523926,Tue Oct 21 2025 11:05:04 GMT-0500 (Central Daylight Time),109567.19999980927,A,flow,I,w,99,2,2115.300000190735,107451.89999961853,8009,WL,A,2.0
1,4.598999977111816,learn,55401.00002288818,Tue Oct 21 2025 11:05:04 GMT-0500 (Central Daylight Time),109800.39999961853,A,flowe,I,e,215,2,2348.5,107451.89999961853,8009,WL,A,2.0
1,4.666000127792358,learn,55333.99987220764,Tue Oct 21 2025 11:05:04 GMT-0500 (Central Daylight Time),109867.5,A,flower,I,r,53,2,2415.6000003814697,107451.89999961853,8009,WL,A,2.0
1,4.866000175476074,learn,55133.999824523926,Tue Oct 21 2025 11:05:04 GMT-0500 (Central Daylight Time),110067.19999980927,A,flowerenter,I,enter,193,2,2615.300000190735,107451.89999961853,8009,WL,A,2.0
1,5.098999977111816,learn,54901.00002288818,Tue Oct 21 2025 11:05:04 GMT-0500 (Central Daylight Time),110300.09999990463,A,t,I,t,227,2,232.5,110067.59999990463,8009,WL,A,3.0
1,5.199000120162964,learn,54800.999879837036,Tue Oct 21 2025 11:05:04 GMT-0500 (Central Daylight Time),110400.19999980927,A,tr,I,r,82,2,332.59999990463257,110067.59999990463,8009,WL,A,3.0
1,5.381999969482422,learn,54618.00003051758,Tue Oct 21 2025 11:05:04 GMT-0500 (Central Daylight Time),110583.5,A,tra,I,a,166,2,515.9000000953674,110067.59999990463,8009,WL,A,3.0
1,5.465000152587891,learn,54534.99984741211,Tue Oct 21 2025 11:05:04 GMT-0500 (Central Daylight Time),110666.7999997139,A,trai,I,i,61,2,599.1999998092651,110067.59999990463,8009,WL,A,3.0
1,5.549000024795532,learn,54450.99997520447,Tue Oct 21 2025 11:05:04 GMT-0500 (Central Daylight Time),110750.2999997139,A,train,I,n,75,2,682.6999998092651,110067.59999990463,8009,WL,A,3.0
1,5.832000017166138,learn,54167.99998283386,Tue Oct 21 2025 11:05:04 GMT-0500 (Central Daylight Time),111033.2999997139,A,trainenter,I,enter,264,2,965.6999998092651,110067.59999990463,8009,WL,A,3.0
1,7.131999969482422,learn,52868.00003051758,Tue Oct 21 2025 11:05:04 GMT-0500 (Central Daylight Time),112333.2999997139,A,r,I,r,1284,2,1299.5999999046326,111033.69999980927,8009,WL,A,4.0
1,7.281000137329102,learn,52718.9998626709,Tue Oct 21 2025 11:05:04 GMT-0500 (Central Daylight Time),112482.89999961853,A,ru,I,u,129,2,1449.1999998092651,111033.69999980927,8009,WL,A,4.0
1,7.465000152587891,learn,52534.99984741211,Tue Oct 21 2025 11:05:04 GMT-0500 (Central Daylight Time),112666.19999980927,A,rug,I,g,163,2,1632.5,111033.69999980927,8009,WL,A,4.0
1,7.648000001907349,learn,52351.99999809265,Tue Oct 21 2025 11:05:04 GMT-0500 (Central Daylight Time),112849.59999990463,A,rugenter,I,enter,164,2,1815.9000000953674,111033.69999980927,8009,WL,A,4.0
1,7.930999994277954,learn,52069.000005722046,Tue Oct 21 2025 11:05:04 GMT-0500 (Central Daylight Time),113132.59999990463,A,m,I,m,269,2,282.7000002861023,112849.89999961853,8009,WL,A,5.0
1,8.098000049591064,learn,51901.999950408936,Tue Oct 21 2025 11:05:04 GMT-0500 (Central Daylight Time),113299.5,A,me,I,e,154,2,449.6000003814697,112849.89999961853,8009,WL,A,5.0
1,8.314000129699707,learn,51685.99987030029,Tue Oct 21 2025 11:05:04 GMT-0500 (Central Daylight Time),113516.0,A,mea,I,a,195,2,666.1000003814697,112849.89999961853,8009,WL,A,5.0
1,8.430999994277954,learn,51569.000005722046,Tue Oct 21 2025 11:05:04 GMT-0500 (Central Daylight Time),113632.59999990463,A,mead,I,d,106,2,782.7000002861023,112849.89999961853,8009,WL,A,5.0
1,8.680999994277954,learn,51319.000005722046,Tue Oct 21 2025 11:05:04 GMT-0500 (Central Daylight Time),113882.09999990463,A,meado,I,o,228,2,1032.2000002861023,112849.89999961853,8009,WL,A,5.0
1,9.180999994277954,learn,50819.000005722046,Tue Oct 21 2025 11:05:04 GMT-0500 (Central Daylight Time),114382.59999990463,A,meadow,I,w,492,2,1532.7000002861023,112849.89999961853,8009,WL,A,5.0
1,9.514000177383423,learn,50485.99982261658,Tue Oct 21 2025 11:05:04 GMT-0500 (Central Daylight Time),114715.69999980927,A,meadowenter,I,enter,327,2,1865.8000001907349,112849.89999961853,8009,WL,A,5.0
1,9.913000106811523,learn,50086.99989318848,Tue Oct 21 2025 11:05:04 GMT-0500 (Central Daylight Time),115115.2999997139,A,f,I,f,379,2,399.19999980926514,114716.09999990463,8009,WL,A,6.0
1,10.02999997138977,learn,49970.00002861023,Tue Oct 21 2025 11:05:04 GMT-0500 (Central Daylight Time),115232.19999980927,A,fl,I,l,98,2,516.0999999046326,114716.09999990463,8009,WL,A,6.0
1,10.196000099182129,learn,49803.99990081787,Tue Oct 21 2025 11:05:04 GMT-0500 (Central Daylight Time),115398.69999980927,A,flo,I,o,150,2,682.5999999046326,114716.09999990463,8009,WL,A,6.0
1,10.312999963760376,learn,49687.000036239624,Tue Oct 21 2025 11:05:04 GMT-0500 (Central Daylight Time),115515.39999961853,A,flow,I,w,95,2,799.2999997138977,114716.09999990463,8009,WL,A,6.0
1,10.546000003814697,learn,49453.9999961853,Tue Oct 21 2025 11:05:04 GMT-0500 (Central Daylight Time),115748.59999990463,A,flowe,I,e,227,2,1032.5,114716.09999990463,8009,WL,A,6.0
1,10.662000179290771,learn,49337.99982070923,Tue Oct 21 2025 11:05:04 GMT-0500 (Central Daylight Time),115865.0,A,flower,I,r,105,2,1148.9000000953674,114716.09999990463,8009,WL,A,6.0
1,10.92900013923645,learn,49070.99986076355,Tue Oct 21 2025 11:05:04 GMT-0500 (Central Daylight Time),116131.59999990463,A,flowerenter,I,enter,261,2,1415.5,114716.09999990463,8009,WL,A,6.0
1,11.196000099182129,learn,48803.99990081787,Tue Oct 21 2025 11:05:04 GMT-0500 (Central Daylight Time),116398.2999997139,A,s,I,s,251,2,266.40000009536743,116131.89999961853,8009,WL,A,7.0
1,11.312000036239624,learn,48687.999963760376,Tue Oct 21 2025 11:05:04 GMT-0500 (Central Daylight Time),116514.89999961853,A,sa,I,a,104,2,383.0,116131.89999961853,8009,WL,A,7.0
1,11.479000091552734,learn,48520.999908447266,Tue Oct 21 2025 11:05:04 GMT-0500 (Central Daylight Time),116681.5,A,sal,I,l,155,2,549.6000003814697,116131.89999961853,8009,WL,A,7.0
1,11.729000091552734,learn,48270.999908447266,Tue Oct 21 2025 11:05:04 GMT-0500 (Central Daylight Time),116931.39999961853,A,salt,I,t,229,2,799.5,116131.89999961853,8009,WL,A,7.0
1,12.279000043869019,learn,47720.99995613098,Tue Oct 21 2025 11:05:04 GMT-0500 (Central Daylight Time),117481.2999997139,A,saltenter,I,enter,529,2,1349.4000000953674,116131.89999961853,8009,WL,A,7.0
1,13.078999996185303,learn,46921.0000038147,Tue Oct 21 2025 11:05:04 GMT-0500 (Central Daylight Time),118281.09999990463,A,c,I,c,781,2,799.3000001907349,117481.7999997139,8009,WL,A,8.0
1,13.229000091552734,learn,46770.999908447266,Tue Oct 21 2025 11:05:04 GMT-0500 (Central Daylight Time),118431.09999990463,A,ch,I,h,133,2,949.3000001907349,117481.7999997139,8009,WL,A,8.0
1,13.51200008392334,learn,46487.99991607666,Tue Oct 21 2025 11:05:04 GMT-0500 (Central Daylight Time),118714.2999997139,A,chi,I,i,263,2,1232.5,117481.7999997139,8009,WL,A,8.0
1,13.745000123977661,learn,46254.99987602234,Tue Oct 21 2025 11:05:04 GMT-0500 (Central Daylight Time),118947.5,A,chim,I,m,220,2,1465.7000002861023,117481.7999997139,8009,WL,A,8.0
1,13.91100001335144,learn,46088.99998664856,Tue Oct 21 2025 11:05:04 GMT-0500 (Central Daylight Time),119114.0,A,chimn,I,n,155,2,1632.2000002861023,117481.7999997139,8009,WL,A,8.0
1,14.045000076293945,learn,45954.999923706055,Tue Oct 21 2025 11:05:04 GMT-0500 (Central Daylight Time),119247.5,A,chimne,I,e,116,2,1765.7000002861023,117481.7999997139,8009,WL,A,8.0
1,14.144999980926514,learn,45855.000019073486,Tue Oct 21 2025 11:05:04 GMT-0500 (Central Daylight Time),119347.2999997139,A,chimney,I,y,79,2,1865.5,117481.7999997139,8009,WL,A,8.0
1,14.361999988555908,learn,45638.00001144409,Tue Oct 21 2025 11:05:04 GMT-0500 (Central Daylight Time),119564.19999980927,A,chimneyenter,I,enter,203,2,2082.4000000953674,117481.7999997139,8009,WL,A,8.0
1,14.528000116348267,learn,45471.99988365173,Tue Oct 21 2025 11:05:04 GMT-0500 (Central Daylight Time),119730.39999961853,A,f,I,f,146,2,165.7999997138977,119564.59999990463,8009,WL,A,9.0
1,14.628000020980835,learn,45371.999979019165,Tue Oct 21 2025 11:05:04 GMT-0500 (Central Daylight Time),119830.59999990463,A,fi,I,i,84,2,266.0,119564.59999990463,8009,WL,A,9.0
1,14.728000164031982,learn,45271.99983596802,Tue Oct 21 2025 11:05:04 GMT-0500 (Central Daylight Time),119930.69999980927,A,fin,I,n,80,2,366.09999990463257,119564.59999990463,8009,WL,A,9.0
1,14.960999965667725,learn,45039.000034332275,Tue Oct 21 2025 11:05:04 GMT-0500 (Central Daylight Time),120163.5,A,fing,I,g,228,2,598.9000000953674,119564.59999990463,8009,WL,A,9.0
1,15.044000148773193,learn,44955.99985122681,Tue Oct 21 2025 11:05:04 GMT-0500 (Central Daylight Time),120247.0,A,finge,I,e,75,2,682.4000000953674,119564.59999990463,8009,WL,A,9.0
1,15.16100001335144,learn,44838.99998664856,Tue Oct 21 2025 11:05:04 GMT-0500 (Central Daylight Time),120363.69999980927,A,finger,I,r,103,2,799.0999999046326,119564.59999990463,8009,WL,A,9.0
1,15.460999965667725,learn,44539.000034332275,Tue Oct 21 2025 11:05:04 GMT-0500 (Central Daylight Time),120663.7999997139,A,fingerenter,I,enter,291,2,1099.1999998092651,119564.59999990463,8009,WL,A,9.0
1,17.3270001411438,learn,42672.9998588562,Tue Oct 21 2025 11:05:04 GMT-0500 (Central Daylight Time),122529.7999997139,A,s,I,s,1847,2,1865.5999999046326,120664.19999980927,8009,WL,A,10.0
1,17.99399995803833,learn,42006.00004196167,Tue Oct 21 2025 11:05:04 GMT-0500 (Central Daylight Time),123196.19999980927,A,sa,I,a,653,2,2532.0,120664.19999980927,8009,WL,A,10.0
1,18.14400005340576,learn,41855.99994659424,Tue Oct 21 2025 11:05:04 GMT-0500 (Central Daylight Time),123346.09999990463,A,sal,I,l,129,2,2681.9000000953674,120664.19999980927,8009,WL,A,10.0
1,18.39400005340576,learn,41605.99994659424,Tue Oct 21 2025 11:05:04 GMT-0500 (Central Daylight Time),123596.19999980927,A,salt,I,t,236,2,2932.0,120664.19999980927,8009,WL,A,10.0
1,19.825999975204468,learn,40174.00002479553,Tue Oct 21 2025 11:05:04 GMT-0500 (Central Daylight Time),125029.0,A,saltenter,I,enter,1426,2,4364.800000190735,120664.19999980927,8009,WL,A,10.0
1,20.511000156402588,learn,39488.99984359741,Tue Oct 21 2025 11:05:04 GMT-0500 (Central Daylight Time),125713.2999997139,A,k,I,k,665,2,683.9000000953674,125029.39999961853,8009,WL,A,11.0
1,20.743000030517578,learn,39256.99996948242,Tue Oct 21 2025 11:05:04 GMT-0500 (Central Daylight Time),125945.09999990463,A,ke,I,e,221,2,915.7000002861023,125029.39999961853,8009,WL,A,11.0
1,20.95900011062622,learn,39040.99988937378,Tue Oct 21 2025 11:05:04 GMT-0500 (Central Daylight Time),126161.7999997139,A,key,I,y,197,2,1132.4000000953674,125029.39999961853,8009,WL,A,11.0
1,21.4760000705719,learn,38523.9999294281,Tue Oct 21 2025 11:05:04 GMT-0500 (Central Daylight Time),126678.2999997139,A,keyenter,I,enter,500,2,1648.9000000953674,125029.39999961853,8009,WL,A,11.0
1,30.939000129699707,learn,29060.999870300293,Tue Oct 21 2025 11:05:04 GMT-0500 (Central Daylight Time),136141.7999997139,A,g,I,g,9456,2,9463.199999809265,126678.59999990463,8009,WL,A,12.0
1,31.055999994277954,learn,28944.000005722046,Tue Oct 21 2025 11:05:04 GMT-0500 (Central Daylight Time),136258.89999961853,A,go,I,o,112,2,9580.299999713898,126678.59999990463,8009,WL,A,12.0
1,31.305999994277954,learn,28694.000005722046,Tue Oct 21 2025 11:05:04 GMT-0500 (Central Daylight Time),136508.7999997139,A,gol,I,l,235,2,9830.199999809265,126678.59999990463,8009,WL,A,12.0
1,32.223000049591064,learn,27776.999950408936,Tue Oct 21 2025 11:05:04 GMT-0500 (Central Daylight Time),137425.19999980927,A,gold,I,d,898,2,10746.599999904633,126678.59999990463,8009,WL,A,12.0
1,32.93900012969971,learn,27060.999870300293,Tue Oct 21 2025 11:05:04 GMT-0500 (Central Daylight Time),138141.59999990463,A,goldenter,I,enter,709,2,11463.0,126678.59999990463,8009,WL,A,12.0
1,60.015000104904175,learn,-15.000104904174805,Tue Oct 21 2025 11:05:04 GMT-0500 (Central Daylight Time),165217.2999997139,A,None,I,None,27071,2,27075.400000095367,138141.89999961853,8009,WL,A,13.0
2,0.8659999370574951,learn,59134.000062942505,Tue Oct 21 2025 11:05:04 GMT-0500 (Central Daylight Time),247174.0,A,b,I,b,852,2,866.2000002861023,246307.7999997139,8009,WL,A,1.0
2,1.1499998569488525,learn,58850.00014305115,Tue Oct 21 2025 11:05:04 GMT-0500 (Central Daylight Time),247457.39999961853,A,bo,I,o,272,2,1149.5999999046326,246307.7999997139,8009,WL,A,1.0
2,1.315999984741211,learn,58684.00001525879,Tue Oct 21 2025 11:05:04 GMT-0500 (Central Daylight Time),247623.89999961853,A,boo,I,o,149,2,1316.0999999046326,246307.7999997139,8009,WL,A,1.0
2,1.3999998569488525,learn,58600.00014305115,Tue Oct 21 2025 11:05:04 GMT-0500 (Central Daylight Time),247707.2999997139,A,book,I,k,79,2,1399.5,246307.7999997139,8009,WL,A,1.0
2,2.565999984741211,learn,57434.00001525879,Tue Oct 21 2025 11:05:04 GMT-0500 (Central Daylight Time),248873.5,A,bookenter,I,enter,1155,2,2565.7000002861023,246307.7999997139,8009,WL,A,1.0
2,2.9149999618530273,learn,57085.00003814697,Tue Oct 21 2025 11:05:04 GMT-0500 (Central Daylight Time),249223.19999980927,A,f,I,f,341,2,349.30000019073486,248873.89999961853,8009,WL,A,2.0
2,3.0319998264312744,learn,56968.000173568726,Tue Oct 21 2025 11:05:04 GMT-0500 (Central Daylight Time),249339.59999990463,A,fl,I,l,111,2,465.7000002861023,248873.89999961853,8009,WL,A,2.0
2,3.298999786376953,learn,56701.00021362305,Tue Oct 21 2025 11:05:04 GMT-0500 (Central Daylight Time),249606.59999990463,A,flo,I,o,251,2,732.7000002861023,248873.89999961853,8009,WL,A,2.0
2,3.3989999294281006,learn,56601.0000705719,Tue Oct 21 2025 11:05:04 GMT-0500 (Central Daylight Time),249706.69999980927,A,flow,I,w,88,2,832.8000001907349,248873.89999961853,8009,WL,A,2.0
2,3.865000009536743,learn,56134.99999046326,Tue Oct 21 2025 11:05:04 GMT-0500 (Central Daylight Time),250173.0,A,flowe,I,e,460,2,1299.1000003814697,248873.89999961853,8009,WL,A,2.0
2,3.9649999141693115,learn,56035.00008583069,Tue Oct 21 2025 11:05:04 GMT-0500 (Central Daylight Time),250273.0,A,flower,I,r,89,2,1399.1000003814697,248873.89999961853,8009,WL,A,2.0
2,4.615000009536743,learn,55384.99999046326,Tue Oct 21 2025 11:05:04 GMT-0500 (Central Daylight Time),250922.7999997139,A,flowe,I,backspace,637,2,2048.9000000953674,248873.89999961853,8009,WL,A,2.0
2,4.847999811172485,learn,55152.000188827515,Tue Oct 21 2025 11:05:04 GMT-0500 (Central Daylight Time),251156.09999990463,A,flow,I,backspace,220,2,2282.2000002861023,248873.89999961853,8009,WL,A,2.0
2,5.06499981880188,learn,54935.00018119812,Tue Oct 21 2025 11:05:04 GMT-0500 (Central Daylight Time),251372.7999997139,A,flo,I,backspace,202,2,2498.9000000953674,248873.89999961853,8009,WL,A,2.0
2,5.230999946594238,learn,54769.00005340576,Tue Oct 21 2025 11:05:04 GMT-0500 (Central Daylight Time),251539.09999990463,A,fl,I,backspace,161,2,2665.2000002861023,248873.89999961853,8009,WL,A,2.0
2,5.414999961853027,learn,54585.00003814697,Tue Oct 21 2025 11:05:04 GMT-0500 (Central Daylight Time),251722.39999961853,A,f,I,backspace,171,2,2848.5,248873.89999961853,8009,WL,A,2.0
2,5.830999851226807,learn,54169.00014877319,Tue Oct 21 2025 11:05:04 GMT-0500 (Central Daylight Time),252139.09999990463,A,,I,backspace,396,2,3265.2000002861023,248873.89999961853,8009,WL,A,2.0
2,6.615000009536743,learn,53384.99999046326,Tue Oct 21 2025 11:05:04 GMT-0500 (Central Daylight Time),252922.39999961853,A,f,I,f,763,2,4048.5,248873.89999961853,8009,WL,A,2.0
2,6.697999954223633,learn,53302.00004577637,Tue Oct 21 2025 11:05:04 GMT-0500 (Central Daylight Time),253005.59999990463,A,fl,I,l,76,2,4131.700000286102,248873.89999961853,8009,WL,A,2.0
2,6.847999811172485,learn,53152.000188827515,Tue Oct 21 2025 11:05:04 GMT-0500 (Central Daylight Time),253155.39999961853,A,flo,I,o,145,2,4281.5,248873.89999961853,8009,WL,A,2.0
2,6.947999954223633,learn,53052.00004577637,Tue Oct 21 2025 11:05:04 GMT-0500 (Central Daylight Time),253255.59999990463,A,flow,I,w,83,2,4381.700000286102,248873.89999961853,8009,WL,A,2.0
2,7.196999788284302,learn,52803.0002117157,Tue Oct 21 2025 11:05:04 GMT-0500 (Central Daylight Time),253505.0,A,flowe,I,e,239,2,4631.10000038147,248873.89999961853,8009,WL,A,2.0
2,7.263999938964844,learn,52736.000061035156,Tue Oct 21 2025 11:05:04 GMT-0500 (Central Daylight Time),253571.7999997139,A,flower,I,r,62,2,4697.900000095367,248873.89999961853,8009,WL,A,2.0
2,7.930999994277954,learn,52069.000005722046,Tue Oct 21 2025 11:05:04 GMT-0500 (Central Daylight Time),254238.2999997139,A,flowerenter,I,enter,659,2,5364.400000095367,248873.89999961853,8009,WL,A,2.0
2,8.330999851226807,learn,51669.00014877319,Tue Oct 21 2025 11:05:04 GMT-0500 (Central Daylight Time),254638.2999997139,A,t,I,t,384,2,399.59999990463257,254238.69999980927,8009,WL,A,3.0
2,8.396999835968018,learn,51603.00016403198,Tue Oct 21 2025 11:05:04 GMT-0500 (Central Daylight Time),254704.89999961853,A,tr,I,r,48,2,466.19999980926514,254238.69999980927,8009,WL,A,3.0
2,8.596999883651733,learn,51403.00011634827,Tue Oct 21 2025 11:05:04 GMT-0500 (Central Daylight Time),254905.0,A,tra,I,a,190,2,666.3000001907349,254238.69999980927,8009,WL,A,3.0
2,8.696999788284302,learn,51303.0002117157,Tue Oct 21 2025 11:05:04 GMT-0500 (Central Daylight Time),255004.89999961853,A,trai,I,i,86,2,766.1999998092651,254238.69999980927,8009,WL,A,3.0
2,8.813999891281128,learn,51186.00010871887,Tue Oct 21 2025 11:05:04 GMT-0500 (Central Daylight Time),255121.2999997139,A,train,I,n,98,2,882.5999999046326,254238.69999980927,8009,WL,A,3.0
2,9.04699993133545,learn,50953.00006866455,Tue Oct 21 2025 11:05:04 GMT-0500 (Central Daylight Time),255354.7999997139,A,trainenter,I,enter,221,2,1116.0999999046326,254238.69999980927,8009,WL,A,3.0
2,9.396999835968018,learn,50603.00016403198,Tue Oct 21 2025 11:05:04 GMT-0500 (Central Daylight Time),255704.59999990463,A,r,I,r,340,2,349.5,255355.09999990463,8009,WL,A,4.0
2,9.662999868392944,learn,50337.000131607056,Tue Oct 21 2025 11:05:04 GMT-0500 (Central Daylight Time),255971.09999990463,A,ru,I,u,254,2,616.0,255355.09999990463,8009,WL,A,4.0
2,9.829999923706055,learn,50170.000076293945,Tue Oct 21 2025 11:05:04 GMT-0500 (Central Daylight Time),256138.09999990463,A,rug,I,g,155,2,783.0,255355.09999990463,8009,WL,A,4.0
2,9.996999979019165,learn,50003.000020980835,Tue Oct 21 2025 11:05:04 GMT-0500 (Central Daylight Time),256304.39999961853,A,rugenter,I,enter,148,2,949.2999997138977,255355.09999990463,8009,WL,A,4.0
2,10.27999997138977,learn,49720.00002861023,Tue Oct 21 2025 11:05:04 GMT-0500 (Central Daylight Time),256587.5,A,m,I,m,277,2,282.80000019073486,256304.69999980927,8009,WL,A,5.0
2,10.86299991607666,learn,49137.00008392334,Tue Oct 21 2025 11:05:04 GMT-0500 (Central Daylight Time),257170.89999961853,A,me,I,e,563,2,866.1999998092651,256304.69999980927,8009,WL,A,5.0
2,11.04699993133545,learn,48953.00006866455,Tue Oct 21 2025 11:05:04 GMT-0500 (Central Daylight Time),257354.19999980927,A,mea,I,a,172,2,1049.5,256304.69999980927,8009,WL,A,5.0
2,11.296000003814697,learn,48703.9999961853,Tue Oct 21 2025 11:05:04 GMT-0500 (Central Daylight Time),257604.09999990463,A,mead,I,d,236,2,1299.4000000953674,256304.69999980927,8009,WL,A,5.0
2,11.61299991607666,learn,48387.00008392334,Tue Oct 21 2025 11:05:04 GMT-0500 (Central Daylight Time),257920.39999961853,A,meado,I,o,299,2,1615.6999998092651,256304.69999980927,8009,WL,A,5.0
2,12.013000011444092,learn,47986.99998855591,Tue Oct 21 2025 11:05:04 GMT-0500 (Central Daylight Time),258320.5,A,meadow,I,w,390,2,2015.8000001907349,256304.69999980927,8009,WL,A,5.0
2,12.478999853134155,learn,47521.000146865845,Tue Oct 21 2025 11:05:04 GMT-0500 (Central Daylight Time),258787.0,A,meadowenter,I,enter,454,2,2482.300000190735,256304.69999980927,8009,WL,A,5.0
2,14.061999797821045,learn,45938.000202178955,Tue Oct 21 2025 11:05:04 GMT-0500 (Central Daylight Time),260369.89999961853,A,a,I,a,1563,2,1582.5999999046326,258787.2999997139,8009,WL,A,6.0
2,14.77899980545044,learn,45221.00019454956,Tue Oct 21 2025 11:05:04 GMT-0500 (Central Daylight Time),261086.2999997139,A,,I,backspace,708,2,2299.0,258787.2999997139,8009,WL,A,6.0
2,15.161999940872192,learn,44838.00005912781,Tue Oct 21 2025 11:05:04 GMT-0500 (Central Daylight Time),261469.69999980927,A,h,I,h,376,2,2682.4000000953674,258787.2999997139,8009,WL,A,6.0
2,15.244999885559082,learn,44755.00011444092,Tue Oct 21 2025 11:05:04 GMT-0500 (Central Daylight Time),261553.0,A,ha,I,a,65,2,2765.7000002861023,258787.2999997139,8009,WL,A,6.0
2,15.42799997329712,learn,44572.00002670288,Tue Oct 21 2025 11:05:04 GMT-0500 (Central Daylight Time),261736.09999990463,A,har,I,r,166,2,2948.800000190735,258787.2999997139,8009,WL,A,6.0
2,15.744999885559082,learn,44255.00011444092,Tue Oct 21 2025 11:05:04 GMT-0500 (Central Daylight Time),262052.69999980927,A,harp,I,p,311,2,3265.4000000953674,258787.2999997139,8009,WL,A,6.0
2,16.194999933242798,learn,43805.0000667572,Tue Oct 21 2025 11:05:04 GMT-0500 (Central Daylight Time),262502.59999990463,A,harpenter,I,enter,434,2,3715.300000190735,258787.2999997139,8009,WL,A,6.0
2,20.492999792099,learn,39507.000207901,Tue Oct 21 2025 11:05:04 GMT-0500 (Central Daylight Time),266801.0,A,s,I,s,4280,2,4298.0,262503.0,8009,WL,A,7.0
2,20.592999935150146,learn,39407.00006484985,Tue Oct 21 2025 11:05:04 GMT-0500 (Central Daylight Time),266901.0,A,sa,I,a,85,2,4398.0,262503.0,8009,WL,A,7.0
2,20.742999792099,learn,39257.000207901,Tue Oct 21 2025 11:05:04 GMT-0500 (Central Daylight Time),267050.89999961853,A,sal,I,l,145,2,4547.89999961853,262503.0,8009,WL,A,7.0
2,20.926999807357788,learn,39073.00019264221,Tue Oct 21 2025 11:05:04 GMT-0500 (Central Daylight Time),267234.59999990463,A,salt,I,t,164,2,4731.599999904633,262503.0,8009,WL,A,7.0
2,21.092999935150146,learn,38907.00006484985,Tue Oct 21 2025 11:05:04 GMT-0500 (Central Daylight Time),267401.09999990463,A,saltenter,I,enter,148,2,4898.099999904633,262503.0,8009,WL,A,7.0
2,21.359999895095825,learn,38640.000104904175,Tue Oct 21 2025 11:05:04 GMT-0500 (Central Daylight Time),267667.39999961853,A,f,I,f,262,2,266.0,267401.39999961853,8009,WL,A,8.0
2,22.292999982833862,learn,37707.00001716614,Tue Oct 21 2025 11:05:04 GMT-0500 (Central Daylight Time),268600.59999990463,A,fi,I,i,923,2,1199.2000002861023,267401.39999961853,8009,WL,A,8.0
2,22.39299988746643,learn,37607.00011253357,Tue Oct 21 2025 11:05:04 GMT-0500 (Central Daylight Time),268700.5,A,fin,I,n,86,2,1299.1000003814697,267401.39999961853,8009,WL,A,8.0
2,22.64299988746643,learn,37357.00011253357,Tue Oct 21 2025 11:05:04 GMT-0500 (Central Daylight Time),268950.2999997139,A,fing,I,g,242,2,1548.9000000953674,267401.39999961853,8009,WL,A,8.0
2,22.776999950408936,learn,37223.000049591064,Tue Oct 21 2025 11:05:04 GMT-0500 (Central Daylight Time),269084.89999961853,A,finge,I,e,120,2,1683.5,267401.39999961853,8009,WL,A,8.0
2,22.875999927520752,learn,37124.00007247925,Tue Oct 21 2025 11:05:04 GMT-0500 (Central Daylight Time),269183.89999961853,A,finger,I,r,89,2,1782.5,267401.39999961853,8009,WL,A,8.0
2,23.441999912261963,learn,36558.00008773804,Tue Oct 21 2025 11:05:04 GMT-0500 (Central Daylight Time),269750.09999990463,A,fingerenter,I,enter,559,2,2348.7000002861023,267401.39999961853,8009,WL,A,8.0
2,24.358999967575073,learn,35641.00003242493,Tue Oct 21 2025 11:05:04 GMT-0500 (Central Daylight Time),270666.5,A,a,I,a,895,2,916.0,269750.5,8009,WL,A,9.0
2,24.441999912261963,learn,35558.00008773804,Tue Oct 21 2025 11:05:04 GMT-0500 (Central Daylight Time),270750.0,A,ap,I,p,76,2,999.5,269750.5,8009,WL,A,9.0
2,24.592000007629395,learn,35407.999992370605,Tue Oct 21 2025 11:05:04 GMT-0500 (Central Daylight Time),270899.89999961853,A,app,I,p,137,2,1149.3999996185303,269750.5,8009,WL,A,9.0
2,24.691999912261963,learn,35308.00008773804,Tue Oct 21 2025 11:05:04 GMT-0500 (Central Daylight Time),271000.09999990463,A,appl,I,l,91,2,1249.5999999046326,269750.5,8009,WL,A,9.0
2,24.875,learn,35125.0,Tue Oct 21 2025 11:05:04 GMT-0500 (Central Daylight Time),271183.19999980927,A,apple,I,e,166,2,1432.6999998092651,269750.5,8009,WL,A,9.0
2,25.375,learn,34625.0,Tue Oct 21 2025 11:05:04 GMT-0500 (Central Daylight Time),271683.0,A,appleenter,I,enter,487,2,1932.5,269750.5,8009,WL,A,9.0
2,26.54099988937378,learn,33459.00011062622,Tue Oct 21 2025 11:05:04 GMT-0500 (Central Daylight Time),272849.19999980927,A,c,I,c,1155,2,1165.9000000953674,271683.2999997139,8009,WL,A,10.0
2,26.70799994468689,learn,33292.00005531311,Tue Oct 21 2025 11:05:04 GMT-0500 (Central Daylight Time),273015.89999961853,A,ch,I,h,157,2,1332.5999999046326,271683.2999997139,8009,WL,A,10.0
2,26.94099998474121,learn,33059.00001525879,Tue Oct 21 2025 11:05:04 GMT-0500 (Central Daylight Time),273249.09999990463,A,chi,I,i,215,2,1565.8000001907349,271683.2999997139,8009,WL,A,10.0
2,27.174999952316284,learn,32825.000047683716,Tue Oct 21 2025 11:05:04 GMT-0500 (Central Daylight Time),273482.39999961853,A,chin,I,n,222,2,1799.0999999046326,271683.2999997139,8009,WL,A,10.0
2,27.607999801635742,learn,32392.000198364258,Tue Oct 21 2025 11:05:04 GMT-0500 (Central Daylight Time),273915.69999980927,A,chi,I,backspace,412,2,2232.4000000953674,271683.2999997139,8009,WL,A,10.0
2,27.807999849319458,learn,32192.000150680542,Tue Oct 21 2025 11:05:04 GMT-0500 (Central Daylight Time),274115.2999997139,A,chim,I,m,194,2,2432.0,271683.2999997139,8009,WL,A,10.0
2,27.990999937057495,learn,32009.000062942505,Tue Oct 21 2025 11:05:04 GMT-0500 (Central Daylight Time),274298.69999980927,A,chimn,I,n,179,2,2615.4000000953674,271683.2999997139,8009,WL,A,10.0
2,28.057999849319458,learn,31942.000150680542,Tue Oct 21 2025 11:05:04 GMT-0500 (Central Daylight Time),274365.39999961853,A,chimne,I,e,52,2,2682.0999999046326,271683.2999997139,8009,WL,A,10.0
2,28.19099998474121,learn,31809.00001525879,Tue Oct 21 2025 11:05:04 GMT-0500 (Central Daylight Time),274499.09999990463,A,chimney,I,y,129,2,2815.800000190735,271683.2999997139,8009,WL,A,10.0
2,31.006999969482422,learn,28993.000030517578,Tue Oct 21 2025 11:05:04 GMT-0500 (Central Daylight Time),277314.59999990463,A,chimneyenter,I,enter,2803,2,5631.300000190735,271683.2999997139,8009,WL,A,10.0
2,33.72199988365173,learn,26278.000116348267,Tue Oct 21 2025 11:05:04 GMT-0500 (Central Daylight Time),280030.19999980927,A,l,I,l,2700,2,2715.300000190735,277314.89999961853,8009,WL,A,11.0
2,33.888999938964844,learn,26111.000061035156,Tue Oct 21 2025 11:05:04 GMT-0500 (Central Daylight Time),280197.0,A,lo,I,o,160,2,2882.1000003814697,277314.89999961853,8009,WL,A,11.0
2,34.0719997882843,learn,25928.0002117157,Tue Oct 21 2025 11:05:04 GMT-0500 (Central Daylight Time),280380.19999980927,A,log,I,g,169,2,3065.300000190735,277314.89999961853,8009,WL,A,11.0
2,34.388999938964844,learn,25611.000061035156,Tue Oct 21 2025 11:05:04 GMT-0500 (Central Daylight Time),280696.7999997139,A,logenter,I,enter,306,2,3381.9000000953674,277314.89999961853,8009,WL,A,11.0
2,35.8219997882843,learn,24178.0002117157,Tue Oct 21 2025 11:05:04 GMT-0500 (Central Daylight Time),282129.39999961853,A,b,I,b,1421,2,1432.1999998092651,280697.19999980927,8009,WL,A,12.0
2,35.97199988365173,learn,24028.000116348267,Tue Oct 21 2025 11:05:04 GMT-0500 (Central Daylight Time),282279.69999980927,A,bu,I,u,131,2,1582.5,280697.19999980927,8009,WL,A,12.0
2,36.121999979019165,learn,23878.000020980835,Tue Oct 21 2025 11:05:04 GMT-0500 (Central Daylight Time),282429.39999961853,A,but,I,t,143,2,1732.1999998092651,280697.19999980927,8009,WL,A,12.0
2,36.287999868392944,learn,23712.000131607056,Tue Oct 21 2025 11:05:04 GMT-0500 (Central Daylight Time),282595.89999961853,A,butt,I,t,160,2,1898.6999998092651,280697.19999980927,8009,WL,A,12.0
2,36.388999938964844,learn,23611.000061035156,Tue Oct 21 2025 11:05:04 GMT-0500 (Central Daylight Time),282696.2999997139,A,butto,I,o,91,2,1999.0999999046326,280697.19999980927,8009,WL,A,12.0
2,36.60699987411499,learn,23393.00012588501,Tue Oct 21 2025 11:05:04 GMT-0500 (Central Daylight Time),282914.59999990463,A,button,I,n,213,2,2217.4000000953674,280697.19999980927,8009,WL,A,12.0
2,36.75499987602234,learn,23245.00012397766,Tue Oct 21 2025 11:05:04 GMT-0500 (Central Daylight Time),283062.2999997139,A,buttonenter,I,enter,142,2,2365.0999999046326,280697.19999980927,8009,WL,A,12.0
2,37.371999979019165,learn,22628.000020980835,Tue Oct 21 2025 11:05:04 GMT-0500 (Central Daylight Time),283679.39999961853,A,r,I,r,608,2,616.7999997138977,283062.59999990463,8009,WL,A,13.0
2,37.520999908447266,learn,22479.000091552734,Tue Oct 21 2025 11:05:04 GMT-0500 (Central Daylight Time),283829.09999990463,A,ra,I,a,143,2,766.5,283062.59999990463,8009,WL,A,13.0
2,37.687999963760376,learn,22312.000036239624,Tue Oct 21 2025 11:05:04 GMT-0500 (Central Daylight Time),283995.5,A,rat,I,t,162,2,932.9000000953674,283062.59999990463,8009,WL,A,13.0
2,38.22099995613098,learn,21779.00004386902,Tue Oct 21 2025 11:05:04 GMT-0500 (Central Daylight Time),284529.0,A,ratt,I,t,523,2,1466.4000000953674,283062.59999990463,8009,WL,A,13.0
2,38.38800001144409,learn,21611.99998855591,Tue Oct 21 2025 11:05:04 GMT-0500 (Central Daylight Time),284695.59999990463,A,rattl,I,l,158,2,1633.0,283062.59999990463,8009,WL,A,13.0
2,38.520999908447266,learn,21479.000091552734,Tue Oct 21 2025 11:05:04 GMT-0500 (Central Daylight Time),284828.89999961853,A,rattle,I,e,118,2,1766.2999997138977,283062.59999990463,8009,WL,A,13.0
2,38.82099986076355,learn,21179.00013923645,Tue Oct 21 2025 11:05:04 GMT-0500 (Central Daylight Time),285128.69999980927,A,rattleenter,I,enter,282,2,2066.0999999046326,283062.59999990463,8009,WL,A,13.0
2,39.83699989318848,learn,20163.000106811523,Tue Oct 21 2025 11:05:04 GMT-0500 (Central Daylight Time),286145.09999990463,A,g,I,g,997,2,1015.9000000953674,285129.19999980927,8009,WL,A,14.0
2,40.019999980926514,learn,19980.000019073486,Tue Oct 21 2025 11:05:04 GMT-0500 (Central Daylight Time),286328.19999980927,A,go,I,o,173,2,1199.0,285129.19999980927,8009,WL,A,14.0
2,40.25399994850159,learn,19746.000051498413,Tue Oct 21 2025 11:05:04 GMT-0500 (Central Daylight Time),286561.5,A,gol,I,l,215,2,1432.3000001907349,285129.19999980927,8009,WL,A,14.0
2,40.436999797821045,learn,19563.000202178955,Tue Oct 21 2025 11:05:04 GMT-0500 (Central Daylight Time),286744.7999997139,A,gold,I,d,172,2,1615.5999999046326,285129.19999980927,8009,WL,A,14.0
2,40.919999837875366,learn,19080.000162124634,Tue Oct 21 2025 11:05:04 GMT-0500 (Central Daylight Time),287228.19999980927,A,goldenter,I,enter,470,2,2099.0,285129.19999980927,8009,WL,A,14.0
2,41.80299997329712,learn,18197.00002670288,Tue Oct 21 2025 11:05:04 GMT-0500 (Central Daylight Time),288110.89999961853,A,enter,I,enter,866,2,882.2999997138977,287228.59999990463,8009,WL,A,15.0
3,1.8660001754760742,learn,58133.999824523926,Tue Oct 21 2025 11:05:04 GMT-0500 (Central Daylight Time),355739.7999997139,A,b,I,b,1861,2,1865.7999997138977,353874.0,8009,WL,A,1.0
3,2.199000120162964,learn,57800.999879837036,Tue Oct 21 2025 11:05:04 GMT-0500 (Central Daylight Time),356073.09999990463,A,bo,I,o,314,2,2199.0999999046326,353874.0,8009,WL,A,1.0
3,2.3489999771118164,learn,57651.00002288818,Tue Oct 21 2025 11:05:04 GMT-0500 (Central Daylight Time),356223.09999990463,A,boo,I,o,141,2,2349.0999999046326,353874.0,8009,WL,A,1.0
3,2.4650001525878906,learn,57534.99984741211,Tue Oct 21 2025 11:05:04 GMT-0500 (Central Daylight Time),356339.59999990463,A,book,I,k,103,2,2465.5999999046326,353874.0,8009,WL,A,1.0
3,2.8320000171661377,learn,57167.99998283386,Tue Oct 21 2025 11:05:04 GMT-0500 (Central Daylight Time),356706.2999997139,A,bookenter,I,enter,347,2,2832.2999997138977,353874.0,8009,WL,A,1.0
3,3.8320000171661377,learn,56167.99998283386,Tue Oct 21 2025 11:05:04 GMT-0500 (Central Daylight Time),357706.0,A,f,I,f,980,2,999.3000001907349,356706.69999980927,8009,WL,A,2.0
3,3.932000160217285,learn,56067.999839782715,Tue Oct 21 2025 11:05:04 GMT-0500 (Central Daylight Time),357806.0,A,fl,I,l,92,2,1099.3000001907349,356706.69999980927,8009,WL,A,2.0
3,4.081000089645386,learn,55918.999910354614,Tue Oct 21 2025 11:05:04 GMT-0500 (Central Daylight Time),357955.59999990463,A,flo,I,o,143,2,1248.9000000953674,356706.69999980927,8009,WL,A,2.0
3,4.182000160217285,learn,55817.999839782715,Tue Oct 21 2025 11:05:04 GMT-0500 (Central Daylight Time),358055.7999997139,A,flow,I,w,82,2,1349.0999999046326,356706.69999980927,8009,WL,A,2.0
3,4.4150002002716064,learn,55584.99979972839,Tue Oct 21 2025 11:05:04 GMT-0500 (Central Daylight Time),358289.19999980927,A,flowe,I,e,223,2,1582.5,356706.69999980927,8009,WL,A,2.0
3,4.499000072479248,learn,55500.99992752075,Tue Oct 21 2025 11:05:04 GMT-0500 (Central Daylight Time),358373.5,A,flower,I,r,77,2,1666.8000001907349,356706.69999980927,8009,WL,A,2.0
3,4.698000192642212,learn,55301.99980735779,Tue Oct 21 2025 11:05:04 GMT-0500 (Central Daylight Time),358572.39999961853,A,flowerenter,I,enter,185,2,1865.6999998092651,356706.69999980927,8009,WL,A,2.0
3,4.831000089645386,learn,55168.999910354614,Tue Oct 21 2025 11:05:04 GMT-0500 (Central Daylight Time),358705.59999990463,A,t,I,t,113,2,132.80000019073486,358572.7999997139,8009,WL,A,3.0
3,4.981000185012817,learn,55018.99981498718,Tue Oct 21 2025 11:05:04 GMT-0500 (Central Daylight Time),358855.59999990463,A,tr,I,r,132,2,282.80000019073486,358572.7999997139,8009,WL,A,3.0
3,5.496999979019165,learn,54503.000020980835,Tue Oct 21 2025 11:05:04 GMT-0500 (Central Daylight Time),359371.69999980927,A,tra,I,a,511,2,798.9000000953674,358572.7999997139,8009,WL,A,3.0
3,5.664000034332275,learn,54335.999965667725,Tue Oct 21 2025 11:05:04 GMT-0500 (Central Daylight Time),359538.69999980927,A,trai,I,i,147,2,965.9000000953674,358572.7999997139,8009,WL,A,3.0
3,5.731000185012817,learn,54268.99981498718,Tue Oct 21 2025 11:05:04 GMT-0500 (Central Daylight Time),359605.39999961853,A,train,I,n,52,2,1032.5999999046326,358572.7999997139,8009,WL,A,3.0
3,6.198000192642212,learn,53801.99980735779,Tue Oct 21 2025 11:05:04 GMT-0500 (Central Daylight Time),360071.7999997139,A,trainenter,I,enter,457,2,1499.0,358572.7999997139,8009,WL,A,3.0
3,7.447000026702881,learn,52552.99997329712,Tue Oct 21 2025 11:05:04 GMT-0500 (Central Daylight Time),361321.59999990463,A,r,I,r,1239,2,1249.4000000953674,360072.19999980927,8009,WL,A,4.0
3,7.664000034332275,learn,52335.999965667725,Tue Oct 21 2025 11:05:04 GMT-0500 (Central Daylight Time),361538.09999990463,A,ru,I,u,195,2,1465.9000000953674,360072.19999980927,8009,WL,A,4.0
3,7.864000082015991,learn,52135.99991798401,Tue Oct 21 2025 11:05:04 GMT-0500 (Central Daylight Time),361738.09999990463,A,rug,I,g,180,2,1665.9000000953674,360072.19999980927,8009,WL,A,4.0
3,8.014000177383423,learn,51985.99982261658,Tue Oct 21 2025 11:05:04 GMT-0500 (Central Daylight Time),361887.89999961853,A,rugenter,I,enter,132,2,1815.6999998092651,360072.19999980927,8009,WL,A,4.0
3,8.27999997138977,learn,51720.00002861023,Tue Oct 21 2025 11:05:04 GMT-0500 (Central Daylight Time),362154.59999990463,A,m,I,m,254,2,266.30000019073486,361888.2999997139,8009,WL,A,5.0
3,8.414000034332275,learn,51585.999965667725,Tue Oct 21 2025 11:05:04 GMT-0500 (Central Daylight Time),362287.69999980927,A,me,I,e,116,2,399.40000009536743,361888.2999997139,8009,WL,A,5.0
3,8.61300015449524,learn,51386.99984550476,Tue Oct 21 2025 11:05:04 GMT-0500 (Central Daylight Time),362487.69999980927,A,mea,I,a,183,2,599.4000000953674,361888.2999997139,8009,WL,A,5.0
3,8.713000059127808,learn,51286.99994087219,Tue Oct 21 2025 11:05:04 GMT-0500 (Central Daylight Time),362587.59999990463,A,mead,I,d,87,2,699.3000001907349,361888.2999997139,8009,WL,A,5.0
3,8.897000074386597,learn,51102.9999256134,Tue Oct 21 2025 11:05:04 GMT-0500 (Central Daylight Time),362771.0,A,meado,I,o,179,2,882.7000002861023,361888.2999997139,8009,WL,A,5.0
3,9.080000162124634,learn,50919.999837875366,Tue Oct 21 2025 11:05:04 GMT-0500 (Central Daylight Time),362954.2999997139,A,meadow,I,w,172,2,1066.0,361888.2999997139,8009,WL,A,5.0
3,9.312999963760376,learn,50687.000036239624,Tue Oct 21 2025 11:05:04 GMT-0500 (Central Daylight Time),363187.59999990463,A,meadowenter,I,enter,220,2,1299.3000001907349,361888.2999997139,8009,WL,A,5.0
3,9.746999979019165,learn,50253.000020980835,Tue Oct 21 2025 11:05:04 GMT-0500 (Central Daylight Time),363620.7999997139,A,s,I,s,419,2,432.7999997138977,363188.0,8009,WL,A,6.0
3,9.897000074386597,learn,50102.9999256134,Tue Oct 21 2025 11:05:04 GMT-0500 (Central Daylight Time),363770.69999980927,A,sa,I,a,130,2,582.6999998092651,363188.0,8009,WL,A,6.0
3,10.11300015449524,learn,49886.99984550476,Tue Oct 21 2025 11:05:04 GMT-0500 (Central Daylight Time),363987.5,A,sal,I,l,204,2,799.5,363188.0,8009,WL,A,6.0
3,10.396000146865845,learn,49603.999853134155,Tue Oct 21 2025 11:05:04 GMT-0500 (Central Daylight Time),364270.69999980927,A,salt,I,t,275,2,1082.6999998092651,363188.0,8009,WL,A,6.0
3,10.597000122070312,learn,49402.99987792969,Tue Oct 21 2025 11:05:04 GMT-0500 (Central Daylight Time),364471.59999990463,A,saltenter,I,enter,192,2,1283.5999999046326,363188.0,8009,WL,A,6.0
3,11.463000059127808,learn,48536.99994087219,Tue Oct 21 2025 11:05:04 GMT-0500 (Central Daylight Time),365336.7999997139,A,f,I,f,855,2,864.6999998092651,364472.09999990463,8009,WL,A,7.0
3,11.61300015449524,learn,48386.99984550476,Tue Oct 21 2025 11:05:04 GMT-0500 (Central Daylight Time),365486.89999961853,A,fi,I,i,140,2,1014.7999997138977,364472.09999990463,8009,WL,A,7.0
3,11.696000099182129,learn,48303.99990081787,Tue Oct 21 2025 11:05:04 GMT-0500 (Central Daylight Time),365570.09999990463,A,fin,I,n,63,2,1098.0,364472.09999990463,8009,WL,A,7.0
3,11.930000066757202,learn,48069.9999332428,Tue Oct 21 2025 11:05:04 GMT-0500 (Central Daylight Time),365803.89999961853,A,fing,I,g,220,2,1331.7999997138977,364472.09999990463,8009,WL,A,7.0
3,12.046000003814697,learn,47953.9999961853,Tue Oct 21 2025 11:05:04 GMT-0500 (Central Daylight Time),365920.0,A,finge,I,e,106,2,1447.9000000953674,364472.09999990463,8009,WL,A,7.0
3,12.146000146865845,learn,47853.999853134155,Tue Oct 21 2025 11:05:04 GMT-0500 (Central Daylight Time),366020.59999990463,A,finger,I,r,86,2,1548.5,364472.09999990463,8009,WL,A,7.0
3,12.446000099182129,learn,47553.99990081787,Tue Oct 21 2025 11:05:04 GMT-0500 (Central Daylight Time),366319.7999997139,A,fingerenter,I,enter,282,2,1847.6999998092651,364472.09999990463,8009,WL,A,7.0
3,12.779000043869019,learn,47220.99995613098,Tue Oct 21 2025 11:05:04 GMT-0500 (Central Daylight Time),366653.2999997139,A,h,I,h,319,2,333.19999980926514,366320.09999990463,8009,WL,A,8.0
3,12.879000186920166,learn,47120.999813079834,Tue Oct 21 2025 11:05:04 GMT-0500 (Central Daylight Time),366753.39999961853,A,ha,I,a,89,2,433.2999997138977,366320.09999990463,8009,WL,A,8.0
3,13.196000099182129,learn,46803.99990081787,Tue Oct 21 2025 11:05:04 GMT-0500 (Central Daylight Time),367069.7999997139,A,har,I,r,308,2,749.6999998092651,366320.09999990463,8009,WL,A,8.0
3,13.394999980926514,learn,46605.000019073486,Tue Oct 21 2025 11:05:04 GMT-0500 (Central Daylight Time),367269.59999990463,A,harp,I,p,193,2,949.5,366320.09999990463,8009,WL,A,8.0
3,13.629000186920166,learn,46370.999813079834,Tue Oct 21 2025 11:05:04 GMT-0500 (Central Daylight Time),367502.89999961853,A,harpenter,I,enter,217,2,1182.7999997138977,366320.09999990463,8009,WL,A,8.0
3,13.828999996185303,learn,46171.0000038147,Tue Oct 21 2025 11:05:04 GMT-0500 (Central Daylight Time),367702.69999980927,A,a,I,a,192,2,199.59999990463257,367503.09999990463,8009,WL,A,9.0
3,13.978000164031982,learn,46021.99983596802,Tue Oct 21 2025 11:05:04 GMT-0500 (Central Daylight Time),367852.69999980927,A,ap,I,p,143,2,349.59999990463257,367503.09999990463,8009,WL,A,9.0
3,14.111999988555908,learn,45888.00001144409,Tue Oct 21 2025 11:05:04 GMT-0500 (Central Daylight Time),367986.0,A,app,I,p,122,2,482.90000009536743,367503.09999990463,8009,WL,A,9.0
3,14.195000171661377,learn,45804.99982833862,Tue Oct 21 2025 11:05:04 GMT-0500 (Central Daylight Time),368069.5,A,appl,I,l,77,2,566.4000000953674,367503.09999990463,8009,WL,A,9.0
3,14.42799997329712,learn,45572.00002670288,Tue Oct 21 2025 11:05:04 GMT-0500 (Central Daylight Time),368302.39999961853,A,apple,I,e,225,2,799.2999997138977,367503.09999990463,8009,WL,A,9.0
3,14.67799997329712,learn,45322.00002670288,Tue Oct 21 2025 11:05:04 GMT-0500 (Central Daylight Time),368552.69999980927,A,appleenter,I,enter,231,2,1049.5999999046326,367503.09999990463,8009,WL,A,9.0
3,15.57800006866455,learn,44421.99993133545,Tue Oct 21 2025 11:05:04 GMT-0500 (Central Daylight Time),369452.39999961853,A,c,I,c,885,2,899.2999997138977,368553.09999990463,8009,WL,A,10.0
3,15.761000156402588,learn,44238.99984359741,Tue Oct 21 2025 11:05:04 GMT-0500 (Central Daylight Time),369635.69999980927,A,ch,I,h,170,2,1082.5999999046326,368553.09999990463,8009,WL,A,10.0
3,16.194000005722046,learn,43805.999994277954,Tue Oct 21 2025 11:05:04 GMT-0500 (Central Daylight Time),370068.69999980927,A,chi,I,i,419,2,1515.5999999046326,368553.09999990463,8009,WL,A,10.0
3,16.611000061035156,learn,43388.999938964844,Tue Oct 21 2025 11:05:04 GMT-0500 (Central Daylight Time),370485.0,A,chim,I,m,410,2,1931.9000000953674,368553.09999990463,8009,WL,A,10.0
3,16.811000108718872,learn,43188.99989128113,Tue Oct 21 2025 11:05:04 GMT-0500 (Central Daylight Time),370685.09999990463,A,chimn,I,n,194,2,2132.0,368553.09999990463,8009,WL,A,10.0
3,16.944000005722046,learn,43055.999994277954,Tue Oct 21 2025 11:05:04 GMT-0500 (Central Daylight Time),370818.5,A,chimne,I,e,122,2,2265.4000000953674,368553.09999990463,8009,WL,A,10.0
3,17.14400005340576,learn,42855.99994659424,Tue Oct 21 2025 11:05:04 GMT-0500 (Central Daylight Time),371018.59999990463,A,chimney,I,y,179,2,2465.5,368553.09999990463,8009,WL,A,10.0
3,17.444000005722046,learn,42555.999994277954,Tue Oct 21 2025 11:05:04 GMT-0500 (Central Daylight Time),371318.39999961853,A,chimneyenter,I,enter,284,2,2765.2999997138977,368553.09999990463,8009,WL,A,10.0
3,18.710999965667725,learn,41289.000034332275,Tue Oct 21 2025 11:05:04 GMT-0500 (Central Daylight Time),372584.7999997139,A,b,I,b,1247,2,1266.0,371318.7999997139,8009,WL,A,11.0
3,18.8270001411438,learn,41172.9998588562,Tue Oct 21 2025 11:05:04 GMT-0500 (Central Daylight Time),372701.19999980927,A,bu,I,u,101,2,1382.4000000953674,371318.7999997139,8009,WL,A,11.0
3,19.009999990463257,learn,40990.00000953674,Tue Oct 21 2025 11:05:04 GMT-0500 (Central Daylight Time),372884.5,A,but,I,t,169,2,1565.7000002861023,371318.7999997139,8009,WL,A,11.0
3,19.177000045776367,learn,40822.99995422363,Tue Oct 21 2025 11:05:04 GMT-0500 (Central Daylight Time),373051.0,A,butt,I,t,161,2,1732.2000002861023,371318.7999997139,8009,WL,A,11.0
3,19.294000148773193,learn,40705.99985122681,Tue Oct 21 2025 11:05:04 GMT-0500 (Central Daylight Time),373167.7999997139,A,butto,I,o,100,2,1849.0,371318.7999997139,8009,WL,A,11.0
3,19.377000093460083,learn,40622.99990653992,Tue Oct 21 2025 11:05:04 GMT-0500 (Central Daylight Time),373251.0,A,button,I,n,79,2,1932.2000002861023,371318.7999997139,8009,WL,A,11.0
3,19.64300012588501,learn,40356.99987411499,Tue Oct 21 2025 11:05:04 GMT-0500 (Central Daylight Time),373517.39999961853,A,buttonenter,I,enter,260,2,2198.5999999046326,371318.7999997139,8009,WL,A,11.0
3,19.89300012588501,learn,40106.99987411499,Tue Oct 21 2025 11:05:04 GMT-0500 (Central Daylight Time),373767.69999980927,A,l,I,l,241,2,250.09999990463257,373517.59999990463,8009,WL,A,12.0
3,20.0770001411438,learn,39922.9998588562,Tue Oct 21 2025 11:05:04 GMT-0500 (Central Daylight Time),373951.0,A,lo,I,o,174,2,433.40000009536743,373517.59999990463,8009,WL,A,12.0
3,20.3270001411438,learn,39672.9998588562,Tue Oct 21 2025 11:05:04 GMT-0500 (Central Daylight Time),374200.7999997139,A,log,I,g,231,2,683.1999998092651,373517.59999990463,8009,WL,A,12.0
3,20.62600016593933,learn,39373.99983406067,Tue Oct 21 2025 11:05:04 GMT-0500 (Central Daylight Time),374500.2999997139,A,logenter,I,enter,285,2,982.6999998092651,373517.59999990463,8009,WL,A,12.0
3,20.993000030517578,learn,39006.99996948242,Tue Oct 21 2025 11:05:04 GMT-0500 (Central Daylight Time),374867.0,A,k,I,k,362,2,366.40000009536743,374500.59999990463,8009,WL,A,13.0
3,21.210000038146973,learn,38789.99996185303,Tue Oct 21 2025 11:05:04 GMT-0500 (Central Daylight Time),375084.0,A,ke,I,e,203,2,583.4000000953674,374500.59999990463,8009,WL,A,13.0
3,21.426000118255615,learn,38573.999881744385,Tue Oct 21 2025 11:05:04 GMT-0500 (Central Daylight Time),375300.2999997139,A,key,I,y,202,2,799.6999998092651,374500.59999990463,8009,WL,A,13.0
3,21.693000078201294,learn,38306.999921798706,Tue Oct 21 2025 11:05:04 GMT-0500 (Central Daylight Time),375567.39999961853,A,keyenter,I,enter,250,2,1066.7999997138977,374500.59999990463,8009,WL,A,13.0
3,21.87600016593933,learn,38123.99983406067,Tue Oct 21 2025 11:05:04 GMT-0500 (Central Daylight Time),375750.19999980927,A,r,I,r,167,2,182.5,375567.69999980927,8009,WL,A,14.0
3,22.026000022888184,learn,37973.99997711182,Tue Oct 21 2025 11:05:04 GMT-0500 (Central Daylight Time),375900.2999997139,A,ra,I,a,144,2,332.59999990463257,375567.69999980927,8009,WL,A,14.0
3,22.20900011062622,learn,37790.99988937378,Tue Oct 21 2025 11:05:04 GMT-0500 (Central Daylight Time),376083.59999990463,A,rat,I,t,169,2,515.9000000953674,375567.69999980927,8009,WL,A,14.0
3,22.343000173568726,learn,37656.999826431274,Tue Oct 21 2025 11:05:04 GMT-0500 (Central Daylight Time),376216.7999997139,A,ratt,I,t,115,2,649.0999999046326,375567.69999980927,8009,WL,A,14.0
3,22.509000062942505,learn,37490.999937057495,Tue Oct 21 2025 11:05:04 GMT-0500 (Central Daylight Time),376383.2999997139,A,rattl,I,l,150,2,815.5999999046326,375567.69999980927,8009,WL,A,14.0
3,22.62600016593933,learn,37373.99983406067,Tue Oct 21 2025 11:05:04 GMT-0500 (Central Daylight Time),376500.09999990463,A,rattle,I,e,102,2,932.4000000953674,375567.69999980927,8009,WL,A,14.0
3,22.825999975204468,learn,37174.00002479553,Tue Oct 21 2025 11:05:04 GMT-0500 (Central Daylight Time),376700.09999990463,A,rattleenter,I,enter,186,2,1132.4000000953674,375567.69999980927,8009,WL,A,14.0
3,23.611000061035156,learn,36388.999938964844,Tue Oct 21 2025 11:05:04 GMT-0500 (Central Daylight Time),377485.2999997139,A,g,I,g,779,2,784.7999997138977,376700.5,8009,WL,A,15.0
3,23.742000102996826,learn,36257.999897003174,Tue Oct 21 2025 11:05:04 GMT-0500 (Central Daylight Time),377616.5,A,go,I,o,110,2,916.0,376700.5,8009,WL,A,15.0
3,23.909000158309937,learn,36090.99984169006,Tue Oct 21 2025 11:05:04 GMT-0500 (Central Daylight Time),377783.5,A,gol,I,l,158,2,1083.0,376700.5,8009,WL,A,15.0
3,24.092000007629395,learn,35907.999992370605,Tue Oct 21 2025 11:05:04 GMT-0500 (Central Daylight Time),377966.2999997139,A,gold,I,d,167,2,1265.7999997138977,376700.5,8009,WL,A,15.0
3,24.29200005531311,learn,35707.99994468689,Tue Oct 21 2025 11:05:04 GMT-0500 (Central Daylight Time),378166.19999980927,A,goldenter,I,enter,192,2,1465.6999998092651,376700.5,8009,WL,A,15.0
4,0.7829999923706055,learn,59217.000007629395,Tue Oct 21 2025 11:05:04 GMT-0500 (Central Daylight Time),443779.0,A,b,I,b,772,2,783.1000003814697,442995.89999961853,8009,WL,A,1.0
4,1.0,learn,59000.0,Tue Oct 21 2025 11:05:04 GMT-0500 (Central Daylight Time),443995.39999961853,A,bo,I,o,211,2,999.5,442995.89999961853,8009,WL,A,1.0
4,1.2000000476837158,learn,58799.999952316284,Tue Oct 21 2025 11:05:04 GMT-0500 (Central Daylight Time),444195.5,A,boo,I,o,187,2,1199.6000003814697,442995.89999961853,8009,WL,A,1.0
4,1.2669999599456787,learn,58733.00004005432,Tue Oct 21 2025 11:05:04 GMT-0500 (Central Daylight Time),444262.2999997139,A,book,I,k,59,2,1266.4000000953674,442995.89999961853,8009,WL,A,1.0
4,2.0,learn,58000.0,Tue Oct 21 2025 11:05:04 GMT-0500 (Central Daylight Time),444995.39999961853,A,bookenter,I,enter,720,2,1999.5,442995.89999961853,8009,WL,A,1.0
4,2.500999927520752,learn,57499.00007247925,Tue Oct 21 2025 11:05:04 GMT-0500 (Central Daylight Time),445496.2999997139,A,f,I,f,491,2,500.59999990463257,444995.69999980927,8009,WL,A,2.0
4,2.633000135421753,learn,57366.99986457825,Tue Oct 21 2025 11:05:04 GMT-0500 (Central Daylight Time),445628.2999997139,A,fl,I,l,118,2,632.5999999046326,444995.69999980927,8009,WL,A,2.0
4,2.7990000247955322,learn,57200.99997520447,Tue Oct 21 2025 11:05:04 GMT-0500 (Central Daylight Time),445795.19999980927,A,flo,I,o,146,2,799.5,444995.69999980927,8009,WL,A,2.0
4,2.8989999294281006,learn,57101.0000705719,Tue Oct 21 2025 11:05:04 GMT-0500 (Central Daylight Time),445895.09999990463,A,flow,I,w,83,2,899.4000000953674,444995.69999980927,8009,WL,A,2.0
4,3.0989999771118164,learn,56901.00002288818,Tue Oct 21 2025 11:05:04 GMT-0500 (Central Daylight Time),446095.19999980927,A,flowe,I,e,183,2,1099.5,444995.69999980927,8009,WL,A,2.0
4,3.1660001277923584,learn,56833.99987220764,Tue Oct 21 2025 11:05:04 GMT-0500 (Central Daylight Time),446161.5,A,flower,I,r,54,2,1165.8000001907349,444995.69999980927,8009,WL,A,2.0
4,3.381999969482422,learn,56618.00003051758,Tue Oct 21 2025 11:05:04 GMT-0500 (Central Daylight Time),446378.19999980927,A,flowerenter,I,enter,196,2,1382.5,444995.69999980927,8009,WL,A,2.0
4,3.565999984741211,learn,56434.00001525879,Tue Oct 21 2025 11:05:04 GMT-0500 (Central Daylight Time),446561.2999997139,A,t,I,t,165,2,182.69999980926514,446378.59999990463,8009,WL,A,3.0
4,3.6489999294281006,learn,56351.0000705719,Tue Oct 21 2025 11:05:04 GMT-0500 (Central Daylight Time),446644.7999997139,A,tr,I,r,77,2,266.19999980926514,446378.59999990463,8009,WL,A,3.0
4,3.8489999771118164,learn,56151.00002288818,Tue Oct 21 2025 11:05:04 GMT-0500 (Central Daylight Time),446844.7999997139,A,tra,I,a,186,2,466.19999980926514,446378.59999990463,8009,WL,A,3.0
4,3.9820001125335693,learn,56017.99988746643,Tue Oct 21 2025 11:05:04 GMT-0500 (Central Daylight Time),446977.89999961853,A,trai,I,i,122,2,599.2999997138977,446378.59999990463,8009,WL,A,3.0
4,4.098999977111816,learn,55901.00002288818,Tue Oct 21 2025 11:05:04 GMT-0500 (Central Daylight Time),447095.0,A,train,I,n,101,2,716.4000000953674,446378.59999990463,8009,WL,A,3.0
4,4.332000017166138,learn,55667.99998283386,Tue Oct 21 2025 11:05:04 GMT-0500 (Central Daylight Time),447327.69999980927,A,trainenter,I,enter,215,2,949.0999999046326,446378.59999990463,8009,WL,A,3.0
4,5.046999931335449,learn,54953.00006866455,Tue Oct 21 2025 11:05:04 GMT-0500 (Central Daylight Time),448042.19999980927,A,r,I,r,567,2,714.0999999046326,447328.09999990463,8009,WL,A,4.0
4,5.213000059127808,learn,54786.99994087219,Tue Oct 21 2025 11:05:04 GMT-0500 (Central Daylight Time),448208.2999997139,A,ru,I,u,144,2,880.1999998092651,447328.09999990463,8009,WL,A,4.0
4,5.29800009727478,learn,54701.99990272522,Tue Oct 21 2025 11:05:04 GMT-0500 (Central Daylight Time),448293.89999961853,A,rug,I,g,67,2,965.7999997138977,447328.09999990463,8009,WL,A,4.0
4,5.4649999141693115,learn,54535.00008583069,Tue Oct 21 2025 11:05:04 GMT-0500 (Central Daylight Time),448460.7999997139,A,rugenter,I,enter,152,2,1132.6999998092651,447328.09999990463,8009,WL,A,4.0
4,5.7149999141693115,learn,54285.00008583069,Tue Oct 21 2025 11:05:04 GMT-0500 (Central Daylight Time),448710.7999997139,A,m,I,m,241,2,249.59999990463257,448461.19999980927,8009,WL,A,5.0
4,5.799000024795532,learn,54200.99997520447,Tue Oct 21 2025 11:05:04 GMT-0500 (Central Daylight Time),448794.39999961853,A,me,I,e,64,2,333.19999980926514,448461.19999980927,8009,WL,A,5.0
4,5.9649999141693115,learn,54035.00008583069,Tue Oct 21 2025 11:05:04 GMT-0500 (Central Daylight Time),448960.5,A,mea,I,a,156,2,499.30000019073486,448461.19999980927,8009,WL,A,5.0
4,6.04800009727478,learn,53951.99990272522,Tue Oct 21 2025 11:05:04 GMT-0500 (Central Daylight Time),449044.09999990463,A,mead,I,d,70,2,582.9000000953674,448461.19999980927,8009,WL,A,5.0
4,6.2149999141693115,learn,53785.00008583069,Tue Oct 21 2025 11:05:04 GMT-0500 (Central Daylight Time),449210.5,A,meado,I,o,145,2,749.3000001907349,448461.19999980927,8009,WL,A,5.0
4,6.38100004196167,learn,53618.99995803833,Tue Oct 21 2025 11:05:04 GMT-0500 (Central Daylight Time),449377.09999990463,A,meadow,I,w,147,2,915.9000000953674,448461.19999980927,8009,WL,A,5.0
4,6.697999954223633,learn,53302.00004577637,Tue Oct 21 2025 11:05:04 GMT-0500 (Central Daylight Time),449693.7999997139,A,meadowenter,I,enter,309,2,1232.5999999046326,448461.19999980927,8009,WL,A,5.0
4,7.447999954223633,learn,52552.00004577637,Tue Oct 21 2025 11:05:04 GMT-0500 (Central Daylight Time),450443.5,A,h,I,h,745,2,749.4000000953674,449694.09999990463,8009,WL,A,6.0
4,7.54800009727478,learn,52451.99990272522,Tue Oct 21 2025 11:05:04 GMT-0500 (Central Daylight Time),450543.5,A,ha,I,a,91,2,849.4000000953674,449694.09999990463,8009,WL,A,6.0
4,7.7820000648498535,learn,52217.99993515015,Tue Oct 21 2025 11:05:04 GMT-0500 (Central Daylight Time),450777.2999997139,A,har,I,r,215,2,1083.1999998092651,449694.09999990463,8009,WL,A,6.0
4,7.930999994277954,learn,52069.000005722046,Tue Oct 21 2025 11:05:04 GMT-0500 (Central Daylight Time),450926.59999990463,A,harp,I,p,140,2,1232.5,449694.09999990463,8009,WL,A,6.0
4,8.197999954223633,learn,51802.00004577637,Tue Oct 21 2025 11:05:04 GMT-0500 (Central Daylight Time),451193.2999997139,A,harpenter,I,enter,248,2,1499.1999998092651,449694.09999990463,8009,WL,A,6.0
4,9.04800009727478,learn,50951.99990272522,Tue Oct 21 2025 11:05:04 GMT-0500 (Central Daylight Time),452043.39999961853,A,s,I,s,837,2,849.6999998092651,451193.69999980927,8009,WL,A,7.0
4,9.164000034332275,learn,50835.999965667725,Tue Oct 21 2025 11:05:04 GMT-0500 (Central Daylight Time),452159.89999961853,A,sa,I,a,99,2,966.1999998092651,451193.69999980927,8009,WL,A,7.0
4,9.348000049591064,learn,50651.999950408936,Tue Oct 21 2025 11:05:04 GMT-0500 (Central Daylight Time),452343.19999980927,A,sal,I,l,167,2,1149.5,451193.69999980927,8009,WL,A,7.0
4,9.513999938964844,learn,50486.000061035156,Tue Oct 21 2025 11:05:04 GMT-0500 (Central Daylight Time),452509.5,A,salt,I,t,159,2,1315.8000001907349,451193.69999980927,8009,WL,A,7.0
4,9.71399998664856,learn,50286.00001335144,Tue Oct 21 2025 11:05:04 GMT-0500 (Central Daylight Time),452709.59999990463,A,saltenter,I,enter,185,2,1515.9000000953674,451193.69999980927,8009,WL,A,7.0
4,9.880000114440918,learn,50119.99988555908,Tue Oct 21 2025 11:05:04 GMT-0500 (Central Daylight Time),452876.09999990463,A,f,I,f,161,2,166.09999990463257,452710.0,8009,WL,A,8.0
4,10.013999938964844,learn,49986.000061035156,Tue Oct 21 2025 11:05:04 GMT-0500 (Central Daylight Time),453009.39999961853,A,fi,I,i,122,2,299.3999996185303,452710.0,8009,WL,A,8.0
4,10.097000122070312,learn,49902.99987792969,Tue Oct 21 2025 11:05:04 GMT-0500 (Central Daylight Time),453092.69999980927,A,fin,I,n,77,2,382.69999980926514,452710.0,8009,WL,A,8.0
4,10.314000129699707,learn,49685.99987030029,Tue Oct 21 2025 11:05:04 GMT-0500 (Central Daylight Time),453309.5,A,fing,I,g,209,2,599.5,452710.0,8009,WL,A,8.0
4,10.397000074386597,learn,49602.9999256134,Tue Oct 21 2025 11:05:04 GMT-0500 (Central Daylight Time),453392.59999990463,A,finge,I,e,65,2,682.5999999046326,452710.0,8009,WL,A,8.0
4,10.496999979019165,learn,49503.000020980835,Tue Oct 21 2025 11:05:04 GMT-0500 (Central Daylight Time),453492.5,A,finger,I,r,86,2,782.5,452710.0,8009,WL,A,8.0
4,10.71399998664856,learn,49286.00001335144,Tue Oct 21 2025 11:05:04 GMT-0500 (Central Daylight Time),453709.39999961853,A,fingerenter,I,enter,201,2,999.3999996185303,452710.0,8009,WL,A,8.0
4,11.36299991607666,learn,48637.00008392334,Tue Oct 21 2025 11:05:04 GMT-0500 (Central Daylight Time),454358.69999980927,A,a,I,a,641,2,649.0,453709.69999980927,8009,WL,A,9.0
4,11.513000011444092,learn,48486.99998855591,Tue Oct 21 2025 11:05:04 GMT-0500 (Central Daylight Time),454508.59999990463,A,ap,I,p,145,2,798.9000000953674,453709.69999980927,8009,WL,A,9.0
4,11.647000074386597,learn,48352.9999256134,Tue Oct 21 2025 11:05:04 GMT-0500 (Central Daylight Time),454642.19999980927,A,app,I,p,113,2,932.5,453709.69999980927,8009,WL,A,9.0
4,11.746999979019165,learn,48253.000020980835,Tue Oct 21 2025 11:05:04 GMT-0500 (Central Daylight Time),454742.39999961853,A,appl,I,l,84,2,1032.6999998092651,453709.69999980927,8009,WL,A,9.0
4,11.896000146865845,learn,48103.999853134155,Tue Oct 21 2025 11:05:04 GMT-0500 (Central Daylight Time),454891.89999961853,A,apple,I,e,144,2,1182.1999998092651,453709.69999980927,8009,WL,A,9.0
4,12.27999997138977,learn,47720.00002861023,Tue Oct 21 2025 11:05:04 GMT-0500 (Central Daylight Time),455275.2999997139,A,appleenter,I,enter,379,2,1565.5999999046326,453709.69999980927,8009,WL,A,9.0
4,13.446000099182129,learn,46553.99990081787,Tue Oct 21 2025 11:05:04 GMT-0500 (Central Daylight Time),456441.7999997139,A,c,I,c,1146,2,1166.2999997138977,455275.5,8009,WL,A,10.0
4,13.546000003814697,learn,46453.9999961853,Tue Oct 21 2025 11:05:04 GMT-0500 (Central Daylight Time),456541.69999980927,A,ch,I,h,93,2,1266.1999998092651,455275.5,8009,WL,A,10.0
4,13.878999948501587,learn,46121.00005149841,Tue Oct 21 2025 11:05:04 GMT-0500 (Central Daylight Time),456874.7999997139,A,chi,I,i,320,2,1599.2999997138977,455275.5,8009,WL,A,10.0
4,14.128999948501587,learn,45871.00005149841,Tue Oct 21 2025 11:05:04 GMT-0500 (Central Daylight Time),457124.5,A,chim,I,m,244,2,1849.0,455275.5,8009,WL,A,10.0
4,14.328999996185303,learn,45671.0000038147,Tue Oct 21 2025 11:05:04 GMT-0500 (Central Daylight Time),457324.69999980927,A,chimn,I,n,186,2,2049.199999809265,455275.5,8009,WL,A,10.0
4,14.479000091552734,learn,45520.999908447266,Tue Oct 21 2025 11:05:04 GMT-0500 (Central Daylight Time),457474.59999990463,A,chimne,I,e,138,2,2199.0999999046326,455275.5,8009,WL,A,10.0
4,14.644999980926514,learn,45355.000019073486,Tue Oct 21 2025 11:05:04 GMT-0500 (Central Daylight Time),457641.19999980927,A,chimney,I,y,148,2,2365.699999809265,455275.5,8009,WL,A,10.0
4,14.979000091552734,learn,45020.999908447266,Tue Oct 21 2025 11:05:04 GMT-0500 (Central Daylight Time),457974.5,A,chimneyenter,I,enter,325,2,2699.0,455275.5,8009,WL,A,10.0
4,15.828999996185303,learn,44171.0000038147,Tue Oct 21 2025 11:05:04 GMT-0500 (Central Daylight Time),458824.19999980927,A,l,I,l,840,2,849.3000001907349,457974.89999961853,8009,WL,A,11.0
4,16.062000036239624,learn,43937.999963760376,Tue Oct 21 2025 11:05:04 GMT-0500 (Central Daylight Time),459057.2999997139,A,lo,I,o,214,2,1082.4000000953674,457974.89999961853,8009,WL,A,11.0
4,16.26200008392334,learn,43737.99991607666,Tue Oct 21 2025 11:05:04 GMT-0500 (Central Daylight Time),459257.5,A,log,I,g,181,2,1282.6000003814697,457974.89999961853,8009,WL,A,11.0
4,16.74500012397766,learn,43254.99987602234,Tue Oct 21 2025 11:05:04 GMT-0500 (Central Daylight Time),459740.69999980927,A,logenter,I,enter,468,2,1765.8000001907349,457974.89999961853,8009,WL,A,11.0
4,17.24500012397766,learn,42754.99987602234,Tue Oct 21 2025 11:05:04 GMT-0500 (Central Daylight Time),460240.2999997139,A,b,I,b,482,2,499.19999980926514,459741.09999990463,8009,WL,A,12.0
4,17.394999980926514,learn,42605.000019073486,Tue Oct 21 2025 11:05:04 GMT-0500 (Central Daylight Time),460390.5,A,bu,I,u,142,2,649.4000000953674,459741.09999990463,8009,WL,A,12.0
4,17.57800006866455,learn,42421.99993133545,Tue Oct 21 2025 11:05:04 GMT-0500 (Central Daylight Time),460573.69999980927,A,but,I,t,175,2,832.5999999046326,459741.09999990463,8009,WL,A,12.0
4,17.76099991798401,learn,42239.00008201599,Tue Oct 21 2025 11:05:04 GMT-0500 (Central Daylight Time),460757.0,A,butt,I,t,169,2,1015.9000000953674,459741.09999990463,8009,WL,A,12.0
4,17.861000061035156,learn,42138.999938964844,Tue Oct 21 2025 11:05:04 GMT-0500 (Central Daylight Time),460857.0,A,butto,I,o,82,2,1115.9000000953674,459741.09999990463,8009,WL,A,12.0
4,17.944000005722046,learn,42055.999994277954,Tue Oct 21 2025 11:05:04 GMT-0500 (Central Daylight Time),460940.19999980927,A,button,I,n,78,2,1199.0999999046326,459741.09999990463,8009,WL,A,12.0
4,18.311000108718872,learn,41688.99989128113,Tue Oct 21 2025 11:05:04 GMT-0500 (Central Daylight Time),461307.0,A,buttonenter,I,enter,347,2,1565.9000000953674,459741.09999990463,8009,WL,A,12.0
4,18.82800006866455,learn,41171.99993133545,Tue Oct 21 2025 11:05:04 GMT-0500 (Central Daylight Time),461823.2999997139,A,k,I,k,508,2,516.0999999046326,461307.19999980927,8009,WL,A,13.0
4,18.960999965667725,learn,41039.000034332275,Tue Oct 21 2025 11:05:04 GMT-0500 (Central Daylight Time),461956.69999980927,A,ke,I,e,127,2,649.5,461307.19999980927,8009,WL,A,13.0
4,19.094000101089478,learn,40905.99989891052,Tue Oct 21 2025 11:05:04 GMT-0500 (Central Daylight Time),462089.7999997139,A,key,I,y,122,2,782.5999999046326,461307.19999980927,8009,WL,A,13.0
4,19.344000101089478,learn,40655.99989891052,Tue Oct 21 2025 11:05:04 GMT-0500 (Central Daylight Time),462339.7999997139,A,keyenter,I,enter,237,2,1032.5999999046326,461307.19999980927,8009,WL,A,13.0
4,19.5770001411438,learn,40422.9998588562,Tue Oct 21 2025 11:05:04 GMT-0500 (Central Daylight Time),462573.09999990463,A,r,I,r,219,2,232.90000009536743,462340.19999980927,8009,WL,A,14.0
4,19.710999965667725,learn,40289.000034332275,Tue Oct 21 2025 11:05:04 GMT-0500 (Central Daylight Time),462706.19999980927,A,ra,I,a,121,2,366.0,462340.19999980927,8009,WL,A,14.0
4,19.860000133514404,learn,40139.999866485596,Tue Oct 21 2025 11:05:04 GMT-0500 (Central Daylight Time),462855.89999961853,A,rat,I,t,139,2,515.6999998092651,462340.19999980927,8009,WL,A,14.0
4,20.026999950408936,learn,39973.000049591064,Tue Oct 21 2025 11:05:04 GMT-0500 (Central Daylight Time),463022.59999990463,A,ratt,I,t,149,2,682.4000000953674,462340.19999980927,8009,WL,A,14.0
4,20.14400005340576,learn,39855.99994659424,Tue Oct 21 2025 11:05:04 GMT-0500 (Central Daylight Time),463139.59999990463,A,rattl,I,l,96,2,799.4000000953674,462340.19999980927,8009,WL,A,14.0
4,20.26099991798401,learn,39739.00008201599,Tue Oct 21 2025 11:05:04 GMT-0500 (Central Daylight Time),463256.39999961853,A,rattle,I,e,98,2,916.1999998092651,462340.19999980927,8009,WL,A,14.0
4,20.460000038146973,learn,39539.99996185303,Tue Oct 21 2025 11:05:04 GMT-0500 (Central Daylight Time),463456.19999980927,A,rattleenter,I,enter,182,2,1116.0,462340.19999980927,8009,WL,A,14.0
4,21.110000133514404,learn,38889.999866485596,Tue Oct 21 2025 11:05:04 GMT-0500 (Central Daylight Time),464106.0,A,g,I,g,630,2,649.5,463456.5,8009,WL,A,15.0
4,21.22699999809265,learn,38773.00000190735,Tue Oct 21 2025 11:05:04 GMT-0500 (Central Daylight Time),464222.7999997139,A,go,I,o,100,2,766.2999997138977,463456.5,8009,WL,A,15.0
4,21.41000008583069,learn,38589.99991416931,Tue Oct 21 2025 11:05:04 GMT-0500 (Central Daylight Time),464406.0,A,gol,I,l,168,2,949.5,463456.5,8009,WL,A,15.0
4,21.55999994277954,learn,38440.00005722046,Tue Oct 21 2025 11:05:04 GMT-0500 (Central Daylight Time),464555.59999990463,A,golf,I,f,144,2,1099.0999999046326,463456.5,8009,WL,A,15.0
4,22.360000133514404,learn,37639.999866485596,Tue Oct 21 2025 11:05:04 GMT-0500 (Central Daylight Time),465355.59999990463,A,gol,I,backspace,780,2,1899.0999999046326,463456.5,8009,WL,A,15.0
4,22.575999975204468,learn,37424.00002479553,Tue Oct 21 2025 11:05:04 GMT-0500 (Central Daylight Time),465572.0,A,gold,I,d,211,2,2115.5,463456.5,8009,WL,A,15.0
4,22.743000030517578,learn,37256.99996948242,Tue Oct 21 2025 11:05:04 GMT-0500 (Central Daylight Time),465738.89999961853,A,goldenter,I,enter,154,2,2282.3999996185303,463456.5,8009,WL,A,15.0
5,0.6319999694824219,learn,60000.0,Tue Oct 21 2025 11:05:04 GMT-0500 (Central Daylight Time),530785.2999997139,A,b,I,b,622,2,632.2999997138977,530153.0,8009,WL,A,1.0
5,0.8989999294281006,learn,60000.0,Tue Oct 21 2025 11:05:04 GMT-0500 (Central Daylight Time),531052.5999999046,A,bo,I,o,260,2,899.5999999046326,530153.0,8009,WL,A,1.0
5,1.065000057220459,learn,60000.0,Tue Oct 21 2025 11:05:04 GMT-0500 (Central Daylight Time),531218.0999999046,A,boo,I,o,154,2,1065.0999999046326,530153.0,8009,WL,A,1.0
5,1.1649999618530273,learn,60000.0,Tue Oct 21 2025 11:05:04 GMT-0500 (Central Daylight Time),531318.1999998093,A,book,I,k,84,2,1165.1999998092651,530153.0,8009,WL,A,1.0
5,1.4479999542236328,learn,60000.0,Tue Oct 21 2025 11:05:04 GMT-0500 (Central Daylight Time),531601.0999999046,A,bookenter,I,enter,271,2,1448.0999999046326,530153.0,8009,WL,A,1.0
5,2.13100004196167,learn,60000.0,Tue Oct 21 2025 11:05:04 GMT-0500 (Central Daylight Time),532284.0999999046,A,f,I,f,677,2,682.8000001907349,531601.2999997139,8009,WL,A,2.0
5,2.2309999465942383,learn,60000.0,Tue Oct 21 2025 11:05:04 GMT-0500 (Central Daylight Time),532384.1999998093,A,fl,I,l,81,2,782.9000000953674,531601.2999997139,8009,WL,A,2.0
5,2.3980000019073486,learn,60000.0,Tue Oct 21 2025 11:05:04 GMT-0500 (Central Daylight Time),532550.6999998093,A,flo,I,o,149,2,949.4000000953674,531601.2999997139,8009,WL,A,2.0
5,2.447999954223633,learn,60000.0,Tue Oct 21 2025 11:05:04 GMT-0500 (Central Daylight Time),532600.6999998093,A,flow,I,w,39,2,999.4000000953674,531601.2999997139,8009,WL,A,2.0
5,2.6640000343322754,learn,60000.0,Tue Oct 21 2025 11:05:04 GMT-0500 (Central Daylight Time),532817.3999996185,A,flowe,I,e,205,2,1216.0999999046326,531601.2999997139,8009,WL,A,2.0
5,2.7319998741149902,learn,60000.0,Tue Oct 21 2025 11:05:04 GMT-0500 (Central Daylight Time),532885.0999999046,A,flower,I,r,52,2,1283.8000001907349,531601.2999997139,8009,WL,A,2.0
5,2.930999994277954,learn,60000.0,Tue Oct 21 2025 11:05:04 GMT-0500 (Central Daylight Time),533083.8999996185,A,flowerenter,I,enter,192,2,1482.5999999046326,531601.2999997139,8009,WL,A,2.0
5,3.3469998836517334,learn,60000.0,Tue Oct 21 2025 11:05:04 GMT-0500 (Central Daylight Time),533500.3999996185,A,r,I,r,409,2,416.2999997138977,533084.0999999046,8009,WL,A,3.0
5,3.996999979019165,learn,60000.0,Tue Oct 21 2025 11:05:04 GMT-0500 (Central Daylight Time),534150.3999996185,A,,I,backspace,633,2,1066.2999997138977,533084.0999999046,8009,WL,A,3.0
5,4.230000019073486,learn,60000.0,Tue Oct 21 2025 11:05:04 GMT-0500 (Central Daylight Time),534383.5,A,t,I,t,215,2,1299.4000000953674,533084.0999999046,8009,WL,A,3.0
5,4.379999876022339,learn,60000.0,Tue Oct 21 2025 11:05:04 GMT-0500 (Central Daylight Time),534533.5,A,tr,I,r,142,2,1449.4000000953674,533084.0999999046,8009,WL,A,3.0
5,4.579999923706055,learn,60000.0,Tue Oct 21 2025 11:05:04 GMT-0500 (Central Daylight Time),534733.3999996185,A,tra,I,a,192,2,1649.2999997138977,533084.0999999046,8009,WL,A,3.0
5,4.697000026702881,learn,60000.0,Tue Oct 21 2025 11:05:04 GMT-0500 (Central Daylight Time),534850.1999998093,A,trai,I,i,96,2,1766.0999999046326,533084.0999999046,8009,WL,A,3.0
5,4.7799999713897705,learn,60000.0,Tue Oct 21 2025 11:05:04 GMT-0500 (Central Daylight Time),534933.5,A,train,I,n,66,2,1849.4000000953674,533084.0999999046,8009,WL,A,3.0
5,4.996000051498413,learn,60000.0,Tue Oct 21 2025 11:05:04 GMT-0500 (Central Daylight Time),535149.8999996185,A,trainenter,I,enter,200,2,2065.7999997138977,533084.0999999046,8009,WL,A,3.0
5,5.513000011444092,learn,60000.0,Tue Oct 21 2025 11:05:04 GMT-0500 (Central Daylight Time),535666.3999996185,A,r,I,r,503,2,516.1999998092651,535150.1999998093,8009,WL,A,4.0
5,5.763000011444092,learn,60000.0,Tue Oct 21 2025 11:05:04 GMT-0500 (Central Daylight Time),535916.3999996185,A,ru,I,u,235,2,766.1999998092651,535150.1999998093,8009,WL,A,4.0
5,5.963000059127808,learn,60000.0,Tue Oct 21 2025 11:05:04 GMT-0500 (Central Daylight Time),536116.2999997139,A,rug,I,g,193,2,966.0999999046326,535150.1999998093,8009,WL,A,4.0
5,6.128999948501587,learn,60000.0,Tue Oct 21 2025 11:05:04 GMT-0500 (Central Daylight Time),536282.8999996185,A,rugenter,I,enter,152,2,1132.6999998092651,535150.1999998093,8009,WL,A,4.0
5,6.36299991607666,learn,60000.0,Tue Oct 21 2025 11:05:04 GMT-0500 (Central Daylight Time),536516.0999999046,A,m,I,m,227,2,232.90000009536743,536283.1999998093,8009,WL,A,5.0
5,6.51200008392334,learn,60000.0,Tue Oct 21 2025 11:05:04 GMT-0500 (Central Daylight Time),536666.0999999046,A,me,I,e,137,2,382.90000009536743,536283.1999998093,8009,WL,A,5.0
5,6.661999940872192,learn,60000.0,Tue Oct 21 2025 11:05:04 GMT-0500 (Central Daylight Time),536816.0999999046,A,mea,I,a,131,2,532.9000000953674,536283.1999998093,8009,WL,A,5.0
5,6.728999853134155,learn,60000.0,Tue Oct 21 2025 11:05:04 GMT-0500 (Central Daylight Time),536883.0,A,mead,I,d,62,2,599.8000001907349,536283.1999998093,8009,WL,A,5.0
5,6.928999900817871,learn,60000.0,Tue Oct 21 2025 11:05:04 GMT-0500 (Central Daylight Time),537083.0999999046,A,meado,I,o,187,2,799.9000000953674,536283.1999998093,8009,WL,A,5.0
5,7.11299991607666,learn,60000.0,Tue Oct 21 2025 11:05:04 GMT-0500 (Central Daylight Time),537266.5,A,meadow,I,w,171,2,983.3000001907349,536283.1999998093,8009,WL,A,5.0
5,7.378999948501587,learn,60000.0,Tue Oct 21 2025 11:05:04 GMT-0500 (Central Daylight Time),537532.7999997139,A,meadowenter,I,enter,260,2,1249.5999999046326,536283.1999998093,8009,WL,A,5.0
5,8.26200008392334,learn,60000.0,Tue Oct 21 2025 11:05:04 GMT-0500 (Central Daylight Time),538415.8999996185,A,h,I,h,865,2,882.7999997138977,537533.0999999046,8009,WL,A,6.0
5,8.345999956130981,learn,60000.0,Tue Oct 21 2025 11:05:04 GMT-0500 (Central Daylight Time),538499.1999998093,A,ha,I,a,63,2,966.0999999046326,537533.0999999046,8009,WL,A,6.0
5,8.562000036239624,learn,60000.0,Tue Oct 21 2025 11:05:04 GMT-0500 (Central Daylight Time),538716.0,A,har,I,r,202,2,1182.9000000953674,537533.0999999046,8009,WL,A,6.0
5,8.779000043869019,learn,60000.0,Tue Oct 21 2025 11:05:04 GMT-0500 (Central Daylight Time),538932.5999999046,A,harp,I,p,203,2,1399.5,537533.0999999046,8009,WL,A,6.0
5,9.029000043869019,learn,60000.0,Tue Oct 21 2025 11:05:04 GMT-0500 (Central Daylight Time),539182.2999997139,A,harpenter,I,enter,234,2,1649.1999998092651,537533.0999999046,8009,WL,A,6.0
5,9.644999980926514,learn,60000.0,Tue Oct 21 2025 11:05:04 GMT-0500 (Central Daylight Time),539798.7999997139,A,s,I,s,608,2,616.1999998092651,539182.5999999046,8009,WL,A,7.0
5,9.76200008392334,learn,60000.0,Tue Oct 21 2025 11:05:04 GMT-0500 (Central Daylight Time),539915.2999997139,A,sa,I,a,112,2,732.6999998092651,539182.5999999046,8009,WL,A,7.0
5,9.961999893188477,learn,60000.0,Tue Oct 21 2025 11:05:04 GMT-0500 (Central Daylight Time),540115.5999999046,A,sal,I,l,187,2,933.0,539182.5999999046,8009,WL,A,7.0
5,10.128999948501587,learn,60000.0,Tue Oct 21 2025 11:05:04 GMT-0500 (Central Daylight Time),540282.2999997139,A,salt,I,t,155,2,1099.6999998092651,539182.5999999046,8009,WL,A,7.0
5,10.361999988555908,learn,60000.0,Tue Oct 21 2025 11:05:04 GMT-0500 (Central Daylight Time),540515.0999999046,A,saltenter,I,enter,228,2,1332.5,539182.5999999046,8009,WL,A,7.0
5,10.744999885559082,learn,60000.0,Tue Oct 21 2025 11:05:04 GMT-0500 (Central Daylight Time),540898.5,A,f,I,f,372,2,383.1000003814697,540515.3999996185,8009,WL,A,8.0
5,10.878000020980835,learn,60000.0,Tue Oct 21 2025 11:05:04 GMT-0500 (Central Daylight Time),541031.6999998093,A,fi,I,i,116,2,516.3000001907349,540515.3999996185,8009,WL,A,8.0
5,10.944999933242798,learn,60000.0,Tue Oct 21 2025 11:05:04 GMT-0500 (Central Daylight Time),541098.3999996185,A,fin,I,n,55,2,583.0,540515.3999996185,8009,WL,A,8.0
5,11.17799997329712,learn,60000.0,Tue Oct 21 2025 11:05:04 GMT-0500 (Central Daylight Time),541331.8999996185,A,fing,I,g,220,2,816.5,540515.3999996185,8009,WL,A,8.0
5,11.260999917984009,learn,60000.0,Tue Oct 21 2025 11:05:04 GMT-0500 (Central Daylight Time),541415.0999999046,A,finge,I,e,67,2,899.7000002861023,540515.3999996185,8009,WL,A,8.0
5,11.361999988555908,learn,60000.0,Tue Oct 21 2025 11:05:04 GMT-0500 (Central Daylight Time),541515.1999998093,A,finger,I,r,87,2,999.8000001907349,540515.3999996185,8009,WL,A,8.0
5,11.878000020980835,learn,60000.0,Tue Oct 21 2025 11:05:04 GMT-0500 (Central Daylight Time),542031.5999999046,A,fingerenter,I,enter,499,2,1516.2000002861023,540515.3999996185,8009,WL,A,8.0
5,12.208999872207642,learn,60000.0,Tue Oct 21 2025 11:05:04 GMT-0500 (Central Daylight Time),542362.5999999046,A,s,I,s,326,2,330.7000002861023,542031.8999996185,8009,WL,A,9.0
5,12.355999946594238,learn,60000.0,Tue Oct 21 2025 11:05:04 GMT-0500 (Central Daylight Time),542509.8999996185,A,sp,I,p,142,2,478.0,542031.8999996185,8009,WL,A,9.0
5,12.510999917984009,learn,60000.0,Tue Oct 21 2025 11:05:04 GMT-0500 (Central Daylight Time),542664.5999999046,A,spp,I,p,134,2,632.7000002861023,542031.8999996185,8009,WL,A,9.0
5,12.710999965667725,learn,60000.0,Tue Oct 21 2025 11:05:04 GMT-0500 (Central Daylight Time),542864.5999999046,A,sppl,I,l,182,2,832.7000002861023,542031.8999996185,8009,WL,A,9.0
5,13.260999917984009,learn,60000.0,Tue Oct 21 2025 11:05:04 GMT-0500 (Central Daylight Time),543414.2999997139,A,spp,I,backspace,542,2,1382.4000000953674,542031.8999996185,8009,WL,A,9.0
5,13.444000005722046,learn,60000.0,Tue Oct 21 2025 11:05:04 GMT-0500 (Central Daylight Time),543597.7999997139,A,sp,I,backspace,176,2,1565.9000000953674,542031.8999996185,8009,WL,A,9.0
5,13.593999862670898,learn,60000.0,Tue Oct 21 2025 11:05:04 GMT-0500 (Central Daylight Time),543747.7999997139,A,s,I,backspace,137,2,1715.9000000953674,542031.8999996185,8009,WL,A,9.0
5,13.760999917984009,learn,60000.0,Tue Oct 21 2025 11:05:04 GMT-0500 (Central Daylight Time),543914.1999998093,A,,I,backspace,155,2,1882.3000001907349,542031.8999996185,8009,WL,A,9.0
5,13.976999998092651,learn,60000.0,Tue Oct 21 2025 11:05:04 GMT-0500 (Central Daylight Time),544130.6999998093,A,a,I,a,196,2,2098.800000190735,542031.8999996185,8009,WL,A,9.0
5,14.093999862670898,learn,60000.0,Tue Oct 21 2025 11:05:04 GMT-0500 (Central Daylight Time),544247.5999999046,A,ap,I,p,108,2,2215.7000002861023,542031.8999996185,8009,WL,A,9.0
5,14.276999950408936,learn,60000.0,Tue Oct 21 2025 11:05:04 GMT-0500 (Central Daylight Time),544430.7999997139,A,app,I,p,167,2,2398.9000000953674,542031.8999996185,8009,WL,A,9.0
5,14.40999984741211,learn,60000.0,Tue Oct 21 2025 11:05:04 GMT-0500 (Central Daylight Time),544564.0999999046,A,appl,I,l,119,2,2532.2000002861023,542031.8999996185,8009,WL,A,9.0
5,14.559999942779541,learn,60000.0,Tue Oct 21 2025 11:05:04 GMT-0500 (Central Daylight Time),544713.7999997139,A,apple,I,e,139,2,2681.9000000953674,542031.8999996185,8009,WL,A,9.0
5,14.993000030517578,learn,60000.0,Tue Oct 21 2025 11:05:04 GMT-0500 (Central Daylight Time),545147.0999999046,A,appleenter,I,enter,429,2,3115.2000002861023,542031.8999996185,8009,WL,A,9.0
5,16.993000030517578,learn,60000.0,Tue Oct 21 2025 11:05:04 GMT-0500 (Central Daylight Time),547146.3999996185,A,c,I,c,1988,2,1999.0999999046326,545147.2999997139,8009,WL,A,10.0
5,17.625999927520752,learn,60000.0,Tue Oct 21 2025 11:05:04 GMT-0500 (Central Daylight Time),547779.8999996185,A,ch,I,h,619,2,2632.5999999046326,545147.2999997139,8009,WL,A,10.0
5,17.875999927520752,learn,60000.0,Tue Oct 21 2025 11:05:04 GMT-0500 (Central Daylight Time),548029.5,A,chi,I,i,234,2,2882.2000002861023,545147.2999997139,8009,WL,A,10.0
5,18.075999975204468,learn,60000.0,Tue Oct 21 2025 11:05:04 GMT-0500 (Central Daylight Time),548229.6999998093,A,chim,I,m,185,2,3082.4000000953674,545147.2999997139,8009,WL,A,10.0
5,18.241999864578247,learn,60000.0,Tue Oct 21 2025 11:05:04 GMT-0500 (Central Daylight Time),548396.0,A,chimn,I,n,153,2,3248.7000002861023,545147.2999997139,8009,WL,A,10.0
5,18.342999935150146,learn,60000.0,Tue Oct 21 2025 11:05:04 GMT-0500 (Central Daylight Time),548496.2999997139,A,chimne,I,e,83,2,3349.0,545147.2999997139,8009,WL,A,10.0
5,18.45899987220764,learn,60000.0,Tue Oct 21 2025 11:05:04 GMT-0500 (Central Daylight Time),548612.7999997139,A,chimney,I,y,110,2,3465.5,545147.2999997139,8009,WL,A,10.0
5,18.825999975204468,learn,60000.0,Tue Oct 21 2025 11:05:04 GMT-0500 (Central Daylight Time),548979.2999997139,A,chimneyenter,I,enter,354,2,3832.0,545147.2999997139,8009,WL,A,10.0
5,21.424999952316284,learn,60000.0,Tue Oct 21 2025 11:05:04 GMT-0500 (Central Daylight Time),551578.7999997139,A,l,I,l,2588,2,2599.199999809265,548979.5999999046,8009,WL,A,11.0
5,21.64199995994568,learn,60000.0,Tue Oct 21 2025 11:05:04 GMT-0500 (Central Daylight Time),551795.1999998093,A,lo,I,o,196,2,2815.5999999046326,548979.5999999046,8009,WL,A,11.0
5,21.85800004005432,learn,60000.0,Tue Oct 21 2025 11:05:04 GMT-0500 (Central Daylight Time),552011.7999997139,A,log,I,g,204,2,3032.199999809265,548979.5999999046,8009,WL,A,11.0
5,22.973999977111816,learn,60000.0,Tue Oct 21 2025 11:05:04 GMT-0500 (Central Daylight Time),553128.0999999046,A,logenter,I,enter,1099,2,4148.5,548979.5999999046,8009,WL,A,11.0
5,23.60800004005432,learn,60000.0,Tue Oct 21 2025 11:05:04 GMT-0500 (Central Daylight Time),553761.1999998093,A,b,I,b,614,2,632.6999998092651,553128.5,8009,WL,A,12.0
5,24.573999881744385,learn,60000.0,Tue Oct 21 2025 11:05:04 GMT-0500 (Central Daylight Time),554727.5999999046,A,bu,I,u,957,2,1599.0999999046326,553128.5,8009,WL,A,12.0
5,24.874000072479248,learn,60000.0,Tue Oct 21 2025 11:05:04 GMT-0500 (Central Daylight Time),555027.5,A,but,I,t,287,2,1899.0,553128.5,8009,WL,A,12.0
5,25.056999921798706,learn,60000.0,Tue Oct 21 2025 11:05:04 GMT-0500 (Central Daylight Time),555210.6999998093,A,butt,I,t,179,2,2082.199999809265,553128.5,8009,WL,A,12.0
5,25.240000009536743,learn,60000.0,Tue Oct 21 2025 11:05:04 GMT-0500 (Central Daylight Time),555394.0999999046,A,butto,I,o,172,2,2265.5999999046326,553128.5,8009,WL,A,12.0
5,25.374000072479248,learn,60000.0,Tue Oct 21 2025 11:05:04 GMT-0500 (Central Daylight Time),555527.2999997139,A,button,I,n,117,2,2398.7999997138977,553128.5,8009,WL,A,12.0
5,25.872999906539917,learn,60000.0,Tue Oct 21 2025 11:05:04 GMT-0500 (Central Daylight Time),556027.0,A,buttonenter,I,enter,479,2,2898.5,553128.5,8009,WL,A,12.0
5,26.223000049591064,learn,60000.0,Tue Oct 21 2025 11:05:04 GMT-0500 (Central Daylight Time),556376.7999997139,A,k,I,k,332,2,349.5,556027.2999997139,8009,WL,A,13.0
5,26.490000009536743,learn,60000.0,Tue Oct 21 2025 11:05:04 GMT-0500 (Central Daylight Time),556643.6999998093,A,ke,I,e,253,2,616.4000000953674,556027.2999997139,8009,WL,A,13.0
5,26.6729998588562,learn,60000.0,Tue Oct 21 2025 11:05:04 GMT-0500 (Central Daylight Time),556826.8999996185,A,key,I,y,179,2,799.5999999046326,556027.2999997139,8009,WL,A,13.0
5,27.572999954223633,learn,60000.0,Tue Oct 21 2025 11:05:04 GMT-0500 (Central Daylight Time),557726.1999998093,A,keyenter,I,enter,891,2,1698.9000000953674,556027.2999997139,8009,WL,A,13.0
5,28.138999938964844,learn,60000.0,Tue Oct 21 2025 11:05:04 GMT-0500 (Central Daylight Time),558292.8999996185,A,r,I,r,560,2,566.5,557726.3999996185,8009,WL,A,14.0
5,28.27300000190735,learn,60000.0,Tue Oct 21 2025 11:05:04 GMT-0500 (Central Daylight Time),558426.3999996185,A,ra,I,a,122,2,700.0,557726.3999996185,8009,WL,A,14.0
5,28.50600004196167,learn,60000.0,Tue Oct 21 2025 11:05:04 GMT-0500 (Central Daylight Time),558659.2999997139,A,rat,I,t,228,2,932.9000000953674,557726.3999996185,8009,WL,A,14.0
5,28.655999898910522,learn,60000.0,Tue Oct 21 2025 11:05:04 GMT-0500 (Central Daylight Time),558809.2999997139,A,ratt,I,t,130,2,1082.9000000953674,557726.3999996185,8009,WL,A,14.0
5,28.77300000190735,learn,60000.0,Tue Oct 21 2025 11:05:04 GMT-0500 (Central Daylight Time),558926.2999997139,A,rattl,I,l,101,2,1199.9000000953674,557726.3999996185,8009,WL,A,14.0
5,28.905999898910522,learn,60000.0,Tue Oct 21 2025 11:05:04 GMT-0500 (Central Daylight Time),559059.5999999046,A,rattle,I,e,128,2,1333.2000002861023,557726.3999996185,8009,WL,A,14.0
5,29.205999851226807,learn,60000.0,Tue Oct 21 2025 11:05:04 GMT-0500 (Central Daylight Time),559359.3999996185,A,rattleenter,I,enter,291,2,1633.0,557726.3999996185,8009,WL,A,14.0
5,29.9229998588562,learn,60000.0,Tue Oct 21 2025 11:05:04 GMT-0500 (Central Daylight Time),560076.8999996185,A,g,I,g,710,2,717.0999999046326,559359.7999997139,8009,WL,A,15.0
5,30.08899998664856,learn,60000.0,Tue Oct 21 2025 11:05:04 GMT-0500 (Central Daylight Time),560242.1999998093,A,go,I,o,153,2,882.4000000953674,559359.7999997139,8009,WL,A,15.0
5,30.32200002670288,learn,60000.0,Tue Oct 21 2025 11:05:04 GMT-0500 (Central Daylight Time),560475.6999998093,A,gol,I,l,220,2,1115.9000000953674,559359.7999997139,8009,WL,A,15.0
5,30.454999923706055,learn,60000.0,Tue Oct 21 2025 11:05:04 GMT-0500 (Central Daylight Time),560608.8999996185,A,gold,I,d,123,2,1249.0999999046326,559359.7999997139,8009,WL,A,15.0
5,30.704999923706055,learn,60000.0,Tue Oct 21 2025 11:05:04 GMT-0500 (Central Daylight Time),560858.8999996185,A,goldenter,I,enter,230,2,1499.0999999046326,559359.7999997139,8009,WL,A,15.0
6,0.7999999523162842,distr,59200.000047683716,Tue Oct 21 2025 11:05:04 GMT-0500 (Central Daylight Time),628803.8999996185,B,b,I,b,795,2,799.1999998092651,628004.6999998093,8009,WL,A,1.0
6,1.0329999923706055,distr,58967.000007629395,Tue Oct 21 2025 11:05:04 GMT-0500 (Central Daylight Time),629037.3999996185,B,bo,I,o,226,2,1032.6999998092651,628004.6999998093,8009,WL,A,1.0
6,1.2170000076293945,distr,58782.999992370605,Tue Oct 21 2025 11:05:04 GMT-0500 (Central Daylight Time),629220.8999996185,B,bow,I,w,177,2,1216.1999998092651,628004.6999998093,8009,WL,A,1.0
6,1.3670001029968262,distr,58632.999897003174,Tue Oct 21 2025 11:05:04 GMT-0500 (Central Daylight Time),629370.6999998093,B,bowl,I,l,130,2,1366.0,628004.6999998093,8009,WL,A,1.0
6,1.683000087738037,distr,58316.99991226196,Tue Oct 21 2025 11:05:04 GMT-0500 (Central Daylight Time),629687.2999997139,B,bowlenter,I,enter,308,2,1682.5999999046326,628004.6999998093,8009,WL,A,1.0
6,5.482000112533569,distr,54517.99988746643,Tue Oct 21 2025 11:05:04 GMT-0500 (Central Daylight Time),633486.1999998093,B,m,I,m,3791,2,3798.5999999046326,629687.5999999046,8009,WL,A,2.0
6,5.699000120162964,distr,54300.999879837036,Tue Oct 21 2025 11:05:04 GMT-0500 (Central Daylight Time),633702.6999998093,B,mo,I,o,208,2,4015.0999999046326,629687.5999999046,8009,WL,A,2.0
6,5.965000152587891,distr,54034.99984741211,Tue Oct 21 2025 11:05:04 GMT-0500 (Central Daylight Time),633969.5,B,mor,I,r,248,2,4281.900000095367,629687.5999999046,8009,WL,A,2.0
6,6.082000017166138,distr,53917.99998283386,Tue Oct 21 2025 11:05:04 GMT-0500 (Central Daylight Time),634085.7999997139,B,morn,I,n,109,2,4398.199999809265,629687.5999999046,8009,WL,A,2.0
6,6.215000152587891,distr,53784.99984741211,Tue Oct 21 2025 11:05:04 GMT-0500 (Central Daylight Time),634219.1999998093,B,morni,I,i,121,2,4531.599999904633,629687.5999999046,8009,WL,A,2.0
6,6.365000009536743,distr,53634.99999046326,Tue Oct 21 2025 11:05:04 GMT-0500 (Central Daylight Time),634369.0999999046,B,mornin,I,n,131,2,4681.5,629687.5999999046,8009,WL,A,2.0
6,6.765000104904175,distr,53234.999895095825,Tue Oct 21 2025 11:05:04 GMT-0500 (Central Daylight Time),634769.2999997139,B,morning,I,g,390,2,5081.699999809265,629687.5999999046,8009,WL,A,2.0
6,7.664999961853027,distr,52335.00003814697,Tue Oct 21 2025 11:05:04 GMT-0500 (Central Daylight Time),635668.5999999046,B,mornin,I,backspace,892,2,5981.0,629687.5999999046,8009,WL,A,2.0
6,7.930999994277954,distr,52069.000005722046,Tue Oct 21 2025 11:05:04 GMT-0500 (Central Daylight Time),635935.2999997139,B,morni,I,backspace,258,2,6247.699999809265,629687.5999999046,8009,WL,A,2.0
6,8.164999961853027,distr,51835.00003814697,Tue Oct 21 2025 11:05:04 GMT-0500 (Central Daylight Time),636168.5999999046,B,morn,I,backspace,215,2,6481.0,629687.5999999046,8009,WL,A,2.0
6,8.891000032424927,distr,51108.99996757507,Tue Oct 21 2025 11:05:04 GMT-0500 (Central Daylight Time),636895.0,B,morni,I,i,722,2,7207.400000095367,629687.5999999046,8009,WL,A,2.0
6,9.031000137329102,distr,50968.9998626709,Tue Oct 21 2025 11:05:04 GMT-0500 (Central Daylight Time),637035.0,B,mornin,I,n,119,2,7347.400000095367,629687.5999999046,8009,WL,A,2.0
6,9.180999994277954,distr,50819.000005722046,Tue Oct 21 2025 11:05:04 GMT-0500 (Central Daylight Time),637184.8999996185,B,morning,I,g,131,2,7497.299999713898,629687.5999999046,8009,WL,A,2.0
6,9.680999994277954,distr,50319.000005722046,Tue Oct 21 2025 11:05:04 GMT-0500 (Central Daylight Time),637684.7999997139,B,morningenter,I,enter,486,2,7997.199999809265,629687.5999999046,8009,WL,A,2.0
6,10.514000177383423,distr,49485.99982261658,Tue Oct 21 2025 11:05:04 GMT-0500 (Central Daylight Time),638517.6999998093,B,j,I,j,818,2,832.5,637685.1999998093,8009,WL,A,3.0
6,10.680000066757202,distr,49319.9999332428,Tue Oct 21 2025 11:05:04 GMT-0500 (Central Daylight Time),638684.5999999046,B,ju,I,u,160,2,999.4000000953674,637685.1999998093,8009,WL,A,3.0
6,10.930000066757202,distr,49069.9999332428,Tue Oct 21 2025 11:05:04 GMT-0500 (Central Daylight Time),638934.2999997139,B,jud,I,d,234,2,1249.0999999046326,637685.1999998093,8009,WL,A,3.0
6,11.080000162124634,distr,48919.999837875366,Tue Oct 21 2025 11:05:04 GMT-0500 (Central Daylight Time),639084.5,B,judg,I,g,143,2,1399.3000001907349,637685.1999998093,8009,WL,A,3.0
6,11.347000122070312,distr,48652.99987792969,Tue Oct 21 2025 11:05:04 GMT-0500 (Central Daylight Time),639350.7999997139,B,judge,I,e,258,2,1665.5999999046326,637685.1999998093,8009,WL,A,3.0
6,11.71399998664856,distr,48286.00001335144,Tue Oct 21 2025 11:05:04 GMT-0500 (Central Daylight Time),639717.7999997139,B,judgeenter,I,enter,352,2,2032.5999999046326,637685.1999998093,8009,WL,A,3.0
6,15.795000076293945,distr,44204.999923706055,Tue Oct 21 2025 11:05:04 GMT-0500 (Central Daylight Time),643799.0999999046,B,i,I,i,4072,2,4081.0999999046326,639718.0,8009,WL,A,4.0
6,15.962000131607056,distr,44037.999868392944,Tue Oct 21 2025 11:05:04 GMT-0500 (Central Daylight Time),643966.0999999046,B,in,I,n,151,2,4248.099999904633,639718.0,8009,WL,A,4.0
6,16.16200017929077,distr,43837.99982070923,Tue Oct 21 2025 11:05:04 GMT-0500 (Central Daylight Time),644166.0,B,ins,I,s,193,2,4448.0,639718.0,8009,WL,A,4.0
6,16.361999988555908,distr,43638.00001144409,Tue Oct 21 2025 11:05:04 GMT-0500 (Central Daylight Time),644366.0,B,inse,I,e,185,2,4648.0,639718.0,8009,WL,A,4.0
6,16.479000091552734,distr,43520.999908447266,Tue Oct 21 2025 11:05:04 GMT-0500 (Central Daylight Time),644482.5999999046,B,insec,I,c,104,2,4764.599999904633,639718.0,8009,WL,A,4.0
6,16.77900004386902,distr,43220.99995613098,Tue Oct 21 2025 11:05:04 GMT-0500 (Central Daylight Time),644782.6999998093,B,insect,I,t,291,2,5064.699999809265,639718.0,8009,WL,A,4.0
6,17.07800006866455,distr,42921.99993133545,Tue Oct 21 2025 11:05:04 GMT-0500 (Central Daylight Time),645082.5,B,insectenter,I,enter,288,2,5364.5,639718.0,8009,WL,A,4.0
6,17.644999980926514,distr,42355.000019073486,Tue Oct 21 2025 11:05:04 GMT-0500 (Central Daylight Time),645649.0999999046,B,p,I,p,548,2,566.3000001907349,645082.7999997139,8009,WL,A,5.0
6,17.778000116348267,distr,42221.99988365173,Tue Oct 21 2025 11:05:04 GMT-0500 (Central Daylight Time),645782.2999997139,B,pl,I,l,125,2,699.5,645082.7999997139,8009,WL,A,5.0
6,18.07800006866455,distr,41921.99993133545,Tue Oct 21 2025 11:05:04 GMT-0500 (Central Daylight Time),646082.0,B,pla,I,a,288,2,999.2000002861023,645082.7999997139,8009,WL,A,5.0
6,18.311000108718872,distr,41688.99989128113,Tue Oct 21 2025 11:05:04 GMT-0500 (Central Daylight Time),646315.2999997139,B,plan,I,n,229,2,1232.5,645082.7999997139,8009,WL,A,5.0
6,18.594000101089478,distr,41405.99989891052,Tue Oct 21 2025 11:05:04 GMT-0500 (Central Daylight Time),646598.5,B,plane,I,e,266,2,1515.7000002861023,645082.7999997139,8009,WL,A,5.0
6,19.07800006866455,distr,40921.99993133545,Tue Oct 21 2025 11:05:04 GMT-0500 (Central Daylight Time),647082.0,B,planeenter,I,enter,472,2,1999.2000002861023,645082.7999997139,8009,WL,A,5.0
6,20.094000101089478,distr,39905.99989891052,Tue Oct 21 2025 11:05:04 GMT-0500 (Central Daylight Time),648098.3999996185,B,s,I,s,996,2,1016.0,647082.3999996185,8009,WL,A,6.0
6,20.3270001411438,distr,39672.9998588562,Tue Oct 21 2025 11:05:04 GMT-0500 (Central Daylight Time),648331.2999997139,B,se,I,e,228,2,1248.9000000953674,647082.3999996185,8009,WL,A,6.0
6,20.49399995803833,distr,39506.00004196167,Tue Oct 21 2025 11:05:04 GMT-0500 (Central Daylight Time),648497.8999996185,B,see,I,e,146,2,1415.5,647082.3999996185,8009,WL,A,6.0
6,20.91100001335144,distr,39088.99998664856,Tue Oct 21 2025 11:05:04 GMT-0500 (Central Daylight Time),648914.6999998093,B,seed,I,d,405,2,1832.3000001907349,647082.3999996185,8009,WL,A,6.0
6,21.128000020980835,distr,38871.999979019165,Tue Oct 21 2025 11:05:04 GMT-0500 (Central Daylight Time),649132.1999998093,B,seedenter,I,enter,203,2,2049.800000190735,647082.3999996185,8009,WL,A,6.0
6,21.694000005722046,distr,38305.999994277954,Tue Oct 21 2025 11:05:04 GMT-0500 (Central Daylight Time),649697.7999997139,B,p,I,p,554,2,565.1999998092651,649132.5999999046,8009,WL,A,7.0
6,21.943000078201294,distr,38056.999921798706,Tue Oct 21 2025 11:05:04 GMT-0500 (Central Daylight Time),649947.5999999046,B,po,I,o,245,2,815.0,649132.5999999046,8009,WL,A,7.0
6,22.094000101089478,distr,37905.99989891052,Tue Oct 21 2025 11:05:04 GMT-0500 (Central Daylight Time),650097.5999999046,B,poo,I,o,139,2,965.0,649132.5999999046,8009,WL,A,7.0
6,22.276999950408936,distr,37723.000049591064,Tue Oct 21 2025 11:05:04 GMT-0500 (Central Daylight Time),650280.7999997139,B,pool,I,l,173,2,1148.1999998092651,649132.5999999046,8009,WL,A,7.0
6,22.526999950408936,distr,37473.000049591064,Tue Oct 21 2025 11:05:04 GMT-0500 (Central Daylight Time),650530.8999996185,B,poolenter,I,enter,230,2,1398.2999997138977,649132.5999999046,8009,WL,A,7.0
6,22.8270001411438,distr,37172.9998588562,Tue Oct 21 2025 11:05:04 GMT-0500 (Central Daylight Time),650830.6999998093,B,c,I,c,284,2,299.5,650531.1999998093,8009,WL,A,8.0
6,22.943000078201294,distr,37056.999921798706,Tue Oct 21 2025 11:05:04 GMT-0500 (Central Daylight Time),650947.5,B,co,I,o,96,2,416.30000019073486,650531.1999998093,8009,WL,A,8.0
6,23.075999975204468,distr,36924.00002479553,Tue Oct 21 2025 11:05:04 GMT-0500 (Central Daylight Time),651080.3999996185,B,cou,I,u,123,2,549.1999998092651,650531.1999998093,8009,WL,A,8.0
6,23.193000078201294,distr,36806.999921798706,Tue Oct 21 2025 11:05:04 GMT-0500 (Central Daylight Time),651197.2999997139,B,coun,I,n,102,2,666.0999999046326,650531.1999998093,8009,WL,A,8.0
6,23.575999975204468,distr,36424.00002479553,Tue Oct 21 2025 11:05:04 GMT-0500 (Central Daylight Time),651580.3999996185,B,count,I,t,369,2,1049.1999998092651,650531.1999998093,8009,WL,A,8.0
6,23.743000030517578,distr,36256.99996948242,Tue Oct 21 2025 11:05:04 GMT-0500 (Central Daylight Time),651747.1999998093,B,county,I,y,154,2,1216.0,650531.1999998093,8009,WL,A,8.0
6,24.343000173568726,distr,35656.999826431274,Tue Oct 21 2025 11:05:04 GMT-0500 (Central Daylight Time),652346.7999997139,B,countyenter,I,enter,594,2,1815.5999999046326,650531.1999998093,8009,WL,A,8.0
6,38.48800015449524,distr,21511.99984550476,Tue Oct 21 2025 11:05:04 GMT-0500 (Central Daylight Time),666492.3999996185,B,c,I,c,14132,2,14145.299999713898,652347.0999999046,8009,WL,A,9.0
6,38.687999963760376,distr,21312.000036239624,Tue Oct 21 2025 11:05:04 GMT-0500 (Central Daylight Time),666692.3999996185,B,ch,I,h,185,2,14345.299999713898,652347.0999999046,8009,WL,A,9.0
6,38.87100005149841,distr,21128.999948501587,Tue Oct 21 2025 11:05:04 GMT-0500 (Central Daylight Time),666875.6999998093,B,cha,I,a,163,2,14528.599999904633,652347.0999999046,8009,WL,A,9.0
6,39.021000146865845,distr,20978.999853134155,Tue Oct 21 2025 11:05:04 GMT-0500 (Central Daylight Time),667025.5,B,chai,I,i,139,2,14678.400000095367,652347.0999999046,8009,WL,A,9.0
6,39.25399994850159,distr,20746.000051498413,Tue Oct 21 2025 11:05:04 GMT-0500 (Central Daylight Time),667258.7999997139,B,chair,I,r,220,2,14911.699999809265,652347.0999999046,8009,WL,A,9.0
6,39.48800015449524,distr,20511.99984550476,Tue Oct 21 2025 11:05:04 GMT-0500 (Central Daylight Time),667491.8999996185,B,chairenter,I,enter,228,2,15144.799999713898,652347.0999999046,8009,WL,A,9.0
6,44.80299997329712,distr,15197.00002670288,Tue Oct 21 2025 11:05:04 GMT-0500 (Central Daylight Time),672807.2999997139,B,enter,I,enter,5298,2,5315.199999809265,667492.0999999046,8009,WL,A,10.0
6,45.253000020980835,distr,14746.999979019165,Tue Oct 21 2025 11:05:04 GMT-0500 (Central Daylight Time),673257.3999996185,B,enter,I,enter,431,2,449.7999997138977,672807.5999999046,8009,WL,A,11.0
6,45.60300016403198,distr,14396.999835968018,Tue Oct 21 2025 11:05:04 GMT-0500 (Central Daylight Time),673606.8999996185,B,enter,I,enter,341,2,349.2999997138977,673257.5999999046,8009,WL,A,12.0
6,45.80299997329712,distr,14197.00002670288,Tue Oct 21 2025 11:05:04 GMT-0500 (Central Daylight Time),673806.8999996185,B,enter,I,enter,191,2,199.59999990463257,673607.2999997139,8009,WL,A,13.0
6,46.00200009346008,distr,13997.999906539917,Tue Oct 21 2025 11:05:04 GMT-0500 (Central Daylight Time),674006.7999997139,B,enter,I,enter,183,2,199.5,673807.2999997139,8009,WL,A,14.0
6,46.18600010871887,distr,13813.999891281128,Tue Oct 21 2025 11:05:04 GMT-0500 (Central Daylight Time),674190.0999999046,B,enter,I,enter,168,2,183.0,674007.0999999046,8009,WL,A,15.0
7,0.8159999847412109,immed,59184.00001525879,Tue Oct 21 2025 11:05:04 GMT-0500 (Central Daylight Time),682820.7999997139,A,b,I,b,803,2,816.7999997138977,682004.0,8009,WL,A,1.0
7,1.0829999446868896,immed,58917.00005531311,Tue Oct 21 2025 11:05:04 GMT-0500 (Central Daylight Time),683087.0999999046,A,bo,I,o,257,2,1083.0999999046326,682004.0,8009,WL,A,1.0
7,1.2660000324249268,immed,58733.99996757507,Tue Oct 21 2025 11:05:04 GMT-0500 (Central Daylight Time),683270.1999998093,A,boo,I,o,176,2,1266.1999998092651,682004.0,8009,WL,A,1.0
7,1.3329999446868896,immed,58667.00005531311,Tue Oct 21 2025 11:05:04 GMT-0500 (Central Daylight Time),683337.3999996185,A,book,I,k,48,2,1333.3999996185303,682004.0,8009,WL,A,1.0
7,1.6990001201629639,immed,58300.999879837036,Tue Oct 21 2025 11:05:04 GMT-0500 (Central Daylight Time),683703.5999999046,A,bookenter,I,enter,357,2,1699.5999999046326,682004.0,8009,WL,A,1.0
7,2.381999969482422,immed,57618.00003051758,Tue Oct 21 2025 11:05:04 GMT-0500 (Central Daylight Time),684386.6999998093,A,f,I,f,671,2,682.6999998092651,683704.0,8009,WL,A,2.0
7,2.5169999599456787,immed,57483.00004005432,Tue Oct 21 2025 11:05:04 GMT-0500 (Central Daylight Time),684521.0,A,fl,I,l,116,2,817.0,683704.0,8009,WL,A,2.0
7,2.682000160217285,immed,57317.999839782715,Tue Oct 21 2025 11:05:04 GMT-0500 (Central Daylight Time),684686.5,A,flo,I,o,150,2,982.5,683704.0,8009,WL,A,2.0
7,2.7990000247955322,immed,57200.99997520447,Tue Oct 21 2025 11:05:04 GMT-0500 (Central Daylight Time),684803.5,A,flow,I,w,96,2,1099.5,683704.0,8009,WL,A,2.0
7,2.999000072479248,immed,57000.99992752075,Tue Oct 21 2025 11:05:04 GMT-0500 (Central Daylight Time),685003.1999998093,A,flowe,I,e,187,2,1299.1999998092651,683704.0,8009,WL,A,2.0
7,3.0490000247955322,immed,56950.99997520447,Tue Oct 21 2025 11:05:04 GMT-0500 (Central Daylight Time),685053.1999998093,A,flower,I,r,44,2,1349.1999998092651,683704.0,8009,WL,A,2.0
7,3.381999969482422,immed,56618.00003051758,Tue Oct 21 2025 11:05:04 GMT-0500 (Central Daylight Time),685386.5999999046,A,flowerenter,I,enter,312,2,1682.5999999046326,683704.0,8009,WL,A,2.0
7,3.749000072479248,immed,56250.99992752075,Tue Oct 21 2025 11:05:04 GMT-0500 (Central Daylight Time),685752.8999996185,A,t,I,t,356,2,366.0,685386.8999996185,8009,WL,A,3.0
7,3.8320000171661377,immed,56167.99998283386,Tue Oct 21 2025 11:05:04 GMT-0500 (Central Daylight Time),685836.3999996185,A,tr,I,r,69,2,449.5,685386.8999996185,8009,WL,A,3.0
7,3.999000072479248,immed,56000.99992752075,Tue Oct 21 2025 11:05:04 GMT-0500 (Central Daylight Time),686003.1999998093,A,tra,I,a,154,2,616.3000001907349,685386.8999996185,8009,WL,A,3.0
7,4.14900016784668,immed,55850.99983215332,Tue Oct 21 2025 11:05:04 GMT-0500 (Central Daylight Time),686153.0,A,trai,I,i,131,2,766.1000003814697,685386.8999996185,8009,WL,A,3.0
7,4.233000040054321,immed,55766.99995994568,Tue Oct 21 2025 11:05:04 GMT-0500 (Central Daylight Time),686237.1999998093,A,train,I,n,78,2,850.3000001907349,685386.8999996185,8009,WL,A,3.0
7,4.516999959945679,immed,55483.00004005432,Tue Oct 21 2025 11:05:04 GMT-0500 (Central Daylight Time),686520.8999996185,A,trainenter,I,enter,264,2,1134.0,685386.8999996185,8009,WL,A,3.0
7,5.216000080108643,immed,54783.99991989136,Tue Oct 21 2025 11:05:04 GMT-0500 (Central Daylight Time),687219.7999997139,A,r,I,r,686,2,698.5999999046326,686521.1999998093,8009,WL,A,4.0
7,5.39900016784668,immed,54600.99983215332,Tue Oct 21 2025 11:05:04 GMT-0500 (Central Daylight Time),687403.1999998093,A,ru,I,u,171,2,882.0,686521.1999998093,8009,WL,A,4.0
7,5.615000009536743,immed,54384.99999046326,Tue Oct 21 2025 11:05:04 GMT-0500 (Central Daylight Time),687618.8999996185,A,rug,I,g,212,2,1097.6999998092651,686521.1999998093,8009,WL,A,4.0
7,5.865000009536743,immed,54134.99999046326,Tue Oct 21 2025 11:05:04 GMT-0500 (Central Daylight Time),687869.0,A,rugenter,I,enter,244,2,1347.8000001907349,686521.1999998093,8009,WL,A,4.0
7,6.164999961853027,immed,53835.00003814697,Tue Oct 21 2025 11:05:04 GMT-0500 (Central Daylight Time),688168.8999996185,A,m,I,m,282,2,299.3999996185303,687869.5,8009,WL,A,5.0
7,6.315000057220459,immed,53684.99994277954,Tue Oct 21 2025 11:05:04 GMT-0500 (Central Daylight Time),688319.0,A,me,I,e,134,2,449.5,687869.5,8009,WL,A,5.0
7,6.498000144958496,immed,53501.999855041504,Tue Oct 21 2025 11:05:04 GMT-0500 (Central Daylight Time),688502.0,A,mea,I,a,167,2,632.5,687869.5,8009,WL,A,5.0
7,6.63100004196167,immed,53368.99995803833,Tue Oct 21 2025 11:05:04 GMT-0500 (Central Daylight Time),688635.3999996185,A,mead,I,d,113,2,765.8999996185303,687869.5,8009,WL,A,5.0
7,6.815000057220459,immed,53184.99994277954,Tue Oct 21 2025 11:05:04 GMT-0500 (Central Daylight Time),688818.7999997139,A,meado,I,o,163,2,949.2999997138977,687869.5,8009,WL,A,5.0
7,7.514000177383423,immed,52485.99982261658,Tue Oct 21 2025 11:05:04 GMT-0500 (Central Daylight Time),689518.5999999046,A,meadoe,I,e,684,2,1649.0999999046326,687869.5,8009,WL,A,5.0
7,8.031000137329102,immed,51968.9998626709,Tue Oct 21 2025 11:05:04 GMT-0500 (Central Daylight Time),690035.0999999046,A,meado,I,backspace,496,2,2165.5999999046326,687869.5,8009,WL,A,5.0
7,8.114000082015991,immed,51885.99991798401,Tue Oct 21 2025 11:05:04 GMT-0500 (Central Daylight Time),690118.3999996185,A,meadow,I,w,67,2,2248.8999996185303,687869.5,8009,WL,A,5.0
7,8.48200011253357,immed,51517.99988746643,Tue Oct 21 2025 11:05:04 GMT-0500 (Central Daylight Time),690486.0,A,meadowenter,I,enter,360,2,2616.5,687869.5,8009,WL,A,5.0
