block_c,block_dur,condition,countdown,datetime,endtime,list,multichar_response,project,response,response_time,session_number,start_end,starttime,subject_id,task,task_vers,trial
,,,,Tue Feb 10 2026 13:24:35 GMT-0600 (Central Standard Time),,,,I,space,1820,3,,,8009,WL,C,
prac,,0,,Tue Feb 10 2026 13:24:35 GMT-0600 (Central Standard Time),,NA,b,I,b,1699,3,,,8009,WL,C,1.0
prac,,0,,Tue Feb 10 2026 13:24:35 GMT-0600 (Central Standard Time),,NA,bo,I,o,235,3,,,8009,WL,C,1.0
prac,,0,,Tue Feb 10 2026 13:24:35 GMT-0600 (Central Standard Time),,NA,boo,I,o,152,3,,,8009,WL,C,1.0
prac,,0,,Tue Feb 10 2026 13:24:35 GMT-0600 (Central Standard Time),,NA,boos,I,s,68,3,,,8009,WL,C,1.0
prac,,0,,Tue Feb 10 2026 13:24:35 GMT-0600 (Central Standard Time),,NA,boost,I,t,183,3,,,8009,WL,C,1.0
prac,,0,,Tue Feb 10 2026 13:24:35 GMT-0600 (Central Standard Time),,NA,boostenter,I,enter,384,3,,,8009,WL,C,1.0
1,1.0350000858306885,learn,58964.99991416931,Tue Feb 10 2026 13:24:35 GMT-0600 (Central Standard Time),101813.60000002384,A,t,I,t,1017,3,1034.3999999761581,100779.20000004768,8009,WL,C,1.0
1,1.2340002059936523,learn,58765.99979400635,Tue Feb 10 2026 13:24:35 GMT-0600 (Central Standard Time),102012.80000001192,A,to,I,o,189,3,1233.5999999642372,100779.20000004768,8009,WL,C,1.0
1,1.4680001735687256,learn,58531.999826431274,Tue Feb 10 2026 13:24:35 GMT-0600 (Central Standard Time),102246.40000003576,A,tow,I,w,214,3,1467.199999988079,100779.20000004768,8009,WL,C,1.0
1,1.7020001411437988,learn,58297.9998588562,Tue Feb 10 2026 13:24:35 GMT-0600 (Central Standard Time),102480.90000003576,A,towe,I,e,221,3,1701.699999988079,100779.20000004768,8009,WL,C,1.0
1,1.7840001583099365,learn,58215.99984169006,Tue Feb 10 2026 13:24:35 GMT-0600 (Central Standard Time),102562.20000004768,A,tower,I,r,67,3,1783.0,100779.20000004768,8009,WL,C,1.0
1,2.1680002212524414,learn,57831.99977874756,Tue Feb 10 2026 13:24:35 GMT-0600 (Central Standard Time),102946.70000004768,A,towerenter,I,enter,369,3,2167.5,100779.20000004768,8009,WL,C,1.0
1,2.868000030517578,learn,57131.99996948242,Tue Feb 10 2026 13:24:35 GMT-0600 (Central Standard Time),103646.5,A,w,I,w,679,3,699.3999999761581,102947.10000002384,8009,WL,C,2.0
1,3.0,learn,57000.0,Tue Feb 10 2026 13:24:35 GMT-0600 (Central Standard Time),103778.30000001192,A,wh,I,h,124,3,831.1999999880791,102947.10000002384,8009,WL,C,2.0
1,3.1670000553131104,learn,56832.99994468689,Tue Feb 10 2026 13:24:35 GMT-0600 (Central Standard Time),103945.30000001192,A,whe,I,e,158,3,998.1999999880791,102947.10000002384,8009,WL,C,2.0
1,3.567000150680542,learn,56432.99984931946,Tue Feb 10 2026 13:24:35 GMT-0600 (Central Standard Time),104345.90000003576,A,whea,I,a,388,3,1398.800000011921,102947.10000002384,8009,WL,C,2.0
1,3.7850000858306885,learn,56214.99991416931,Tue Feb 10 2026 13:24:35 GMT-0600 (Central Standard Time),104563.20000004768,A,wheat,I,t,212,3,1616.1000000238419,102947.10000002384,8009,WL,C,2.0
1,4.2840001583099365,learn,55715.99984169006,Tue Feb 10 2026 13:24:35 GMT-0600 (Central Standard Time),105062.0,A,wheatenter,I,enter,477,3,2114.899999976158,102947.10000002384,8009,WL,C,2.0
1,5.884000062942505,learn,54115.999937057495,Tue Feb 10 2026 13:24:35 GMT-0600 (Central Standard Time),106662.70000004768,A,q,I,q,1590,3,1600.300000011921,105062.40000003576,8009,WL,C,3.0
1,6.084000110626221,learn,53915.99988937378,Tue Feb 10 2026 13:24:35 GMT-0600 (Central Standard Time),106862.40000003576,A,qu,I,u,180,3,1800.0,105062.40000003576,8009,WL,C,3.0
1,6.233000040054321,learn,53766.99995994568,Tue Feb 10 2026 13:24:35 GMT-0600 (Central Standard Time),107011.60000002384,A,que,I,e,132,3,1949.199999988079,105062.40000003576,8009,WL,C,3.0
1,6.416000127792358,learn,53583.99987220764,Tue Feb 10 2026 13:24:35 GMT-0600 (Central Standard Time),107194.80000001192,A,quee,I,e,174,3,2132.399999976158,105062.40000003576,8009,WL,C,3.0
1,6.5990002155303955,learn,53400.999784469604,Tue Feb 10 2026 13:24:35 GMT-0600 (Central Standard Time),107377.60000002384,A,queen,I,n,177,3,2315.199999988079,105062.40000003576,8009,WL,C,3.0
1,6.951000213623047,learn,53048.99978637695,Tue Feb 10 2026 13:24:35 GMT-0600 (Central Standard Time),107729.5,A,queenenter,I,enter,336,3,2667.099999964237,105062.40000003576,8009,WL,C,3.0
1,11.23200011253357,learn,48767.99988746643,Tue Feb 10 2026 13:24:35 GMT-0600 (Central Standard Time),112010.0,A,b,I,b,4265,3,4280.199999988079,107729.80000001192,8009,WL,C,4.0
1,11.514000177383423,learn,48485.99982261658,Tue Feb 10 2026 13:24:35 GMT-0600 (Central Standard Time),112292.70000004768,A,bo,I,o,272,3,4562.900000035763,107729.80000001192,8009,WL,C,4.0
1,12.449000120162964,learn,47550.999879837036,Tue Feb 10 2026 13:24:35 GMT-0600 (Central Standard Time),113227.5,A,boy,I,y,919,3,5497.699999988079,107729.80000001192,8009,WL,C,4.0
1,12.915000200271606,learn,47084.99979972839,Tue Feb 10 2026 13:24:35 GMT-0600 (Central Standard Time),113693.0,A,boyenter,I,enter,447,3,5963.199999988079,107729.80000001192,8009,WL,C,4.0
1,13.580000162124634,learn,46419.999837875366,Tue Feb 10 2026 13:24:35 GMT-0600 (Central Standard Time),114358.80000001192,A,d,I,d,653,3,665.3999999761581,113693.40000003576,8009,WL,C,5.0
1,13.919000148773193,learn,46080.99985122681,Tue Feb 10 2026 13:24:35 GMT-0600 (Central Standard Time),114697.30000001192,A,do,I,o,325,3,1003.8999999761581,113693.40000003576,8009,WL,C,5.0
1,14.163000106811523,learn,45836.99989318848,Tue Feb 10 2026 13:24:35 GMT-0600 (Central Standard Time),114941.20000004768,A,doc,I,c,225,3,1247.800000011921,113693.40000003576,8009,WL,C,5.0
1,14.430999994277954,learn,45569.000005722046,Tue Feb 10 2026 13:24:35 GMT-0600 (Central Standard Time),115209.10000002384,A,doct,I,t,256,3,1515.699999988079,113693.40000003576,8009,WL,C,5.0
1,14.696000099182129,learn,45303.99990081787,Tue Feb 10 2026 13:24:35 GMT-0600 (Central Standard Time),115474.40000003576,A,docto,I,o,258,3,1781.0,113693.40000003576,8009,WL,C,5.0
1,14.84600019454956,learn,45153.99980545044,Tue Feb 10 2026 13:24:35 GMT-0600 (Central Standard Time),115624.90000003576,A,doctor,I,r,137,3,1931.5,113693.40000003576,8009,WL,C,5.0
1,15.111999988555908,learn,44888.00001144409,Tue Feb 10 2026 13:24:35 GMT-0600 (Central Standard Time),115890.80000001192,A,doctorenter,I,enter,257,3,2197.399999976158,113693.40000003576,8009,WL,C,5.0
1,15.59600019454956,learn,44403.99980545044,Tue Feb 10 2026 13:24:35 GMT-0600 (Central Standard Time),116374.90000003576,A,n,I,n,464,3,483.80000001192093,115891.10000002384,8009,WL,C,6.0
1,15.729000091552734,learn,44270.999908447266,Tue Feb 10 2026 13:24:35 GMT-0600 (Central Standard Time),116508.10000002384,A,na,I,a,119,3,617.0,115891.10000002384,8009,WL,C,6.0
1,15.92900013923645,learn,44070.99986076355,Tue Feb 10 2026 13:24:35 GMT-0600 (Central Standard Time),116707.70000004768,A,nai,I,i,187,3,816.6000000238419,115891.10000002384,8009,WL,C,6.0
1,16.013000011444092,learn,43986.99998855591,Tue Feb 10 2026 13:24:35 GMT-0600 (Central Standard Time),116791.10000002384,A,nail,I,l,70,3,900.0,115891.10000002384,8009,WL,C,6.0
1,16.247000217437744,learn,43752.999782562256,Tue Feb 10 2026 13:24:35 GMT-0600 (Central Standard Time),117025.10000002384,A,nailenter,I,enter,226,3,1134.0,115891.10000002384,8009,WL,C,6.0
1,16.496000051498413,learn,43503.99994850159,Tue Feb 10 2026 13:24:35 GMT-0600 (Central Standard Time),117274.80000001192,A,c,I,c,241,3,249.30000001192093,117025.5,8009,WL,C,7.0
1,16.695000171661377,learn,43304.99982833862,Tue Feb 10 2026 13:24:35 GMT-0600 (Central Standard Time),117473.90000003576,A,ca,I,a,189,3,448.4000000357628,117025.5,8009,WL,C,7.0
1,16.84600019454956,learn,43153.99980545044,Tue Feb 10 2026 13:24:35 GMT-0600 (Central Standard Time),117625.0,A,cam,I,m,143,3,599.5,117025.5,8009,WL,C,7.0
1,17.111999988555908,learn,42888.00001144409,Tue Feb 10 2026 13:24:35 GMT-0600 (Central Standard Time),117890.80000001192,A,camp,I,p,254,3,865.3000000119209,117025.5,8009,WL,C,7.0
1,17.413000106811523,learn,42586.99989318848,Tue Feb 10 2026 13:24:35 GMT-0600 (Central Standard Time),118191.30000001192,A,campenter,I,enter,288,3,1165.800000011921,117025.5,8009,WL,C,7.0
1,17.59500002861023,learn,42404.99997138977,Tue Feb 10 2026 13:24:35 GMT-0600 (Central Standard Time),118374.0,A,c,I,c,172,3,182.39999997615814,118191.60000002384,8009,WL,C,8.0
1,17.76200008392334,learn,42237.99991607666,Tue Feb 10 2026 13:24:35 GMT-0600 (Central Standard Time),118540.70000004768,A,co,I,o,147,3,349.10000002384186,118191.60000002384,8009,WL,C,8.0
1,18.03000020980835,learn,41969.99979019165,Tue Feb 10 2026 13:24:35 GMT-0600 (Central Standard Time),118809.0,A,cor,I,r,251,3,617.3999999761581,118191.60000002384,8009,WL,C,8.0
1,18.212000131607056,learn,41787.999868392944,Tue Feb 10 2026 13:24:35 GMT-0600 (Central Standard Time),118991.30000001192,A,corn,I,n,165,3,799.6999999880791,118191.60000002384,8009,WL,C,8.0
1,18.645000219345093,learn,41354.99978065491,Tue Feb 10 2026 13:24:35 GMT-0600 (Central Standard Time),119424.0,A,cornenter,I,enter,428,3,1232.3999999761581,118191.60000002384,8009,WL,C,8.0
1,23.56000018119812,learn,36439.99981880188,Tue Feb 10 2026 13:24:35 GMT-0600 (Central Standard Time),124338.40000003576,A,enter,I,enter,4908,3,4914.0,119424.40000003576,8009,WL,C,9.0
1,24.41100001335144,learn,35588.99998664856,Tue Feb 10 2026 13:24:35 GMT-0600 (Central Standard Time),125190.10000002384,A,enter,I,enter,832,3,851.1999999880791,124338.90000003576,8009,WL,C,10.0
1,24.74400019645691,learn,35255.99980354309,Tue Feb 10 2026 13:24:35 GMT-0600 (Central Standard Time),125522.30000001192,A,enter,I,enter,318,3,331.89999997615814,125190.40000003576,8009,WL,C,11.0
1,24.993000030517578,learn,35006.99996948242,Tue Feb 10 2026 13:24:35 GMT-0600 (Central Standard Time),125771.80000001192,A,enter,I,enter,233,3,249.0999999642372,125522.70000004768,8009,WL,C,12.0
1,25.22699999809265,learn,34773.00000190735,Tue Feb 10 2026 13:24:35 GMT-0600 (Central Standard Time),126005.5,A,enter,I,enter,215,3,233.39999997615814,125772.10000002384,8009,WL,C,13.0
1,25.56000018119812,learn,34439.99981880188,Tue Feb 10 2026 13:24:35 GMT-0600 (Central Standard Time),126338.80000001192,A,enter,I,enter,318,3,333.0,126005.80000001192,8009,WL,C,14.0
1,26.027000188827515,learn,33972.999811172485,Tue Feb 10 2026 13:24:35 GMT-0600 (Central Standard Time),126805.60000002384,A,enter,I,enter,449,3,466.60000002384186,126339.0,8009,WL,C,15.0
2,0.7819998264312744,learn,59218.000173568726,Tue Feb 10 2026 13:24:35 GMT-0600 (Central Standard Time),196150.10000002384,A,t,I,t,765,3,782.0,195368.10000002384,8009,WL,C,1.0
2,0.9149999618530273,learn,59085.00003814697,Tue Feb 10 2026 13:24:35 GMT-0600 (Central Standard Time),196283.0,A,to,I,o,116,3,914.8999999761581,195368.10000002384,8009,WL,C,1.0
2,1.113999843597412,learn,58886.00015640259,Tue Feb 10 2026 13:24:35 GMT-0600 (Central Standard Time),196482.0,A,tow,I,w,181,3,1113.8999999761581,195368.10000002384,8009,WL,C,1.0
2,1.363999843597412,learn,58636.00015640259,Tue Feb 10 2026 13:24:35 GMT-0600 (Central Standard Time),196732.30000001192,A,towe,I,e,242,3,1364.199999988079,195368.10000002384,8009,WL,C,1.0
2,1.4649999141693115,learn,58535.00008583069,Tue Feb 10 2026 13:24:35 GMT-0600 (Central Standard Time),196833.10000002384,A,tower,I,r,81,3,1465.0,195368.10000002384,8009,WL,C,1.0
2,1.9139997959136963,learn,58086.000204086304,Tue Feb 10 2026 13:24:35 GMT-0600 (Central Standard Time),197281.90000003576,A,towerenter,I,enter,444,3,1913.800000011921,195368.10000002384,8009,WL,C,1.0
2,2.181999921798706,learn,57818.000078201294,Tue Feb 10 2026 13:24:35 GMT-0600 (Central Standard Time),197549.80000001192,A,w,I,w,257,3,267.69999998807907,197282.10000002384,8009,WL,C,2.0
2,2.3309998512268066,learn,57669.00014877319,Tue Feb 10 2026 13:24:35 GMT-0600 (Central Standard Time),197698.5,A,wh,I,h,135,3,416.39999997615814,197282.10000002384,8009,WL,C,2.0
2,2.447999954223633,learn,57552.00004577637,Tue Feb 10 2026 13:24:35 GMT-0600 (Central Standard Time),197815.5,A,whe,I,e,106,3,533.3999999761581,197282.10000002384,8009,WL,C,2.0
2,3.296999931335449,learn,56703.00006866455,Tue Feb 10 2026 13:24:35 GMT-0600 (Central Standard Time),198665.30000001192,A,whea,I,a,843,3,1383.199999988079,197282.10000002384,8009,WL,C,2.0
2,3.5979998111724854,learn,56402.000188827515,Tue Feb 10 2026 13:24:35 GMT-0600 (Central Standard Time),198965.60000002384,A,wheat,I,t,291,3,1683.5,197282.10000002384,8009,WL,C,2.0
2,3.813999891281128,learn,56186.00010871887,Tue Feb 10 2026 13:24:35 GMT-0600 (Central Standard Time),199182.10000002384,A,wheatenter,I,enter,206,3,1900.0,197282.10000002384,8009,WL,C,2.0
2,4.61299991607666,learn,55387.00008392334,Tue Feb 10 2026 13:24:35 GMT-0600 (Central Standard Time),199981.40000003576,A,q,I,q,781,3,799.1000000238419,199182.30000001192,8009,WL,C,3.0
2,4.796999931335449,learn,55203.00006866455,Tue Feb 10 2026 13:24:35 GMT-0600 (Central Standard Time),200165.5,A,qu,I,u,174,3,983.1999999880791,199182.30000001192,8009,WL,C,3.0
2,4.929999828338623,learn,55070.00017166138,Tue Feb 10 2026 13:24:35 GMT-0600 (Central Standard Time),200297.90000003576,A,que,I,e,126,3,1115.6000000238419,199182.30000001192,8009,WL,C,3.0
2,5.113999843597412,learn,54886.00015640259,Tue Feb 10 2026 13:24:35 GMT-0600 (Central Standard Time),200482.30000001192,A,quee,I,e,179,3,1300.0,199182.30000001192,8009,WL,C,3.0
2,5.229999780654907,learn,54770.00021934509,Tue Feb 10 2026 13:24:35 GMT-0600 (Central Standard Time),200598.0,A,queen,I,n,104,3,1415.699999988079,199182.30000001192,8009,WL,C,3.0
2,5.496999979019165,learn,54503.000020980835,Tue Feb 10 2026 13:24:35 GMT-0600 (Central Standard Time),200864.5,A,queenenter,I,enter,261,3,1682.199999988079,199182.30000001192,8009,WL,C,3.0
2,8.02999997138977,learn,51970.00002861023,Tue Feb 10 2026 13:24:35 GMT-0600 (Central Standard Time),203397.5,A,s,I,s,2523,3,2532.699999988079,200864.80000001192,8009,WL,C,4.0
2,8.145999908447266,learn,51854.000091552734,Tue Feb 10 2026 13:24:35 GMT-0600 (Central Standard Time),203513.80000001192,A,su,I,u,103,3,2649.0,200864.80000001192,8009,WL,C,4.0
2,8.413999795913696,learn,51586.000204086304,Tue Feb 10 2026 13:24:35 GMT-0600 (Central Standard Time),203781.80000001192,A,sug,I,g,251,3,2917.0,200864.80000001192,8009,WL,C,4.0
2,8.512999773025513,learn,51487.00022697449,Tue Feb 10 2026 13:24:35 GMT-0600 (Central Standard Time),203880.5,A,suga,I,a,76,3,3015.699999988079,200864.80000001192,8009,WL,C,4.0
2,8.712999820709229,learn,51287.00017929077,Tue Feb 10 2026 13:24:35 GMT-0600 (Central Standard Time),204080.5,A,sugar,I,r,179,3,3215.699999988079,200864.80000001192,8009,WL,C,4.0
2,8.895999908447266,learn,51104.000091552734,Tue Feb 10 2026 13:24:35 GMT-0600 (Central Standard Time),204263.90000003576,A,sugarenter,I,enter,161,3,3399.100000023842,200864.80000001192,8009,WL,C,4.0
2,9.395999908447266,learn,50604.000091552734,Tue Feb 10 2026 13:24:35 GMT-0600 (Central Standard Time),204764.20000004768,A,h,I,h,483,3,500.2000000476837,204264.0,8009,WL,C,5.0
2,9.611999988555908,learn,50388.00001144409,Tue Feb 10 2026 13:24:35 GMT-0600 (Central Standard Time),204980.10000002384,A,ho,I,o,209,3,716.1000000238419,204264.0,8009,WL,C,5.0
2,9.746999979019165,learn,50253.000020980835,Tue Feb 10 2026 13:24:35 GMT-0600 (Central Standard Time),205114.70000004768,A,hom,I,m,120,3,850.7000000476837,204264.0,8009,WL,C,5.0
2,9.928999900817871,learn,50071.00009918213,Tue Feb 10 2026 13:24:35 GMT-0600 (Central Standard Time),205297.30000001192,A,home,I,e,168,3,1033.300000011921,204264.0,8009,WL,C,5.0
2,10.060999870300293,learn,49939.00012969971,Tue Feb 10 2026 13:24:35 GMT-0600 (Central Standard Time),205429.40000003576,A,homeenter,I,enter,114,3,1165.4000000357628,204264.0,8009,WL,C,5.0
2,10.36299991607666,learn,49637.00008392334,Tue Feb 10 2026 13:24:35 GMT-0600 (Central Standard Time),205731.30000001192,A,b,I,b,281,3,301.69999998807907,205429.60000002384,8009,WL,C,6.0
2,10.462999820709229,learn,49537.00017929077,Tue Feb 10 2026 13:24:35 GMT-0600 (Central Standard Time),205830.5,A,bo,I,o,87,3,400.89999997615814,205429.60000002384,8009,WL,C,6.0
2,10.728999853134155,learn,49271.000146865845,Tue Feb 10 2026 13:24:35 GMT-0600 (Central Standard Time),206097.40000003576,A,boy,I,y,260,3,667.8000000119209,205429.60000002384,8009,WL,C,6.0
2,10.99399995803833,learn,49006.00004196167,Tue Feb 10 2026 13:24:35 GMT-0600 (Central Standard Time),206362.10000002384,A,boyenter,I,enter,248,3,932.5,205429.60000002384,8009,WL,C,6.0
2,12.077999830245972,learn,47922.00016975403,Tue Feb 10 2026 13:24:35 GMT-0600 (Central Standard Time),207445.70000004768,A,c,I,c,1073,3,1083.4000000357628,206362.30000001192,8009,WL,C,7.0
2,12.34499979019165,learn,47655.00020980835,Tue Feb 10 2026 13:24:35 GMT-0600 (Central Standard Time),207713.10000002384,A,ca,I,a,264,3,1350.800000011921,206362.30000001192,8009,WL,C,7.0
2,12.460999965667725,learn,47539.000034332275,Tue Feb 10 2026 13:24:35 GMT-0600 (Central Standard Time),207829.20000004768,A,cam,I,m,104,3,1466.9000000357628,206362.30000001192,8009,WL,C,7.0
2,12.57699990272522,learn,47423.00009727478,Tue Feb 10 2026 13:24:35 GMT-0600 (Central Standard Time),207945.40000003576,A,camp,I,p,110,3,1583.1000000238419,206362.30000001192,8009,WL,C,7.0
2,12.809999942779541,learn,47190.00005722046,Tue Feb 10 2026 13:24:35 GMT-0600 (Central Standard Time),208178.20000004768,A,campenter,I,enter,218,3,1815.9000000357628,206362.30000001192,8009,WL,C,7.0
2,13.162999868392944,learn,46837.000131607056,Tue Feb 10 2026 13:24:35 GMT-0600 (Central Standard Time),208531.30000001192,A,d,I,d,338,3,352.89999997615814,208178.40000003576,8009,WL,C,8.0
2,13.293999910354614,learn,46706.000089645386,Tue Feb 10 2026 13:24:35 GMT-0600 (Central Standard Time),208662.30000001192,A,do,I,o,113,3,483.89999997615814,208178.40000003576,8009,WL,C,8.0
2,13.42799997329712,learn,46572.00002670288,Tue Feb 10 2026 13:24:35 GMT-0600 (Central Standard Time),208795.80000001192,A,doc,I,c,116,3,617.3999999761581,208178.40000003576,8009,WL,C,8.0
2,13.775999784469604,learn,46224.000215530396,Tue Feb 10 2026 13:24:35 GMT-0600 (Central Standard Time),209144.40000003576,A,doco,I,o,326,3,966.0,208178.40000003576,8009,WL,C,8.0
2,14.509999990463257,learn,45490.00000953674,Tue Feb 10 2026 13:24:35 GMT-0600 (Central Standard Time),209877.70000004768,A,doc,I,backspace,717,3,1699.300000011921,208178.40000003576,8009,WL,C,8.0
2,14.65999984741211,learn,45340.00015258789,Tue Feb 10 2026 13:24:35 GMT-0600 (Central Standard Time),210027.5,A,doct,I,t,142,3,1849.0999999642372,208178.40000003576,8009,WL,C,8.0
2,14.77899980545044,learn,45221.00019454956,Tue Feb 10 2026 13:24:35 GMT-0600 (Central Standard Time),210147.5,A,docto,I,o,112,3,1969.0999999642372,208178.40000003576,8009,WL,C,8.0
2,14.960999965667725,learn,45039.000034332275,Tue Feb 10 2026 13:24:35 GMT-0600 (Central Standard Time),210329.10000002384,A,doctor,I,r,167,3,2150.699999988079,208178.40000003576,8009,WL,C,8.0
2,15.360999822616577,learn,44639.00017738342,Tue Feb 10 2026 13:24:35 GMT-0600 (Central Standard Time),210728.80000001192,A,doctorenter,I,enter,394,3,2550.399999976158,208178.40000003576,8009,WL,C,8.0
2,15.894999980926514,learn,44105.000019073486,Tue Feb 10 2026 13:24:35 GMT-0600 (Central Standard Time),211262.70000004768,A,n,I,n,515,3,533.7000000476837,210729.0,8009,WL,C,9.0
2,16.009999990463257,learn,43990.00000953674,Tue Feb 10 2026 13:24:35 GMT-0600 (Central Standard Time),211377.90000003576,A,na,I,a,100,3,648.9000000357628,210729.0,8009,WL,C,9.0
2,16.109999895095825,learn,43890.000104904175,Tue Feb 10 2026 13:24:35 GMT-0600 (Central Standard Time),211478.20000004768,A,nai,I,i,81,3,749.2000000476837,210729.0,8009,WL,C,9.0
2,16.209999799728394,learn,43790.00020027161,Tue Feb 10 2026 13:24:35 GMT-0600 (Central Standard Time),211578.0,A,nail,I,l,86,3,849.0,210729.0,8009,WL,C,9.0
2,16.425999879837036,learn,43574.000120162964,Tue Feb 10 2026 13:24:35 GMT-0600 (Central Standard Time),211794.10000002384,A,nailenter,I,enter,212,3,1065.1000000238419,210729.0,8009,WL,C,9.0
2,16.626999855041504,learn,43373.000144958496,Tue Feb 10 2026 13:24:35 GMT-0600 (Central Standard Time),211994.5,A,c,I,c,186,3,200.19999998807907,211794.30000001192,8009,WL,C,10.0
2,16.777999877929688,learn,43222.00012207031,Tue Feb 10 2026 13:24:35 GMT-0600 (Central Standard Time),212145.5,A,co,I,o,137,3,351.19999998807907,211794.30000001192,8009,WL,C,10.0
2,16.90999984741211,learn,43090.00015258789,Tue Feb 10 2026 13:24:35 GMT-0600 (Central Standard Time),212277.90000003576,A,cor,I,r,121,3,483.60000002384186,211794.30000001192,8009,WL,C,10.0
2,17.05999994277954,learn,42940.00005722046,Tue Feb 10 2026 13:24:35 GMT-0600 (Central Standard Time),212428.20000004768,A,corn,I,n,142,3,633.9000000357628,211794.30000001192,8009,WL,C,10.0
2,17.259999990463257,learn,42740.00000953674,Tue Feb 10 2026 13:24:35 GMT-0600 (Central Standard Time),212628.20000004768,A,cornenter,I,enter,184,3,833.9000000357628,211794.30000001192,8009,WL,C,10.0
2,17.614999771118164,learn,42385.000228881836,Tue Feb 10 2026 13:24:35 GMT-0600 (Central Standard Time),212983.20000004768,A,b,I,b,336,3,354.80000001192093,212628.40000003576,8009,WL,C,11.0
2,17.74399995803833,learn,42256.00004196167,Tue Feb 10 2026 13:24:35 GMT-0600 (Central Standard Time),213111.70000004768,A,bo,I,o,116,3,483.30000001192093,212628.40000003576,8009,WL,C,11.0
2,17.908999919891357,learn,42091.00008010864,Tue Feb 10 2026 13:24:35 GMT-0600 (Central Standard Time),213277.10000002384,A,bod,I,d,154,3,648.6999999880791,212628.40000003576,8009,WL,C,11.0
2,18.025999784469604,learn,41974.000215530396,Tue Feb 10 2026 13:24:35 GMT-0600 (Central Standard Time),213394.40000003576,A,body,I,y,112,3,766.0,212628.40000003576,8009,WL,C,11.0
2,18.242999792099,learn,41757.000207901,Tue Feb 10 2026 13:24:35 GMT-0600 (Central Standard Time),213610.90000003576,A,bodyenter,I,enter,200,3,982.5,212628.40000003576,8009,WL,C,11.0
2,18.39299988746643,learn,41607.00011253357,Tue Feb 10 2026 13:24:35 GMT-0600 (Central Standard Time),213761.5,A,s,I,s,138,3,150.39999997615814,213611.10000002384,8009,WL,C,12.0
2,18.491999864578247,learn,41508.00013542175,Tue Feb 10 2026 13:24:35 GMT-0600 (Central Standard Time),213860.40000003576,A,sh,I,h,89,3,249.30000001192093,213611.10000002384,8009,WL,C,12.0
2,18.608999967575073,learn,41391.00003242493,Tue Feb 10 2026 13:24:35 GMT-0600 (Central Standard Time),213977.20000004768,A,sho,I,o,110,3,366.10000002384186,213611.10000002384,8009,WL,C,12.0
2,18.89299988746643,learn,41107.00011253357,Tue Feb 10 2026 13:24:35 GMT-0600 (Central Standard Time),214260.5,A,shor,I,r,266,3,649.3999999761581,213611.10000002384,8009,WL,C,12.0
2,19.042999982833862,learn,40957.00001716614,Tue Feb 10 2026 13:24:35 GMT-0600 (Central Standard Time),214411.40000003576,A,shore,I,e,130,3,800.3000000119209,213611.10000002384,8009,WL,C,12.0
2,19.258999824523926,learn,40741.000175476074,Tue Feb 10 2026 13:24:35 GMT-0600 (Central Standard Time),214626.70000004768,A,shoreenter,I,enter,199,3,1015.6000000238419,213611.10000002384,8009,WL,C,12.0
2,20.575999975204468,learn,39424.00002479553,Tue Feb 10 2026 13:24:35 GMT-0600 (Central Standard Time),215944.20000004768,A,l,I,l,1307,3,1317.300000011921,214626.90000003576,8009,WL,C,13.0
2,20.674999952316284,learn,39325.000047683716,Tue Feb 10 2026 13:24:35 GMT-0600 (Central Standard Time),216043.30000001192,A,le,I,e,83,3,1416.3999999761581,214626.90000003576,8009,WL,C,13.0
2,20.875,learn,39125.0,Tue Feb 10 2026 13:24:35 GMT-0600 (Central Standard Time),216243.10000002384,A,let,I,t,185,3,1616.199999988079,214626.90000003576,8009,WL,C,13.0
2,20.992999792099,learn,39007.000207901,Tue Feb 10 2026 13:24:35 GMT-0600 (Central Standard Time),216361.10000002384,A,lett,I,t,113,3,1734.199999988079,214626.90000003576,8009,WL,C,13.0
2,21.057999849319458,learn,38942.00015068054,Tue Feb 10 2026 13:24:35 GMT-0600 (Central Standard Time),216426.0,A,lette,I,e,58,3,1799.0999999642372,214626.90000003576,8009,WL,C,13.0
2,21.174999952316284,learn,38825.000047683716,Tue Feb 10 2026 13:24:35 GMT-0600 (Central Standard Time),216543.20000004768,A,letter,I,r,97,3,1916.300000011921,214626.90000003576,8009,WL,C,13.0
2,21.375,learn,38625.0,Tue Feb 10 2026 13:24:35 GMT-0600 (Central Standard Time),216742.5,A,letterenter,I,enter,179,3,2115.599999964237,214626.90000003576,8009,WL,C,13.0
2,30.937999963760376,learn,29062.000036239624,Tue Feb 10 2026 13:24:35 GMT-0600 (Central Standard Time),226306.0,A,f,I,f,9549,3,9563.299999952316,216742.70000004768,8009,WL,C,14.0
2,31.138999938964844,learn,28861.000061035156,Tue Feb 10 2026 13:24:35 GMT-0600 (Central Standard Time),226506.90000003576,A,fl,I,l,179,3,9764.199999988079,216742.70000004768,8009,WL,C,14.0
2,31.204999923706055,learn,28795.000076293945,Tue Feb 10 2026 13:24:35 GMT-0600 (Central Standard Time),226572.90000003576,A,fla,I,a,54,3,9830.199999988079,216742.70000004768,8009,WL,C,14.0
2,31.45799994468689,learn,28542.00005531311,Tue Feb 10 2026 13:24:35 GMT-0600 (Central Standard Time),226825.90000003576,A,flag,I,g,240,3,10083.199999988079,216742.70000004768,8009,WL,C,14.0
2,31.67199993133545,learn,28328.00006866455,Tue Feb 10 2026 13:24:35 GMT-0600 (Central Standard Time),227039.90000003576,A,flagenter,I,enter,194,3,10297.199999988079,216742.70000004768,8009,WL,C,14.0
2,34.186999797821045,learn,25813.000202178955,Tue Feb 10 2026 13:24:35 GMT-0600 (Central Standard Time),229555.10000002384,A,enter,I,enter,2499,3,2514.899999976158,227040.20000004768,8009,WL,C,15.0
3,0.998999834060669,learn,59001.00016593933,Tue Feb 10 2026 13:24:35 GMT-0600 (Central Standard Time),297450.3000000119,A,t,I,t,992,3,998.3999999761581,296451.90000003576,8009,WL,C,1.0
3,1.2660000324249268,learn,58733.99996757507,Tue Feb 10 2026 13:24:35 GMT-0600 (Central Standard Time),297717.7000000477,A,tp,I,p,248,3,1265.800000011921,296451.90000003576,8009,WL,C,1.0
3,2.0829999446868896,learn,57917.00005531311,Tue Feb 10 2026 13:24:35 GMT-0600 (Central Standard Time),298534.3000000119,A,t,I,backspace,805,3,2082.399999976158,296451.90000003576,8009,WL,C,1.0
3,2.815999984741211,learn,57184.00001525879,Tue Feb 10 2026 13:24:35 GMT-0600 (Central Standard Time),299267.8000000119,A,to,I,o,718,3,2815.899999976158,296451.90000003576,8009,WL,C,1.0
3,2.9839999675750732,learn,57016.00003242493,Tue Feb 10 2026 13:24:35 GMT-0600 (Central Standard Time),299435.3000000119,A,tow,I,w,160,3,2983.399999976158,296451.90000003576,8009,WL,C,1.0
3,3.2170000076293945,learn,56782.999992370605,Tue Feb 10 2026 13:24:35 GMT-0600 (Central Standard Time),299668.10000002384,A,towe,I,e,227,3,3216.199999988079,296451.90000003576,8009,WL,C,1.0
3,3.31499981880188,learn,56685.00018119812,Tue Feb 10 2026 13:24:35 GMT-0600 (Central Standard Time),299766.7000000477,A,tower,I,r,89,3,3314.800000011921,296451.90000003576,8009,WL,C,1.0
3,3.8320000171661377,learn,56167.99998283386,Tue Feb 10 2026 13:24:35 GMT-0600 (Central Standard Time),300282.90000003576,A,towerenter,I,enter,499,3,3831.0,296451.90000003576,8009,WL,C,1.0
3,4.06499981880188,learn,55935.00018119812,Tue Feb 10 2026 13:24:35 GMT-0600 (Central Standard Time),300516.5,A,w,I,w,228,3,233.29999995231628,300283.2000000477,8009,WL,C,2.0
3,4.198999881744385,learn,55801.000118255615,Tue Feb 10 2026 13:24:35 GMT-0600 (Central Standard Time),300650.0,A,wh,I,h,127,3,366.7999999523163,300283.2000000477,8009,WL,C,2.0
3,4.296000003814697,learn,55703.9999961853,Tue Feb 10 2026 13:24:35 GMT-0600 (Central Standard Time),300747.90000003576,A,whe,I,e,80,3,464.69999998807907,300283.2000000477,8009,WL,C,2.0
3,4.480999946594238,learn,55519.00005340576,Tue Feb 10 2026 13:24:35 GMT-0600 (Central Standard Time),300932.2000000477,A,whea,I,a,177,3,649.0,300283.2000000477,8009,WL,C,2.0
3,4.766000032424927,learn,55233.99996757507,Tue Feb 10 2026 13:24:35 GMT-0600 (Central Standard Time),301217.0,A,wheat,I,t,272,3,933.7999999523163,300283.2000000477,8009,WL,C,2.0
3,5.063999891281128,learn,54936.00010871887,Tue Feb 10 2026 13:24:35 GMT-0600 (Central Standard Time),301515.2000000477,A,wheatenter,I,enter,290,3,1232.0,300283.2000000477,8009,WL,C,2.0
3,5.664999961853027,learn,54335.00003814697,Tue Feb 10 2026 13:24:35 GMT-0600 (Central Standard Time),302116.0,A,q,I,q,592,3,600.5,301515.5,8009,WL,C,3.0
3,5.881999969482422,learn,54118.00003051758,Tue Feb 10 2026 13:24:35 GMT-0600 (Central Standard Time),302333.7000000477,A,qu,I,u,208,3,818.2000000476837,301515.5,8009,WL,C,3.0
3,6.013000011444092,learn,53986.99998855591,Tue Feb 10 2026 13:24:35 GMT-0600 (Central Standard Time),302464.5,A,que,I,e,118,3,949.0,301515.5,8009,WL,C,3.0
3,6.180999994277954,learn,53819.000005722046,Tue Feb 10 2026 13:24:35 GMT-0600 (Central Standard Time),302632.90000003576,A,quee,I,e,165,3,1117.4000000357628,301515.5,8009,WL,C,3.0
3,6.296999931335449,learn,53703.00006866455,Tue Feb 10 2026 13:24:35 GMT-0600 (Central Standard Time),302748.8000000119,A,queen,I,n,97,3,1233.300000011921,301515.5,8009,WL,C,3.0
3,6.5980000495910645,learn,53401.999950408936,Tue Feb 10 2026 13:24:35 GMT-0600 (Central Standard Time),303048.90000003576,A,queenenter,I,enter,294,3,1533.4000000357628,301515.5,8009,WL,C,3.0
3,6.932999849319458,learn,53067.00015068054,Tue Feb 10 2026 13:24:35 GMT-0600 (Central Standard Time),303384.90000003576,A,s,I,s,330,3,335.69999998807907,303049.2000000477,8009,WL,C,4.0
3,7.11299991607666,learn,52887.00008392334,Tue Feb 10 2026 13:24:35 GMT-0600 (Central Standard Time),303564.60000002384,A,su,I,u,171,3,515.3999999761581,303049.2000000477,8009,WL,C,4.0
3,7.329999923706055,learn,52670.000076293945,Tue Feb 10 2026 13:24:35 GMT-0600 (Central Standard Time),303781.90000003576,A,sug,I,g,208,3,732.6999999880791,303049.2000000477,8009,WL,C,4.0
3,7.414000034332275,learn,52585.999965667725,Tue Feb 10 2026 13:24:35 GMT-0600 (Central Standard Time),303865.3000000119,A,suga,I,a,78,3,816.0999999642372,303049.2000000477,8009,WL,C,4.0
3,7.580999851226807,learn,52419.00014877319,Tue Feb 10 2026 13:24:35 GMT-0600 (Central Standard Time),304031.90000003576,A,sugar,I,r,145,3,982.6999999880791,303049.2000000477,8009,WL,C,4.0
3,7.7129998207092285,learn,52287.00017929077,Tue Feb 10 2026 13:24:35 GMT-0600 (Central Standard Time),304164.3000000119,A,sugarenter,I,enter,114,3,1115.0999999642372,303049.2000000477,8009,WL,C,4.0
3,7.96399998664856,learn,52036.00001335144,Tue Feb 10 2026 13:24:35 GMT-0600 (Central Standard Time),304415.10000002384,A,h,I,h,239,3,250.5,304164.60000002384,8009,WL,C,5.0
3,8.180999994277954,learn,51819.000005722046,Tue Feb 10 2026 13:24:35 GMT-0600 (Central Standard Time),304632.0,A,ho,I,o,205,3,467.39999997615814,304164.60000002384,8009,WL,C,5.0
3,8.27999997138977,learn,51720.00002861023,Tue Feb 10 2026 13:24:35 GMT-0600 (Central Standard Time),304731.8000000119,A,hom,I,m,92,3,567.1999999880791,304164.60000002384,8009,WL,C,5.0
3,8.430999994277954,learn,51569.000005722046,Tue Feb 10 2026 13:24:35 GMT-0600 (Central Standard Time),304882.7000000477,A,home,I,e,137,3,718.1000000238419,304164.60000002384,8009,WL,C,5.0
3,8.578999996185303,learn,51421.0000038147,Tue Feb 10 2026 13:24:35 GMT-0600 (Central Standard Time),305030.7000000477,A,homeenter,I,enter,129,3,866.1000000238419,304164.60000002384,8009,WL,C,5.0
3,8.863999843597412,learn,51136.00015640259,Tue Feb 10 2026 13:24:35 GMT-0600 (Central Standard Time),305315.2000000477,A,b,I,b,277,3,284.2000000476837,305031.0,8009,WL,C,6.0
3,9.02999997138977,learn,50970.00002861023,Tue Feb 10 2026 13:24:35 GMT-0600 (Central Standard Time),305481.0,A,bo,I,o,161,3,450.0,305031.0,8009,WL,C,6.0
3,9.27999997138977,learn,50720.00002861023,Tue Feb 10 2026 13:24:35 GMT-0600 (Central Standard Time),305731.10000002384,A,boy,I,y,235,3,700.1000000238419,305031.0,8009,WL,C,6.0
3,9.679999828338623,learn,50320.00017166138,Tue Feb 10 2026 13:24:35 GMT-0600 (Central Standard Time),306131.10000002384,A,boyenter,I,enter,385,3,1100.1000000238419,305031.0,8009,WL,C,6.0
3,10.429999828338623,learn,49570.00017166138,Tue Feb 10 2026 13:24:35 GMT-0600 (Central Standard Time),306881.10000002384,A,c,I,c,729,3,749.6999999880791,306131.40000003576,8009,WL,C,7.0
3,10.579999923706055,learn,49420.000076293945,Tue Feb 10 2026 13:24:35 GMT-0600 (Central Standard Time),307031.7000000477,A,ca,I,a,139,3,900.3000000119209,306131.40000003576,8009,WL,C,7.0
3,10.678999900817871,learn,49321.00009918213,Tue Feb 10 2026 13:24:35 GMT-0600 (Central Standard Time),307130.5,A,cam,I,m,85,3,999.0999999642372,306131.40000003576,8009,WL,C,7.0
3,10.79699993133545,learn,49203.00006866455,Tue Feb 10 2026 13:24:35 GMT-0600 (Central Standard Time),307248.0,A,camp,I,p,113,3,1116.5999999642372,306131.40000003576,8009,WL,C,7.0
3,11.062000036239624,learn,48937.999963760376,Tue Feb 10 2026 13:24:35 GMT-0600 (Central Standard Time),307513.7000000477,A,campenter,I,enter,252,3,1382.300000011921,306131.40000003576,8009,WL,C,7.0
3,11.329999923706055,learn,48670.000076293945,Tue Feb 10 2026 13:24:35 GMT-0600 (Central Standard Time),307781.7000000477,A,l,I,l,258,3,267.7000000476837,307514.0,8009,WL,C,8.0
3,11.44700002670288,learn,48552.99997329712,Tue Feb 10 2026 13:24:35 GMT-0600 (Central Standard Time),307898.3000000119,A,le,I,e,102,3,384.30000001192093,307514.0,8009,WL,C,8.0
3,11.628999948501587,learn,48371.00005149841,Tue Feb 10 2026 13:24:35 GMT-0600 (Central Standard Time),308080.3000000119,A,let,I,t,169,3,566.3000000119209,307514.0,8009,WL,C,8.0
3,11.779000043869019,learn,48220.99995613098,Tue Feb 10 2026 13:24:35 GMT-0600 (Central Standard Time),308230.3000000119,A,lett,I,t,140,3,716.3000000119209,307514.0,8009,WL,C,8.0
3,11.960999965667725,learn,48039.000034332275,Tue Feb 10 2026 13:24:35 GMT-0600 (Central Standard Time),308412.60000002384,A,lette,I,e,172,3,898.6000000238419,307514.0,8009,WL,C,8.0
3,12.027999877929688,learn,47972.00012207031,Tue Feb 10 2026 13:24:35 GMT-0600 (Central Standard Time),308479.7000000477,A,letter,I,r,47,3,965.7000000476837,307514.0,8009,WL,C,8.0
3,12.246999979019165,learn,47753.000020980835,Tue Feb 10 2026 13:24:35 GMT-0600 (Central Standard Time),308698.3000000119,A,letterenter,I,enter,203,3,1184.300000011921,307514.0,8009,WL,C,8.0
3,12.711999893188477,learn,47288.00010681152,Tue Feb 10 2026 13:24:35 GMT-0600 (Central Standard Time),309163.7000000477,A,f,I,f,449,3,465.10000002384186,308698.60000002384,8009,WL,C,9.0
3,12.86299991607666,learn,47137.00008392334,Tue Feb 10 2026 13:24:35 GMT-0600 (Central Standard Time),309314.8000000119,A,fl,I,l,142,3,616.1999999880791,308698.60000002384,8009,WL,C,9.0
3,13.01199984550476,learn,46988.00015449524,Tue Feb 10 2026 13:24:35 GMT-0600 (Central Standard Time),309463.5,A,fla,I,a,126,3,764.8999999761581,308698.60000002384,8009,WL,C,9.0
3,13.345999956130981,learn,46654.00004386902,Tue Feb 10 2026 13:24:35 GMT-0600 (Central Standard Time),309797.10000002384,A,flag,I,g,315,3,1098.5,308698.60000002384,8009,WL,C,9.0
3,13.661999940872192,learn,46338.00005912781,Tue Feb 10 2026 13:24:35 GMT-0600 (Central Standard Time),310113.40000003576,A,flagenter,I,enter,309,3,1414.800000011921,308698.60000002384,8009,WL,C,9.0
3,14.394999980926514,learn,45605.000019073486,Tue Feb 10 2026 13:24:35 GMT-0600 (Central Standard Time),310846.8000000119,A,d,I,d,723,3,733.0999999642372,310113.7000000477,8009,WL,C,10.0
3,14.63100004196167,learn,45368.99995803833,Tue Feb 10 2026 13:24:35 GMT-0600 (Central Standard Time),311082.8000000119,A,dc,I,c,214,3,969.0999999642372,310113.7000000477,8009,WL,C,10.0
3,14.744999885559082,learn,45255.00011444092,Tue Feb 10 2026 13:24:35 GMT-0600 (Central Standard Time),311196.40000003576,A,dco,I,o,96,3,1082.699999988079,310113.7000000477,8009,WL,C,10.0
3,14.977999925613403,learn,45022.0000743866,Tue Feb 10 2026 13:24:35 GMT-0600 (Central Standard Time),311429.60000002384,A,dcot,I,t,214,3,1315.8999999761581,310113.7000000477,8009,WL,C,10.0
3,15.09500002861023,learn,44904.99997138977,Tue Feb 10 2026 13:24:35 GMT-0600 (Central Standard Time),311546.90000003576,A,dcoto,I,o,112,3,1433.199999988079,310113.7000000477,8009,WL,C,10.0
3,15.263000011444092,learn,44736.99998855591,Tue Feb 10 2026 13:24:35 GMT-0600 (Central Standard Time),311714.8000000119,A,dcotor,I,r,153,3,1601.0999999642372,310113.7000000477,8009,WL,C,10.0
3,15.42799997329712,learn,44572.00002670288,Tue Feb 10 2026 13:24:35 GMT-0600 (Central Standard Time),311879.7000000477,A,dcotorenter,I,enter,154,3,1766.0,310113.7000000477,8009,WL,C,10.0
3,15.644000053405762,learn,44355.99994659424,Tue Feb 10 2026 13:24:35 GMT-0600 (Central Standard Time),312095.90000003576,A,c,I,c,196,3,216.0,311879.90000003576,8009,WL,C,11.0
3,15.812000036239624,learn,44187.999963760376,Tue Feb 10 2026 13:24:35 GMT-0600 (Central Standard Time),312262.90000003576,A,ca,I,a,148,3,383.0,311879.90000003576,8009,WL,C,11.0
3,16.01199984550476,learn,43988.00015449524,Tue Feb 10 2026 13:24:35 GMT-0600 (Central Standard Time),312463.10000002384,A,cat,I,t,188,3,583.1999999880791,311879.90000003576,8009,WL,C,11.0
3,16.164000034332275,learn,43835.999965667725,Tue Feb 10 2026 13:24:35 GMT-0600 (Central Standard Time),312615.7000000477,A,catt,I,t,131,3,735.8000000119209,311879.90000003576,8009,WL,C,11.0
3,16.310999870300293,learn,43689.00012969971,Tue Feb 10 2026 13:24:35 GMT-0600 (Central Standard Time),312762.8000000119,A,cattl,I,l,133,3,882.8999999761581,311879.90000003576,8009,WL,C,11.0
3,16.41100001335144,learn,43588.99998664856,Tue Feb 10 2026 13:24:35 GMT-0600 (Central Standard Time),312862.8000000119,A,cattle,I,e,80,3,982.8999999761581,311879.90000003576,8009,WL,C,11.0
3,16.710000038146973,learn,43289.99996185303,Tue Feb 10 2026 13:24:35 GMT-0600 (Central Standard Time),313161.7000000477,A,cattleenter,I,enter,284,3,1281.800000011921,311879.90000003576,8009,WL,C,11.0
3,16.92799997329712,learn,43072.00002670288,Tue Feb 10 2026 13:24:35 GMT-0600 (Central Standard Time),313379.8000000119,A,s,I,s,202,3,217.80000001192093,313162.0,8009,WL,C,12.0
3,17.078999996185303,learn,42921.0000038147,Tue Feb 10 2026 13:24:35 GMT-0600 (Central Standard Time),313530.5,A,sh,I,h,136,3,368.5,313162.0,8009,WL,C,12.0
3,17.26099991798401,learn,42739.00008201599,Tue Feb 10 2026 13:24:35 GMT-0600 (Central Standard Time),313712.60000002384,A,sho,I,o,169,3,550.6000000238419,313162.0,8009,WL,C,12.0
3,17.39299988746643,learn,42607.00011253357,Tue Feb 10 2026 13:24:35 GMT-0600 (Central Standard Time),313844.5,A,shor,I,r,115,3,682.5,313162.0,8009,WL,C,12.0
3,17.543999910354614,learn,42456.000089645386,Tue Feb 10 2026 13:24:35 GMT-0600 (Central Standard Time),313995.2000000477,A,shore,I,e,143,3,833.2000000476837,313162.0,8009,WL,C,12.0
3,17.67799997329712,learn,42322.00002670288,Tue Feb 10 2026 13:24:35 GMT-0600 (Central Standard Time),314129.60000002384,A,shoreenter,I,enter,128,3,967.6000000238419,313162.0,8009,WL,C,12.0
3,18.177000045776367,learn,41822.99995422363,Tue Feb 10 2026 13:24:35 GMT-0600 (Central Standard Time),314628.7000000477,A,b,I,b,483,3,498.80000001192093,314129.90000003576,8009,WL,C,13.0
3,18.39400005340576,learn,41605.99994659424,Tue Feb 10 2026 13:24:35 GMT-0600 (Central Standard Time),314844.90000003576,A,bo,I,o,206,3,715.0,314129.90000003576,8009,WL,C,13.0
3,18.478999853134155,learn,41521.000146865845,Tue Feb 10 2026 13:24:35 GMT-0600 (Central Standard Time),314930.8000000119,A,bod,I,d,63,3,800.8999999761581,314129.90000003576,8009,WL,C,13.0
3,19.444000005722046,learn,40555.999994277954,Tue Feb 10 2026 13:24:35 GMT-0600 (Central Standard Time),315895.60000002384,A,body,I,y,952,3,1765.699999988079,314129.90000003576,8009,WL,C,13.0
3,19.74399995803833,learn,40256.00004196167,Tue Feb 10 2026 13:24:35 GMT-0600 (Central Standard Time),316195.5,A,bodyenter,I,enter,296,3,2065.599999964237,314129.90000003576,8009,WL,C,13.0
3,23.543999910354614,learn,36456.000089645386,Tue Feb 10 2026 13:24:35 GMT-0600 (Central Standard Time),319995.10000002384,A,c,I,c,3793,3,3799.399999976158,316195.7000000477,8009,WL,C,14.0
3,23.658999919891357,learn,36341.00008010864,Tue Feb 10 2026 13:24:35 GMT-0600 (Central Standard Time),320109.90000003576,A,co,I,o,103,3,3914.199999988079,316195.7000000477,8009,WL,C,14.0
3,23.861999988555908,learn,36138.00001144409,Tue Feb 10 2026 13:24:35 GMT-0600 (Central Standard Time),320313.2000000477,A,cor,I,r,199,3,4117.5,316195.7000000477,8009,WL,C,14.0
3,23.95799994468689,learn,36042.00005531311,Tue Feb 10 2026 13:24:35 GMT-0600 (Central Standard Time),320409.40000003576,A,corn,I,n,91,3,4213.699999988079,316195.7000000477,8009,WL,C,14.0
3,24.20799994468689,learn,35792.00005531311,Tue Feb 10 2026 13:24:35 GMT-0600 (Central Standard Time),320659.8000000119,A,cornenter,I,enter,241,3,4464.099999964237,316195.7000000477,8009,WL,C,14.0
3,27.207000017166138,learn,32792.99998283386,Tue Feb 10 2026 13:24:35 GMT-0600 (Central Standard Time),323658.40000003576,A,n,I,n,2993,3,2998.400000035763,320660.0,8009,WL,C,15.0
3,27.342000007629395,learn,32657.999992370605,Tue Feb 10 2026 13:24:35 GMT-0600 (Central Standard Time),323793.3000000119,A,na,I,a,119,3,3133.300000011921,320660.0,8009,WL,C,15.0
3,27.44099998474121,learn,32559.00001525879,Tue Feb 10 2026 13:24:35 GMT-0600 (Central Standard Time),323892.0,A,nai,I,i,83,3,3232.0,320660.0,8009,WL,C,15.0
3,27.5239999294281,learn,32476.0000705719,Tue Feb 10 2026 13:24:35 GMT-0600 (Central Standard Time),323974.90000003576,A,nail,I,l,70,3,3314.900000035763,320660.0,8009,WL,C,15.0
3,27.741999864578247,learn,32258.000135421753,Tue Feb 10 2026 13:24:35 GMT-0600 (Central Standard Time),324193.40000003576,A,nailenter,I,enter,207,3,3533.400000035763,320660.0,8009,WL,C,15.0
4,0.7019999027252197,learn,59298.00009727478,Tue Feb 10 2026 13:24:35 GMT-0600 (Central Standard Time),389672.5,A,t,I,t,680,3,701.3999999761581,388971.10000002384,8009,WL,C,1.0
4,0.8499999046325684,learn,59150.00009536743,Tue Feb 10 2026 13:24:35 GMT-0600 (Central Standard Time),389821.10000002384,A,to,I,o,137,3,850.0,388971.10000002384,8009,WL,C,1.0
4,0.9829998016357422,learn,59017.00019836426,Tue Feb 10 2026 13:24:35 GMT-0600 (Central Standard Time),389954.10000002384,A,tow,I,w,125,3,983.0,388971.10000002384,8009,WL,C,1.0
4,1.2339999675750732,learn,58766.00003242493,Tue Feb 10 2026 13:24:35 GMT-0600 (Central Standard Time),390204.60000002384,A,towe,I,e,241,3,1233.5,388971.10000002384,8009,WL,C,1.0
4,1.316999912261963,learn,58683.00008773804,Tue Feb 10 2026 13:24:35 GMT-0600 (Central Standard Time),390287.90000003576,A,tower,I,r,70,3,1316.800000011921,388971.10000002384,8009,WL,C,1.0
4,1.7659997940063477,learn,58234.00020599365,Tue Feb 10 2026 13:24:35 GMT-0600 (Central Standard Time),390736.60000002384,A,towerenter,I,enter,434,3,1765.5,388971.10000002384,8009,WL,C,1.0
4,2.049999952316284,learn,57950.000047683716,Tue Feb 10 2026 13:24:35 GMT-0600 (Central Standard Time),391020.7000000477,A,w,I,w,276,3,283.9000000357628,390736.8000000119,8009,WL,C,2.0
4,2.1669998168945312,learn,57833.00018310547,Tue Feb 10 2026 13:24:35 GMT-0600 (Central Standard Time),391137.5,A,wh,I,h,102,3,400.69999998807907,390736.8000000119,8009,WL,C,2.0
4,2.299999952316284,learn,57700.000047683716,Tue Feb 10 2026 13:24:35 GMT-0600 (Central Standard Time),391270.8000000119,A,whe,I,e,111,3,534.0,390736.8000000119,8009,WL,C,2.0
4,2.7849998474121094,learn,57215.00015258789,Tue Feb 10 2026 13:24:35 GMT-0600 (Central Standard Time),391755.60000002384,A,whea,I,a,467,3,1018.8000000119209,390736.8000000119,8009,WL,C,2.0
4,3.066999912261963,learn,56933.00008773804,Tue Feb 10 2026 13:24:35 GMT-0600 (Central Standard Time),392037.40000003576,A,wheat,I,t,270,3,1300.6000000238419,390736.8000000119,8009,WL,C,2.0
4,3.2169997692108154,learn,56783.000230789185,Tue Feb 10 2026 13:24:35 GMT-0600 (Central Standard Time),392187.3000000119,A,wheatenter,I,enter,131,3,1450.5,390736.8000000119,8009,WL,C,2.0
4,4.20199990272522,learn,55798.00009727478,Tue Feb 10 2026 13:24:35 GMT-0600 (Central Standard Time),393172.40000003576,A,q,I,q,976,3,984.9000000357628,392187.5,8009,WL,C,3.0
4,4.398999929428101,learn,55601.0000705719,Tue Feb 10 2026 13:24:35 GMT-0600 (Central Standard Time),393369.7000000477,A,qu,I,u,181,3,1182.2000000476837,392187.5,8009,WL,C,3.0
4,4.5329999923706055,learn,55467.000007629395,Tue Feb 10 2026 13:24:35 GMT-0600 (Central Standard Time),393503.60000002384,A,que,I,e,121,3,1316.1000000238419,392187.5,8009,WL,C,3.0
4,4.767999887466431,learn,55232.00011253357,Tue Feb 10 2026 13:24:35 GMT-0600 (Central Standard Time),393738.2000000477,A,quee,I,e,226,3,1550.7000000476837,392187.5,8009,WL,C,3.0
4,4.914999961853027,learn,55085.00003814697,Tue Feb 10 2026 13:24:35 GMT-0600 (Central Standard Time),393886.0,A,queen,I,n,137,3,1698.5,392187.5,8009,WL,C,3.0
4,5.598999977111816,learn,54401.00002288818,Tue Feb 10 2026 13:24:35 GMT-0600 (Central Standard Time),394569.8000000119,A,queenenter,I,enter,668,3,2382.300000011921,392187.5,8009,WL,C,3.0
4,6.184999942779541,learn,53815.00005722046,Tue Feb 10 2026 13:24:35 GMT-0600 (Central Standard Time),395155.5,A,s,I,s,570,3,585.5,394570.0,8009,WL,C,4.0
4,6.297999858856201,learn,53702.0001411438,Tue Feb 10 2026 13:24:35 GMT-0600 (Central Standard Time),395268.90000003576,A,su,I,u,102,3,698.9000000357628,394570.0,8009,WL,C,4.0
4,6.448999881744385,learn,53551.000118255615,Tue Feb 10 2026 13:24:35 GMT-0600 (Central Standard Time),395419.90000003576,A,sua,I,a,133,3,849.9000000357628,394570.0,8009,WL,C,4.0
4,6.565999984741211,learn,53434.00001525879,Tue Feb 10 2026 13:24:35 GMT-0600 (Central Standard Time),395536.8000000119,A,suag,I,g,103,3,966.8000000119209,394570.0,8009,WL,C,4.0
4,6.849999904632568,learn,53150.00009536743,Tue Feb 10 2026 13:24:35 GMT-0600 (Central Standard Time),395820.3000000119,A,suagr,I,r,273,3,1250.300000011921,394570.0,8009,WL,C,4.0
4,7.014999866485596,learn,52985.000133514404,Tue Feb 10 2026 13:24:35 GMT-0600 (Central Standard Time),395986.10000002384,A,suagrenter,I,enter,143,3,1416.1000000238419,394570.0,8009,WL,C,4.0
4,7.297999858856201,learn,52702.0001411438,Tue Feb 10 2026 13:24:35 GMT-0600 (Central Standard Time),396268.8000000119,A,h,I,h,266,3,282.5,395986.3000000119,8009,WL,C,5.0
4,7.516999959945679,learn,52483.00004005432,Tue Feb 10 2026 13:24:35 GMT-0600 (Central Standard Time),396488.10000002384,A,ho,I,o,205,3,501.80000001192093,395986.3000000119,8009,WL,C,5.0
4,7.597999811172485,learn,52402.000188827515,Tue Feb 10 2026 13:24:35 GMT-0600 (Central Standard Time),396568.5,A,hom,I,m,76,3,582.1999999880791,395986.3000000119,8009,WL,C,5.0
4,7.831999778747559,learn,52168.00022125244,Tue Feb 10 2026 13:24:35 GMT-0600 (Central Standard Time),396802.8000000119,A,home,I,e,218,3,816.5,395986.3000000119,8009,WL,C,5.0
4,8.197999954223633,learn,51802.00004577637,Tue Feb 10 2026 13:24:35 GMT-0600 (Central Standard Time),397168.40000003576,A,homeenter,I,enter,353,3,1182.1000000238419,395986.3000000119,8009,WL,C,5.0
4,8.598999977111816,learn,51401.00002288818,Tue Feb 10 2026 13:24:35 GMT-0600 (Central Standard Time),397569.3000000119,A,b,I,b,395,3,400.69999998807907,397168.60000002384,8009,WL,C,6.0
4,8.95799994468689,learn,51042.00005531311,Tue Feb 10 2026 13:24:35 GMT-0600 (Central Standard Time),397928.8000000119,A,bo,I,o,353,3,760.1999999880791,397168.60000002384,8009,WL,C,6.0
4,9.313999891281128,learn,50686.00010871887,Tue Feb 10 2026 13:24:35 GMT-0600 (Central Standard Time),398284.7000000477,A,boy,I,y,336,3,1116.1000000238419,397168.60000002384,8009,WL,C,6.0
4,9.846999883651733,learn,50153.00011634827,Tue Feb 10 2026 13:24:35 GMT-0600 (Central Standard Time),398817.7000000477,A,boyenter,I,enter,518,3,1649.1000000238419,397168.60000002384,8009,WL,C,6.0
4,10.747999906539917,learn,49252.00009346008,Tue Feb 10 2026 13:24:35 GMT-0600 (Central Standard Time),399718.90000003576,A,d,I,d,892,3,901.0,398817.90000003576,8009,WL,C,7.0
4,10.898000001907349,learn,49101.99999809265,Tue Feb 10 2026 13:24:35 GMT-0600 (Central Standard Time),399868.60000002384,A,do,I,o,132,3,1050.699999988079,398817.90000003576,8009,WL,C,7.0
4,10.996999979019165,learn,49003.000020980835,Tue Feb 10 2026 13:24:35 GMT-0600 (Central Standard Time),399967.40000003576,A,doc,I,c,86,3,1149.5,398817.90000003576,8009,WL,C,7.0
4,11.230999946594238,learn,48769.00005340576,Tue Feb 10 2026 13:24:35 GMT-0600 (Central Standard Time),400201.2000000477,A,doct,I,t,220,3,1383.300000011921,398817.90000003576,8009,WL,C,7.0
4,11.363999843597412,learn,48636.00015640259,Tue Feb 10 2026 13:24:35 GMT-0600 (Central Standard Time),400334.7000000477,A,docto,I,o,110,3,1516.800000011921,398817.90000003576,8009,WL,C,7.0
4,11.497999906539917,learn,48502.00009346008,Tue Feb 10 2026 13:24:35 GMT-0600 (Central Standard Time),400468.2000000477,A,doctor,I,r,114,3,1650.300000011921,398817.90000003576,8009,WL,C,7.0
4,11.696999788284302,learn,48303.0002117157,Tue Feb 10 2026 13:24:35 GMT-0600 (Central Standard Time),400667.7000000477,A,doctorenter,I,enter,182,3,1849.800000011921,398817.90000003576,8009,WL,C,7.0
4,12.045999765396118,learn,47954.00023460388,Tue Feb 10 2026 13:24:35 GMT-0600 (Central Standard Time),401017.10000002384,A,c,I,c,344,3,349.19999998807907,400667.90000003576,8009,WL,C,8.0
4,12.214999914169312,learn,47785.00008583069,Tue Feb 10 2026 13:24:35 GMT-0600 (Central Standard Time),401185.90000003576,A,ca,I,a,153,3,518.0,400667.90000003576,8009,WL,C,8.0
4,12.346999883651733,learn,47653.00011634827,Tue Feb 10 2026 13:24:35 GMT-0600 (Central Standard Time),401317.7000000477,A,cam,I,m,121,3,649.8000000119209,400667.90000003576,8009,WL,C,8.0
4,12.497999906539917,learn,47502.00009346008,Tue Feb 10 2026 13:24:35 GMT-0600 (Central Standard Time),401468.40000003576,A,camp,I,p,132,3,800.5,400667.90000003576,8009,WL,C,8.0
4,12.86299991607666,learn,47137.00008392334,Tue Feb 10 2026 13:24:35 GMT-0600 (Central Standard Time),401833.7000000477,A,campenter,I,enter,360,3,1165.800000011921,400667.90000003576,8009,WL,C,8.0
4,13.26199984550476,learn,46738.00015449524,Tue Feb 10 2026 13:24:35 GMT-0600 (Central Standard Time),402233.10000002384,A,f,I,f,385,3,399.10000002384186,401834.0,8009,WL,C,9.0
4,13.413999795913696,learn,46586.000204086304,Tue Feb 10 2026 13:24:35 GMT-0600 (Central Standard Time),402384.40000003576,A,fl,I,l,146,3,550.4000000357628,401834.0,8009,WL,C,9.0
4,13.578999996185303,learn,46421.0000038147,Tue Feb 10 2026 13:24:35 GMT-0600 (Central Standard Time),402549.90000003576,A,fla,I,a,147,3,715.9000000357628,401834.0,8009,WL,C,9.0
4,13.795999765396118,learn,46204.00023460388,Tue Feb 10 2026 13:24:35 GMT-0600 (Central Standard Time),402766.90000003576,A,flag,I,g,204,3,932.9000000357628,401834.0,8009,WL,C,9.0
4,14.062999963760376,learn,45937.000036239624,Tue Feb 10 2026 13:24:35 GMT-0600 (Central Standard Time),403033.90000003576,A,flagenter,I,enter,253,3,1199.9000000357628,401834.0,8009,WL,C,9.0
4,14.429999828338623,learn,45570.00017166138,Tue Feb 10 2026 13:24:35 GMT-0600 (Central Standard Time),403401.10000002384,A,l,I,l,355,3,367.0,403034.10000002384,8009,WL,C,10.0
4,14.578999996185303,learn,45421.0000038147,Tue Feb 10 2026 13:24:35 GMT-0600 (Central Standard Time),403549.5,A,le,I,e,138,3,515.3999999761581,403034.10000002384,8009,WL,C,10.0
4,14.795999765396118,learn,45204.00023460388,Tue Feb 10 2026 13:24:35 GMT-0600 (Central Standard Time),403766.8000000119,A,let,I,t,206,3,732.6999999880791,403034.10000002384,8009,WL,C,10.0
4,14.928999900817871,learn,45071.00009918213,Tue Feb 10 2026 13:24:35 GMT-0600 (Central Standard Time),403899.60000002384,A,lett,I,t,116,3,865.5,403034.10000002384,8009,WL,C,10.0
4,15.01199984550476,learn,44988.00015449524,Tue Feb 10 2026 13:24:35 GMT-0600 (Central Standard Time),403982.90000003576,A,lette,I,e,73,3,948.8000000119209,403034.10000002384,8009,WL,C,10.0
4,15.128999948501587,learn,44871.00005149841,Tue Feb 10 2026 13:24:35 GMT-0600 (Central Standard Time),404099.7000000477,A,letter,I,r,102,3,1065.6000000238419,403034.10000002384,8009,WL,C,10.0
4,15.328999996185303,learn,44671.0000038147,Tue Feb 10 2026 13:24:35 GMT-0600 (Central Standard Time),404299.2000000477,A,letterenter,I,enter,191,3,1265.1000000238419,403034.10000002384,8009,WL,C,10.0
4,16.346999883651733,learn,43653.00011634827,Tue Feb 10 2026 13:24:35 GMT-0600 (Central Standard Time),405317.3000000119,A,n,I,n,1000,3,1017.8000000119209,404299.5,8009,WL,C,11.0
4,16.460999965667725,learn,43539.000034332275,Tue Feb 10 2026 13:24:35 GMT-0600 (Central Standard Time),405431.90000003576,A,na,I,a,102,3,1132.4000000357628,404299.5,8009,WL,C,11.0
4,16.611999988555908,learn,43388.00001144409,Tue Feb 10 2026 13:24:35 GMT-0600 (Central Standard Time),405582.60000002384,A,nai,I,i,130,3,1283.1000000238419,404299.5,8009,WL,C,11.0
4,17.07799983024597,learn,42922.00016975403,Tue Feb 10 2026 13:24:35 GMT-0600 (Central Standard Time),406048.2000000477,A,nail,I,l,458,3,1748.7000000476837,404299.5,8009,WL,C,11.0
4,17.42799997329712,learn,42572.00002670288,Tue Feb 10 2026 13:24:35 GMT-0600 (Central Standard Time),406398.3000000119,A,nailenter,I,enter,333,3,2098.800000011921,404299.5,8009,WL,C,11.0
4,18.560999870300293,learn,41439.00012969971,Tue Feb 10 2026 13:24:35 GMT-0600 (Central Standard Time),407532.10000002384,A,s,I,s,1118,3,1133.6000000238419,406398.5,8009,WL,C,12.0
4,18.626999855041504,learn,41373.000144958496,Tue Feb 10 2026 13:24:35 GMT-0600 (Central Standard Time),407598.10000002384,A,sh,I,h,55,3,1199.6000000238419,406398.5,8009,WL,C,12.0
4,18.830999851226807,learn,41169.00014877319,Tue Feb 10 2026 13:24:35 GMT-0600 (Central Standard Time),407801.5,A,sho,I,o,182,3,1403.0,406398.5,8009,WL,C,12.0
4,19.027999877929688,learn,40972.00012207031,Tue Feb 10 2026 13:24:35 GMT-0600 (Central Standard Time),407998.40000003576,A,shor,I,r,176,3,1599.9000000357628,406398.5,8009,WL,C,12.0
4,19.311999797821045,learn,40688.000202178955,Tue Feb 10 2026 13:24:35 GMT-0600 (Central Standard Time),408282.90000003576,A,shore,I,e,263,3,1884.4000000357628,406398.5,8009,WL,C,12.0
4,19.727999925613403,learn,40272.0000743866,Tue Feb 10 2026 13:24:35 GMT-0600 (Central Standard Time),408698.3000000119,A,shoreenter,I,enter,398,3,2299.800000011921,406398.5,8009,WL,C,12.0
4,19.91099977493286,learn,40089.00022506714,Tue Feb 10 2026 13:24:35 GMT-0600 (Central Standard Time),408881.60000002384,A,c,I,c,178,3,183.0,408698.60000002384,8009,WL,C,13.0
4,20.09599995613098,learn,39904.00004386902,Tue Feb 10 2026 13:24:35 GMT-0600 (Central Standard Time),409066.5,A,ca,I,a,162,3,367.89999997615814,408698.60000002384,8009,WL,C,13.0
4,20.29699993133545,learn,39703.00006866455,Tue Feb 10 2026 13:24:35 GMT-0600 (Central Standard Time),409267.7000000477,A,cat,I,t,195,3,569.1000000238419,408698.60000002384,8009,WL,C,13.0
4,20.494999885559082,learn,39505.00011444092,Tue Feb 10 2026 13:24:35 GMT-0600 (Central Standard Time),409465.60000002384,A,catt,I,t,179,3,767.0,408698.60000002384,8009,WL,C,13.0
4,20.626999855041504,learn,39373.000144958496,Tue Feb 10 2026 13:24:35 GMT-0600 (Central Standard Time),409598.0,A,cattl,I,l,113,3,899.3999999761581,408698.60000002384,8009,WL,C,13.0
4,20.82799983024597,learn,39172.00016975403,Tue Feb 10 2026 13:24:35 GMT-0600 (Central Standard Time),409798.8000000119,A,cattle,I,e,180,3,1100.199999988079,408698.60000002384,8009,WL,C,13.0
4,21.526999950408936,learn,38473.000049591064,Tue Feb 10 2026 13:24:35 GMT-0600 (Central Standard Time),410497.90000003576,A,cattleenter,I,enter,692,3,1799.300000011921,408698.60000002384,8009,WL,C,13.0
4,23.40999984741211,learn,36590.00015258789,Tue Feb 10 2026 13:24:35 GMT-0600 (Central Standard Time),412380.40000003576,A,b,I,b,1865,3,1882.300000011921,410498.10000002384,8009,WL,C,14.0
4,23.992999792099,learn,36007.000207901,Tue Feb 10 2026 13:24:35 GMT-0600 (Central Standard Time),412963.5,A,bo,I,o,572,3,2465.399999976158,410498.10000002384,8009,WL,C,14.0
4,24.30999994277954,learn,35690.00005722046,Tue Feb 10 2026 13:24:35 GMT-0600 (Central Standard Time),413280.60000002384,A,bod,I,d,296,3,2782.5,410498.10000002384,8009,WL,C,14.0
4,24.443999767303467,learn,35556.00023269653,Tue Feb 10 2026 13:24:35 GMT-0600 (Central Standard Time),413414.90000003576,A,body,I,y,123,3,2916.800000011921,410498.10000002384,8009,WL,C,14.0
4,24.759999990463257,learn,35240.00000953674,Tue Feb 10 2026 13:24:35 GMT-0600 (Central Standard Time),413730.8000000119,A,bodyenter,I,enter,309,3,3232.699999988079,410498.10000002384,8009,WL,C,14.0
4,47.36899995803833,learn,12631.00004196167,Tue Feb 10 2026 13:24:35 GMT-0600 (Central Standard Time),436340.10000002384,A,c,I,c,22600,3,22608.100000023842,413732.0,8009,WL,C,15.0
4,47.48599982261658,learn,12514.000177383423,Tue Feb 10 2026 13:24:35 GMT-0600 (Central Standard Time),436457.0,A,co,I,o,96,3,22725.0,413732.0,8009,WL,C,15.0
4,47.65399980545044,learn,12346.00019454956,Tue Feb 10 2026 13:24:35 GMT-0600 (Central Standard Time),436624.5,A,cor,I,r,161,3,22892.5,413732.0,8009,WL,C,15.0
4,47.73699998855591,learn,12263.000011444092,Tue Feb 10 2026 13:24:35 GMT-0600 (Central Standard Time),436707.7000000477,A,corn,I,n,66,3,22975.700000047684,413732.0,8009,WL,C,15.0
4,47.93599987030029,learn,12064.000129699707,Tue Feb 10 2026 13:24:35 GMT-0600 (Central Standard Time),436906.90000003576,A,cornenter,I,enter,183,3,23174.900000035763,413732.0,8009,WL,C,15.0
5,1.065999984741211,learn,60000.0,Tue Feb 10 2026 13:24:35 GMT-0600 (Central Standard Time),502051.90000003576,A,t,I,t,1056,3,1065.5,500986.40000003576,8009,WL,C,1.0
5,1.2170000076293945,learn,60000.0,Tue Feb 10 2026 13:24:35 GMT-0600 (Central Standard Time),502202.7000000477,A,to,I,o,133,3,1216.300000011921,500986.40000003576,8009,WL,C,1.0
5,1.383000135421753,learn,60000.0,Tue Feb 10 2026 13:24:35 GMT-0600 (Central Standard Time),502369.2000000477,A,tow,I,w,152,3,1382.800000011921,500986.40000003576,8009,WL,C,1.0
5,1.6010000705718994,learn,60000.0,Tue Feb 10 2026 13:24:35 GMT-0600 (Central Standard Time),502586.7000000477,A,towe,I,e,200,3,1600.300000011921,500986.40000003576,8009,WL,C,1.0
5,1.6649999618530273,learn,60000.0,Tue Feb 10 2026 13:24:35 GMT-0600 (Central Standard Time),502651.0,A,tower,I,r,53,3,1664.5999999642372,500986.40000003576,8009,WL,C,1.0
5,1.9000000953674316,learn,60000.0,Tue Feb 10 2026 13:24:35 GMT-0600 (Central Standard Time),502885.5,A,towerenter,I,enter,217,3,1899.0999999642372,500986.40000003576,8009,WL,C,1.0
5,2.1489999294281006,learn,60000.0,Tue Feb 10 2026 13:24:35 GMT-0600 (Central Standard Time),503135.10000002384,A,w,I,w,230,3,249.30000001192093,502885.8000000119,8009,WL,C,2.0
5,2.3489999771118164,learn,60000.0,Tue Feb 10 2026 13:24:35 GMT-0600 (Central Standard Time),503334.8000000119,A,wh,I,h,177,3,449.0,502885.8000000119,8009,WL,C,2.0
5,2.449000120162964,learn,60000.0,Tue Feb 10 2026 13:24:35 GMT-0600 (Central Standard Time),503434.5,A,whe,I,e,82,3,548.6999999880791,502885.8000000119,8009,WL,C,2.0
5,2.7149999141693115,learn,60000.0,Tue Feb 10 2026 13:24:35 GMT-0600 (Central Standard Time),503700.90000003576,A,whea,I,a,249,3,815.1000000238419,502885.8000000119,8009,WL,C,2.0
5,2.9160001277923584,learn,60000.0,Tue Feb 10 2026 13:24:35 GMT-0600 (Central Standard Time),503902.10000002384,A,wheat,I,t,188,3,1016.3000000119209,502885.8000000119,8009,WL,C,2.0
5,3.133000135421753,learn,60000.0,Tue Feb 10 2026 13:24:35 GMT-0600 (Central Standard Time),504118.40000003576,A,wheatenter,I,enter,207,3,1232.6000000238419,502885.8000000119,8009,WL,C,2.0
5,3.4649999141693115,learn,60000.0,Tue Feb 10 2026 13:24:35 GMT-0600 (Central Standard Time),504451.40000003576,A,q,I,q,324,3,332.80000001192093,504118.60000002384,8009,WL,C,3.0
5,3.9649999141693115,learn,60000.0,Tue Feb 10 2026 13:24:35 GMT-0600 (Central Standard Time),504950.90000003576,A,qu,I,u,486,3,832.3000000119209,504118.60000002384,8009,WL,C,3.0
5,4.148000001907349,learn,60000.0,Tue Feb 10 2026 13:24:35 GMT-0600 (Central Standard Time),505134.2000000477,A,que,I,e,170,3,1015.6000000238419,504118.60000002384,8009,WL,C,3.0
5,4.38100004196167,learn,60000.0,Tue Feb 10 2026 13:24:35 GMT-0600 (Central Standard Time),505366.60000002384,A,quee,I,e,209,3,1248.0,504118.60000002384,8009,WL,C,3.0
5,4.5309998989105225,learn,60000.0,Tue Feb 10 2026 13:24:35 GMT-0600 (Central Standard Time),505517.3000000119,A,queen,I,n,142,3,1398.699999988079,504118.60000002384,8009,WL,C,3.0
5,5.0980000495910645,learn,60000.0,Tue Feb 10 2026 13:24:35 GMT-0600 (Central Standard Time),506083.8000000119,A,queenenter,I,enter,552,3,1965.199999988079,504118.60000002384,8009,WL,C,3.0
5,5.796999931335449,learn,60000.0,Tue Feb 10 2026 13:24:35 GMT-0600 (Central Standard Time),506783.10000002384,A,s,I,s,680,3,699.1000000238419,506084.0,8009,WL,C,4.0
5,6.099999904632568,learn,60000.0,Tue Feb 10 2026 13:24:35 GMT-0600 (Central Standard Time),507085.5,A,su,I,u,285,3,1001.5,506084.0,8009,WL,C,4.0
5,6.331000089645386,learn,60000.0,Tue Feb 10 2026 13:24:35 GMT-0600 (Central Standard Time),507316.5,A,sug,I,g,213,3,1232.5,506084.0,8009,WL,C,4.0
5,6.430999994277954,learn,60000.0,Tue Feb 10 2026 13:24:35 GMT-0600 (Central Standard Time),507416.5,A,suga,I,a,96,3,1332.5,506084.0,8009,WL,C,4.0
5,6.5970001220703125,learn,60000.0,Tue Feb 10 2026 13:24:35 GMT-0600 (Central Standard Time),507583.10000002384,A,sugar,I,r,148,3,1499.1000000238419,506084.0,8009,WL,C,4.0
5,6.697000026702881,learn,60000.0,Tue Feb 10 2026 13:24:35 GMT-0600 (Central Standard Time),507682.8000000119,A,sugarenter,I,enter,94,3,1598.800000011921,506084.0,8009,WL,C,4.0
5,6.963000059127808,learn,60000.0,Tue Feb 10 2026 13:24:35 GMT-0600 (Central Standard Time),507949.10000002384,A,h,I,h,256,3,266.10000002384186,507683.0,8009,WL,C,5.0
5,7.164000034332275,learn,60000.0,Tue Feb 10 2026 13:24:35 GMT-0600 (Central Standard Time),508149.60000002384,A,ho,I,o,190,3,466.60000002384186,507683.0,8009,WL,C,5.0
5,7.263000011444092,learn,60000.0,Tue Feb 10 2026 13:24:35 GMT-0600 (Central Standard Time),508248.8000000119,A,hom,I,m,95,3,565.8000000119209,507683.0,8009,WL,C,5.0
5,7.414000034332275,learn,60000.0,Tue Feb 10 2026 13:24:35 GMT-0600 (Central Standard Time),508400.10000002384,A,home,I,e,140,3,717.1000000238419,507683.0,8009,WL,C,5.0
5,7.663000106811523,learn,60000.0,Tue Feb 10 2026 13:24:35 GMT-0600 (Central Standard Time),508649.10000002384,A,homeenter,I,enter,245,3,966.1000000238419,507683.0,8009,WL,C,5.0
5,7.947000026702881,learn,60000.0,Tue Feb 10 2026 13:24:35 GMT-0600 (Central Standard Time),508932.5,A,b,I,b,274,3,283.0999999642372,508649.40000003576,8009,WL,C,6.0
5,8.86299991607666,learn,60000.0,Tue Feb 10 2026 13:24:35 GMT-0600 (Central Standard Time),509849.3000000119,A,bo,I,o,912,3,1199.8999999761581,508649.40000003576,8009,WL,C,6.0
5,9.079999923706055,learn,60000.0,Tue Feb 10 2026 13:24:35 GMT-0600 (Central Standard Time),510065.8000000119,A,boy,I,y,203,3,1416.3999999761581,508649.40000003576,8009,WL,C,6.0
5,9.446000099182129,learn,60000.0,Tue Feb 10 2026 13:24:35 GMT-0600 (Central Standard Time),510431.8000000119,A,boyenter,I,enter,363,3,1782.3999999761581,508649.40000003576,8009,WL,C,6.0
5,9.913000106811523,learn,60000.0,Tue Feb 10 2026 13:24:35 GMT-0600 (Central Standard Time),510898.90000003576,A,d,I,d,451,3,466.9000000357628,510432.0,8009,WL,C,7.0
5,10.397000074386597,learn,60000.0,Tue Feb 10 2026 13:24:35 GMT-0600 (Central Standard Time),511383.3000000119,A,do,I,o,474,3,951.3000000119209,510432.0,8009,WL,C,7.0
5,10.61299991607666,learn,60000.0,Tue Feb 10 2026 13:24:35 GMT-0600 (Central Standard Time),511598.8000000119,A,doc,I,c,204,3,1166.800000011921,510432.0,8009,WL,C,7.0
5,10.930000066757202,learn,60000.0,Tue Feb 10 2026 13:24:35 GMT-0600 (Central Standard Time),511915.40000003576,A,doct,I,t,312,3,1483.4000000357628,510432.0,8009,WL,C,7.0
5,11.213000059127808,learn,60000.0,Tue Feb 10 2026 13:24:35 GMT-0600 (Central Standard Time),512199.2000000477,A,docto,I,o,272,3,1767.2000000476837,510432.0,8009,WL,C,7.0
5,11.479000091552734,learn,60000.0,Tue Feb 10 2026 13:24:35 GMT-0600 (Central Standard Time),512464.8000000119,A,doctor,I,r,254,3,2032.800000011921,510432.0,8009,WL,C,7.0
5,11.763000011444092,learn,60000.0,Tue Feb 10 2026 13:24:35 GMT-0600 (Central Standard Time),512748.40000003576,A,doctore,I,e,275,3,2316.400000035763,510432.0,8009,WL,C,7.0
5,12.279000043869019,learn,60000.0,Tue Feb 10 2026 13:24:35 GMT-0600 (Central Standard Time),513264.90000003576,A,doctor,I,backspace,504,3,2832.900000035763,510432.0,8009,WL,C,7.0
5,12.729000091552734,learn,60000.0,Tue Feb 10 2026 13:24:35 GMT-0600 (Central Standard Time),513715.0,A,doctorenter,I,enter,441,3,3283.0,510432.0,8009,WL,C,7.0
5,14.046000003814697,learn,60000.0,Tue Feb 10 2026 13:24:35 GMT-0600 (Central Standard Time),515031.40000003576,A,c,I,c,1306,3,1316.199999988079,513715.2000000477,8009,WL,C,8.0
5,14.229000091552734,learn,60000.0,Tue Feb 10 2026 13:24:35 GMT-0600 (Central Standard Time),515214.40000003576,A,ca,I,a,164,3,1499.199999988079,513715.2000000477,8009,WL,C,8.0
5,14.378000020980835,learn,60000.0,Tue Feb 10 2026 13:24:35 GMT-0600 (Central Standard Time),515364.3000000119,A,cam,I,m,141,3,1649.0999999642372,513715.2000000477,8009,WL,C,8.0
5,14.661999940872192,learn,60000.0,Tue Feb 10 2026 13:24:35 GMT-0600 (Central Standard Time),515647.40000003576,A,camp,I,p,268,3,1932.199999988079,513715.2000000477,8009,WL,C,8.0
5,14.960999965667725,learn,60000.0,Tue Feb 10 2026 13:24:35 GMT-0600 (Central Standard Time),515947.3000000119,A,campenter,I,enter,294,3,2232.099999964237,513715.2000000477,8009,WL,C,8.0
5,15.578999996185303,learn,60000.0,Tue Feb 10 2026 13:24:35 GMT-0600 (Central Standard Time),516564.60000002384,A,l,I,l,610,3,617.0,515947.60000002384,8009,WL,C,9.0
5,16.57800006866455,learn,60000.0,Tue Feb 10 2026 13:24:35 GMT-0600 (Central Standard Time),517564.2000000477,A,,I,backspace,983,3,1616.6000000238419,515947.60000002384,8009,WL,C,9.0
5,16.778000116348267,learn,60000.0,Tue Feb 10 2026 13:24:35 GMT-0600 (Central Standard Time),517764.10000002384,A,f,I,f,183,3,1816.5,515947.60000002384,8009,WL,C,9.0
5,16.894999980926514,learn,60000.0,Tue Feb 10 2026 13:24:35 GMT-0600 (Central Standard Time),517880.40000003576,A,fl,I,l,109,3,1932.800000011921,515947.60000002384,8009,WL,C,9.0
5,17.061000108718872,learn,60000.0,Tue Feb 10 2026 13:24:35 GMT-0600 (Central Standard Time),518047.2000000477,A,fla,I,a,157,3,2099.600000023842,515947.60000002384,8009,WL,C,9.0
5,17.39400005340576,learn,60000.0,Tue Feb 10 2026 13:24:35 GMT-0600 (Central Standard Time),518379.60000002384,A,flag,I,g,325,3,2432.0,515947.60000002384,8009,WL,C,9.0
5,17.663000106811523,learn,60000.0,Tue Feb 10 2026 13:24:35 GMT-0600 (Central Standard Time),518649.10000002384,A,flagenter,I,enter,266,3,2701.5,515947.60000002384,8009,WL,C,9.0
5,18.11299991607666,learn,60000.0,Tue Feb 10 2026 13:24:35 GMT-0600 (Central Standard Time),519098.7000000477,A,l,I,l,435,3,449.4000000357628,518649.3000000119,8009,WL,C,10.0
5,18.24500012397766,learn,60000.0,Tue Feb 10 2026 13:24:35 GMT-0600 (Central Standard Time),519231.3000000119,A,le,I,e,119,3,582.0,518649.3000000119,8009,WL,C,10.0
5,18.49399995803833,learn,60000.0,Tue Feb 10 2026 13:24:35 GMT-0600 (Central Standard Time),519479.90000003576,A,let,I,t,235,3,830.6000000238419,518649.3000000119,8009,WL,C,10.0
5,18.64400005340576,learn,60000.0,Tue Feb 10 2026 13:24:35 GMT-0600 (Central Standard Time),519630.2000000477,A,lett,I,t,132,3,980.9000000357628,518649.3000000119,8009,WL,C,10.0
5,18.710000038146973,learn,60000.0,Tue Feb 10 2026 13:24:35 GMT-0600 (Central Standard Time),519696.3000000119,A,lette,I,e,53,3,1047.0,518649.3000000119,8009,WL,C,10.0
5,18.82699990272522,learn,60000.0,Tue Feb 10 2026 13:24:35 GMT-0600 (Central Standard Time),519813.10000002384,A,letter,I,r,108,3,1163.800000011921,518649.3000000119,8009,WL,C,10.0
5,19.210000038146973,learn,60000.0,Tue Feb 10 2026 13:24:35 GMT-0600 (Central Standard Time),520196.3000000119,A,letterenter,I,enter,367,3,1547.0,518649.3000000119,8009,WL,C,10.0
5,19.99399995803833,learn,60000.0,Tue Feb 10 2026 13:24:35 GMT-0600 (Central Standard Time),520979.60000002384,A,c,I,c,768,3,783.1000000238419,520196.5,8009,WL,C,11.0
5,20.227999925613403,learn,60000.0,Tue Feb 10 2026 13:24:35 GMT-0600 (Central Standard Time),521214.0,A,co,I,o,222,3,1017.5,520196.5,8009,WL,C,11.0
5,20.592999935150146,learn,60000.0,Tue Feb 10 2026 13:24:35 GMT-0600 (Central Standard Time),521579.0,A,cor,I,r,345,3,1382.5,520196.5,8009,WL,C,11.0
5,20.776000022888184,learn,60000.0,Tue Feb 10 2026 13:24:35 GMT-0600 (Central Standard Time),521761.60000002384,A,corn,I,n,169,3,1565.1000000238419,520196.5,8009,WL,C,11.0
5,21.04200005531311,learn,60000.0,Tue Feb 10 2026 13:24:35 GMT-0600 (Central Standard Time),522028.10000002384,A,cornenter,I,enter,258,3,1831.6000000238419,520196.5,8009,WL,C,11.0
5,21.32699990272522,learn,60000.0,Tue Feb 10 2026 13:24:35 GMT-0600 (Central Standard Time),522312.7000000477,A,n,I,n,271,3,284.4000000357628,522028.3000000119,8009,WL,C,12.0
5,21.493000030517578,learn,60000.0,Tue Feb 10 2026 13:24:35 GMT-0600 (Central Standard Time),522479.10000002384,A,na,I,a,147,3,450.80000001192093,522028.3000000119,8009,WL,C,12.0
5,21.64300012588501,learn,60000.0,Tue Feb 10 2026 13:24:35 GMT-0600 (Central Standard Time),522628.5,A,nai,I,i,142,3,600.1999999880791,522028.3000000119,8009,WL,C,12.0
5,21.758000135421753,learn,60000.0,Tue Feb 10 2026 13:24:35 GMT-0600 (Central Standard Time),522744.2000000477,A,nail,I,l,111,3,715.9000000357628,522028.3000000119,8009,WL,C,12.0
5,22.342000007629395,learn,60000.0,Tue Feb 10 2026 13:24:35 GMT-0600 (Central Standard Time),523328.0,A,nailenter,I,enter,565,3,1299.699999988079,522028.3000000119,8009,WL,C,12.0
5,23.242000102996826,learn,60000.0,Tue Feb 10 2026 13:24:35 GMT-0600 (Central Standard Time),524228.2000000477,A,l,I,l,892,3,899.9000000357628,523328.3000000119,8009,WL,C,13.0
5,23.39300012588501,learn,60000.0,Tue Feb 10 2026 13:24:35 GMT-0600 (Central Standard Time),524378.9000000358,A,le,I,e,147,3,1050.6000000238419,523328.3000000119,8009,WL,C,13.0
5,24.193000078201294,learn,60000.0,Tue Feb 10 2026 13:24:35 GMT-0600 (Central Standard Time),525178.8000000119,A,l,I,backspace,784,3,1850.5,523328.3000000119,8009,WL,C,13.0
5,24.742000102996826,learn,60000.0,Tue Feb 10 2026 13:24:35 GMT-0600 (Central Standard Time),525728.5,A,,I,backspace,529,3,2400.199999988079,523328.3000000119,8009,WL,C,13.0
5,25.441999912261963,learn,60000.0,Tue Feb 10 2026 13:24:35 GMT-0600 (Central Standard Time),526428.4000000358,A,s,I,s,681,3,3100.100000023842,523328.3000000119,8009,WL,C,13.0
5,25.52500009536743,learn,60000.0,Tue Feb 10 2026 13:24:35 GMT-0600 (Central Standard Time),526511.0,A,sh,I,h,63,3,3182.699999988079,523328.3000000119,8009,WL,C,13.0
5,25.691999912261963,learn,60000.0,Tue Feb 10 2026 13:24:35 GMT-0600 (Central Standard Time),526678.0,A,sho,I,o,147,3,3349.699999988079,523328.3000000119,8009,WL,C,13.0
5,25.841000080108643,learn,60000.0,Tue Feb 10 2026 13:24:35 GMT-0600 (Central Standard Time),526827.1000000238,A,shor,I,r,131,3,3498.800000011921,523328.3000000119,8009,WL,C,13.0
5,26.0239999294281,learn,60000.0,Tue Feb 10 2026 13:24:35 GMT-0600 (Central Standard Time),527009.5,A,shore,I,e,168,3,3681.199999988079,523328.3000000119,8009,WL,C,13.0
5,26.424999952316284,learn,60000.0,Tue Feb 10 2026 13:24:35 GMT-0600 (Central Standard Time),527411.0,A,shoreenter,I,enter,387,3,4082.699999988079,523328.3000000119,8009,WL,C,13.0
5,26.842000007629395,learn,60000.0,Tue Feb 10 2026 13:24:35 GMT-0600 (Central Standard Time),527827.8000000119,A,b,I,b,408,3,416.5,527411.3000000119,8009,WL,C,14.0
5,27.5239999294281,learn,60000.0,Tue Feb 10 2026 13:24:35 GMT-0600 (Central Standard Time),528510.2000000477,A,bo,I,o,672,3,1098.9000000357628,527411.3000000119,8009,WL,C,14.0
5,27.79200005531311,learn,60000.0,Tue Feb 10 2026 13:24:35 GMT-0600 (Central Standard Time),528777.7000000477,A,bod,I,d,245,3,1366.4000000357628,527411.3000000119,8009,WL,C,14.0
5,27.924000024795532,learn,60000.0,Tue Feb 10 2026 13:24:35 GMT-0600 (Central Standard Time),528910.2000000477,A,body,I,y,112,3,1498.9000000357628,527411.3000000119,8009,WL,C,14.0
5,28.174999952316284,learn,60000.0,Tue Feb 10 2026 13:24:35 GMT-0600 (Central Standard Time),529160.8000000119,A,bodyenter,I,enter,237,3,1749.5,527411.3000000119,8009,WL,C,14.0
5,28.70799994468689,learn,60000.0,Tue Feb 10 2026 13:24:35 GMT-0600 (Central Standard Time),529694.0,A,c,I,c,515,3,533.0,529161.0,8009,WL,C,15.0
5,28.94099998474121,learn,60000.0,Tue Feb 10 2026 13:24:35 GMT-0600 (Central Standard Time),529926.8000000119,A,ca,I,a,213,3,765.8000000119209,529161.0,8009,WL,C,15.0
5,29.174000024795532,learn,60000.0,Tue Feb 10 2026 13:24:35 GMT-0600 (Central Standard Time),530160.1000000238,A,cat,I,t,214,3,999.1000000238419,529161.0,8009,WL,C,15.0
5,29.33899998664856,learn,60000.0,Tue Feb 10 2026 13:24:35 GMT-0600 (Central Standard Time),530325.3000000119,A,catt,I,t,153,3,1164.300000011921,529161.0,8009,WL,C,15.0
5,29.42300009727478,learn,60000.0,Tue Feb 10 2026 13:24:35 GMT-0600 (Central Standard Time),530408.8000000119,A,cattl,I,l,80,3,1247.800000011921,529161.0,8009,WL,C,15.0
5,29.539999961853027,learn,60000.0,Tue Feb 10 2026 13:24:35 GMT-0600 (Central Standard Time),530526.0,A,cattle,I,e,107,3,1365.0,529161.0,8009,WL,C,15.0
5,29.69000005722046,learn,60000.0,Tue Feb 10 2026 13:24:35 GMT-0600 (Central Standard Time),530675.4000000358,A,cattleenter,I,enter,135,3,1514.4000000357628,529161.0,8009,WL,C,15.0
6,1.383000135421753,distr,58616.99986457825,Tue Feb 10 2026 13:24:35 GMT-0600 (Central Standard Time),599520.9000000358,B,c,I,c,1370,3,1382.6000000238419,598138.3000000119,8009,WL,C,1.0
6,1.4820001125335693,distr,58517.99988746643,Tue Feb 10 2026 13:24:35 GMT-0600 (Central Standard Time),599620.4000000358,B,ch,I,h,82,3,1482.1000000238419,598138.3000000119,8009,WL,C,1.0
6,2.683000087738037,distr,57316.99991226196,Tue Feb 10 2026 13:24:35 GMT-0600 (Central Standard Time),600820.9000000358,B,chr,I,r,1182,3,2682.600000023842,598138.3000000119,8009,WL,C,1.0
6,3.0329999923706055,distr,56967.000007629395,Tue Feb 10 2026 13:24:35 GMT-0600 (Central Standard Time),601170.9000000358,B,chri,I,i,335,3,3032.600000023842,598138.3000000119,8009,WL,C,1.0
6,3.183000087738037,distr,56816.99991226196,Tue Feb 10 2026 13:24:35 GMT-0600 (Central Standard Time),601321.0,B,chris,I,s,135,3,3182.699999988079,598138.3000000119,8009,WL,C,1.0
6,3.3500001430511475,distr,56649.99985694885,Tue Feb 10 2026 13:24:35 GMT-0600 (Central Standard Time),601488.3000000119,B,christ,I,t,145,3,3350.0,598138.3000000119,8009,WL,C,1.0
6,3.436000108718872,distr,56563.99989128113,Tue Feb 10 2026 13:24:35 GMT-0600 (Central Standard Time),601574.1000000238,B,christm,I,m,82,3,3435.800000011921,598138.3000000119,8009,WL,C,1.0
6,3.5820000171661377,distr,56417.99998283386,Tue Feb 10 2026 13:24:35 GMT-0600 (Central Standard Time),601719.8000000119,B,christma,I,a,132,3,3581.5,598138.3000000119,8009,WL,C,1.0
6,3.699000120162964,distr,56300.999879837036,Tue Feb 10 2026 13:24:35 GMT-0600 (Central Standard Time),601836.9000000358,B,christman,I,n,101,3,3698.600000023842,598138.3000000119,8009,WL,C,1.0
6,4.0,distr,56000.0,Tue Feb 10 2026 13:24:35 GMT-0600 (Central Standard Time),602137.5,B,christmanenter,I,enter,293,3,3999.199999988079,598138.3000000119,8009,WL,C,1.0
6,5.598999977111816,distr,54401.00002288818,Tue Feb 10 2026 13:24:35 GMT-0600 (Central Standard Time),603737.4000000358,B,m,I,m,1579,3,1599.5,602137.9000000358,8009,WL,C,2.0
6,6.081000089645386,distr,53918.999910354614,Tue Feb 10 2026 13:24:35 GMT-0600 (Central Standard Time),604219.4000000358,B,mo,I,o,462,3,2081.5,602137.9000000358,8009,WL,C,2.0
6,7.114000082015991,distr,52885.99991798401,Tue Feb 10 2026 13:24:35 GMT-0600 (Central Standard Time),605252.1000000238,B,mom,I,m,1014,3,3114.199999988079,602137.9000000358,8009,WL,C,2.0
6,7.917999982833862,distr,52082.00001716614,Tue Feb 10 2026 13:24:35 GMT-0600 (Central Standard Time),606056.5,B,mo,I,backspace,783,3,3918.599999964237,602137.9000000358,8009,WL,C,2.0
6,8.148000001907349,distr,51851.99999809265,Tue Feb 10 2026 13:24:35 GMT-0600 (Central Standard Time),606285.7000000477,B,mot,I,t,210,3,4147.800000011921,602137.9000000358,8009,WL,C,2.0
6,8.432000160217285,distr,51567.999839782715,Tue Feb 10 2026 13:24:35 GMT-0600 (Central Standard Time),606570.1000000238,B,moth,I,h,276,3,4432.199999988079,602137.9000000358,8009,WL,C,2.0
6,8.63100004196167,distr,51368.99995803833,Tue Feb 10 2026 13:24:35 GMT-0600 (Central Standard Time),606768.7000000477,B,mothe,I,e,187,3,4630.800000011921,602137.9000000358,8009,WL,C,2.0
6,8.69700002670288,distr,51302.99997329712,Tue Feb 10 2026 13:24:35 GMT-0600 (Central Standard Time),606834.5,B,mother,I,r,57,3,4696.599999964237,602137.9000000358,8009,WL,C,2.0
6,8.848000049591064,distr,51151.999950408936,Tue Feb 10 2026 13:24:35 GMT-0600 (Central Standard Time),606986.1000000238,B,motherenter,I,enter,144,3,4848.199999988079,602137.9000000358,8009,WL,C,2.0
6,9.63100004196167,distr,50368.99995803833,Tue Feb 10 2026 13:24:35 GMT-0600 (Central Standard Time),607769.4000000358,B,b,I,b,777,3,783.0,606986.4000000358,8009,WL,C,3.0
6,9.831000089645386,distr,50168.999910354614,Tue Feb 10 2026 13:24:35 GMT-0600 (Central Standard Time),607969.0,B,bu,I,u,176,3,982.5999999642372,606986.4000000358,8009,WL,C,3.0
6,9.96399998664856,distr,50036.00001335144,Tue Feb 10 2026 13:24:35 GMT-0600 (Central Standard Time),608102.4000000358,B,but,I,t,114,3,1116.0,606986.4000000358,8009,WL,C,3.0
6,10.147000074386597,distr,49852.9999256134,Tue Feb 10 2026 13:24:35 GMT-0600 (Central Standard Time),608285.3000000119,B,butt,I,t,165,3,1298.8999999761581,606986.4000000358,8009,WL,C,3.0
6,10.297000169754028,distr,49702.99983024597,Tue Feb 10 2026 13:24:35 GMT-0600 (Central Standard Time),608434.8000000119,B,butte,I,e,141,3,1448.3999999761581,606986.4000000358,8009,WL,C,3.0
6,10.347000122070312,distr,49652.99987792969,Tue Feb 10 2026 13:24:35 GMT-0600 (Central Standard Time),608485.0,B,butter,I,r,40,3,1498.5999999642372,606986.4000000358,8009,WL,C,3.0
6,10.430000066757202,distr,49569.9999332428,Tue Feb 10 2026 13:24:35 GMT-0600 (Central Standard Time),608568.5,B,butterenter,I,enter,72,3,1582.0999999642372,606986.4000000358,8009,WL,C,3.0
6,10.680999994277954,distr,49319.000005722046,Tue Feb 10 2026 13:24:35 GMT-0600 (Central Standard Time),608818.6000000238,B,v,I,v,235,3,250.0,608568.6000000238,8009,WL,C,4.0
6,10.815000057220459,distr,49184.99994277954,Tue Feb 10 2026 13:24:35 GMT-0600 (Central Standard Time),608953.0,B,va,I,a,126,3,384.39999997615814,608568.6000000238,8009,WL,C,4.0
6,10.913000106811523,distr,49086.99989318848,Tue Feb 10 2026 13:24:35 GMT-0600 (Central Standard Time),609051.2000000477,B,val,I,l,81,3,482.60000002384186,608568.6000000238,8009,WL,C,4.0
6,11.062999963760376,distr,48937.000036239624,Tue Feb 10 2026 13:24:35 GMT-0600 (Central Standard Time),609201.1000000238,B,vall,I,l,131,3,632.5,608568.6000000238,8009,WL,C,4.0
6,11.19700002670288,distr,48802.99997329712,Tue Feb 10 2026 13:24:35 GMT-0600 (Central Standard Time),609335.0,B,valle,I,e,113,3,766.3999999761581,608568.6000000238,8009,WL,C,4.0
6,11.312999963760376,distr,48687.000036239624,Tue Feb 10 2026 13:24:35 GMT-0600 (Central Standard Time),609451.1000000238,B,valley,I,y,98,3,882.5,608568.6000000238,8009,WL,C,4.0
6,11.562999963760376,distr,48437.000036239624,Tue Feb 10 2026 13:24:35 GMT-0600 (Central Standard Time),609701.4000000358,B,valleyenter,I,enter,230,3,1132.800000011921,608568.6000000238,8009,WL,C,4.0
6,11.76200008392334,distr,48237.99991607666,Tue Feb 10 2026 13:24:35 GMT-0600 (Central Standard Time),609900.1000000238,B,s,I,s,181,3,198.5,609701.6000000238,8009,WL,C,5.0
6,11.878999948501587,distr,48121.00005149841,Tue Feb 10 2026 13:24:35 GMT-0600 (Central Standard Time),610017.2000000477,B,sk,I,k,111,3,315.60000002384186,609701.6000000238,8009,WL,C,5.0
6,12.128999948501587,distr,47871.00005149841,Tue Feb 10 2026 13:24:35 GMT-0600 (Central Standard Time),610267.0,B,sky,I,y,236,3,565.3999999761581,609701.6000000238,8009,WL,C,5.0
6,12.396000146865845,distr,47603.999853134155,Tue Feb 10 2026 13:24:35 GMT-0600 (Central Standard Time),610534.4000000358,B,skyenter,I,enter,254,3,832.8000000119209,609701.6000000238,8009,WL,C,5.0
6,12.647000074386597,distr,47352.9999256134,Tue Feb 10 2026 13:24:35 GMT-0600 (Central Standard Time),610784.7000000477,B,h,I,h,230,3,250.0,610534.7000000477,8009,WL,C,6.0
6,12.779000043869019,distr,47220.99995613098,Tue Feb 10 2026 13:24:35 GMT-0600 (Central Standard Time),610917.3000000119,B,ho,I,o,113,3,382.5999999642372,610534.7000000477,8009,WL,C,6.0
6,12.913000106811523,distr,47086.99989318848,Tue Feb 10 2026 13:24:35 GMT-0600 (Central Standard Time),611050.7000000477,B,hot,I,t,110,3,516.0,610534.7000000477,8009,WL,C,6.0
6,13.263000011444092,distr,46736.99998855591,Tue Feb 10 2026 13:24:35 GMT-0600 (Central Standard Time),611401.1000000238,B,hote,I,e,327,3,866.3999999761581,610534.7000000477,8009,WL,C,6.0
6,13.413000106811523,distr,46586.99989318848,Tue Feb 10 2026 13:24:35 GMT-0600 (Central Standard Time),611550.5,B,hotel,I,l,137,3,1015.7999999523163,610534.7000000477,8009,WL,C,6.0
6,13.662000179290771,distr,46337.99982070923,Tue Feb 10 2026 13:24:35 GMT-0600 (Central Standard Time),611799.7000000477,B,hotelenter,I,enter,226,3,1265.0,610534.7000000477,8009,WL,C,6.0
6,18.377000093460083,distr,41622.99990653992,Tue Feb 10 2026 13:24:35 GMT-0600 (Central Standard Time),616515.4000000358,B,m,I,m,4708,3,4715.5,611799.9000000358,8009,WL,C,7.0
6,18.580000162124634,distr,41419.999837875366,Tue Feb 10 2026 13:24:35 GMT-0600 (Central Standard Time),616717.7000000477,B,me,I,e,188,3,4917.800000011921,611799.9000000358,8009,WL,C,7.0
6,18.776999950408936,distr,41223.000049591064,Tue Feb 10 2026 13:24:35 GMT-0600 (Central Standard Time),616915.1000000238,B,mea,I,a,182,3,5115.199999988079,611799.9000000358,8009,WL,C,7.0
6,18.894999980926514,distr,41105.000019073486,Tue Feb 10 2026 13:24:35 GMT-0600 (Central Standard Time),617032.7000000477,B,meat,I,t,110,3,5232.800000011921,611799.9000000358,8009,WL,C,7.0
6,19.17799997329712,distr,40822.00002670288,Tue Feb 10 2026 13:24:35 GMT-0600 (Central Standard Time),617315.8000000119,B,meatenter,I,enter,265,3,5515.899999976158,611799.9000000358,8009,WL,C,7.0
6,19.444000005722046,distr,40555.999994277954,Tue Feb 10 2026 13:24:35 GMT-0600 (Central Standard Time),617582.3000000119,B,m,I,m,247,3,266.39999997615814,617315.9000000358,8009,WL,C,8.0
6,19.66000008583069,distr,40339.99991416931,Tue Feb 10 2026 13:24:35 GMT-0600 (Central Standard Time),617798.0,B,mo,I,o,202,3,482.0999999642372,617315.9000000358,8009,WL,C,8.0
6,19.97699999809265,distr,40023.00000190735,Tue Feb 10 2026 13:24:35 GMT-0600 (Central Standard Time),618114.8000000119,B,mon,I,n,307,3,798.8999999761581,617315.9000000358,8009,WL,C,8.0
6,20.360000133514404,distr,39639.999866485596,Tue Feb 10 2026 13:24:35 GMT-0600 (Central Standard Time),618498.4000000358,B,mone,I,e,366,3,1182.5,617315.9000000358,8009,WL,C,8.0
6,20.47699999809265,distr,39523.00000190735,Tue Feb 10 2026 13:24:35 GMT-0600 (Central Standard Time),618614.7000000477,B,money,I,y,94,3,1298.800000011921,617315.9000000358,8009,WL,C,8.0
6,20.728000164031982,distr,39271.99983596802,Tue Feb 10 2026 13:24:35 GMT-0600 (Central Standard Time),618866.2000000477,B,moneyenter,I,enter,227,3,1550.300000011921,617315.9000000358,8009,WL,C,8.0
6,24.16000008583069,distr,35839.99991416931,Tue Feb 10 2026 13:24:35 GMT-0600 (Central Standard Time),622298.0,B,h,I,h,3417,3,3431.599999964237,618866.4000000358,8009,WL,C,9.0
6,24.29200005531311,distr,35707.99994468689,Tue Feb 10 2026 13:24:35 GMT-0600 (Central Standard Time),622430.2000000477,B,ha,I,a,111,3,3563.800000011921,618866.4000000358,8009,WL,C,9.0
6,24.426000118255615,distr,35573.999881744385,Tue Feb 10 2026 13:24:35 GMT-0600 (Central Standard Time),622563.8000000119,B,hal,I,l,116,3,3697.399999976158,618866.4000000358,8009,WL,C,9.0
6,24.594000101089478,distr,35405.99989891052,Tue Feb 10 2026 13:24:35 GMT-0600 (Central Standard Time),622731.6000000238,B,hall,I,l,155,3,3865.199999988079,618866.4000000358,8009,WL,C,9.0
6,24.77500009536743,distr,35224.99990463257,Tue Feb 10 2026 13:24:35 GMT-0600 (Central Standard Time),622913.5,B,hallenter,I,enter,175,3,4047.099999964237,618866.4000000358,8009,WL,C,9.0
6,25.725000143051147,distr,34274.99985694885,Tue Feb 10 2026 13:24:35 GMT-0600 (Central Standard Time),623863.0,B,v,I,v,938,3,949.2999999523163,622913.7000000477,8009,WL,C,10.0
6,25.924999952316284,distr,34075.000047683716,Tue Feb 10 2026 13:24:35 GMT-0600 (Central Standard Time),624063.4000000358,B,va,I,a,181,3,1149.699999988079,622913.7000000477,8009,WL,C,10.0
6,25.991000175476074,distr,34008.999824523926,Tue Feb 10 2026 13:24:35 GMT-0600 (Central Standard Time),624129.3000000119,B,val,I,l,50,3,1215.5999999642372,622913.7000000477,8009,WL,C,10.0
6,26.144999980926514,distr,33855.000019073486,Tue Feb 10 2026 13:24:35 GMT-0600 (Central Standard Time),624283.4000000358,B,vall,I,l,127,3,1369.699999988079,622913.7000000477,8009,WL,C,10.0
6,26.242000102996826,distr,33757.999897003174,Tue Feb 10 2026 13:24:35 GMT-0600 (Central Standard Time),624380.1000000238,B,valle,I,e,87,3,1466.3999999761581,622913.7000000477,8009,WL,C,10.0
6,26.874000072479248,distr,33125.99992752075,Tue Feb 10 2026 13:24:35 GMT-0600 (Central Standard Time),625012.6000000238,B,valley,I,y,623,3,2098.899999976158,622913.7000000477,8009,WL,C,10.0
6,27.159000158309937,distr,32840.99984169006,Tue Feb 10 2026 13:24:35 GMT-0600 (Central Standard Time),625297.4000000358,B,valleyenter,I,enter,278,3,2383.699999988079,622913.7000000477,8009,WL,C,10.0
6,31.289999961853027,distr,28710.000038146973,Tue Feb 10 2026 13:24:35 GMT-0600 (Central Standard Time),629428.1000000238,B,b,I,b,4123,3,4130.399999976158,625297.7000000477,8009,WL,C,11.0
6,31.44000005722046,distr,28559.99994277954,Tue Feb 10 2026 13:24:35 GMT-0600 (Central Standard Time),629578.4000000358,B,be,I,e,135,3,4280.699999988079,625297.7000000477,8009,WL,C,11.0
6,31.575999975204468,distr,28424.000024795532,Tue Feb 10 2026 13:24:35 GMT-0600 (Central Standard Time),629713.6000000238,B,bel,I,l,129,3,4415.899999976158,625297.7000000477,8009,WL,C,11.0
6,31.756999969482422,distr,28243.000030517578,Tue Feb 10 2026 13:24:35 GMT-0600 (Central Standard Time),629894.9000000358,B,bell,I,l,162,3,4597.199999988079,625297.7000000477,8009,WL,C,11.0
6,32.35700011253357,distr,27642.99988746643,Tue Feb 10 2026 13:24:35 GMT-0600 (Central Standard Time),630494.8000000119,B,bellenter,I,enter,579,3,5197.099999964237,625297.7000000477,8009,WL,C,11.0
6,32.59000015258789,distr,27409.99984741211,Tue Feb 10 2026 13:24:35 GMT-0600 (Central Standard Time),630728.0,B,enter,I,enter,213,3,232.89999997615814,630495.1000000238,8009,WL,C,12.0
6,32.78999996185303,distr,27210.000038146973,Tue Feb 10 2026 13:24:35 GMT-0600 (Central Standard Time),630928.0,B,enter,I,enter,179,3,199.69999998807907,630728.3000000119,8009,WL,C,13.0
6,32.973000049591064,distr,27026.999950408936,Tue Feb 10 2026 13:24:35 GMT-0600 (Central Standard Time),631111.0,B,enter,I,enter,171,3,182.69999998807907,630928.3000000119,8009,WL,C,14.0
6,33.34000015258789,distr,26659.99984741211,Tue Feb 10 2026 13:24:35 GMT-0600 (Central Standard Time),631477.8000000119,B,enter,I,enter,348,3,366.5,631111.3000000119,8009,WL,C,15.0
7,1.1490001678466797,immed,58850.99983215332,Tue Feb 10 2026 13:24:35 GMT-0600 (Central Standard Time),635659.4000000358,A,t,I,t,1134,3,1149.0,634510.4000000358,8009,WL,C,1.0
7,1.2829999923706055,immed,58717.000007629395,Tue Feb 10 2026 13:24:35 GMT-0600 (Central Standard Time),635792.8000000119,A,to,I,o,118,3,1282.3999999761581,634510.4000000358,8009,WL,C,1.0
7,1.4830000400543213,immed,58516.99995994568,Tue Feb 10 2026 13:24:35 GMT-0600 (Central Standard Time),635993.0,A,tow,I,w,179,3,1482.5999999642372,634510.4000000358,8009,WL,C,1.0
7,1.7000000476837158,immed,58299.999952316284,Tue Feb 10 2026 13:24:35 GMT-0600 (Central Standard Time),636210.3000000119,A,towe,I,e,201,3,1699.8999999761581,634510.4000000358,8009,WL,C,1.0
7,1.7829999923706055,immed,58217.000007629395,Tue Feb 10 2026 13:24:35 GMT-0600 (Central Standard Time),636292.6000000238,A,tower,I,r,65,3,1782.199999988079,634510.4000000358,8009,WL,C,1.0
7,2.0160000324249268,immed,57983.99996757507,Tue Feb 10 2026 13:24:35 GMT-0600 (Central Standard Time),636525.8000000119,A,towerenter,I,enter,219,3,2015.3999999761581,634510.4000000358,8009,WL,C,1.0
7,2.315999984741211,immed,57684.00001525879,Tue Feb 10 2026 13:24:35 GMT-0600 (Central Standard Time),636825.6000000238,A,w,I,w,286,3,299.60000002384186,636526.0,8009,WL,C,2.0
7,2.449000120162964,immed,57550.999879837036,Tue Feb 10 2026 13:24:35 GMT-0600 (Central Standard Time),636959.0,A,wh,I,h,113,3,433.0,636526.0,8009,WL,C,2.0
7,2.5490000247955322,immed,57450.99997520447,Tue Feb 10 2026 13:24:35 GMT-0600 (Central Standard Time),637058.6000000238,A,whe,I,e,84,3,532.6000000238419,636526.0,8009,WL,C,2.0
7,2.8990001678466797,immed,57100.99983215332,Tue Feb 10 2026 13:24:35 GMT-0600 (Central Standard Time),637409.0,A,whea,I,a,337,3,883.0,636526.0,8009,WL,C,2.0
7,3.133000135421753,immed,56866.99986457825,Tue Feb 10 2026 13:24:35 GMT-0600 (Central Standard Time),637643.1000000238,A,wheat,I,t,225,3,1117.1000000238419,636526.0,8009,WL,C,2.0
7,3.5320000648498535,immed,56467.99993515015,Tue Feb 10 2026 13:24:35 GMT-0600 (Central Standard Time),638041.7000000477,A,wheatenter,I,enter,382,3,1515.7000000476837,636526.0,8009,WL,C,2.0
7,4.466000080108643,immed,55533.99991989136,Tue Feb 10 2026 13:24:35 GMT-0600 (Central Standard Time),638975.8000000119,A,q,I,q,921,3,933.6999999880791,638042.1000000238,8009,WL,C,3.0
7,4.63100004196167,immed,55368.99995803833,Tue Feb 10 2026 13:24:35 GMT-0600 (Central Standard Time),639141.0,A,qu,I,u,155,3,1098.8999999761581,638042.1000000238,8009,WL,C,3.0
7,4.749000072479248,immed,55250.99992752075,Tue Feb 10 2026 13:24:35 GMT-0600 (Central Standard Time),639258.6000000238,A,que,I,e,114,3,1216.5,638042.1000000238,8009,WL,C,3.0
7,5.3480000495910645,immed,54651.999950408936,Tue Feb 10 2026 13:24:35 GMT-0600 (Central Standard Time),639858.0,A,ques,I,s,585,3,1815.8999999761581,638042.1000000238,8009,WL,C,3.0
7,5.948000192642212,immed,54051.99980735779,Tue Feb 10 2026 13:24:35 GMT-0600 (Central Standard Time),640457.6000000238,A,quese,I,e,586,3,2415.5,638042.1000000238,8009,WL,C,3.0
7,6.246999979019165,immed,53753.000020980835,Tue Feb 10 2026 13:24:35 GMT-0600 (Central Standard Time),640757.0,A,ques,I,backspace,280,3,2714.899999976158,638042.1000000238,8009,WL,C,3.0
7,6.448000192642212,immed,53551.99980735779,Tue Feb 10 2026 13:24:35 GMT-0600 (Central Standard Time),640957.8000000119,A,que,I,backspace,184,3,2915.699999988079,638042.1000000238,8009,WL,C,3.0
7,6.615000009536743,immed,53384.99999046326,Tue Feb 10 2026 13:24:35 GMT-0600 (Central Standard Time),641124.9000000358,A,quee,I,e,149,3,3082.800000011921,638042.1000000238,8009,WL,C,3.0
7,6.732000112533569,immed,53267.99988746643,Tue Feb 10 2026 13:24:35 GMT-0600 (Central Standard Time),641242.5,A,queen,I,n,102,3,3200.399999976158,638042.1000000238,8009,WL,C,3.0
7,7.063000202178955,immed,52936.999797821045,Tue Feb 10 2026 13:24:35 GMT-0600 (Central Standard Time),641573.5,A,queenenter,I,enter,313,3,3531.399999976158,638042.1000000238,8009,WL,C,3.0
7,8.448000192642212,immed,51551.99980735779,Tue Feb 10 2026 13:24:35 GMT-0600 (Central Standard Time),642957.7000000477,A,s,I,s,1375,3,1384.1000000238419,641573.6000000238,8009,WL,C,4.0
7,8.582000017166138,immed,51417.99998283386,Tue Feb 10 2026 13:24:35 GMT-0600 (Central Standard Time),643092.0,A,su,I,u,117,3,1518.3999999761581,641573.6000000238,8009,WL,C,4.0
7,8.864000082015991,immed,51135.99991798401,Tue Feb 10 2026 13:24:35 GMT-0600 (Central Standard Time),643373.8000000119,A,sug,I,g,270,3,1800.199999988079,641573.6000000238,8009,WL,C,4.0
7,8.980000019073486,immed,51019.999980926514,Tue Feb 10 2026 13:24:35 GMT-0600 (Central Standard Time),643490.2000000477,A,suga,I,a,109,3,1916.6000000238419,641573.6000000238,8009,WL,C,4.0
7,9.264000177383423,immed,50735.99982261658,Tue Feb 10 2026 13:24:35 GMT-0600 (Central Standard Time),643773.6000000238,A,sugar,I,r,273,3,2200.0,641573.6000000238,8009,WL,C,4.0
7,9.414000034332275,immed,50585.999965667725,Tue Feb 10 2026 13:24:35 GMT-0600 (Central Standard Time),643923.9000000358,A,sugarenter,I,enter,132,3,2350.300000011921,641573.6000000238,8009,WL,C,4.0
7,10.813000202178955,immed,49186.999797821045,Tue Feb 10 2026 13:24:35 GMT-0600 (Central Standard Time),645323.4000000358,A,h,I,h,1394,3,1399.4000000357628,643924.0,8009,WL,C,5.0
7,11.097000122070312,immed,48902.99987792969,Tue Feb 10 2026 13:24:35 GMT-0600 (Central Standard Time),645606.6000000238,A,ho,I,o,271,3,1682.6000000238419,643924.0,8009,WL,C,5.0
7,11.230000019073486,immed,48769.999980926514,Tue Feb 10 2026 13:24:35 GMT-0600 (Central Standard Time),645739.9000000358,A,hom,I,m,118,3,1815.9000000357628,643924.0,8009,WL,C,5.0
7,11.463000059127808,immed,48536.99994087219,Tue Feb 10 2026 13:24:35 GMT-0600 (Central Standard Time),645972.9000000358,A,home,I,e,223,3,2048.900000035763,643924.0,8009,WL,C,5.0
7,11.912000179290771,immed,48087.99982070923,Tue Feb 10 2026 13:24:35 GMT-0600 (Central Standard Time),646422.0,A,homeenter,I,enter,426,3,2498.0,643924.0,8009,WL,C,5.0
7,12.364000082015991,immed,47635.99991798401,Tue Feb 10 2026 13:24:35 GMT-0600 (Central Standard Time),646874.0,A,b,I,b,446,3,451.69999998807907,646422.3000000119,8009,WL,C,6.0
7,12.629000186920166,immed,47370.999813079834,Tue Feb 10 2026 13:24:35 GMT-0600 (Central Standard Time),647139.1000000238,A,bo,I,o,258,3,716.8000000119209,646422.3000000119,8009,WL,C,6.0
7,12.963000059127808,immed,47036.99994087219,Tue Feb 10 2026 13:24:35 GMT-0600 (Central Standard Time),647473.2000000477,A,boy,I,y,311,3,1050.9000000357628,646422.3000000119,8009,WL,C,6.0
7,13.462000131607056,immed,46537.999868392944,Tue Feb 10 2026 13:24:35 GMT-0600 (Central Standard Time),647972.1000000238,A,boyenter,I,enter,490,3,1549.800000011921,646422.3000000119,8009,WL,C,6.0
7,13.830000162124634,immed,46169.999837875366,Tue Feb 10 2026 13:24:35 GMT-0600 (Central Standard Time),648339.7000000477,A,d,I,d,360,3,367.4000000357628,647972.3000000119,8009,WL,C,7.0
7,14.013000011444092,immed,45986.99998855591,Tue Feb 10 2026 13:24:35 GMT-0600 (Central Standard Time),648522.5,A,do,I,o,164,3,550.1999999880791,647972.3000000119,8009,WL,C,7.0
7,14.17900013923645,immed,45820.99986076355,Tue Feb 10 2026 13:24:35 GMT-0600 (Central Standard Time),648689.0,A,doc,I,c,145,3,716.6999999880791,647972.3000000119,8009,WL,C,7.0
7,14.394999980926514,immed,45605.000019073486,Tue Feb 10 2026 13:24:35 GMT-0600 (Central Standard Time),648905.1000000238,A,doct,I,t,210,3,932.8000000119209,647972.3000000119,8009,WL,C,7.0
7,14.496000051498413,immed,45503.99994850159,Tue Feb 10 2026 13:24:35 GMT-0600 (Central Standard Time),649006.2000000477,A,docto,I,o,88,3,1033.9000000357628,647972.3000000119,8009,WL,C,7.0
7,14.611999988555908,immed,45388.00001144409,Tue Feb 10 2026 13:24:35 GMT-0600 (Central Standard Time),649122.2000000477,A,doctor,I,r,109,3,1149.9000000357628,647972.3000000119,8009,WL,C,7.0
7,14.746999979019165,immed,45253.000020980835,Tue Feb 10 2026 13:24:35 GMT-0600 (Central Standard Time),649257.5,A,doctore,I,e,130,3,1285.199999988079,647972.3000000119,8009,WL,C,7.0
7,14.861999988555908,immed,45138.00001144409,Tue Feb 10 2026 13:24:35 GMT-0600 (Central Standard Time),649372.1000000238,A,doctoreenter,I,enter,96,3,1399.800000011921,647972.3000000119,8009,WL,C,7.0
7,15.062000036239624,immed,44937.999963760376,Tue Feb 10 2026 13:24:35 GMT-0600 (Central Standard Time),649572.3000000119,A,c,I,c,191,3,199.89999997615814,649372.4000000358,8009,WL,C,8.0
7,15.927000045776367,immed,44072.99995422363,Tue Feb 10 2026 13:24:35 GMT-0600 (Central Standard Time),650437.5,A,ca,I,a,845,3,1065.0999999642372,649372.4000000358,8009,WL,C,8.0
7,16.094000101089478,immed,43905.99989891052,Tue Feb 10 2026 13:24:35 GMT-0600 (Central Standard Time),650604.2000000477,A,cam,I,m,150,3,1231.800000011921,649372.4000000358,8009,WL,C,8.0
7,16.26200008392334,immed,43737.99991607666,Tue Feb 10 2026 13:24:35 GMT-0600 (Central Standard Time),650772.1000000238,A,camp,I,p,158,3,1399.699999988079,649372.4000000358,8009,WL,C,8.0
7,16.511000156402588,immed,43488.99984359741,Tue Feb 10 2026 13:24:35 GMT-0600 (Central Standard Time),651020.9000000358,A,campenter,I,enter,241,3,1648.5,649372.4000000358,8009,WL,C,8.0
7,20.261000156402588,immed,39738.99984359741,Tue Feb 10 2026 13:24:35 GMT-0600 (Central Standard Time),654771.3000000119,A,l,I,l,3735,3,3750.199999988079,651021.1000000238,8009,WL,C,9.0
7,20.427000045776367,immed,39572.99995422363,Tue Feb 10 2026 13:24:35 GMT-0600 (Central Standard Time),654937.0,A,le,I,e,161,3,3915.899999976158,651021.1000000238,8009,WL,C,9.0
7,20.777000188827515,immed,39222.999811172485,Tue Feb 10 2026 13:24:35 GMT-0600 (Central Standard Time),655287.2000000477,A,let,I,t,340,3,4266.100000023842,651021.1000000238,8009,WL,C,9.0
7,20.944000005722046,immed,39055.999994277954,Tue Feb 10 2026 13:24:35 GMT-0600 (Central Standard Time),655453.8000000119,A,lete,I,e,155,3,4432.699999988079,651021.1000000238,8009,WL,C,9.0
7,21.075999975204468,immed,38924.00002479553,Tue Feb 10 2026 13:24:35 GMT-0600 (Central Standard Time),655586.3000000119,A,leter,I,r,117,3,4565.199999988079,651021.1000000238,8009,WL,C,9.0
7,21.212000131607056,immed,38787.999868392944,Tue Feb 10 2026 13:24:35 GMT-0600 (Central Standard Time),655722.3000000119,A,leterenter,I,enter,131,3,4701.199999988079,651021.1000000238,8009,WL,C,9.0
7,22.39300012588501,immed,37606.99987411499,Tue Feb 10 2026 13:24:35 GMT-0600 (Central Standard Time),656902.9000000358,A,n,I,n,1161,3,1180.300000011921,655722.6000000238,8009,WL,C,10.0
7,22.574000120162964,immed,37425.999879837036,Tue Feb 10 2026 13:24:35 GMT-0600 (Central Standard Time),657084.3000000119,A,na,I,a,163,3,1361.699999988079,655722.6000000238,8009,WL,C,10.0
7,22.73200011253357,immed,37267.99988746643,Tue Feb 10 2026 13:24:35 GMT-0600 (Central Standard Time),657241.6000000238,A,nai,I,i,154,3,1519.0,655722.6000000238,8009,WL,C,10.0
7,22.81000018119812,immed,37189.99981880188,Tue Feb 10 2026 13:24:35 GMT-0600 (Central Standard Time),657320.4000000358,A,nail,I,l,58,3,1597.800000011921,655722.6000000238,8009,WL,C,10.0
7,23.292999982833862,immed,36707.00001716614,Tue Feb 10 2026 13:24:35 GMT-0600 (Central Standard Time),657803.6000000238,A,nailenter,I,enter,474,3,2081.0,655722.6000000238,8009,WL,C,10.0
7,51.117000102996826,immed,8882.999897003174,Tue Feb 10 2026 13:24:35 GMT-0600 (Central Standard Time),685627.3000000119,A,c,I,c,27809,3,27823.5,657803.8000000119,8009,WL,C,11.0
7,51.33400011062622,immed,8665.99988937378,Tue Feb 10 2026 13:24:35 GMT-0600 (Central Standard Time),685844.0,A,ca,I,a,208,3,28040.19999998808,657803.8000000119,8009,WL,C,11.0
7,51.75,immed,8250.0,Tue Feb 10 2026 13:24:35 GMT-0600 (Central Standard Time),686260.5,A,cat,I,t,398,3,28456.69999998808,657803.8000000119,8009,WL,C,11.0
7,51.90000009536743,immed,8099.999904632568,Tue Feb 10 2026 13:24:35 GMT-0600 (Central Standard Time),686410.6000000238,A,catt,I,t,142,3,28606.80000001192,657803.8000000119,8009,WL,C,11.0
7,52.16799998283386,immed,7832.000017166138,Tue Feb 10 2026 13:24:35 GMT-0600 (Central Standard Time),686678.5,A,cattl,I,l,245,3,28874.69999998808,657803.8000000119,8009,WL,C,11.0
7,52.51700019836426,immed,7482.999801635742,Tue Feb 10 2026 13:24:35 GMT-0600 (Central Standard Time),687027.2000000477,A,cattle,I,e,342,3,29223.400000035763,657803.8000000119,8009,WL,C,11.0
7,53.13300013542175,immed,6866.999864578247,Tue Feb 10 2026 13:24:35 GMT-0600 (Central Standard Time),687643.2000000477,A,cattleenter,I,enter,599,3,29839.400000035763,657803.8000000119,8009,WL,C,11.0
7,54.90000009536743,immed,5099.999904632568,Tue Feb 10 2026 13:24:35 GMT-0600 (Central Standard Time),689409.8000000119,A,s,I,s,1752,3,1766.3999999761581,687643.4000000358,8009,WL,C,12.0
7,54.96399998664856,immed,5036.00001335144,Tue Feb 10 2026 13:24:35 GMT-0600 (Central Standard Time),689474.6000000238,A,sh,I,h,48,3,1831.199999988079,687643.4000000358,8009,WL,C,12.0
7,55.13499999046326,immed,4865.000009536743,Tue Feb 10 2026 13:24:35 GMT-0600 (Central Standard Time),689644.8000000119,A,sho,I,o,167,3,2001.3999999761581,687643.4000000358,8009,WL,C,12.0
7,55.28400015830994,immed,4715.9998416900635,Tue Feb 10 2026 13:24:35 GMT-0600 (Central Standard Time),689793.9000000358,A,shor,I,r,143,3,2150.5,687643.4000000358,8009,WL,C,12.0
