block_c,block_dur,condition,countdown,datetime,endtime,list,multichar_response,project,response,response_time,session_number,start_end,starttime,subject_id,task,task_vers,trial
,,,,Thu Aug 14 2025 15:19:41 GMT-0500 (Central Daylight Time),,,,I,space,982,1,,,8009,WL,B,
prac,,0,,Thu Aug 14 2025 15:19:41 GMT-0500 (Central Daylight Time),,NA,b,I,b,2114,1,,,8009,WL,B,1.0
prac,,0,,Thu Aug 14 2025 15:19:41 GMT-0500 (Central Daylight Time),,NA,bo,I,o,176,1,,,8009,WL,B,1.0
prac,,0,,Thu Aug 14 2025 15:19:41 GMT-0500 (Central Daylight Time),,NA,boo,I,o,145,1,,,8009,WL,B,1.0
prac,,0,,Thu Aug 14 2025 15:19:41 GMT-0500 (Central Daylight Time),,NA,boos,I,s,162,1,,,8009,WL,B,1.0
prac,,0,,Thu Aug 14 2025 15:19:41 GMT-0500 (Central Daylight Time),,NA,boost,I,t,996,1,,,8009,WL,B,1.0
prac,,0,,Thu Aug 14 2025 15:19:41 GMT-0500 (Central Daylight Time),,NA,boostenter,I,enter,740,1,,,8009,WL,B,1.0
1,0.8999998569488525,learn,59100.00014305115,Thu Aug 14 2025 15:19:41 GMT-0500 (Central Daylight Time),98540.0,A,s,I,s,886,1,899.8000000119209,97640.19999998808,8009,WL,B,1.0
1,1.2829999923706055,learn,58717.000007629395,Thu Aug 14 2025 15:19:41 GMT-0500 (Central Daylight Time),98923.0,A,st,I,t,367,1,1282.800000011921,97640.19999998808,8009,WL,B,1.0
1,1.3829998970031738,learn,58617.000102996826,Thu Aug 14 2025 15:19:41 GMT-0500 (Central Daylight Time),99023.0,A,str,I,r,90,1,1382.800000011921,97640.19999998808,8009,WL,B,1.0
1,1.6329998970031738,learn,58367.000102996826,Thu Aug 14 2025 15:19:41 GMT-0500 (Central Daylight Time),99273.0,A,stre,I,e,238,1,1632.800000011921,97640.19999998808,8009,WL,B,1.0
1,1.7829999923706055,learn,58217.000007629395,Thu Aug 14 2025 15:19:41 GMT-0500 (Central Daylight Time),99423.09999996424,A,stree,I,e,132,1,1782.8999999761581,97640.19999998808,8009,WL,B,1.0
1,2.0,learn,58000.0,Thu Aug 14 2025 15:19:41 GMT-0500 (Central Daylight Time),99639.59999996424,A,street,I,t,198,1,1999.3999999761581,97640.19999998808,8009,WL,B,1.0
1,2.5490000247955322,learn,57450.99997520447,Thu Aug 14 2025 15:19:41 GMT-0500 (Central Daylight Time),100189.19999998808,A,streetenter,I,enter,541,1,2549.0,97640.19999998808,8009,WL,B,1.0
1,3.2660000324249268,learn,56733.99996757507,Thu Aug 14 2025 15:19:41 GMT-0500 (Central Daylight Time),100906.0,A,a,I,a,695,1,716.1999999880791,100189.80000001192,8009,WL,B,2.0
1,3.749000072479248,learn,56250.99992752075,Thu Aug 14 2025 15:19:41 GMT-0500 (Central Daylight Time),101388.80000001192,A,ar,I,r,467,1,1199.0,100189.80000001192,8009,WL,B,2.0
1,3.8989999294281006,learn,56101.0000705719,Thu Aug 14 2025 15:19:41 GMT-0500 (Central Daylight Time),101538.69999998808,A,arm,I,m,137,1,1348.8999999761581,100189.80000001192,8009,WL,B,2.0
1,4.131999969482422,learn,55868.00003051758,Thu Aug 14 2025 15:19:41 GMT-0500 (Central Daylight Time),101772.19999998808,A,armenter,I,enter,218,1,1582.3999999761581,100189.80000001192,8009,WL,B,2.0
1,4.832000017166138,learn,55167.99998283386,Thu Aug 14 2025 15:19:41 GMT-0500 (Central Daylight Time),102471.89999997616,A,w,I,w,688,1,699.1999999880791,101772.69999998808,8009,WL,B,3.0
1,4.947999954223633,learn,55052.00004577637,Thu Aug 14 2025 15:19:41 GMT-0500 (Central Daylight Time),102588.39999997616,A,wi,I,i,109,1,815.6999999880791,101772.69999998808,8009,WL,B,3.0
1,5.065000057220459,learn,54934.99994277954,Thu Aug 14 2025 15:19:41 GMT-0500 (Central Daylight Time),102705.19999998808,A,win,I,n,97,1,932.5,101772.69999998808,8009,WL,B,3.0
1,5.164999961853027,learn,54835.00003814697,Thu Aug 14 2025 15:19:41 GMT-0500 (Central Daylight Time),102805.0,A,wind,I,d,84,1,1032.300000011921,101772.69999998808,8009,WL,B,3.0
1,5.297999858856201,learn,54702.0001411438,Thu Aug 14 2025 15:19:41 GMT-0500 (Central Daylight Time),102938.19999998808,A,windo,I,o,120,1,1165.5,101772.69999998808,8009,WL,B,3.0
1,5.4649999141693115,learn,54535.00008583069,Thu Aug 14 2025 15:19:41 GMT-0500 (Central Daylight Time),103105.09999996424,A,window,I,w,155,1,1332.3999999761581,101772.69999998808,8009,WL,B,3.0
1,5.681999921798706,learn,54318.000078201294,Thu Aug 14 2025 15:19:41 GMT-0500 (Central Daylight Time),103321.59999996424,A,windowenter,I,enter,205,1,1548.8999999761581,101772.69999998808,8009,WL,B,3.0
1,5.881999969482422,learn,54118.00003051758,Thu Aug 14 2025 15:19:41 GMT-0500 (Central Daylight Time),103521.5,A,w,I,w,188,1,199.5,103322.0,8009,WL,B,4.0
1,6.014999866485596,learn,53985.000133514404,Thu Aug 14 2025 15:19:41 GMT-0500 (Central Daylight Time),103654.89999997616,A,wi,I,i,116,1,332.89999997615814,103322.0,8009,WL,B,4.0
1,6.230999946594238,learn,53769.00005340576,Thu Aug 14 2025 15:19:41 GMT-0500 (Central Daylight Time),103871.39999997616,A,wif,I,f,198,1,549.3999999761581,103322.0,8009,WL,B,4.0
1,6.3480000495910645,learn,53651.999950408936,Thu Aug 14 2025 15:19:41 GMT-0500 (Central Daylight Time),103988.0,A,wife,I,e,102,1,666.0,103322.0,8009,WL,B,4.0
1,6.565000057220459,learn,53434.99994277954,Thu Aug 14 2025 15:19:41 GMT-0500 (Central Daylight Time),104204.59999996424,A,wifeenter,I,enter,209,1,882.5999999642372,103322.0,8009,WL,B,4.0
1,7.613999843597412,learn,52386.00015640259,Thu Aug 14 2025 15:19:41 GMT-0500 (Central Daylight Time),105254.39999997616,A,g,I,g,1033,1,1049.5,104204.89999997616,8009,WL,B,5.0
1,7.697999954223633,learn,52302.00004577637,Thu Aug 14 2025 15:19:41 GMT-0500 (Central Daylight Time),105337.80000001192,A,gr,I,r,63,1,1132.9000000357628,104204.89999997616,8009,WL,B,5.0
1,7.88100004196167,learn,52118.99995803833,Thu Aug 14 2025 15:19:41 GMT-0500 (Central Daylight Time),105520.89999997616,A,gra,I,a,163,1,1316.0,104204.89999997616,8009,WL,B,5.0
1,8.098000049591064,learn,51901.999950408936,Thu Aug 14 2025 15:19:41 GMT-0500 (Central Daylight Time),105737.5,A,gras,I,s,204,1,1532.6000000238419,104204.89999997616,8009,WL,B,5.0
1,8.29699993133545,learn,51703.00006866455,Thu Aug 14 2025 15:19:41 GMT-0500 (Central Daylight Time),105937.39999997616,A,grass,I,s,179,1,1732.5,104204.89999997616,8009,WL,B,5.0
1,8.44700002670288,learn,51552.99997329712,Thu Aug 14 2025 15:19:41 GMT-0500 (Central Daylight Time),106087.30000001192,A,grassenter,I,enter,132,1,1882.4000000357628,104204.89999997616,8009,WL,B,5.0
1,8.71399998664856,learn,51286.00001335144,Thu Aug 14 2025 15:19:41 GMT-0500 (Central Daylight Time),106354.09999996424,A,d,I,d,254,1,266.39999997615814,106087.69999998808,8009,WL,B,6.0
1,8.897000074386597,learn,51102.9999256134,Thu Aug 14 2025 15:19:41 GMT-0500 (Central Daylight Time),106537.19999998808,A,do,I,o,162,1,449.5,106087.69999998808,8009,WL,B,6.0
1,9.19700002670288,learn,50802.99997329712,Thu Aug 14 2025 15:19:41 GMT-0500 (Central Daylight Time),106837.09999996424,A,doo,I,o,292,1,749.3999999761581,106087.69999998808,8009,WL,B,6.0
1,9.346999883651733,learn,50653.00011634827,Thu Aug 14 2025 15:19:41 GMT-0500 (Central Daylight Time),106987.19999998808,A,door,I,r,136,1,899.5,106087.69999998808,8009,WL,B,6.0
1,9.579999923706055,learn,50420.000076293945,Thu Aug 14 2025 15:19:41 GMT-0500 (Central Daylight Time),107220.39999997616,A,doorenter,I,enter,226,1,1132.699999988079,106087.69999998808,8009,WL,B,6.0
1,12.36299991607666,learn,47637.00008392334,Thu Aug 14 2025 15:19:41 GMT-0500 (Central Daylight Time),110002.89999997616,A,l,I,l,2768,1,2782.099999964237,107220.80000001192,8009,WL,B,7.0
1,12.496000051498413,learn,47503.99994850159,Thu Aug 14 2025 15:19:41 GMT-0500 (Central Daylight Time),110135.80000001192,A,la,I,a,121,1,2915.0,107220.80000001192,8009,WL,B,7.0
1,12.61299991607666,learn,47387.00008392334,Thu Aug 14 2025 15:19:41 GMT-0500 (Central Daylight Time),110252.80000001192,A,lak,I,k,110,1,3032.0,107220.80000001192,8009,WL,B,7.0
1,12.746000051498413,learn,47253.99994850159,Thu Aug 14 2025 15:19:41 GMT-0500 (Central Daylight Time),110386.19999998808,A,lake,I,e,121,1,3165.399999976158,107220.80000001192,8009,WL,B,7.0
1,12.912999868392944,learn,47087.000131607056,Thu Aug 14 2025 15:19:41 GMT-0500 (Central Daylight Time),110552.89999997616,A,lakeenter,I,enter,156,1,3332.099999964237,107220.80000001192,8009,WL,B,7.0
1,13.162999868392944,learn,46837.000131607056,Thu Aug 14 2025 15:19:41 GMT-0500 (Central Daylight Time),110802.5,A,c,I,c,228,1,249.19999998807907,110553.30000001192,8009,WL,B,8.0
1,13.312999963760376,learn,46687.000036239624,Thu Aug 14 2025 15:19:41 GMT-0500 (Central Daylight Time),110952.5,A,ca,I,a,131,1,399.19999998807907,110553.30000001192,8009,WL,B,8.0
1,13.397000074386597,learn,46602.9999256134,Thu Aug 14 2025 15:19:41 GMT-0500 (Central Daylight Time),111036.80000001192,A,cab,I,b,78,1,483.5,110553.30000001192,8009,WL,B,8.0
1,13.562999963760376,learn,46437.000036239624,Thu Aug 14 2025 15:19:41 GMT-0500 (Central Daylight Time),111202.69999998808,A,cabi,I,i,161,1,649.3999999761581,110553.30000001192,8009,WL,B,8.0
1,13.678999900817871,learn,46321.00009918213,Thu Aug 14 2025 15:19:41 GMT-0500 (Central Daylight Time),111319.0,A,cabin,I,n,107,1,765.6999999880791,110553.30000001192,8009,WL,B,8.0
1,13.911999940872192,learn,46088.00005912781,Thu Aug 14 2025 15:19:41 GMT-0500 (Central Daylight Time),111552.5,A,cabinenter,I,enter,215,1,999.1999999880791,110553.30000001192,8009,WL,B,8.0
1,14.461999893188477,learn,45538.00010681152,Thu Aug 14 2025 15:19:41 GMT-0500 (Central Daylight Time),112102.19999998808,A,c,I,c,541,1,549.3000000119209,111552.89999997616,8009,WL,B,9.0
1,14.57800006866455,learn,45421.99993133545,Thu Aug 14 2025 15:19:41 GMT-0500 (Central Daylight Time),112218.39999997616,A,cl,I,l,111,1,665.5,111552.89999997616,8009,WL,B,9.0
1,14.76199984550476,learn,45238.00015449524,Thu Aug 14 2025 15:19:41 GMT-0500 (Central Daylight Time),112401.89999997616,A,clo,I,o,163,1,849.0,111552.89999997616,8009,WL,B,9.0
1,14.861999988555908,learn,45138.00001144409,Thu Aug 14 2025 15:19:41 GMT-0500 (Central Daylight Time),112502.09999996424,A,cloc,I,c,92,1,949.1999999880791,111552.89999997616,8009,WL,B,9.0
1,14.978999853134155,learn,45021.000146865845,Thu Aug 14 2025 15:19:41 GMT-0500 (Central Daylight Time),112618.89999997616,A,clock,I,k,112,1,1066.0,111552.89999997616,8009,WL,B,9.0
1,15.211999893188477,learn,44788.00010681152,Thu Aug 14 2025 15:19:41 GMT-0500 (Central Daylight Time),112852.09999996424,A,clockenter,I,enter,227,1,1299.199999988079,111552.89999997616,8009,WL,B,9.0
1,15.51199984550476,learn,44488.00015449524,Thu Aug 14 2025 15:19:41 GMT-0500 (Central Daylight Time),113151.89999997616,A,p,I,p,289,1,299.39999997615814,112852.5,8009,WL,B,10.0
1,15.769000053405762,learn,44230.99994659424,Thu Aug 14 2025 15:19:41 GMT-0500 (Central Daylight Time),113409.09999996424,A,pi,I,i,253,1,556.5999999642372,112852.5,8009,WL,B,10.0
1,15.91599988937378,learn,44084.00011062622,Thu Aug 14 2025 15:19:41 GMT-0500 (Central Daylight Time),113556.30000001192,A,pip,I,p,143,1,703.8000000119209,112852.5,8009,WL,B,10.0
1,16.144999980926514,learn,43855.000019073486,Thu Aug 14 2025 15:19:41 GMT-0500 (Central Daylight Time),113785.09999996424,A,pipe,I,e,208,1,932.5999999642372,112852.5,8009,WL,B,10.0
1,16.361999988555908,learn,43638.00001144409,Thu Aug 14 2025 15:19:41 GMT-0500 (Central Daylight Time),114001.59999996424,A,pipeenter,I,enter,204,1,1149.0999999642372,112852.5,8009,WL,B,10.0
1,16.894999980926514,learn,43105.000019073486,Thu Aug 14 2025 15:19:41 GMT-0500 (Central Daylight Time),114534.89999997616,A,f,I,f,516,1,532.8000000119209,114002.09999996424,8009,WL,B,11.0
1,17.027999877929688,learn,42972.00012207031,Thu Aug 14 2025 15:19:41 GMT-0500 (Central Daylight Time),114668.19999998808,A,fi,I,i,119,1,666.1000000238419,114002.09999996424,8009,WL,B,11.0
1,17.194999933242798,learn,42805.0000667572,Thu Aug 14 2025 15:19:41 GMT-0500 (Central Daylight Time),114834.69999998808,A,fir,I,r,145,1,832.6000000238419,114002.09999996424,8009,WL,B,11.0
1,17.34500002861023,learn,42654.99997138977,Thu Aug 14 2025 15:19:41 GMT-0500 (Central Daylight Time),114984.59999996424,A,fire,I,e,139,1,982.5,114002.09999996424,8009,WL,B,11.0
1,17.59500002861023,learn,42404.99997138977,Thu Aug 14 2025 15:19:41 GMT-0500 (Central Daylight Time),115234.80000001192,A,fireenter,I,enter,245,1,1232.7000000476837,114002.09999996424,8009,WL,B,11.0
1,21.259000062942505,learn,38740.999937057495,Thu Aug 14 2025 15:19:41 GMT-0500 (Central Daylight Time),118900.09999996424,A,a,I,a,3651,1,3665.0,115235.09999996424,8009,WL,B,12.0
1,21.491999864578247,learn,38508.00013542175,Thu Aug 14 2025 15:19:41 GMT-0500 (Central Daylight Time),119133.19999998808,A,ar,I,r,218,1,3898.100000023842,115235.09999996424,8009,WL,B,12.0
1,21.64199995994568,learn,38358.00004005432,Thu Aug 14 2025 15:19:41 GMT-0500 (Central Daylight Time),119283.19999998808,A,arm,I,m,137,1,4048.100000023842,115235.09999996424,8009,WL,B,12.0
1,22.05900001525879,learn,37940.99998474121,Thu Aug 14 2025 15:19:41 GMT-0500 (Central Daylight Time),119699.89999997616,A,armenter,I,enter,410,1,4464.800000011921,115235.09999996424,8009,WL,B,12.0
1,34.437999963760376,learn,25562.000036239624,Thu Aug 14 2025 15:19:41 GMT-0500 (Central Daylight Time),132079.30000001192,A,w,I,w,12370,1,12379.100000023842,119700.19999998808,8009,WL,B,13.0
1,34.58800005912781,learn,25411.999940872192,Thu Aug 14 2025 15:19:41 GMT-0500 (Central Daylight Time),132229.19999998808,A,wi,I,i,134,1,12529.0,119700.19999998808,8009,WL,B,13.0
1,34.687999963760376,learn,25312.000036239624,Thu Aug 14 2025 15:19:41 GMT-0500 (Central Daylight Time),132329.0,A,win,I,n,88,1,12628.800000011921,119700.19999998808,8009,WL,B,13.0
1,34.83800005912781,learn,25161.999940872192,Thu Aug 14 2025 15:19:41 GMT-0500 (Central Daylight Time),132479.19999998808,A,wind,I,d,141,1,12779.0,119700.19999998808,8009,WL,B,13.0
1,35.00499987602234,learn,24995.00012397766,Thu Aug 14 2025 15:19:41 GMT-0500 (Central Daylight Time),132645.80000001192,A,windo,I,o,158,1,12945.600000023842,119700.19999998808,8009,WL,B,13.0
1,35.13800001144409,learn,24861.99998855591,Thu Aug 14 2025 15:19:41 GMT-0500 (Central Daylight Time),132778.89999997616,A,window,I,w,129,1,13078.699999988079,119700.19999998808,8009,WL,B,13.0
1,35.38800001144409,learn,24611.99998855591,Thu Aug 14 2025 15:19:41 GMT-0500 (Central Daylight Time),133029.19999998808,A,windowenter,I,enter,234,1,13329.0,119700.19999998808,8009,WL,B,13.0
1,58.69799995422363,learn,1302.0000457763672,Thu Aug 14 2025 15:19:41 GMT-0500 (Central Daylight Time),156338.5,A,enter,I,enter,23288,1,23309.0,133029.5,8009,WL,B,14.0
1,59.513999938964844,learn,486.00006103515625,Thu Aug 14 2025 15:19:41 GMT-0500 (Central Daylight Time),157154.59999996424,A,enter,I,enter,810,1,815.6999999880791,156338.89999997616,8009,WL,B,15.0
2,0.9019999504089355,learn,59098.000049591064,Thu Aug 14 2025 15:19:41 GMT-0500 (Central Daylight Time),231384.39999997616,A,s,I,s,899,1,902.5,230481.89999997616,8009,WL,B,1.0
2,1.065999984741211,learn,58934.00001525879,Thu Aug 14 2025 15:19:41 GMT-0500 (Central Daylight Time),231547.69999998808,A,st,I,t,148,1,1065.800000011921,230481.89999997616,8009,WL,B,1.0
2,1.1990001201629639,learn,58800.999879837036,Thu Aug 14 2025 15:19:41 GMT-0500 (Central Daylight Time),231681.30000001192,A,str,I,r,111,1,1199.4000000357628,230481.89999997616,8009,WL,B,1.0
2,1.4320001602172852,learn,58567.999839782715,Thu Aug 14 2025 15:19:41 GMT-0500 (Central Daylight Time),231914.5,A,stre,I,e,213,1,1432.6000000238419,230481.89999997616,8009,WL,B,1.0
2,1.565999984741211,learn,58434.00001525879,Thu Aug 14 2025 15:19:41 GMT-0500 (Central Daylight Time),232047.89999997616,A,stree,I,e,123,1,1566.0,230481.89999997616,8009,WL,B,1.0
2,1.8489999771118164,learn,58151.00002288818,Thu Aug 14 2025 15:19:41 GMT-0500 (Central Daylight Time),232330.80000001192,A,street,I,t,277,1,1848.9000000357628,230481.89999997616,8009,WL,B,1.0
2,2.199000120162964,learn,57800.999879837036,Thu Aug 14 2025 15:19:41 GMT-0500 (Central Daylight Time),232681.09999996424,A,streetenter,I,enter,339,1,2199.199999988079,230481.89999997616,8009,WL,B,1.0
2,2.9820001125335693,learn,57017.99988746643,Thu Aug 14 2025 15:19:41 GMT-0500 (Central Daylight Time),233464.0,A,g,I,g,773,1,782.5,232681.5,8009,WL,B,2.0
2,3.0820000171661377,learn,56917.99998283386,Thu Aug 14 2025 15:19:41 GMT-0500 (Central Daylight Time),233564.0,A,gr,I,r,93,1,882.5,232681.5,8009,WL,B,2.0
2,3.2820000648498535,learn,56717.99993515015,Thu Aug 14 2025 15:19:41 GMT-0500 (Central Daylight Time),233763.89999997616,A,gra,I,a,194,1,1082.3999999761581,232681.5,8009,WL,B,2.0
2,3.4820001125335693,learn,56517.99988746643,Thu Aug 14 2025 15:19:41 GMT-0500 (Central Daylight Time),233964.19999998808,A,gras,I,s,186,1,1282.699999988079,232681.5,8009,WL,B,2.0
2,3.6649999618530273,learn,56335.00003814697,Thu Aug 14 2025 15:19:41 GMT-0500 (Central Daylight Time),234147.09999996424,A,grass,I,s,169,1,1465.5999999642372,232681.5,8009,WL,B,2.0
2,3.815000057220459,learn,56184.99994277954,Thu Aug 14 2025 15:19:41 GMT-0500 (Central Daylight Time),234297.09999996424,A,grassenter,I,enter,139,1,1615.5999999642372,232681.5,8009,WL,B,2.0
2,4.182000160217285,learn,55817.999839782715,Thu Aug 14 2025 15:19:41 GMT-0500 (Central Daylight Time),234663.80000001192,A,d,I,d,357,1,366.30000001192093,234297.5,8009,WL,B,3.0
2,4.365000009536743,learn,55634.99999046326,Thu Aug 14 2025 15:19:41 GMT-0500 (Central Daylight Time),234847.0,A,do,I,o,166,1,549.5,234297.5,8009,WL,B,3.0
2,4.715000152587891,learn,55284.99984741211,Thu Aug 14 2025 15:19:41 GMT-0500 (Central Daylight Time),235196.89999997616,A,doo,I,o,334,1,899.3999999761581,234297.5,8009,WL,B,3.0
2,4.8480000495910645,learn,55151.999950408936,Thu Aug 14 2025 15:19:41 GMT-0500 (Central Daylight Time),235330.39999997616,A,door,I,r,113,1,1032.8999999761581,234297.5,8009,WL,B,3.0
2,5.064000129699707,learn,54935.99987030029,Thu Aug 14 2025 15:19:41 GMT-0500 (Central Daylight Time),235546.59999996424,A,doorenter,I,enter,211,1,1249.0999999642372,234297.5,8009,WL,B,3.0
2,9.17900013923645,learn,50820.99986076355,Thu Aug 14 2025 15:19:41 GMT-0500 (Central Daylight Time),239662.09999996424,A,a,I,a,4107,1,4115.399999976158,235546.69999998808,8009,WL,B,4.0
2,9.42900013923645,learn,50570.99986076355,Thu Aug 14 2025 15:19:41 GMT-0500 (Central Daylight Time),239912.0,A,ar,I,r,241,1,4365.300000011921,235546.69999998808,8009,WL,B,4.0
2,9.878000020980835,learn,50121.999979019165,Thu Aug 14 2025 15:19:41 GMT-0500 (Central Daylight Time),240361.80000001192,A,arm,I,m,429,1,4815.100000023842,235546.69999998808,8009,WL,B,4.0
2,10.144999980926514,learn,49855.000019073486,Thu Aug 14 2025 15:19:41 GMT-0500 (Central Daylight Time),240628.19999998808,A,armenter,I,enter,252,1,5081.5,235546.69999998808,8009,WL,B,4.0
2,10.42799997329712,learn,49572.00002670288,Thu Aug 14 2025 15:19:41 GMT-0500 (Central Daylight Time),240911.80000001192,A,s,I,s,274,1,283.30000001192093,240628.5,8009,WL,B,5.0
2,10.712000131607056,learn,49287.999868392944,Thu Aug 14 2025 15:19:41 GMT-0500 (Central Daylight Time),241195.0,A,st,I,t,263,1,566.5,240628.5,8009,WL,B,5.0
2,10.92799997329712,learn,49072.00002670288,Thu Aug 14 2025 15:19:41 GMT-0500 (Central Daylight Time),241411.30000001192,A,sta,I,a,211,1,782.8000000119209,240628.5,8009,WL,B,5.0
2,11.061000108718872,learn,48938.99989128113,Thu Aug 14 2025 15:19:41 GMT-0500 (Central Daylight Time),241544.80000001192,A,star,I,r,123,1,916.3000000119209,240628.5,8009,WL,B,5.0
2,11.444999933242798,learn,48555.0000667572,Thu Aug 14 2025 15:19:41 GMT-0500 (Central Daylight Time),241928.5,A,starenter,I,enter,365,1,1300.0,240628.5,8009,WL,B,5.0
2,11.894999980926514,learn,48105.000019073486,Thu Aug 14 2025 15:19:41 GMT-0500 (Central Daylight Time),242378.09999996424,A,c,I,c,429,1,449.19999998807907,241928.89999997616,8009,WL,B,6.0
2,12.061000108718872,learn,47938.99989128113,Thu Aug 14 2025 15:19:41 GMT-0500 (Central Daylight Time),242544.69999998808,A,ci,I,i,157,1,615.8000000119209,241928.89999997616,8009,WL,B,6.0
2,12.311000108718872,learn,47688.99989128113,Thu Aug 14 2025 15:19:41 GMT-0500 (Central Daylight Time),242794.5,A,cit,I,t,237,1,865.6000000238419,241928.89999997616,8009,WL,B,6.0
2,12.460999965667725,learn,47539.000034332275,Thu Aug 14 2025 15:19:41 GMT-0500 (Central Daylight Time),242944.5,A,city,I,y,139,1,1015.6000000238419,241928.89999997616,8009,WL,B,6.0
2,12.74399995803833,learn,47256.00004196167,Thu Aug 14 2025 15:19:41 GMT-0500 (Central Daylight Time),243227.80000001192,A,cityenter,I,enter,277,1,1298.9000000357628,241928.89999997616,8009,WL,B,6.0
2,15.077000141143799,learn,44922.9998588562,Thu Aug 14 2025 15:19:41 GMT-0500 (Central Daylight Time),245560.5,A,s,I,s,2322,1,2332.300000011921,243228.19999998808,8009,WL,B,7.0
2,15.194000005722046,learn,44805.999994277954,Thu Aug 14 2025 15:19:41 GMT-0500 (Central Daylight Time),245677.19999998808,A,sk,I,k,102,1,2449.0,243228.19999998808,8009,WL,B,7.0
2,15.377000093460083,learn,44622.99990653992,Thu Aug 14 2025 15:19:41 GMT-0500 (Central Daylight Time),245859.80000001192,A,ski,I,i,177,1,2631.600000023842,243228.19999998808,8009,WL,B,7.0
2,15.476999998092651,learn,44523.00000190735,Thu Aug 14 2025 15:19:41 GMT-0500 (Central Daylight Time),245960.19999998808,A,skin,I,n,91,1,2732.0,243228.19999998808,8009,WL,B,7.0
2,15.759999990463257,learn,44240.00000953674,Thu Aug 14 2025 15:19:41 GMT-0500 (Central Daylight Time),246243.19999998808,A,skinenter,I,enter,278,1,3015.0,243228.19999998808,8009,WL,B,7.0
2,16.110000133514404,learn,43889.999866485596,Thu Aug 14 2025 15:19:41 GMT-0500 (Central Daylight Time),246593.39999997616,A,f,I,f,339,1,350.0,246243.39999997616,8009,WL,B,8.0
2,16.292999982833862,learn,43707.00001716614,Thu Aug 14 2025 15:19:41 GMT-0500 (Central Daylight Time),246776.59999996424,A,fi,I,i,164,1,533.1999999880791,246243.39999997616,8009,WL,B,8.0
2,16.39300012588501,learn,43606.99987411499,Thu Aug 14 2025 15:19:41 GMT-0500 (Central Daylight Time),246876.69999998808,A,fir,I,r,85,1,633.3000000119209,246243.39999997616,8009,WL,B,8.0
2,16.592999935150146,learn,43407.00006484985,Thu Aug 14 2025 15:19:41 GMT-0500 (Central Daylight Time),247076.59999996424,A,fire,I,e,186,1,833.1999999880791,246243.39999997616,8009,WL,B,8.0
2,16.743000030517578,learn,43256.99996948242,Thu Aug 14 2025 15:19:41 GMT-0500 (Central Daylight Time),247226.39999997616,A,fireenter,I,enter,137,1,983.0,246243.39999997616,8009,WL,B,8.0
2,17.825999975204468,learn,42174.00002479553,Thu Aug 14 2025 15:19:41 GMT-0500 (Central Daylight Time),248309.39999997616,A,c,I,c,1075,1,1082.5999999642372,247226.80000001192,8009,WL,B,9.0
2,17.943000078201294,learn,42056.999921798706,Thu Aug 14 2025 15:19:41 GMT-0500 (Central Daylight Time),248426.09999996424,A,cl,I,l,104,1,1199.2999999523163,247226.80000001192,8009,WL,B,9.0
2,18.110000133514404,learn,41889.999866485596,Thu Aug 14 2025 15:19:41 GMT-0500 (Central Daylight Time),248593.09999996424,A,clo,I,o,147,1,1366.2999999523163,247226.80000001192,8009,WL,B,9.0
2,18.193000078201294,learn,41806.999921798706,Thu Aug 14 2025 15:19:41 GMT-0500 (Central Daylight Time),248676.19999998808,A,cloc,I,c,70,1,1449.3999999761581,247226.80000001192,8009,WL,B,9.0
2,18.325999975204468,learn,41674.00002479553,Thu Aug 14 2025 15:19:41 GMT-0500 (Central Daylight Time),248809.39999997616,A,clock,I,k,121,1,1582.5999999642372,247226.80000001192,8009,WL,B,9.0
2,18.575999975204468,learn,41424.00002479553,Thu Aug 14 2025 15:19:41 GMT-0500 (Central Daylight Time),249059.5,A,clockenter,I,enter,229,1,1832.699999988079,247226.80000001192,8009,WL,B,9.0
2,19.108999967575073,learn,40891.00003242493,Thu Aug 14 2025 15:19:41 GMT-0500 (Central Daylight Time),249592.39999997616,A,c,I,c,523,1,532.5999999642372,249059.80000001192,8009,WL,B,10.0
2,19.259000062942505,learn,40740.999937057495,Thu Aug 14 2025 15:19:41 GMT-0500 (Central Daylight Time),249742.39999997616,A,ca,I,a,141,1,682.5999999642372,249059.80000001192,8009,WL,B,10.0
2,19.358999967575073,learn,40641.00003242493,Thu Aug 14 2025 15:19:41 GMT-0500 (Central Daylight Time),249842.30000001192,A,cab,I,b,87,1,782.5,249059.80000001192,8009,WL,B,10.0
2,19.55900001525879,learn,40440.99998474121,Thu Aug 14 2025 15:19:41 GMT-0500 (Central Daylight Time),250042.30000001192,A,cabi,I,i,187,1,982.5,249059.80000001192,8009,WL,B,10.0
2,19.676000118255615,learn,40323.999881744385,Thu Aug 14 2025 15:19:41 GMT-0500 (Central Daylight Time),250158.89999997616,A,cabin,I,n,107,1,1099.0999999642372,249059.80000001192,8009,WL,B,10.0
2,20.009000062942505,learn,39990.999937057495,Thu Aug 14 2025 15:19:41 GMT-0500 (Central Daylight Time),250492.0,A,cabinenter,I,enter,327,1,1432.199999988079,249059.80000001192,8009,WL,B,10.0
2,20.77500009536743,learn,39224.99990463257,Thu Aug 14 2025 15:19:41 GMT-0500 (Central Daylight Time),251258.5,A,l,I,l,746,1,766.1000000238419,250492.39999997616,8009,WL,B,11.0
2,20.85800004005432,learn,39141.99995994568,Thu Aug 14 2025 15:19:41 GMT-0500 (Central Daylight Time),251341.89999997616,A,la,I,a,75,1,849.5,250492.39999997616,8009,WL,B,11.0
2,21.008000135421753,learn,38991.99986457825,Thu Aug 14 2025 15:19:41 GMT-0500 (Central Daylight Time),251491.59999996424,A,lak,I,k,137,1,999.1999999880791,250492.39999997616,8009,WL,B,11.0
2,21.157999992370605,learn,38842.000007629395,Thu Aug 14 2025 15:19:41 GMT-0500 (Central Daylight Time),251641.80000001192,A,lake,I,e,138,1,1149.4000000357628,250492.39999997616,8009,WL,B,11.0
2,21.375,learn,38625.0,Thu Aug 14 2025 15:19:41 GMT-0500 (Central Daylight Time),251858.39999997616,A,lakeenter,I,enter,197,1,1366.0,250492.39999997616,8009,WL,B,11.0
2,21.64199995994568,learn,38358.00004005432,Thu Aug 14 2025 15:19:41 GMT-0500 (Central Daylight Time),252124.89999997616,A,p,I,p,260,1,266.19999998807907,251858.69999998808,8009,WL,B,12.0
2,21.842000007629395,learn,38157.999992370605,Thu Aug 14 2025 15:19:41 GMT-0500 (Central Daylight Time),252325.0,A,pi,I,i,185,1,466.30000001192093,251858.69999998808,8009,WL,B,12.0
2,21.990999937057495,learn,38009.000062942505,Thu Aug 14 2025 15:19:41 GMT-0500 (Central Daylight Time),252474.59999996424,A,pip,I,p,137,1,615.8999999761581,251858.69999998808,8009,WL,B,12.0
2,22.29100012779236,learn,37708.99987220764,Thu Aug 14 2025 15:19:41 GMT-0500 (Central Daylight Time),252774.89999997616,A,pipe,I,e,291,1,916.1999999880791,251858.69999998808,8009,WL,B,12.0
2,22.475000143051147,learn,37524.99985694885,Thu Aug 14 2025 15:19:41 GMT-0500 (Central Daylight Time),252958.09999996424,A,pipeenter,I,enter,167,1,1099.3999999761581,251858.69999998808,8009,WL,B,12.0
2,23.35800004005432,learn,36641.99995994568,Thu Aug 14 2025 15:19:41 GMT-0500 (Central Daylight Time),253841.0,A,p,I,p,872,1,882.6999999880791,252958.30000001192,8009,WL,B,13.0
2,23.558000087738037,learn,36441.99991226196,Thu Aug 14 2025 15:19:41 GMT-0500 (Central Daylight Time),254041.0,A,pu,I,u,189,1,1082.699999988079,252958.30000001192,8009,WL,B,13.0
2,23.79100012779236,learn,36208.99987220764,Thu Aug 14 2025 15:19:41 GMT-0500 (Central Daylight Time),254274.30000001192,A,pup,I,p,213,1,1316.0,252958.30000001192,8009,WL,B,13.0
2,23.924000024795532,learn,36075.99997520447,Thu Aug 14 2025 15:19:41 GMT-0500 (Central Daylight Time),254407.69999998808,A,pupi,I,i,115,1,1449.3999999761581,252958.30000001192,8009,WL,B,13.0
2,24.124000072479248,learn,35875.99992752075,Thu Aug 14 2025 15:19:41 GMT-0500 (Central Daylight Time),254607.59999996424,A,pupil,I,l,189,1,1649.2999999523163,252958.30000001192,8009,WL,B,13.0
2,24.47699999809265,learn,35523.00000190735,Thu Aug 14 2025 15:19:41 GMT-0500 (Central Daylight Time),254959.80000001192,A,pupilenter,I,enter,347,1,2001.5,252958.30000001192,8009,WL,B,13.0
2,25.84000015258789,learn,34159.99984741211,Thu Aug 14 2025 15:19:41 GMT-0500 (Central Daylight Time),256323.30000001192,A,enter,I,enter,1358,1,1363.2000000476837,254960.09999996424,8009,WL,B,14.0
2,26.140000104904175,learn,33859.999895095825,Thu Aug 14 2025 15:19:41 GMT-0500 (Central Daylight Time),256623.39999997616,A,enter,I,enter,282,1,299.80000001192093,256323.59999996424,8009,WL,B,15.0
3,1.3829998970031738,learn,58617.000102996826,Thu Aug 14 2025 15:19:41 GMT-0500 (Central Daylight Time),321953.0,A,s,I,s,1373,1,1382.800000011921,320570.1999999881,8009,WL,B,1.0
3,1.6500000953674316,learn,58349.99990463257,Thu Aug 14 2025 15:19:41 GMT-0500 (Central Daylight Time),322219.6999999881,A,st,I,t,251,1,1649.5,320570.1999999881,8009,WL,B,1.0
3,1.75,learn,58250.0,Thu Aug 14 2025 15:19:41 GMT-0500 (Central Daylight Time),322319.39999997616,A,str,I,r,82,1,1749.199999988079,320570.1999999881,8009,WL,B,1.0
3,1.9500000476837158,learn,58049.999952316284,Thu Aug 14 2025 15:19:41 GMT-0500 (Central Daylight Time),322519.59999996424,A,stre,I,e,182,1,1949.3999999761581,320570.1999999881,8009,WL,B,1.0
3,2.115999937057495,learn,57884.000062942505,Thu Aug 14 2025 15:19:41 GMT-0500 (Central Daylight Time),322685.6999999881,A,stree,I,e,150,1,2115.5,320570.1999999881,8009,WL,B,1.0
3,2.2829999923706055,learn,57717.000007629395,Thu Aug 14 2025 15:19:41 GMT-0500 (Central Daylight Time),322852.6999999881,A,street,I,t,159,1,2282.5,320570.1999999881,8009,WL,B,1.0
3,2.865999937057495,learn,57134.000062942505,Thu Aug 14 2025 15:19:41 GMT-0500 (Central Daylight Time),323435.59999996424,A,streetenter,I,enter,578,1,2865.399999976158,320570.1999999881,8009,WL,B,1.0
3,3.4830000400543213,learn,56516.99995994568,Thu Aug 14 2025 15:19:41 GMT-0500 (Central Daylight Time),324052.3000000119,A,g,I,g,610,1,616.5,323435.8000000119,8009,WL,B,2.0
3,3.5989999771118164,learn,56401.00002288818,Thu Aug 14 2025 15:19:41 GMT-0500 (Central Daylight Time),324168.89999997616,A,gr,I,r,97,1,733.0999999642372,323435.8000000119,8009,WL,B,2.0
3,3.8329999446868896,learn,56167.00005531311,Thu Aug 14 2025 15:19:41 GMT-0500 (Central Daylight Time),324402.1999999881,A,gra,I,a,213,1,966.3999999761581,323435.8000000119,8009,WL,B,2.0
3,4.016000032424927,learn,55983.99996757507,Thu Aug 14 2025 15:19:41 GMT-0500 (Central Daylight Time),324585.39999997616,A,gras,I,s,163,1,1149.5999999642372,323435.8000000119,8009,WL,B,2.0
3,4.200000047683716,learn,55799.999952316284,Thu Aug 14 2025 15:19:41 GMT-0500 (Central Daylight Time),324769.8000000119,A,grass,I,s,180,1,1334.0,323435.8000000119,8009,WL,B,2.0
3,4.315999984741211,learn,55684.00001525879,Thu Aug 14 2025 15:19:41 GMT-0500 (Central Daylight Time),324885.39999997616,A,grassenter,I,enter,108,1,1449.5999999642372,323435.8000000119,8009,WL,B,2.0
3,4.7820000648498535,learn,55217.99993515015,Thu Aug 14 2025 15:19:41 GMT-0500 (Central Daylight Time),325352.1999999881,A,s,I,s,457,1,466.5,324885.6999999881,8009,WL,B,3.0
3,5.278000116348267,learn,54721.99988365173,Thu Aug 14 2025 15:19:41 GMT-0500 (Central Daylight Time),325847.1999999881,A,so,I,o,343,1,961.5,324885.6999999881,8009,WL,B,3.0
3,5.414999961853027,learn,54585.00003814697,Thu Aug 14 2025 15:19:41 GMT-0500 (Central Daylight Time),325985.09999996424,A,soo,I,o,118,1,1099.3999999761581,324885.6999999881,8009,WL,B,3.0
3,5.582000017166138,learn,54417.99998283386,Thu Aug 14 2025 15:19:41 GMT-0500 (Central Daylight Time),326151.59999996424,A,soor,I,r,157,1,1265.8999999761581,324885.6999999881,8009,WL,B,3.0
3,6.148999929428101,learn,53851.0000705719,Thu Aug 14 2025 15:19:41 GMT-0500 (Central Daylight Time),326719.0,A,soo,I,backspace,558,1,1833.300000011921,324885.6999999881,8009,WL,B,3.0
3,6.331000089645386,learn,53668.999910354614,Thu Aug 14 2025 15:19:41 GMT-0500 (Central Daylight Time),326901.09999996424,A,so,I,backspace,175,1,2015.3999999761581,324885.6999999881,8009,WL,B,3.0
3,6.497999906539917,learn,53502.00009346008,Thu Aug 14 2025 15:19:41 GMT-0500 (Central Daylight Time),327067.8000000119,A,s,I,backspace,152,1,2182.100000023842,324885.6999999881,8009,WL,B,3.0
3,6.648000001907349,learn,53351.99999809265,Thu Aug 14 2025 15:19:41 GMT-0500 (Central Daylight Time),327217.8000000119,A,,I,backspace,146,1,2332.100000023842,324885.6999999881,8009,WL,B,3.0
3,7.180999994277954,learn,52819.000005722046,Thu Aug 14 2025 15:19:41 GMT-0500 (Central Daylight Time),327750.89999997616,A,d,I,d,524,1,2865.199999988079,324885.6999999881,8009,WL,B,3.0
3,7.447999954223633,learn,52552.00004577637,Thu Aug 14 2025 15:19:41 GMT-0500 (Central Daylight Time),328017.8000000119,A,do,I,o,247,1,3132.100000023842,324885.6999999881,8009,WL,B,3.0
3,7.615000009536743,learn,52384.99999046326,Thu Aug 14 2025 15:19:41 GMT-0500 (Central Daylight Time),328184.8000000119,A,doo,I,o,148,1,3299.100000023842,324885.6999999881,8009,WL,B,3.0
3,7.732000112533569,learn,52267.99988746643,Thu Aug 14 2025 15:19:41 GMT-0500 (Central Daylight Time),328301.3000000119,A,door,I,r,100,1,3415.600000023842,324885.6999999881,8009,WL,B,3.0
3,8.065000057220459,learn,51934.99994277954,Thu Aug 14 2025 15:19:41 GMT-0500 (Central Daylight Time),328634.3000000119,A,doorenter,I,enter,312,1,3748.600000023842,324885.6999999881,8009,WL,B,3.0
3,10.21399998664856,learn,49786.00001335144,Thu Aug 14 2025 15:19:41 GMT-0500 (Central Daylight Time),330783.5,A,a,I,a,2140,1,2148.800000011921,328634.6999999881,8009,WL,B,4.0
3,10.496999979019165,learn,49503.000020980835,Thu Aug 14 2025 15:19:41 GMT-0500 (Central Daylight Time),331066.89999997616,A,ar,I,r,279,1,2432.199999988079,328634.6999999881,8009,WL,B,4.0
3,10.680999994277954,learn,49319.000005722046,Thu Aug 14 2025 15:19:41 GMT-0500 (Central Daylight Time),331250.1999999881,A,arm,I,m,172,1,2615.5,328634.6999999881,8009,WL,B,4.0
3,10.880000114440918,learn,49119.99988555908,Thu Aug 14 2025 15:19:41 GMT-0500 (Central Daylight Time),331449.6999999881,A,armenter,I,enter,187,1,2815.0,328634.6999999881,8009,WL,B,4.0
3,11.27999997138977,learn,48720.00002861023,Thu Aug 14 2025 15:19:41 GMT-0500 (Central Daylight Time),331849.89999997616,A,s,I,s,388,1,400.0,331449.89999997616,8009,WL,B,5.0
3,11.579999923706055,learn,48420.000076293945,Thu Aug 14 2025 15:19:41 GMT-0500 (Central Daylight Time),332149.8000000119,A,st,I,t,284,1,699.9000000357628,331449.89999997616,8009,WL,B,5.0
3,11.680000066757202,learn,48319.9999332428,Thu Aug 14 2025 15:19:41 GMT-0500 (Central Daylight Time),332250.0,A,sta,I,a,88,1,800.1000000238419,331449.89999997616,8009,WL,B,5.0
3,12.86299991607666,learn,47137.00008392334,Thu Aug 14 2025 15:19:41 GMT-0500 (Central Daylight Time),333432.6999999881,A,star,I,r,1173,1,1982.800000011921,331449.89999997616,8009,WL,B,5.0
3,13.230000019073486,learn,46769.999980926514,Thu Aug 14 2025 15:19:41 GMT-0500 (Central Daylight Time),333799.09999996424,A,starenter,I,enter,349,1,2349.199999988079,331449.89999997616,8009,WL,B,5.0
3,13.86299991607666,learn,46137.00008392334,Thu Aug 14 2025 15:19:41 GMT-0500 (Central Daylight Time),334432.3000000119,A,c,I,c,615,1,632.9000000357628,333799.39999997616,8009,WL,B,6.0
3,14.029000043869019,learn,45970.99995613098,Thu Aug 14 2025 15:19:41 GMT-0500 (Central Daylight Time),334598.89999997616,A,ci,I,i,157,1,799.5,333799.39999997616,8009,WL,B,6.0
3,14.279000043869019,learn,45720.99995613098,Thu Aug 14 2025 15:19:41 GMT-0500 (Central Daylight Time),334848.8000000119,A,cit,I,t,231,1,1049.4000000357628,333799.39999997616,8009,WL,B,6.0
3,14.463000059127808,learn,45536.99994087219,Thu Aug 14 2025 15:19:41 GMT-0500 (Central Daylight Time),335032.1999999881,A,city,I,y,165,1,1232.800000011921,333799.39999997616,8009,WL,B,6.0
3,15.711999893188477,learn,44288.00010681152,Thu Aug 14 2025 15:19:41 GMT-0500 (Central Daylight Time),336281.6999999881,A,cityenter,I,enter,1238,1,2482.300000011921,333799.39999997616,8009,WL,B,6.0
3,17.694999933242798,learn,42305.0000667572,Thu Aug 14 2025 15:19:41 GMT-0500 (Central Daylight Time),338264.5,A,w,I,w,1964,1,1982.5,336282.0,8009,WL,B,7.0
3,17.812000036239624,learn,42187.999963760376,Thu Aug 14 2025 15:19:41 GMT-0500 (Central Daylight Time),338381.1999999881,A,wi,I,i,109,1,2099.199999988079,336282.0,8009,WL,B,7.0
3,17.944999933242798,learn,42055.0000667572,Thu Aug 14 2025 15:19:41 GMT-0500 (Central Daylight Time),338514.5,A,win,I,n,112,1,2232.5,336282.0,8009,WL,B,7.0
3,18.09500002861023,learn,41904.99997138977,Thu Aug 14 2025 15:19:41 GMT-0500 (Central Daylight Time),338664.59999996424,A,wind,I,d,131,1,2382.599999964237,336282.0,8009,WL,B,7.0
3,18.26099991798401,learn,41739.00008201599,Thu Aug 14 2025 15:19:41 GMT-0500 (Central Daylight Time),338831.09999996424,A,windo,I,o,157,1,2549.099999964237,336282.0,8009,WL,B,7.0
3,18.42799997329712,learn,41572.00002670288,Thu Aug 14 2025 15:19:41 GMT-0500 (Central Daylight Time),338997.6999999881,A,window,I,w,151,1,2715.699999988079,336282.0,8009,WL,B,7.0
3,18.694999933242798,learn,41305.0000667572,Thu Aug 14 2025 15:19:41 GMT-0500 (Central Daylight Time),339264.39999997616,A,windowenter,I,enter,257,1,2982.399999976158,336282.0,8009,WL,B,7.0
3,19.26099991798401,learn,40739.00008201599,Thu Aug 14 2025 15:19:41 GMT-0500 (Central Daylight Time),339830.8000000119,A,w,I,w,549,1,566.0,339264.8000000119,8009,WL,B,8.0
3,19.727999925613403,learn,40272.0000743866,Thu Aug 14 2025 15:19:41 GMT-0500 (Central Daylight Time),340297.3000000119,A,wi,I,i,456,1,1032.5,339264.8000000119,8009,WL,B,8.0
3,19.844000101089478,learn,40155.99989891052,Thu Aug 14 2025 15:19:41 GMT-0500 (Central Daylight Time),340414.0,A,wif,I,f,100,1,1149.199999988079,339264.8000000119,8009,WL,B,8.0
3,20.061000108718872,learn,39938.99989128113,Thu Aug 14 2025 15:19:41 GMT-0500 (Central Daylight Time),340630.5,A,wife,I,e,200,1,1365.699999988079,339264.8000000119,8009,WL,B,8.0
3,20.194000005722046,learn,39805.999994277954,Thu Aug 14 2025 15:19:41 GMT-0500 (Central Daylight Time),340763.6999999881,A,wifeenter,I,enter,120,1,1498.8999999761581,339264.8000000119,8009,WL,B,8.0
3,20.811000108718872,learn,39188.99989128113,Thu Aug 14 2025 15:19:41 GMT-0500 (Central Daylight Time),341380.1999999881,A,p,I,p,610,1,616.0,340764.1999999881,8009,WL,B,9.0
3,21.109999895095825,learn,38890.000104904175,Thu Aug 14 2025 15:19:41 GMT-0500 (Central Daylight Time),341680.1999999881,A,pu,I,u,289,1,916.0,340764.1999999881,8009,WL,B,9.0
3,21.377000093460083,learn,38622.99990653992,Thu Aug 14 2025 15:19:41 GMT-0500 (Central Daylight Time),341946.6999999881,A,pup,I,p,254,1,1182.5,340764.1999999881,8009,WL,B,9.0
3,21.57699990272522,learn,38423.00009727478,Thu Aug 14 2025 15:19:41 GMT-0500 (Central Daylight Time),342146.8000000119,A,pupi,I,i,187,1,1382.6000000238419,340764.1999999881,8009,WL,B,9.0
3,21.759999990463257,learn,38240.00000953674,Thu Aug 14 2025 15:19:41 GMT-0500 (Central Daylight Time),342330.0,A,pupil,I,l,171,1,1565.800000011921,340764.1999999881,8009,WL,B,9.0
3,22.026999950408936,learn,37973.000049591064,Thu Aug 14 2025 15:19:41 GMT-0500 (Central Daylight Time),342596.59999996424,A,pupilenter,I,enter,251,1,1832.3999999761581,340764.1999999881,8009,WL,B,9.0
3,23.292999982833862,learn,36707.00001716614,Thu Aug 14 2025 15:19:41 GMT-0500 (Central Daylight Time),343862.8000000119,A,l,I,l,1257,1,1265.9000000357628,342596.89999997616,8009,WL,B,10.0
3,23.460000038146973,learn,36539.99996185303,Thu Aug 14 2025 15:19:41 GMT-0500 (Central Daylight Time),344029.1999999881,A,la,I,a,151,1,1432.300000011921,342596.89999997616,8009,WL,B,10.0
3,23.609999895095825,learn,36390.000104904175,Thu Aug 14 2025 15:19:41 GMT-0500 (Central Daylight Time),344179.39999997616,A,lak,I,k,137,1,1582.5,342596.89999997616,8009,WL,B,10.0
3,23.792999982833862,learn,36207.00001716614,Thu Aug 14 2025 15:19:41 GMT-0500 (Central Daylight Time),344362.5,A,lake,I,e,171,1,1765.6000000238419,342596.89999997616,8009,WL,B,10.0
3,24.14299988746643,learn,35857.00011253357,Thu Aug 14 2025 15:19:41 GMT-0500 (Central Daylight Time),344712.5,A,lakeenter,I,enter,339,1,2115.600000023842,342596.89999997616,8009,WL,B,10.0
3,26.80900001525879,learn,33190.99998474121,Thu Aug 14 2025 15:19:41 GMT-0500 (Central Daylight Time),347378.3000000119,A,c,I,c,2653,1,2665.5,344712.8000000119,8009,WL,B,11.0
3,26.97499990463257,learn,33025.00009536743,Thu Aug 14 2025 15:19:41 GMT-0500 (Central Daylight Time),347544.89999997616,A,ca,I,a,156,1,2832.099999964237,344712.8000000119,8009,WL,B,11.0
3,27.092000007629395,learn,32907.999992370605,Thu Aug 14 2025 15:19:41 GMT-0500 (Central Daylight Time),347661.6999999881,A,cab,I,b,101,1,2948.899999976158,344712.8000000119,8009,WL,B,11.0
3,27.292999982833862,learn,32707.000017166138,Thu Aug 14 2025 15:19:41 GMT-0500 (Central Daylight Time),347862.6999999881,A,cabi,I,i,184,1,3149.899999976158,344712.8000000119,8009,WL,B,11.0
3,27.407999992370605,learn,32592.000007629395,Thu Aug 14 2025 15:19:41 GMT-0500 (Central Daylight Time),347978.1999999881,A,cabin,I,n,103,1,3265.399999976158,344712.8000000119,8009,WL,B,11.0
3,27.742000102996826,learn,32257.999897003174,Thu Aug 14 2025 15:19:41 GMT-0500 (Central Daylight Time),348311.1999999881,A,cabinenter,I,enter,323,1,3598.399999976158,344712.8000000119,8009,WL,B,11.0
3,28.490999937057495,learn,31509.000062942505,Thu Aug 14 2025 15:19:41 GMT-0500 (Central Daylight Time),349060.8000000119,A,p,I,p,744,1,749.2000000476837,348311.59999996424,8009,WL,B,12.0
3,28.859999895095825,learn,31140.000104904175,Thu Aug 14 2025 15:19:41 GMT-0500 (Central Daylight Time),349430.0,A,pi,I,i,219,1,1118.4000000357628,348311.59999996424,8009,WL,B,12.0
3,28.91000008583069,learn,31089.99991416931,Thu Aug 14 2025 15:19:41 GMT-0500 (Central Daylight Time),349479.3000000119,A,pip,I,p,31,1,1167.7000000476837,348311.59999996424,8009,WL,B,12.0
3,29.075000047683716,learn,30924.999952316284,Thu Aug 14 2025 15:19:41 GMT-0500 (Central Daylight Time),349644.39999997616,A,pipe,I,e,159,1,1332.800000011921,348311.59999996424,8009,WL,B,12.0
3,29.424999952316284,learn,30575.000047683716,Thu Aug 14 2025 15:19:41 GMT-0500 (Central Daylight Time),349994.3000000119,A,pipeenter,I,enter,345,1,1682.7000000476837,348311.59999996424,8009,WL,B,12.0
3,30.157999992370605,learn,29842.000007629395,Thu Aug 14 2025 15:19:41 GMT-0500 (Central Daylight Time),350727.3000000119,A,f,I,f,716,1,732.8000000119209,349994.5,8009,WL,B,13.0
3,30.35800004005432,learn,29641.99995994568,Thu Aug 14 2025 15:19:41 GMT-0500 (Central Daylight Time),350927.5,A,fi,I,i,182,1,933.0,349994.5,8009,WL,B,13.0
3,30.506999969482422,learn,29493.000030517578,Thu Aug 14 2025 15:19:41 GMT-0500 (Central Daylight Time),351077.0,A,fir,I,r,135,1,1082.5,349994.5,8009,WL,B,13.0
3,30.723999977111816,learn,29276.000022888184,Thu Aug 14 2025 15:19:41 GMT-0500 (Central Daylight Time),351293.5,A,fire,I,e,201,1,1299.0,349994.5,8009,WL,B,13.0
3,30.957000017166138,learn,29042.999982833862,Thu Aug 14 2025 15:19:41 GMT-0500 (Central Daylight Time),351527.09999996424,A,fireenter,I,enter,216,1,1532.5999999642372,349994.5,8009,WL,B,13.0
3,32.0239999294281,learn,27976.0000705719,Thu Aug 14 2025 15:19:41 GMT-0500 (Central Daylight Time),352593.5,A,c,I,c,1056,1,1066.1000000238419,351527.39999997616,8009,WL,B,14.0
3,32.14100003242493,learn,27858.999967575073,Thu Aug 14 2025 15:19:41 GMT-0500 (Central Daylight Time),352710.1999999881,A,cl,I,l,108,1,1182.800000011921,351527.39999997616,8009,WL,B,14.0
3,32.33999991416931,learn,27660.00008583069,Thu Aug 14 2025 15:19:41 GMT-0500 (Central Daylight Time),352910.0,A,clo,I,o,183,1,1382.6000000238419,351527.39999997616,8009,WL,B,14.0
3,33.25699996948242,learn,26743.000030517578,Thu Aug 14 2025 15:19:41 GMT-0500 (Central Daylight Time),353826.1999999881,A,cloc,I,c,904,1,2298.800000011921,351527.39999997616,8009,WL,B,14.0
3,33.390000104904175,learn,26609.999895095825,Thu Aug 14 2025 15:19:41 GMT-0500 (Central Daylight Time),353959.59999996424,A,clock,I,k,123,1,2432.199999988079,351527.39999997616,8009,WL,B,14.0
3,34.12299990653992,learn,25877.000093460083,Thu Aug 14 2025 15:19:41 GMT-0500 (Central Daylight Time),354692.6999999881,A,clockenter,I,enter,726,1,3165.300000011921,351527.39999997616,8009,WL,B,14.0
3,38.47000002861023,learn,21529.99997138977,Thu Aug 14 2025 15:19:41 GMT-0500 (Central Daylight Time),359041.1999999881,A,enter,I,enter,4329,1,4348.199999988079,354693.0,8009,WL,B,15.0
4,0.4500000476837158,learn,59549.999952316284,Thu Aug 14 2025 15:19:41 GMT-0500 (Central Daylight Time),424387.6999999881,A,s,I,s,445,1,449.80000001192093,423937.89999997616,8009,WL,B,1.0
4,0.7999999523162842,learn,59200.000047683716,Thu Aug 14 2025 15:19:41 GMT-0500 (Central Daylight Time),424738.39999997616,A,st,I,t,345,1,800.5,423937.89999997616,8009,WL,B,1.0
4,0.9670000076293945,learn,59032.999992370605,Thu Aug 14 2025 15:19:41 GMT-0500 (Central Daylight Time),424904.59999996424,A,str,I,r,147,1,966.6999999880791,423937.89999997616,8009,WL,B,1.0
4,1.2330000400543213,learn,58766.99995994568,Thu Aug 14 2025 15:19:41 GMT-0500 (Central Daylight Time),425170.89999997616,A,stre,I,e,246,1,1233.0,423937.89999997616,8009,WL,B,1.0
4,1.3660001754760742,learn,58633.999824523926,Thu Aug 14 2025 15:19:41 GMT-0500 (Central Daylight Time),425304.3000000119,A,stree,I,e,123,1,1366.4000000357628,423937.89999997616,8009,WL,B,1.0
4,1.5499999523162842,learn,58450.000047683716,Thu Aug 14 2025 15:19:41 GMT-0500 (Central Daylight Time),425487.5,A,street,I,t,173,1,1549.6000000238419,423937.89999997616,8009,WL,B,1.0
4,1.9000000953674316,learn,58099.99990463257,Thu Aug 14 2025 15:19:41 GMT-0500 (Central Daylight Time),425837.39999997616,A,streetenter,I,enter,334,1,1899.5,423937.89999997616,8009,WL,B,1.0
4,2.5320000648498535,learn,57467.99993515015,Thu Aug 14 2025 15:19:41 GMT-0500 (Central Daylight Time),426470.39999997616,A,g,I,g,616,1,632.6999999880791,425837.6999999881,8009,WL,B,2.0
4,2.631999969482422,learn,57368.00003051758,Thu Aug 14 2025 15:19:41 GMT-0500 (Central Daylight Time),426570.3000000119,A,gr,I,r,79,1,732.6000000238419,425837.6999999881,8009,WL,B,2.0
4,2.8489999771118164,learn,57151.00002288818,Thu Aug 14 2025 15:19:41 GMT-0500 (Central Daylight Time),426786.8000000119,A,gra,I,a,195,1,949.1000000238419,425837.6999999881,8009,WL,B,2.0
4,3.0490000247955322,learn,56950.99997520447,Thu Aug 14 2025 15:19:41 GMT-0500 (Central Daylight Time),426987.09999996424,A,gras,I,s,187,1,1149.3999999761581,425837.6999999881,8009,WL,B,2.0
4,3.249000072479248,learn,56750.99992752075,Thu Aug 14 2025 15:19:41 GMT-0500 (Central Daylight Time),427187.0,A,grass,I,s,187,1,1349.300000011921,425837.6999999881,8009,WL,B,2.0
4,3.7980000972747803,learn,56201.99990272522,Thu Aug 14 2025 15:19:41 GMT-0500 (Central Daylight Time),427736.3000000119,A,grassenter,I,enter,530,1,1898.6000000238419,425837.6999999881,8009,WL,B,2.0
4,5.930999994277954,learn,54069.000005722046,Thu Aug 14 2025 15:19:41 GMT-0500 (Central Daylight Time),429869.1999999881,A,d,I,d,2125,1,2132.600000023842,427736.59999996424,8009,WL,B,3.0
4,6.164999961853027,learn,53835.00003814697,Thu Aug 14 2025 15:19:41 GMT-0500 (Central Daylight Time),430102.5,A,do,I,o,217,1,2365.900000035763,427736.59999996424,8009,WL,B,3.0
4,6.331000089645386,learn,53668.999910354614,Thu Aug 14 2025 15:19:41 GMT-0500 (Central Daylight Time),430269.09999996424,A,doo,I,o,151,1,2532.5,427736.59999996424,8009,WL,B,3.0
4,6.430999994277954,learn,53569.000005722046,Thu Aug 14 2025 15:19:41 GMT-0500 (Central Daylight Time),430369.1999999881,A,door,I,r,80,1,2632.600000023842,427736.59999996424,8009,WL,B,3.0
4,6.648000001907349,learn,53351.99999809265,Thu Aug 14 2025 15:19:41 GMT-0500 (Central Daylight Time),430585.59999996424,A,doorenter,I,enter,196,1,2849.0,427736.59999996424,8009,WL,B,3.0
4,6.930999994277954,learn,53069.000005722046,Thu Aug 14 2025 15:19:41 GMT-0500 (Central Daylight Time),430868.89999997616,A,a,I,a,276,1,283.0,430585.89999997616,8009,WL,B,4.0
4,7.197000026702881,learn,52802.99997329712,Thu Aug 14 2025 15:19:41 GMT-0500 (Central Daylight Time),431135.3000000119,A,ar,I,r,249,1,549.4000000357628,430585.89999997616,8009,WL,B,4.0
4,7.46399998664856,learn,52536.00001335144,Thu Aug 14 2025 15:19:41 GMT-0500 (Central Daylight Time),431402.0,A,arm,I,m,254,1,816.1000000238419,430585.89999997616,8009,WL,B,4.0
4,7.664000034332275,learn,52335.999965667725,Thu Aug 14 2025 15:19:41 GMT-0500 (Central Daylight Time),431601.89999997616,A,armenter,I,enter,180,1,1016.0,430585.89999997616,8009,WL,B,4.0
4,8.114000082015991,learn,51885.99991798401,Thu Aug 14 2025 15:19:41 GMT-0500 (Central Daylight Time),432051.59999996424,A,s,I,s,444,1,449.39999997615814,431602.1999999881,8009,WL,B,5.0
4,8.347000122070312,learn,51652.99987792969,Thu Aug 14 2025 15:19:41 GMT-0500 (Central Daylight Time),432285.1999999881,A,st,I,t,226,1,683.0,431602.1999999881,8009,WL,B,5.0
4,8.480000019073486,learn,51519.999980926514,Thu Aug 14 2025 15:19:41 GMT-0500 (Central Daylight Time),432418.1999999881,A,sta,I,a,121,1,816.0,431602.1999999881,8009,WL,B,5.0
4,8.597000122070312,learn,51402.99987792969,Thu Aug 14 2025 15:19:41 GMT-0500 (Central Daylight Time),432535.0,A,star,I,r,107,1,932.8000000119209,431602.1999999881,8009,WL,B,5.0
4,8.96399998664856,learn,51036.00001335144,Thu Aug 14 2025 15:19:41 GMT-0500 (Central Daylight Time),432901.59999996424,A,starenter,I,enter,352,1,1299.3999999761581,431602.1999999881,8009,WL,B,5.0
4,10.347000122070312,learn,49652.99987792969,Thu Aug 14 2025 15:19:41 GMT-0500 (Central Daylight Time),434284.39999997616,A,w,I,w,1377,1,1382.5,432901.89999997616,8009,WL,B,6.0
4,10.547000169754028,learn,49452.99983024597,Thu Aug 14 2025 15:19:41 GMT-0500 (Central Daylight Time),434484.5,A,wi,I,i,185,1,1582.6000000238419,432901.89999997616,8009,WL,B,6.0
4,10.630000114440918,learn,49369.99988555908,Thu Aug 14 2025 15:19:41 GMT-0500 (Central Daylight Time),434568.0,A,wif,I,f,65,1,1666.1000000238419,432901.89999997616,8009,WL,B,6.0
4,10.746000051498413,learn,49253.99994850159,Thu Aug 14 2025 15:19:41 GMT-0500 (Central Daylight Time),434684.09999996424,A,wife,I,e,110,1,1782.199999988079,432901.89999997616,8009,WL,B,6.0
4,11.163000106811523,learn,48836.99989318848,Thu Aug 14 2025 15:19:41 GMT-0500 (Central Daylight Time),435100.59999996424,A,wifeenter,I,enter,402,1,2198.699999988079,432901.89999997616,8009,WL,B,6.0
4,11.513000011444092,learn,48486.99998855591,Thu Aug 14 2025 15:19:41 GMT-0500 (Central Daylight Time),435450.6999999881,A,w,I,w,337,1,349.80000001192093,435100.89999997616,8009,WL,B,7.0
4,11.629000186920166,learn,48370.999813079834,Thu Aug 14 2025 15:19:41 GMT-0500 (Central Daylight Time),435567.39999997616,A,wi,I,i,99,1,466.5,435100.89999997616,8009,WL,B,7.0
4,11.77999997138977,learn,48220.00002861023,Thu Aug 14 2025 15:19:41 GMT-0500 (Central Daylight Time),435717.5,A,win,I,n,135,1,616.6000000238419,435100.89999997616,8009,WL,B,7.0
4,11.879000186920166,learn,48120.999813079834,Thu Aug 14 2025 15:19:41 GMT-0500 (Central Daylight Time),435817.1999999881,A,wind,I,d,88,1,716.3000000119209,435100.89999997616,8009,WL,B,7.0
4,12.046000003814697,learn,47953.9999961853,Thu Aug 14 2025 15:19:41 GMT-0500 (Central Daylight Time),435983.8000000119,A,windo,I,o,157,1,882.9000000357628,435100.89999997616,8009,WL,B,7.0
4,12.312999963760376,learn,47687.000036239624,Thu Aug 14 2025 15:19:41 GMT-0500 (Central Daylight Time),436250.59999996424,A,window,I,w,247,1,1149.699999988079,435100.89999997616,8009,WL,B,7.0
4,12.76200008392334,learn,47237.99991607666,Thu Aug 14 2025 15:19:41 GMT-0500 (Central Daylight Time),436700.3000000119,A,windowenter,I,enter,443,1,1599.4000000357628,435100.89999997616,8009,WL,B,7.0
4,15.92799997329712,learn,44072.00002670288,Thu Aug 14 2025 15:19:41 GMT-0500 (Central Daylight Time),439866.0,A,c,I,c,3153,1,3165.400000035763,436700.59999996424,8009,WL,B,8.0
4,16.195000171661377,learn,43804.99982833862,Thu Aug 14 2025 15:19:41 GMT-0500 (Central Daylight Time),440132.5,A,ci,I,i,251,1,3431.900000035763,436700.59999996424,8009,WL,B,8.0
4,16.361999988555908,learn,43638.00001144409,Thu Aug 14 2025 15:19:41 GMT-0500 (Central Daylight Time),440299.59999996424,A,cit,I,t,153,1,3599.0,436700.59999996424,8009,WL,B,8.0
4,16.460999965667725,learn,43539.000034332275,Thu Aug 14 2025 15:19:41 GMT-0500 (Central Daylight Time),440399.1999999881,A,city,I,y,90,1,3698.600000023842,436700.59999996424,8009,WL,B,8.0
4,16.92799997329712,learn,43072.00002670288,Thu Aug 14 2025 15:19:41 GMT-0500 (Central Daylight Time),440865.6999999881,A,cityenter,I,enter,447,1,4165.100000023842,436700.59999996424,8009,WL,B,8.0
4,17.526999950408936,learn,42473.000049591064,Thu Aug 14 2025 15:19:41 GMT-0500 (Central Daylight Time),441465.39999997616,A,p,I,p,579,1,599.5,440865.89999997616,8009,WL,B,9.0
4,17.74399995803833,learn,42256.00004196167,Thu Aug 14 2025 15:19:41 GMT-0500 (Central Daylight Time),441682.1999999881,A,pu,I,u,205,1,816.3000000119209,440865.89999997616,8009,WL,B,9.0
4,18.009999990463257,learn,41990.00000953674,Thu Aug 14 2025 15:19:41 GMT-0500 (Central Daylight Time),441948.39999997616,A,pup,I,p,252,1,1082.5,440865.89999997616,8009,WL,B,9.0
4,18.16100001335144,learn,41838.99998664856,Thu Aug 14 2025 15:19:41 GMT-0500 (Central Daylight Time),442098.59999996424,A,pupi,I,i,130,1,1232.699999988079,440865.89999997616,8009,WL,B,9.0
4,18.344000101089478,learn,41655.99989891052,Thu Aug 14 2025 15:19:41 GMT-0500 (Central Daylight Time),442281.89999997616,A,pupil,I,l,171,1,1416.0,440865.89999997616,8009,WL,B,9.0
4,18.5770001411438,learn,41422.9998588562,Thu Aug 14 2025 15:19:41 GMT-0500 (Central Daylight Time),442515.1999999881,A,pupilenter,I,enter,221,1,1649.300000011921,440865.89999997616,8009,WL,B,9.0
4,20.97699999809265,learn,39023.00000190735,Thu Aug 14 2025 15:19:41 GMT-0500 (Central Daylight Time),444914.59999996424,A,c,I,c,2394,1,2399.0,442515.59999996424,8009,WL,B,10.0
4,21.14300012588501,learn,38856.99987411499,Thu Aug 14 2025 15:19:41 GMT-0500 (Central Daylight Time),445081.09999996424,A,ca,I,a,156,1,2565.5,442515.59999996424,8009,WL,B,10.0
4,21.443000078201294,learn,38556.999921798706,Thu Aug 14 2025 15:19:41 GMT-0500 (Central Daylight Time),445380.8000000119,A,cab,I,b,286,1,2865.2000000476837,442515.59999996424,8009,WL,B,10.0
4,21.743000030517578,learn,38256.99996948242,Thu Aug 14 2025 15:19:41 GMT-0500 (Central Daylight Time),445680.89999997616,A,cabi,I,i,289,1,3165.300000011921,442515.59999996424,8009,WL,B,10.0
4,21.943000078201294,learn,38056.999921798706,Thu Aug 14 2025 15:19:41 GMT-0500 (Central Daylight Time),445880.8000000119,A,cabin,I,n,181,1,3365.2000000476837,442515.59999996424,8009,WL,B,10.0
4,22.37600016593933,learn,37623.99983406067,Thu Aug 14 2025 15:19:41 GMT-0500 (Central Daylight Time),446314.0,A,cabinenter,I,enter,429,1,3798.400000035763,442515.59999996424,8009,WL,B,10.0
4,22.943000078201294,learn,37056.999921798706,Thu Aug 14 2025 15:19:41 GMT-0500 (Central Daylight Time),446880.59999996424,A,l,I,l,557,1,566.2999999523163,446314.3000000119,8009,WL,B,11.0
4,23.075999975204468,learn,36924.00002479553,Thu Aug 14 2025 15:19:41 GMT-0500 (Central Daylight Time),447013.6999999881,A,la,I,a,125,1,699.3999999761581,446314.3000000119,8009,WL,B,11.0
4,23.192000150680542,learn,36807.99984931946,Thu Aug 14 2025 15:19:41 GMT-0500 (Central Daylight Time),447130.3000000119,A,lak,I,k,112,1,816.0,446314.3000000119,8009,WL,B,11.0
4,23.37600016593933,learn,36623.99983406067,Thu Aug 14 2025 15:19:41 GMT-0500 (Central Daylight Time),447313.8000000119,A,lake,I,e,164,1,999.5,446314.3000000119,8009,WL,B,11.0
4,23.54200005531311,learn,36457.99994468689,Thu Aug 14 2025 15:19:41 GMT-0500 (Central Daylight Time),447480.09999996424,A,lakeenter,I,enter,148,1,1165.7999999523163,446314.3000000119,8009,WL,B,11.0
4,24.725000143051147,learn,35274.99985694885,Thu Aug 14 2025 15:19:41 GMT-0500 (Central Daylight Time),448663.1999999881,A,p,I,p,1166,1,1182.800000011921,447480.39999997616,8009,WL,B,12.0
4,24.924999952316284,learn,35075.000047683716,Thu Aug 14 2025 15:19:41 GMT-0500 (Central Daylight Time),448863.09999996424,A,pi,I,i,183,1,1382.699999988079,447480.39999997616,8009,WL,B,12.0
4,25.225000143051147,learn,34774.99985694885,Thu Aug 14 2025 15:19:41 GMT-0500 (Central Daylight Time),449163.09999996424,A,pip,I,p,295,1,1682.699999988079,447480.39999997616,8009,WL,B,12.0
4,25.424999952316284,learn,34575.000047683716,Thu Aug 14 2025 15:19:41 GMT-0500 (Central Daylight Time),449363.0,A,pipe,I,e,196,1,1882.6000000238419,447480.39999997616,8009,WL,B,12.0
4,25.77500009536743,learn,34224.99990463257,Thu Aug 14 2025 15:19:41 GMT-0500 (Central Daylight Time),449713.0,A,pipeenter,I,enter,339,1,2232.600000023842,447480.39999997616,8009,WL,B,12.0
4,27.624000072479248,learn,32375.999927520752,Thu Aug 14 2025 15:19:41 GMT-0500 (Central Daylight Time),451562.1999999881,A,f,I,f,1829,1,1848.8999999761581,449713.3000000119,8009,WL,B,13.0
4,27.77400016784668,learn,32225.99983215332,Thu Aug 14 2025 15:19:41 GMT-0500 (Central Daylight Time),451712.3000000119,A,fi,I,i,140,1,1999.0,449713.3000000119,8009,WL,B,13.0
4,27.874000072479248,learn,32125.999927520752,Thu Aug 14 2025 15:19:41 GMT-0500 (Central Daylight Time),451812.09999996424,A,fir,I,r,94,1,2098.7999999523163,449713.3000000119,8009,WL,B,13.0
4,28.074000120162964,learn,31925.999879837036,Thu Aug 14 2025 15:19:41 GMT-0500 (Central Daylight Time),452011.8000000119,A,fire,I,e,194,1,2298.5,449713.3000000119,8009,WL,B,13.0
4,28.174000024795532,learn,31825.999975204468,Thu Aug 14 2025 15:19:41 GMT-0500 (Central Daylight Time),452111.89999997616,A,fireenter,I,enter,89,1,2398.599999964237,449713.3000000119,8009,WL,B,13.0
4,28.624000072479248,learn,31375.999927520752,Thu Aug 14 2025 15:19:41 GMT-0500 (Central Daylight Time),452562.0,A,s,I,s,430,1,449.9000000357628,452112.09999996424,8009,WL,B,14.0
4,28.758000135421753,learn,31241.999864578247,Thu Aug 14 2025 15:19:41 GMT-0500 (Central Daylight Time),452695.39999997616,A,sk,I,k,116,1,583.3000000119209,452112.09999996424,8009,WL,B,14.0
4,28.94099998474121,learn,31059.00001525879,Thu Aug 14 2025 15:19:41 GMT-0500 (Central Daylight Time),452878.6999999881,A,ski,I,i,174,1,766.6000000238419,452112.09999996424,8009,WL,B,14.0
4,29.04100012779236,learn,30958.99987220764,Thu Aug 14 2025 15:19:41 GMT-0500 (Central Daylight Time),452978.59999996424,A,skin,I,n,87,1,866.5,452112.09999996424,8009,WL,B,14.0
4,29.289999961853027,learn,30710.000038146973,Thu Aug 14 2025 15:19:41 GMT-0500 (Central Daylight Time),453228.3000000119,A,skinenter,I,enter,243,1,1116.2000000476837,452112.09999996424,8009,WL,B,14.0
4,29.574000120162964,learn,30425.999879837036,Thu Aug 14 2025 15:19:41 GMT-0500 (Central Daylight Time),453511.59999996424,A,c,I,c,273,1,283.0,453228.59999996424,8009,WL,B,15.0
4,29.707000017166138,learn,30292.999982833862,Thu Aug 14 2025 15:19:41 GMT-0500 (Central Daylight Time),453644.89999997616,A,cl,I,l,119,1,416.30000001192093,453228.59999996424,8009,WL,B,15.0
4,29.874000072479248,learn,30125.999927520752,Thu Aug 14 2025 15:19:41 GMT-0500 (Central Daylight Time),453811.6999999881,A,clo,I,o,153,1,583.1000000238419,453228.59999996424,8009,WL,B,15.0
4,30.02400016784668,learn,29975.99983215332,Thu Aug 14 2025 15:19:41 GMT-0500 (Central Daylight Time),453961.8000000119,A,cloc,I,c,130,1,733.2000000476837,453228.59999996424,8009,WL,B,15.0
4,30.157000064849854,learn,29842.999935150146,Thu Aug 14 2025 15:19:41 GMT-0500 (Central Daylight Time),454095.0,A,clock,I,k,125,1,866.4000000357628,453228.59999996424,8009,WL,B,15.0
4,30.390000104904175,learn,29609.999895095825,Thu Aug 14 2025 15:19:41 GMT-0500 (Central Daylight Time),454328.09999996424,A,clockenter,I,enter,215,1,1099.5,453228.59999996424,8009,WL,B,15.0
5,0.4500000476837158,learn,60000.0,Thu Aug 14 2025 15:19:41 GMT-0500 (Central Daylight Time),519490.89999997616,A,s,I,s,445,1,449.39999997615814,519041.5,8009,WL,B,1.0
5,0.75,learn,60000.0,Thu Aug 14 2025 15:19:41 GMT-0500 (Central Daylight Time),519791.0,A,st,I,t,282,1,749.5,519041.5,8009,WL,B,1.0
5,0.8500001430511475,learn,60000.0,Thu Aug 14 2025 15:19:41 GMT-0500 (Central Daylight Time),519890.89999997616,A,str,I,r,86,1,849.3999999761581,519041.5,8009,WL,B,1.0
5,1.0169999599456787,learn,60000.0,Thu Aug 14 2025 15:19:41 GMT-0500 (Central Daylight Time),520057.59999996424,A,stre,I,e,147,1,1016.0999999642372,519041.5,8009,WL,B,1.0
5,1.1670000553131104,learn,60000.0,Thu Aug 14 2025 15:19:41 GMT-0500 (Central Daylight Time),520207.39999997616,A,stree,I,e,140,1,1165.8999999761581,519041.5,8009,WL,B,1.0
5,1.317000150680542,learn,60000.0,Thu Aug 14 2025 15:19:41 GMT-0500 (Central Daylight Time),520357.39999997616,A,street,I,t,134,1,1315.8999999761581,519041.5,8009,WL,B,1.0
5,1.5329999923706055,learn,60000.0,Thu Aug 14 2025 15:19:41 GMT-0500 (Central Daylight Time),520574.0,A,streetenter,I,enter,209,1,1532.5,519041.5,8009,WL,B,1.0
5,2.0329999923706055,learn,60000.0,Thu Aug 14 2025 15:19:41 GMT-0500 (Central Daylight Time),521074.09999996424,A,g,I,g,496,1,499.7999999523163,520574.3000000119,8009,WL,B,2.0
5,2.1660001277923584,learn,60000.0,Thu Aug 14 2025 15:19:41 GMT-0500 (Central Daylight Time),521207.3000000119,A,gr,I,r,116,1,633.0,520574.3000000119,8009,WL,B,2.0
5,2.4160001277923584,learn,60000.0,Thu Aug 14 2025 15:19:41 GMT-0500 (Central Daylight Time),521456.89999997616,A,gra,I,a,230,1,882.5999999642372,520574.3000000119,8009,WL,B,2.0
5,2.616000175476074,learn,60000.0,Thu Aug 14 2025 15:19:41 GMT-0500 (Central Daylight Time),521657.0,A,gras,I,s,190,1,1082.699999988079,520574.3000000119,8009,WL,B,2.0
5,2.7990000247955322,learn,60000.0,Thu Aug 14 2025 15:19:41 GMT-0500 (Central Daylight Time),521840.39999997616,A,grass,I,s,165,1,1266.0999999642372,520574.3000000119,8009,WL,B,2.0
5,3.0160000324249268,learn,60000.0,Thu Aug 14 2025 15:19:41 GMT-0500 (Central Daylight Time),522057.09999996424,A,grassenter,I,enter,197,1,1482.7999999523163,520574.3000000119,8009,WL,B,2.0
5,3.683000087738037,learn,60000.0,Thu Aug 14 2025 15:19:41 GMT-0500 (Central Daylight Time),522723.39999997616,A,d,I,d,654,1,666.0,522057.39999997616,8009,WL,B,3.0
5,3.866000175476074,learn,60000.0,Thu Aug 14 2025 15:19:41 GMT-0500 (Central Daylight Time),522906.6999999881,A,do,I,o,163,1,849.3000000119209,522057.39999997616,8009,WL,B,3.0
5,4.016000032424927,learn,60000.0,Thu Aug 14 2025 15:19:41 GMT-0500 (Central Daylight Time),523056.5,A,doo,I,o,131,1,999.1000000238419,522057.39999997616,8009,WL,B,3.0
5,4.116000175476074,learn,60000.0,Thu Aug 14 2025 15:19:41 GMT-0500 (Central Daylight Time),523156.59999996424,A,door,I,r,86,1,1099.199999988079,522057.39999997616,8009,WL,B,3.0
5,4.299000024795532,learn,60000.0,Thu Aug 14 2025 15:19:41 GMT-0500 (Central Daylight Time),523340.09999996424,A,doorenter,I,enter,169,1,1282.699999988079,522057.39999997616,8009,WL,B,3.0
5,4.89900016784668,learn,60000.0,Thu Aug 14 2025 15:19:41 GMT-0500 (Central Daylight Time),523939.59999996424,A,a,I,a,586,1,599.0999999642372,523340.5,8009,WL,B,4.0
5,5.082000017166138,learn,60000.0,Thu Aug 14 2025 15:19:41 GMT-0500 (Central Daylight Time),524122.6999999881,A,ar,I,r,178,1,782.1999999880791,523340.5,8009,WL,B,4.0
5,5.265000104904175,learn,60000.0,Thu Aug 14 2025 15:19:41 GMT-0500 (Central Daylight Time),524306.1999999881,A,arm,I,m,163,1,965.6999999880791,523340.5,8009,WL,B,4.0
5,5.465000152587891,learn,60000.0,Thu Aug 14 2025 15:19:41 GMT-0500 (Central Daylight Time),524506.0999999642,A,armenter,I,enter,179,1,1165.5999999642372,523340.5,8009,WL,B,4.0
5,6.8480000495910645,learn,60000.0,Thu Aug 14 2025 15:19:41 GMT-0500 (Central Daylight Time),525888.8000000119,A,s,I,s,1363,1,1382.300000011921,524506.5,8009,WL,B,5.0
5,7.115000009536743,learn,60000.0,Thu Aug 14 2025 15:19:41 GMT-0500 (Central Daylight Time),526155.5999999642,A,st,I,t,252,1,1649.0999999642372,524506.5,8009,WL,B,5.0
5,7.281000137329102,learn,60000.0,Thu Aug 14 2025 15:19:41 GMT-0500 (Central Daylight Time),526322.3000000119,A,sta,I,a,146,1,1815.800000011921,524506.5,8009,WL,B,5.0
5,7.365000009536743,learn,60000.0,Thu Aug 14 2025 15:19:41 GMT-0500 (Central Daylight Time),526405.6999999881,A,star,I,r,67,1,1899.199999988079,524506.5,8009,WL,B,5.0
5,7.615000009536743,learn,60000.0,Thu Aug 14 2025 15:19:41 GMT-0500 (Central Daylight Time),526655.3000000119,A,starenter,I,enter,232,1,2148.800000011921,524506.5,8009,WL,B,5.0
5,8.064000129699707,learn,60000.0,Thu Aug 14 2025 15:19:41 GMT-0500 (Central Daylight Time),527105.1999999881,A,w,I,w,438,1,449.5,526655.6999999881,8009,WL,B,6.0
5,8.248000144958496,learn,60000.0,Thu Aug 14 2025 15:19:41 GMT-0500 (Central Daylight Time),527288.6999999881,A,wi,I,i,173,1,633.0,526655.6999999881,8009,WL,B,6.0
5,8.447999954223633,learn,60000.0,Thu Aug 14 2025 15:19:41 GMT-0500 (Central Daylight Time),527488.5,A,wif,I,f,189,1,832.8000000119209,526655.6999999881,8009,WL,B,6.0
5,8.598000049591064,learn,60000.0,Thu Aug 14 2025 15:19:41 GMT-0500 (Central Daylight Time),527638.5999999642,A,wife,I,e,134,1,982.8999999761581,526655.6999999881,8009,WL,B,6.0
5,8.731000185012817,learn,60000.0,Thu Aug 14 2025 15:19:41 GMT-0500 (Central Daylight Time),527771.3000000119,A,wifeenter,I,enter,127,1,1115.6000000238419,526655.6999999881,8009,WL,B,6.0
5,8.914000034332275,learn,60000.0,Thu Aug 14 2025 15:19:41 GMT-0500 (Central Daylight Time),527955.0,A,w,I,w,170,1,183.4000000357628,527771.5999999642,8009,WL,B,7.0
5,9.064000129699707,learn,60000.0,Thu Aug 14 2025 15:19:41 GMT-0500 (Central Daylight Time),528105.0999999642,A,wi,I,i,131,1,333.5,527771.5999999642,8009,WL,B,7.0
5,9.148000001907349,learn,60000.0,Thu Aug 14 2025 15:19:41 GMT-0500 (Central Daylight Time),528188.5,A,win,I,n,69,1,416.9000000357628,527771.5999999642,8009,WL,B,7.0
5,9.297000169754028,learn,60000.0,Thu Aug 14 2025 15:19:41 GMT-0500 (Central Daylight Time),528338.1999999881,A,wind,I,d,137,1,566.6000000238419,527771.5999999642,8009,WL,B,7.0
5,9.46500015258789,learn,60000.0,Thu Aug 14 2025 15:19:41 GMT-0500 (Central Daylight Time),528505.8000000119,A,windo,I,o,147,1,734.2000000476837,527771.5999999642,8009,WL,B,7.0
5,9.614000082015991,learn,60000.0,Thu Aug 14 2025 15:19:41 GMT-0500 (Central Daylight Time),528655.0,A,window,I,w,132,1,883.4000000357628,527771.5999999642,8009,WL,B,7.0
5,9.897000074386597,learn,60000.0,Thu Aug 14 2025 15:19:41 GMT-0500 (Central Daylight Time),528937.8999999762,A,windowenter,I,enter,263,1,1166.300000011921,527771.5999999642,8009,WL,B,7.0
5,12.148000001907349,learn,60000.0,Thu Aug 14 2025 15:19:41 GMT-0500 (Central Daylight Time),531188.6999999881,A,c,I,c,2236,1,2250.5,528938.1999999881,8009,WL,B,8.0
5,12.27999997138977,learn,60000.0,Thu Aug 14 2025 15:19:41 GMT-0500 (Central Daylight Time),531320.6999999881,A,ci,I,i,121,1,2382.5,528938.1999999881,8009,WL,B,8.0
5,12.44700002670288,learn,60000.0,Thu Aug 14 2025 15:19:41 GMT-0500 (Central Daylight Time),531487.3000000119,A,cit,I,t,149,1,2549.100000023842,528938.1999999881,8009,WL,B,8.0
5,12.52999997138977,learn,60000.0,Thu Aug 14 2025 15:19:41 GMT-0500 (Central Daylight Time),531570.3999999762,A,city,I,y,71,1,2632.199999988079,528938.1999999881,8009,WL,B,8.0
5,12.746000051498413,learn,60000.0,Thu Aug 14 2025 15:19:41 GMT-0500 (Central Daylight Time),531787.0999999642,A,cityenter,I,enter,196,1,2848.899999976158,528938.1999999881,8009,WL,B,8.0
5,13.246000051498413,learn,60000.0,Thu Aug 14 2025 15:19:41 GMT-0500 (Central Daylight Time),532287.0999999642,A,p,I,p,491,1,499.5999999642372,531787.5,8009,WL,B,9.0
5,13.463000059127808,learn,60000.0,Thu Aug 14 2025 15:19:41 GMT-0500 (Central Daylight Time),532503.6999999881,A,pu,I,u,199,1,716.1999999880791,531787.5,8009,WL,B,9.0
5,13.746000051498413,learn,60000.0,Thu Aug 14 2025 15:19:41 GMT-0500 (Central Daylight Time),532786.5999999642,A,pup,I,p,263,1,999.0999999642372,531787.5,8009,WL,B,9.0
5,14.095999956130981,learn,60000.0,Thu Aug 14 2025 15:19:41 GMT-0500 (Central Daylight Time),533136.8000000119,A,pupi,I,i,339,1,1349.300000011921,531787.5,8009,WL,B,9.0
5,14.279000043869019,learn,60000.0,Thu Aug 14 2025 15:19:41 GMT-0500 (Central Daylight Time),533320.0999999642,A,pupil,I,l,173,1,1532.5999999642372,531787.5,8009,WL,B,9.0
5,14.496000051498413,learn,60000.0,Thu Aug 14 2025 15:19:41 GMT-0500 (Central Daylight Time),533536.5999999642,A,pupilenter,I,enter,198,1,1749.0999999642372,531787.5,8009,WL,B,9.0
5,14.828999996185303,learn,60000.0,Thu Aug 14 2025 15:19:41 GMT-0500 (Central Daylight Time),533869.8000000119,A,c,I,c,317,1,332.9000000357628,533536.8999999762,8009,WL,B,10.0
5,15.046000003814697,learn,60000.0,Thu Aug 14 2025 15:19:41 GMT-0500 (Central Daylight Time),534086.3999999762,A,ca,I,a,208,1,549.5,533536.8999999762,8009,WL,B,10.0
5,15.146000146865845,learn,60000.0,Thu Aug 14 2025 15:19:41 GMT-0500 (Central Daylight Time),534186.5999999642,A,cab,I,b,88,1,649.6999999880791,533536.8999999762,8009,WL,B,10.0
5,15.312000036239624,learn,60000.0,Thu Aug 14 2025 15:19:41 GMT-0500 (Central Daylight Time),534353.0999999642,A,cabi,I,i,156,1,816.1999999880791,533536.8999999762,8009,WL,B,10.0
5,15.379000186920166,learn,60000.0,Thu Aug 14 2025 15:19:41 GMT-0500 (Central Daylight Time),534419.3000000119,A,cabin,I,n,60,1,882.4000000357628,533536.8999999762,8009,WL,B,10.0
5,15.545000076293945,learn,60000.0,Thu Aug 14 2025 15:19:41 GMT-0500 (Central Daylight Time),534586.1999999881,A,cabinenter,I,enter,155,1,1049.300000011921,533536.8999999762,8009,WL,B,10.0
5,15.76200008392334,learn,60000.0,Thu Aug 14 2025 15:19:41 GMT-0500 (Central Daylight Time),534802.8999999762,A,l,I,l,204,1,216.30000001192093,534586.5999999642,8009,WL,B,11.0
5,15.845999956130981,learn,60000.0,Thu Aug 14 2025 15:19:41 GMT-0500 (Central Daylight Time),534887.0999999642,A,la,I,a,76,1,300.5,534586.5999999642,8009,WL,B,11.0
5,15.979000091552734,learn,60000.0,Thu Aug 14 2025 15:19:41 GMT-0500 (Central Daylight Time),535019.3999999762,A,lak,I,k,118,1,432.80000001192093,534586.5999999642,8009,WL,B,11.0
5,16.062000036239624,learn,60000.0,Thu Aug 14 2025 15:19:41 GMT-0500 (Central Daylight Time),535102.8000000119,A,lake,I,e,74,1,516.2000000476837,534586.5999999642,8009,WL,B,11.0
5,16.228000164031982,learn,60000.0,Thu Aug 14 2025 15:19:41 GMT-0500 (Central Daylight Time),535269.1999999881,A,lakeenter,I,enter,159,1,682.6000000238419,534586.5999999642,8009,WL,B,11.0
5,17.394999980926514,learn,60000.0,Thu Aug 14 2025 15:19:41 GMT-0500 (Central Daylight Time),536435.8000000119,A,p,I,p,1153,1,1166.300000011921,535269.5,8009,WL,B,12.0
5,17.562000036239624,learn,60000.0,Thu Aug 14 2025 15:19:41 GMT-0500 (Central Daylight Time),536602.3999999762,A,pi,I,i,146,1,1332.8999999761581,535269.5,8009,WL,B,12.0
5,17.712000131607056,learn,60000.0,Thu Aug 14 2025 15:19:41 GMT-0500 (Central Daylight Time),536752.5999999642,A,pip,I,p,139,1,1483.0999999642372,535269.5,8009,WL,B,12.0
5,17.978000164031982,learn,60000.0,Thu Aug 14 2025 15:19:41 GMT-0500 (Central Daylight Time),537019.0999999642,A,pipe,I,e,254,1,1749.5999999642372,535269.5,8009,WL,B,12.0
5,18.89400005340576,learn,60000.0,Thu Aug 14 2025 15:19:41 GMT-0500 (Central Daylight Time),537935.5999999642,A,pipeenter,I,enter,765,1,2666.099999964237,535269.5,8009,WL,B,12.0
5,19.41000008583069,learn,60000.0,Thu Aug 14 2025 15:19:41 GMT-0500 (Central Daylight Time),538451.8000000119,A,s,I,s,502,1,516.0,537935.8000000119,8009,WL,B,13.0
5,19.526000022888184,learn,60000.0,Thu Aug 14 2025 15:19:41 GMT-0500 (Central Daylight Time),538568.1999999881,A,sk,I,k,106,1,632.3999999761581,537935.8000000119,8009,WL,B,13.0
5,19.693000078201294,learn,60000.0,Thu Aug 14 2025 15:19:41 GMT-0500 (Central Daylight Time),538734.8999999762,A,ski,I,i,158,1,799.0999999642372,537935.8000000119,8009,WL,B,13.0
5,19.825999975204468,learn,60000.0,Thu Aug 14 2025 15:19:41 GMT-0500 (Central Daylight Time),538868.0999999642,A,skin,I,n,120,1,932.2999999523163,537935.8000000119,8009,WL,B,13.0
5,20.075999975204468,learn,60000.0,Thu Aug 14 2025 15:19:41 GMT-0500 (Central Daylight Time),539118.0999999642,A,skinenter,I,enter,234,1,1182.2999999523163,537935.8000000119,8009,WL,B,13.0
5,20.693000078201294,learn,60000.0,Thu Aug 14 2025 15:19:41 GMT-0500 (Central Daylight Time),539734.6999999881,A,f,I,f,607,1,616.1999999880791,539118.5,8009,WL,B,14.0
5,20.858999967575073,learn,60000.0,Thu Aug 14 2025 15:19:41 GMT-0500 (Central Daylight Time),539901.1999999881,A,fi,I,i,152,1,782.6999999880791,539118.5,8009,WL,B,14.0
5,20.909000158309937,learn,60000.0,Thu Aug 14 2025 15:19:41 GMT-0500 (Central Daylight Time),539951.1999999881,A,fir,I,r,40,1,832.6999999880791,539118.5,8009,WL,B,14.0
5,21.12600016593933,learn,60000.0,Thu Aug 14 2025 15:19:41 GMT-0500 (Central Daylight Time),540168.1999999881,A,fire,I,e,200,1,1049.699999988079,539118.5,8009,WL,B,14.0
5,21.30900001525879,learn,60000.0,Thu Aug 14 2025 15:19:41 GMT-0500 (Central Daylight Time),540351.0999999642,A,fireenter,I,enter,166,1,1232.5999999642372,539118.5,8009,WL,B,14.0
5,22.358999967575073,learn,60000.0,Thu Aug 14 2025 15:19:41 GMT-0500 (Central Daylight Time),541400.8000000119,A,c,I,c,1030,1,1049.300000011921,540351.5,8009,WL,B,15.0
5,22.45900011062622,learn,60000.0,Thu Aug 14 2025 15:19:41 GMT-0500 (Central Daylight Time),541501.0,A,cl,I,l,86,1,1149.5,540351.5,8009,WL,B,15.0
5,22.608999967575073,learn,60000.0,Thu Aug 14 2025 15:19:41 GMT-0500 (Central Daylight Time),541650.8999999762,A,clo,I,o,138,1,1299.3999999761581,540351.5,8009,WL,B,15.0
5,22.70900011062622,learn,60000.0,Thu Aug 14 2025 15:19:41 GMT-0500 (Central Daylight Time),541750.8999999762,A,cloc,I,c,83,1,1399.3999999761581,540351.5,8009,WL,B,15.0
5,22.80900001525879,learn,60000.0,Thu Aug 14 2025 15:19:41 GMT-0500 (Central Daylight Time),541850.3999999762,A,clock,I,k,94,1,1498.8999999761581,540351.5,8009,WL,B,15.0
5,23.108999967575073,learn,60000.0,Thu Aug 14 2025 15:19:41 GMT-0500 (Central Daylight Time),542150.6999999881,A,clockenter,I,enter,283,1,1799.199999988079,540351.5,8009,WL,B,15.0
6,0.7130000591278076,distr,59286.99994087219,Thu Aug 14 2025 15:19:41 GMT-0500 (Central Daylight Time),608659.8000000119,B,b,I,b,709,1,713.5,607946.3000000119,8009,WL,B,1.0
6,0.7829999923706055,distr,59217.000007629395,Thu Aug 14 2025 15:19:41 GMT-0500 (Central Daylight Time),608729.5,B,ba,I,a,48,1,783.1999999880791,607946.3000000119,8009,WL,B,1.0
6,0.8500001430511475,distr,59149.99985694885,Thu Aug 14 2025 15:19:41 GMT-0500 (Central Daylight Time),608796.3000000119,B,bab,I,b,53,1,850.0,607946.3000000119,8009,WL,B,1.0
6,0.9830000400543213,distr,59016.99995994568,Thu Aug 14 2025 15:19:41 GMT-0500 (Central Daylight Time),608929.5,B,baby,I,y,122,1,983.1999999880791,607946.3000000119,8009,WL,B,1.0
6,1.2160000801086426,distr,58783.99991989136,Thu Aug 14 2025 15:19:41 GMT-0500 (Central Daylight Time),609163.0999999642,B,babyenter,I,enter,220,1,1216.7999999523163,607946.3000000119,8009,WL,B,1.0
6,1.749000072479248,distr,58250.99992752075,Thu Aug 14 2025 15:19:41 GMT-0500 (Central Daylight Time),609696.0,B,o,I,o,523,1,532.6000000238419,609163.3999999762,8009,WL,B,2.0
6,1.8329999446868896,distr,58167.00005531311,Thu Aug 14 2025 15:19:41 GMT-0500 (Central Daylight Time),609779.5,B,oc,I,c,70,1,616.1000000238419,609163.3999999762,8009,WL,B,2.0
6,1.999000072479248,distr,58000.99992752075,Thu Aug 14 2025 15:19:41 GMT-0500 (Central Daylight Time),609946.0,B,oce,I,e,146,1,782.6000000238419,609163.3999999762,8009,WL,B,2.0
6,2.1660001277923584,distr,57833.99987220764,Thu Aug 14 2025 15:19:41 GMT-0500 (Central Daylight Time),610112.5,B,ocea,I,a,147,1,949.1000000238419,609163.3999999762,8009,WL,B,2.0
6,2.3329999446868896,distr,57667.00005531311,Thu Aug 14 2025 15:19:41 GMT-0500 (Central Daylight Time),610279.3000000119,B,ocean,I,n,149,1,1115.9000000357628,609163.3999999762,8009,WL,B,2.0
6,2.5820000171661377,distr,57417.99998283386,Thu Aug 14 2025 15:19:41 GMT-0500 (Central Daylight Time),610529.0999999642,B,oceanenter,I,enter,230,1,1365.699999988079,609163.3999999762,8009,WL,B,2.0
6,4.065000057220459,distr,55934.99994277954,Thu Aug 14 2025 15:19:41 GMT-0500 (Central Daylight Time),612012.0999999642,B,s,I,s,1468,1,1482.5999999642372,610529.5,8009,WL,B,3.0
6,4.315000057220459,distr,55684.99994277954,Thu Aug 14 2025 15:19:41 GMT-0500 (Central Daylight Time),612261.8999999762,B,st,I,t,234,1,1732.3999999761581,610529.5,8009,WL,B,3.0
6,4.565000057220459,distr,55434.99994277954,Thu Aug 14 2025 15:19:41 GMT-0500 (Central Daylight Time),612511.8999999762,B,ste,I,e,233,1,1982.3999999761581,610529.5,8009,WL,B,3.0
6,4.7149999141693115,distr,55285.00008583069,Thu Aug 14 2025 15:19:41 GMT-0500 (Central Daylight Time),612661.6999999881,B,stea,I,a,142,1,2132.199999988079,610529.5,8009,WL,B,3.0
6,4.914999961853027,distr,55085.00003814697,Thu Aug 14 2025 15:19:41 GMT-0500 (Central Daylight Time),612861.6999999881,B,steam,I,m,185,1,2332.199999988079,610529.5,8009,WL,B,3.0
6,5.2149999141693115,distr,54785.00008583069,Thu Aug 14 2025 15:19:41 GMT-0500 (Central Daylight Time),613161.8000000119,B,steamenter,I,enter,289,1,2632.300000011921,610529.5,8009,WL,B,3.0
6,5.748000144958496,distr,54251.999855041504,Thu Aug 14 2025 15:19:41 GMT-0500 (Central Daylight Time),613694.5999999642,B,d,I,d,516,1,532.5,613162.0999999642,8009,WL,B,4.0
6,5.998000144958496,distr,54001.999855041504,Thu Aug 14 2025 15:19:41 GMT-0500 (Central Daylight Time),613944.8000000119,B,dr,I,r,231,1,782.7000000476837,613162.0999999642,8009,WL,B,4.0
6,6.081000089645386,distr,53918.999910354614,Thu Aug 14 2025 15:19:41 GMT-0500 (Central Daylight Time),614027.5999999642,B,dre,I,e,78,1,865.5,613162.0999999642,8009,WL,B,4.0
6,6.430999994277954,distr,53569.000005722046,Thu Aug 14 2025 15:19:41 GMT-0500 (Central Daylight Time),614378.0,B,dres,I,s,330,1,1215.9000000357628,613162.0999999642,8009,WL,B,4.0
6,6.648000001907349,distr,53351.99999809265,Thu Aug 14 2025 15:19:41 GMT-0500 (Central Daylight Time),614594.5,B,dress,I,s,196,1,1432.4000000357628,613162.0999999642,8009,WL,B,4.0
6,6.898000001907349,distr,53101.99999809265,Thu Aug 14 2025 15:19:41 GMT-0500 (Central Daylight Time),614844.5999999642,B,dressenter,I,enter,236,1,1682.5,613162.0999999642,8009,WL,B,4.0
6,7.664000034332275,distr,52335.999965667725,Thu Aug 14 2025 15:19:41 GMT-0500 (Central Daylight Time),615611.0,B,v,I,v,753,1,766.1999999880791,614844.8000000119,8009,WL,B,5.0
6,7.781000137329102,distr,52218.9998626709,Thu Aug 14 2025 15:19:41 GMT-0500 (Central Daylight Time),615727.5999999642,B,vi,I,i,107,1,882.7999999523163,614844.8000000119,8009,WL,B,5.0
6,7.947000026702881,distr,52052.99997329712,Thu Aug 14 2025 15:19:41 GMT-0500 (Central Daylight Time),615894.0,B,via,I,a,159,1,1049.199999988079,614844.8000000119,8009,WL,B,5.0
6,8.064000129699707,distr,51935.99987030029,Thu Aug 14 2025 15:19:41 GMT-0500 (Central Daylight Time),616010.6999999881,B,vial,I,l,104,1,1165.8999999761581,614844.8000000119,8009,WL,B,5.0
6,8.21399998664856,distr,51786.00001335144,Thu Aug 14 2025 15:19:41 GMT-0500 (Central Daylight Time),616160.5999999642,B,viall,I,l,131,1,1315.7999999523163,614844.8000000119,8009,WL,B,5.0
6,8.480999946594238,distr,51519.00005340576,Thu Aug 14 2025 15:19:41 GMT-0500 (Central Daylight Time),616427.0999999642,B,vialla,I,a,262,1,1582.2999999523163,614844.8000000119,8009,WL,B,5.0
6,8.614000082015991,distr,51385.99991798401,Thu Aug 14 2025 15:19:41 GMT-0500 (Central Daylight Time),616560.8000000119,B,viallag,I,g,124,1,1716.0,614844.8000000119,8009,WL,B,5.0
6,8.763999938964844,distr,51236.000061035156,Thu Aug 14 2025 15:19:41 GMT-0500 (Central Daylight Time),616710.6999999881,B,viallage,I,e,133,1,1865.8999999761581,614844.8000000119,8009,WL,B,5.0
6,9.04699993133545,distr,50953.00006866455,Thu Aug 14 2025 15:19:41 GMT-0500 (Central Daylight Time),616993.5999999642,B,viallag,I,backspace,262,1,2148.7999999523163,614844.8000000119,8009,WL,B,5.0
6,9.230000019073486,distr,50769.999980926514,Thu Aug 14 2025 15:19:41 GMT-0500 (Central Daylight Time),617177.1999999881,B,vialla,I,backspace,164,1,2332.399999976158,614844.8000000119,8009,WL,B,5.0
6,9.647000074386597,distr,50352.9999256134,Thu Aug 14 2025 15:19:41 GMT-0500 (Central Daylight Time),617593.5999999642,B,viall,I,backspace,405,1,2748.7999999523163,614844.8000000119,8009,WL,B,5.0
6,9.79699993133545,distr,50203.00006866455,Thu Aug 14 2025 15:19:41 GMT-0500 (Central Daylight Time),617743.5,B,vial,I,backspace,141,1,2898.699999988079,614844.8000000119,8009,WL,B,5.0
6,10.097000122070312,distr,49902.99987792969,Thu Aug 14 2025 15:19:41 GMT-0500 (Central Daylight Time),618043.3999999762,B,via,I,backspace,287,1,3198.599999964237,614844.8000000119,8009,WL,B,5.0
6,10.263999938964844,distr,49736.000061035156,Thu Aug 14 2025 15:19:41 GMT-0500 (Central Daylight Time),618210.0999999642,B,vi,I,backspace,162,1,3365.2999999523163,614844.8000000119,8009,WL,B,5.0
6,10.579999923706055,distr,49420.000076293945,Thu Aug 14 2025 15:19:41 GMT-0500 (Central Daylight Time),618526.5999999642,B,v,I,backspace,301,1,3681.7999999523163,614844.8000000119,8009,WL,B,5.0
6,10.79699993133545,distr,49203.00006866455,Thu Aug 14 2025 15:19:41 GMT-0500 (Central Daylight Time),618743.3999999762,B,,I,backspace,199,1,3898.599999964237,614844.8000000119,8009,WL,B,5.0
6,11.296000003814697,distr,48703.9999961853,Thu Aug 14 2025 15:19:41 GMT-0500 (Central Daylight Time),619243.0,B,r,I,r,486,1,4398.199999988079,614844.8000000119,8009,WL,B,5.0
6,11.480000019073486,distr,48519.999980926514,Thu Aug 14 2025 15:19:41 GMT-0500 (Central Daylight Time),619426.3999999762,B,ro,I,o,163,1,4581.599999964237,614844.8000000119,8009,WL,B,5.0
6,11.645999908447266,distr,48354.000091552734,Thu Aug 14 2025 15:19:41 GMT-0500 (Central Daylight Time),619592.8000000119,B,roc,I,c,155,1,4748.0,614844.8000000119,8009,WL,B,5.0
6,11.763000011444092,distr,48236.99998855591,Thu Aug 14 2025 15:19:41 GMT-0500 (Central Daylight Time),619709.6999999881,B,rock,I,k,109,1,4864.899999976158,614844.8000000119,8009,WL,B,5.0
6,12.078999996185303,distr,47921.0000038147,Thu Aug 14 2025 15:19:41 GMT-0500 (Central Daylight Time),620026.0999999642,B,rockenter,I,enter,296,1,5181.299999952316,614844.8000000119,8009,WL,B,5.0
6,14.029000043869019,distr,45970.99995613098,Thu Aug 14 2025 15:19:41 GMT-0500 (Central Daylight Time),621975.5999999642,B,v,I,v,1941,1,1949.0999999642372,620026.5,8009,WL,B,6.0
6,14.194999933242798,distr,45805.0000667572,Thu Aug 14 2025 15:19:41 GMT-0500 (Central Daylight Time),622142.1999999881,B,vi,I,i,158,1,2115.699999988079,620026.5,8009,WL,B,6.0
6,14.361999988555908,distr,45638.00001144409,Thu Aug 14 2025 15:19:41 GMT-0500 (Central Daylight Time),622308.8000000119,B,via,I,a,161,1,2282.300000011921,620026.5,8009,WL,B,6.0
6,14.495000123977661,distr,45504.99987602234,Thu Aug 14 2025 15:19:41 GMT-0500 (Central Daylight Time),622442.0,B,vial,I,l,121,1,2415.5,620026.5,8009,WL,B,6.0
6,14.644999980926514,distr,45355.000019073486,Thu Aug 14 2025 15:19:41 GMT-0500 (Central Daylight Time),622591.8999999762,B,viall,I,l,140,1,2565.399999976158,620026.5,8009,WL,B,6.0
6,15.495000123977661,distr,44504.99987602234,Thu Aug 14 2025 15:19:41 GMT-0500 (Central Daylight Time),623441.5999999642,B,vial,I,backspace,838,1,3415.099999964237,620026.5,8009,WL,B,6.0
6,15.66100001335144,distr,44338.99998664856,Thu Aug 14 2025 15:19:41 GMT-0500 (Central Daylight Time),623608.0,B,via,I,backspace,156,1,3581.5,620026.5,8009,WL,B,6.0
6,15.812000036239624,distr,44187.999963760376,Thu Aug 14 2025 15:19:41 GMT-0500 (Central Daylight Time),623758.3000000119,B,vi,I,backspace,134,1,3731.800000011921,620026.5,8009,WL,B,6.0
6,16.028000116348267,distr,43971.99988365173,Thu Aug 14 2025 15:19:41 GMT-0500 (Central Daylight Time),623974.8999999762,B,vil,I,l,201,1,3948.399999976158,620026.5,8009,WL,B,6.0
6,16.17799997329712,distr,43822.00002670288,Thu Aug 14 2025 15:19:41 GMT-0500 (Central Daylight Time),624125.0999999642,B,vill,I,l,135,1,4098.599999964237,620026.5,8009,WL,B,6.0
6,16.26200008392334,distr,43737.99991607666,Thu Aug 14 2025 15:19:41 GMT-0500 (Central Daylight Time),624208.0999999642,B,villa,I,a,74,1,4181.599999964237,620026.5,8009,WL,B,6.0
6,16.411999940872192,distr,43588.00005912781,Thu Aug 14 2025 15:19:41 GMT-0500 (Central Daylight Time),624358.3000000119,B,villag,I,g,141,1,4331.800000011921,620026.5,8009,WL,B,6.0
6,16.528000116348267,distr,43471.99988365173,Thu Aug 14 2025 15:19:41 GMT-0500 (Central Daylight Time),624474.8000000119,B,village,I,e,103,1,4448.300000011921,620026.5,8009,WL,B,6.0
6,16.727999925613403,distr,43272.0000743866,Thu Aug 14 2025 15:19:41 GMT-0500 (Central Daylight Time),624674.5999999642,B,villageenter,I,enter,187,1,4648.099999964237,620026.5,8009,WL,B,6.0
6,16.894999980926514,distr,43105.000019073486,Thu Aug 14 2025 15:19:41 GMT-0500 (Central Daylight Time),624841.8000000119,B,a,I,a,156,1,166.80000001192093,624675.0,8009,WL,B,7.0
6,17.09599995613098,distr,42904.00004386902,Thu Aug 14 2025 15:19:41 GMT-0500 (Central Daylight Time),625042.5,B,ar,I,r,180,1,367.5,624675.0,8009,WL,B,7.0
6,18.444000005722046,distr,41555.999994277954,Thu Aug 14 2025 15:19:41 GMT-0500 (Central Daylight Time),626390.5999999642,B,arm,I,m,1338,1,1715.5999999642372,624675.0,8009,WL,B,7.0
6,18.677000045776367,distr,41322.99995422363,Thu Aug 14 2025 15:19:41 GMT-0500 (Central Daylight Time),626624.0999999642,B,army,I,y,224,1,1949.0999999642372,624675.0,8009,WL,B,7.0
6,19.14400005340576,distr,40855.99994659424,Thu Aug 14 2025 15:19:41 GMT-0500 (Central Daylight Time),627090.5999999642,B,armyenter,I,enter,454,1,2415.599999964237,624675.0,8009,WL,B,7.0
6,21.9760000705719,distr,38023.9999294281,Thu Aug 14 2025 15:19:41 GMT-0500 (Central Daylight Time),629923.0,B,r,I,r,2812,1,2832.100000023842,627090.8999999762,8009,WL,B,8.0
6,22.075999975204468,distr,37924.00002479553,Thu Aug 14 2025 15:19:41 GMT-0500 (Central Daylight Time),630023.0,B,ro,I,o,84,1,2932.100000023842,627090.8999999762,8009,WL,B,8.0
6,22.2260000705719,distr,37773.9999294281,Thu Aug 14 2025 15:19:41 GMT-0500 (Central Daylight Time),630173.0,B,roc,I,c,144,1,3082.100000023842,627090.8999999762,8009,WL,B,8.0
6,22.344000101089478,distr,37655.99989891052,Thu Aug 14 2025 15:19:41 GMT-0500 (Central Daylight Time),630290.3000000119,B,rock,I,k,97,1,3199.400000035763,627090.8999999762,8009,WL,B,8.0
6,22.55999994277954,distr,37440.00005722046,Thu Aug 14 2025 15:19:41 GMT-0500 (Central Daylight Time),630506.3000000119,B,rockenter,I,enter,211,1,3415.400000035763,627090.8999999762,8009,WL,B,8.0
6,22.825999975204468,distr,37174.00002479553,Thu Aug 14 2025 15:19:41 GMT-0500 (Central Daylight Time),630772.6999999881,B,s,I,s,259,1,266.10000002384186,630506.5999999642,8009,WL,B,9.0
6,23.042999982833862,distr,36957.00001716614,Thu Aug 14 2025 15:19:41 GMT-0500 (Central Daylight Time),630989.3999999762,B,st,I,t,209,1,482.80000001192093,630506.5999999642,8009,WL,B,9.0
6,23.193000078201294,distr,36806.999921798706,Thu Aug 14 2025 15:19:41 GMT-0500 (Central Daylight Time),631139.5999999642,B,sto,I,o,137,1,633.0,630506.5999999642,8009,WL,B,9.0
6,23.30900001525879,distr,36690.99998474121,Thu Aug 14 2025 15:19:41 GMT-0500 (Central Daylight Time),631256.0,B,stor,I,r,98,1,749.4000000357628,630506.5999999642,8009,WL,B,9.0
6,23.45900011062622,distr,36540.99988937378,Thu Aug 14 2025 15:19:41 GMT-0500 (Central Daylight Time),631405.8000000119,B,storm,I,m,134,1,899.2000000476837,630506.5999999642,8009,WL,B,9.0
6,23.792999982833862,distr,36207.00001716614,Thu Aug 14 2025 15:19:41 GMT-0500 (Central Daylight Time),631739.0999999642,B,stormenter,I,enter,329,1,1232.5,630506.5999999642,8009,WL,B,9.0
6,24.276000022888184,distr,35723.99997711182,Thu Aug 14 2025 15:19:41 GMT-0500 (Central Daylight Time),632222.1999999881,B,i,I,i,479,1,482.89999997615814,631739.3000000119,8009,WL,B,10.0
6,24.358999967575073,distr,35641.00003242493,Thu Aug 14 2025 15:19:41 GMT-0500 (Central Daylight Time),632305.5999999642,B,ie,I,e,63,1,566.2999999523163,631739.3000000119,8009,WL,B,10.0
6,24.4760000705719,distr,35523.9999294281,Thu Aug 14 2025 15:19:41 GMT-0500 (Central Daylight Time),632422.3999999762,B,ien,I,n,109,1,683.0999999642372,631739.3000000119,8009,WL,B,10.0
6,24.676000118255615,distr,35323.999881744385,Thu Aug 14 2025 15:19:41 GMT-0500 (Central Daylight Time),632622.1999999881,B,iend,I,d,183,1,882.8999999761581,631739.3000000119,8009,WL,B,10.0
6,25.64199995994568,distr,34358.00004005432,Thu Aug 14 2025 15:19:41 GMT-0500 (Central Daylight Time),633588.5999999642,B,ien,I,backspace,960,1,1849.2999999523163,631739.3000000119,8009,WL,B,10.0
6,25.79200005531311,distr,34207.99994468689,Thu Aug 14 2025 15:19:41 GMT-0500 (Central Daylight Time),633738.3999999762,B,ie,I,backspace,138,1,1999.0999999642372,631739.3000000119,8009,WL,B,10.0
6,25.941999912261963,distr,34058.00008773804,Thu Aug 14 2025 15:19:41 GMT-0500 (Central Daylight Time),633888.3999999762,B,i,I,backspace,140,1,2149.099999964237,631739.3000000119,8009,WL,B,10.0
6,26.092999935150146,distr,33907.00006484985,Thu Aug 14 2025 15:19:41 GMT-0500 (Central Daylight Time),634039.8999999762,B,,I,backspace,133,1,2300.599999964237,631739.3000000119,8009,WL,B,10.0
6,26.20799994468689,distr,33792.00005531311,Thu Aug 14 2025 15:19:41 GMT-0500 (Central Daylight Time),634154.6999999881,B,,I,backspace,110,1,2415.399999976158,631739.3000000119,8009,WL,B,10.0
6,26.758000135421753,distr,33241.99986457825,Thu Aug 14 2025 15:19:41 GMT-0500 (Central Daylight Time),634705.0,B,f,I,f,539,1,2965.699999988079,631739.3000000119,8009,WL,B,10.0
6,26.875,distr,33125.0,Thu Aug 14 2025 15:19:41 GMT-0500 (Central Daylight Time),634821.5,B,fr,I,r,110,1,3082.199999988079,631739.3000000119,8009,WL,B,10.0
6,27.008000135421753,distr,32991.99986457825,Thu Aug 14 2025 15:19:41 GMT-0500 (Central Daylight Time),634954.5,B,fri,I,i,128,1,3215.199999988079,631739.3000000119,8009,WL,B,10.0
6,27.125,distr,32875.0,Thu Aug 14 2025 15:19:41 GMT-0500 (Central Daylight Time),635071.3999999762,B,frie,I,e,107,1,3332.099999964237,631739.3000000119,8009,WL,B,10.0
6,27.20900011062622,distr,32790.99988937378,Thu Aug 14 2025 15:19:41 GMT-0500 (Central Daylight Time),635155.5,B,frien,I,n,78,1,3416.199999988079,631739.3000000119,8009,WL,B,10.0
6,27.374000072479248,distr,32625.999927520752,Thu Aug 14 2025 15:19:41 GMT-0500 (Central Daylight Time),635321.0999999642,B,friend,I,d,146,1,3581.7999999523163,631739.3000000119,8009,WL,B,10.0
6,27.674999952316284,distr,32325.000047683716,Thu Aug 14 2025 15:19:41 GMT-0500 (Central Daylight Time),635621.3999999762,B,friendenter,I,enter,284,1,3882.099999964237,631739.3000000119,8009,WL,B,10.0
6,35.17199993133545,distr,24828.00006866455,Thu Aug 14 2025 15:19:41 GMT-0500 (Central Daylight Time),643118.8999999762,B,enter,I,enter,7489,1,7497.099999964237,635621.8000000119,8009,WL,B,11.0
6,36.289000034332275,distr,23710.999965667725,Thu Aug 14 2025 15:19:41 GMT-0500 (Central Daylight Time),644235.3999999762,B,enter,I,enter,1096,1,1116.0999999642372,643119.3000000119,8009,WL,B,12.0
6,37.937999963760376,distr,22062.000036239624,Thu Aug 14 2025 15:19:41 GMT-0500 (Central Daylight Time),645884.5999999642,B,enter,I,enter,1634,1,1648.8999999761581,644235.6999999881,8009,WL,B,13.0
6,38.40499997138977,distr,21595.00002861023,Thu Aug 14 2025 15:19:41 GMT-0500 (Central Daylight Time),646351.1999999881,B,enter,I,enter,449,1,466.30000001192093,645884.8999999762,8009,WL,B,14.0
6,39.020999908447266,distr,20979.000091552734,Thu Aug 14 2025 15:19:41 GMT-0500 (Central Daylight Time),646967.6999999881,B,enter,I,enter,606,1,616.1999999880791,646351.5,8009,WL,B,15.0
7,0.9489998817443848,immed,59051.000118255615,Thu Aug 14 2025 15:19:41 GMT-0500 (Central Daylight Time),657981.0,A,s,I,s,936,1,949.6999999880791,657031.3000000119,8009,WL,B,1.0
7,1.2660000324249268,immed,58733.99996757507,Thu Aug 14 2025 15:19:41 GMT-0500 (Central Daylight Time),658297.6999999881,A,st,I,t,304,1,1266.3999999761581,657031.3000000119,8009,WL,B,1.0
7,1.3489999771118164,immed,58651.00002288818,Thu Aug 14 2025 15:19:41 GMT-0500 (Central Daylight Time),658380.5,A,str,I,r,76,1,1349.199999988079,657031.3000000119,8009,WL,B,1.0
7,1.565999984741211,immed,58434.00001525879,Thu Aug 14 2025 15:19:41 GMT-0500 (Central Daylight Time),658597.3000000119,A,stre,I,e,210,1,1566.0,657031.3000000119,8009,WL,B,1.0
7,1.7319998741149902,immed,58268.00012588501,Thu Aug 14 2025 15:19:41 GMT-0500 (Central Daylight Time),658763.8999999762,A,stree,I,e,153,1,1732.5999999642372,657031.3000000119,8009,WL,B,1.0
7,1.931999921798706,immed,58068.000078201294,Thu Aug 14 2025 15:19:41 GMT-0500 (Central Daylight Time),658963.8999999762,A,street,I,t,187,1,1932.5999999642372,657031.3000000119,8009,WL,B,1.0
7,2.4489998817443848,immed,57551.000118255615,Thu Aug 14 2025 15:19:41 GMT-0500 (Central Daylight Time),659480.3999999762,A,streetenter,I,enter,498,1,2449.099999964237,657031.3000000119,8009,WL,B,1.0
7,2.931999921798706,immed,57068.000078201294,Thu Aug 14 2025 15:19:41 GMT-0500 (Central Daylight Time),659963.5999999642,A,g,I,g,469,1,482.89999997615814,659480.6999999881,8009,WL,B,2.0
7,3.115000009536743,immed,56884.99999046326,Thu Aug 14 2025 15:19:41 GMT-0500 (Central Daylight Time),660146.8999999762,A,gr,I,r,162,1,666.1999999880791,659480.6999999881,8009,WL,B,2.0
7,3.3320000171661377,immed,56667.99998283386,Thu Aug 14 2025 15:19:41 GMT-0500 (Central Daylight Time),660363.1999999881,A,gre,I,e,211,1,882.5,659480.6999999881,8009,WL,B,2.0
7,3.697999954223633,immed,56302.00004577637,Thu Aug 14 2025 15:19:41 GMT-0500 (Central Daylight Time),660729.8999999762,A,gr,I,backspace,346,1,1249.199999988079,659480.6999999881,8009,WL,B,2.0
7,3.81499981880188,immed,56185.00018119812,Thu Aug 14 2025 15:19:41 GMT-0500 (Central Daylight Time),660846.5,A,gra,I,a,100,1,1365.800000011921,659480.6999999881,8009,WL,B,2.0
7,4.181999921798706,immed,55818.000078201294,Thu Aug 14 2025 15:19:41 GMT-0500 (Central Daylight Time),661213.3000000119,A,gras,I,s,359,1,1732.6000000238419,659480.6999999881,8009,WL,B,2.0
7,4.398000001907349,immed,55601.99999809265,Thu Aug 14 2025 15:19:41 GMT-0500 (Central Daylight Time),661429.8999999762,A,grass,I,s,199,1,1949.199999988079,659480.6999999881,8009,WL,B,2.0
7,4.531999826431274,immed,55468.000173568726,Thu Aug 14 2025 15:19:41 GMT-0500 (Central Daylight Time),661563.3000000119,A,grassenter,I,enter,120,1,2082.600000023842,659480.6999999881,8009,WL,B,2.0
7,5.398000001907349,immed,54601.99999809265,Thu Aug 14 2025 15:19:41 GMT-0500 (Central Daylight Time),662429.5,A,d,I,d,850,1,865.8000000119209,661563.6999999881,8009,WL,B,3.0
7,6.2809998989105225,immed,53719.00010108948,Thu Aug 14 2025 15:19:41 GMT-0500 (Central Daylight Time),663312.3999999762,A,do,I,o,873,1,1748.699999988079,661563.6999999881,8009,WL,B,3.0
7,6.430999994277954,immed,53569.000005722046,Thu Aug 14 2025 15:19:41 GMT-0500 (Central Daylight Time),663462.5999999642,A,doo,I,o,142,1,1898.8999999761581,661563.6999999881,8009,WL,B,3.0
7,6.563999891281128,immed,53436.00010871887,Thu Aug 14 2025 15:19:41 GMT-0500 (Central Daylight Time),663595.5999999642,A,door,I,r,120,1,2031.8999999761581,661563.6999999881,8009,WL,B,3.0
7,6.813999891281128,immed,53186.00010871887,Thu Aug 14 2025 15:19:41 GMT-0500 (Central Daylight Time),663846.0,A,doorenter,I,enter,242,1,2282.300000011921,661563.6999999881,8009,WL,B,3.0
7,8.27999997138977,immed,51720.00002861023,Thu Aug 14 2025 15:19:41 GMT-0500 (Central Daylight Time),665311.8999999762,A,a,I,a,1448,1,1465.5999999642372,663846.3000000119,8009,WL,B,4.0
7,8.52999997138977,immed,51470.00002861023,Thu Aug 14 2025 15:19:41 GMT-0500 (Central Daylight Time),665561.8999999762,A,ar,I,r,239,1,1715.5999999642372,663846.3000000119,8009,WL,B,4.0
7,8.730000019073486,immed,51269.999980926514,Thu Aug 14 2025 15:19:41 GMT-0500 (Central Daylight Time),665761.8000000119,A,arm,I,m,180,1,1915.5,663846.3000000119,8009,WL,B,4.0
7,9.179999828338623,immed,50820.00017166138,Thu Aug 14 2025 15:19:41 GMT-0500 (Central Daylight Time),666211.6999999881,A,armenter,I,enter,437,1,2365.399999976158,663846.3000000119,8009,WL,B,4.0
7,9.61299991607666,immed,50387.00008392334,Thu Aug 14 2025 15:19:41 GMT-0500 (Central Daylight Time),666644.8999999762,A,s,I,s,418,1,432.89999997615814,666212.0,8009,WL,B,5.0
7,9.86299991607666,immed,50137.00008392334,Thu Aug 14 2025 15:19:41 GMT-0500 (Central Daylight Time),666895.0,A,st,I,t,233,1,683.0,666212.0,8009,WL,B,5.0
7,10.013000011444092,immed,49986.99998855591,Thu Aug 14 2025 15:19:41 GMT-0500 (Central Daylight Time),667044.8000000119,A,sta,I,a,144,1,832.8000000119209,666212.0,8009,WL,B,5.0
7,10.11299991607666,immed,49887.00008392334,Thu Aug 14 2025 15:19:41 GMT-0500 (Central Daylight Time),667144.8000000119,A,star,I,r,90,1,932.8000000119209,666212.0,8009,WL,B,5.0
7,10.329999923706055,immed,49670.000076293945,Thu Aug 14 2025 15:19:41 GMT-0500 (Central Daylight Time),667361.3000000119,A,starenter,I,enter,204,1,1149.300000011921,666212.0,8009,WL,B,5.0
7,10.495999813079834,immed,49504.000186920166,Thu Aug 14 2025 15:19:41 GMT-0500 (Central Daylight Time),667527.6999999881,A,w,I,w,149,1,166.10000002384186,667361.5999999642,8009,WL,B,6.0
7,10.645999908447266,immed,49354.000091552734,Thu Aug 14 2025 15:19:41 GMT-0500 (Central Daylight Time),667678.0,A,wi,I,i,142,1,316.4000000357628,667361.5999999642,8009,WL,B,6.0
7,10.763000011444092,immed,49236.99998855591,Thu Aug 14 2025 15:19:41 GMT-0500 (Central Daylight Time),667794.5,A,wid,I,d,112,1,432.9000000357628,667361.5999999642,8009,WL,B,6.0
7,11.145999908447266,immed,48854.000091552734,Thu Aug 14 2025 15:19:41 GMT-0500 (Central Daylight Time),668177.8000000119,A,wi,I,backspace,371,1,816.2000000476837,667361.5999999642,8009,WL,B,6.0
7,11.263000011444092,immed,48736.99998855591,Thu Aug 14 2025 15:19:41 GMT-0500 (Central Daylight Time),668294.3000000119,A,wif,I,f,109,1,932.7000000476837,667361.5999999642,8009,WL,B,6.0
7,11.36299991607666,immed,48637.00008392334,Thu Aug 14 2025 15:19:41 GMT-0500 (Central Daylight Time),668394.5,A,wife,I,e,88,1,1032.9000000357628,667361.5999999642,8009,WL,B,6.0
7,11.51199984550476,immed,48488.00015449524,Thu Aug 14 2025 15:19:41 GMT-0500 (Central Daylight Time),668544.0,A,wifeenter,I,enter,130,1,1182.4000000357628,667361.5999999642,8009,WL,B,6.0
7,11.928999900817871,immed,48071.00009918213,Thu Aug 14 2025 15:19:41 GMT-0500 (Central Daylight Time),668960.8000000119,A,w,I,w,407,1,416.60000002384186,668544.1999999881,8009,WL,B,7.0
7,12.095999956130981,immed,47904.00004386902,Thu Aug 14 2025 15:19:41 GMT-0500 (Central Daylight Time),669127.3999999762,A,wi,I,i,150,1,583.1999999880791,668544.1999999881,8009,WL,B,7.0
7,12.178999900817871,immed,47821.00009918213,Thu Aug 14 2025 15:19:41 GMT-0500 (Central Daylight Time),669210.8999999762,A,win,I,n,79,1,666.6999999880791,668544.1999999881,8009,WL,B,7.0
7,12.245999813079834,immed,47754.000186920166,Thu Aug 14 2025 15:19:41 GMT-0500 (Central Daylight Time),669277.3999999762,A,wind,I,d,51,1,733.1999999880791,668544.1999999881,8009,WL,B,7.0
7,12.412999868392944,immed,47587.000131607056,Thu Aug 14 2025 15:19:41 GMT-0500 (Central Daylight Time),669444.1999999881,A,windo,I,o,153,1,900.0,668544.1999999881,8009,WL,B,7.0
7,12.561999797821045,immed,47438.000202178955,Thu Aug 14 2025 15:19:41 GMT-0500 (Central Daylight Time),669593.8999999762,A,window,I,w,130,1,1049.699999988079,668544.1999999881,8009,WL,B,7.0
7,12.828999996185303,immed,47171.0000038147,Thu Aug 14 2025 15:19:41 GMT-0500 (Central Daylight Time),669860.3999999762,A,windowenter,I,enter,261,1,1316.199999988079,668544.1999999881,8009,WL,B,7.0
7,14.327999830245972,immed,45672.00016975403,Thu Aug 14 2025 15:19:41 GMT-0500 (Central Daylight Time),671360.0,A,c,I,c,1491,1,1499.300000011921,669860.6999999881,8009,WL,B,8.0
7,14.461999893188477,immed,45538.00010681152,Thu Aug 14 2025 15:19:41 GMT-0500 (Central Daylight Time),671493.3999999762,A,ci,I,i,126,1,1632.699999988079,669860.6999999881,8009,WL,B,8.0
7,14.628000020980835,immed,45371.999979019165,Thu Aug 14 2025 15:19:41 GMT-0500 (Central Daylight Time),671660.0,A,cit,I,t,160,1,1799.300000011921,669860.6999999881,8009,WL,B,8.0
7,14.712999820709229,immed,45287.00017929077,Thu Aug 14 2025 15:19:41 GMT-0500 (Central Daylight Time),671744.0,A,city,I,y,75,1,1883.300000011921,669860.6999999881,8009,WL,B,8.0
7,14.91100001335144,immed,45088.99998664856,Thu Aug 14 2025 15:19:41 GMT-0500 (Central Daylight Time),671943.0,A,cityenter,I,enter,189,1,2082.300000011921,669860.6999999881,8009,WL,B,8.0
7,15.960999965667725,immed,44039.000034332275,Thu Aug 14 2025 15:19:41 GMT-0500 (Central Daylight Time),672992.8999999762,A,p,I,p,1031,1,1049.5999999642372,671943.3000000119,8009,WL,B,9.0
7,16.227999925613403,immed,43772.0000743866,Thu Aug 14 2025 15:19:41 GMT-0500 (Central Daylight Time),673259.1999999881,A,pu,I,u,261,1,1315.8999999761581,671943.3000000119,8009,WL,B,9.0
7,16.51099991798401,immed,43489.00008201599,Thu Aug 14 2025 15:19:41 GMT-0500 (Central Daylight Time),673542.6999999881,A,pup,I,p,275,1,1599.3999999761581,671943.3000000119,8009,WL,B,9.0
7,16.694000005722046,immed,43305.999994277954,Thu Aug 14 2025 15:19:41 GMT-0500 (Central Daylight Time),673726.0999999642,A,pupi,I,i,176,1,1782.7999999523163,671943.3000000119,8009,WL,B,9.0
7,16.878000020980835,immed,43121.999979019165,Thu Aug 14 2025 15:19:41 GMT-0500 (Central Daylight Time),673909.0999999642,A,pupil,I,l,169,1,1965.7999999523163,671943.3000000119,8009,WL,B,9.0
