acc_sum,block,block_c,block_cond,con_img,correct,correct_response,datetime,endtime,face,jitter,line,project,response,response_time,row_sel,session_number,start_end,starttime,subject_id,task,task_vers,trial
0,prac,1,A,haborder.png,0,m,Thu Jul 31 2025 13:41:13 GMT-0500 (Central Daylight Time),38919.19999999972,CFD-WM-004-005-HC.jpg,1400,solid,I,None,1516,7,2,3698.7999999998137,35220.39999999991,8046,ATS,A,1
1,prac,1,A,haborder.png,1,z,Thu Jul 31 2025 13:41:13 GMT-0500 (Central Daylight Time),41918.299999999814,CFD-WF-003-014-A.jpg,1600,solid,I,z,601,10,2,6697.899999999907,35220.39999999991,8046,ATS,A,2
2,prac,1,A,haborder.png,1,z,Thu Jul 31 2025 13:41:13 GMT-0500 (Central Daylight Time),44267.299999999814,CFD-WF-019-015-A.jpg,1000,solid,I,z,563,12,2,9046.899999999907,35220.39999999991,8046,ATS,A,3
3,prac,1,A,haborder.png,1,z,Thu Jul 31 2025 13:41:13 GMT-0500 (Central Daylight Time),47250.19999999972,CFD-BM-005-010-A.jpg,1600,solid,I,z,598,2,2,12029.799999999814,35220.39999999991,8046,ATS,A,4
3,prac,1,A,haborder.png,0,m,Thu Jul 31 2025 13:41:13 GMT-0500 (Central Daylight Time),50598.59999999963,CFD-BM-017-052-HC.jpg,1700,solid,I,z,851,1,2,15378.19999999972,35220.39999999991,8046,ATS,A,5
4,prac,1,A,haborder.png,1,m,Thu Jul 31 2025 13:41:13 GMT-0500 (Central Daylight Time),53999.0,CFD-BF-028-020-HC.jpg,2000,solid,I,m,602,5,2,18778.600000000093,35220.39999999991,8046,ATS,A,6
5,prac,1,A,haborder.png,1,m,Thu Jul 31 2025 13:41:13 GMT-0500 (Central Daylight Time),57163.59999999963,CFD-WM-006-013-HC.jpg,1700,solid,I,m,672,9,2,21943.19999999972,35220.39999999991,8046,ATS,A,7
6,prac,1,A,haborder.png,1,z,Thu Jul 31 2025 13:41:13 GMT-0500 (Central Daylight Time),60612.39999999991,CFD-WM-013-015-A.jpg,1900,solid,I,z,762,8,2,25392.0,35220.39999999991,8046,ATS,A,8
7,prac,1,A,haborder.png,1,m,Thu Jul 31 2025 13:41:13 GMT-0500 (Central Daylight Time),63644.89999999991,CFD-BM-029-026-HC.jpg,1500,solid,I,m,744,3,2,28424.5,35220.39999999991,8046,ATS,A,9
8,prac,1,A,haborder.png,1,z,Thu Jul 31 2025 13:41:13 GMT-0500 (Central Daylight Time),66427.3999999999,CFD-BF-039-039-A.jpg,1200,solid,I,z,788,6,2,31207.0,35220.39999999991,8046,ATS,A,10
9,prac,1,A,haborder.png,1,z,Thu Jul 31 2025 13:41:13 GMT-0500 (Central Daylight Time),68859.8999999999,CFD-BF-023-013-A.jpg,1000,solid,I,z,533,4,2,33639.5,35220.39999999991,8046,ATS,A,11
10,prac,1,A,haborder.png,1,m,Thu Jul 31 2025 13:41:13 GMT-0500 (Central Daylight Time),71792.19999999972,CFD-WF-017-016-HC.jpg,1500,solid,I,m,642,11,2,36571.799999999814,35220.39999999991,8046,ATS,A,12
1,prac,1,B,mfborder.png,1,m,Thu Jul 31 2025 13:41:13 GMT-0500 (Central Daylight Time),88137.0,CFD-WM-006-013-HC.jpg,1600,dash,I,m,782,10,2,3165.5,84971.5,8046,ATS,A,1
2,prac,1,B,mfborder.png,1,z,Thu Jul 31 2025 13:41:13 GMT-0500 (Central Daylight Time),90553.19999999972,CFD-BF-023-013-A.jpg,1000,dash,I,z,624,4,2,5581.699999999721,84971.5,8046,ATS,A,2
3,prac,1,B,mfborder.png,1,m,Thu Jul 31 2025 13:41:13 GMT-0500 (Central Daylight Time),93718.69999999972,CFD-BM-029-026-HC.jpg,1700,dash,I,m,677,1,2,8747.19999999972,84971.5,8046,ATS,A,3
4,prac,1,B,mfborder.png,1,m,Thu Jul 31 2025 13:41:13 GMT-0500 (Central Daylight Time),96684.29999999981,CFD-BM-010-019-A.jpg,1600,dash,I,m,578,2,2,11712.799999999814,84971.5,8046,ATS,A,4
5,prac,1,B,mfborder.png,1,m,Thu Jul 31 2025 13:41:13 GMT-0500 (Central Daylight Time),99666.69999999972,CFD-WM-019-013-A.jpg,1200,dash,I,m,997,6,2,14695.19999999972,84971.5,8046,ATS,A,5
6,prac,1,B,mfborder.png,1,z,Thu Jul 31 2025 13:41:13 GMT-0500 (Central Daylight Time),102049.3999999999,CFD-WF-017-016-HC.jpg,1000,dash,I,z,590,12,2,17077.899999999907,84971.5,8046,ATS,A,6
7,prac,1,B,mfborder.png,1,m,Thu Jul 31 2025 13:41:13 GMT-0500 (Central Daylight Time),105465.19999999972,CFD-WM-013-015-A.jpg,1700,dash,I,m,931,9,2,20493.69999999972,84971.5,8046,ATS,A,7
8,prac,1,B,mfborder.png,1,z,Thu Jul 31 2025 13:41:13 GMT-0500 (Central Daylight Time),108963.69999999972,CFD-WF-002-008-HC.jpg,1900,dash,I,z,805,8,2,23992.19999999972,84971.5,8046,ATS,A,8
9,prac,1,B,mfborder.png,1,m,Thu Jul 31 2025 13:41:13 GMT-0500 (Central Daylight Time),112579.5,CFD-BM-005-010-A.jpg,2000,dash,I,m,822,5,2,27608.0,84971.5,8046,ATS,A,9
10,prac,1,B,mfborder.png,1,z,Thu Jul 31 2025 13:41:13 GMT-0500 (Central Daylight Time),115461.8999999999,CFD-WF-003-014-A.jpg,1500,dash,I,z,612,11,2,30490.399999999907,84971.5,8046,ATS,A,10
11,prac,1,B,mfborder.png,1,z,Thu Jul 31 2025 13:41:13 GMT-0500 (Central Daylight Time),118577.59999999963,CFD-BF-010-005-HC.jpg,1500,dash,I,z,823,3,2,33606.09999999963,84971.5,8046,ATS,A,11
12,prac,1,B,mfborder.png,1,z,Thu Jul 31 2025 13:41:13 GMT-0500 (Central Daylight Time),121460.09999999963,CFD-BF-028-020-HC.jpg,1400,dash,I,z,696,7,2,36488.59999999963,84971.5,8046,ATS,A,12
1,test,1,A,haborder.png,1,m,Thu Jul 31 2025 13:41:13 GMT-0500 (Central Daylight Time),132173.19999999972,CFD-BM-029-026-HC.jpg,1500,solid,I,m,820,3,2,2349.399999999907,129823.79999999981,8046,ATS,A,1
2,test,1,A,haborder.png,1,m,Thu Jul 31 2025 13:41:13 GMT-0500 (Central Daylight Time),134405.8999999999,CFD-BM-017-052-HC.jpg,1700,solid,I,m,512,1,2,4582.100000000093,129823.79999999981,8046,ATS,A,2
3,test,1,A,haborder.png,1,z,Thu Jul 31 2025 13:41:13 GMT-0500 (Central Daylight Time),136121.8999999999,CFD-BF-023-013-A.jpg,1000,solid,I,z,690,4,2,6298.100000000093,129823.79999999981,8046,ATS,A,3
4,test,1,A,haborder.png,1,z,Thu Jul 31 2025 13:41:13 GMT-0500 (Central Daylight Time),138431.19999999972,CFD-BM-005-010-A.jpg,1600,solid,I,z,692,2,2,8607.399999999907,129823.79999999981,8046,ATS,A,4
5,test,1,A,haborder.png,1,z,Thu Jul 31 2025 13:41:13 GMT-0500 (Central Daylight Time),140287.2999999998,CFD-BF-039-039-A.jpg,1200,solid,I,z,644,6,2,10463.5,129823.79999999981,8046,ATS,A,5
6,test,1,A,haborder.png,1,z,Thu Jul 31 2025 13:41:13 GMT-0500 (Central Daylight Time),142919.69999999972,CFD-WM-013-015-A.jpg,1900,solid,I,z,701,8,2,13095.899999999907,129823.79999999981,8046,ATS,A,6
7,test,1,A,haborder.png,1,m,Thu Jul 31 2025 13:41:13 GMT-0500 (Central Daylight Time),145218.8999999999,CFD-BM-029-026-HC.jpg,1500,solid,I,m,782,3,2,15395.100000000093,129823.79999999981,8046,ATS,A,7
8,test,1,A,haborder.png,1,m,Thu Jul 31 2025 13:41:13 GMT-0500 (Central Daylight Time),147785.09999999963,CFD-WM-006-013-HC.jpg,1700,solid,I,m,833,9,2,17961.299999999814,129823.79999999981,8046,ATS,A,8
9,test,1,A,haborder.png,1,z,Thu Jul 31 2025 13:41:13 GMT-0500 (Central Daylight Time),149617.59999999963,CFD-BF-023-013-A.jpg,1000,solid,I,z,815,4,2,19793.799999999814,129823.79999999981,8046,ATS,A,9
10,test,1,A,haborder.png,1,m,Thu Jul 31 2025 13:41:13 GMT-0500 (Central Daylight Time),151700.3999999999,CFD-WM-004-005-HC.jpg,1400,solid,I,m,663,7,2,21876.600000000093,129823.79999999981,8046,ATS,A,10
11,test,1,A,haborder.png,1,z,Thu Jul 31 2025 13:41:13 GMT-0500 (Central Daylight Time),154032.8999999999,CFD-WF-003-014-A.jpg,1600,solid,I,z,700,10,2,24209.100000000093,129823.79999999981,8046,ATS,A,11
12,test,1,A,haborder.png,1,z,Thu Jul 31 2025 13:41:13 GMT-0500 (Central Daylight Time),155866.0,CFD-WF-019-015-A.jpg,1000,solid,I,z,800,12,2,26042.200000000186,129823.79999999981,8046,ATS,A,12
13,test,1,A,haborder.png,1,m,Thu Jul 31 2025 13:41:13 GMT-0500 (Central Daylight Time),158481.59999999963,CFD-BF-028-020-HC.jpg,2000,solid,I,m,591,5,2,28657.799999999814,129823.79999999981,8046,ATS,A,13
14,test,1,A,haborder.png,1,m,Thu Jul 31 2025 13:41:13 GMT-0500 (Central Daylight Time),160830.8999999999,CFD-WM-006-013-HC.jpg,1700,solid,I,m,620,9,2,31007.100000000093,129823.79999999981,8046,ATS,A,14
15,test,1,A,haborder.png,1,z,Thu Jul 31 2025 13:41:13 GMT-0500 (Central Daylight Time),163246.7999999998,CFD-WF-003-014-A.jpg,1600,solid,I,z,794,10,2,33423.0,129823.79999999981,8046,ATS,A,15
16,test,1,A,haborder.png,1,m,Thu Jul 31 2025 13:41:13 GMT-0500 (Central Daylight Time),165562.7999999998,CFD-BM-017-052-HC.jpg,1700,solid,I,m,590,1,2,35739.0,129823.79999999981,8046,ATS,A,16
17,test,1,A,haborder.png,1,m,Thu Jul 31 2025 13:41:13 GMT-0500 (Central Daylight Time),167695.5,CFD-WM-004-005-HC.jpg,1400,solid,I,m,702,7,2,37871.700000000186,129823.79999999981,8046,ATS,A,17
18,test,1,A,haborder.png,1,z,Thu Jul 31 2025 13:41:13 GMT-0500 (Central Daylight Time),169928.19999999972,CFD-WF-019-015-A.jpg,1000,solid,I,z,1207,12,2,40104.39999999991,129823.79999999981,8046,ATS,A,18
19,test,1,A,haborder.png,1,z,Thu Jul 31 2025 13:41:13 GMT-0500 (Central Daylight Time),172477.09999999963,CFD-WM-013-015-A.jpg,1900,solid,I,z,629,8,2,42653.299999999814,129823.79999999981,8046,ATS,A,19
20,test,1,A,haborder.png,1,m,Thu Jul 31 2025 13:41:13 GMT-0500 (Central Daylight Time),174876.59999999963,CFD-WF-017-016-HC.jpg,1500,solid,I,m,872,11,2,45052.799999999814,129823.79999999981,8046,ATS,A,20
21,test,1,A,haborder.png,1,m,Thu Jul 31 2025 13:41:13 GMT-0500 (Central Daylight Time),177575.8999999999,CFD-BF-028-020-HC.jpg,2000,solid,I,m,669,5,2,47752.10000000009,129823.79999999981,8046,ATS,A,21
22,test,1,A,haborder.png,1,z,Thu Jul 31 2025 13:41:13 GMT-0500 (Central Daylight Time),179724.7999999998,CFD-BF-039-039-A.jpg,1200,solid,I,z,930,6,2,49901.0,129823.79999999981,8046,ATS,A,22
23,test,1,A,haborder.png,1,m,Thu Jul 31 2025 13:41:13 GMT-0500 (Central Daylight Time),182290.69999999972,CFD-WF-017-016-HC.jpg,1500,solid,I,m,1041,11,2,52466.89999999991,129823.79999999981,8046,ATS,A,23
24,test,1,A,haborder.png,1,z,Thu Jul 31 2025 13:41:13 GMT-0500 (Central Daylight Time),184689.8999999999,CFD-BM-005-010-A.jpg,1600,solid,I,z,774,2,2,54866.10000000009,129823.79999999981,8046,ATS,A,24
1,test,1,B,mfborder.png,1,z,Thu Jul 31 2025 13:41:13 GMT-0500 (Central Daylight Time),192987.3999999999,CFD-WF-017-016-HC.jpg,1000,dash,I,z,948,12,2,1965.8000000002794,191021.59999999963,8046,ATS,A,1
2,test,1,B,mfborder.png,1,z,Thu Jul 31 2025 13:41:13 GMT-0500 (Central Daylight Time),194453.5,CFD-WF-017-016-HC.jpg,1000,dash,I,z,445,12,2,3431.9000000003725,191021.59999999963,8046,ATS,A,2
3,test,1,B,mfborder.png,1,z,Thu Jul 31 2025 13:41:13 GMT-0500 (Central Daylight Time),196552.59999999963,CFD-BF-010-005-HC.jpg,1500,dash,I,z,575,3,2,5531.0,191021.59999999963,8046,ATS,A,3
4,test,1,B,mfborder.png,1,z,Thu Jul 31 2025 13:41:13 GMT-0500 (Central Daylight Time),198635.2999999998,CFD-BF-010-005-HC.jpg,1500,dash,I,z,564,3,2,7613.700000000186,191021.59999999963,8046,ATS,A,4
5,test,1,B,mfborder.png,1,m,Thu Jul 31 2025 13:41:13 GMT-0500 (Central Daylight Time),200834.59999999963,CFD-WM-006-013-HC.jpg,1600,dash,I,m,581,10,2,9813.0,191021.59999999963,8046,ATS,A,5
6,test,1,B,mfborder.png,1,m,Thu Jul 31 2025 13:41:13 GMT-0500 (Central Daylight Time),203150.59999999963,CFD-WM-013-015-A.jpg,1700,dash,I,m,586,9,2,12129.0,191021.59999999963,8046,ATS,A,6
7,test,1,B,mfborder.png,1,z,Thu Jul 31 2025 13:41:13 GMT-0500 (Central Daylight Time),205133.19999999972,CFD-BF-028-020-HC.jpg,1400,dash,I,z,554,7,2,14111.600000000093,191021.59999999963,8046,ATS,A,7
8,test,1,B,mfborder.png,1,m,Thu Jul 31 2025 13:41:13 GMT-0500 (Central Daylight Time),206982.59999999963,CFD-WM-019-013-A.jpg,1200,dash,I,m,619,6,2,15961.0,191021.59999999963,8046,ATS,A,8
9,test,1,B,mfborder.png,1,z,Thu Jul 31 2025 13:41:13 GMT-0500 (Central Daylight Time),209125.69999999972,CFD-WF-003-014-A.jpg,1500,dash,I,z,627,11,2,18104.100000000093,191021.59999999963,8046,ATS,A,9
10,test,1,B,mfborder.png,1,z,Thu Jul 31 2025 13:41:13 GMT-0500 (Central Daylight Time),211164.7999999998,CFD-BF-028-020-HC.jpg,1400,dash,I,z,604,7,2,20143.200000000186,191021.59999999963,8046,ATS,A,10
11,test,1,B,mfborder.png,1,z,Thu Jul 31 2025 13:41:13 GMT-0500 (Central Daylight Time),213330.7999999998,CFD-WF-003-014-A.jpg,1500,dash,I,z,640,11,2,22309.200000000186,191021.59999999963,8046,ATS,A,11
12,test,1,B,mfborder.png,1,m,Thu Jul 31 2025 13:41:13 GMT-0500 (Central Daylight Time),215563.3999999999,CFD-BM-029-026-HC.jpg,1700,dash,I,m,514,1,2,24541.80000000028,191021.59999999963,8046,ATS,A,12
13,test,1,B,mfborder.png,1,m,Thu Jul 31 2025 13:41:13 GMT-0500 (Central Daylight Time),217679.3999999999,CFD-WM-006-013-HC.jpg,1600,dash,I,m,493,10,2,26657.80000000028,191021.59999999963,8046,ATS,A,13
14,test,1,B,mfborder.png,1,z,Thu Jul 31 2025 13:41:13 GMT-0500 (Central Daylight Time),219278.7999999998,CFD-BF-023-013-A.jpg,1000,dash,I,z,569,4,2,28257.200000000186,191021.59999999963,8046,ATS,A,14
15,test,1,B,mfborder.png,1,m,Thu Jul 31 2025 13:41:13 GMT-0500 (Central Daylight Time),221511.3999999999,CFD-BM-029-026-HC.jpg,1700,dash,I,m,510,1,2,30489.80000000028,191021.59999999963,8046,ATS,A,15
16,test,1,B,mfborder.png,1,m,Thu Jul 31 2025 13:41:13 GMT-0500 (Central Daylight Time),223577.5,CFD-BM-010-019-A.jpg,1600,dash,I,m,433,2,2,32555.900000000373,191021.59999999963,8046,ATS,A,16
17,test,1,B,mfborder.png,1,m,Thu Jul 31 2025 13:41:13 GMT-0500 (Central Daylight Time),226093.2999999998,CFD-BM-005-010-A.jpg,2000,dash,I,m,495,5,2,35071.700000000186,191021.59999999963,8046,ATS,A,17
18,test,1,B,mfborder.png,1,m,Thu Jul 31 2025 13:41:13 GMT-0500 (Central Daylight Time),228142.59999999963,CFD-BM-010-019-A.jpg,1600,dash,I,m,419,2,2,37121.0,191021.59999999963,8046,ATS,A,18
19,test,1,B,mfborder.png,1,m,Thu Jul 31 2025 13:41:13 GMT-0500 (Central Daylight Time),229809.0,CFD-WM-019-013-A.jpg,1200,dash,I,m,441,6,2,38787.40000000037,191021.59999999963,8046,ATS,A,19
20,test,1,B,mfborder.png,1,z,Thu Jul 31 2025 13:41:13 GMT-0500 (Central Daylight Time),232291.2999999998,CFD-WF-002-008-HC.jpg,1900,dash,I,z,555,8,2,41269.700000000186,191021.59999999963,8046,ATS,A,20
21,test,1,B,mfborder.png,1,z,Thu Jul 31 2025 13:41:13 GMT-0500 (Central Daylight Time),233874.3999999999,CFD-BF-023-013-A.jpg,1000,dash,I,z,557,4,2,42852.80000000028,191021.59999999963,8046,ATS,A,21
22,test,1,B,mfborder.png,1,m,Thu Jul 31 2025 13:41:13 GMT-0500 (Central Daylight Time),236456.7999999998,CFD-BM-005-010-A.jpg,2000,dash,I,m,550,5,2,45435.200000000186,191021.59999999963,8046,ATS,A,22
23,test,1,B,mfborder.png,1,z,Thu Jul 31 2025 13:41:13 GMT-0500 (Central Daylight Time),238956.09999999963,CFD-WF-002-008-HC.jpg,1900,dash,I,z,572,8,2,47934.5,191021.59999999963,8046,ATS,A,23
24,test,1,B,mfborder.png,1,m,Thu Jul 31 2025 13:41:13 GMT-0500 (Central Daylight Time),241171.8999999999,CFD-WM-013-015-A.jpg,1700,dash,I,m,489,9,2,50150.30000000028,191021.59999999963,8046,ATS,A,24
0,prac,1,C,mfborder.png,0,m,Thu Jul 31 2025 13:41:13 GMT-0500 (Central Daylight Time),267863.6999999997,CFD-BM-005-010-A.jpg,1200,dash,I,None,1516,5,2,3498.7999999998137,264364.8999999999,8046,ATS,A,1
0,prac,1,C,haborder.png,0,m,Thu Jul 31 2025 13:41:13 GMT-0500 (Central Daylight Time),271162.5999999996,CFD-WM-004-005-HC.jpg,1000,dash,I,None,1516,11,2,6797.699999999721,264364.8999999999,8046,ATS,A,2
1,prac,1,C,mfborder.png,1,m,Thu Jul 31 2025 13:41:13 GMT-0500 (Central Daylight Time),274661.5,CFD-BM-017-052-HC.jpg,2000,solid,I,m,702,4,2,10296.600000000093,264364.8999999999,8046,ATS,A,3
2,prac,1,C,haborder.png,1,z,Thu Jul 31 2025 13:41:13 GMT-0500 (Central Daylight Time),278093.7999999998,CFD-BF-023-013-A.jpg,1900,dash,I,z,735,7,2,13728.899999999907,264364.8999999999,8046,ATS,A,4
3,prac,1,C,mfborder.png,1,z,Thu Jul 31 2025 13:41:13 GMT-0500 (Central Daylight Time),281226.0,CFD-WF-019-015-A.jpg,1500,solid,I,z,809,2,2,16861.100000000093,264364.8999999999,8046,ATS,A,5
4,prac,1,C,haborder.png,1,m,Thu Jul 31 2025 13:41:13 GMT-0500 (Central Daylight Time),284775.0,CFD-WM-004-005-HC.jpg,1400,solid,I,m,1359,12,2,20410.100000000093,264364.8999999999,8046,ATS,A,6
5,prac,1,C,mfborder.png,1,z,Thu Jul 31 2025 13:41:13 GMT-0500 (Central Daylight Time),287624.1999999997,CFD-BF-028-020-HC.jpg,1000,dash,I,z,1065,3,2,23259.299999999814,264364.8999999999,8046,ATS,A,7
6,prac,1,C,haborder.png,1,z,Thu Jul 31 2025 13:41:13 GMT-0500 (Central Daylight Time),291389.5,CFD-BF-039-039-A.jpg,1700,solid,I,z,1277,8,2,27024.600000000093,264364.8999999999,8046,ATS,A,8
7,prac,1,C,mfborder.png,1,z,Thu Jul 31 2025 13:41:13 GMT-0500 (Central Daylight Time),294955.0,CFD-WF-017-016-HC.jpg,1600,dash,I,z,1171,1,2,30590.100000000093,264364.8999999999,8046,ATS,A,9
7,prac,1,C,mfborder.png,0,m,Thu Jul 31 2025 13:41:13 GMT-0500 (Central Daylight Time),298354.0999999996,CFD-WM-013-015-A.jpg,1700,solid,I,z,906,6,2,33989.19999999972,264364.8999999999,8046,ATS,A,10
7,prac,1,C,haborder.png,0,z,Thu Jul 31 2025 13:41:13 GMT-0500 (Central Daylight Time),302252.6999999997,CFD-WF-003-014-A.jpg,1600,dash,I,None,1516,9,2,37887.799999999814,264364.8999999999,8046,ATS,A,11
8,prac,1,C,haborder.png,1,m,Thu Jul 31 2025 13:41:13 GMT-0500 (Central Daylight Time),305401.8999999999,CFD-BM-029-026-HC.jpg,1500,solid,I,m,864,10,2,41037.0,264364.8999999999,8046,ATS,A,12
0,test,1,C,mfborder.png,0,m,Thu Jul 31 2025 13:41:13 GMT-0500 (Central Daylight Time),313782.5999999996,CFD-WM-006-013-HC.jpg,1000,dash,I,z,1253,4,2,2282.6999999997206,311499.8999999999,8046,ATS,A,1
0,test,1,C,mfborder.png,0,m,Thu Jul 31 2025 13:41:13 GMT-0500 (Central Daylight Time),317314.7999999998,CFD-WM-019-013-A.jpg,2000,dash,I,None,1516,5,2,5814.899999999907,311499.8999999999,8046,ATS,A,2
1,test,1,C,haborder.png,1,z,Thu Jul 31 2025 13:41:13 GMT-0500 (Central Daylight Time),320380.5,CFD-BM-005-010-A.jpg,1900,solid,I,z,1146,8,2,8880.600000000093,311499.8999999999,8046,ATS,A,3
2,test,1,C,haborder.png,1,z,Thu Jul 31 2025 13:41:13 GMT-0500 (Central Daylight Time),323146.0999999996,CFD-BM-010-019-A.jpg,1700,solid,I,z,1048,9,2,11646.19999999972,311499.8999999999,8046,ATS,A,4
3,test,1,C,mfborder.png,1,m,Thu Jul 31 2025 13:41:13 GMT-0500 (Central Daylight Time),325229.0999999996,CFD-BM-029-026-HC.jpg,1200,dash,I,m,854,6,2,13729.19999999972,311499.8999999999,8046,ATS,A,5
4,test,1,C,mfborder.png,1,z,Thu Jul 31 2025 13:41:13 GMT-0500 (Central Daylight Time),327611.3999999999,CFD-WF-003-014-A.jpg,1500,dash,I,z,867,3,2,16111.5,311499.8999999999,8046,ATS,A,6
5,test,1,C,mfborder.png,1,z,Thu Jul 31 2025 13:41:13 GMT-0500 (Central Daylight Time),330244.0999999996,CFD-BF-023-013-A.jpg,1600,dash,I,z,1005,2,2,18744.19999999972,311499.8999999999,8046,ATS,A,7
6,test,1,C,haborder.png,1,m,Thu Jul 31 2025 13:41:13 GMT-0500 (Central Daylight Time),332843.1999999997,CFD-WF-002-008-HC.jpg,1500,solid,I,m,1073,11,2,21343.299999999814,311499.8999999999,8046,ATS,A,8
7,test,1,C,mfborder.png,1,z,Thu Jul 31 2025 13:41:13 GMT-0500 (Central Daylight Time),335809.0,CFD-BF-010-005-HC.jpg,1700,dash,I,z,1241,1,2,24309.100000000093,311499.8999999999,8046,ATS,A,9
8,test,1,C,mfborder.png,1,z,Thu Jul 31 2025 13:41:13 GMT-0500 (Central Daylight Time),338241.5999999996,CFD-BF-010-005-HC.jpg,1700,dash,I,z,707,1,2,26741.69999999972,311499.8999999999,8046,ATS,A,10
9,test,1,C,haborder.png,1,z,Thu Jul 31 2025 13:41:13 GMT-0500 (Central Daylight Time),341240.5,CFD-BM-010-019-A.jpg,1700,solid,I,z,1275,9,2,29740.600000000093,311499.8999999999,8046,ATS,A,11
10,test,1,C,mfborder.png,1,z,Thu Jul 31 2025 13:41:13 GMT-0500 (Central Daylight Time),343723.1999999997,CFD-BF-023-013-A.jpg,1600,dash,I,z,864,2,2,32223.299999999814,311499.8999999999,8046,ATS,A,12
11,test,1,C,haborder.png,1,m,Thu Jul 31 2025 13:41:13 GMT-0500 (Central Daylight Time),345672.3999999999,CFD-WF-017-016-HC.jpg,1000,solid,I,m,917,12,2,34172.5,311499.8999999999,8046,ATS,A,13
12,test,1,C,mfborder.png,1,m,Thu Jul 31 2025 13:41:13 GMT-0500 (Central Daylight Time),348088.3999999999,CFD-WM-006-013-HC.jpg,1000,dash,I,m,1384,4,2,36588.5,311499.8999999999,8046,ATS,A,14
12,test,1,C,haborder.png,0,m,Thu Jul 31 2025 13:41:13 GMT-0500 (Central Daylight Time),350624.0,CFD-WF-017-016-HC.jpg,1000,solid,I,None,1516,12,2,39124.10000000009,311499.8999999999,8046,ATS,A,15
13,test,1,C,mfborder.png,1,z,Thu Jul 31 2025 13:41:13 GMT-0500 (Central Daylight Time),353270.0,CFD-WF-003-014-A.jpg,1500,dash,I,z,1128,3,2,41770.10000000009,311499.8999999999,8046,ATS,A,16
14,test,1,C,haborder.png,1,z,Thu Jul 31 2025 13:41:13 GMT-0500 (Central Daylight Time),355985.8999999999,CFD-WM-013-015-A.jpg,1400,solid,I,z,1290,7,2,44486.0,311499.8999999999,8046,ATS,A,17
14,test,1,C,haborder.png,0,m,Thu Jul 31 2025 13:41:13 GMT-0500 (Central Daylight Time),358218.5999999996,CFD-WF-002-008-HC.jpg,1500,solid,I,z,707,11,2,46718.69999999972,311499.8999999999,8046,ATS,A,18
15,test,1,C,mfborder.png,1,m,Thu Jul 31 2025 13:41:13 GMT-0500 (Central Daylight Time),361500.7999999998,CFD-WM-019-013-A.jpg,2000,dash,I,m,1262,5,2,50000.89999999991,311499.8999999999,8046,ATS,A,19
16,test,1,C,mfborder.png,1,m,Thu Jul 31 2025 13:41:13 GMT-0500 (Central Daylight Time),363500.1999999997,CFD-BM-029-026-HC.jpg,1200,dash,I,m,771,6,2,52000.299999999814,311499.8999999999,8046,ATS,A,20
17,test,1,C,haborder.png,1,z,Thu Jul 31 2025 13:41:13 GMT-0500 (Central Daylight Time),366349.3999999999,CFD-BM-005-010-A.jpg,1900,solid,I,z,920,8,2,54849.5,311499.8999999999,8046,ATS,A,21
18,test,1,C,haborder.png,1,m,Thu Jul 31 2025 13:41:13 GMT-0500 (Central Daylight Time),368815.2999999998,CFD-BF-028-020-HC.jpg,1600,solid,I,m,835,10,2,57315.39999999991,311499.8999999999,8046,ATS,A,22
18,test,1,C,haborder.png,0,z,Thu Jul 31 2025 13:41:13 GMT-0500 (Central Daylight Time),371131.0999999996,CFD-WM-013-015-A.jpg,1400,solid,I,m,897,7,2,59631.19999999972,311499.8999999999,8046,ATS,A,23
19,test,1,C,haborder.png,1,m,Thu Jul 31 2025 13:41:13 GMT-0500 (Central Daylight Time),373363.6999999997,CFD-BF-028-020-HC.jpg,1600,solid,I,m,613,10,2,61863.799999999814,311499.8999999999,8046,ATS,A,24
1,test,2,C,mfborder.png,1,z,Thu Jul 31 2025 13:41:13 GMT-0500 (Central Daylight Time),377579.1999999997,CFD-WF-019-015-A.jpg,1600,dash,I,z,939,2,2,2565.899999999907,375013.2999999998,8046,ATS,A,1
2,test,2,C,haborder.png,1,m,Thu Jul 31 2025 13:41:13 GMT-0500 (Central Daylight Time),380078.2999999998,CFD-BM-029-026-HC.jpg,1600,solid,I,m,869,10,2,5065.0,375013.2999999998,8046,ATS,A,2
3,test,2,C,mfborder.png,1,m,Thu Jul 31 2025 13:41:13 GMT-0500 (Central Daylight Time),383077.2999999998,CFD-BM-005-010-A.jpg,2000,dash,I,m,970,5,2,8064.0,375013.2999999998,8046,ATS,A,3
4,test,2,C,haborder.png,1,z,Thu Jul 31 2025 13:41:13 GMT-0500 (Central Daylight Time),385993.1999999997,CFD-WF-003-014-A.jpg,1700,solid,I,z,1199,9,2,10979.899999999907,375013.2999999998,8046,ATS,A,4
5,test,2,C,haborder.png,1,z,Thu Jul 31 2025 13:41:13 GMT-0500 (Central Daylight Time),388442.2999999998,CFD-WF-003-014-A.jpg,1700,solid,I,z,723,9,2,13429.0,375013.2999999998,8046,ATS,A,5
6,test,2,C,haborder.png,1,m,Thu Jul 31 2025 13:41:13 GMT-0500 (Central Daylight Time),390708.3999999999,CFD-WM-004-005-HC.jpg,1500,solid,I,m,746,11,2,15695.100000000093,375013.2999999998,8046,ATS,A,6
7,test,2,C,haborder.png,1,z,Thu Jul 31 2025 13:41:13 GMT-0500 (Central Daylight Time),393040.7999999998,CFD-BF-023-013-A.jpg,1400,solid,I,z,908,7,2,18027.5,375013.2999999998,8046,ATS,A,7
8,test,2,C,mfborder.png,1,m,Thu Jul 31 2025 13:41:13 GMT-0500 (Central Daylight Time),395256.7999999998,CFD-BM-017-052-HC.jpg,1000,dash,I,m,1184,4,2,20243.5,375013.2999999998,8046,ATS,A,8
9,test,2,C,mfborder.png,1,z,Thu Jul 31 2025 13:41:13 GMT-0500 (Central Daylight Time),397922.5999999996,CFD-WF-019-015-A.jpg,1600,dash,I,z,1040,2,2,22909.299999999814,375013.2999999998,8046,ATS,A,9
9,test,2,C,mfborder.png,0,m,Thu Jul 31 2025 13:41:13 GMT-0500 (Central Daylight Time),400655.2999999998,CFD-WM-013-015-A.jpg,1200,dash,I,None,1516,6,2,25642.0,375013.2999999998,8046,ATS,A,10
10,test,2,C,haborder.png,1,m,Thu Jul 31 2025 13:41:13 GMT-0500 (Central Daylight Time),402971.1999999997,CFD-WM-004-005-HC.jpg,1500,solid,I,m,789,11,2,27957.899999999907,375013.2999999998,8046,ATS,A,11
11,test,2,C,mfborder.png,1,m,Thu Jul 31 2025 13:41:13 GMT-0500 (Central Daylight Time),405237.0999999996,CFD-BM-017-052-HC.jpg,1000,dash,I,m,1245,4,2,30223.799999999814,375013.2999999998,8046,ATS,A,12
12,test,2,C,haborder.png,1,m,Thu Jul 31 2025 13:41:13 GMT-0500 (Central Daylight Time),407503.1999999997,CFD-BM-029-026-HC.jpg,1600,solid,I,m,636,10,2,32489.899999999907,375013.2999999998,8046,ATS,A,13
13,test,2,C,mfborder.png,1,z,Thu Jul 31 2025 13:41:13 GMT-0500 (Central Daylight Time),410152.0999999996,CFD-BF-028-020-HC.jpg,1500,dash,I,z,1117,3,2,35138.799999999814,375013.2999999998,8046,ATS,A,14
14,test,2,C,mfborder.png,1,z,Thu Jul 31 2025 13:41:13 GMT-0500 (Central Daylight Time),412434.8999999999,CFD-BF-028-020-HC.jpg,1500,dash,I,z,756,3,2,37421.60000000009,375013.2999999998,8046,ATS,A,15
15,test,2,C,haborder.png,1,z,Thu Jul 31 2025 13:41:13 GMT-0500 (Central Daylight Time),415467.0999999996,CFD-BF-039-039-A.jpg,1900,solid,I,z,1114,8,2,40453.799999999814,375013.2999999998,8046,ATS,A,16
16,test,2,C,mfborder.png,1,m,Thu Jul 31 2025 13:41:13 GMT-0500 (Central Daylight Time),418134.0999999996,CFD-WM-013-015-A.jpg,1200,dash,I,m,1437,6,2,43120.799999999814,375013.2999999998,8046,ATS,A,17
17,test,2,C,mfborder.png,1,z,Thu Jul 31 2025 13:41:13 GMT-0500 (Central Daylight Time),420965.5,CFD-WF-017-016-HC.jpg,1700,dash,I,z,1112,1,2,45952.200000000186,375013.2999999998,8046,ATS,A,18
18,test,2,C,haborder.png,1,z,Thu Jul 31 2025 13:41:13 GMT-0500 (Central Daylight Time),423398.0,CFD-BF-023-013-A.jpg,1400,solid,I,z,1011,7,2,48384.700000000186,375013.2999999998,8046,ATS,A,19
19,test,2,C,haborder.png,1,z,Thu Jul 31 2025 13:41:13 GMT-0500 (Central Daylight Time),426330.5,CFD-BF-039-039-A.jpg,1900,solid,I,z,1015,8,2,51317.200000000186,375013.2999999998,8046,ATS,A,20
20,test,2,C,mfborder.png,1,z,Thu Jul 31 2025 13:41:13 GMT-0500 (Central Daylight Time),429246.2999999998,CFD-WF-017-016-HC.jpg,1700,dash,I,z,1194,1,2,54233.0,375013.2999999998,8046,ATS,A,21
21,test,2,C,haborder.png,1,m,Thu Jul 31 2025 13:41:13 GMT-0500 (Central Daylight Time),431129.0,CFD-WM-004-005-HC.jpg,1000,solid,I,m,858,12,2,56115.700000000186,375013.2999999998,8046,ATS,A,22
22,test,2,C,mfborder.png,1,m,Thu Jul 31 2025 13:41:13 GMT-0500 (Central Daylight Time),433778.0999999996,CFD-BM-005-010-A.jpg,2000,dash,I,m,624,5,2,58764.799999999814,375013.2999999998,8046,ATS,A,23
23,test,2,C,haborder.png,1,m,Thu Jul 31 2025 13:41:13 GMT-0500 (Central Daylight Time),435910.7999999998,CFD-WM-004-005-HC.jpg,1000,solid,I,m,1110,12,2,60897.5,375013.2999999998,8046,ATS,A,24
1,test,3,C,haborder.png,1,m,Thu Jul 31 2025 13:41:13 GMT-0500 (Central Daylight Time),439976.2999999998,CFD-WF-017-016-HC.jpg,1000,solid,I,m,784,12,2,1816.2000000001863,438160.0999999996,8046,ATS,A,1
2,test,3,C,mfborder.png,1,z,Thu Jul 31 2025 13:41:13 GMT-0500 (Central Daylight Time),442708.6999999997,CFD-BF-023-013-A.jpg,1600,dash,I,z,1104,2,2,4548.600000000093,438160.0999999996,8046,ATS,A,2
3,test,3,C,haborder.png,1,z,Thu Jul 31 2025 13:41:13 GMT-0500 (Central Daylight Time),445457.7999999998,CFD-BM-010-019-A.jpg,1700,solid,I,z,952,9,2,7297.700000000186,438160.0999999996,8046,ATS,A,3
4,test,3,C,haborder.png,1,m,Thu Jul 31 2025 13:41:13 GMT-0500 (Central Daylight Time),447140.6999999997,CFD-WF-017-016-HC.jpg,1000,solid,I,m,654,12,2,8980.600000000093,438160.0999999996,8046,ATS,A,4
4,test,3,C,haborder.png,0,z,Thu Jul 31 2025 13:41:13 GMT-0500 (Central Daylight Time),449573.1999999997,CFD-WM-013-015-A.jpg,1400,solid,I,m,1012,7,2,11413.100000000093,438160.0999999996,8046,ATS,A,5
4,test,3,C,mfborder.png,0,m,Thu Jul 31 2025 13:41:13 GMT-0500 (Central Daylight Time),451955.6999999997,CFD-WM-006-013-HC.jpg,1000,dash,I,z,1363,4,2,13795.600000000093,438160.0999999996,8046,ATS,A,6
5,test,3,C,mfborder.png,1,z,Thu Jul 31 2025 13:41:13 GMT-0500 (Central Daylight Time),454504.8999999999,CFD-BF-010-005-HC.jpg,1700,dash,I,z,817,1,2,16344.80000000028,438160.0999999996,8046,ATS,A,7
6,test,3,C,haborder.png,1,m,Thu Jul 31 2025 13:41:13 GMT-0500 (Central Daylight Time),456987.5999999996,CFD-WF-002-008-HC.jpg,1500,solid,I,m,956,11,2,18827.5,438160.0999999996,8046,ATS,A,8
7,test,3,C,mfborder.png,1,z,Thu Jul 31 2025 13:41:13 GMT-0500 (Central Daylight Time),459486.6999999997,CFD-BF-023-013-A.jpg,1600,dash,I,z,869,2,2,21326.600000000093,438160.0999999996,8046,ATS,A,9
8,test,3,C,haborder.png,1,z,Thu Jul 31 2025 13:41:13 GMT-0500 (Central Daylight Time),462169.2999999998,CFD-BM-010-019-A.jpg,1700,solid,I,z,966,9,2,24009.200000000186,438160.0999999996,8046,ATS,A,10
9,test,3,C,haborder.png,1,m,Thu Jul 31 2025 13:41:13 GMT-0500 (Central Daylight Time),464585.3999999999,CFD-BF-028-020-HC.jpg,1600,solid,I,m,799,10,2,26425.30000000028,438160.0999999996,8046,ATS,A,11
10,test,3,C,haborder.png,1,z,Thu Jul 31 2025 13:41:13 GMT-0500 (Central Daylight Time),467334.1999999997,CFD-BM-005-010-A.jpg,1900,solid,I,z,820,8,2,29174.100000000093,438160.0999999996,8046,ATS,A,12
11,test,3,C,haborder.png,1,m,Thu Jul 31 2025 13:41:13 GMT-0500 (Central Daylight Time),469483.6999999997,CFD-WF-002-008-HC.jpg,1500,solid,I,m,630,11,2,31323.600000000093,438160.0999999996,8046,ATS,A,13
12,test,3,C,haborder.png,1,m,Thu Jul 31 2025 13:41:13 GMT-0500 (Central Daylight Time),471966.1999999997,CFD-BF-028-020-HC.jpg,1600,solid,I,m,853,10,2,33806.10000000009,438160.0999999996,8046,ATS,A,14
12,test,3,C,mfborder.png,0,z,Thu Jul 31 2025 13:41:13 GMT-0500 (Central Daylight Time),474998.5,CFD-WF-003-014-A.jpg,1500,dash,I,None,1515,3,2,36838.40000000037,438160.0999999996,8046,ATS,A,15
13,test,3,C,mfborder.png,1,m,Thu Jul 31 2025 13:41:13 GMT-0500 (Central Daylight Time),477481.0999999996,CFD-WM-006-013-HC.jpg,1000,dash,I,m,1458,4,2,39321.0,438160.0999999996,8046,ATS,A,16
14,test,3,C,mfborder.png,1,m,Thu Jul 31 2025 13:41:13 GMT-0500 (Central Daylight Time),479513.6999999997,CFD-BM-029-026-HC.jpg,1200,dash,I,m,807,6,2,41353.60000000009,438160.0999999996,8046,ATS,A,17
15,test,3,C,mfborder.png,1,m,Thu Jul 31 2025 13:41:13 GMT-0500 (Central Daylight Time),481379.7999999998,CFD-BM-029-026-HC.jpg,1200,dash,I,m,647,6,2,43219.700000000186,438160.0999999996,8046,ATS,A,18
16,test,3,C,haborder.png,1,z,Thu Jul 31 2025 13:41:13 GMT-0500 (Central Daylight Time),484395.3999999999,CFD-BM-005-010-A.jpg,1900,solid,I,z,1097,8,2,46235.30000000028,438160.0999999996,8046,ATS,A,19
17,test,3,C,mfborder.png,1,z,Thu Jul 31 2025 13:41:13 GMT-0500 (Central Daylight Time),487461.1999999997,CFD-BF-010-005-HC.jpg,1700,dash,I,z,1337,1,2,49301.10000000009,438160.0999999996,8046,ATS,A,20
18,test,3,C,mfborder.png,1,m,Thu Jul 31 2025 13:41:13 GMT-0500 (Central Daylight Time),490660.1999999997,CFD-WM-019-013-A.jpg,2000,dash,I,m,1171,5,2,52500.10000000009,438160.0999999996,8046,ATS,A,21
19,test,3,C,mfborder.png,1,z,Thu Jul 31 2025 13:41:13 GMT-0500 (Central Daylight Time),493309.3999999999,CFD-WF-003-014-A.jpg,1500,dash,I,z,1128,3,2,55149.30000000028,438160.0999999996,8046,ATS,A,22
20,test,3,C,haborder.png,1,z,Thu Jul 31 2025 13:41:13 GMT-0500 (Central Daylight Time),495825.2999999998,CFD-WM-013-015-A.jpg,1400,solid,I,z,1091,7,2,57665.200000000186,438160.0999999996,8046,ATS,A,23
21,test,3,C,mfborder.png,1,m,Thu Jul 31 2025 13:41:13 GMT-0500 (Central Daylight Time),498857.6999999997,CFD-WM-019-013-A.jpg,2000,dash,I,m,1007,5,2,60697.60000000009,438160.0999999996,8046,ATS,A,24
1,test,4,C,haborder.png,1,m,Thu Jul 31 2025 13:41:13 GMT-0500 (Central Daylight Time),502839.6999999997,CFD-WM-004-005-HC.jpg,1500,solid,I,m,802,11,2,2332.5,500507.1999999997,8046,ATS,A,1
2,test,4,C,haborder.png,1,m,Thu Jul 31 2025 13:41:13 GMT-0500 (Central Daylight Time),505072.2999999998,CFD-WM-004-005-HC.jpg,1500,solid,I,m,701,11,2,4565.100000000093,500507.1999999997,8046,ATS,A,2
3,test,4,C,mfborder.png,1,z,Thu Jul 31 2025 13:41:13 GMT-0500 (Central Daylight Time),507838.0999999996,CFD-WF-017-016-HC.jpg,1700,dash,I,z,1036,1,2,7330.899999999907,500507.1999999997,8046,ATS,A,3
4,test,4,C,haborder.png,1,z,Thu Jul 31 2025 13:41:13 GMT-0500 (Central Daylight Time),510087.6999999997,CFD-BF-023-013-A.jpg,1400,solid,I,z,826,7,2,9580.5,500507.1999999997,8046,ATS,A,4
5,test,4,C,haborder.png,1,z,Thu Jul 31 2025 13:41:13 GMT-0500 (Central Daylight Time),512869.7999999998,CFD-WF-003-014-A.jpg,1700,solid,I,z,1061,9,2,12362.600000000093,500507.1999999997,8046,ATS,A,5
6,test,4,C,mfborder.png,1,m,Thu Jul 31 2025 13:41:13 GMT-0500 (Central Daylight Time),515868.8999999999,CFD-BM-005-010-A.jpg,2000,dash,I,m,979,5,2,15361.700000000186,500507.1999999997,8046,ATS,A,6
7,test,4,C,haborder.png,1,m,Thu Jul 31 2025 13:41:13 GMT-0500 (Central Daylight Time),518401.5,CFD-BM-029-026-HC.jpg,1600,solid,I,m,908,10,2,17894.30000000028,500507.1999999997,8046,ATS,A,7
8,test,4,C,mfborder.png,1,m,Thu Jul 31 2025 13:41:13 GMT-0500 (Central Daylight Time),520584.0999999996,CFD-BM-017-052-HC.jpg,1000,dash,I,m,1151,4,2,20076.899999999907,500507.1999999997,8046,ATS,A,8
9,test,4,C,mfborder.png,1,z,Thu Jul 31 2025 13:41:13 GMT-0500 (Central Daylight Time),523054.1999999997,CFD-BF-028-020-HC.jpg,1500,dash,I,z,941,3,2,22547.0,500507.1999999997,8046,ATS,A,9
10,test,4,C,haborder.png,1,z,Thu Jul 31 2025 13:41:13 GMT-0500 (Central Daylight Time),525582.5,CFD-WF-003-014-A.jpg,1700,solid,I,z,803,9,2,25075.30000000028,500507.1999999997,8046,ATS,A,10
11,test,4,C,haborder.png,1,m,Thu Jul 31 2025 13:41:13 GMT-0500 (Central Daylight Time),527415.3999999999,CFD-WM-004-005-HC.jpg,1000,solid,I,m,810,12,2,26908.200000000186,500507.1999999997,8046,ATS,A,11
12,test,4,C,haborder.png,1,z,Thu Jul 31 2025 13:41:13 GMT-0500 (Central Daylight Time),530147.6999999997,CFD-BF-039-039-A.jpg,1900,solid,I,z,813,8,2,29640.5,500507.1999999997,8046,ATS,A,12
13,test,4,C,mfborder.png,1,m,Thu Jul 31 2025 13:41:13 GMT-0500 (Central Daylight Time),533113.5,CFD-BM-005-010-A.jpg,2000,dash,I,m,941,5,2,32606.30000000028,500507.1999999997,8046,ATS,A,13
13,test,4,C,haborder.png,0,z,Thu Jul 31 2025 13:41:13 GMT-0500 (Central Daylight Time),536046.0999999996,CFD-BF-023-013-A.jpg,1400,solid,I,None,1516,7,2,35538.89999999991,500507.1999999997,8046,ATS,A,14
13,test,4,C,mfborder.png,0,z,Thu Jul 31 2025 13:41:13 GMT-0500 (Central Daylight Time),539278.1999999997,CFD-WF-017-016-HC.jpg,1700,dash,I,None,1516,1,2,38771.0,500507.1999999997,8046,ATS,A,15
13,test,4,C,mfborder.png,0,m,Thu Jul 31 2025 13:41:13 GMT-0500 (Central Daylight Time),541810.7999999998,CFD-BM-017-052-HC.jpg,1000,dash,I,None,1516,4,2,41303.60000000009,500507.1999999997,8046,ATS,A,16
14,test,4,C,mfborder.png,1,z,Thu Jul 31 2025 13:41:13 GMT-0500 (Central Daylight Time),544376.6999999997,CFD-WF-019-015-A.jpg,1600,dash,I,z,942,2,2,43869.5,500507.1999999997,8046,ATS,A,17
15,test,4,C,mfborder.png,1,m,Thu Jul 31 2025 13:41:13 GMT-0500 (Central Daylight Time),546242.6999999997,CFD-WM-013-015-A.jpg,1200,dash,I,m,640,6,2,45735.5,500507.1999999997,8046,ATS,A,18
16,test,4,C,mfborder.png,1,z,Thu Jul 31 2025 13:41:13 GMT-0500 (Central Daylight Time),548492.0,CFD-WF-019-015-A.jpg,1600,dash,I,z,622,2,2,47984.80000000028,500507.1999999997,8046,ATS,A,19
17,test,4,C,haborder.png,1,z,Thu Jul 31 2025 13:41:13 GMT-0500 (Central Daylight Time),551207.7999999998,CFD-BF-039-039-A.jpg,1900,solid,I,z,793,8,2,50700.60000000009,500507.1999999997,8046,ATS,A,20
18,test,4,C,mfborder.png,1,m,Thu Jul 31 2025 13:41:13 GMT-0500 (Central Daylight Time),553573.6999999997,CFD-WM-013-015-A.jpg,1200,dash,I,m,1136,6,2,53066.5,500507.1999999997,8046,ATS,A,21
19,test,4,C,haborder.png,1,m,Thu Jul 31 2025 13:41:13 GMT-0500 (Central Daylight Time),556556.2999999998,CFD-BM-029-026-HC.jpg,1600,solid,I,m,1355,10,2,56049.10000000009,500507.1999999997,8046,ATS,A,22
20,test,4,C,haborder.png,1,m,Thu Jul 31 2025 13:41:13 GMT-0500 (Central Daylight Time),558372.1999999997,CFD-WM-004-005-HC.jpg,1000,solid,I,m,796,12,2,57865.0,500507.1999999997,8046,ATS,A,23
21,test,4,C,mfborder.png,1,z,Thu Jul 31 2025 13:41:13 GMT-0500 (Central Daylight Time),560854.6999999997,CFD-BF-028-020-HC.jpg,1500,dash,I,z,960,3,2,60347.5,500507.1999999997,8046,ATS,A,24
