acc_sum,block_c,block_dur,condition,correct,correct_response,countdown,datetime,endtime,project,response,response_time,response_time_test1_response,response_time_test2_response,row_sel,same,session_number,start_end,starttime,stim1,stim2,subject_id,task,task_vers,time_test1,time_test2,trial
1,1,0.0,prac,1,m,30000.0,Mon Aug 11 2025 19:16:40 GMT-0500 (Central Daylight Time),30508.30000001192,O,m,2995,,,3,no,1,4526.5,25981.80000001192,QHZXPC,QHZWPC,7190,LC,B,,,1
2,1,0.0,prac,1,z,30000.0,Mon Aug 11 2025 19:16:40 GMT-0500 (Central Daylight Time),33274.0,O,z,1237,,,4,yes,1,2758.199999988079,30515.80000001192,RSM,RSM,7190,LC,B,,,2
2,1,0.0,prac,0,z,30000.0,Mon Aug 11 2025 19:16:40 GMT-0500 (Central Daylight Time),38123.59999999404,O,m,3320,,,6,yes,1,4842.899999976158,33280.70000001788,CSDBFPHXZ,CSDBFPHXZ,7190,LC,B,,,3
3,1,0.0,prac,1,m,30000.0,Mon Aug 11 2025 19:16:40 GMT-0500 (Central Daylight Time),41123.0,O,m,1485,,,5,no,1,2992.0999999940395,38130.90000000596,LNDPRSKQB,LNDPRSJQB,7190,LC,B,,,4
4,1,0.0,prac,1,z,30000.0,Mon Aug 11 2025 19:16:40 GMT-0500 (Central Daylight Time),44555.09999999404,O,z,1912,,,2,yes,1,3425.899999976158,41129.20000001788,NBGFSM,NBGFSM,7190,LC,B,,,5
5,1,0.0,prac,1,m,30000.0,Mon Aug 11 2025 19:16:40 GMT-0500 (Central Daylight Time),47087.20000001788,O,m,994,,,1,no,1,2525.7000000178814,44561.5,RNV,FNV,7190,LC,B,,,6
1,1,1.683000087738037,test,1,m,28316.999912261963,Mon Aug 11 2025 19:16:40 GMT-0500 (Central Daylight Time),50752.20000001788,O,m,1664,1664,,1,no,1,1679.6000000238419,49072.59999999404,HCF,RCF,7190,LC,B,46836,,1
1,1,2.8500001430511475,test,0,m,27149.999856948853,Mon Aug 11 2025 19:16:40 GMT-0500 (Central Daylight Time),51918.5,O,z,1158,1158,,2,no,1,1161.7999999821186,50756.70000001788,QTPRJX,QTPNJX,7190,LC,B,48520,,2
2,1,5.2820000648498535,test,1,m,24717.999935150146,Mon Aug 11 2025 19:16:40 GMT-0500 (Central Daylight Time),54351.09999999404,O,m,2415,2415,,3,no,1,2428.899999976158,51922.20000001788,MZDYGVGKQ,MZDYGLBKQ,7190,LC,B,49686,,3
3,1,6.332000017166138,test,1,m,23667.999982833862,Mon Aug 11 2025 19:16:40 GMT-0500 (Central Daylight Time),55401.0,O,m,1037,1037,,4,no,1,1044.9000000059605,54356.09999999404,FQTNMK,JQTNMK,7190,LC,B,52120,,4
4,1,7.615000009536743,test,1,z,22384.999990463257,Mon Aug 11 2025 19:16:40 GMT-0500 (Central Daylight Time),56683.70000001788,O,z,1263,1263,,5,yes,1,1279.300000011921,55404.40000000596,CLJ,CLJ,7190,LC,B,53168,,5
5,1,10.330000162124634,test,1,m,19669.999837875366,Mon Aug 11 2025 19:16:40 GMT-0500 (Central Daylight Time),59399.70000001788,O,m,2705,2705,,6,no,1,2711.800000011921,56687.90000000596,JGDMNSVPW,JGZMNSVPW,7190,LC,B,54452,,6
6,1,12.979000091552734,test,1,z,17020.999908447266,Mon Aug 11 2025 19:16:40 GMT-0500 (Central Daylight Time),62048.09999999404,O,z,2629,2629,,7,yes,1,2644.5999999940395,59403.5,FPTVHKCBJ,FPTVHKCBJ,7190,LC,B,57167,,7
7,1,14.61300015449524,test,1,m,15386.99984550476,Mon Aug 11 2025 19:16:40 GMT-0500 (Central Daylight Time),63682.30000001192,O,m,1623,1623,,8,no,1,1630.9000000059605,62051.40000000596,XRPZBS,ZRPBDH,7190,LC,B,59815,,8
8,1,15.82800006866455,test,1,m,14171.99993133545,Mon Aug 11 2025 19:16:40 GMT-0500 (Central Daylight Time),64897.90000000596,O,m,1197,1197,,9,no,1,1211.699999988079,63686.20000001788,ZSQ,ZSP,7190,LC,B,61450,,9
9,1,18.044000148773193,test,1,z,11955.999851226807,Mon Aug 11 2025 19:16:40 GMT-0500 (Central Daylight Time),67113.40000000596,O,z,2197,2197,,10,yes,1,2211.5,64901.90000000596,MPZRXL,MPZRXL,7190,LC,B,62665,,10
10,1,19.044000148773193,test,1,m,10955.999851226807,Mon Aug 11 2025 19:16:40 GMT-0500 (Central Daylight Time),68113.0,O,m,986,986,,11,no,1,994.5999999940395,67118.40000000596,KJH,KRH,7190,LC,B,64882,,11
10,1,20.511000156402588,test,0,z,9488.999843597412,Mon Aug 11 2025 19:16:40 GMT-0500 (Central Daylight Time),69580.70000001788,O,m,1452,1452,,12,yes,1,1463.6000000238419,68117.09999999404,SMNHVTFCB,SMNHVTFCB,7190,LC,B,65881,,12
11,1,23.076000213623047,test,1,z,6923.999786376953,Mon Aug 11 2025 19:16:40 GMT-0500 (Central Daylight Time),72145.5,O,z,2545,2545,,13,yes,1,2560.699999988079,69584.80000001192,KJWTQF,KJWTQF,7190,LC,B,67348,,13
12,1,25.991000175476074,test,1,z,4008.999824523926,Mon Aug 11 2025 19:16:40 GMT-0500 (Central Daylight Time),75060.59999999404,O,z,2894,2894,,14,yes,1,2910.899999976158,72149.70000001788,CHDKQGLMB,CHDKQGLMB,7190,LC,B,69913,,14
13,1,27.058000087738037,test,1,z,2941.999912261963,Mon Aug 11 2025 19:16:40 GMT-0500 (Central Daylight Time),76127.20000001788,O,z,1048,1048,,15,yes,1,1062.800000011921,75064.40000000596,GHQ,GHQ,7190,LC,B,72828,,15
14,1,28.741000175476074,test,1,z,1258.9998245239258,Mon Aug 11 2025 19:16:40 GMT-0500 (Central Daylight Time),77810.40000000596,O,z,1671,1671,,16,yes,1,1678.5999999940395,76131.80000001192,GFVMRH,GFVMRH,7190,LC,B,73895,,16
15,1,29.69000005722046,test,1,z,309.999942779541,Mon Aug 11 2025 19:16:40 GMT-0500 (Central Daylight Time),78759.09999999404,O,z,932,932,,17,yes,1,945.0999999940395,77814.0,RSM,RSM,7190,LC,B,75577,,17
15,1,30.008000135421753,test,0,m,-8.00013542175293,Mon Aug 11 2025 19:16:40 GMT-0500 (Central Daylight Time),79077.30000001192,O,None,313,313,,18,no,1,314.09999999403954,78763.20000001788,BSRJTRMLG,BSFJTRMLG,7190,LC,B,76527,,18
1,2,3.4159998893737793,test,1,z,26584.00011062622,Mon Aug 11 2025 19:16:40 GMT-0500 (Central Daylight Time),85341.30000001192,O,z,3397,,3397.0,1,yes,1,6578.0999999940395,78763.20000001788,PRDBZTYFN,PRDBZTYFN,7190,LC,B,,79691.0,1
1,2,6.330999851226807,test,0,m,23669.000148773193,Mon Aug 11 2025 19:16:40 GMT-0500 (Central Daylight Time),88256.30000001192,O,z,2904,,2904.0,2,no,1,9493.09999999404,78763.20000001788,NCWJDZ,NCMJDZ,7190,LC,B,,83109.0,2
2,2,7.680999994277954,test,1,m,22319.000005722046,Mon Aug 11 2025 19:16:40 GMT-0500 (Central Daylight Time),89606.40000000596,O,m,1334,,1334.0,3,no,1,10843.199999988079,78763.20000001788,KHW,KBW,7190,LC,B,,86023.0,3
3,2,9.77999997138977,test,1,m,20220.00002861023,Mon Aug 11 2025 19:16:40 GMT-0500 (Central Daylight Time),91705.90000000596,O,m,2088,,2088.0,4,no,1,12942.699999988079,78763.20000001788,ZRBGMF,ZRBCMF,7190,LC,B,,87373.0,4
4,2,11.11299991607666,test,1,m,18887.00008392334,Mon Aug 11 2025 19:16:40 GMT-0500 (Central Daylight Time),93038.5,O,m,1313,,1313.0,5,no,1,14275.299999982119,78763.20000001788,BTH,BYH,7190,LC,B,,89475.0,5
5,2,12.829999923706055,test,1,z,17170.000076293945,Mon Aug 11 2025 19:16:40 GMT-0500 (Central Daylight Time),94755.0,O,z,1696,,1696.0,6,yes,1,15991.799999982119,78763.20000001788,XWKQRYCNZ,XWKQRYCNZ,7190,LC,B,,90807.0,6
6,2,14.812999963760376,test,1,z,15187.000036239624,Mon Aug 11 2025 19:16:40 GMT-0500 (Central Daylight Time),96738.20000001788,O,z,1973,,1973.0,7,yes,1,17975.0,78763.20000001788,HNPDLK,HNPDLK,7190,LC,B,,92522.0,7
6,2,17.310999870300293,test,0,m,12689.000129699707,Mon Aug 11 2025 19:16:40 GMT-0500 (Central Daylight Time),99236.5,O,z,2484,,2484.0,8,no,1,20473.29999998212,78763.20000001788,WMQTRSGLZ,WMQTRZGLZ,7190,LC,B,,94505.0,8
7,2,18.477999925613403,test,1,z,11522.000074386597,Mon Aug 11 2025 19:16:40 GMT-0500 (Central Daylight Time),100403.90000000596,O,z,1146,,1146.0,9,yes,1,21640.69999998808,78763.20000001788,JPN,JPN,7190,LC,B,,97004.0,9
8,2,20.126999855041504,test,1,m,9873.000144958496,Mon Aug 11 2025 19:16:40 GMT-0500 (Central Daylight Time),102052.40000000596,O,m,1628,,1628.0,10,no,1,23289.19999998808,78763.20000001788,QLXSVT,QLNSVT,7190,LC,B,,98172.0,10
8,2,22.676999807357788,test,0,z,7323.000192642212,Mon Aug 11 2025 19:16:40 GMT-0500 (Central Daylight Time),104602.20000001788,O,m,2545,,2545.0,11,yes,1,25839.0,78763.20000001788,YXHKZVFPB,YXHKZVFPD,7190,LC,B,,99820.0,11
9,2,24.908999919891357,test,1,z,5091.000080108643,Mon Aug 11 2025 19:16:40 GMT-0500 (Central Daylight Time),106834.30000001192,O,z,2221,,2221.0,12,yes,1,28071.09999999404,78763.20000001788,RJZ,RJZ,7190,LC,B,,102368.0,12
10,2,27.092000007629395,test,1,z,2907.9999923706055,Mon Aug 11 2025 19:16:40 GMT-0500 (Central Daylight Time),109017.0,O,z,2172,,2172.0,13,yes,1,30253.79999998212,78763.20000001788,CLNPZD,CLNPZD,7190,LC,B,,104601.0,13
11,2,29.372999906539917,test,1,m,627.000093460083,Mon Aug 11 2025 19:16:40 GMT-0500 (Central Daylight Time),111298.80000001192,O,m,2269,,2269.0,14,no,1,32535.59999999404,78763.20000001788,DCBPFHXYJ,DCBPFHLYJ,7190,LC,B,,106785.0,14
11,2,30.007999897003174,test,0,m,-7.999897003173828,Mon Aug 11 2025 19:16:40 GMT-0500 (Central Daylight Time),111933.20000001788,O,None,631,,631.0,15,no,1,33170.0,78763.20000001788,MWR,ZWR,7190,LC,B,,109065.0,15
