block_c,block_dur,condition,countdown,datetime,endtime,list,multichar_response,project,response,response_time,session_number,start_end,starttime,subject_id,task,task_vers,trial
,,,,Tue Nov 25 2025 13:52:03 GMT-0600 (Central Standard Time),,,,O,space,591,1,,,7252,WL,C,
prac,,0,,Tue Nov 25 2025 13:52:03 GMT-0600 (Central Standard Time),,NA,b,O,b,1343,1,,,7252,WL,C,1.0
prac,,0,,Tue Nov 25 2025 13:52:03 GMT-0600 (Central Standard Time),,NA,bo,O,o,239,1,,,7252,WL,C,1.0
prac,,0,,Tue Nov 25 2025 13:52:03 GMT-0600 (Central Standard Time),,NA,boo,O,o,107,1,,,7252,WL,C,1.0
prac,,0,,Tue Nov 25 2025 13:52:03 GMT-0600 (Central Standard Time),,NA,boos,O,s,96,1,,,7252,WL,C,1.0
prac,,0,,Tue Nov 25 2025 13:52:03 GMT-0600 (Central Standard Time),,NA,boost,O,t,132,1,,,7252,WL,C,1.0
prac,,0,,Tue Nov 25 2025 13:52:03 GMT-0600 (Central Standard Time),,NA,boostenter,O,enter,382,1,,,7252,WL,C,1.0
1,1.0320000648498535,learn,58967.99993515015,Tue Nov 25 2025 13:52:03 GMT-0600 (Central Standard Time),120514.70000001788,A,t,O,t,1019,1,1032.5,119482.20000001788,7252,WL,C,1.0
1,1.1489999294281006,learn,58851.0000705719,Tue Nov 25 2025 13:52:03 GMT-0600 (Central Standard Time),120631.80000001192,A,to,O,o,100,1,1149.5999999940395,119482.20000001788,7252,WL,C,1.0
1,1.249000072479248,learn,58750.99992752075,Tue Nov 25 2025 13:52:03 GMT-0600 (Central Standard Time),120730.90000000596,A,tow,O,w,91,1,1248.699999988079,119482.20000001788,7252,WL,C,1.0
1,1.3989999294281006,learn,58601.0000705719,Tue Nov 25 2025 13:52:03 GMT-0600 (Central Standard Time),120880.90000000596,A,towe,O,e,131,1,1398.699999988079,119482.20000001788,7252,WL,C,1.0
1,1.5150001049041748,learn,58484.999895095825,Tue Nov 25 2025 13:52:03 GMT-0600 (Central Standard Time),120997.59999999404,A,tower,O,r,99,1,1515.3999999761581,119482.20000001788,7252,WL,C,1.0
1,2.0490000247955322,learn,57950.99997520447,Tue Nov 25 2025 13:52:03 GMT-0600 (Central Standard Time),121531.59999999404,A,towerenter,O,enter,520,1,2049.399999976158,119482.20000001788,7252,WL,C,1.0
1,2.4839999675750732,learn,57516.00003242493,Tue Nov 25 2025 13:52:03 GMT-0600 (Central Standard Time),121966.0,A,w,O,w,419,1,434.19999998807907,121531.80000001192,7252,WL,C,2.0
1,2.684000015258789,learn,57315.99998474121,Tue Nov 25 2025 13:52:03 GMT-0600 (Central Standard Time),122165.80000001192,A,wh,O,h,184,1,634.0,121531.80000001192,7252,WL,C,2.0
1,3.0840001106262207,learn,56915.99988937378,Tue Nov 25 2025 13:52:03 GMT-0600 (Central Standard Time),122566.40000000596,A,whe,O,e,384,1,1034.5999999940395,121531.80000001192,7252,WL,C,2.0
1,3.2009999752044678,learn,56799.00002479553,Tue Nov 25 2025 13:52:03 GMT-0600 (Central Standard Time),122683.59999999404,A,whea,O,a,111,1,1151.7999999821186,121531.80000001192,7252,WL,C,2.0
1,3.316999912261963,learn,56683.00008773804,Tue Nov 25 2025 13:52:03 GMT-0600 (Central Standard Time),122799.5,A,wheat,O,t,107,1,1267.699999988079,121531.80000001192,7252,WL,C,2.0
1,3.5829999446868896,learn,56417.00005531311,Tue Nov 25 2025 13:52:03 GMT-0600 (Central Standard Time),123065.0,A,wheatenter,O,enter,254,1,1533.199999988079,121531.80000001192,7252,WL,C,2.0
1,3.950000047683716,learn,56049.999952316284,Tue Nov 25 2025 13:52:03 GMT-0600 (Central Standard Time),123432.0,A,q,O,q,357,1,366.69999998807907,123065.30000001192,7252,WL,C,3.0
1,4.1000001430511475,learn,55899.99985694885,Tue Nov 25 2025 13:52:03 GMT-0600 (Central Standard Time),123581.80000001192,A,qu,O,u,134,1,516.5,123065.30000001192,7252,WL,C,3.0
1,4.2829999923706055,learn,55717.000007629395,Tue Nov 25 2025 13:52:03 GMT-0600 (Central Standard Time),123765.20000001788,A,que,O,e,169,1,699.9000000059605,123065.30000001192,7252,WL,C,3.0
1,4.433000087738037,learn,55566.99991226196,Tue Nov 25 2025 13:52:03 GMT-0600 (Central Standard Time),123915.0,A,quee,O,e,136,1,849.6999999880791,123065.30000001192,7252,WL,C,3.0
1,4.565999984741211,learn,55434.00001525879,Tue Nov 25 2025 13:52:03 GMT-0600 (Central Standard Time),124048.0,A,queen,O,n,123,1,982.6999999880791,123065.30000001192,7252,WL,C,3.0
1,4.83299994468689,learn,55167.00005531311,Tue Nov 25 2025 13:52:03 GMT-0600 (Central Standard Time),124315.30000001192,A,queenenter,O,enter,263,1,1250.0,123065.30000001192,7252,WL,C,3.0
1,7.3480000495910645,learn,52651.999950408936,Tue Nov 25 2025 13:52:03 GMT-0600 (Central Standard Time),126830.5,A,d,O,d,2497,1,2514.699999988079,124315.80000001192,7252,WL,C,4.0
1,7.430999994277954,learn,52569.000005722046,Tue Nov 25 2025 13:52:03 GMT-0600 (Central Standard Time),126913.30000001192,A,do,O,o,71,1,2597.5,124315.80000001192,7252,WL,C,4.0
1,7.58299994468689,learn,52417.00005531311,Tue Nov 25 2025 13:52:03 GMT-0600 (Central Standard Time),127064.70000001788,A,doc,O,c,142,1,2748.9000000059605,124315.80000001192,7252,WL,C,4.0
1,7.747999906539917,learn,52252.00009346008,Tue Nov 25 2025 13:52:03 GMT-0600 (Central Standard Time),127230.5,A,doct,O,t,157,1,2914.699999988079,124315.80000001192,7252,WL,C,4.0
1,7.831000089645386,learn,52168.999910354614,Tue Nov 25 2025 13:52:03 GMT-0600 (Central Standard Time),127313.20000001788,A,docto,O,o,64,1,2997.4000000059605,124315.80000001192,7252,WL,C,4.0
1,7.914999961853027,learn,52085.00003814697,Tue Nov 25 2025 13:52:03 GMT-0600 (Central Standard Time),127397.30000001192,A,doctor,O,r,69,1,3081.5,124315.80000001192,7252,WL,C,4.0
1,8.197999954223633,learn,51802.00004577637,Tue Nov 25 2025 13:52:03 GMT-0600 (Central Standard Time),127680.5,A,doctorenter,O,enter,272,1,3364.699999988079,124315.80000001192,7252,WL,C,4.0
1,8.747999906539917,learn,51252.00009346008,Tue Nov 25 2025 13:52:03 GMT-0600 (Central Standard Time),128230.59999999404,A,h,O,h,533,1,549.6999999880791,127680.90000000596,7252,WL,C,5.0
1,8.79800009727478,learn,51201.99990272522,Tue Nov 25 2025 13:52:03 GMT-0600 (Central Standard Time),128279.80000001192,A,ho,O,o,39,1,598.9000000059605,127680.90000000596,7252,WL,C,5.0
1,8.930999994277954,learn,51069.000005722046,Tue Nov 25 2025 13:52:03 GMT-0600 (Central Standard Time),128413.09999999404,A,hom,O,m,118,1,732.1999999880791,127680.90000000596,7252,WL,C,5.0
1,9.049000024795532,learn,50950.99997520447,Tue Nov 25 2025 13:52:03 GMT-0600 (Central Standard Time),128530.80000001192,A,home,O,e,106,1,849.9000000059605,127680.90000000596,7252,WL,C,5.0
1,9.247999906539917,learn,50752.00009346008,Tue Nov 25 2025 13:52:03 GMT-0600 (Central Standard Time),128730.20000001788,A,homeenter,O,enter,180,1,1049.300000011921,127680.90000000596,7252,WL,C,5.0
1,9.581000089645386,learn,50418.999910354614,Tue Nov 25 2025 13:52:03 GMT-0600 (Central Standard Time),129062.90000000596,A,b,O,b,323,1,332.40000000596046,128730.5,7252,WL,C,6.0
1,9.681999921798706,learn,50318.000078201294,Tue Nov 25 2025 13:52:03 GMT-0600 (Central Standard Time),129164.09999999404,A,bo,O,o,98,1,433.59999999403954,128730.5,7252,WL,C,6.0
1,9.832000017166138,learn,50167.99998283386,Tue Nov 25 2025 13:52:03 GMT-0600 (Central Standard Time),129313.90000000596,A,boy,O,y,130,1,583.4000000059605,128730.5,7252,WL,C,6.0
1,10.480999946594238,learn,49519.00005340576,Tue Nov 25 2025 13:52:03 GMT-0600 (Central Standard Time),129963.70000001788,A,boyenter,O,enter,636,1,1233.2000000178814,128730.5,7252,WL,C,6.0
1,12.781000137329102,learn,47218.9998626709,Tue Nov 25 2025 13:52:03 GMT-0600 (Central Standard Time),132263.5,A,w,O,w,2291,1,2299.5999999940395,129963.90000000596,7252,WL,C,7.0
1,12.897000074386597,learn,47102.9999256134,Tue Nov 25 2025 13:52:03 GMT-0600 (Central Standard Time),132379.09999999404,A,wh,O,h,111,1,2415.199999988079,129963.90000000596,7252,WL,C,7.0
1,13.397000074386597,learn,46602.9999256134,Tue Nov 25 2025 13:52:03 GMT-0600 (Central Standard Time),132879.09999999404,A,w,O,backspace,492,1,2915.199999988079,129963.90000000596,7252,WL,C,7.0
1,13.546000003814697,learn,46453.9999961853,Tue Nov 25 2025 13:52:03 GMT-0600 (Central Standard Time),133028.59999999404,A,,O,backspace,135,1,3064.699999988079,129963.90000000596,7252,WL,C,7.0
1,31.54100012779236,learn,28458.99987220764,Tue Nov 25 2025 13:52:03 GMT-0600 (Central Standard Time),151023.59999999404,A,enter,O,enter,17978,1,21059.69999998808,129963.90000000596,7252,WL,C,7.0
1,49.08500003814697,learn,10914.999961853027,Tue Nov 25 2025 13:52:03 GMT-0600 (Central Standard Time),168567.5,A,enter,O,enter,17527,1,17543.69999998808,151023.80000001192,7252,WL,C,8.0
1,49.78500008583069,learn,10214.999914169312,Tue Nov 25 2025 13:52:03 GMT-0600 (Central Standard Time),169267.59999999404,A,enter,O,enter,687,1,699.7999999821186,168567.80000001192,7252,WL,C,9.0
1,50.551000118255615,learn,9448.999881744385,Tue Nov 25 2025 13:52:03 GMT-0600 (Central Standard Time),170033.20000001788,A,enter,O,enter,745,1,765.2000000178814,169268.0,7252,WL,C,10.0
1,51.01699995994568,learn,8983.000040054321,Tue Nov 25 2025 13:52:03 GMT-0600 (Central Standard Time),170499.70000001788,A,enter,O,enter,453,1,466.2000000178814,170033.5,7252,WL,C,11.0
1,51.36800003051758,learn,8631.999969482422,Tue Nov 25 2025 13:52:03 GMT-0600 (Central Standard Time),170850.70000001788,A,enter,O,enter,330,1,350.80000001192093,170499.90000000596,7252,WL,C,12.0
1,51.68400001525879,learn,8315.999984741211,Tue Nov 25 2025 13:52:03 GMT-0600 (Central Standard Time),171166.09999999404,A,enter,O,enter,299,1,315.19999998807907,170850.90000000596,7252,WL,C,13.0
1,52.03500008583069,learn,7964.9999141693115,Tue Nov 25 2025 13:52:03 GMT-0600 (Central Standard Time),171516.90000000596,A,enter,O,enter,345,1,350.5,171166.40000000596,7252,WL,C,14.0
1,52.48399996757507,learn,7516.000032424927,Tue Nov 25 2025 13:52:03 GMT-0600 (Central Standard Time),171966.5,A,enter,O,enter,432,1,449.2999999821186,171517.20000001788,7252,WL,C,15.0
2,2.3499999046325684,learn,57650.00009536743,Tue Nov 25 2025 13:52:03 GMT-0600 (Central Standard Time),243710.90000000596,A,d,O,d,2342,1,2349.699999988079,241361.20000001788,7252,WL,C,1.0
2,2.449000120162964,learn,57550.999879837036,Tue Nov 25 2025 13:52:03 GMT-0600 (Central Standard Time),243810.20000001788,A,do,O,o,79,1,2449.0,241361.20000001788,7252,WL,C,1.0
2,2.5320000648498535,learn,57467.99993515015,Tue Nov 25 2025 13:52:03 GMT-0600 (Central Standard Time),243893.0,A,doc,O,c,76,1,2531.7999999821186,241361.20000001788,7252,WL,C,1.0
2,2.681999921798706,learn,57318.000078201294,Tue Nov 25 2025 13:52:03 GMT-0600 (Central Standard Time),244043.5,A,doct,O,t,139,1,2682.2999999821186,241361.20000001788,7252,WL,C,1.0
2,2.815000057220459,learn,57184.99994277954,Tue Nov 25 2025 13:52:03 GMT-0600 (Central Standard Time),244176.59999999404,A,docto,O,o,115,1,2815.399999976158,241361.20000001788,7252,WL,C,1.0
2,2.9820001125335693,learn,57017.99988746643,Tue Nov 25 2025 13:52:03 GMT-0600 (Central Standard Time),244343.80000001192,A,doctor,O,r,150,1,2982.5999999940395,241361.20000001788,7252,WL,C,1.0
2,3.6640000343322754,learn,56335.999965667725,Tue Nov 25 2025 13:52:03 GMT-0600 (Central Standard Time),245025.70000001788,A,doctorw,O,w,663,1,3664.5,241361.20000001788,7252,WL,C,1.0
2,3.7320001125335693,learn,56267.99988746643,Tue Nov 25 2025 13:52:03 GMT-0600 (Central Standard Time),245093.20000001788,A,doctorwh,O,h,61,1,3732.0,241361.20000001788,7252,WL,C,1.0
2,4.16700005531311,learn,55832.99994468689,Tue Nov 25 2025 13:52:03 GMT-0600 (Central Standard Time),245528.30000001192,A,doctorw,O,backspace,426,1,4167.0999999940395,241361.20000001788,7252,WL,C,1.0
2,4.2809998989105225,learn,55719.00010108948,Tue Nov 25 2025 13:52:03 GMT-0600 (Central Standard Time),245642.40000000596,A,doctor,O,backspace,103,1,4281.199999988079,241361.20000001788,7252,WL,C,1.0
2,4.615000009536743,learn,55384.99999046326,Tue Nov 25 2025 13:52:03 GMT-0600 (Central Standard Time),245975.90000000596,A,doctorenter,O,enter,325,1,4614.699999988079,241361.20000001788,7252,WL,C,1.0
2,4.999000072479248,learn,55000.99992752075,Tue Nov 25 2025 13:52:03 GMT-0600 (Central Standard Time),246360.20000001788,A,w,O,w,366,1,384.10000002384186,245976.09999999404,7252,WL,C,2.0
2,5.148000001907349,learn,54851.99999809265,Tue Nov 25 2025 13:52:03 GMT-0600 (Central Standard Time),246509.0,A,wh,O,h,142,1,532.9000000059605,245976.09999999404,7252,WL,C,2.0
2,5.247999906539917,learn,54752.00009346008,Tue Nov 25 2025 13:52:03 GMT-0600 (Central Standard Time),246609.5,A,wha,O,a,80,1,633.4000000059605,245976.09999999404,7252,WL,C,2.0
2,5.29800009727478,learn,54701.99990272522,Tue Nov 25 2025 13:52:03 GMT-0600 (Central Standard Time),246659.0,A,what,O,t,45,1,682.9000000059605,245976.09999999404,7252,WL,C,2.0
2,5.7820000648498535,learn,54217.99993515015,Tue Nov 25 2025 13:52:03 GMT-0600 (Central Standard Time),247143.40000000596,A,wha,O,backspace,477,1,1167.300000011921,245976.09999999404,7252,WL,C,2.0
2,5.88100004196167,learn,54118.99995803833,Tue Nov 25 2025 13:52:03 GMT-0600 (Central Standard Time),247242.59999999404,A,wh,O,backspace,95,1,1266.5,245976.09999999404,7252,WL,C,2.0
2,5.997999906539917,learn,54002.00009346008,Tue Nov 25 2025 13:52:03 GMT-0600 (Central Standard Time),247358.80000001192,A,whe,O,e,109,1,1382.7000000178814,245976.09999999404,7252,WL,C,2.0
2,6.081000089645386,learn,53918.999910354614,Tue Nov 25 2025 13:52:03 GMT-0600 (Central Standard Time),247442.40000000596,A,whea,O,a,71,1,1466.300000011921,245976.09999999404,7252,WL,C,2.0
2,6.197999954223633,learn,53802.00004577637,Tue Nov 25 2025 13:52:03 GMT-0600 (Central Standard Time),247559.59999999404,A,wheat,O,t,108,1,1583.5,245976.09999999404,7252,WL,C,2.0
2,6.365000009536743,learn,53634.99999046326,Tue Nov 25 2025 13:52:03 GMT-0600 (Central Standard Time),247725.80000001192,A,wheatenter,O,enter,158,1,1749.7000000178814,245976.09999999404,7252,WL,C,2.0
2,6.997999906539917,learn,53002.00009346008,Tue Nov 25 2025 13:52:03 GMT-0600 (Central Standard Time),248359.30000001192,A,q,O,q,617,1,633.2000000178814,247726.09999999404,7252,WL,C,3.0
2,7.331000089645386,learn,52668.999910354614,Tue Nov 25 2025 13:52:03 GMT-0600 (Central Standard Time),248692.40000000596,A,qu,O,u,329,1,966.3000000119209,247726.09999999404,7252,WL,C,3.0
2,7.513999938964844,learn,52486.000061035156,Tue Nov 25 2025 13:52:03 GMT-0600 (Central Standard Time),248875.0,A,que,O,e,171,1,1148.9000000059605,247726.09999999404,7252,WL,C,3.0
2,7.680999994277954,learn,52319.000005722046,Tue Nov 25 2025 13:52:03 GMT-0600 (Central Standard Time),249041.90000000596,A,quee,O,e,148,1,1315.800000011921,247726.09999999404,7252,WL,C,3.0
2,7.747999906539917,learn,52252.00009346008,Tue Nov 25 2025 13:52:03 GMT-0600 (Central Standard Time),249109.0,A,queen,O,n,61,1,1382.9000000059605,247726.09999999404,7252,WL,C,3.0
2,7.898000001907349,learn,52101.99999809265,Tue Nov 25 2025 13:52:03 GMT-0600 (Central Standard Time),249258.80000001192,A,queenenter,O,enter,147,1,1532.7000000178814,247726.09999999404,7252,WL,C,3.0
2,8.098000049591064,learn,51901.999950408936,Tue Nov 25 2025 13:52:03 GMT-0600 (Central Standard Time),249459.09999999404,A,s,O,s,197,1,200.0,249259.09999999404,7252,WL,C,4.0
2,8.214999914169312,learn,51785.00008583069,Tue Nov 25 2025 13:52:03 GMT-0600 (Central Standard Time),249576.5,A,su,O,u,99,1,317.40000000596046,249259.09999999404,7252,WL,C,4.0
2,8.364000082015991,learn,51635.99991798401,Tue Nov 25 2025 13:52:03 GMT-0600 (Central Standard Time),249725.0,A,sug,O,g,142,1,465.90000000596046,249259.09999999404,7252,WL,C,4.0
2,8.579999923706055,learn,51420.000076293945,Tue Nov 25 2025 13:52:03 GMT-0600 (Central Standard Time),249941.40000000596,A,suga,O,a,203,1,682.3000000119209,249259.09999999404,7252,WL,C,4.0
2,8.664000034332275,learn,51335.999965667725,Tue Nov 25 2025 13:52:03 GMT-0600 (Central Standard Time),250025.20000001788,A,sugar,O,r,75,1,766.1000000238419,249259.09999999404,7252,WL,C,4.0
2,8.864000082015991,learn,51135.99991798401,Tue Nov 25 2025 13:52:03 GMT-0600 (Central Standard Time),250224.90000000596,A,sugarenter,O,enter,190,1,965.8000000119209,249259.09999999404,7252,WL,C,4.0
2,9.21399998664856,learn,50786.00001335144,Tue Nov 25 2025 13:52:03 GMT-0600 (Central Standard Time),250574.70000001788,A,h,O,h,335,1,349.5,250225.20000001788,7252,WL,C,5.0
2,9.265000104904175,learn,50734.999895095825,Tue Nov 25 2025 13:52:03 GMT-0600 (Central Standard Time),250626.30000001192,A,ho,O,o,48,1,401.09999999403954,250225.20000001788,7252,WL,C,5.0
2,9.397000074386597,learn,50602.9999256134,Tue Nov 25 2025 13:52:03 GMT-0600 (Central Standard Time),250758.5,A,hom,O,m,126,1,533.2999999821186,250225.20000001788,7252,WL,C,5.0
2,9.579999923706055,learn,50420.000076293945,Tue Nov 25 2025 13:52:03 GMT-0600 (Central Standard Time),250941.40000000596,A,home,O,e,176,1,716.1999999880791,250225.20000001788,7252,WL,C,5.0
2,10.378999948501587,learn,49621.00005149841,Tue Nov 25 2025 13:52:03 GMT-0600 (Central Standard Time),251740.70000001788,A,homeenter,O,enter,795,1,1515.5,250225.20000001788,7252,WL,C,5.0
2,10.730000019073486,learn,49269.999980926514,Tue Nov 25 2025 13:52:03 GMT-0600 (Central Standard Time),252091.09999999404,A,b,O,b,339,1,350.09999999403954,251741.0,7252,WL,C,6.0
2,10.812999963760376,learn,49187.000036239624,Tue Nov 25 2025 13:52:03 GMT-0600 (Central Standard Time),252173.90000000596,A,bo,O,o,75,1,432.90000000596046,251741.0,7252,WL,C,6.0
2,10.897000074386597,learn,49102.9999256134,Tue Nov 25 2025 13:52:03 GMT-0600 (Central Standard Time),252257.80000001192,A,boy,O,y,65,1,516.8000000119209,251741.0,7252,WL,C,6.0
2,11.078999996185303,learn,48921.0000038147,Tue Nov 25 2025 13:52:03 GMT-0600 (Central Standard Time),252440.5,A,boyenter,O,enter,173,1,699.5,251741.0,7252,WL,C,6.0
2,11.345999956130981,learn,48654.00004386902,Tue Nov 25 2025 13:52:03 GMT-0600 (Central Standard Time),252707.70000001788,A,c,O,c,261,1,267.0,252440.70000001788,7252,WL,C,7.0
2,11.44700002670288,learn,48552.99997329712,Tue Nov 25 2025 13:52:03 GMT-0600 (Central Standard Time),252808.0,A,ca,O,a,83,1,367.2999999821186,252440.70000001788,7252,WL,C,7.0
2,11.54699993133545,learn,48453.00006866455,Tue Nov 25 2025 13:52:03 GMT-0600 (Central Standard Time),252907.80000001192,A,cam,O,m,96,1,467.09999999403954,252440.70000001788,7252,WL,C,7.0
2,11.628999948501587,learn,48371.00005149841,Tue Nov 25 2025 13:52:03 GMT-0600 (Central Standard Time),252990.5,A,camp,O,p,75,1,549.7999999821186,252440.70000001788,7252,WL,C,7.0
2,11.713000059127808,learn,48286.99994087219,Tue Nov 25 2025 13:52:03 GMT-0600 (Central Standard Time),253074.59999999404,A,campu,O,u,81,1,633.8999999761581,252440.70000001788,7252,WL,C,7.0
2,11.928999900817871,learn,48071.00009918213,Tue Nov 25 2025 13:52:03 GMT-0600 (Central Standard Time),253290.40000000596,A,campuenter,O,enter,205,1,849.6999999880791,252440.70000001788,7252,WL,C,7.0
2,12.911999940872192,learn,47088.00005912781,Tue Nov 25 2025 13:52:03 GMT-0600 (Central Standard Time),254273.0,A,c,O,c,973,1,982.4000000059605,253290.59999999404,7252,WL,C,8.0
2,13.013000011444092,learn,46986.99998855591,Tue Nov 25 2025 13:52:03 GMT-0600 (Central Standard Time),254374.40000000596,A,ca,O,a,95,1,1083.800000011921,253290.59999999404,7252,WL,C,8.0
2,13.128999948501587,learn,46871.00005149841,Tue Nov 25 2025 13:52:03 GMT-0600 (Central Standard Time),254490.0,A,cam,O,m,104,1,1199.4000000059605,253290.59999999404,7252,WL,C,8.0
2,13.729000091552734,learn,46270.999908447266,Tue Nov 25 2025 13:52:03 GMT-0600 (Central Standard Time),255090.20000001788,A,camp,O,p,582,1,1799.6000000238419,253290.59999999404,7252,WL,C,8.0
2,14.078999996185303,learn,45921.0000038147,Tue Nov 25 2025 13:52:03 GMT-0600 (Central Standard Time),255439.80000001192,A,campenter,O,enter,333,1,2149.2000000178814,253290.59999999404,7252,WL,C,8.0
2,14.461999893188477,learn,45538.00010681152,Tue Nov 25 2025 13:52:03 GMT-0600 (Central Standard Time),255823.20000001788,A,n,O,n,374,1,383.2000000178814,255440.0,7252,WL,C,9.0
2,14.578999996185303,learn,45421.0000038147,Tue Nov 25 2025 13:52:03 GMT-0600 (Central Standard Time),255940.20000001788,A,na,O,a,103,1,500.2000000178814,255440.0,7252,WL,C,9.0
2,14.694999933242798,learn,45305.0000667572,Tue Nov 25 2025 13:52:03 GMT-0600 (Central Standard Time),256055.80000001192,A,nai,O,i,97,1,615.8000000119209,255440.0,7252,WL,C,9.0
2,14.82800006866455,learn,45171.99993133545,Tue Nov 25 2025 13:52:03 GMT-0600 (Central Standard Time),256189.09999999404,A,nail,O,l,127,1,749.0999999940395,255440.0,7252,WL,C,9.0
2,15.17799997329712,learn,44822.00002670288,Tue Nov 25 2025 13:52:03 GMT-0600 (Central Standard Time),256539.70000001788,A,nailenter,O,enter,348,1,1099.7000000178814,255440.0,7252,WL,C,9.0
2,33.390000104904175,learn,26609.999895095825,Tue Nov 25 2025 13:52:03 GMT-0600 (Central Standard Time),274751.59999999404,A,l,O,l,18196,1,18211.69999998808,256539.90000000596,7252,WL,C,10.0
2,33.473000049591064,learn,26526.999950408936,Tue Nov 25 2025 13:52:03 GMT-0600 (Central Standard Time),274834.7000000179,A,le,O,e,80,1,18294.80000001192,256539.90000000596,7252,WL,C,10.0
2,33.67199993133545,learn,26328.00006866455,Tue Nov 25 2025 13:52:03 GMT-0600 (Central Standard Time),275033.5,A,let,O,t,188,1,18493.59999999404,256539.90000000596,7252,WL,C,10.0
2,33.82200002670288,learn,26177.99997329712,Tue Nov 25 2025 13:52:03 GMT-0600 (Central Standard Time),275183.7000000179,A,lett,O,t,133,1,18643.80000001192,256539.90000000596,7252,WL,C,10.0
2,33.95700001716614,learn,26042.999982833862,Tue Nov 25 2025 13:52:03 GMT-0600 (Central Standard Time),275317.8000000119,A,lette,O,e,119,1,18777.90000000596,256539.90000000596,7252,WL,C,10.0
2,34.00600004196167,learn,25993.99995803833,Tue Nov 25 2025 13:52:03 GMT-0600 (Central Standard Time),275366.90000000596,A,letter,O,r,33,1,18827.0,256539.90000000596,7252,WL,C,10.0
2,34.223000049591064,learn,25776.999950408936,Tue Nov 25 2025 13:52:03 GMT-0600 (Central Standard Time),275584.09999999404,A,letterenter,O,enter,209,1,19044.19999998808,256539.90000000596,7252,WL,C,10.0
2,42.269999980926514,learn,17730.000019073486,Tue Nov 25 2025 13:52:03 GMT-0600 (Central Standard Time),283631.40000000596,A,c,O,c,8040,1,8047.0999999940395,275584.3000000119,7252,WL,C,11.0
2,42.3529999256134,learn,17647.000074386597,Tue Nov 25 2025 13:52:03 GMT-0600 (Central Standard Time),283714.09999999404,A,co,O,o,63,1,8129.799999982119,275584.3000000119,7252,WL,C,11.0
2,42.45199990272522,learn,17548.00009727478,Tue Nov 25 2025 13:52:03 GMT-0600 (Central Standard Time),283813.7000000179,A,cor,O,r,82,1,8229.40000000596,275584.3000000119,7252,WL,C,11.0
2,42.53600001335144,learn,17463.99998664856,Tue Nov 25 2025 13:52:03 GMT-0600 (Central Standard Time),283897.59999999404,A,corn,O,n,65,1,8313.299999982119,275584.3000000119,7252,WL,C,11.0
2,42.71900010108948,learn,17280.999898910522,Tue Nov 25 2025 13:52:03 GMT-0600 (Central Standard Time),284080.40000000596,A,cornenter,O,enter,173,1,8496.09999999404,275584.3000000119,7252,WL,C,11.0
2,47.38700008392334,learn,12612.99991607666,Tue Nov 25 2025 13:52:03 GMT-0600 (Central Standard Time),288747.90000000596,A,enter,O,enter,4662,1,4667.199999988079,284080.7000000179,7252,WL,C,12.0
2,47.736000061035156,learn,12263.999938964844,Tue Nov 25 2025 13:52:03 GMT-0600 (Central Standard Time),289097.0,A,enter,O,enter,331,1,348.7999999821186,288748.2000000179,7252,WL,C,13.0
2,48.08500003814697,learn,11914.999961853027,Tue Nov 25 2025 13:52:03 GMT-0600 (Central Standard Time),289446.0,A,enter,O,enter,343,1,348.69999998807907,289097.3000000119,7252,WL,C,14.0
2,48.51799988746643,learn,11482.00011253357,Tue Nov 25 2025 13:52:03 GMT-0600 (Central Standard Time),289879.7000000179,A,enter,O,enter,415,1,433.40000000596046,289446.3000000119,7252,WL,C,15.0
3,0.9819998741149902,learn,59018.00012588501,Tue Nov 25 2025 13:52:03 GMT-0600 (Central Standard Time),357940.40000000596,A,s,O,s,966,1,981.4000000059605,356959.0,7252,WL,C,1.0
3,1.114999771118164,learn,58885.000228881836,Tue Nov 25 2025 13:52:03 GMT-0600 (Central Standard Time),358073.90000000596,A,sh,O,h,111,1,1114.9000000059605,356959.0,7252,WL,C,1.0
3,1.180999994277954,learn,58819.000005722046,Tue Nov 25 2025 13:52:03 GMT-0600 (Central Standard Time),358139.40000000596,A,sho,O,o,53,1,1180.4000000059605,356959.0,7252,WL,C,1.0
3,1.3149998188018799,learn,58685.00018119812,Tue Nov 25 2025 13:52:03 GMT-0600 (Central Standard Time),358274.09999999404,A,shor,O,r,116,1,1315.0999999940395,356959.0,7252,WL,C,1.0
3,1.9149999618530273,learn,58085.00003814697,Tue Nov 25 2025 13:52:03 GMT-0600 (Central Standard Time),358874.40000000596,A,shorr,O,r,580,1,1915.4000000059605,356959.0,7252,WL,C,1.0
3,2.2319998741149902,learn,57768.00012588501,Tue Nov 25 2025 13:52:03 GMT-0600 (Central Standard Time),359190.7000000179,A,shor,O,backspace,309,1,2231.7000000178814,356959.0,7252,WL,C,1.0
3,2.3309998512268066,learn,57669.00014877319,Tue Nov 25 2025 13:52:03 GMT-0600 (Central Standard Time),359289.90000000596,A,shore,O,e,80,1,2330.9000000059605,356959.0,7252,WL,C,1.0
3,2.7139999866485596,learn,57286.00001335144,Tue Nov 25 2025 13:52:03 GMT-0600 (Central Standard Time),359673.09999999404,A,shoreenter,O,enter,365,1,2714.0999999940395,356959.0,7252,WL,C,1.0
3,3.180999994277954,learn,56819.000005722046,Tue Nov 25 2025 13:52:03 GMT-0600 (Central Standard Time),360140.2000000179,A,b,O,b,446,1,466.90000000596046,359673.3000000119,7252,WL,C,2.0
3,3.2819998264312744,learn,56718.000173568726,Tue Nov 25 2025 13:52:03 GMT-0600 (Central Standard Time),360240.7000000179,A,bo,O,o,90,1,567.4000000059605,359673.3000000119,7252,WL,C,2.0
3,3.5139999389648438,learn,56486.000061035156,Tue Nov 25 2025 13:52:03 GMT-0600 (Central Standard Time),360473.5,A,bod,O,d,213,1,800.1999999880791,359673.3000000119,7252,WL,C,2.0
3,3.563999891281128,learn,56436.00010871887,Tue Nov 25 2025 13:52:03 GMT-0600 (Central Standard Time),360522.59999999404,A,body,O,y,45,1,849.2999999821186,359673.3000000119,7252,WL,C,2.0
3,3.8309998512268066,learn,56169.00014877319,Tue Nov 25 2025 13:52:03 GMT-0600 (Central Standard Time),360790.0,A,bodyenter,O,enter,261,1,1116.699999988079,359673.3000000119,7252,WL,C,2.0
3,4.264999866485596,learn,55735.000133514404,Tue Nov 25 2025 13:52:03 GMT-0600 (Central Standard Time),361224.0,A,d,O,d,416,1,433.7999999821186,360790.2000000179,7252,WL,C,3.0
3,4.346999883651733,learn,55653.00011634827,Tue Nov 25 2025 13:52:03 GMT-0600 (Central Standard Time),361305.90000000596,A,do,O,o,70,1,515.6999999880791,360790.2000000179,7252,WL,C,3.0
3,4.447999954223633,learn,55552.00004577637,Tue Nov 25 2025 13:52:03 GMT-0600 (Central Standard Time),361406.7000000179,A,doc,O,c,85,1,616.5,360790.2000000179,7252,WL,C,3.0
3,4.7149999141693115,learn,55285.00008583069,Tue Nov 25 2025 13:52:03 GMT-0600 (Central Standard Time),361673.59999999404,A,doco,O,o,248,1,883.3999999761581,360790.2000000179,7252,WL,C,3.0
3,5.013999938964844,learn,54986.000061035156,Tue Nov 25 2025 13:52:03 GMT-0600 (Central Standard Time),361973.40000000596,A,doc,O,backspace,294,1,1183.199999988079,360790.2000000179,7252,WL,C,3.0
3,5.11299991607666,learn,54887.00008392334,Tue Nov 25 2025 13:52:03 GMT-0600 (Central Standard Time),362072.2000000179,A,doct,O,t,87,1,1282.0,360790.2000000179,7252,WL,C,3.0
3,5.230999946594238,learn,54769.00005340576,Tue Nov 25 2025 13:52:03 GMT-0600 (Central Standard Time),362189.7000000179,A,docto,O,o,104,1,1399.5,360790.2000000179,7252,WL,C,3.0
3,5.296999931335449,learn,54703.00006866455,Tue Nov 25 2025 13:52:03 GMT-0600 (Central Standard Time),362255.7000000179,A,doctor,O,r,49,1,1465.5,360790.2000000179,7252,WL,C,3.0
3,5.495999813079834,learn,54504.000186920166,Tue Nov 25 2025 13:52:03 GMT-0600 (Central Standard Time),362455.5,A,doctorenter,O,enter,191,1,1665.2999999821186,360790.2000000179,7252,WL,C,3.0
3,5.763999938964844,learn,54236.000061035156,Tue Nov 25 2025 13:52:03 GMT-0600 (Central Standard Time),362722.59999999404,A,c,O,c,263,1,266.89999997615814,362455.7000000179,7252,WL,C,4.0
3,5.8459999561309814,learn,54154.00004386902,Tue Nov 25 2025 13:52:03 GMT-0600 (Central Standard Time),362805.3000000119,A,ca,O,a,68,1,349.59999999403954,362455.7000000179,7252,WL,C,4.0
3,5.9629998207092285,learn,54037.00017929077,Tue Nov 25 2025 13:52:03 GMT-0600 (Central Standard Time),362922.0,A,cam,O,m,105,1,466.2999999821186,362455.7000000179,7252,WL,C,4.0
3,6.045999765396118,learn,53954.00023460388,Tue Nov 25 2025 13:52:03 GMT-0600 (Central Standard Time),363005.2000000179,A,camp,O,p,69,1,549.5,362455.7000000179,7252,WL,C,4.0
3,6.496999979019165,learn,53503.000020980835,Tue Nov 25 2025 13:52:03 GMT-0600 (Central Standard Time),363456.2000000179,A,campenter,O,enter,441,1,1000.5,362455.7000000179,7252,WL,C,4.0
3,6.812999963760376,learn,53187.000036239624,Tue Nov 25 2025 13:52:03 GMT-0600 (Central Standard Time),363772.3000000119,A,f,O,f,302,1,315.90000000596046,363456.40000000596,7252,WL,C,5.0
3,6.929999828338623,learn,53070.00017166138,Tue Nov 25 2025 13:52:03 GMT-0600 (Central Standard Time),363888.59999999404,A,fl,O,l,107,1,432.19999998807907,363456.40000000596,7252,WL,C,5.0
3,7.061999797821045,learn,52938.000202178955,Tue Nov 25 2025 13:52:03 GMT-0600 (Central Standard Time),364021.3000000119,A,fla,O,a,118,1,564.9000000059605,363456.40000000596,7252,WL,C,5.0
3,7.413999795913696,learn,52586.000204086304,Tue Nov 25 2025 13:52:03 GMT-0600 (Central Standard Time),364372.7000000179,A,flag,O,g,346,1,916.3000000119209,363456.40000000596,7252,WL,C,5.0
3,7.562999963760376,learn,52437.000036239624,Tue Nov 25 2025 13:52:03 GMT-0600 (Central Standard Time),364521.8000000119,A,flagenter,O,enter,139,1,1065.4000000059605,363456.40000000596,7252,WL,C,5.0
3,7.812999963760376,learn,52187.000036239624,Tue Nov 25 2025 13:52:03 GMT-0600 (Central Standard Time),364771.8000000119,A,l,O,l,237,1,249.80000001192093,364522.0,7252,WL,C,6.0
3,7.895999908447266,learn,52104.000091552734,Tue Nov 25 2025 13:52:03 GMT-0600 (Central Standard Time),364854.90000000596,A,le,O,e,67,1,332.90000000596046,364522.0,7252,WL,C,6.0
3,8.062999963760376,learn,51937.000036239624,Tue Nov 25 2025 13:52:03 GMT-0600 (Central Standard Time),365022.5,A,let,O,t,152,1,500.5,364522.0,7252,WL,C,6.0
3,8.19599986076355,learn,51804.00013923645,Tue Nov 25 2025 13:52:03 GMT-0600 (Central Standard Time),365154.90000000596,A,lett,O,t,112,1,632.9000000059605,364522.0,7252,WL,C,6.0
3,8.328999996185303,learn,51671.0000038147,Tue Nov 25 2025 13:52:03 GMT-0600 (Central Standard Time),365288.09999999404,A,lette,O,e,115,1,766.0999999940395,364522.0,7252,WL,C,6.0
3,8.378999948501587,learn,51621.00005149841,Tue Nov 25 2025 13:52:03 GMT-0600 (Central Standard Time),365338.3000000119,A,letter,O,r,47,1,816.3000000119209,364522.0,7252,WL,C,6.0
3,8.744999885559082,learn,51255.00011444092,Tue Nov 25 2025 13:52:03 GMT-0600 (Central Standard Time),365704.5,A,letterenter,O,enter,358,1,1182.5,364522.0,7252,WL,C,6.0
3,9.012999773025513,learn,50987.00022697449,Tue Nov 25 2025 13:52:03 GMT-0600 (Central Standard Time),365971.8000000119,A,h,O,h,262,1,267.0,365704.8000000119,7252,WL,C,7.0
3,9.061999797821045,learn,50938.000202178955,Tue Nov 25 2025 13:52:03 GMT-0600 (Central Standard Time),366021.2000000179,A,ho,O,o,43,1,316.40000000596046,365704.8000000119,7252,WL,C,7.0
3,9.229999780654907,learn,50770.00021934509,Tue Nov 25 2025 13:52:03 GMT-0600 (Central Standard Time),366188.7000000179,A,hom,O,m,146,1,483.90000000596046,365704.8000000119,7252,WL,C,7.0
3,9.378999948501587,learn,50621.00005149841,Tue Nov 25 2025 13:52:03 GMT-0600 (Central Standard Time),366337.90000000596,A,home,O,e,130,1,633.0999999940395,365704.8000000119,7252,WL,C,7.0
3,9.828999996185303,learn,50171.0000038147,Tue Nov 25 2025 13:52:03 GMT-0600 (Central Standard Time),366787.90000000596,A,homeenter,O,enter,445,1,1083.0999999940395,365704.8000000119,7252,WL,C,7.0
3,10.311999797821045,learn,49688.000202178955,Tue Nov 25 2025 13:52:03 GMT-0600 (Central Standard Time),367271.5,A,b,O,b,475,1,483.2999999821186,366788.2000000179,7252,WL,C,8.0
3,10.411999940872192,learn,49588.00005912781,Tue Nov 25 2025 13:52:03 GMT-0600 (Central Standard Time),367370.7000000179,A,bo,O,o,96,1,582.5,366788.2000000179,7252,WL,C,8.0
3,10.52899980545044,learn,49471.00019454956,Tue Nov 25 2025 13:52:03 GMT-0600 (Central Standard Time),367488.2000000179,A,boy,O,y,108,1,700.0,366788.2000000179,7252,WL,C,8.0
3,10.76199984550476,learn,49238.00015449524,Tue Nov 25 2025 13:52:03 GMT-0600 (Central Standard Time),367721.5,A,boyenter,O,enter,222,1,933.2999999821186,366788.2000000179,7252,WL,C,8.0
3,12.24399995803833,learn,47756.00004196167,Tue Nov 25 2025 13:52:03 GMT-0600 (Central Standard Time),369203.2000000179,A,t,O,t,1468,1,1481.5,367721.7000000179,7252,WL,C,9.0
3,12.327999830245972,learn,47672.00016975403,Tue Nov 25 2025 13:52:03 GMT-0600 (Central Standard Time),369287.40000000596,A,to,O,o,67,1,1565.699999988079,367721.7000000179,7252,WL,C,9.0
3,12.460999965667725,learn,47539.000034332275,Tue Nov 25 2025 13:52:03 GMT-0600 (Central Standard Time),369419.90000000596,A,tow,O,w,129,1,1698.199999988079,367721.7000000179,7252,WL,C,9.0
3,12.99399995803833,learn,47006.00004196167,Tue Nov 25 2025 13:52:03 GMT-0600 (Central Standard Time),369953.3000000119,A,towe,O,e,515,1,2231.5999999940395,367721.7000000179,7252,WL,C,9.0
3,13.109999895095825,learn,46890.000104904175,Tue Nov 25 2025 13:52:03 GMT-0600 (Central Standard Time),370068.90000000596,A,tower,O,r,102,1,2347.199999988079,367721.7000000179,7252,WL,C,9.0
3,13.310999870300293,learn,46689.00012969971,Tue Nov 25 2025 13:52:03 GMT-0600 (Central Standard Time),370269.90000000596,A,towerenter,O,enter,186,1,2548.199999988079,367721.7000000179,7252,WL,C,9.0
3,13.527999877929688,learn,46472.00012207031,Tue Nov 25 2025 13:52:03 GMT-0600 (Central Standard Time),370487.0,A,q,O,q,200,1,216.90000000596046,370270.09999999404,7252,WL,C,10.0
3,13.67799997329712,learn,46322.00002670288,Tue Nov 25 2025 13:52:03 GMT-0600 (Central Standard Time),370636.8000000119,A,qu,O,u,135,1,366.7000000178814,370270.09999999404,7252,WL,C,10.0
3,13.843999862670898,learn,46156.0001373291,Tue Nov 25 2025 13:52:03 GMT-0600 (Central Standard Time),370802.90000000596,A,que,O,e,154,1,532.8000000119209,370270.09999999404,7252,WL,C,10.0
3,13.994999885559082,learn,46005.00011444092,Tue Nov 25 2025 13:52:03 GMT-0600 (Central Standard Time),370953.7000000179,A,quee,O,e,132,1,683.6000000238419,370270.09999999404,7252,WL,C,10.0
3,14.143999814987183,learn,45856.00018501282,Tue Nov 25 2025 13:52:03 GMT-0600 (Central Standard Time),371103.0,A,queen,O,n,133,1,832.9000000059605,370270.09999999404,7252,WL,C,10.0
3,14.32699990272522,learn,45673.00009727478,Tue Nov 25 2025 13:52:03 GMT-0600 (Central Standard Time),371286.0,A,queenenter,O,enter,168,1,1015.9000000059605,370270.09999999404,7252,WL,C,10.0
3,14.527999877929688,learn,45472.00012207031,Tue Nov 25 2025 13:52:03 GMT-0600 (Central Standard Time),371487.09999999404,A,w,O,w,184,1,200.89999997615814,371286.2000000179,7252,WL,C,11.0
3,14.710999965667725,learn,45289.000034332275,Tue Nov 25 2025 13:52:03 GMT-0600 (Central Standard Time),371669.59999999404,A,we,O,e,169,1,383.39999997615814,371286.2000000179,7252,WL,C,11.0
3,15.07699990272522,learn,44923.00009727478,Tue Nov 25 2025 13:52:03 GMT-0600 (Central Standard Time),372035.90000000596,A,w,O,backspace,363,1,749.6999999880791,371286.2000000179,7252,WL,C,11.0
3,15.259999990463257,learn,44740.00000953674,Tue Nov 25 2025 13:52:03 GMT-0600 (Central Standard Time),372219.3000000119,A,wh,O,h,180,1,933.0999999940395,371286.2000000179,7252,WL,C,11.0
3,15.343999862670898,learn,44656.0001373291,Tue Nov 25 2025 13:52:03 GMT-0600 (Central Standard Time),372302.7000000179,A,whe,O,e,77,1,1016.5,371286.2000000179,7252,WL,C,11.0
3,15.460999965667725,learn,44539.000034332275,Tue Nov 25 2025 13:52:03 GMT-0600 (Central Standard Time),372419.8000000119,A,whea,O,a,105,1,1133.5999999940395,371286.2000000179,7252,WL,C,11.0
3,15.559999942779541,learn,44440.00005722046,Tue Nov 25 2025 13:52:03 GMT-0600 (Central Standard Time),372519.5,A,wheat,O,t,92,1,1233.2999999821186,371286.2000000179,7252,WL,C,11.0
3,15.827999830245972,learn,44172.00016975403,Tue Nov 25 2025 13:52:03 GMT-0600 (Central Standard Time),372786.7000000179,A,wheatenter,O,enter,246,1,1500.5,371286.2000000179,7252,WL,C,11.0
3,17.259999990463257,learn,42740.00000953674,Tue Nov 25 2025 13:52:03 GMT-0600 (Central Standard Time),374218.90000000596,A,c,O,c,1412,1,1432.0,372786.90000000596,7252,WL,C,12.0
3,17.325999975204468,learn,42674.00002479553,Tue Nov 25 2025 13:52:03 GMT-0600 (Central Standard Time),374284.59999999404,A,co,O,o,60,1,1497.699999988079,372786.90000000596,7252,WL,C,12.0
3,17.442999839782715,learn,42557.000160217285,Tue Nov 25 2025 13:52:03 GMT-0600 (Central Standard Time),374402.09999999404,A,cor,O,r,107,1,1615.199999988079,372786.90000000596,7252,WL,C,12.0
3,17.526999950408936,learn,42473.000049591064,Tue Nov 25 2025 13:52:03 GMT-0600 (Central Standard Time),374486.09999999404,A,corn,O,n,77,1,1699.199999988079,372786.90000000596,7252,WL,C,12.0
3,17.72699999809265,learn,42273.00000190735,Tue Nov 25 2025 13:52:03 GMT-0600 (Central Standard Time),374686.09999999404,A,cornenter,O,enter,185,1,1899.199999988079,372786.90000000596,7252,WL,C,12.0
3,19.341999769210815,learn,40658.000230789185,Tue Nov 25 2025 13:52:03 GMT-0600 (Central Standard Time),376300.59999999404,A,c,O,c,1600,1,1614.2999999821186,374686.3000000119,7252,WL,C,13.0
3,19.45899987220764,learn,40541.00012779236,Tue Nov 25 2025 13:52:03 GMT-0600 (Central Standard Time),376418.09999999404,A,ca,O,a,98,1,1731.7999999821186,374686.3000000119,7252,WL,C,13.0
3,19.592999935150146,learn,40407.00006484985,Tue Nov 25 2025 13:52:03 GMT-0600 (Central Standard Time),376551.7000000179,A,cat,O,t,125,1,1865.4000000059605,374686.3000000119,7252,WL,C,13.0
3,19.709999799728394,learn,40290.00020027161,Tue Nov 25 2025 13:52:03 GMT-0600 (Central Standard Time),376668.5,A,catt,O,t,102,1,1982.199999988079,374686.3000000119,7252,WL,C,13.0
3,19.80899977684021,learn,40191.00022315979,Tue Nov 25 2025 13:52:03 GMT-0600 (Central Standard Time),376767.7000000179,A,cattl,O,l,82,1,2081.4000000059605,374686.3000000119,7252,WL,C,13.0
3,19.908999919891357,learn,40091.00008010864,Tue Nov 25 2025 13:52:03 GMT-0600 (Central Standard Time),376867.90000000596,A,cattle,O,e,97,1,2181.5999999940395,374686.3000000119,7252,WL,C,13.0
3,20.175999879837036,learn,39824.000120162964,Tue Nov 25 2025 13:52:03 GMT-0600 (Central Standard Time),377135.0,A,cattleenter,O,enter,259,1,2448.699999988079,374686.3000000119,7252,WL,C,13.0
3,21.590999841690063,learn,38409.00015830994,Tue Nov 25 2025 13:52:03 GMT-0600 (Central Standard Time),378549.8000000119,A,n,O,n,1407,1,1414.5999999940395,377135.2000000179,7252,WL,C,14.0
3,21.692999839782715,learn,38307.000160217285,Tue Nov 25 2025 13:52:03 GMT-0600 (Central Standard Time),378652.40000000596,A,na,O,a,89,1,1517.199999988079,377135.2000000179,7252,WL,C,14.0
3,21.80899977684021,learn,38191.00022315979,Tue Nov 25 2025 13:52:03 GMT-0600 (Central Standard Time),378767.7000000179,A,nai,O,i,98,1,1632.5,377135.2000000179,7252,WL,C,14.0
3,21.923999786376953,learn,38076.00021362305,Tue Nov 25 2025 13:52:03 GMT-0600 (Central Standard Time),378882.8000000119,A,nail,O,l,111,1,1747.5999999940395,377135.2000000179,7252,WL,C,14.0
3,22.125999927520752,learn,37874.00007247925,Tue Nov 25 2025 13:52:03 GMT-0600 (Central Standard Time),379085.0,A,nailenter,O,enter,188,1,1949.7999999821186,377135.2000000179,7252,WL,C,14.0
3,24.574999809265137,learn,35425.00019073486,Tue Nov 25 2025 13:52:03 GMT-0600 (Central Standard Time),381533.8000000119,A,f,O,f,2433,1,2448.5999999940395,379085.2000000179,7252,WL,C,15.0
3,24.640999794006348,learn,35359.00020599365,Tue Nov 25 2025 13:52:03 GMT-0600 (Central Standard Time),381599.59999999404,A,fl,O,l,57,1,2514.399999976158,379085.2000000179,7252,WL,C,15.0
3,24.723999977111816,learn,35276.00002288818,Tue Nov 25 2025 13:52:03 GMT-0600 (Central Standard Time),381682.59999999404,A,fla,O,a,79,1,2597.399999976158,379085.2000000179,7252,WL,C,15.0
3,24.973999977111816,learn,35026.00002288818,Tue Nov 25 2025 13:52:03 GMT-0600 (Central Standard Time),381932.8000000119,A,flag,O,g,245,1,2847.5999999940395,379085.2000000179,7252,WL,C,15.0
3,25.125,learn,34875.0,Tue Nov 25 2025 13:52:03 GMT-0600 (Central Standard Time),382083.59999999404,A,flagenter,O,enter,138,1,2998.399999976158,379085.2000000179,7252,WL,C,15.0
4,0.9159998893737793,learn,59084.00011062622,Tue Nov 25 2025 13:52:03 GMT-0600 (Central Standard Time),448745.0,A,t,O,t,906,1,915.6999999880791,447829.3000000119,7252,WL,C,1.0
4,1.0329999923706055,learn,58967.000007629395,Tue Nov 25 2025 13:52:03 GMT-0600 (Central Standard Time),448862.5,A,to,O,o,110,1,1033.199999988079,447829.3000000119,7252,WL,C,1.0
4,1.1659998893737793,learn,58834.00011062622,Tue Nov 25 2025 13:52:03 GMT-0600 (Central Standard Time),448995.09999999404,A,tow,O,w,112,1,1165.7999999821186,447829.3000000119,7252,WL,C,1.0
4,1.3650000095367432,learn,58634.99999046326,Tue Nov 25 2025 13:52:03 GMT-0600 (Central Standard Time),449194.7000000179,A,towe,O,e,179,1,1365.4000000059605,447829.3000000119,7252,WL,C,1.0
4,1.5150001049041748,learn,58484.999895095825,Tue Nov 25 2025 13:52:03 GMT-0600 (Central Standard Time),449344.8000000119,A,tower,O,r,132,1,1515.5,447829.3000000119,7252,WL,C,1.0
4,1.7820000648498535,learn,58217.99993515015,Tue Nov 25 2025 13:52:03 GMT-0600 (Central Standard Time),449611.7000000179,A,towerenter,O,enter,263,1,1782.4000000059605,447829.3000000119,7252,WL,C,1.0
4,2.183000087738037,learn,57816.99991226196,Tue Nov 25 2025 13:52:03 GMT-0600 (Central Standard Time),450012.0,A,w,O,w,396,1,400.0,449612.0,7252,WL,C,2.0
4,2.365000009536743,learn,57634.99999046326,Tue Nov 25 2025 13:52:03 GMT-0600 (Central Standard Time),450194.8000000119,A,wh,O,h,162,1,582.8000000119209,449612.0,7252,WL,C,2.0
4,2.4809999465942383,learn,57519.00005340576,Tue Nov 25 2025 13:52:03 GMT-0600 (Central Standard Time),450310.59999999404,A,whe,O,e,96,1,698.5999999940395,449612.0,7252,WL,C,2.0
4,2.63100004196167,learn,57368.99995803833,Tue Nov 25 2025 13:52:03 GMT-0600 (Central Standard Time),450460.8000000119,A,whea,O,a,145,1,848.8000000119209,449612.0,7252,WL,C,2.0
4,2.7809998989105225,learn,57219.00010108948,Tue Nov 25 2025 13:52:03 GMT-0600 (Central Standard Time),450610.8000000119,A,wheat,O,t,147,1,998.8000000119209,449612.0,7252,WL,C,2.0
4,3.0320000648498535,learn,56967.99993515015,Tue Nov 25 2025 13:52:03 GMT-0600 (Central Standard Time),450861.8000000119,A,wheatenter,O,enter,245,1,1249.800000011921,449612.0,7252,WL,C,2.0
4,3.365000009536743,learn,56634.99999046326,Tue Nov 25 2025 13:52:03 GMT-0600 (Central Standard Time),451194.5,A,q,O,q,328,1,332.59999999403954,450861.90000000596,7252,WL,C,3.0
4,3.515000104904175,learn,56484.999895095825,Tue Nov 25 2025 13:52:03 GMT-0600 (Central Standard Time),451344.90000000596,A,qu,O,u,140,1,483.0,450861.90000000596,7252,WL,C,3.0
4,3.6649999618530273,learn,56335.00003814697,Tue Nov 25 2025 13:52:03 GMT-0600 (Central Standard Time),451494.0,A,que,O,e,142,1,632.0999999940395,450861.90000000596,7252,WL,C,3.0
4,3.813999891281128,learn,56186.00010871887,Tue Nov 25 2025 13:52:03 GMT-0600 (Central Standard Time),451643.7000000179,A,quee,O,e,137,1,781.8000000119209,450861.90000000596,7252,WL,C,3.0
4,3.8980000019073486,learn,56101.99999809265,Tue Nov 25 2025 13:52:03 GMT-0600 (Central Standard Time),451727.3000000119,A,queen,O,n,76,1,865.4000000059605,450861.90000000596,7252,WL,C,3.0
4,4.063999891281128,learn,55936.00010871887,Tue Nov 25 2025 13:52:03 GMT-0600 (Central Standard Time),451893.59999999404,A,queenenter,O,enter,161,1,1031.699999988079,450861.90000000596,7252,WL,C,3.0
4,4.263999938964844,learn,55736.000061035156,Tue Nov 25 2025 13:52:03 GMT-0600 (Central Standard Time),452093.7000000179,A,s,O,s,193,1,199.90000000596046,451893.8000000119,7252,WL,C,4.0
4,4.414999961853027,learn,55585.00003814697,Tue Nov 25 2025 13:52:03 GMT-0600 (Central Standard Time),452244.40000000596,A,su,O,u,137,1,350.59999999403954,451893.8000000119,7252,WL,C,4.0
4,4.582000017166138,learn,55417.99998283386,Tue Nov 25 2025 13:52:03 GMT-0600 (Central Standard Time),452411.5,A,sur,O,r,153,1,517.6999999880791,451893.8000000119,7252,WL,C,4.0
4,5.098999977111816,learn,54901.00002288818,Tue Nov 25 2025 13:52:03 GMT-0600 (Central Standard Time),452928.0,A,su,O,backspace,499,1,1034.199999988079,451893.8000000119,7252,WL,C,4.0
4,5.197000026702881,learn,54802.99997329712,Tue Nov 25 2025 13:52:03 GMT-0600 (Central Standard Time),453026.2000000179,A,sug,O,g,94,1,1132.4000000059605,451893.8000000119,7252,WL,C,4.0
4,5.313999891281128,learn,54686.00010871887,Tue Nov 25 2025 13:52:03 GMT-0600 (Central Standard Time),453143.2000000179,A,suga,O,a,101,1,1249.4000000059605,451893.8000000119,7252,WL,C,4.0
4,5.414999961853027,learn,54585.00003814697,Tue Nov 25 2025 13:52:03 GMT-0600 (Central Standard Time),453244.0,A,sugar,O,r,97,1,1350.199999988079,451893.8000000119,7252,WL,C,4.0
4,5.63100004196167,learn,54368.99995803833,Tue Nov 25 2025 13:52:03 GMT-0600 (Central Standard Time),453460.0,A,sugarenter,O,enter,203,1,1566.199999988079,451893.8000000119,7252,WL,C,4.0
4,6.0309998989105225,learn,53969.00010108948,Tue Nov 25 2025 13:52:03 GMT-0600 (Central Standard Time),453860.3000000119,A,h,O,h,388,1,399.90000000596046,453460.40000000596,7252,WL,C,5.0
4,6.079999923706055,learn,53920.000076293945,Tue Nov 25 2025 13:52:03 GMT-0600 (Central Standard Time),453909.7000000179,A,ho,O,o,34,1,449.30000001192093,453460.40000000596,7252,WL,C,5.0
4,6.197000026702881,learn,53802.99997329712,Tue Nov 25 2025 13:52:03 GMT-0600 (Central Standard Time),454026.7000000179,A,hom,O,m,105,1,566.3000000119209,453460.40000000596,7252,WL,C,5.0
4,6.331000089645386,learn,53668.999910354614,Tue Nov 25 2025 13:52:03 GMT-0600 (Central Standard Time),454160.8000000119,A,home,O,e,124,1,700.4000000059605,453460.40000000596,7252,WL,C,5.0
4,7.213000059127808,learn,52786.99994087219,Tue Nov 25 2025 13:52:03 GMT-0600 (Central Standard Time),455042.3000000119,A,homeenter,O,enter,871,1,1581.9000000059605,453460.40000000596,7252,WL,C,5.0
4,7.697999954223633,learn,52302.00004577637,Tue Nov 25 2025 13:52:03 GMT-0600 (Central Standard Time),455527.7000000179,A,b,O,b,476,1,485.10000002384186,455042.59999999404,7252,WL,C,6.0
4,7.813999891281128,learn,52186.00010871887,Tue Nov 25 2025 13:52:03 GMT-0600 (Central Standard Time),455643.2000000179,A,bo,O,o,104,1,600.6000000238419,455042.59999999404,7252,WL,C,6.0
4,7.930999994277954,learn,52069.000005722046,Tue Nov 25 2025 13:52:03 GMT-0600 (Central Standard Time),455760.0,A,boy,O,y,107,1,717.4000000059605,455042.59999999404,7252,WL,C,6.0
4,8.346999883651733,learn,51653.00011634827,Tue Nov 25 2025 13:52:03 GMT-0600 (Central Standard Time),456176.59999999404,A,boyenter,O,enter,407,1,1134.0,455042.59999999404,7252,WL,C,6.0
4,8.980999946594238,learn,51019.00005340576,Tue Nov 25 2025 13:52:03 GMT-0600 (Central Standard Time),456810.7000000179,A,d,O,d,615,1,633.9000000059605,456176.8000000119,7252,WL,C,7.0
4,9.063999891281128,learn,50936.00010871887,Tue Nov 25 2025 13:52:03 GMT-0600 (Central Standard Time),456893.90000000596,A,do,O,o,68,1,717.0999999940395,456176.8000000119,7252,WL,C,7.0
4,9.128999948501587,learn,50871.00005149841,Tue Nov 25 2025 13:52:03 GMT-0600 (Central Standard Time),456958.7000000179,A,doc,O,c,48,1,781.9000000059605,456176.8000000119,7252,WL,C,7.0
4,9.296000003814697,learn,50703.9999961853,Tue Nov 25 2025 13:52:03 GMT-0600 (Central Standard Time),457124.90000000596,A,doct,O,t,159,1,948.0999999940395,456176.8000000119,7252,WL,C,7.0
4,9.397000074386597,learn,50602.9999256134,Tue Nov 25 2025 13:52:03 GMT-0600 (Central Standard Time),457226.2000000179,A,docto,O,o,98,1,1049.4000000059605,456176.8000000119,7252,WL,C,7.0
4,9.479000091552734,learn,50520.999908447266,Tue Nov 25 2025 13:52:03 GMT-0600 (Central Standard Time),457308.59999999404,A,doctor,O,r,78,1,1131.7999999821186,456176.8000000119,7252,WL,C,7.0
4,9.845999956130981,learn,50154.00004386902,Tue Nov 25 2025 13:52:03 GMT-0600 (Central Standard Time),457675.3000000119,A,doctorenter,O,enter,363,1,1498.5,456176.8000000119,7252,WL,C,7.0
4,10.078999996185303,learn,49921.0000038147,Tue Nov 25 2025 13:52:03 GMT-0600 (Central Standard Time),457908.5,A,c,O,c,219,1,233.0,457675.5,7252,WL,C,8.0
4,10.161999940872192,learn,49838.00005912781,Tue Nov 25 2025 13:52:03 GMT-0600 (Central Standard Time),457991.7000000179,A,ca,O,a,66,1,316.2000000178814,457675.5,7252,WL,C,8.0
4,10.27999997138977,learn,49720.00002861023,Tue Nov 25 2025 13:52:03 GMT-0600 (Central Standard Time),458109.40000000596,A,cam,O,m,111,1,433.90000000596046,457675.5,7252,WL,C,8.0
4,10.395999908447266,learn,49604.000091552734,Tue Nov 25 2025 13:52:03 GMT-0600 (Central Standard Time),458225.59999999404,A,camp,O,p,98,1,550.0999999940395,457675.5,7252,WL,C,8.0
4,10.628999948501587,learn,49371.00005149841,Tue Nov 25 2025 13:52:03 GMT-0600 (Central Standard Time),458458.5,A,campenter,O,enter,229,1,783.0,457675.5,7252,WL,C,8.0
4,10.946000099182129,learn,49053.99990081787,Tue Nov 25 2025 13:52:03 GMT-0600 (Central Standard Time),458775.8000000119,A,f,O,f,309,1,317.0,458458.8000000119,7252,WL,C,9.0
4,11.046000003814697,learn,48953.9999961853,Tue Nov 25 2025 13:52:03 GMT-0600 (Central Standard Time),458875.0,A,fl,O,l,94,1,416.19999998807907,458458.8000000119,7252,WL,C,9.0
4,11.178999900817871,learn,48821.00009918213,Tue Nov 25 2025 13:52:03 GMT-0600 (Central Standard Time),459008.90000000596,A,fla,O,a,124,1,550.0999999940395,458458.8000000119,7252,WL,C,9.0
4,11.395999908447266,learn,48604.000091552734,Tue Nov 25 2025 13:52:03 GMT-0600 (Central Standard Time),459225.09999999404,A,flag,O,g,207,1,766.2999999821186,458458.8000000119,7252,WL,C,9.0
4,11.729000091552734,learn,48270.999908447266,Tue Nov 25 2025 13:52:03 GMT-0600 (Central Standard Time),459558.0,A,flagenter,O,enter,327,1,1099.199999988079,458458.8000000119,7252,WL,C,9.0
4,11.946000099182129,learn,48053.99990081787,Tue Nov 25 2025 13:52:03 GMT-0600 (Central Standard Time),459775.09999999404,A,l,O,l,199,1,216.7999999821186,459558.3000000119,7252,WL,C,10.0
4,12.029000043869019,learn,47970.99995613098,Tue Nov 25 2025 13:52:03 GMT-0600 (Central Standard Time),459858.40000000596,A,le,O,e,69,1,300.09999999403954,459558.3000000119,7252,WL,C,10.0
4,12.210999965667725,learn,47789.000034332275,Tue Nov 25 2025 13:52:03 GMT-0600 (Central Standard Time),460040.8000000119,A,let,O,t,164,1,482.5,459558.3000000119,7252,WL,C,10.0
4,12.328999996185303,learn,47671.0000038147,Tue Nov 25 2025 13:52:03 GMT-0600 (Central Standard Time),460158.7000000179,A,lett,O,t,103,1,600.4000000059605,459558.3000000119,7252,WL,C,10.0
4,12.479000091552734,learn,47520.999908447266,Tue Nov 25 2025 13:52:03 GMT-0600 (Central Standard Time),460308.7000000179,A,lette,O,e,136,1,750.4000000059605,459558.3000000119,7252,WL,C,10.0
4,12.510999917984009,learn,47489.00008201599,Tue Nov 25 2025 13:52:03 GMT-0600 (Central Standard Time),460340.7000000179,A,letter,O,r,26,1,782.4000000059605,459558.3000000119,7252,WL,C,10.0
4,12.678999900817871,learn,47321.00009918213,Tue Nov 25 2025 13:52:03 GMT-0600 (Central Standard Time),460508.59999999404,A,letterenter,O,enter,154,1,950.2999999821186,459558.3000000119,7252,WL,C,10.0
4,13.07800006866455,learn,46921.99993133545,Tue Nov 25 2025 13:52:03 GMT-0600 (Central Standard Time),460907.90000000596,A,c,O,c,387,1,399.09999999403954,460508.8000000119,7252,WL,C,11.0
4,13.128000020980835,learn,46871.999979019165,Tue Nov 25 2025 13:52:03 GMT-0600 (Central Standard Time),460957.40000000596,A,co,O,o,43,1,448.59999999403954,460508.8000000119,7252,WL,C,11.0
4,13.227999925613403,learn,46772.0000743866,Tue Nov 25 2025 13:52:03 GMT-0600 (Central Standard Time),461057.7000000179,A,cor,O,r,80,1,548.9000000059605,460508.8000000119,7252,WL,C,11.0
4,13.361999988555908,learn,46638.00001144409,Tue Nov 25 2025 13:52:03 GMT-0600 (Central Standard Time),461191.2000000179,A,corn,O,n,117,1,682.4000000059605,460508.8000000119,7252,WL,C,11.0
4,13.84500002861023,learn,46154.99997138977,Tue Nov 25 2025 13:52:03 GMT-0600 (Central Standard Time),461674.40000000596,A,cornenter,O,enter,480,1,1165.5999999940395,460508.8000000119,7252,WL,C,11.0
4,14.460999965667725,learn,45539.000034332275,Tue Nov 25 2025 13:52:03 GMT-0600 (Central Standard Time),462290.40000000596,A,n,O,n,613,1,615.8000000119209,461674.59999999404,7252,WL,C,12.0
4,14.543999910354614,learn,45456.000089645386,Tue Nov 25 2025 13:52:03 GMT-0600 (Central Standard Time),462373.7000000179,A,na,O,a,77,1,699.1000000238419,461674.59999999404,7252,WL,C,12.0
4,14.66100001335144,learn,45338.99998664856,Tue Nov 25 2025 13:52:03 GMT-0600 (Central Standard Time),462490.40000000596,A,nai,O,i,113,1,815.8000000119209,461674.59999999404,7252,WL,C,12.0
4,14.777999877929688,learn,45222.00012207031,Tue Nov 25 2025 13:52:03 GMT-0600 (Central Standard Time),462607.5,A,nail,O,l,101,1,932.9000000059605,461674.59999999404,7252,WL,C,12.0
4,14.961999893188477,learn,45038.00010681152,Tue Nov 25 2025 13:52:03 GMT-0600 (Central Standard Time),462791.7000000179,A,nailenter,O,enter,176,1,1117.1000000238419,461674.59999999404,7252,WL,C,12.0
4,15.17799997329712,learn,44822.00002670288,Tue Nov 25 2025 13:52:03 GMT-0600 (Central Standard Time),463007.5,A,s,O,s,199,1,215.59999999403954,462791.90000000596,7252,WL,C,13.0
4,15.277999877929688,learn,44722.00012207031,Tue Nov 25 2025 13:52:03 GMT-0600 (Central Standard Time),463107.8000000119,A,sh,O,h,87,1,315.90000000596046,462791.90000000596,7252,WL,C,13.0
4,15.361000061035156,learn,44638.999938964844,Tue Nov 25 2025 13:52:03 GMT-0600 (Central Standard Time),463190.2000000179,A,shi,O,i,66,1,398.30000001192093,462791.90000000596,7252,WL,C,13.0
4,15.444999933242798,learn,44555.0000667572,Tue Nov 25 2025 13:52:03 GMT-0600 (Central Standard Time),463274.09999999404,A,shio,O,o,64,1,482.19999998807907,462791.90000000596,7252,WL,C,13.0
4,15.744999885559082,learn,44255.00011444092,Tue Nov 25 2025 13:52:03 GMT-0600 (Central Standard Time),463574.0,A,shi,O,backspace,283,1,782.0999999940395,462791.90000000596,7252,WL,C,13.0
4,15.877000093460083,learn,44122.99990653992,Tue Nov 25 2025 13:52:03 GMT-0600 (Central Standard Time),463706.90000000596,A,sh,O,backspace,113,1,915.0,462791.90000000596,7252,WL,C,13.0
4,16.043999910354614,learn,43956.000089645386,Tue Nov 25 2025 13:52:03 GMT-0600 (Central Standard Time),463873.40000000596,A,sho,O,o,156,1,1081.5,462791.90000000596,7252,WL,C,13.0
4,16.16000008583069,learn,43839.99991416931,Tue Nov 25 2025 13:52:03 GMT-0600 (Central Standard Time),463989.90000000596,A,shor,O,r,110,1,1198.0,462791.90000000596,7252,WL,C,13.0
4,16.41100001335144,learn,43588.99998664856,Tue Nov 25 2025 13:52:03 GMT-0600 (Central Standard Time),464240.7000000179,A,shore,O,e,242,1,1448.800000011921,462791.90000000596,7252,WL,C,13.0
4,16.627000093460083,learn,43372.99990653992,Tue Nov 25 2025 13:52:03 GMT-0600 (Central Standard Time),464456.90000000596,A,shoreenter,O,enter,197,1,1665.0,462791.90000000596,7252,WL,C,13.0
4,18.377000093460083,learn,41622.99990653992,Tue Nov 25 2025 13:52:03 GMT-0600 (Central Standard Time),466206.2000000179,A,c,O,c,1734,1,1749.2000000178814,464457.0,7252,WL,C,14.0
4,18.460000038146973,learn,41539.99996185303,Tue Nov 25 2025 13:52:03 GMT-0600 (Central Standard Time),466289.7000000179,A,ca,O,a,72,1,1832.7000000178814,464457.0,7252,WL,C,14.0
4,18.66000008583069,learn,41339.99991416931,Tue Nov 25 2025 13:52:03 GMT-0600 (Central Standard Time),466489.0,A,cat,O,t,189,1,2032.0,464457.0,7252,WL,C,14.0
4,18.76099991798401,learn,41239.00008201599,Tue Nov 25 2025 13:52:03 GMT-0600 (Central Standard Time),466589.90000000596,A,catt,O,t,95,1,2132.9000000059605,464457.0,7252,WL,C,14.0
4,18.877000093460083,learn,41122.99990653992,Tue Nov 25 2025 13:52:03 GMT-0600 (Central Standard Time),466705.90000000596,A,cattl,O,l,97,1,2248.9000000059605,464457.0,7252,WL,C,14.0
4,18.97699999809265,learn,41023.00000190735,Tue Nov 25 2025 13:52:03 GMT-0600 (Central Standard Time),466806.59999999404,A,cattle,O,e,85,1,2349.5999999940395,464457.0,7252,WL,C,14.0
4,19.20900011062622,learn,40790.99988937378,Tue Nov 25 2025 13:52:03 GMT-0600 (Central Standard Time),467038.5,A,cattleenter,O,enter,216,1,2581.5,464457.0,7252,WL,C,14.0
4,29.890000104904175,learn,30109.999895095825,Tue Nov 25 2025 13:52:03 GMT-0600 (Central Standard Time),477719.3000000119,A,f,O,f,10665,1,10680.59999999404,467038.7000000179,7252,WL,C,15.0
4,30.039000034332275,learn,29960.999965667725,Tue Nov 25 2025 13:52:03 GMT-0600 (Central Standard Time),477868.5,A,fl,O,l,143,1,10829.799999982119,467038.7000000179,7252,WL,C,15.0
4,30.17300009727478,learn,29826.99990272522,Tue Nov 25 2025 13:52:03 GMT-0600 (Central Standard Time),478002.5,A,fla,O,a,130,1,10963.799999982119,467038.7000000179,7252,WL,C,15.0
4,30.35700011253357,learn,29642.99988746643,Tue Nov 25 2025 13:52:03 GMT-0600 (Central Standard Time),478186.2000000179,A,flag,O,g,180,1,11147.5,467038.7000000179,7252,WL,C,15.0
4,30.92199993133545,learn,29078.00006866455,Tue Nov 25 2025 13:52:03 GMT-0600 (Central Standard Time),478751.7000000179,A,flagenter,O,enter,548,1,11713.0,467038.7000000179,7252,WL,C,15.0
5,0.6159999370574951,learn,60000.0,Tue Nov 25 2025 13:52:03 GMT-0600 (Central Standard Time),544480.900000006,A,c,O,c,606,1,615.8000000119209,543865.099999994,7252,WL,C,1.0
5,0.7170000076293945,learn,60000.0,Tue Nov 25 2025 13:52:03 GMT-0600 (Central Standard Time),544581.900000006,A,ca,O,a,95,1,716.8000000119209,543865.099999994,7252,WL,C,1.0
5,0.932999849319458,learn,60000.0,Tue Nov 25 2025 13:52:03 GMT-0600 (Central Standard Time),544798.099999994,A,cat,O,t,201,1,933.0,543865.099999994,7252,WL,C,1.0
5,1.0490000247955322,learn,60000.0,Tue Nov 25 2025 13:52:03 GMT-0600 (Central Standard Time),544914.5,A,catt,O,t,105,1,1049.4000000059605,543865.099999994,7252,WL,C,1.0
5,1.1489999294281006,learn,60000.0,Tue Nov 25 2025 13:52:03 GMT-0600 (Central Standard Time),545014.3000000119,A,cattl,O,l,84,1,1149.2000000178814,543865.099999994,7252,WL,C,1.0
5,1.2659997940063477,learn,60000.0,Tue Nov 25 2025 13:52:03 GMT-0600 (Central Standard Time),545131.099999994,A,cattle,O,e,106,1,1266.0,543865.099999994,7252,WL,C,1.0
5,1.7149999141693115,learn,60000.0,Tue Nov 25 2025 13:52:03 GMT-0600 (Central Standard Time),545580.400000006,A,cattleenter,O,enter,444,1,1715.300000011921,543865.099999994,7252,WL,C,1.0
5,2.1489999294281006,learn,60000.0,Tue Nov 25 2025 13:52:03 GMT-0600 (Central Standard Time),546013.7000000179,A,s,O,s,426,1,433.10000002384186,545580.599999994,7252,WL,C,2.0
5,2.248999834060669,learn,60000.0,Tue Nov 25 2025 13:52:03 GMT-0600 (Central Standard Time),546114.400000006,A,sh,O,h,90,1,533.8000000119209,545580.599999994,7252,WL,C,2.0
5,2.3329999446868896,learn,60000.0,Tue Nov 25 2025 13:52:03 GMT-0600 (Central Standard Time),546197.7000000179,A,sho,O,o,69,1,617.1000000238419,545580.599999994,7252,WL,C,2.0
5,2.431999921798706,learn,60000.0,Tue Nov 25 2025 13:52:03 GMT-0600 (Central Standard Time),546297.0,A,shor,O,r,79,1,716.4000000059605,545580.599999994,7252,WL,C,2.0
5,2.4819998741149902,learn,60000.0,Tue Nov 25 2025 13:52:03 GMT-0600 (Central Standard Time),546347.3000000119,A,shore,O,e,35,1,766.7000000178814,545580.599999994,7252,WL,C,2.0
5,2.8489999771118164,learn,60000.0,Tue Nov 25 2025 13:52:03 GMT-0600 (Central Standard Time),546714.2000000179,A,shoreenter,O,enter,348,1,1133.6000000238419,545580.599999994,7252,WL,C,2.0
5,3.365999937057495,learn,60000.0,Tue Nov 25 2025 13:52:03 GMT-0600 (Central Standard Time),547230.7000000179,A,b,O,b,501,1,516.3000000119209,546714.400000006,7252,WL,C,3.0
5,3.431999921798706,learn,60000.0,Tue Nov 25 2025 13:52:03 GMT-0600 (Central Standard Time),547296.900000006,A,bo,O,o,56,1,582.5,546714.400000006,7252,WL,C,3.0
5,3.5829999446868896,learn,60000.0,Tue Nov 25 2025 13:52:03 GMT-0600 (Central Standard Time),547448.2000000179,A,bod,O,d,143,1,733.8000000119209,546714.400000006,7252,WL,C,3.0
5,3.6480000019073486,learn,60000.0,Tue Nov 25 2025 13:52:03 GMT-0600 (Central Standard Time),547513.3000000119,A,body,O,y,55,1,798.9000000059605,546714.400000006,7252,WL,C,3.0
5,3.9489998817443848,learn,60000.0,Tue Nov 25 2025 13:52:03 GMT-0600 (Central Standard Time),547814.3000000119,A,bodyenter,O,enter,294,1,1099.9000000059605,546714.400000006,7252,WL,C,3.0
5,5.146999835968018,learn,60000.0,Tue Nov 25 2025 13:52:03 GMT-0600 (Central Standard Time),549012.2000000179,A,t,O,t,1183,1,1197.6000000238419,547814.599999994,7252,WL,C,4.0
5,5.264999866485596,learn,60000.0,Tue Nov 25 2025 13:52:03 GMT-0600 (Central Standard Time),549129.7000000179,A,to,O,o,107,1,1315.1000000238419,547814.599999994,7252,WL,C,4.0
5,5.363999843597412,learn,60000.0,Tue Nov 25 2025 13:52:03 GMT-0600 (Central Standard Time),549229.3000000119,A,tow,O,w,93,1,1414.7000000178814,547814.599999994,7252,WL,C,4.0
5,5.615000009536743,learn,60000.0,Tue Nov 25 2025 13:52:03 GMT-0600 (Central Standard Time),549479.7000000179,A,towe,O,e,241,1,1665.1000000238419,547814.599999994,7252,WL,C,4.0
5,5.81499981880188,learn,60000.0,Tue Nov 25 2025 13:52:03 GMT-0600 (Central Standard Time),549680.2000000179,A,tower,O,r,192,1,1865.6000000238419,547814.599999994,7252,WL,C,4.0
5,6.082000017166138,learn,60000.0,Tue Nov 25 2025 13:52:03 GMT-0600 (Central Standard Time),549947.099999994,A,towerenter,O,enter,255,1,2132.5,547814.599999994,7252,WL,C,4.0
5,6.46399998664856,learn,60000.0,Tue Nov 25 2025 13:52:03 GMT-0600 (Central Standard Time),550329.2000000179,A,w,O,w,364,1,382.0,549947.2000000179,7252,WL,C,5.0
5,6.630999803543091,learn,60000.0,Tue Nov 25 2025 13:52:03 GMT-0600 (Central Standard Time),550496.099999994,A,wh,O,h,156,1,548.8999999761581,549947.2000000179,7252,WL,C,5.0
5,6.730999946594238,learn,60000.0,Tue Nov 25 2025 13:52:03 GMT-0600 (Central Standard Time),550596.3000000119,A,whe,O,e,88,1,649.0999999940395,549947.2000000179,7252,WL,C,5.0
5,6.880999803543091,learn,60000.0,Tue Nov 25 2025 13:52:03 GMT-0600 (Central Standard Time),550745.7000000179,A,whea,O,a,139,1,798.5,549947.2000000179,7252,WL,C,5.0
5,7.0309998989105225,learn,60000.0,Tue Nov 25 2025 13:52:03 GMT-0600 (Central Standard Time),550896.599999994,A,wheat,O,t,142,1,949.3999999761581,549947.2000000179,7252,WL,C,5.0
5,7.179999828338623,learn,60000.0,Tue Nov 25 2025 13:52:03 GMT-0600 (Central Standard Time),551045.400000006,A,wheatenter,O,enter,143,1,1098.199999988079,549947.2000000179,7252,WL,C,5.0
5,7.563999891281128,learn,60000.0,Tue Nov 25 2025 13:52:03 GMT-0600 (Central Standard Time),551428.900000006,A,u,O,u,370,1,383.30000001192093,551045.599999994,7252,WL,C,6.0
5,7.913999795913696,learn,60000.0,Tue Nov 25 2025 13:52:03 GMT-0600 (Central Standard Time),551779.3000000119,A,,O,backspace,338,1,733.7000000178814,551045.599999994,7252,WL,C,6.0
5,8.079999923706055,learn,60000.0,Tue Nov 25 2025 13:52:03 GMT-0600 (Central Standard Time),551945.099999994,A,q,O,q,155,1,899.5,551045.599999994,7252,WL,C,6.0
5,8.52999997138977,learn,60000.0,Tue Nov 25 2025 13:52:03 GMT-0600 (Central Standard Time),552395.400000006,A,qu,O,u,447,1,1349.800000011921,551045.599999994,7252,WL,C,6.0
5,8.730000019073486,learn,60000.0,Tue Nov 25 2025 13:52:03 GMT-0600 (Central Standard Time),552595.2000000179,A,que,O,e,196,1,1549.6000000238419,551045.599999994,7252,WL,C,6.0
5,9.013999938964844,learn,60000.0,Tue Nov 25 2025 13:52:03 GMT-0600 (Central Standard Time),552878.7000000179,A,quen,O,n,268,1,1833.1000000238419,551045.599999994,7252,WL,C,6.0
5,9.330999851226807,learn,60000.0,Tue Nov 25 2025 13:52:03 GMT-0600 (Central Standard Time),553195.7000000179,A,que,O,backspace,305,1,2150.100000023842,551045.599999994,7252,WL,C,6.0
5,9.413999795913696,learn,60000.0,Tue Nov 25 2025 13:52:03 GMT-0600 (Central Standard Time),553279.0,A,quee,O,e,75,1,2233.4000000059605,551045.599999994,7252,WL,C,6.0
5,9.52999997138977,learn,60000.0,Tue Nov 25 2025 13:52:03 GMT-0600 (Central Standard Time),553395.3000000119,A,queen,O,n,104,1,2349.7000000178814,551045.599999994,7252,WL,C,6.0
5,9.781999826431274,learn,60000.0,Tue Nov 25 2025 13:52:03 GMT-0600 (Central Standard Time),553647.400000006,A,queenenter,O,enter,236,1,2601.800000011921,551045.599999994,7252,WL,C,6.0
5,10.079999923706055,learn,60000.0,Tue Nov 25 2025 13:52:03 GMT-0600 (Central Standard Time),553944.900000006,A,s,O,s,278,1,297.30000001192093,553647.599999994,7252,WL,C,7.0
5,10.212999820709229,learn,60000.0,Tue Nov 25 2025 13:52:03 GMT-0600 (Central Standard Time),554078.0,A,su,O,u,126,1,430.40000000596046,553647.599999994,7252,WL,C,7.0
5,10.396999835968018,learn,60000.0,Tue Nov 25 2025 13:52:03 GMT-0600 (Central Standard Time),554261.900000006,A,sug,O,g,177,1,614.3000000119209,553647.599999994,7252,WL,C,7.0
5,10.513000011444092,learn,60000.0,Tue Nov 25 2025 13:52:03 GMT-0600 (Central Standard Time),554378.2000000179,A,suga,O,a,105,1,730.6000000238419,553647.599999994,7252,WL,C,7.0
5,10.629999876022339,learn,60000.0,Tue Nov 25 2025 13:52:03 GMT-0600 (Central Standard Time),554494.900000006,A,sugar,O,r,101,1,847.3000000119209,553647.599999994,7252,WL,C,7.0
5,10.813999891281128,learn,60000.0,Tue Nov 25 2025 13:52:03 GMT-0600 (Central Standard Time),554678.8000000119,A,sugarenter,O,enter,175,1,1031.2000000178814,553647.599999994,7252,WL,C,7.0
5,11.145999908447266,learn,60000.0,Tue Nov 25 2025 13:52:03 GMT-0600 (Central Standard Time),555010.900000006,A,h,O,h,329,1,331.90000000596046,554679.0,7252,WL,C,8.0
5,11.211999893188477,learn,60000.0,Tue Nov 25 2025 13:52:03 GMT-0600 (Central Standard Time),555077.5,A,ho,O,o,52,1,398.5,554679.0,7252,WL,C,8.0
5,11.328999996185303,learn,60000.0,Tue Nov 25 2025 13:52:03 GMT-0600 (Central Standard Time),555194.099999994,A,hom,O,m,106,1,515.0999999940395,554679.0,7252,WL,C,8.0
5,11.462999820709229,learn,60000.0,Tue Nov 25 2025 13:52:03 GMT-0600 (Central Standard Time),555328.3000000119,A,home,O,e,117,1,649.3000000119209,554679.0,7252,WL,C,8.0
5,12.145999908447266,learn,60000.0,Tue Nov 25 2025 13:52:03 GMT-0600 (Central Standard Time),556011.5,A,homeenter,O,enter,669,1,1332.5,554679.0,7252,WL,C,8.0
5,12.514999866485596,learn,60000.0,Tue Nov 25 2025 13:52:03 GMT-0600 (Central Standard Time),556380.400000006,A,b,O,b,355,1,368.69999998807907,556011.7000000179,7252,WL,C,9.0
5,12.63099980354309,learn,60000.0,Tue Nov 25 2025 13:52:03 GMT-0600 (Central Standard Time),556496.2000000179,A,bo,O,o,98,1,484.5,556011.7000000179,7252,WL,C,9.0
5,12.745999813079834,learn,60000.0,Tue Nov 25 2025 13:52:03 GMT-0600 (Central Standard Time),556611.400000006,A,boy,O,y,94,1,599.6999999880791,556011.7000000179,7252,WL,C,9.0
5,13.079999923706055,learn,60000.0,Tue Nov 25 2025 13:52:03 GMT-0600 (Central Standard Time),556944.599999994,A,boyenter,O,enter,315,1,932.8999999761581,556011.7000000179,7252,WL,C,9.0
5,13.478999853134155,learn,60000.0,Tue Nov 25 2025 13:52:03 GMT-0600 (Central Standard Time),557344.0,A,d,O,d,382,1,399.09999999403954,556944.900000006,7252,WL,C,10.0
5,13.546000003814697,learn,60000.0,Tue Nov 25 2025 13:52:03 GMT-0600 (Central Standard Time),557410.8000000119,A,do,O,o,55,1,465.90000000596046,556944.900000006,7252,WL,C,10.0
5,13.645999908447266,learn,60000.0,Tue Nov 25 2025 13:52:03 GMT-0600 (Central Standard Time),557510.8000000119,A,doc,O,c,92,1,565.9000000059605,556944.900000006,7252,WL,C,10.0
5,13.811999797821045,learn,60000.0,Tue Nov 25 2025 13:52:03 GMT-0600 (Central Standard Time),557677.0,A,doct,O,t,160,1,732.0999999940395,556944.900000006,7252,WL,C,10.0
5,13.894999980926514,learn,60000.0,Tue Nov 25 2025 13:52:03 GMT-0600 (Central Standard Time),557759.900000006,A,docto,O,o,66,1,815.0,556944.900000006,7252,WL,C,10.0
5,13.99399995803833,learn,60000.0,Tue Nov 25 2025 13:52:03 GMT-0600 (Central Standard Time),557859.599999994,A,doctor,O,r,95,1,914.6999999880791,556944.900000006,7252,WL,C,10.0
5,14.311999797821045,learn,60000.0,Tue Nov 25 2025 13:52:03 GMT-0600 (Central Standard Time),558177.2000000179,A,doctorenter,O,enter,307,1,1232.300000011921,556944.900000006,7252,WL,C,10.0
5,14.561999797821045,learn,60000.0,Tue Nov 25 2025 13:52:03 GMT-0600 (Central Standard Time),558427.400000006,A,c,O,c,238,1,250.09999999403954,558177.3000000119,7252,WL,C,11.0
5,14.661999940872192,learn,60000.0,Tue Nov 25 2025 13:52:03 GMT-0600 (Central Standard Time),558527.5,A,ca,O,a,84,1,350.19999998807907,558177.3000000119,7252,WL,C,11.0
5,14.76199984550476,learn,60000.0,Tue Nov 25 2025 13:52:03 GMT-0600 (Central Standard Time),558626.599999994,A,cam,O,m,95,1,449.2999999821186,558177.3000000119,7252,WL,C,11.0
5,14.861999988555908,learn,60000.0,Tue Nov 25 2025 13:52:03 GMT-0600 (Central Standard Time),558727.099999994,A,camp,O,p,93,1,549.7999999821186,558177.3000000119,7252,WL,C,11.0
5,15.161999940872192,learn,60000.0,Tue Nov 25 2025 13:52:03 GMT-0600 (Central Standard Time),559026.8000000119,A,campenter,O,enter,288,1,849.5,558177.3000000119,7252,WL,C,11.0
5,16.128000020980835,learn,60000.0,Tue Nov 25 2025 13:52:03 GMT-0600 (Central Standard Time),559993.099999994,A,f,O,f,956,1,966.1999999880791,559026.900000006,7252,WL,C,12.0
5,16.294999837875366,learn,60000.0,Tue Nov 25 2025 13:52:03 GMT-0600 (Central Standard Time),560160.0,A,fl,O,l,150,1,1133.0999999940395,559026.900000006,7252,WL,C,12.0
5,16.444000005722046,learn,60000.0,Tue Nov 25 2025 13:52:03 GMT-0600 (Central Standard Time),560309.5,A,fla,O,a,135,1,1282.5999999940395,559026.900000006,7252,WL,C,12.0
5,16.694000005722046,learn,60000.0,Tue Nov 25 2025 13:52:03 GMT-0600 (Central Standard Time),560559.599999994,A,flag,O,g,241,1,1532.699999988079,559026.900000006,7252,WL,C,12.0
5,17.01099991798401,learn,60000.0,Tue Nov 25 2025 13:52:03 GMT-0600 (Central Standard Time),560876.599999994,A,flagenter,O,enter,304,1,1849.699999988079,559026.900000006,7252,WL,C,12.0
5,17.26099991798401,learn,60000.0,Tue Nov 25 2025 13:52:03 GMT-0600 (Central Standard Time),561125.8000000119,A,l,O,l,244,1,249.0,560876.8000000119,7252,WL,C,13.0
5,17.361999988555908,learn,60000.0,Tue Nov 25 2025 13:52:03 GMT-0600 (Central Standard Time),561226.900000006,A,le,O,e,90,1,350.09999999403954,560876.8000000119,7252,WL,C,13.0
5,17.527999877929688,learn,60000.0,Tue Nov 25 2025 13:52:03 GMT-0600 (Central Standard Time),561392.599999994,A,let,O,t,148,1,515.7999999821186,560876.8000000119,7252,WL,C,13.0
5,17.628000020980835,learn,60000.0,Tue Nov 25 2025 13:52:03 GMT-0600 (Central Standard Time),561492.8000000119,A,lett,O,t,94,1,616.0,560876.8000000119,7252,WL,C,13.0
5,17.810999870300293,learn,60000.0,Tue Nov 25 2025 13:52:03 GMT-0600 (Central Standard Time),561675.8000000119,A,lette,O,e,171,1,799.0,560876.8000000119,7252,WL,C,13.0
5,17.84500002861023,learn,60000.0,Tue Nov 25 2025 13:52:03 GMT-0600 (Central Standard Time),561710.099999994,A,letter,O,r,27,1,833.2999999821186,560876.8000000119,7252,WL,C,13.0
5,18.17799997329712,learn,60000.0,Tue Nov 25 2025 13:52:03 GMT-0600 (Central Standard Time),562043.099999994,A,letterenter,O,enter,322,1,1166.2999999821186,560876.8000000119,7252,WL,C,13.0
5,18.361999988555908,learn,60000.0,Tue Nov 25 2025 13:52:03 GMT-0600 (Central Standard Time),562226.8000000119,A,c,O,c,163,1,183.40000000596046,562043.400000006,7252,WL,C,14.0
5,18.444000005722046,learn,60000.0,Tue Nov 25 2025 13:52:03 GMT-0600 (Central Standard Time),562309.5,A,co,O,o,76,1,266.09999999403954,562043.400000006,7252,WL,C,14.0
5,18.544999837875366,learn,60000.0,Tue Nov 25 2025 13:52:03 GMT-0600 (Central Standard Time),562410.099999994,A,cor,O,r,83,1,366.69999998807907,562043.400000006,7252,WL,C,14.0
5,18.67799997329712,learn,60000.0,Tue Nov 25 2025 13:52:03 GMT-0600 (Central Standard Time),562542.8000000119,A,corn,O,n,123,1,499.40000000596046,562043.400000006,7252,WL,C,14.0
5,19.442999839782715,learn,60000.0,Tue Nov 25 2025 13:52:03 GMT-0600 (Central Standard Time),563308.599999994,A,cornenter,O,enter,756,1,1265.199999988079,562043.400000006,7252,WL,C,14.0
5,19.80900001525879,learn,60000.0,Tue Nov 25 2025 13:52:03 GMT-0600 (Central Standard Time),563674.0,A,n,O,n,354,1,365.09999999403954,563308.900000006,7252,WL,C,15.0
5,19.859999895095825,learn,60000.0,Tue Nov 25 2025 13:52:03 GMT-0600 (Central Standard Time),563725.400000006,A,na,O,a,44,1,416.5,563308.900000006,7252,WL,C,15.0
5,20.009999990463257,learn,60000.0,Tue Nov 25 2025 13:52:03 GMT-0600 (Central Standard Time),563875.0,A,nai,O,i,139,1,566.0999999940395,563308.900000006,7252,WL,C,15.0
5,20.143999814987183,learn,60000.0,Tue Nov 25 2025 13:52:03 GMT-0600 (Central Standard Time),564008.8000000119,A,nail,O,l,124,1,699.9000000059605,563308.900000006,7252,WL,C,15.0
5,20.325999975204468,learn,60000.0,Tue Nov 25 2025 13:52:03 GMT-0600 (Central Standard Time),564191.2000000179,A,nailenter,O,enter,175,1,882.3000000119209,563308.900000006,7252,WL,C,15.0
6,0.9489998817443848,distr,59051.000118255615,Tue Nov 25 2025 13:52:03 GMT-0600 (Central Standard Time),641417.099999994,B,s,O,s,938,1,949.0,640468.099999994,7252,WL,C,1.0
6,1.1159999370574951,distr,58884.000062942505,Tue Nov 25 2025 13:52:03 GMT-0600 (Central Standard Time),641584.0,B,sk,O,k,149,1,1115.9000000059605,640468.099999994,7252,WL,C,1.0
6,1.680999994277954,distr,58319.000005722046,Tue Nov 25 2025 13:52:03 GMT-0600 (Central Standard Time),642149.3000000119,B,sky,O,y,559,1,1681.2000000178814,640468.099999994,7252,WL,C,1.0
6,1.8980000019073486,distr,58101.99999809265,Tue Nov 25 2025 13:52:03 GMT-0600 (Central Standard Time),642366.7000000179,B,skyenter,O,enter,202,1,1898.6000000238419,640468.099999994,7252,WL,C,1.0
6,2.697999954223633,distr,57302.00004577637,Tue Nov 25 2025 13:52:03 GMT-0600 (Central Standard Time),643166.8000000119,B,v,O,v,785,1,800.0,642366.8000000119,7252,WL,C,2.0
6,2.7649998664855957,distr,57235.000133514404,Tue Nov 25 2025 13:52:03 GMT-0600 (Central Standard Time),643233.2000000179,B,va,O,a,56,1,866.4000000059605,642366.8000000119,7252,WL,C,2.0
6,2.8980000019073486,distr,57101.99999809265,Tue Nov 25 2025 13:52:03 GMT-0600 (Central Standard Time),643366.0,B,val,O,l,118,1,999.1999999880791,642366.8000000119,7252,WL,C,2.0
6,3.046999931335449,distr,56953.00006866455,Tue Nov 25 2025 13:52:03 GMT-0600 (Central Standard Time),643515.5,B,vall,O,l,145,1,1148.699999988079,642366.8000000119,7252,WL,C,2.0
6,3.197999954223633,distr,56802.00004577637,Tue Nov 25 2025 13:52:03 GMT-0600 (Central Standard Time),643666.2000000179,B,valle,O,e,140,1,1299.4000000059605,642366.8000000119,7252,WL,C,2.0
6,3.315000057220459,distr,56684.99994277954,Tue Nov 25 2025 13:52:03 GMT-0600 (Central Standard Time),643783.0,B,valley,O,y,111,1,1416.199999988079,642366.8000000119,7252,WL,C,2.0
6,3.565000057220459,distr,56434.99994277954,Tue Nov 25 2025 13:52:03 GMT-0600 (Central Standard Time),644033.2000000179,B,valleyenter,O,enter,232,1,1666.4000000059605,642366.8000000119,7252,WL,C,2.0
6,3.813999891281128,distr,56186.00010871887,Tue Nov 25 2025 13:52:03 GMT-0600 (Central Standard Time),644282.7000000179,B,m,O,m,237,1,249.30000001192093,644033.400000006,7252,WL,C,3.0
6,3.8980000019073486,distr,56101.99999809265,Tue Nov 25 2025 13:52:03 GMT-0600 (Central Standard Time),644366.400000006,B,mo,O,o,76,1,333.0,644033.400000006,7252,WL,C,3.0
6,4.066999912261963,distr,55933.00008773804,Tue Nov 25 2025 13:52:03 GMT-0600 (Central Standard Time),644535.2000000179,B,mot,O,t,154,1,501.80000001192093,644033.400000006,7252,WL,C,3.0
6,4.148000001907349,distr,55851.99999809265,Tue Nov 25 2025 13:52:03 GMT-0600 (Central Standard Time),644616.0,B,moth,O,h,64,1,582.5999999940395,644033.400000006,7252,WL,C,3.0
6,4.21399998664856,distr,55786.00001335144,Tue Nov 25 2025 13:52:03 GMT-0600 (Central Standard Time),644682.0,B,mothe,O,e,54,1,648.5999999940395,644033.400000006,7252,WL,C,3.0
6,4.2809998989105225,distr,55719.00010108948,Tue Nov 25 2025 13:52:03 GMT-0600 (Central Standard Time),644749.7000000179,B,mother,O,r,53,1,716.3000000119209,644033.400000006,7252,WL,C,3.0
6,4.54800009727478,distr,55451.99990272522,Tue Nov 25 2025 13:52:03 GMT-0600 (Central Standard Time),645016.400000006,B,motherenter,O,enter,257,1,983.0,644033.400000006,7252,WL,C,3.0
6,4.996999979019165,distr,55003.000020980835,Tue Nov 25 2025 13:52:03 GMT-0600 (Central Standard Time),645465.7000000179,B,q,O,q,430,1,449.10000002384186,645016.599999994,7252,WL,C,4.0
6,5.263999938964844,distr,54736.000061035156,Tue Nov 25 2025 13:52:03 GMT-0600 (Central Standard Time),645732.900000006,B,qh,O,h,253,1,716.3000000119209,645016.599999994,7252,WL,C,4.0
6,5.38100004196167,distr,54618.99995803833,Tue Nov 25 2025 13:52:03 GMT-0600 (Central Standard Time),645849.5,B,qhi,O,i,99,1,832.9000000059605,645016.599999994,7252,WL,C,4.0
6,5.647000074386597,distr,54352.9999256134,Tue Nov 25 2025 13:52:03 GMT-0600 (Central Standard Time),646115.5,B,qh,O,backspace,262,1,1098.9000000059605,645016.599999994,7252,WL,C,4.0
6,5.7799999713897705,distr,54220.00002861023,Tue Nov 25 2025 13:52:03 GMT-0600 (Central Standard Time),646248.7000000179,B,q,O,backspace,124,1,1232.1000000238419,645016.599999994,7252,WL,C,4.0
6,5.846999883651733,distr,54153.00011634827,Tue Nov 25 2025 13:52:03 GMT-0600 (Central Standard Time),646315.5,B,,O,backspace,63,1,1298.9000000059605,645016.599999994,7252,WL,C,4.0
6,6.114000082015991,distr,53885.99991798401,Tue Nov 25 2025 13:52:03 GMT-0600 (Central Standard Time),646582.0,B,c,O,c,261,1,1565.4000000059605,645016.599999994,7252,WL,C,4.0
6,6.230000019073486,distr,53769.999980926514,Tue Nov 25 2025 13:52:03 GMT-0600 (Central Standard Time),646698.599999994,B,ch,O,h,105,1,1682.0,645016.599999994,7252,WL,C,4.0
6,6.331000089645386,distr,53668.999910354614,Tue Nov 25 2025 13:52:03 GMT-0600 (Central Standard Time),646799.099999994,B,chi,O,i,85,1,1782.5,645016.599999994,7252,WL,C,4.0
6,6.430000066757202,distr,53569.9999332428,Tue Nov 25 2025 13:52:03 GMT-0600 (Central Standard Time),646898.900000006,B,chir,O,r,85,1,1882.300000011921,645016.599999994,7252,WL,C,4.0
6,6.546999931335449,distr,53453.00006866455,Tue Nov 25 2025 13:52:03 GMT-0600 (Central Standard Time),647015.5,B,chiri,O,i,108,1,1998.9000000059605,645016.599999994,7252,WL,C,4.0
6,6.7799999713897705,distr,53220.00002861023,Tue Nov 25 2025 13:52:03 GMT-0600 (Central Standard Time),647248.599999994,B,chiris,O,s,215,1,2232.0,645016.599999994,7252,WL,C,4.0
6,7.046999931335449,distr,52953.00006866455,Tue Nov 25 2025 13:52:03 GMT-0600 (Central Standard Time),647515.5,B,chiri,O,backspace,247,1,2498.9000000059605,645016.599999994,7252,WL,C,4.0
6,7.162999868392944,distr,52837.000131607056,Tue Nov 25 2025 13:52:03 GMT-0600 (Central Standard Time),647631.900000006,B,chir,O,backspace,99,1,2615.300000011921,645016.599999994,7252,WL,C,4.0
6,7.246000051498413,distr,52753.99994850159,Tue Nov 25 2025 13:52:03 GMT-0600 (Central Standard Time),647714.8000000119,B,chi,O,backspace,71,1,2698.2000000178814,645016.599999994,7252,WL,C,4.0
6,7.546999931335449,distr,52453.00006866455,Tue Nov 25 2025 13:52:03 GMT-0600 (Central Standard Time),648015.099999994,B,chis,O,s,292,1,2998.5,645016.599999994,7252,WL,C,4.0
6,7.647000074386597,distr,52352.9999256134,Tue Nov 25 2025 13:52:03 GMT-0600 (Central Standard Time),648114.900000006,B,chist,O,t,97,1,3098.300000011921,645016.599999994,7252,WL,C,4.0
6,7.947000026702881,distr,52052.99997329712,Tue Nov 25 2025 13:52:03 GMT-0600 (Central Standard Time),648415.599999994,B,chistm,O,m,285,1,3399.0,645016.599999994,7252,WL,C,4.0
6,8.079999923706055,distr,51920.000076293945,Tue Nov 25 2025 13:52:03 GMT-0600 (Central Standard Time),648548.2000000179,B,chistma,O,a,118,1,3531.600000023842,645016.599999994,7252,WL,C,4.0
6,8.446000099182129,distr,51553.99990081787,Tue Nov 25 2025 13:52:03 GMT-0600 (Central Standard Time),648914.7000000179,B,chistmas,O,s,364,1,3898.100000023842,645016.599999994,7252,WL,C,4.0
6,8.796000003814697,distr,51203.9999961853,Tue Nov 25 2025 13:52:03 GMT-0600 (Central Standard Time),649264.2000000179,B,chistmasenter,O,enter,341,1,4247.600000023842,645016.599999994,7252,WL,C,4.0
6,9.062999963760376,distr,50937.000036239624,Tue Nov 25 2025 13:52:03 GMT-0600 (Central Standard Time),649531.400000006,B,m,O,m,262,1,267.0,649264.400000006,7252,WL,C,5.0
6,9.211999893188477,distr,50788.00010681152,Tue Nov 25 2025 13:52:03 GMT-0600 (Central Standard Time),649680.8000000119,B,mo,O,o,140,1,416.40000000596046,649264.400000006,7252,WL,C,5.0
6,9.395999908447266,distr,50604.000091552734,Tue Nov 25 2025 13:52:03 GMT-0600 (Central Standard Time),649864.0,B,mon,O,n,175,1,599.5999999940395,649264.400000006,7252,WL,C,5.0
6,9.629999876022339,distr,50370.00012397766,Tue Nov 25 2025 13:52:03 GMT-0600 (Central Standard Time),650098.2000000179,B,mone,O,e,223,1,833.8000000119209,649264.400000006,7252,WL,C,5.0
6,9.77999997138977,distr,50220.00002861023,Tue Nov 25 2025 13:52:03 GMT-0600 (Central Standard Time),650247.900000006,B,money,O,y,140,1,983.5,649264.400000006,7252,WL,C,5.0
6,10.01200008392334,distr,49987.99991607666,Tue Nov 25 2025 13:52:03 GMT-0600 (Central Standard Time),650480.8000000119,B,moneyenter,O,enter,224,1,1216.4000000059605,649264.400000006,7252,WL,C,5.0
6,19.55900001525879,distr,40440.99998474121,Tue Nov 25 2025 13:52:03 GMT-0600 (Central Standard Time),660027.8000000119,B,h,O,h,9533,1,9546.90000000596,650480.900000006,7252,WL,C,6.0
6,19.64400005340576,distr,40355.99994659424,Tue Nov 25 2025 13:52:03 GMT-0600 (Central Standard Time),660112.3000000119,B,ha,O,a,74,1,9631.40000000596,650480.900000006,7252,WL,C,6.0
6,19.776000022888184,distr,40223.99997711182,Tue Nov 25 2025 13:52:03 GMT-0600 (Central Standard Time),660244.5,B,hal,O,l,120,1,9763.59999999404,650480.900000006,7252,WL,C,6.0
6,19.908999919891357,distr,40091.00008010864,Tue Nov 25 2025 13:52:03 GMT-0600 (Central Standard Time),660377.7000000179,B,hall,O,l,123,1,9896.800000011921,650480.900000006,7252,WL,C,6.0
6,20.058000087738037,distr,39941.99991226196,Tue Nov 25 2025 13:52:03 GMT-0600 (Central Standard Time),660527.099999994,B,hallenter,O,enter,134,1,10046.199999988079,650480.900000006,7252,WL,C,6.0
6,25.58999991416931,distr,34410.00008583069,Tue Nov 25 2025 13:52:03 GMT-0600 (Central Standard Time),666058.8000000119,B,t,O,t,5528,1,5531.5,660527.3000000119,7252,WL,C,7.0
6,25.69099998474121,distr,34309.00001525879,Tue Nov 25 2025 13:52:03 GMT-0600 (Central Standard Time),666159.900000006,B,to,O,o,84,1,5632.5999999940395,660527.3000000119,7252,WL,C,7.0
6,26.072999954223633,distr,33927.00004577637,Tue Nov 25 2025 13:52:03 GMT-0600 (Central Standard Time),666542.099999994,B,too,O,o,367,1,6014.799999982119,660527.3000000119,7252,WL,C,7.0
6,26.223000049591064,distr,33776.999950408936,Tue Nov 25 2025 13:52:03 GMT-0600 (Central Standard Time),666691.7000000179,B,tool,O,l,137,1,6164.4000000059605,660527.3000000119,7252,WL,C,7.0
6,26.457000017166138,distr,33542.99998283386,Tue Nov 25 2025 13:52:03 GMT-0600 (Central Standard Time),666925.599999994,B,toolenter,O,enter,228,1,6398.299999982119,660527.3000000119,7252,WL,C,7.0
6,41.003000020980835,distr,18996.999979019165,Tue Nov 25 2025 13:52:03 GMT-0600 (Central Standard Time),681471.2000000179,B,d,O,d,14536,1,14545.40000000596,666925.8000000119,7252,WL,C,8.0
6,41.11899995803833,distr,18881.00004196167,Tue Nov 25 2025 13:52:03 GMT-0600 (Central Standard Time),681587.2000000179,B,do,O,o,104,1,14661.40000000596,666925.8000000119,7252,WL,C,8.0
6,41.26799988746643,distr,18732.00011253357,Tue Nov 25 2025 13:52:03 GMT-0600 (Central Standard Time),681737.2000000179,B,dol,O,l,140,1,14811.40000000596,666925.8000000119,7252,WL,C,8.0
6,41.418999910354614,distr,18581.000089645386,Tue Nov 25 2025 13:52:03 GMT-0600 (Central Standard Time),681887.5,B,doll,O,l,136,1,14961.699999988079,666925.8000000119,7252,WL,C,8.0
6,41.46799993515015,distr,18532.000064849854,Tue Nov 25 2025 13:52:03 GMT-0600 (Central Standard Time),681936.400000006,B,dolla,O,a,39,1,15010.59999999404,666925.8000000119,7252,WL,C,8.0
6,41.568000078201294,distr,18431.999921798706,Tue Nov 25 2025 13:52:03 GMT-0600 (Central Standard Time),682036.900000006,B,dollar,O,r,94,1,15111.09999999404,666925.8000000119,7252,WL,C,8.0
6,41.80200004577637,distr,18197.999954223633,Tue Nov 25 2025 13:52:03 GMT-0600 (Central Standard Time),682270.400000006,B,dollarenter,O,enter,218,1,15344.59999999404,666925.8000000119,7252,WL,C,8.0
6,53.83200001716614,distr,6167.999982833862,Tue Nov 25 2025 13:52:03 GMT-0600 (Central Standard Time),694301.0,B,enter,O,enter,12025,1,12030.299999982119,682270.7000000179,7252,WL,C,9.0
6,54.28200006484985,distr,5717.9999351501465,Tue Nov 25 2025 13:52:03 GMT-0600 (Central Standard Time),694750.5,B,enter,O,enter,434,1,449.19999998807907,694301.3000000119,7252,WL,C,10.0
6,54.581000089645386,distr,5418.999910354614,Tue Nov 25 2025 13:52:03 GMT-0600 (Central Standard Time),695050.0,B,enter,O,enter,280,1,299.2999999821186,694750.7000000179,7252,WL,C,11.0
6,54.71399998664856,distr,5286.00001335144,Tue Nov 25 2025 13:52:03 GMT-0600 (Central Standard Time),695183.099999994,B,enter,O,enter,125,1,132.89999997615814,695050.2000000179,7252,WL,C,12.0
6,54.88199996948242,distr,5118.000030517578,Tue Nov 25 2025 13:52:03 GMT-0600 (Central Standard Time),695350.400000006,B,enter,O,enter,160,1,167.0,695183.400000006,7252,WL,C,13.0
6,55.348000049591064,distr,4651.999950408936,Tue Nov 25 2025 13:52:03 GMT-0600 (Central Standard Time),695816.400000006,B,enter,O,enter,447,1,465.69999998807907,695350.7000000179,7252,WL,C,14.0
6,55.914000034332275,distr,4085.9999656677246,Tue Nov 25 2025 13:52:03 GMT-0600 (Central Standard Time),696382.8000000119,B,enter,O,enter,559,1,566.2000000178814,695816.599999994,7252,WL,C,15.0
7,0.5989999771118164,immed,59401.00002288818,Tue Nov 25 2025 13:52:03 GMT-0600 (Central Standard Time),707295.3000000119,A,t,O,t,582,1,598.7000000178814,706696.599999994,7252,WL,C,1.0
7,0.75,immed,59250.0,Tue Nov 25 2025 13:52:03 GMT-0600 (Central Standard Time),707446.599999994,A,to,O,o,145,1,750.0,706696.599999994,7252,WL,C,1.0
7,0.8660001754760742,immed,59133.999824523926,Tue Nov 25 2025 13:52:03 GMT-0600 (Central Standard Time),707563.099999994,A,tow,O,w,113,1,866.5,706696.599999994,7252,WL,C,1.0
7,1.2320001125335693,immed,58767.99988746643,Tue Nov 25 2025 13:52:03 GMT-0600 (Central Standard Time),707929.0,A,towe,O,e,348,1,1232.4000000059605,706696.599999994,7252,WL,C,1.0
7,1.3990001678466797,immed,58600.99983215332,Tue Nov 25 2025 13:52:03 GMT-0600 (Central Standard Time),708095.3000000119,A,tower,O,r,158,1,1398.7000000178814,706696.599999994,7252,WL,C,1.0
7,2.065999984741211,immed,57934.00001525879,Tue Nov 25 2025 13:52:03 GMT-0600 (Central Standard Time),708762.900000006,A,towerenter,O,enter,664,1,2066.300000011921,706696.599999994,7252,WL,C,1.0
7,2.615000009536743,immed,57384.99999046326,Tue Nov 25 2025 13:52:03 GMT-0600 (Central Standard Time),709311.599999994,A,w,O,w,541,1,548.5999999940395,708763.0,7252,WL,C,2.0
7,2.799999952316284,immed,57200.000047683716,Tue Nov 25 2025 13:52:03 GMT-0600 (Central Standard Time),709496.2000000179,A,we,O,e,166,1,733.2000000178814,708763.0,7252,WL,C,2.0
7,2.947999954223633,immed,57052.00004577637,Tue Nov 25 2025 13:52:03 GMT-0600 (Central Standard Time),709645.099999994,A,weh,O,h,134,1,882.0999999940395,708763.0,7252,WL,C,2.0
7,3.3480000495910645,immed,56651.999950408936,Tue Nov 25 2025 13:52:03 GMT-0600 (Central Standard Time),710044.599999994,A,we,O,backspace,385,1,1281.5999999940395,708763.0,7252,WL,C,2.0
7,3.447999954223633,immed,56552.00004577637,Tue Nov 25 2025 13:52:03 GMT-0600 (Central Standard Time),710145.0,A,w,O,backspace,91,1,1382.0,708763.0,7252,WL,C,2.0
7,3.6490001678466797,immed,56350.99983215332,Tue Nov 25 2025 13:52:03 GMT-0600 (Central Standard Time),710345.7000000179,A,wh,O,h,182,1,1582.7000000178814,708763.0,7252,WL,C,2.0
7,3.7320001125335693,immed,56267.99988746643,Tue Nov 25 2025 13:52:03 GMT-0600 (Central Standard Time),710428.400000006,A,whe,O,e,70,1,1665.4000000059605,708763.0,7252,WL,C,2.0
7,3.8480000495910645,immed,56151.999950408936,Tue Nov 25 2025 13:52:03 GMT-0600 (Central Standard Time),710544.900000006,A,whea,O,a,98,1,1781.9000000059605,708763.0,7252,WL,C,2.0
7,3.947999954223633,immed,56052.00004577637,Tue Nov 25 2025 13:52:03 GMT-0600 (Central Standard Time),710645.099999994,A,wheat,O,t,95,1,1882.0999999940395,708763.0,7252,WL,C,2.0
7,7.230000019073486,immed,52769.999980926514,Tue Nov 25 2025 13:52:03 GMT-0600 (Central Standard Time),713926.900000006,A,wheatenter,O,enter,3266,1,5163.9000000059605,708763.0,7252,WL,C,2.0
7,7.781000137329102,immed,52218.9998626709,Tue Nov 25 2025 13:52:03 GMT-0600 (Central Standard Time),714477.3000000119,A,q,O,q,545,1,550.3000000119209,713927.0,7252,WL,C,3.0
7,7.913000106811523,immed,52086.99989318848,Tue Nov 25 2025 13:52:03 GMT-0600 (Central Standard Time),714610.2000000179,A,qu,O,u,113,1,683.2000000178814,713927.0,7252,WL,C,3.0
7,8.082000017166138,immed,51917.99998283386,Tue Nov 25 2025 13:52:03 GMT-0600 (Central Standard Time),714778.400000006,A,que,O,e,149,1,851.4000000059605,713927.0,7252,WL,C,3.0
7,8.23200011253357,immed,51767.99988746643,Tue Nov 25 2025 13:52:03 GMT-0600 (Central Standard Time),714928.900000006,A,quee,O,e,133,1,1001.9000000059605,713927.0,7252,WL,C,3.0
7,8.297000169754028,immed,51702.99983024597,Tue Nov 25 2025 13:52:03 GMT-0600 (Central Standard Time),714993.400000006,A,queen,O,n,54,1,1066.4000000059605,713927.0,7252,WL,C,3.0
7,8.546000003814697,immed,51453.9999961853,Tue Nov 25 2025 13:52:03 GMT-0600 (Central Standard Time),715242.900000006,A,queenenter,O,enter,238,1,1315.9000000059605,713927.0,7252,WL,C,3.0
7,10.562999963760376,immed,49437.000036239624,Tue Nov 25 2025 13:52:03 GMT-0600 (Central Standard Time),717259.7000000179,A,s,O,s,1997,1,2016.7000000178814,715243.0,7252,WL,C,4.0
7,10.630000114440918,immed,49369.99988555908,Tue Nov 25 2025 13:52:03 GMT-0600 (Central Standard Time),717326.7000000179,A,sh,O,h,59,1,2083.7000000178814,715243.0,7252,WL,C,4.0
7,10.713000059127808,immed,49286.99994087219,Tue Nov 25 2025 13:52:03 GMT-0600 (Central Standard Time),717409.900000006,A,sho,O,o,64,1,2166.9000000059605,715243.0,7252,WL,C,4.0
7,10.796000003814697,immed,49203.9999961853,Tue Nov 25 2025 13:52:03 GMT-0600 (Central Standard Time),717492.7000000179,A,shor,O,r,68,1,2249.7000000178814,715243.0,7252,WL,C,4.0
7,10.828999996185303,immed,49171.0000038147,Tue Nov 25 2025 13:52:03 GMT-0600 (Central Standard Time),717525.7000000179,A,shore,O,e,25,1,2282.7000000178814,715243.0,7252,WL,C,4.0
7,11.51200008392334,immed,48487.99991607666,Tue Nov 25 2025 13:52:03 GMT-0600 (Central Standard Time),718209.099999994,A,shoreenter,O,enter,665,1,2966.0999999940395,715243.0,7252,WL,C,4.0
7,11.878000020980835,immed,48121.999979019165,Tue Nov 25 2025 13:52:03 GMT-0600 (Central Standard Time),718575.099999994,A,b,O,b,349,1,365.7999999821186,718209.3000000119,7252,WL,C,5.0
7,11.978000164031982,immed,48021.99983596802,Tue Nov 25 2025 13:52:03 GMT-0600 (Central Standard Time),718675.099999994,A,bo,O,o,95,1,465.7999999821186,718209.3000000119,7252,WL,C,5.0
7,12.17900013923645,immed,47820.99986076355,Tue Nov 25 2025 13:52:03 GMT-0600 (Central Standard Time),718875.900000006,A,boy,O,y,196,1,666.5999999940395,718209.3000000119,7252,WL,C,5.0
7,12.511000156402588,immed,47488.99984359741,Tue Nov 25 2025 13:52:03 GMT-0600 (Central Standard Time),719208.3000000119,A,bo,O,backspace,315,1,999.0,718209.3000000119,7252,WL,C,5.0
7,12.59500002861023,immed,47404.99997138977,Tue Nov 25 2025 13:52:03 GMT-0600 (Central Standard Time),719291.900000006,A,bod,O,d,79,1,1082.5999999940395,718209.3000000119,7252,WL,C,5.0
7,12.728000164031982,immed,47271.99983596802,Tue Nov 25 2025 13:52:03 GMT-0600 (Central Standard Time),719425.400000006,A,body,O,y,115,1,1216.0999999940395,718209.3000000119,7252,WL,C,5.0
7,13.41100001335144,immed,46588.99998664856,Tue Nov 25 2025 13:52:03 GMT-0600 (Central Standard Time),720107.900000006,A,bodyenter,O,enter,679,1,1898.5999999940395,718209.3000000119,7252,WL,C,5.0
7,14.01200008392334,immed,45987.99991607666,Tue Nov 25 2025 13:52:03 GMT-0600 (Central Standard Time),720709.099999994,A,d,O,d,595,1,601.0,720108.099999994,7252,WL,C,6.0
7,14.111999988555908,immed,45888.00001144409,Tue Nov 25 2025 13:52:03 GMT-0600 (Central Standard Time),720808.900000006,A,do,O,o,81,1,700.8000000119209,720108.099999994,7252,WL,C,6.0
7,14.210999965667725,immed,45789.000034332275,Tue Nov 25 2025 13:52:03 GMT-0600 (Central Standard Time),720908.099999994,A,doc,O,c,86,1,800.0,720108.099999994,7252,WL,C,6.0
7,14.361000061035156,immed,45638.999938964844,Tue Nov 25 2025 13:52:03 GMT-0600 (Central Standard Time),721057.900000006,A,doct,O,t,139,1,949.8000000119209,720108.099999994,7252,WL,C,6.0
7,14.444000005722046,immed,45555.999994277954,Tue Nov 25 2025 13:52:03 GMT-0600 (Central Standard Time),721141.2000000179,A,docto,O,o,78,1,1033.1000000238419,720108.099999994,7252,WL,C,6.0
7,14.57800006866455,immed,45421.99993133545,Tue Nov 25 2025 13:52:03 GMT-0600 (Central Standard Time),721274.599999994,A,doctor,O,r,112,1,1166.5,720108.099999994,7252,WL,C,6.0
7,14.92799997329712,immed,45072.00002670288,Tue Nov 25 2025 13:52:03 GMT-0600 (Central Standard Time),721624.5,A,doctorenter,O,enter,341,1,1516.4000000059605,720108.099999994,7252,WL,C,6.0
7,16.24500012397766,immed,43754.99987602234,Tue Nov 25 2025 13:52:03 GMT-0600 (Central Standard Time),722941.5,A,c,O,c,1301,1,1316.7999999821186,721624.7000000179,7252,WL,C,7.0
7,16.361000061035156,immed,43638.999938964844,Tue Nov 25 2025 13:52:03 GMT-0600 (Central Standard Time),723058.099999994,A,ca,O,a,105,1,1433.3999999761581,721624.7000000179,7252,WL,C,7.0
7,16.528000116348267,immed,43471.99988365173,Tue Nov 25 2025 13:52:03 GMT-0600 (Central Standard Time),723224.599999994,A,cam,O,m,148,1,1599.8999999761581,721624.7000000179,7252,WL,C,7.0
7,16.64400005340576,immed,43355.99994659424,Tue Nov 25 2025 13:52:03 GMT-0600 (Central Standard Time),723341.099999994,A,camp,O,p,103,1,1716.3999999761581,721624.7000000179,7252,WL,C,7.0
7,17.011000156402588,immed,42988.99984359741,Tue Nov 25 2025 13:52:03 GMT-0600 (Central Standard Time),723708.3000000119,A,campenter,O,enter,355,1,2083.5999999940395,721624.7000000179,7252,WL,C,7.0
7,18.49399995803833,immed,41506.00004196167,Tue Nov 25 2025 13:52:03 GMT-0600 (Central Standard Time),725190.8000000119,A,c,O,c,1474,1,1482.4000000059605,723708.400000006,7252,WL,C,8.0
7,18.593000173568726,immed,41406.999826431274,Tue Nov 25 2025 13:52:03 GMT-0600 (Central Standard Time),725290.099999994,A,co,O,o,80,1,1581.699999988079,723708.400000006,7252,WL,C,8.0
7,18.70900011062622,immed,41290.99988937378,Tue Nov 25 2025 13:52:03 GMT-0600 (Central Standard Time),725406.3000000119,A,cor,O,r,101,1,1697.9000000059605,723708.400000006,7252,WL,C,8.0
7,18.792999982833862,immed,41207.00001716614,Tue Nov 25 2025 13:52:03 GMT-0600 (Central Standard Time),725489.900000006,A,corn,O,n,64,1,1781.5,723708.400000006,7252,WL,C,8.0
7,18.9760000705719,immed,41023.9999294281,Tue Nov 25 2025 13:52:03 GMT-0600 (Central Standard Time),725673.3000000119,A,cornenter,O,enter,173,1,1964.9000000059605,723708.400000006,7252,WL,C,8.0
7,19.22699999809265,immed,40773.00000190735,Tue Nov 25 2025 13:52:03 GMT-0600 (Central Standard Time),725923.7000000179,A,n,O,n,237,1,250.2000000178814,725673.5,7252,WL,C,9.0
7,19.360000133514404,immed,40639.999866485596,Tue Nov 25 2025 13:52:03 GMT-0600 (Central Standard Time),726056.599999994,A,na,O,a,123,1,383.09999999403954,725673.5,7252,WL,C,9.0
7,19.493000030517578,immed,40506.99996948242,Tue Nov 25 2025 13:52:03 GMT-0600 (Central Standard Time),726189.599999994,A,nai,O,i,127,1,516.0999999940395,725673.5,7252,WL,C,9.0
7,19.64300012588501,immed,40356.99987411499,Tue Nov 25 2025 13:52:03 GMT-0600 (Central Standard Time),726340.2000000179,A,nail,O,l,137,1,666.7000000178814,725673.5,7252,WL,C,9.0
7,19.858999967575073,immed,40141.00003242493,Tue Nov 25 2025 13:52:03 GMT-0600 (Central Standard Time),726556.2000000179,A,nailenter,O,enter,213,1,882.7000000178814,725673.5,7252,WL,C,9.0
7,20.04200005531311,immed,39957.99994468689,Tue Nov 25 2025 13:52:03 GMT-0600 (Central Standard Time),726739.2000000179,A,c,O,c,178,1,182.80000001192093,726556.400000006,7252,WL,C,10.0
7,20.159000158309937,immed,39840.99984169006,Tue Nov 25 2025 13:52:03 GMT-0600 (Central Standard Time),726856.5,A,ca,O,a,108,1,300.09999999403954,726556.400000006,7252,WL,C,10.0
7,20.325999975204468,immed,39674.00002479553,Tue Nov 25 2025 13:52:03 GMT-0600 (Central Standard Time),727023.2000000179,A,cat,O,t,158,1,466.80000001192093,726556.400000006,7252,WL,C,10.0
7,20.442000150680542,immed,39557.99984931946,Tue Nov 25 2025 13:52:03 GMT-0600 (Central Standard Time),727139.400000006,A,catt,O,t,113,1,583.0,726556.400000006,7252,WL,C,10.0
7,20.54200005531311,immed,39457.99994468689,Tue Nov 25 2025 13:52:03 GMT-0600 (Central Standard Time),727239.400000006,A,cattl,O,l,84,1,683.0,726556.400000006,7252,WL,C,10.0
7,20.659000158309937,immed,39340.99984169006,Tue Nov 25 2025 13:52:03 GMT-0600 (Central Standard Time),727356.0,A,cattle,O,e,103,1,799.5999999940395,726556.400000006,7252,WL,C,10.0
7,20.79200005531311,immed,39207.99994468689,Tue Nov 25 2025 13:52:03 GMT-0600 (Central Standard Time),727489.5,A,cattleenter,O,enter,122,1,933.0999999940395,726556.400000006,7252,WL,C,10.0
7,23.957000017166138,immed,36042.99998283386,Tue Nov 25 2025 13:52:03 GMT-0600 (Central Standard Time),730654.5,A,q,O,q,3150,1,3164.9000000059605,727489.599999994,7252,WL,C,11.0
7,24.091000080108643,immed,35908.99991989136,Tue Nov 25 2025 13:52:03 GMT-0600 (Central Standard Time),730788.3000000119,A,qu,O,u,123,1,3298.7000000178814,727489.599999994,7252,WL,C,11.0
7,24.241000175476074,immed,35758.999824523926,Tue Nov 25 2025 13:52:03 GMT-0600 (Central Standard Time),730938.3000000119,A,que,O,e,129,1,3448.7000000178814,727489.599999994,7252,WL,C,11.0
7,24.391000032424927,immed,35608.99996757507,Tue Nov 25 2025 13:52:03 GMT-0600 (Central Standard Time),731087.900000006,A,quee,O,e,132,1,3598.300000011921,727489.599999994,7252,WL,C,11.0
7,24.475000143051147,immed,35524.99985694885,Tue Nov 25 2025 13:52:03 GMT-0600 (Central Standard Time),731171.7000000179,A,queen,O,n,70,1,3682.100000023842,727489.599999994,7252,WL,C,11.0
7,24.641000032424927,immed,35358.99996757507,Tue Nov 25 2025 13:52:03 GMT-0600 (Central Standard Time),731338.400000006,A,queenenter,O,enter,163,1,3848.800000011921,727489.599999994,7252,WL,C,11.0
7,32.90499997138977,immed,27095.00002861023,Tue Nov 25 2025 13:52:03 GMT-0600 (Central Standard Time),739602.400000006,A,l,O,l,8254,1,8263.90000000596,731338.5,7252,WL,C,12.0
7,32.98900008201599,immed,27010.99991798401,Tue Nov 25 2025 13:52:03 GMT-0600 (Central Standard Time),739685.5,A,le,O,e,77,1,8347.0,731338.5,7252,WL,C,12.0
7,33.15499997138977,immed,26845.00002861023,Tue Nov 25 2025 13:52:03 GMT-0600 (Central Standard Time),739852.3000000119,A,let,O,t,154,1,8513.800000011921,731338.5,7252,WL,C,12.0
7,33.28800010681152,immed,26711.999893188477,Tue Nov 25 2025 13:52:03 GMT-0600 (Central Standard Time),739985.0,A,lett,O,t,114,1,8646.5,731338.5,7252,WL,C,12.0
7,33.50500011444092,immed,26494.999885559082,Tue Nov 25 2025 13:52:03 GMT-0600 (Central Standard Time),740201.900000006,A,lette,O,e,207,1,8863.40000000596,731338.5,7252,WL,C,12.0
7,33.57200002670288,immed,26427.99997329712,Tue Nov 25 2025 13:52:03 GMT-0600 (Central Standard Time),740269.3000000119,A,letter,O,r,53,1,8930.800000011921,731338.5,7252,WL,C,12.0
7,33.73800015449524,immed,26261.99984550476,Tue Nov 25 2025 13:52:03 GMT-0600 (Central Standard Time),740435.2000000179,A,letterenter,O,enter,153,1,9096.700000017881,731338.5,7252,WL,C,12.0
7,43.455000162124634,immed,16544.999837875366,Tue Nov 25 2025 13:52:03 GMT-0600 (Central Standard Time),750151.7000000179,A,enter,O,enter,9709,1,9716.200000017881,740435.5,7252,WL,C,13.0
7,43.76900005340576,immed,16230.999946594238,Tue Nov 25 2025 13:52:03 GMT-0600 (Central Standard Time),750466.400000006,A,enter,O,enter,302,1,314.30000001192093,750152.099999994,7252,WL,C,14.0
7,44.36800003051758,immed,15631.999969482422,Tue Nov 25 2025 13:52:03 GMT-0600 (Central Standard Time),751065.2000000179,A,enter,O,enter,588,1,598.5,750466.7000000179,7252,WL,C,15.0
