acc_sum,block,block_c,block_cond,con_img,correct,correct_response,datetime,endtime,face,jitter,line,project,response,response_time,row_sel,session_number,start_end,starttime,subject_id,task,task_vers,trial
1,prac,1,A,haborder.png,1,z,Fri May 15 2026 09:49:11 GMT-0400 (Eastern Daylight Time),92439.29999995232,CFD-BF-002-018-A.jpg,1200,solid,I,z,1180,6,2,3166.9000000953674,89272.39999985695,9057,ATS,C,1
2,prac,1,A,haborder.png,1,m,Fri May 15 2026 09:49:11 GMT-0400 (Eastern Daylight Time),95589.09999990463,CFD-BM-034-035-HC.jpg,1700,solid,I,m,665,1,2,6316.700000047684,89272.39999985695,9057,ATS,C,2
3,prac,1,A,haborder.png,1,z,Fri May 15 2026 09:49:11 GMT-0400 (Eastern Daylight Time),98105.89999985695,CFD-BF-031-020-A.jpg,1000,solid,I,z,727,4,2,8833.5,89272.39999985695,9057,ATS,C,3
4,prac,1,A,haborder.png,1,m,Fri May 15 2026 09:49:11 GMT-0400 (Eastern Daylight Time),101272.39999985695,CFD-WF-013-009-HC.jpg,1500,solid,I,m,879,11,2,12000.0,89272.39999985695,9057,ATS,C,4
5,prac,1,A,haborder.png,1,z,Fri May 15 2026 09:49:11 GMT-0400 (Eastern Daylight Time),104422.5,CFD-BM-043-014-A.jpg,1600,solid,I,z,747,2,2,15150.100000143051,89272.39999985695,9057,ATS,C,5
6,prac,1,A,haborder.png,1,z,Fri May 15 2026 09:49:11 GMT-0400 (Eastern Daylight Time),107539.19999980927,CFD-WF-037-016-A.jpg,1600,solid,I,z,718,10,2,18266.799999952316,89272.39999985695,9057,ATS,C,6
6,prac,1,A,haborder.png,0,m,Fri May 15 2026 09:49:11 GMT-0400 (Eastern Daylight Time),111589.09999990463,CFD-BF-019-004-HC.jpg,2000,solid,I,z,1249,5,2,22316.700000047684,89272.39999985695,9057,ATS,C,7
7,prac,1,A,haborder.png,1,m,Fri May 15 2026 09:49:11 GMT-0400 (Eastern Daylight Time),115155.79999995232,CFD-WM-035-036-HC.jpg,1700,solid,I,m,1067,9,2,25883.400000095367,89272.39999985695,9057,ATS,C,8
8,prac,1,A,haborder.png,1,z,Fri May 15 2026 09:49:11 GMT-0400 (Eastern Daylight Time),117739.09999990463,CFD-WF-023-013-A.jpg,1000,solid,I,z,793,12,2,28466.700000047684,89272.39999985695,9057,ATS,C,9
9,prac,1,A,haborder.png,1,m,Fri May 15 2026 09:49:11 GMT-0400 (Eastern Daylight Time),120989.09999990463,CFD-BM-022-004-HC.jpg,1500,solid,I,m,957,3,2,31716.700000047684,89272.39999985695,9057,ATS,C,10
10,prac,1,A,haborder.png,1,z,Fri May 15 2026 09:49:11 GMT-0400 (Eastern Daylight Time),124472.59999990463,CFD-WM-036-018-A.jpg,1900,solid,I,z,795,8,2,35200.200000047684,89272.39999985695,9057,ATS,C,11
11,prac,1,A,haborder.png,1,m,Fri May 15 2026 09:49:11 GMT-0400 (Eastern Daylight Time),127705.89999985695,CFD-WM-028-005-HC.jpg,1400,solid,I,m,1026,7,2,38433.5,89272.39999985695,9057,ATS,C,12
1,prac,1,B,mfborder.png,1,z,Fri May 15 2026 09:49:11 GMT-0400 (Eastern Daylight Time),156589.09999990463,CFD-BF-019-004-HC.jpg,1400,7,I,z,724,dash,2,2916.7000000476837,153672.39999985695,9057,ATS,C,1
2,prac,1,B,mfborder.png,1,m,Fri May 15 2026 09:49:11 GMT-0400 (Eastern Daylight Time),159272.5,CFD-WM-034-040-A.jpg,1200,6,I,m,695,dash,2,5600.100000143051,153672.39999985695,9057,ATS,C,2
3,prac,1,B,mfborder.png,1,z,Fri May 15 2026 09:49:11 GMT-0400 (Eastern Daylight Time),161755.89999985695,CFD-WF-013-009-HC.jpg,1000,12,I,z,692,dash,2,8083.5,153672.39999985695,9057,ATS,C,3
4,prac,1,B,mfborder.png,1,m,Fri May 15 2026 09:49:11 GMT-0400 (Eastern Daylight Time),165155.79999995232,CFD-WM-035-036-HC.jpg,1600,10,I,m,1005,dash,2,11483.400000095367,153672.39999985695,9057,ATS,C,4
5,prac,1,B,mfborder.png,1,m,Fri May 15 2026 09:49:11 GMT-0400 (Eastern Daylight Time),168239.19999980927,CFD-BM-022-004-HC.jpg,1700,1,I,m,588,dash,2,14566.799999952316,153672.39999985695,9057,ATS,C,5
6,prac,1,B,mfborder.png,1,m,Fri May 15 2026 09:49:11 GMT-0400 (Eastern Daylight Time),171339.0,CFD-BM-021-026-A.jpg,1600,2,I,m,709,dash,2,17666.60000014305,153672.39999985695,9057,ATS,C,6
7,prac,1,B,mfborder.png,1,z,Fri May 15 2026 09:49:11 GMT-0400 (Eastern Daylight Time),174322.5,CFD-WF-037-016-A.jpg,1500,11,I,z,668,dash,2,20650.10000014305,153672.39999985695,9057,ATS,C,7
8,prac,1,B,mfborder.png,1,z,Fri May 15 2026 09:49:11 GMT-0400 (Eastern Daylight Time),176805.79999995232,CFD-BF-031-020-A.jpg,1000,4,I,z,697,dash,2,23133.400000095367,153672.39999985695,9057,ATS,C,8
9,prac,1,B,mfborder.png,1,z,Fri May 15 2026 09:49:11 GMT-0400 (Eastern Daylight Time),180555.89999985695,CFD-WF-001-010-HC.jpg,1900,8,I,z,1042,dash,2,26883.5,153672.39999985695,9057,ATS,C,9
10,prac,1,B,mfborder.png,1,z,Fri May 15 2026 09:49:11 GMT-0400 (Eastern Daylight Time),183972.5,CFD-BF-042-031-HC.jpg,1500,3,I,z,1116,dash,2,30300.10000014305,153672.39999985695,9057,ATS,C,10
11,prac,1,B,mfborder.png,1,m,Fri May 15 2026 09:49:11 GMT-0400 (Eastern Daylight Time),187539.19999980927,CFD-WM-036-018-A.jpg,1700,9,I,m,1068,dash,2,33866.799999952316,153672.39999985695,9057,ATS,C,11
12,prac,1,B,mfborder.png,1,m,Fri May 15 2026 09:49:11 GMT-0400 (Eastern Daylight Time),190922.5,CFD-BM-043-014-A.jpg,2000,5,I,m,593,dash,2,37250.10000014305,153672.39999985695,9057,ATS,C,12
1,test,1,A,haborder.png,1,m,Fri May 15 2026 09:49:11 GMT-0400 (Eastern Daylight Time),216755.89999985695,CFD-WM-035-036-HC.jpg,1700,solid,I,m,685,9,2,2417.0,214338.89999985695,9057,ATS,C,1
2,test,1,A,haborder.png,1,m,Fri May 15 2026 09:49:11 GMT-0400 (Eastern Daylight Time),219055.69999980927,CFD-WM-035-036-HC.jpg,1700,solid,I,m,573,9,2,4716.799999952316,214338.89999985695,9057,ATS,C,2
3,test,1,A,haborder.png,1,z,Fri May 15 2026 09:49:11 GMT-0400 (Eastern Daylight Time),221238.59999990463,CFD-BM-043-014-A.jpg,1600,solid,I,z,566,2,2,6899.700000047684,214338.89999985695,9057,ATS,C,3
4,test,1,A,haborder.png,1,m,Fri May 15 2026 09:49:11 GMT-0400 (Eastern Daylight Time),223772.39999985695,CFD-WF-013-009-HC.jpg,1500,solid,I,m,1010,11,2,9433.5,214338.89999985695,9057,ATS,C,4
5,test,1,A,haborder.png,1,z,Fri May 15 2026 09:49:11 GMT-0400 (Eastern Daylight Time),225739.0,CFD-BF-031-020-A.jpg,1000,solid,I,z,945,4,2,11400.100000143051,214338.89999985695,9057,ATS,C,5
6,test,1,A,haborder.png,1,m,Fri May 15 2026 09:49:11 GMT-0400 (Eastern Daylight Time),227789.0,CFD-WM-028-005-HC.jpg,1400,solid,I,m,626,7,2,13450.100000143051,214338.89999985695,9057,ATS,C,6
7,test,1,A,haborder.png,1,m,Fri May 15 2026 09:49:11 GMT-0400 (Eastern Daylight Time),230972.29999995232,CFD-BM-034-035-HC.jpg,1700,solid,I,m,1459,1,2,16633.400000095367,214338.89999985695,9057,ATS,C,7
8,test,1,A,haborder.png,1,z,Fri May 15 2026 09:49:11 GMT-0400 (Eastern Daylight Time),233638.59999990463,CFD-WM-036-018-A.jpg,1900,solid,I,z,748,8,2,19299.700000047684,214338.89999985695,9057,ATS,C,8
9,test,1,A,haborder.png,1,z,Fri May 15 2026 09:49:11 GMT-0400 (Eastern Daylight Time),236139.0,CFD-WF-037-016-A.jpg,1600,solid,I,z,877,10,2,21800.10000014305,214338.89999985695,9057,ATS,C,9
10,test,1,A,haborder.png,1,m,Fri May 15 2026 09:49:11 GMT-0400 (Eastern Daylight Time),239339.09999990463,CFD-BF-019-004-HC.jpg,2000,solid,I,m,1178,5,2,25000.200000047684,214338.89999985695,9057,ATS,C,10
11,test,1,A,haborder.png,1,m,Fri May 15 2026 09:49:11 GMT-0400 (Eastern Daylight Time),241622.59999990463,CFD-WM-028-005-HC.jpg,1400,solid,I,m,865,7,2,27283.700000047684,214338.89999985695,9057,ATS,C,11
12,test,1,A,haborder.png,1,z,Fri May 15 2026 09:49:11 GMT-0400 (Eastern Daylight Time),243405.69999980927,CFD-BF-031-020-A.jpg,1000,solid,I,z,758,4,2,29066.799999952316,214338.89999985695,9057,ATS,C,12
13,test,1,A,haborder.png,1,z,Fri May 15 2026 09:49:11 GMT-0400 (Eastern Daylight Time),245255.39999985695,CFD-WF-023-013-A.jpg,1000,solid,I,z,832,12,2,30916.5,214338.89999985695,9057,ATS,C,13
14,test,1,A,haborder.png,1,m,Fri May 15 2026 09:49:11 GMT-0400 (Eastern Daylight Time),247922.39999985695,CFD-BM-022-004-HC.jpg,1500,solid,I,m,1137,3,2,33583.5,214338.89999985695,9057,ATS,C,14
15,test,1,A,haborder.png,1,z,Fri May 15 2026 09:49:11 GMT-0400 (Eastern Daylight Time),250505.69999980927,CFD-BM-043-014-A.jpg,1600,solid,I,z,962,2,2,36166.799999952316,214338.89999985695,9057,ATS,C,15
16,test,1,A,haborder.png,1,m,Fri May 15 2026 09:49:11 GMT-0400 (Eastern Daylight Time),253072.29999995232,CFD-WF-013-009-HC.jpg,1500,solid,I,m,1039,11,2,38733.40000009537,214338.89999985695,9057,ATS,C,16
17,test,1,A,haborder.png,1,z,Fri May 15 2026 09:49:11 GMT-0400 (Eastern Daylight Time),255122.29999995232,CFD-BF-002-018-A.jpg,1200,solid,I,z,820,6,2,40783.40000009537,214338.89999985695,9057,ATS,C,17
18,test,1,A,haborder.png,1,z,Fri May 15 2026 09:49:11 GMT-0400 (Eastern Daylight Time),257422.39999985695,CFD-WF-037-016-A.jpg,1600,solid,I,z,674,10,2,43083.5,214338.89999985695,9057,ATS,C,18
19,test,1,A,haborder.png,1,m,Fri May 15 2026 09:49:11 GMT-0400 (Eastern Daylight Time),260422.89999985695,CFD-BF-019-004-HC.jpg,2000,solid,I,m,982,5,2,46084.0,214338.89999985695,9057,ATS,C,19
20,test,1,A,haborder.png,1,m,Fri May 15 2026 09:49:11 GMT-0400 (Eastern Daylight Time),262838.69999980927,CFD-BM-034-035-HC.jpg,1700,solid,I,m,698,1,2,48499.799999952316,214338.89999985695,9057,ATS,C,20
21,test,1,A,haborder.png,1,z,Fri May 15 2026 09:49:11 GMT-0400 (Eastern Daylight Time),264622.39999985695,CFD-WF-023-013-A.jpg,1000,solid,I,z,757,12,2,50283.5,214338.89999985695,9057,ATS,C,21
22,test,1,A,haborder.png,1,z,Fri May 15 2026 09:49:11 GMT-0400 (Eastern Daylight Time),266888.89999985695,CFD-BF-002-018-A.jpg,1200,solid,I,z,1046,6,2,52550.0,214338.89999985695,9057,ATS,C,22
23,test,1,A,haborder.png,1,m,Fri May 15 2026 09:49:11 GMT-0400 (Eastern Daylight Time),269122.39999985695,CFD-BM-022-004-HC.jpg,1500,solid,I,m,703,3,2,54783.5,214338.89999985695,9057,ATS,C,23
24,test,1,A,haborder.png,1,z,Fri May 15 2026 09:49:11 GMT-0400 (Eastern Daylight Time),272222.5,CFD-WM-036-018-A.jpg,1900,solid,I,z,1174,8,2,57883.60000014305,214338.89999985695,9057,ATS,C,24
1,test,1,B,mfborder.png,1,m,Fri May 15 2026 09:49:11 GMT-0400 (Eastern Daylight Time),292022.39999985695,CFD-BM-021-026-A.jpg,1600,dash,I,m,633,2,2,2266.5,289755.89999985695,9057,ATS,C,1
2,test,1,B,mfborder.png,1,m,Fri May 15 2026 09:49:11 GMT-0400 (Eastern Daylight Time),294205.7999999523,CFD-WM-035-036-HC.jpg,1600,dash,I,m,558,10,2,4449.900000095367,289755.89999985695,9057,ATS,C,2
3,test,1,B,mfborder.png,1,m,Fri May 15 2026 09:49:11 GMT-0400 (Eastern Daylight Time),296772.39999985695,CFD-BM-043-014-A.jpg,2000,dash,I,m,534,5,2,7016.5,289755.89999985695,9057,ATS,C,3
4,test,1,B,mfborder.png,1,z,Fri May 15 2026 09:49:11 GMT-0400 (Eastern Daylight Time),298539.0,CFD-BF-031-020-A.jpg,1000,dash,I,z,744,4,2,8783.100000143051,289755.89999985695,9057,ATS,C,4
5,test,1,B,mfborder.png,1,z,Fri May 15 2026 09:49:11 GMT-0400 (Eastern Daylight Time),300772.09999990463,CFD-BF-019-004-HC.jpg,1400,dash,I,z,800,7,2,11016.200000047684,289755.89999985695,9057,ATS,C,5
6,test,1,B,mfborder.png,1,m,Fri May 15 2026 09:49:11 GMT-0400 (Eastern Daylight Time),302739.0,CFD-WM-034-040-A.jpg,1200,dash,I,m,736,6,2,12983.100000143051,289755.89999985695,9057,ATS,C,6
7,test,1,B,mfborder.png,1,m,Fri May 15 2026 09:49:11 GMT-0400 (Eastern Daylight Time),305072.2999999523,CFD-BM-022-004-HC.jpg,1700,dash,I,m,605,1,2,15316.400000095367,289755.89999985695,9057,ATS,C,7
8,test,1,B,mfborder.png,1,m,Fri May 15 2026 09:49:11 GMT-0400 (Eastern Daylight Time),307439.0,CFD-BM-021-026-A.jpg,1600,dash,I,m,740,2,2,17683.10000014305,289755.89999985695,9057,ATS,C,8
9,test,1,B,mfborder.png,1,m,Fri May 15 2026 09:49:11 GMT-0400 (Eastern Daylight Time),309822.39999985695,CFD-WM-036-018-A.jpg,1700,dash,I,m,657,9,2,20066.5,289755.89999985695,9057,ATS,C,9
10,test,1,B,mfborder.png,1,z,Fri May 15 2026 09:49:11 GMT-0400 (Eastern Daylight Time),311639.09999990463,CFD-BF-031-020-A.jpg,1000,dash,I,z,783,4,2,21883.200000047684,289755.89999985695,9057,ATS,C,10
11,test,1,B,mfborder.png,1,z,Fri May 15 2026 09:49:11 GMT-0400 (Eastern Daylight Time),314289.09999990463,CFD-WF-001-010-HC.jpg,1900,dash,I,z,721,8,2,24533.200000047684,289755.89999985695,9057,ATS,C,11
12,test,1,B,mfborder.png,1,z,Fri May 15 2026 09:49:11 GMT-0400 (Eastern Daylight Time),316522.5,CFD-BF-042-031-HC.jpg,1500,dash,I,z,711,3,2,26766.60000014305,289755.89999985695,9057,ATS,C,12
13,test,1,B,mfborder.png,1,z,Fri May 15 2026 09:49:11 GMT-0400 (Eastern Daylight Time),318189.09999990463,CFD-WF-013-009-HC.jpg,1000,dash,I,z,643,12,2,28433.200000047684,289755.89999985695,9057,ATS,C,13
14,test,1,B,mfborder.png,1,z,Fri May 15 2026 09:49:11 GMT-0400 (Eastern Daylight Time),320305.69999980927,CFD-WF-037-016-A.jpg,1500,dash,I,z,587,11,2,30549.799999952316,289755.89999985695,9057,ATS,C,14
15,test,1,B,mfborder.png,1,z,Fri May 15 2026 09:49:11 GMT-0400 (Eastern Daylight Time),322505.69999980927,CFD-WF-037-016-A.jpg,1500,dash,I,z,679,11,2,32749.799999952316,289755.89999985695,9057,ATS,C,15
16,test,1,B,mfborder.png,1,z,Fri May 15 2026 09:49:11 GMT-0400 (Eastern Daylight Time),324222.39999985695,CFD-WF-013-009-HC.jpg,1000,dash,I,z,691,12,2,34466.5,289755.89999985695,9057,ATS,C,16
17,test,1,B,mfborder.png,1,z,Fri May 15 2026 09:49:11 GMT-0400 (Eastern Daylight Time),326955.7999999523,CFD-WF-001-010-HC.jpg,1900,dash,I,z,810,8,2,37199.90000009537,289755.89999985695,9057,ATS,C,17
18,test,1,B,mfborder.png,1,m,Fri May 15 2026 09:49:11 GMT-0400 (Eastern Daylight Time),329238.7999999523,CFD-WM-035-036-HC.jpg,1600,dash,I,m,665,10,2,39482.90000009537,289755.89999985695,9057,ATS,C,18
19,test,1,B,mfborder.png,1,m,Fri May 15 2026 09:49:11 GMT-0400 (Eastern Daylight Time),331972.5,CFD-BM-043-014-A.jpg,2000,dash,I,m,701,5,2,42216.60000014305,289755.89999985695,9057,ATS,C,19
19,test,1,B,mfborder.png,0,z,Fri May 15 2026 09:49:11 GMT-0400 (Eastern Daylight Time),334205.7999999523,CFD-BF-042-031-HC.jpg,1500,dash,I,m,708,3,2,44449.90000009537,289755.89999985695,9057,ATS,C,20
20,test,1,B,mfborder.png,1,z,Fri May 15 2026 09:49:11 GMT-0400 (Eastern Daylight Time),336505.69999980927,CFD-BF-019-004-HC.jpg,1400,dash,I,z,878,7,2,46749.799999952316,289755.89999985695,9057,ATS,C,21
21,test,1,B,mfborder.png,1,m,Fri May 15 2026 09:49:11 GMT-0400 (Eastern Daylight Time),338989.0,CFD-BM-022-004-HC.jpg,1700,dash,I,m,759,1,2,49233.10000014305,289755.89999985695,9057,ATS,C,22
22,test,1,B,mfborder.png,1,m,Fri May 15 2026 09:49:11 GMT-0400 (Eastern Daylight Time),341789.09999990463,CFD-WM-036-018-A.jpg,1700,dash,I,m,1075,9,2,52033.200000047684,289755.89999985695,9057,ATS,C,23
23,test,1,B,mfborder.png,1,m,Fri May 15 2026 09:49:11 GMT-0400 (Eastern Daylight Time),343722.39999985695,CFD-WM-034-040-A.jpg,1200,dash,I,m,711,6,2,53966.5,289755.89999985695,9057,ATS,C,24
0,prac,1,C,mfborder.png,0,m,Fri May 15 2026 09:49:11 GMT-0400 (Eastern Daylight Time),385339.19999980927,CFD-WM-036-018-A.jpg,1700,solid,I,None,1516,6,2,3999.7999999523163,381339.39999985695,9057,ATS,C,1
0,prac,1,C,mfborder.png,0,m,Fri May 15 2026 09:49:11 GMT-0400 (Eastern Daylight Time),388422.69999980927,CFD-BM-043-014-A.jpg,1200,dash,I,z,1097,6,2,7083.299999952316,381339.39999985695,9057,ATS,C,2
0,prac,1,C,haborder.png,0,m,Fri May 15 2026 09:49:11 GMT-0400 (Eastern Daylight Time),392222.59999990463,CFD-BM-022-004-HC.jpg,1500,solid,I,None,1516,6,2,10883.200000047684,381339.39999985695,9057,ATS,C,3
1,prac,1,C,haborder.png,1,m,Fri May 15 2026 09:49:11 GMT-0400 (Eastern Daylight Time),395305.89999985695,CFD-WM-028-005-HC.jpg,1400,solid,I,m,894,6,2,13966.5,381339.39999985695,9057,ATS,C,4
1,prac,1,C,haborder.png,0,z,Fri May 15 2026 09:49:11 GMT-0400 (Eastern Daylight Time),399305.7999999523,CFD-BF-002-018-A.jpg,1700,solid,I,None,1516,6,2,17966.400000095367,381339.39999985695,9057,ATS,C,5
2,prac,1,C,haborder.png,1,z,Fri May 15 2026 09:49:11 GMT-0400 (Eastern Daylight Time),402839.39999985695,CFD-WF-037-016-A.jpg,1600,dash,I,z,1147,6,2,21500.0,381339.39999985695,9057,ATS,C,6
3,prac,1,C,haborder.png,1,z,Fri May 15 2026 09:49:11 GMT-0400 (Eastern Daylight Time),406272.69999980927,CFD-BF-031-020-A.jpg,1900,dash,I,z,738,6,2,24933.299999952316,381339.39999985695,9057,ATS,C,7
3,prac,1,C,mfborder.png,0,z,Fri May 15 2026 09:49:11 GMT-0400 (Eastern Daylight Time),409339.2999999523,CFD-BF-019-004-HC.jpg,1000,dash,I,m,1276,6,2,27999.900000095367,381339.39999985695,9057,ATS,C,8
4,prac,1,C,mfborder.png,1,z,Fri May 15 2026 09:49:11 GMT-0400 (Eastern Daylight Time),412789.2999999523,CFD-WF-023-013-A.jpg,1500,solid,I,z,1166,6,2,31449.900000095367,381339.39999985695,9057,ATS,C,9
4,prac,1,C,haborder.png,0,m,Fri May 15 2026 09:49:11 GMT-0400 (Eastern Daylight Time),416089.19999980927,CFD-WM-028-005-HC.jpg,1000,dash,I,None,1515,6,2,34749.799999952316,381339.39999985695,9057,ATS,C,10
4,prac,1,C,mfborder.png,0,z,Fri May 15 2026 09:49:11 GMT-0400 (Eastern Daylight Time),419522.59999990463,CFD-WF-013-009-HC.jpg,1600,dash,I,m,1036,6,2,38183.200000047684,381339.39999985695,9057,ATS,C,11
5,prac,1,C,mfborder.png,1,m,Fri May 15 2026 09:49:11 GMT-0400 (Eastern Daylight Time),423522.69999980927,CFD-BM-034-035-HC.jpg,2000,solid,I,m,1202,6,2,42183.299999952316,381339.39999985695,9057,ATS,C,12
0,prac,2,C,mfborder.png,0,m,Fri May 15 2026 09:49:11 GMT-0400 (Eastern Daylight Time),436472.5,CFD-WM-036-018-A.jpg,1700,solid,I,None,1516,6,2,55133.10000014305,381339.39999985695,9057,ATS,C,1
1,prac,2,C,mfborder.png,1,m,Fri May 15 2026 09:49:11 GMT-0400 (Eastern Daylight Time),440206.0,CFD-BM-034-035-HC.jpg,2000,solid,I,m,940,6,2,58866.60000014305,381339.39999985695,9057,ATS,C,2
1,prac,2,C,haborder.png,0,z,Fri May 15 2026 09:49:11 GMT-0400 (Eastern Daylight Time),444105.7999999523,CFD-WF-037-016-A.jpg,1600,dash,I,None,1516,6,2,62766.40000009537,381339.39999985695,9057,ATS,C,3
2,prac,2,C,haborder.png,1,z,Fri May 15 2026 09:49:11 GMT-0400 (Eastern Daylight Time),447972.69999980927,CFD-BF-031-020-A.jpg,1900,dash,I,z,1167,6,2,66633.29999995232,381339.39999985695,9057,ATS,C,4
3,prac,2,C,mfborder.png,1,z,Fri May 15 2026 09:49:11 GMT-0400 (Eastern Daylight Time),451206.09999990463,CFD-WF-023-013-A.jpg,1500,solid,I,z,948,6,2,69866.70000004768,381339.39999985695,9057,ATS,C,5
4,prac,2,C,mfborder.png,1,m,Fri May 15 2026 09:49:11 GMT-0400 (Eastern Daylight Time),454472.69999980927,CFD-BM-043-014-A.jpg,1200,dash,I,m,1279,6,2,73133.29999995232,381339.39999985695,9057,ATS,C,6
4,prac,2,C,mfborder.png,0,z,Fri May 15 2026 09:49:11 GMT-0400 (Eastern Daylight Time),457572.59999990463,CFD-BF-019-004-HC.jpg,1000,dash,I,m,1300,6,2,76233.20000004768,381339.39999985695,9057,ATS,C,7
5,prac,2,C,haborder.png,1,m,Fri May 15 2026 09:49:11 GMT-0400 (Eastern Daylight Time),460989.2999999523,CFD-BM-022-004-HC.jpg,1500,solid,I,m,1125,6,2,79649.90000009537,381339.39999985695,9057,ATS,C,8
6,prac,2,C,haborder.png,1,m,Fri May 15 2026 09:49:11 GMT-0400 (Eastern Daylight Time),463972.59999990463,CFD-WM-028-005-HC.jpg,1400,solid,I,m,784,6,2,82633.20000004768,381339.39999985695,9057,ATS,C,9
7,prac,2,C,haborder.png,1,m,Fri May 15 2026 09:49:11 GMT-0400 (Eastern Daylight Time),466406.0,CFD-WM-028-005-HC.jpg,1000,dash,I,m,648,6,2,85066.60000014305,381339.39999985695,9057,ATS,C,10
8,prac,2,C,haborder.png,1,z,Fri May 15 2026 09:49:11 GMT-0400 (Eastern Daylight Time),469856.0,CFD-BF-002-018-A.jpg,1700,solid,I,z,955,6,2,88516.60000014305,381339.39999985695,9057,ATS,C,11
9,prac,2,C,mfborder.png,1,z,Fri May 15 2026 09:49:11 GMT-0400 (Eastern Daylight Time),473039.2999999523,CFD-WF-013-009-HC.jpg,1600,dash,I,z,790,6,2,91699.90000009537,381339.39999985695,9057,ATS,C,12
1,test,1,C,mfborder.png,1,z,Fri May 15 2026 09:49:11 GMT-0400 (Eastern Daylight Time),496022.7999999523,CFD-BF-031-020-A.jpg,1600,dash,I,z,1333,2,2,2965.7999999523163,493057.0,9057,ATS,C,1
2,test,1,C,haborder.png,1,z,Fri May 15 2026 09:49:11 GMT-0400 (Eastern Daylight Time),498939.19999980927,CFD-BM-021-026-A.jpg,1700,solid,I,z,1194,9,2,5882.199999809265,493057.0,9057,ATS,C,2
3,test,1,C,mfborder.png,1,m,Fri May 15 2026 09:49:11 GMT-0400 (Eastern Daylight Time),502339.19999980927,CFD-WM-034-040-A.jpg,2000,dash,I,m,1370,5,2,9282.199999809265,493057.0,9057,ATS,C,3
4,test,1,C,mfborder.png,1,m,Fri May 15 2026 09:49:11 GMT-0400 (Eastern Daylight Time),504039.19999980927,CFD-WM-035-036-HC.jpg,1000,dash,I,m,667,4,2,10982.199999809265,493057.0,9057,ATS,C,4
4,test,1,C,haborder.png,0,m,Fri May 15 2026 09:49:11 GMT-0400 (Eastern Daylight Time),505955.89999985695,CFD-WF-013-009-HC.jpg,1000,solid,I,z,885,12,2,12898.899999856949,493057.0,9057,ATS,C,5
4,test,1,C,haborder.png,0,z,Fri May 15 2026 09:49:11 GMT-0400 (Eastern Daylight Time),508889.19999980927,CFD-BM-043-014-A.jpg,1900,solid,I,m,1013,8,2,15832.199999809265,493057.0,9057,ATS,C,6
4,test,1,C,mfborder.png,0,z,Fri May 15 2026 09:49:11 GMT-0400 (Eastern Daylight Time),512022.7999999523,CFD-BF-031-020-A.jpg,1600,dash,I,None,1517,2,2,18965.799999952316,493057.0,9057,ATS,C,7
4,test,1,C,haborder.png,0,m,Fri May 15 2026 09:49:11 GMT-0400 (Eastern Daylight Time),515155.7999999523,CFD-BF-019-004-HC.jpg,1600,solid,I,None,1516,10,2,22098.799999952316,493057.0,9057,ATS,C,8
4,test,1,C,haborder.png,0,z,Fri May 15 2026 09:49:11 GMT-0400 (Eastern Daylight Time),518089.2999999523,CFD-WM-036-018-A.jpg,1400,solid,I,None,1516,7,2,25032.299999952316,493057.0,9057,ATS,C,9
5,test,1,C,mfborder.png,1,m,Fri May 15 2026 09:49:11 GMT-0400 (Eastern Daylight Time),520405.7999999523,CFD-BM-022-004-HC.jpg,1200,dash,I,m,1083,6,2,27348.799999952316,493057.0,9057,ATS,C,10
6,test,1,C,mfborder.png,1,m,Fri May 15 2026 09:49:11 GMT-0400 (Eastern Daylight Time),522322.5,CFD-BM-022-004-HC.jpg,1200,dash,I,m,687,6,2,29265.5,493057.0,9057,ATS,C,11
7,test,1,C,mfborder.png,1,z,Fri May 15 2026 09:49:11 GMT-0400 (Eastern Daylight Time),525106.0,CFD-BF-042-031-HC.jpg,1700,dash,I,z,1054,1,2,32049.0,493057.0,9057,ATS,C,12
8,test,1,C,haborder.png,1,m,Fri May 15 2026 09:49:11 GMT-0400 (Eastern Daylight Time),527255.5999999046,CFD-WF-013-009-HC.jpg,1000,solid,I,m,1132,12,2,34198.59999990463,493057.0,9057,ATS,C,13
8,test,1,C,mfborder.png,0,z,Fri May 15 2026 09:49:11 GMT-0400 (Eastern Daylight Time),530289.399999857,CFD-WF-037-016-A.jpg,1500,dash,I,None,1516,3,2,37232.39999985695,493057.0,9057,ATS,C,14
8,test,1,C,mfborder.png,0,m,Fri May 15 2026 09:49:11 GMT-0400 (Eastern Daylight Time),532822.5999999046,CFD-WM-035-036-HC.jpg,1000,dash,I,None,1517,4,2,39765.59999990463,493057.0,9057,ATS,C,15
9,test,1,C,mfborder.png,1,z,Fri May 15 2026 09:49:11 GMT-0400 (Eastern Daylight Time),535623.0,CFD-BF-042-031-HC.jpg,1700,dash,I,z,1082,1,2,42566.0,493057.0,9057,ATS,C,16
10,test,1,C,haborder.png,1,z,Fri May 15 2026 09:49:11 GMT-0400 (Eastern Daylight Time),538439.1999998093,CFD-WM-036-018-A.jpg,1400,solid,I,z,1383,7,2,45382.199999809265,493057.0,9057,ATS,C,17
10,test,1,C,haborder.png,0,z,Fri May 15 2026 09:49:11 GMT-0400 (Eastern Daylight Time),541872.6999998093,CFD-BM-043-014-A.jpg,1900,solid,I,None,1516,8,2,48815.699999809265,493057.0,9057,ATS,C,18
10,test,1,C,haborder.png,0,z,Fri May 15 2026 09:49:11 GMT-0400 (Eastern Daylight Time),545106.0,CFD-BM-021-026-A.jpg,1700,solid,I,None,1516,9,2,52049.0,493057.0,9057,ATS,C,19
11,test,1,C,mfborder.png,1,m,Fri May 15 2026 09:49:11 GMT-0400 (Eastern Daylight Time),548155.7999999523,CFD-WM-034-040-A.jpg,2000,dash,I,m,1027,5,2,55098.799999952316,493057.0,9057,ATS,C,20
11,test,1,C,mfborder.png,0,z,Fri May 15 2026 09:49:11 GMT-0400 (Eastern Daylight Time),551189.1999998093,CFD-WF-037-016-A.jpg,1500,dash,I,None,1516,3,2,58132.199999809265,493057.0,9057,ATS,C,21
11,test,1,C,haborder.png,0,m,Fri May 15 2026 09:49:11 GMT-0400 (Eastern Daylight Time),554222.7999999523,CFD-WF-001-010-HC.jpg,1500,solid,I,None,1516,11,2,61165.799999952316,493057.0,9057,ATS,C,22
12,test,1,C,haborder.png,1,m,Fri May 15 2026 09:49:11 GMT-0400 (Eastern Daylight Time),556772.5999999046,CFD-BF-019-004-HC.jpg,1600,solid,I,m,918,10,2,63715.59999990463,493057.0,9057,ATS,C,23
13,test,1,C,haborder.png,1,m,Fri May 15 2026 09:49:11 GMT-0400 (Eastern Daylight Time),559089.2999999523,CFD-WF-001-010-HC.jpg,1500,solid,I,m,788,11,2,66032.29999995232,493057.0,9057,ATS,C,24
0,test,2,C,haborder.png,0,z,Fri May 15 2026 09:49:11 GMT-0400 (Eastern Daylight Time),564872.7999999523,CFD-BF-031-020-A.jpg,1400,solid,I,None,1516,7,2,2933.2999999523163,561939.5,9057,ATS,C,1
1,test,2,C,haborder.png,1,z,Fri May 15 2026 09:49:11 GMT-0400 (Eastern Daylight Time),567755.899999857,CFD-BF-002-018-A.jpg,1900,solid,I,z,960,8,2,5816.399999856949,561939.5,9057,ATS,C,2
2,test,2,C,haborder.png,1,m,Fri May 15 2026 09:49:11 GMT-0400 (Eastern Daylight Time),569905.899999857,CFD-WM-028-005-HC.jpg,1000,solid,I,m,1121,12,2,7966.399999856949,561939.5,9057,ATS,C,3
3,test,2,C,mfborder.png,1,m,Fri May 15 2026 09:49:11 GMT-0400 (Eastern Daylight Time),571989.2999999523,CFD-BM-034-035-HC.jpg,1000,dash,I,m,1052,4,2,10049.799999952316,561939.5,9057,ATS,C,4
4,test,2,C,haborder.png,1,m,Fri May 15 2026 09:49:11 GMT-0400 (Eastern Daylight Time),575005.899999857,CFD-BM-022-004-HC.jpg,1600,solid,I,m,1391,10,2,13066.399999856949,561939.5,9057,ATS,C,5
5,test,2,C,haborder.png,1,m,Fri May 15 2026 09:49:11 GMT-0400 (Eastern Daylight Time),576722.6999998093,CFD-WM-028-005-HC.jpg,1000,solid,I,m,687,12,2,14783.199999809265,561939.5,9057,ATS,C,6
6,test,2,C,haborder.png,1,z,Fri May 15 2026 09:49:11 GMT-0400 (Eastern Daylight Time),579705.899999857,CFD-BF-002-018-A.jpg,1900,solid,I,z,1062,8,2,17766.39999985695,561939.5,9057,ATS,C,7
7,test,2,C,haborder.png,1,z,Fri May 15 2026 09:49:11 GMT-0400 (Eastern Daylight Time),582072.399999857,CFD-BF-031-020-A.jpg,1400,solid,I,z,948,7,2,20132.89999985695,561939.5,9057,ATS,C,8
7,test,2,C,mfborder.png,0,z,Fri May 15 2026 09:49:11 GMT-0400 (Eastern Daylight Time),584639.1999998093,CFD-BF-019-004-HC.jpg,1500,dash,I,m,1040,3,2,22699.699999809265,561939.5,9057,ATS,C,9
7,test,2,C,haborder.png,0,z,Fri May 15 2026 09:49:11 GMT-0400 (Eastern Daylight Time),587872.6999998093,CFD-WF-037-016-A.jpg,1700,solid,I,None,1517,9,2,25933.199999809265,561939.5,9057,ATS,C,10
8,test,2,C,mfborder.png,1,m,Fri May 15 2026 09:49:11 GMT-0400 (Eastern Daylight Time),591172.5999999046,CFD-BM-043-014-A.jpg,2000,dash,I,m,1268,5,2,29233.099999904633,561939.5,9057,ATS,C,11
8,test,2,C,mfborder.png,0,z,Fri May 15 2026 09:49:11 GMT-0400 (Eastern Daylight Time),594306.0999999046,CFD-WF-023-013-A.jpg,1600,dash,I,None,1516,2,2,32366.599999904633,561939.5,9057,ATS,C,12
9,test,2,C,haborder.png,1,m,Fri May 15 2026 09:49:11 GMT-0400 (Eastern Daylight Time),596722.5999999046,CFD-WM-028-005-HC.jpg,1500,solid,I,m,887,11,2,34783.09999990463,561939.5,9057,ATS,C,13
10,test,2,C,mfborder.png,1,z,Fri May 15 2026 09:49:11 GMT-0400 (Eastern Daylight Time),599389.2999999523,CFD-WF-023-013-A.jpg,1600,dash,I,z,1042,2,2,37449.799999952316,561939.5,9057,ATS,C,14
11,test,2,C,mfborder.png,1,z,Fri May 15 2026 09:49:11 GMT-0400 (Eastern Daylight Time),602339.2999999523,CFD-WF-013-009-HC.jpg,1700,dash,I,z,1219,1,2,40399.799999952316,561939.5,9057,ATS,C,15
11,test,2,C,mfborder.png,0,m,Fri May 15 2026 09:49:11 GMT-0400 (Eastern Daylight Time),605372.5999999046,CFD-BM-043-014-A.jpg,2000,dash,I,z,1011,5,2,43433.09999990463,561939.5,9057,ATS,C,16
11,test,2,C,mfborder.png,0,z,Fri May 15 2026 09:49:11 GMT-0400 (Eastern Daylight Time),608305.899999857,CFD-BF-019-004-HC.jpg,1500,dash,I,m,1404,3,2,46366.39999985695,561939.5,9057,ATS,C,17
11,test,2,C,haborder.png,0,m,Fri May 15 2026 09:49:11 GMT-0400 (Eastern Daylight Time),611439.399999857,CFD-BM-022-004-HC.jpg,1600,solid,I,None,1516,10,2,49499.89999985695,561939.5,9057,ATS,C,18
12,test,2,C,mfborder.png,1,z,Fri May 15 2026 09:49:11 GMT-0400 (Eastern Daylight Time),614572.6999998093,CFD-WF-013-009-HC.jpg,1700,dash,I,z,1411,1,2,52633.199999809265,561939.5,9057,ATS,C,19
12,test,2,C,mfborder.png,0,m,Fri May 15 2026 09:49:11 GMT-0400 (Eastern Daylight Time),617306.0999999046,CFD-WM-036-018-A.jpg,1200,dash,I,None,1516,6,2,55366.59999990463,561939.5,9057,ATS,C,20
12,test,2,C,mfborder.png,0,m,Fri May 15 2026 09:49:11 GMT-0400 (Eastern Daylight Time),619839.399999857,CFD-BM-034-035-HC.jpg,1000,dash,I,None,1516,4,2,57899.89999985695,561939.5,9057,ATS,C,21
13,test,2,C,haborder.png,1,m,Fri May 15 2026 09:49:11 GMT-0400 (Eastern Daylight Time),622239.2999999523,CFD-WM-028-005-HC.jpg,1500,solid,I,m,873,11,2,60299.799999952316,561939.5,9057,ATS,C,22
14,test,2,C,mfborder.png,1,m,Fri May 15 2026 09:49:11 GMT-0400 (Eastern Daylight Time),624822.6999998093,CFD-WM-036-018-A.jpg,1200,dash,I,m,1365,6,2,62883.199999809265,561939.5,9057,ATS,C,23
15,test,2,C,haborder.png,1,z,Fri May 15 2026 09:49:11 GMT-0400 (Eastern Daylight Time),627722.6999998093,CFD-WF-037-016-A.jpg,1700,solid,I,z,1179,9,2,65783.19999980927,561939.5,9057,ATS,C,24
0,test,3,C,mfborder.png,0,z,Fri May 15 2026 09:49:11 GMT-0400 (Eastern Daylight Time),632389.5,CFD-WF-037-016-A.jpg,1500,dash,I,None,1516,3,2,3033.4000000953674,629356.0999999046,9057,ATS,C,1
1,test,3,C,mfborder.png,1,z,Fri May 15 2026 09:49:11 GMT-0400 (Eastern Daylight Time),634905.899999857,CFD-BF-031-020-A.jpg,1600,dash,I,z,896,2,2,5549.799999952316,629356.0999999046,9057,ATS,C,2
2,test,3,C,mfborder.png,1,m,Fri May 15 2026 09:49:11 GMT-0400 (Eastern Daylight Time),637056.0,CFD-BM-022-004-HC.jpg,1200,dash,I,m,923,6,2,7699.900000095367,629356.0999999046,9057,ATS,C,3
2,test,3,C,haborder.png,0,m,Fri May 15 2026 09:49:11 GMT-0400 (Eastern Daylight Time),639889.2999999523,CFD-BF-019-004-HC.jpg,1600,solid,I,z,1206,10,2,10533.200000047684,629356.0999999046,9057,ATS,C,4
2,test,3,C,haborder.png,0,z,Fri May 15 2026 09:49:11 GMT-0400 (Eastern Daylight Time),643322.6999998093,CFD-BM-043-014-A.jpg,1900,solid,I,None,1516,8,2,13966.599999904633,629356.0999999046,9057,ATS,C,5
2,test,3,C,haborder.png,0,m,Fri May 15 2026 09:49:11 GMT-0400 (Eastern Daylight Time),646455.7999999523,CFD-BF-019-004-HC.jpg,1600,solid,I,None,1516,10,2,17099.700000047684,629356.0999999046,9057,ATS,C,6
3,test,3,C,haborder.png,1,z,Fri May 15 2026 09:49:11 GMT-0400 (Eastern Daylight Time),649672.399999857,CFD-BM-021-026-A.jpg,1700,solid,I,z,1497,9,2,20316.299999952316,629356.0999999046,9057,ATS,C,7
3,test,3,C,haborder.png,0,z,Fri May 15 2026 09:49:11 GMT-0400 (Eastern Daylight Time),652906.0,CFD-BM-021-026-A.jpg,1700,solid,I,None,1516,9,2,23549.900000095367,629356.0999999046,9057,ATS,C,8
4,test,3,C,mfborder.png,1,m,Fri May 15 2026 09:49:11 GMT-0400 (Eastern Daylight Time),656139.2999999523,CFD-WM-034-040-A.jpg,2000,dash,I,m,1211,5,2,26783.200000047684,629356.0999999046,9057,ATS,C,9
5,test,3,C,mfborder.png,1,m,Fri May 15 2026 09:49:11 GMT-0400 (Eastern Daylight Time),658106.0,CFD-WM-035-036-HC.jpg,1000,dash,I,m,946,4,2,28749.900000095367,629356.0999999046,9057,ATS,C,10
5,test,3,C,haborder.png,0,m,Fri May 15 2026 09:49:11 GMT-0400 (Eastern Daylight Time),660639.399999857,CFD-WF-013-009-HC.jpg,1000,solid,I,None,1516,12,2,31283.299999952316,629356.0999999046,9057,ATS,C,11
6,test,3,C,haborder.png,1,m,Fri May 15 2026 09:49:11 GMT-0400 (Eastern Daylight Time),663206.0999999046,CFD-WF-001-010-HC.jpg,1500,solid,I,m,1034,11,2,33850.0,629356.0999999046,9057,ATS,C,12
7,test,3,C,haborder.png,1,z,Fri May 15 2026 09:49:11 GMT-0400 (Eastern Daylight Time),665956.0,CFD-WM-036-018-A.jpg,1400,solid,I,z,1320,7,2,36599.90000009537,629356.0999999046,9057,ATS,C,13
7,test,3,C,mfborder.png,0,z,Fri May 15 2026 09:49:11 GMT-0400 (Eastern Daylight Time),669089.399999857,CFD-BF-031-020-A.jpg,1600,dash,I,None,1516,2,2,39733.299999952316,629356.0999999046,9057,ATS,C,14
8,test,3,C,haborder.png,1,m,Fri May 15 2026 09:49:11 GMT-0400 (Eastern Daylight Time),671972.7999999523,CFD-WF-001-010-HC.jpg,1500,solid,I,m,1351,11,2,42616.700000047684,629356.0999999046,9057,ATS,C,15
8,test,3,C,mfborder.png,0,z,Fri May 15 2026 09:49:11 GMT-0400 (Eastern Daylight Time),675205.899999857,CFD-BF-042-031-HC.jpg,1700,dash,I,None,1516,1,2,45849.799999952316,629356.0999999046,9057,ATS,C,16
8,test,3,C,haborder.png,0,z,Fri May 15 2026 09:49:11 GMT-0400 (Eastern Daylight Time),678139.2999999523,CFD-WM-036-018-A.jpg,1400,solid,I,None,1516,7,2,48783.200000047684,629356.0999999046,9057,ATS,C,17
9,test,3,C,mfborder.png,1,m,Fri May 15 2026 09:49:11 GMT-0400 (Eastern Daylight Time),680489.2999999523,CFD-BM-022-004-HC.jpg,1200,dash,I,m,1129,6,2,51133.200000047684,629356.0999999046,9057,ATS,C,18
9,test,3,C,haborder.png,0,m,Fri May 15 2026 09:49:11 GMT-0400 (Eastern Daylight Time),683022.7999999523,CFD-WF-013-009-HC.jpg,1000,solid,I,None,1516,12,2,53666.700000047684,629356.0999999046,9057,ATS,C,19
9,test,3,C,mfborder.png,0,m,Fri May 15 2026 09:49:11 GMT-0400 (Eastern Daylight Time),685556.0999999046,CFD-WM-035-036-HC.jpg,1000,dash,I,None,1516,4,2,56200.0,629356.0999999046,9057,ATS,C,20
10,test,3,C,mfborder.png,1,m,Fri May 15 2026 09:49:11 GMT-0400 (Eastern Daylight Time),688839.5,CFD-WM-034-040-A.jpg,2000,dash,I,m,1266,5,2,59483.40000009537,629356.0999999046,9057,ATS,C,21
10,test,3,C,mfborder.png,0,z,Fri May 15 2026 09:49:11 GMT-0400 (Eastern Daylight Time),692072.7999999523,CFD-BF-042-031-HC.jpg,1700,dash,I,None,1516,1,2,62716.700000047684,629356.0999999046,9057,ATS,C,22
10,test,3,C,mfborder.png,0,z,Fri May 15 2026 09:49:11 GMT-0400 (Eastern Daylight Time),695106.0999999046,CFD-WF-037-016-A.jpg,1500,dash,I,None,1516,3,2,65750.0,629356.0999999046,9057,ATS,C,23
10,test,3,C,haborder.png,0,z,Fri May 15 2026 09:49:11 GMT-0400 (Eastern Daylight Time),698539.5,CFD-BM-043-014-A.jpg,1900,solid,I,None,1516,8,2,69183.40000009537,629356.0999999046,9057,ATS,C,24
1,test,4,C,haborder.png,1,m,Fri May 15 2026 09:49:11 GMT-0400 (Eastern Daylight Time),703756.2999999523,CFD-WM-028-005-HC.jpg,1000,solid,I,m,1293,12,2,2316.7999999523163,701439.5,9057,ATS,C,1
1,test,4,C,haborder.png,0,z,Fri May 15 2026 09:49:11 GMT-0400 (Eastern Daylight Time),707189.5,CFD-BF-002-018-A.jpg,1900,solid,I,None,1516,8,2,5750.0,701439.5,9057,ATS,C,2
2,test,4,C,mfborder.png,1,m,Fri May 15 2026 09:49:11 GMT-0400 (Eastern Daylight Time),709655.7999999523,CFD-WM-036-018-A.jpg,1200,dash,I,m,1248,6,2,8216.299999952316,701439.5,9057,ATS,C,3
3,test,4,C,mfborder.png,1,z,Fri May 15 2026 09:49:11 GMT-0400 (Eastern Daylight Time),712572.7999999523,CFD-BF-019-004-HC.jpg,1500,dash,I,z,1394,3,2,11133.299999952316,701439.5,9057,ATS,C,4
4,test,4,C,mfborder.png,1,z,Fri May 15 2026 09:49:11 GMT-0400 (Eastern Daylight Time),715372.6999998093,CFD-WF-023-013-A.jpg,1600,dash,I,z,1177,2,2,13933.199999809265,701439.5,9057,ATS,C,5
5,test,4,C,mfborder.png,1,z,Fri May 15 2026 09:49:11 GMT-0400 (Eastern Daylight Time),718006.0999999046,CFD-WF-023-013-A.jpg,1600,dash,I,z,1000,2,2,16566.599999904633,701439.5,9057,ATS,C,6
6,test,4,C,mfborder.png,1,z,Fri May 15 2026 09:49:11 GMT-0400 (Eastern Daylight Time),721139.399999857,CFD-WF-013-009-HC.jpg,1700,dash,I,z,1403,1,2,19699.89999985695,701439.5,9057,ATS,C,7
7,test,4,C,haborder.png,1,z,Fri May 15 2026 09:49:11 GMT-0400 (Eastern Daylight Time),724239.2999999523,CFD-WF-037-016-A.jpg,1700,solid,I,z,1374,9,2,22799.799999952316,701439.5,9057,ATS,C,8
8,test,4,C,haborder.png,1,z,Fri May 15 2026 09:49:11 GMT-0400 (Eastern Daylight Time),727139.5,CFD-WF-037-016-A.jpg,1700,solid,I,z,1170,9,2,25700.0,701439.5,9057,ATS,C,9
9,test,4,C,haborder.png,1,m,Fri May 15 2026 09:49:11 GMT-0400 (Eastern Daylight Time),729889.0999999046,CFD-WM-028-005-HC.jpg,1500,solid,I,m,1222,11,2,28449.599999904633,701439.5,9057,ATS,C,10
10,test,4,C,mfborder.png,1,z,Fri May 15 2026 09:49:11 GMT-0400 (Eastern Daylight Time),732605.899999857,CFD-BF-019-004-HC.jpg,1500,dash,I,z,1191,3,2,31166.39999985695,701439.5,9057,ATS,C,11
11,test,4,C,haborder.png,1,m,Fri May 15 2026 09:49:11 GMT-0400 (Eastern Daylight Time),734606.0999999046,CFD-WM-028-005-HC.jpg,1000,solid,I,m,976,12,2,33166.59999990463,701439.5,9057,ATS,C,12
12,test,4,C,mfborder.png,1,m,Fri May 15 2026 09:49:11 GMT-0400 (Eastern Daylight Time),736506.0,CFD-BM-034-035-HC.jpg,1000,dash,I,m,879,4,2,35066.5,701439.5,9057,ATS,C,13
13,test,4,C,haborder.png,1,m,Fri May 15 2026 09:49:11 GMT-0400 (Eastern Daylight Time),739189.399999857,CFD-BM-022-004-HC.jpg,1600,solid,I,m,1051,10,2,37749.89999985695,701439.5,9057,ATS,C,14
14,test,4,C,mfborder.png,1,m,Fri May 15 2026 09:49:11 GMT-0400 (Eastern Daylight Time),740989.399999857,CFD-BM-034-035-HC.jpg,1000,dash,I,m,776,4,2,39549.89999985695,701439.5,9057,ATS,C,15
14,test,4,C,haborder.png,0,z,Fri May 15 2026 09:49:11 GMT-0400 (Eastern Daylight Time),743923.0,CFD-BF-031-020-A.jpg,1400,solid,I,None,1516,7,2,42483.5,701439.5,9057,ATS,C,16
15,test,4,C,haborder.png,1,z,Fri May 15 2026 09:49:11 GMT-0400 (Eastern Daylight Time),746072.399999857,CFD-BF-031-020-A.jpg,1400,solid,I,z,731,7,2,44632.89999985695,701439.5,9057,ATS,C,17
15,test,4,C,mfborder.png,0,z,Fri May 15 2026 09:49:11 GMT-0400 (Eastern Daylight Time),749306.1999998093,CFD-WF-013-009-HC.jpg,1700,dash,I,None,1516,1,2,47866.699999809265,701439.5,9057,ATS,C,18
16,test,4,C,mfborder.png,1,m,Fri May 15 2026 09:49:11 GMT-0400 (Eastern Daylight Time),752439.1999998093,CFD-BM-043-014-A.jpg,2000,dash,I,m,1115,5,2,50999.699999809265,701439.5,9057,ATS,C,19
16,test,4,C,mfborder.png,0,m,Fri May 15 2026 09:49:11 GMT-0400 (Eastern Daylight Time),755172.6999998093,CFD-WM-036-018-A.jpg,1200,dash,I,None,1516,6,2,53733.199999809265,701439.5,9057,ATS,C,20
17,test,4,C,haborder.png,1,m,Fri May 15 2026 09:49:11 GMT-0400 (Eastern Daylight Time),757706.0,CFD-WM-028-005-HC.jpg,1500,solid,I,m,1013,11,2,56266.5,701439.5,9057,ATS,C,21
18,test,4,C,haborder.png,1,m,Fri May 15 2026 09:49:11 GMT-0400 (Eastern Daylight Time),760322.7999999523,CFD-BM-022-004-HC.jpg,1600,solid,I,m,988,10,2,58883.299999952316,701439.5,9057,ATS,C,22
19,test,4,C,haborder.png,1,z,Fri May 15 2026 09:49:11 GMT-0400 (Eastern Daylight Time),763039.399999857,CFD-BF-002-018-A.jpg,1900,solid,I,z,791,8,2,61599.89999985695,701439.5,9057,ATS,C,23
20,test,4,C,mfborder.png,1,m,Fri May 15 2026 09:49:11 GMT-0400 (Eastern Daylight Time),766356.0,CFD-BM-043-014-A.jpg,2000,dash,I,m,1286,5,2,64916.5,701439.5,9057,ATS,C,24
