acc_sum,block,block_c,condition,correct,correct_response,datetime,endtime,flanker,jitter,project,response,response_test_buffer_response,response_test_target_response,response_time,response_time_test_buffer_response,response_time_test_target_response,row_sel,session_number,start_end,starttime,subject_id,target,task,task_vers,time_test_buffer,time_test_buffer_response,time_test_constants,time_test_flanker,time_test_jitter,time_test_logger,time_test_target,time_test_target_response,time_test_variables,trial
1,prac,1,con,1,m,Mon May 12 2025 16:08:00 GMT-0500 (Central Daylight Time),90954.89999997616,remote,1000,O,m,,,1072,,,7,1,3381.399999976158,87573.5,7151,remote,AF,A,,,,,,,,,,1
2,prac,1,con,1,z,Mon May 12 2025 16:08:00 GMT-0500 (Central Daylight Time),94069.20000004768,rage,1000,O,z,,,816,,,15,1,3107.8000000715256,90961.39999997616,7151,rage,AF,A,,,,,,,,,,2
3,prac,1,inc,1,m,Mon May 12 2025 16:08:00 GMT-0500 (Central Daylight Time),97251.60000002384,brutal,1100,O,m,,,771,,,8,1,3176.2000000476837,94075.39999997616,7151,window,AF,A,,,,,,,,,,3
4,prac,1,con,1,m,Mon May 12 2025 16:08:00 GMT-0500 (Central Daylight Time),100917.20000004768,bell,1000,O,m,,,1365,,,3,1,3659.4000000953674,97257.79999995232,7151,bell,AF,A,,,,,,,,,,4
5,prac,1,inc,1,z,Mon May 12 2025 16:08:00 GMT-0500 (Central Daylight Time),104083.10000002384,window,1100,O,z,,,756,,,16,1,3159.899999976158,100923.20000004768,7151,temper,AF,A,,,,,,,,,,5
6,prac,1,inc,1,m,Mon May 12 2025 16:08:00 GMT-0500 (Central Daylight Time),107515.0,kind,900,O,m,,,1222,,,2,1,3426.2000000476837,104088.79999995232,7151,rock,AF,A,,,,,,,,,,6
7,prac,1,con,1,m,Mon May 12 2025 16:08:00 GMT-0500 (Central Daylight Time),110297.60000002384,step,800,O,m,,,674,,,1,1,2777.5,107520.10000002384,7151,step,AF,A,,,,,,,,,,7
8,prac,1,inc,1,m,Mon May 12 2025 16:08:00 GMT-0500 (Central Daylight Time),114362.70000004768,hate,1100,O,m,,,1655,,,4,1,4058.9000000953674,110303.79999995232,7151,film,AF,A,,,,,,,,,,8
9,prac,1,con,1,z,Mon May 12 2025 16:08:00 GMT-0500 (Central Daylight Time),117792.20000004768,love,1000,O,z,,,1121,,,11,1,3423.4000000953674,114368.79999995232,7151,love,AF,A,,,,,,,,,,9
10,prac,1,inc,1,m,Mon May 12 2025 16:08:00 GMT-0500 (Central Daylight Time),120776.10000002384,elated,900,O,m,,,767,,,6,1,2974.0,117802.10000002384,7151,napkin,AF,A,,,,,,,,,,10
10,prac,1,con,0,z,Mon May 12 2025 16:08:00 GMT-0500 (Central Daylight Time),124642.5,elated,800,O,m,,,1760,,,9,1,3860.2999999523163,120782.20000004768,7151,elated,AF,A,,,,,,,,,,11
11,prac,1,con,1,m,Mon May 12 2025 16:08:00 GMT-0500 (Central Daylight Time),127406.79999995232,jacket,800,O,m,,,656,,,5,1,2757.899999976158,124648.89999997616,7151,jacket,AF,A,,,,,,,,,,12
12,prac,1,inc,1,z,Mon May 12 2025 16:08:00 GMT-0500 (Central Daylight Time),130356.70000004768,rock,900,O,z,,,742,,,10,1,2946.9000000953674,127409.79999995232,7151,kind,AF,A,,,,,,,,,,13
13,prac,1,con,1,z,Mon May 12 2025 16:08:00 GMT-0500 (Central Daylight Time),133538.70000004768,brutal,800,O,z,,,1079,,,13,1,3174.3000000715256,130364.39999997616,7151,brutal,AF,A,,,,,,,,,,14
14,prac,1,inc,1,z,Mon May 12 2025 16:08:00 GMT-0500 (Central Daylight Time),136605.79999995232,film,900,O,z,,,859,,,14,1,3064.0,133541.79999995232,7151,hate,AF,A,,,,,,,,,,15
15,prac,1,inc,1,z,Mon May 12 2025 16:08:00 GMT-0500 (Central Daylight Time),140120.70000004768,napkin,1100,O,z,,,1118,,,12,1,3509.5,136611.20000004768,7151,friend,AF,A,,,,,,,,,,16
1,test,1,inc,1,z,Mon May 12 2025 16:08:00 GMT-0500 (Central Daylight Time),151350.89999997616,napkin,900,O,z,z,None,870,669.0,201.0,62,1,2311.0,149039.89999997616,7151,temper,AF,A,145121,145121,143492,144404,143492,145803,144920,144920,145803,1
2,test,1,con,1,m,Mon May 12 2025 16:08:00 GMT-0500 (Central Daylight Time),153418.39999997616,jacket,800,O,m,m,None,749,534.0,215.0,97,1,2062.7999999523163,151355.60000002384,7151,jacket,AF,A,147336,147336,145808,146619,145808,147871,147121,147121,147870,2
3,test,1,inc,1,m,Mon May 12 2025 16:08:00 GMT-0500 (Central Daylight Time),155801.20000004768,elated,800,O,m,m,None,1043,828.0,215.0,109,1,2377.3000000715256,153423.89999997616,7151,napkin,AF,A,149419,149419,147876,148685,147876,150253,149204,149204,150253,3
4,test,1,con,1,z,Mon May 12 2025 16:08:00 GMT-0500 (Central Daylight Time),157599.5,love,800,O,z,z,None,462,260.0,202.0,17,1,1791.0,155808.5,7151,love,AF,A,151786,151786,150261,151069,150261,152052,151584,151584,152051,4
5,test,1,inc,1,m,Mon May 12 2025 16:08:00 GMT-0500 (Central Daylight Time),160031.70000004768,friend,1100,O,m,m,None,785,586.0,199.0,104,1,2426.100000023842,157605.60000002384,7151,jacket,AF,A,153883,153883,152058,153168,152058,154484,153684,153684,154484,5
6,test,1,con,1,z,Mon May 12 2025 16:08:00 GMT-0500 (Central Daylight Time),163246.10000002384,rage,1100,O,z,z,None,1593,1377.0,216.0,52,1,3208.2000000476837,160037.89999997616,7151,rage,AF,A,156317,156317,154490,155600,154490,157698,156101,156101,157698,6
7,test,1,inc,1,m,Mon May 12 2025 16:08:00 GMT-0500 (Central Daylight Time),165645.79999995232,hate,1100,O,m,m,None,760,545.0,215.0,88,1,2391.6999999284744,163254.10000002384,7151,bell,AF,A,159549,159549,157706,158817,157707,160098,159334,159334,160098,7
8,test,1,con,1,m,Mon May 12 2025 16:08:00 GMT-0500 (Central Daylight Time),168212.39999997616,rock,1100,O,m,m,None,931,717.0,214.0,76,1,2559.399999976158,165653.0,7151,rock,AF,A,161947,161947,160105,161216,160105,162665,161733,161733,162664,8
9,test,1,con,1,z,Mon May 12 2025 16:08:00 GMT-0500 (Central Daylight Time),170728.20000004768,rage,900,O,z,z,None,1075,876.0,199.0,50,1,2510.7000000476837,168217.5,7151,rage,AF,A,164299,164299,162670,163584,162670,165180,164099,164099,165180,9
10,test,1,inc,1,m,Mon May 12 2025 16:08:00 GMT-0500 (Central Daylight Time),172994.89999997616,friend,1100,O,m,m,None,617,401.0,216.0,112,1,2260.600000023842,170734.29999995232,7151,napkin,AF,A,167030,167031,165186,166298,165187,167447,166814,166814,167447,10
11,test,1,inc,1,z,Mon May 12 2025 16:08:00 GMT-0500 (Central Daylight Time),175210.20000004768,jacket,800,O,z,z,None,867,667.0,200.0,29,1,2207.9000000953674,173002.29999995232,7151,friend,AF,A,168979,168979,167454,168263,167455,169662,168779,168779,169662,11
12,test,1,inc,1,m,Mon May 12 2025 16:08:00 GMT-0500 (Central Daylight Time),177843.0,love,1000,O,m,m,None,1114,915.0,199.0,79,1,2626.399999976158,175216.60000002384,7151,rock,AF,A,171380,171380,169669,170678,169669,172295,171180,171180,172295,12
13,test,1,con,1,z,Mon May 12 2025 16:08:00 GMT-0500 (Central Daylight Time),180274.29999995232,love,900,O,z,z,None,990,787.0,203.0,18,1,2426.0,177848.29999995232,7151,love,AF,A,173931,173931,172300,173211,172301,174726,173727,173727,174726,13
14,test,1,inc,1,m,Mon May 12 2025 16:08:00 GMT-0500 (Central Daylight Time),182524.39999997616,temper,1000,O,m,m,None,721,506.0,215.0,111,1,2244.7999999523163,180279.60000002384,7151,napkin,AF,A,176461,176461,174732,175743,174732,176976,176245,176245,176976,14
15,test,1,inc,1,m,Mon May 12 2025 16:08:00 GMT-0500 (Central Daylight Time),184874.39999997616,rage,800,O,m,m,None,1007,807.0,200.0,77,1,2344.5,182529.89999997616,7151,rock,AF,A,178511,178511,176982,177794,176982,179327,178310,178310,179326,15
16,test,1,inc,1,z,Mon May 12 2025 16:08:00 GMT-0500 (Central Daylight Time),187253.89999997616,step,800,O,z,z,None,1031,818.0,213.0,21,1,2375.1999999284744,184878.70000004768,7151,love,AF,A,180875,180875,179331,180143,179331,181706,180661,180661,181706,16
17,test,1,inc,1,z,Mon May 12 2025 16:08:00 GMT-0500 (Central Daylight Time),189722.89999997616,film,1100,O,z,z,None,822,609.0,213.0,56,1,2465.5,187257.39999997616,7151,rage,AF,A,183557,183557,181709,182825,181710,184175,183343,183343,184175,17
17,test,1,con,0,z,Mon May 12 2025 16:08:00 GMT-0500 (Central Daylight Time),191921.5,hate,800,O,m,m,None,860,659.0,201.0,41,1,2194.2999999523163,189727.20000004768,7151,hate,AF,A,185707,185707,184179,184991,184179,186374,185506,185506,186374,18
18,test,1,inc,1,z,Mon May 12 2025 16:08:00 GMT-0500 (Central Daylight Time),194320.5,step,800,O,z,z,None,1075,875.0,200.0,53,1,2391.5,191929.0,7151,rage,AF,A,187890,187891,186381,187188,186381,188773,187690,187690,188772,19
19,test,1,con,1,m,Mon May 12 2025 16:08:00 GMT-0500 (Central Daylight Time),196452.70000004768,napkin,900,O,m,m,None,696,497.0,199.0,106,1,2128.100000023842,194324.60000002384,7151,napkin,AF,A,190407,190407,188777,189690,188777,190905,190207,190207,190905,20
20,test,1,con,1,z,Mon May 12 2025 16:08:00 GMT-0500 (Central Daylight Time),198736.20000004768,elated,900,O,z,z,None,835,636.0,199.0,2,1,2279.0,196457.20000004768,7151,elated,AF,A,192538,192538,190909,191823,190910,193188,192338,192338,193188,21
21,test,1,inc,1,z,Mon May 12 2025 16:08:00 GMT-0500 (Central Daylight Time),201218.70000004768,window,1100,O,z,z,None,847,648.0,199.0,8,1,2475.7000000476837,198743.0,7151,elated,AF,A,195022,195022,193195,194305,193195,195671,194822,194822,195671,22
22,test,1,con,1,z,Mon May 12 2025 16:08:00 GMT-0500 (Central Daylight Time),203351.60000002384,hate,1000,O,z,z,None,611,410.0,201.0,43,1,2127.7000000476837,201223.89999997616,7151,hate,AF,A,197388,197388,195676,196685,195676,197804,197187,197187,197804,23
23,test,1,con,1,m,Mon May 12 2025 16:08:00 GMT-0500 (Central Daylight Time),205316.29999995232,bell,900,O,m,m,None,520,304.0,216.0,82,1,1960.5,203355.79999995232,7151,bell,AF,A,199453,199454,197808,198721,197808,199768,199237,199237,199768,24
24,test,1,con,1,m,Mon May 12 2025 16:08:00 GMT-0500 (Central Daylight Time),207500.20000004768,window,800,O,m,m,None,839,638.0,201.0,121,1,2180.100000023842,205320.10000002384,7151,window,AF,A,201304,201304,199772,200586,199772,201952,201102,201102,201952,25
25,test,1,con,1,z,Mon May 12 2025 16:08:00 GMT-0500 (Central Daylight Time),209981.79999995232,temper,1100,O,z,z,None,837,638.0,199.0,60,1,2477.399999976158,207504.39999997616,7151,temper,AF,A,203784,203784,201956,203068,201957,204434,203585,203585,204434,26
26,test,1,inc,1,z,Mon May 12 2025 16:08:00 GMT-0500 (Central Daylight Time),212698.0,film,1100,O,z,z,None,1081,882.0,199.0,24,1,2712.2000000476837,209985.79999995232,7151,love,AF,A,206268,206268,204438,205551,204438,207150,206068,206068,207150,27
27,test,1,inc,1,z,Mon May 12 2025 16:08:00 GMT-0500 (Central Daylight Time),215064.20000004768,remote,1000,O,z,z,None,818,618.0,200.0,7,1,2361.5,212702.70000004768,7151,elated,AF,A,208884,208884,207155,208167,207155,209516,208683,208683,209516,28
28,test,1,con,1,m,Mon May 12 2025 16:08:00 GMT-0500 (Central Daylight Time),217695.29999995232,film,900,O,m,m,None,1192,992.0,200.0,90,1,2625.899999976158,215069.39999997616,7151,film,AF,A,211150,211150,209521,210432,209522,212147,210949,210949,212147,29
29,test,1,con,1,m,Mon May 12 2025 16:08:00 GMT-0500 (Central Daylight Time),220146.79999995232,napkin,1100,O,m,m,None,799,600.0,199.0,108,1,2447.0999999046326,217699.70000004768,7151,napkin,AF,A,213982,213982,212152,213266,212152,214599,213782,213782,214599,30
30,test,1,inc,1,m,Mon May 12 2025 16:08:00 GMT-0500 (Central Daylight Time),222411.89999997616,temper,1000,O,m,m,None,738,522.0,216.0,127,1,2259.2999999523163,220152.60000002384,7151,window,AF,A,216332,216332,214605,215614,214605,216864,216116,216116,216864,31
31,test,1,con,1,m,Mon May 12 2025 16:08:00 GMT-0500 (Central Daylight Time),225044.39999997616,step,1000,O,m,m,None,1088,889.0,199.0,67,1,2627.600000023842,222416.79999995232,7151,step,AF,A,218597,218597,216869,217881,216869,219496,218397,218397,219496,32
32,test,1,inc,1,z,Mon May 12 2025 16:08:00 GMT-0500 (Central Daylight Time),227326.60000002384,window,1100,O,z,z,None,644,445.0,199.0,32,1,2275.8000000715256,225050.79999995232,7151,friend,AF,A,221330,221330,219503,220614,219503,221779,221130,221130,221779,33
33,test,1,inc,1,m,Mon May 12 2025 16:08:00 GMT-0500 (Central Daylight Time),229809.29999995232,hate,1100,O,m,m,None,841,626.0,215.0,72,1,2478.399999976158,227330.89999997616,7151,step,AF,A,223629,223629,221783,222897,221783,224261,223413,223413,224261,34
34,test,1,inc,1,m,Mon May 12 2025 16:08:00 GMT-0500 (Central Daylight Time),232241.0,kind,900,O,m,m,None,990,791.0,199.0,70,1,2427.2000000476837,229813.79999995232,7151,step,AF,A,225894,225895,224266,225178,224266,226693,225695,225695,226693,35
35,test,1,inc,1,z,Mon May 12 2025 16:08:00 GMT-0500 (Central Daylight Time),234407.60000002384,jacket,800,O,z,z,None,817,616.0,201.0,61,1,2161.7000000476837,232245.89999997616,7151,temper,AF,A,228228,228229,226698,227512,226698,228860,228027,228027,228860,36
36,test,1,con,1,m,Mon May 12 2025 16:08:00 GMT-0500 (Central Daylight Time),236806.0,step,1100,O,m,m,None,760,544.0,216.0,68,1,2393.899999976158,234412.10000002384,7151,step,AF,A,230710,230710,228864,229977,228864,231258,230494,230494,231258,37
37,test,1,con,1,m,Mon May 12 2025 16:08:00 GMT-0500 (Central Daylight Time),239206.39999997616,jacket,1000,O,m,m,None,862,662.0,200.0,99,1,2395.7999999523163,236810.60000002384,7151,jacket,AF,A,232992,232992,231263,232275,231263,233658,232792,232792,233658,38
38,test,1,inc,1,z,Mon May 12 2025 16:08:00 GMT-0500 (Central Daylight Time),241338.89999997616,rock,900,O,z,z,None,706,507.0,199.0,22,1,2127.7999999523163,239211.10000002384,7151,love,AF,A,235275,235275,233663,234575,233663,235791,235076,235076,235791,39
39,test,1,inc,1,z,Mon May 12 2025 16:08:00 GMT-0500 (Central Daylight Time),243821.70000004768,rock,900,O,z,z,None,1036,836.0,200.0,46,1,2477.3000000715256,241344.39999997616,7151,hate,AF,A,237425,237425,235796,236709,235797,238274,237224,237224,238274,40
40,test,1,inc,1,m,Mon May 12 2025 16:08:00 GMT-0500 (Central Daylight Time),246820.39999997616,temper,1000,O,m,m,None,1454,1239.0,215.0,119,1,2993.0,243827.39999997616,7151,remote,AF,A,240023,240024,238279,239291,238280,241273,239808,239808,241272,41
41,test,1,inc,1,z,Mon May 12 2025 16:08:00 GMT-0500 (Central Daylight Time),248853.20000004768,step,800,O,z,z,None,705,504.0,201.0,45,1,2027.4000000953674,246825.79999995232,7151,hate,AF,A,242790,242790,241278,242088,241278,243305,242589,242589,243305,42
42,test,1,inc,1,m,Mon May 12 2025 16:08:00 GMT-0500 (Central Daylight Time),250970.10000002384,brutal,900,O,m,m,None,675,475.0,200.0,110,1,2111.399999976158,248858.70000004768,7151,napkin,AF,A,244939,244939,243311,244223,243311,245422,244738,244738,245422,43
43,test,1,inc,1,m,Mon May 12 2025 16:08:00 GMT-0500 (Central Daylight Time),253235.79999995232,love,1000,O,m,m,None,732,531.0,201.0,95,1,2260.5999999046326,250975.20000004768,7151,film,AF,A,247156,247156,245427,246437,245428,247688,246954,246954,247688,44
44,test,1,con,1,m,Mon May 12 2025 16:08:00 GMT-0500 (Central Daylight Time),255417.20000004768,remote,800,O,m,m,None,832,633.0,199.0,113,1,2175.5,253241.70000004768,7151,remote,AF,A,249221,249221,247694,248504,247694,249869,249021,249021,249869,45
45,test,1,con,1,m,Mon May 12 2025 16:08:00 GMT-0500 (Central Daylight Time),257600.89999997616,rock,800,O,m,m,None,836,636.0,200.0,73,1,2178.1999999284744,255422.70000004768,7151,rock,AF,A,251402,251402,249875,250687,249875,252053,251202,251202,252053,46
46,test,1,inc,1,m,Mon May 12 2025 16:08:00 GMT-0500 (Central Daylight Time),259599.89999997616,elated,800,O,m,m,None,649,450.0,199.0,117,1,1994.6999999284744,257605.20000004768,7151,remote,AF,A,253586,253587,252057,252869,252057,254052,253387,253387,254052,47
47,test,1,inc,1,m,Mon May 12 2025 16:08:00 GMT-0500 (Central Daylight Time),261682.39999997616,rage,800,O,m,m,None,732,533.0,199.0,69,1,2075.6999999284744,259606.70000004768,7151,step,AF,A,255584,255585,254059,254869,254059,256134,255385,255385,256134,48
48,test,1,inc,1,z,Mon May 12 2025 16:08:00 GMT-0500 (Central Daylight Time),264015.2000000477,remote,1000,O,z,z,None,807,593.0,214.0,31,1,2325.600000023842,261689.60000002384,7151,friend,AF,A,257870,257870,256142,257149,256142,258467,257655,257655,258467,49
49,test,1,con,1,z,Mon May 12 2025 16:08:00 GMT-0500 (Central Daylight Time),266430.5,love,1100,O,z,z,None,776,560.0,216.0,20,1,2410.600000023842,264019.89999997616,7151,love,AF,A,260318,260318,258472,259584,258472,260883,260101,260101,260883,50
50,test,1,inc,1,z,Mon May 12 2025 16:08:00 GMT-0500 (Central Daylight Time),268963.2999999523,remote,1000,O,z,z,None,989,789.0,200.0,39,1,2526.7999999523163,266436.5,7151,brutal,AF,A,262617,262617,260889,261899,260889,263415,262416,262416,263415,51
51,test,1,inc,1,m,Mon May 12 2025 16:08:00 GMT-0500 (Central Daylight Time),270945.10000002384,rage,800,O,m,m,None,639,424.0,215.0,85,1,1976.3999999761581,268968.7000000477,7151,bell,AF,A,264966,264966,263421,264233,263421,265397,264750,264750,265397,52
52,test,1,inc,1,z,Mon May 12 2025 16:08:00 GMT-0500 (Central Daylight Time),273529.2999999523,bell,1000,O,z,z,None,1036,836.0,200.0,55,1,2579.0999999046326,270950.2000000477,7151,rage,AF,A,267129,267129,265402,266413,265403,267981,266929,266929,267981,53
52,test,1,inc,0,z,Mon May 12 2025 16:08:00 GMT-0500 (Central Daylight Time),275611.89999997616,bell,1000,O,m,m,None,549,350.0,199.0,23,1,2076.399999976158,273535.5,7151,love,AF,A,269714,269714,267987,268999,267988,270064,269515,269515,270064,54
53,test,1,inc,1,m,Mon May 12 2025 16:08:00 GMT-0500 (Central Daylight Time),277842.89999997616,temper,1000,O,m,m,None,696,497.0,199.0,103,1,2227.5,275615.39999997616,7151,jacket,AF,A,271797,271797,270067,271081,270068,272295,271598,271598,272295,55
54,test,1,con,1,m,Mon May 12 2025 16:08:00 GMT-0500 (Central Daylight Time),280309.7999999523,film,1100,O,m,m,None,816,604.0,212.0,92,1,2459.5999999046326,277850.2000000477,7151,film,AF,A,274145,274145,272302,273413,272303,274762,273932,273932,274762,56
55,test,1,inc,1,z,Mon May 12 2025 16:08:00 GMT-0500 (Central Daylight Time),282526.0,bell,1000,O,z,z,None,694,493.0,201.0,47,1,2211.0,280315.0,7151,hate,AF,A,276481,276481,274767,275778,274767,276978,276280,276280,276978,57
56,test,1,inc,1,z,Mon May 12 2025 16:08:00 GMT-0500 (Central Daylight Time),285373.7000000477,step,800,O,z,z,None,1500,1301.0,199.0,13,1,2843.100000023842,282530.60000002384,7151,kind,AF,A,278512,278512,276983,277797,276983,279826,278312,278312,279826,58
57,test,1,con,1,z,Mon May 12 2025 16:08:00 GMT-0500 (Central Daylight Time),287758.60000002384,temper,1000,O,z,z,None,837,637.0,200.0,59,1,2380.600000023842,285378.0,7151,temper,AF,A,281561,281561,279830,280845,279830,282211,281360,281360,282211,59
58,test,1,inc,1,m,Mon May 12 2025 16:08:00 GMT-0500 (Central Daylight Time),290342.2999999523,rage,800,O,m,m,None,1238,1039.0,199.0,93,1,2578.0999999046326,287764.2000000477,7151,film,AF,A,283743,283743,282216,283028,282217,284794,283543,283543,284794,60
59,test,1,inc,1,m,Mon May 12 2025 16:08:00 GMT-0500 (Central Daylight Time),292439.2000000477,kind,900,O,m,m,None,651,451.0,200.0,94,1,2091.600000023842,290347.60000002384,7151,film,AF,A,286426,286426,284800,285711,284800,286891,286225,286225,286891,61
60,test,1,inc,1,z,Mon May 12 2025 16:08:00 GMT-0500 (Central Daylight Time),294621.7999999523,napkin,900,O,z,z,None,743,543.0,200.0,30,1,2178.0,292443.7999999523,7151,friend,AF,A,288527,288527,286896,287808,286896,289074,288326,288326,289074,62
61,test,1,inc,1,z,Mon May 12 2025 16:08:00 GMT-0500 (Central Daylight Time),297470.7999999523,remote,1000,O,z,z,None,1303,1102.0,201.0,63,1,2843.399999976158,294627.39999997616,7151,temper,AF,A,290807,290807,289079,290091,289080,291923,290606,290606,291923,63
62,test,1,con,1,z,Mon May 12 2025 16:08:00 GMT-0500 (Central Daylight Time),299987.39999997616,kind,900,O,z,z,None,1071,872.0,199.0,10,1,2512.399999976158,297475.0,7151,kind,AF,A,293558,293558,291927,292841,291927,294439,293358,293358,294439,64
63,test,1,con,1,z,Mon May 12 2025 16:08:00 GMT-0500 (Central Daylight Time),302153.60000002384,rage,800,O,z,z,None,824,609.0,215.0,49,1,2161.899999976158,299991.7000000477,7151,rage,AF,A,295989,295989,294444,295256,294444,296606,295774,295774,296606,65
64,test,1,con,1,z,Mon May 12 2025 16:08:00 GMT-0500 (Central Daylight Time),304285.7000000477,kind,800,O,z,z,None,787,588.0,199.0,9,1,2128.100000023842,302157.60000002384,7151,kind,AF,A,298138,298138,296610,297422,296610,298738,297938,297938,298738,66
65,test,1,inc,1,z,Mon May 12 2025 16:08:00 GMT-0500 (Central Daylight Time),306550.7999999523,napkin,900,O,z,z,None,826,611.0,215.0,6,1,2260.399999976158,304290.39999997616,7151,elated,AF,A,300387,300387,298742,299657,298743,301003,300171,300171,301003,67
66,test,1,con,1,z,Mon May 12 2025 16:08:00 GMT-0500 (Central Daylight Time),309034.10000002384,hate,900,O,z,z,None,1041,842.0,199.0,42,1,2478.8000000715256,306555.2999999523,7151,hate,AF,A,302636,302636,301007,301919,301008,303486,302437,302437,303486,68
67,test,1,inc,1,m,Mon May 12 2025 16:08:00 GMT-0500 (Central Daylight Time),311050.10000002384,elated,800,O,m,m,None,690,491.0,199.0,125,1,2011.6000000238419,309038.5,7151,window,AF,A,305002,305003,303491,304302,303491,305502,304803,304803,305502,69
67,test,1,con,0,m,Mon May 12 2025 16:08:00 GMT-0500 (Central Daylight Time),313032.39999997616,film,800,O,z,z,None,643,444.0,199.0,89,1,1977.7999999523163,311054.60000002384,7151,film,AF,A,307035,307035,305507,306319,305507,307484,306835,306835,307484,70
68,test,1,inc,1,m,Mon May 12 2025 16:08:00 GMT-0500 (Central Daylight Time),315231.2999999523,brutal,900,O,m,m,None,766,550.0,216.0,102,1,2194.399999976158,313036.89999997616,7151,jacket,AF,A,309120,309120,307489,308401,307489,309683,308904,308904,309683,71
69,test,1,con,1,z,Mon May 12 2025 16:08:00 GMT-0500 (Central Daylight Time),317516.60000002384,friend,1000,O,z,z,None,751,552.0,199.0,27,1,2279.3000000715256,315237.2999999523,7151,friend,AF,A,311416,311416,309689,310701,309690,311969,311217,311217,311969,72
70,test,1,con,1,z,Mon May 12 2025 16:08:00 GMT-0500 (Central Daylight Time),319846.2000000477,hate,1100,O,z,z,None,707,494.0,213.0,44,1,2323.7000000476837,317522.5,7151,hate,AF,A,313800,313800,311975,313084,311975,314298,313586,313586,314298,73
71,test,1,con,1,m,Mon May 12 2025 16:08:00 GMT-0500 (Central Daylight Time),321948.0,rock,900,O,m,m,None,666,466.0,200.0,74,1,2097.5,319850.5,7151,rock,AF,A,315934,315934,314303,315216,314303,316400,315733,315733,316400,74
72,test,1,con,1,m,Mon May 12 2025 16:08:00 GMT-0500 (Central Daylight Time),324479.5,remote,1000,O,m,m,None,986,784.0,202.0,115,1,2526.899999976158,321952.60000002384,7151,remote,AF,A,318133,318133,316405,317414,316405,318932,317931,317931,318932,75
73,test,1,con,1,z,Mon May 12 2025 16:08:00 GMT-0500 (Central Daylight Time),326662.2999999523,friend,1100,O,z,z,None,533,333.0,200.0,28,1,2175.399999976158,324486.89999997616,7151,friend,AF,A,320765,320765,318939,320048,318939,321114,320565,320565,321114,76
74,test,1,con,1,z,Mon May 12 2025 16:08:00 GMT-0500 (Central Daylight Time),329560.60000002384,kind,1000,O,z,z,None,1358,1159.0,199.0,11,1,2893.3000000715256,326667.2999999523,7151,kind,AF,A,322847,322847,321119,322132,321120,324013,322647,322647,324013,77
75,test,1,con,1,m,Mon May 12 2025 16:08:00 GMT-0500 (Central Daylight Time),331577.5,bell,800,O,m,m,None,676,461.0,215.0,81,1,2012.5,329565.0,7151,bell,AF,A,325562,325562,324017,324831,324017,326030,325347,325347,326029,78
76,test,1,con,1,z,Mon May 12 2025 16:08:00 GMT-0500 (Central Daylight Time),333525.7999999523,brutal,900,O,z,z,None,526,312.0,214.0,34,1,1943.5,331582.2999999523,7151,brutal,AF,A,327662,327662,326034,326946,326035,327978,327448,327448,327978,79
77,test,1,con,1,m,Mon May 12 2025 16:08:00 GMT-0500 (Central Daylight Time),335775.10000002384,step,900,O,m,m,None,810,609.0,201.0,66,1,2244.8000000715256,333530.2999999523,7151,step,AF,A,329613,329613,327982,328894,327983,330227,329411,329411,330227,80
78,test,1,con,1,m,Mon May 12 2025 16:08:00 GMT-0500 (Central Daylight Time),338257.7999999523,remote,1100,O,m,m,None,832,616.0,216.0,116,1,2479.2999999523163,335778.5,7151,remote,AF,A,332079,332079,330231,331346,330231,332710,331862,331862,332710,81
79,test,1,con,1,z,Mon May 12 2025 16:08:00 GMT-0500 (Central Daylight Time),340507.7999999523,elated,1100,O,z,z,None,617,417.0,200.0,4,1,2246.5,338261.2999999523,7151,elated,AF,A,334543,334543,332713,333827,332714,334960,334342,334342,334960,82
80,test,1,inc,1,m,Mon May 12 2025 16:08:00 GMT-0500 (Central Daylight Time),342872.2999999523,hate,1100,O,m,m,None,723,524.0,199.0,96,1,2360.0999999046326,340512.2000000477,7151,film,AF,A,336793,336793,334964,336075,334965,337324,336593,336593,337324,83
81,test,1,inc,1,m,Mon May 12 2025 16:08:00 GMT-0500 (Central Daylight Time),345056.60000002384,brutal,900,O,m,m,None,758,559.0,199.0,126,1,2180.899999976158,342875.7000000477,7151,window,AF,A,338943,338943,337328,338241,337328,339509,338743,338743,339509,84
82,test,1,inc,1,z,Mon May 12 2025 16:08:00 GMT-0500 (Central Daylight Time),347420.7999999523,napkin,900,O,z,z,None,926,727.0,199.0,38,1,2358.6999999284744,345062.10000002384,7151,brutal,AF,A,341143,341143,339514,340424,339514,341873,340943,340943,341873,85
83,test,1,con,1,z,Mon May 12 2025 16:08:00 GMT-0500 (Central Daylight Time),349403.7000000477,love,1000,O,z,z,None,464,265.0,199.0,19,1,1979.3000000715256,347424.39999997616,7151,love,AF,A,343591,343591,341876,342889,341877,343856,343391,343391,343856,86
84,test,1,inc,1,z,Mon May 12 2025 16:08:00 GMT-0500 (Central Daylight Time),351604.7000000477,rock,900,O,z,z,None,768,568.0,200.0,14,1,2196.5,349408.2000000477,7151,kind,AF,A,345489,345489,343860,344774,343860,346057,345289,345289,346057,87
85,test,1,con,1,m,Mon May 12 2025 16:08:00 GMT-0500 (Central Daylight Time),354071.7999999523,film,1000,O,m,m,None,931,731.0,200.0,91,1,2462.899999976158,351608.89999997616,7151,film,AF,A,347790,347790,346061,347074,346061,348524,347590,347590,348524,88
86,test,1,con,1,m,Mon May 12 2025 16:08:00 GMT-0500 (Central Daylight Time),356335.39999997616,remote,900,O,m,m,None,825,610.0,215.0,114,1,2258.6999999284744,354076.7000000477,7151,remote,AF,A,350172,350172,348529,349439,348529,350787,349957,349957,350787,89
87,test,1,con,1,z,Mon May 12 2025 16:08:00 GMT-0500 (Central Daylight Time),358569.60000002384,brutal,1000,O,z,z,None,683,468.0,215.0,35,1,2230.2000000476837,356339.39999997616,7151,brutal,AF,A,352537,352537,350791,351807,350792,353022,352322,352322,353022,90
88,test,1,inc,1,z,Mon May 12 2025 16:08:00 GMT-0500 (Central Daylight Time),360718.10000002384,jacket,800,O,z,z,None,800,600.0,200.0,37,1,2143.5,358574.60000002384,7151,brutal,AF,A,354553,354553,353027,353838,353027,355170,354353,354353,355170,91
89,test,1,inc,1,m,Mon May 12 2025 16:08:00 GMT-0500 (Central Daylight Time),363132.2000000477,brutal,900,O,m,m,None,994,794.0,200.0,118,1,2408.600000023842,360723.60000002384,7151,remote,AF,A,356787,356788,355176,356086,355176,357584,356587,356587,357584,92
90,test,1,con,1,m,Mon May 12 2025 16:08:00 GMT-0500 (Central Daylight Time),365651.60000002384,bell,1000,O,m,m,None,998,784.0,214.0,83,1,2514.8000000715256,363136.7999999523,7151,bell,AF,A,359319,359319,357589,358603,357589,360104,359104,359104,360104,93
91,test,1,inc,1,z,Mon May 12 2025 16:08:00 GMT-0500 (Central Daylight Time),368214.5,rock,900,O,z,z,None,1126,912.0,214.0,54,1,2558.2999999523163,365656.2000000477,7151,rage,AF,A,361749,361750,360108,361018,360108,362667,361535,361535,362667,94
92,test,1,con,1,m,Mon May 12 2025 16:08:00 GMT-0500 (Central Daylight Time),370532.5,rock,1000,O,m,m,None,774,574.0,200.0,75,1,2313.399999976158,368219.10000002384,7151,rock,AF,A,364400,364400,362671,363685,362672,364985,364200,364200,364984,95
93,test,1,con,1,z,Mon May 12 2025 16:08:00 GMT-0500 (Central Daylight Time),372680.2000000477,brutal,800,O,z,z,None,800,600.0,200.0,33,1,2143.4000000953674,370536.7999999523,7151,brutal,AF,A,366517,366517,364989,365799,364989,367132,366316,366316,367132,96
94,test,1,inc,1,z,Mon May 12 2025 16:08:00 GMT-0500 (Central Daylight Time),375180.89999997616,film,1100,O,z,z,None,881,666.0,215.0,16,1,2495.100000023842,372685.7999999523,7151,kind,AF,A,368966,368966,367138,368250,367138,369633,368751,368751,369633,97
95,test,1,inc,1,m,Mon May 12 2025 16:08:00 GMT-0500 (Central Daylight Time),377628.2999999523,love,1000,O,m,m,None,913,699.0,214.0,71,1,2442.5999999046326,375185.7000000477,7151,step,AF,A,371380,371380,369638,370649,369638,372080,371166,371166,372080,98
96,test,1,con,1,z,Mon May 12 2025 16:08:00 GMT-0500 (Central Daylight Time),380044.60000002384,kind,1100,O,z,z,None,780,580.0,200.0,12,1,2410.8000000715256,377633.7999999523,7151,kind,AF,A,373915,373915,372086,373199,372086,374497,373714,373714,374497,99
97,test,1,con,1,z,Mon May 12 2025 16:08:00 GMT-0500 (Central Daylight Time),382326.7000000477,friend,800,O,z,z,None,944,744.0,200.0,25,1,2276.2000000476837,380050.5,7151,friend,AF,A,376030,376030,374503,375317,374503,376779,375829,375829,376779,100
98,test,1,con,1,z,Mon May 12 2025 16:08:00 GMT-0500 (Central Daylight Time),384360.60000002384,elated,1000,O,z,z,None,501,285.0,216.0,3,1,2028.5,382332.10000002384,7151,elated,AF,A,378513,378513,376784,377795,376784,378813,378297,378297,378813,101
99,test,1,con,1,m,Mon May 12 2025 16:08:00 GMT-0500 (Central Daylight Time),386477.0,napkin,1000,O,m,m,None,583,382.0,201.0,107,1,2111.2999999523163,384365.7000000477,7151,napkin,AF,A,380547,380547,378818,379830,378818,380929,380345,380345,380929,102
100,test,1,con,1,m,Mon May 12 2025 16:08:00 GMT-0500 (Central Daylight Time),389758.7000000477,window,1000,O,m,m,None,1736,1536.0,200.0,123,1,3277.3000000715256,386481.39999997616,7151,window,AF,A,382662,382662,380933,381945,380934,384211,382462,382462,384211,103
101,test,1,inc,1,z,Mon May 12 2025 16:08:00 GMT-0500 (Central Daylight Time),391840.5,bell,1000,O,z,z,None,542,343.0,199.0,15,1,2077.2999999523163,389763.2000000477,7151,kind,AF,A,385943,385943,384215,385227,384216,386293,385744,385744,386292,104
102,test,1,inc,1,z,Mon May 12 2025 16:08:00 GMT-0500 (Central Daylight Time),394507.60000002384,window,1100,O,z,z,None,1033,832.0,201.0,64,1,2662.399999976158,391845.2000000477,7151,temper,AF,A,388127,388127,386297,387410,386297,388960,387926,387926,388960,105
103,test,1,con,1,m,Mon May 12 2025 16:08:00 GMT-0500 (Central Daylight Time),396690.7000000477,step,800,O,m,m,None,841,625.0,216.0,65,1,2175.600000023842,394515.10000002384,7151,step,AF,A,390510,390510,388967,389776,388968,391143,390292,390293,391143,106
104,test,1,inc,1,m,Mon May 12 2025 16:08:00 GMT-0500 (Central Daylight Time),399307.2000000477,kind,900,O,m,m,None,1184,984.0,200.0,86,1,2608.0,396699.2000000477,7151,bell,AF,A,392774,392775,391151,392061,391152,393759,392574,392574,393759,107
105,test,1,con,1,m,Mon May 12 2025 16:08:00 GMT-0500 (Central Daylight Time),401853.5,jacket,1100,O,m,m,None,910,710.0,200.0,100,1,2538.399999976158,399315.10000002384,7151,jacket,AF,A,395592,395592,393767,394874,393768,396306,395391,395391,396306,108
106,test,1,inc,1,m,Mon May 12 2025 16:08:00 GMT-0500 (Central Daylight Time),404172.89999997616,friend,1100,O,m,m,None,680,481.0,199.0,120,1,2314.6999999284744,401858.2000000477,7151,remote,AF,A,398124,398124,396310,397423,396311,398625,397924,397925,398625,109
107,test,1,inc,1,m,Mon May 12 2025 16:08:00 GMT-0500 (Central Daylight Time),406285.10000002384,love,1000,O,m,m,None,580,378.0,202.0,87,1,2108.5,404176.60000002384,7151,bell,AF,A,400357,400357,398629,399639,398629,400737,400155,400155,400737,110
108,test,1,inc,1,z,Mon May 12 2025 16:08:00 GMT-0500 (Central Daylight Time),408369.7000000477,jacket,800,O,z,z,None,741,541.0,200.0,5,1,2079.8000000715256,406289.89999997616,7151,elated,AF,A,402273,402273,400742,401557,400742,402822,402072,402072,402822,111
109,test,1,con,1,z,Mon May 12 2025 16:08:00 GMT-0500 (Central Daylight Time),410636.2999999523,friend,900,O,z,z,None,824,624.0,200.0,26,1,2257.7999999523163,408378.5,7151,friend,AF,A,404455,404455,402831,403738,402831,405088,404255,404255,405088,112
110,test,1,con,1,z,Mon May 12 2025 16:08:00 GMT-0500 (Central Daylight Time),412734.0,rage,1000,O,z,z,None,563,363.0,200.0,51,1,2089.7000000476837,410644.2999999523,7151,rage,AF,A,406820,406820,405096,406104,405097,407186,406620,406620,407186,113
111,test,1,con,1,z,Mon May 12 2025 16:08:00 GMT-0500 (Central Daylight Time),414900.5,temper,800,O,z,z,None,823,622.0,201.0,57,1,2157.7000000476837,412742.7999999523,7151,temper,AF,A,408720,408720,407195,408005,407195,409353,408519,408519,409353,114
112,test,1,con,1,z,Mon May 12 2025 16:08:00 GMT-0500 (Central Daylight Time),417252.5,elated,800,O,z,z,None,1016,817.0,199.0,1,1,2344.0,414908.5,7151,elated,AF,A,410887,410887,409361,410169,409361,411705,410687,410687,411705,115
113,test,1,inc,1,m,Mon May 12 2025 16:08:00 GMT-0500 (Central Daylight Time),419267.10000002384,elated,800,O,m,m,None,697,483.0,214.0,101,1,2007.7000000476837,417259.39999997616,7151,jacket,AF,A,413235,413235,411711,412518,411712,413719,413020,413020,413719,116
114,test,1,con,1,m,Mon May 12 2025 16:08:00 GMT-0500 (Central Daylight Time),421268.0,jacket,900,O,m,m,None,568,352.0,216.0,98,1,1992.8999999761581,419275.10000002384,7151,jacket,AF,A,415368,415368,413727,414634,413727,415720,415152,415152,415720,117
115,test,1,con,1,m,Mon May 12 2025 16:08:00 GMT-0500 (Central Daylight Time),423348.7000000477,napkin,800,O,m,m,None,750,549.0,201.0,105,1,2072.600000023842,421276.10000002384,7151,napkin,AF,A,417251,417251,415728,416535,415729,417801,417050,417050,417801,118
116,test,1,inc,1,m,Mon May 12 2025 16:08:00 GMT-0500 (Central Daylight Time),425731.5,kind,900,O,m,m,None,950,750.0,200.0,78,1,2377.399999976158,423354.10000002384,7151,rock,AF,A,419433,419433,417806,418718,417806,420184,419233,419233,420184,119
117,test,1,con,1,m,Mon May 12 2025 16:08:00 GMT-0500 (Central Daylight Time),428095.7000000477,window,1100,O,m,m,None,720,521.0,199.0,124,1,2358.8000000715256,425736.89999997616,7151,window,AF,A,422013,422013,420189,421300,420189,422548,421814,421814,422548,120
118,test,1,con,1,m,Mon May 12 2025 16:08:00 GMT-0500 (Central Daylight Time),430512.0,bell,1100,O,m,m,None,776,560.0,216.0,84,1,2411.7000000476837,428100.2999999523,7151,bell,AF,A,424399,424399,422552,423664,422553,424964,424183,424183,424964,121
119,test,1,inc,1,m,Mon May 12 2025 16:08:00 GMT-0500 (Central Daylight Time),432811.10000002384,friend,1100,O,m,m,None,656,457.0,199.0,128,1,2296.2000000476837,430514.89999997616,7151,window,AF,A,426797,426797,424967,426081,424967,427263,426598,426598,427263,122
120,test,1,con,1,z,Mon May 12 2025 16:08:00 GMT-0500 (Central Daylight Time),435209.7999999523,brutal,1100,O,z,z,None,757,541.0,216.0,36,1,2393.899999976158,432815.89999997616,7151,brutal,AF,A,429113,429113,427268,428380,427268,429662,428897,428897,429662,123
121,test,1,inc,1,m,Mon May 12 2025 16:08:00 GMT-0500 (Central Daylight Time),437492.60000002384,hate,1100,O,m,m,None,646,431.0,215.0,80,1,2278.100000023842,435214.5,7151,rock,AF,A,431512,431512,429667,430780,429667,431945,431296,431296,431945,124
122,test,1,inc,1,z,Mon May 12 2025 16:08:00 GMT-0500 (Central Daylight Time),440041.7999999523,window,1100,O,z,z,None,906,707.0,199.0,40,1,2544.0,437497.7999999523,7151,brutal,AF,A,433778,433778,431950,433063,431950,434494,433578,433578,434494,125
123,test,1,con,1,m,Mon May 12 2025 16:08:00 GMT-0500 (Central Daylight Time),442441.2000000477,window,900,O,m,m,None,948,749.0,199.0,122,1,2393.600000023842,440047.60000002384,7151,window,AF,A,436129,436129,434500,435412,434500,436893,435929,435929,436893,126
123,test,1,con,0,z,Mon May 12 2025 16:08:00 GMT-0500 (Central Daylight Time),444639.89999997616,temper,900,O,m,m,None,762,561.0,201.0,58,1,2192.7999999523163,442447.10000002384,7151,temper,AF,A,438526,438526,436899,437811,436900,439092,438325,438325,439092,127
124,test,1,inc,1,z,Mon May 12 2025 16:08:00 GMT-0500 (Central Daylight Time),447655.7999999523,film,1100,O,z,z,None,1393,1193.0,200.0,48,1,3007.899999976158,444647.89999997616,7151,hate,AF,A,440910,440910,439100,440209,439100,442108,440710,440710,442108,128
