Q,Q1,Q2,Q3,Q4,acc_sum,block,block_c,correct,correct_response,datetime,endtime,project,response,response_time,row_sel,session_number,squiggle1,squiggle1x,squiggle1y,squiggle2,squiggle2x,squiggle2y,squiggle3,squiggle3x,squiggle3y,squiggle4,squiggle4x,squiggle4y,start_end,starttime,subject_id,target_congruent,task,task_vers,testsquiggle,testsquigglex,testsquiggley,time_practice_delay,time_practice_fixation,time_practice_stimuli,time_practice_study,time_test_delay,time_test_fixation,time_test_stimuli,time_test_study,trial
1,1,0,0,0,1,prac,1,1,z,Fri May 29 2026 15:28:04 GMT-0500 (Central Daylight Time),633944.8999999762,O,z,1382,1,1,116.bmp,-120,-120,117.bmp,120,-120,118.bmp,-120,120,119.bmp,120,120,10193.5,623751.3999999762,7810,yes,SM,A,116.bmp,-120,-120,622257,616229,624273,618241,,,,,1
3,0,0,1,0,2,prac,1,1,m,Fri May 29 2026 15:28:04 GMT-0500 (Central Daylight Time),643658.5,O,m,888,2,1,120.bmp,-120,-120,121.bmp,120,-120,122.bmp,-120,120,123.bmp,120,120,9709.899999976158,633948.6000000238,7810,no,SM,A,123.bmp,-120,120,632454,626426,634471,628438,,,,,2
4,0,0,0,1,3,prac,1,1,m,Fri May 29 2026 15:28:04 GMT-0500 (Central Daylight Time),654055.3000000119,O,m,1567,3,1,124.bmp,-120,-120,125.bmp,120,-120,126.bmp,-120,120,127.bmp,120,120,10393.600000023842,643661.6999999881,7810,no,SM,A,124.bmp,120,120,642167,636139,644183,638152,,,,,3
2,0,1,0,0,4,prac,1,1,z,Fri May 29 2026 15:28:04 GMT-0500 (Central Daylight Time),663885.5,O,z,1010,4,1,128.bmp,-120,-120,129.bmp,120,-120,130.bmp,-120,120,131.bmp,120,120,9826.300000011921,654059.1999999881,7810,yes,SM,A,129.bmp,120,-120,652564,646536,654580,648548,,,,,4
3,0,0,1,0,5,prac,1,1,z,Fri May 29 2026 15:28:04 GMT-0500 (Central Daylight Time),673699.1000000238,O,z,996,5,1,132.bmp,-120,-120,133.bmp,120,-120,134.bmp,-120,120,135.bmp,120,120,9809.100000023842,663890.0,7810,yes,SM,A,134.bmp,-120,120,662394,656367,664410,658379,,,,,5
1,1,0,0,0,6,prac,1,1,m,Fri May 29 2026 15:28:04 GMT-0500 (Central Daylight Time),683097.0,O,m,575,6,1,136.bmp,-120,-120,137.bmp,120,-120,138.bmp,-120,120,139.bmp,120,120,9394.100000023842,673702.8999999762,7810,no,SM,A,139.bmp,-120,-120,672208,666180,674224,668192,,,,,6
2,0,1,0,0,7,prac,1,1,m,Fri May 29 2026 15:28:04 GMT-0500 (Central Daylight Time),692926.3999999762,O,m,1019,7,1,140.bmp,-120,-120,141.bmp,120,-120,142.bmp,-120,120,143.bmp,120,120,9826.5,683099.8999999762,7810,no,SM,A,140.bmp,120,-120,681591,675577,683604,677589,,,,,7
4,0,0,0,1,8,prac,1,1,z,Fri May 29 2026 15:28:04 GMT-0500 (Central Daylight Time),702773.3999999762,O,z,1028,8,1,144.bmp,-120,-120,145.bmp,120,-120,146.bmp,-120,120,147.bmp,120,120,9842.699999988079,692930.6999999881,7810,yes,SM,A,147.bmp,120,120,691435,685408,693451,687420,,,,,8
4,0,0,0,1,1,test,1,1,m,Fri May 29 2026 15:28:04 GMT-0500 (Central Daylight Time),776600.1999999881,O,m,1952,1,1,148.bmp,-120,-120,149.bmp,120,-120,150.bmp,-120,120,143.bmp,120,120,10011.599999964237,766588.6000000238,7810,no,SM,A,150.bmp,120,120,691435,685408,693451,687420,765095.0,759066.0,767111.0,761081.0,1
2,0,1,0,0,1,test,1,0,m,Fri May 29 2026 15:28:04 GMT-0500 (Central Daylight Time),785514.1000000238,O,z,866,2,1,101.bmp,-120,-120,102.bmp,120,-120,103.bmp,-120,120,104.bmp,120,120,8910.400000035763,776603.6999999881,7810,no,SM,A,103.bmp,120,-120,691435,685408,693451,687420,775109.0,769081.0,777125.0,771093.0,2
1,1,0,0,0,1,test,1,0,z,Fri May 29 2026 15:28:04 GMT-0500 (Central Daylight Time),795577.5,O,None,2015,3,1,105.bmp,-120,-120,106.bmp,120,-120,107.bmp,-120,120,108.bmp,120,120,10060.399999976158,785517.1000000238,7810,yes,SM,A,105.bmp,-120,-120,691435,685408,693451,687420,784022.0,777994.0,786039.0,780009.0,3
3,0,0,1,0,2,test,1,1,m,Fri May 29 2026 15:28:04 GMT-0500 (Central Daylight Time),804591.3999999762,O,m,968,4,1,109.bmp,-120,-120,110.bmp,120,-120,111.bmp,-120,120,112.bmp,120,120,9010.0,795581.3999999762,7810,no,SM,A,109.bmp,-120,120,691435,685408,693451,687420,794086.0,788059.0,796087.0,790071.0,4
2,0,1,0,0,2,test,1,0,z,Fri May 29 2026 15:28:04 GMT-0500 (Central Daylight Time),813738.0,O,m,981,5,1,113.bmp,-120,-120,114.bmp,120,-120,115.bmp,-120,120,116.bmp,120,120,9142.100000023842,804595.8999999762,7810,yes,SM,A,114.bmp,120,-120,691435,685408,693451,687420,803216.0,797073.0,805233.0,799215.0,5
3,0,0,1,0,3,test,1,1,z,Fri May 29 2026 15:28:04 GMT-0500 (Central Daylight Time),822685.6000000238,O,z,896,6,1,117.bmp,-120,-120,118.bmp,120,-120,119.bmp,-120,120,120.bmp,120,120,8943.300000011921,813742.3000000119,7810,yes,SM,A,119.bmp,-120,120,691435,685408,693451,687420,812247.0,806220.0,814263.0,808231.0,6
4,0,0,0,1,4,test,1,1,z,Fri May 29 2026 15:28:04 GMT-0500 (Central Daylight Time),831833.0,O,z,1092,7,1,121.bmp,-120,-120,122.bmp,120,-120,123.bmp,-120,120,124.bmp,120,120,9143.699999988079,822689.3000000119,7810,yes,SM,A,124.bmp,120,120,691435,685408,693451,687420,821194.0,815167.0,823211.0,817180.0,7
2,0,1,0,0,5,test,1,1,m,Fri May 29 2026 15:28:04 GMT-0500 (Central Daylight Time),840930.0,O,m,1041,8,1,125.bmp,-120,-120,126.bmp,120,-120,127.bmp,-120,120,128.bmp,120,120,9093.800000011921,831836.1999999881,7810,no,SM,A,125.bmp,120,-120,691435,685408,693451,687420,830341.0,824313.0,832358.0,826326.0,8
3,0,0,1,0,5,test,1,0,m,Fri May 29 2026 15:28:04 GMT-0500 (Central Daylight Time),850193.8000000119,O,z,1200,9,1,129.bmp,-120,-120,130.bmp,120,-120,131.bmp,-120,120,132.bmp,120,120,9260.0,840933.8000000119,7810,no,SM,A,130.bmp,-120,120,691435,685408,693451,687420,839438.0,833411.0,841455.0,835424.0,9
4,0,0,0,1,5,test,1,0,z,Fri May 29 2026 15:28:04 GMT-0500 (Central Daylight Time),859923.8999999762,O,m,1672,10,1,137.bmp,-120,-120,138.bmp,120,-120,139.bmp,-120,120,140.bmp,120,120,9726.799999952316,850197.1000000238,7810,yes,SM,A,140.bmp,120,120,691435,685408,693451,687420,848702.0,842674.0,850718.0,844687.0,10
3,0,0,1,0,6,test,1,1,z,Fri May 29 2026 15:28:04 GMT-0500 (Central Daylight Time),869804.1000000238,O,z,1830,11,1,133.bmp,-120,-120,134.bmp,120,-120,135.bmp,-120,120,136.bmp,120,120,9876.400000035763,859927.6999999881,7810,yes,SM,A,135.bmp,-120,120,691435,685408,693451,687420,858433.0,852405.0,860449.0,854417.0,11
2,0,1,0,0,7,test,1,1,m,Fri May 29 2026 15:28:04 GMT-0500 (Central Daylight Time),878834.6000000238,O,m,966,12,1,141.bmp,-120,-120,142.bmp,120,-120,143.bmp,-120,120,144.bmp,120,120,9026.5,869808.1000000238,7810,no,SM,A,141.bmp,120,-120,691435,685408,693451,687420,868313.0,862285.0,870329.0,864298.0,12
3,0,0,1,0,8,test,1,1,m,Fri May 29 2026 15:28:04 GMT-0500 (Central Daylight Time),887898.5,O,m,1014,13,1,145.bmp,-120,-120,146.bmp,120,-120,147.bmp,-120,120,148.bmp,120,120,9060.800000011921,878837.6999999881,7810,no,SM,A,146.bmp,-120,120,691435,685408,693451,687420,877344.0,871315.0,879360.0,873328.0,13
1,1,0,0,0,9,test,1,1,z,Fri May 29 2026 15:28:04 GMT-0500 (Central Daylight Time),897062.5,O,z,1104,14,1,149.bmp,-120,-120,150.bmp,120,-120,104.bmp,-120,120,101.bmp,120,120,9160.800000011921,887901.6999999881,7810,yes,SM,A,149.bmp,-120,-120,691435,685408,693451,687420,886407.0,880379.0,888423.0,882392.0,14
4,0,0,0,1,10,test,1,1,m,Fri May 29 2026 15:28:04 GMT-0500 (Central Daylight Time),906142.8000000119,O,m,1028,15,1,110.bmp,-120,-120,111.bmp,120,-120,112.bmp,-120,120,113.bmp,120,120,9076.900000035763,897065.8999999762,7810,no,SM,A,111.bmp,120,120,691435,685408,693451,687420,895571.0,889543.0,897587.0,891556.0,15
1,1,0,0,0,11,test,1,1,m,Fri May 29 2026 15:28:04 GMT-0500 (Central Daylight Time),914973.1999999881,O,m,771,16,1,102.bmp,-120,-120,103.bmp,120,-120,104.bmp,-120,120,105.bmp,120,120,8825.699999988079,906147.5,7810,no,SM,A,105.bmp,-120,-120,691435,685408,693451,687420,904652.0,898625.0,906668.0,900636.0,16
3,0,0,1,0,11,test,1,0,m,Fri May 29 2026 15:28:04 GMT-0500 (Central Daylight Time),923570.6999999881,O,z,540,17,1,122.bmp,-120,-120,123.bmp,120,-120,124.bmp,-120,120,125.bmp,120,120,8593.0,914977.6999999881,7810,no,SM,A,122.bmp,-120,120,691435,685408,693451,687420,913483.0,907455.0,915498.0,909467.0,17
1,1,0,0,0,11,test,1,0,z,Fri May 29 2026 15:28:04 GMT-0500 (Central Daylight Time),932384.6999999881,O,m,752,18,1,106.bmp,-120,-120,107.bmp,120,-120,108.bmp,-120,120,109.bmp,120,120,8810.399999976158,923574.3000000119,7810,yes,SM,A,106.bmp,-120,-120,691435,685408,693451,687420,922079.0,916052.0,924095.0,918064.0,18
2,0,1,0,0,11,test,1,0,z,Fri May 29 2026 15:28:04 GMT-0500 (Central Daylight Time),941331.6999999881,O,m,898,19,1,126.bmp,-120,-120,127.bmp,120,-120,128.bmp,-120,120,129.bmp,120,120,8944.0,932387.6999999881,7810,yes,SM,A,127.bmp,120,-120,691435,685408,693451,687420,930893.0,924865.0,932909.0,926878.0,19
3,0,0,1,0,11,test,1,0,z,Fri May 29 2026 15:28:04 GMT-0500 (Central Daylight Time),950412.0,O,m,1031,20,1,130.bmp,-120,-120,131.bmp,120,-120,132.bmp,-120,120,133.bmp,120,120,9076.100000023842,941335.8999999762,7810,yes,SM,A,132.bmp,-120,120,691435,685408,693451,687420,939840.0,933813.0,941856.0,935825.0,20
1,1,0,0,0,12,test,1,1,m,Fri May 29 2026 15:28:04 GMT-0500 (Central Daylight Time),959575.8999999762,O,m,1102,21,1,114.bmp,-120,-120,115.bmp,120,-120,116.bmp,-120,120,117.bmp,120,120,9160.699999988079,950415.1999999881,7810,no,SM,A,116.bmp,-120,-120,691435,685408,693451,687420,948921.0,942892.0,950937.0,944906.0,21
4,0,0,0,1,12,test,1,0,z,Fri May 29 2026 15:28:04 GMT-0500 (Central Daylight Time),968740.1000000238,O,m,1106,22,1,118.bmp,-120,-120,119.bmp,120,-120,120.bmp,-120,120,121.bmp,120,120,9160.5,959579.6000000238,7810,yes,SM,A,121.bmp,120,120,691435,685408,693451,687420,958084.0,952057.0,960101.0,954070.0,22
1,1,0,0,0,12,test,1,0,m,Fri May 29 2026 15:28:04 GMT-0500 (Central Daylight Time),977620.3999999762,O,z,822,23,1,134.bmp,-120,-120,135.bmp,120,-120,136.bmp,-120,120,137.bmp,120,120,8876.599999964237,968743.8000000119,7810,no,SM,A,137.bmp,-120,-120,691435,685408,693451,687420,967249.0,961221.0,969265.0,963233.0,23
2,0,1,0,0,12,test,1,0,z,Fri May 29 2026 15:28:04 GMT-0500 (Central Daylight Time),986617.5,O,m,941,24,1,142.bmp,-120,-120,143.bmp,120,-120,144.bmp,-120,120,145.bmp,120,120,8993.199999988079,977624.3000000119,7810,yes,SM,A,143.bmp,120,-120,691435,685408,693451,687420,976129.0,970102.0,978145.0,972114.0,24
4,0,0,0,1,13,test,1,1,m,Fri May 29 2026 15:28:04 GMT-0500 (Central Daylight Time),995764.8000000119,O,m,1097,25,1,146.bmp,-120,-120,147.bmp,120,-120,148.bmp,-120,120,149.bmp,120,120,9143.699999988079,986621.1000000238,7810,no,SM,A,148.bmp,120,120,691435,685408,693451,687420,985126.0,979098.0,987142.0,981111.0,25
1,1,0,0,0,14,test,1,1,z,Fri May 29 2026 15:28:04 GMT-0500 (Central Daylight Time),1004345.6000000238,O,z,517,26,1,138.bmp,-120,-120,139.bmp,120,-120,140.bmp,-120,120,141.bmp,120,120,8576.5,995769.1000000238,7810,yes,SM,A,138.bmp,-120,-120,691435,685408,693451,687420,994273.0,988246.0,996289.0,990258.0,26
4,0,0,0,1,15,test,1,1,z,Fri May 29 2026 15:28:04 GMT-0500 (Central Daylight Time),1013575.6000000238,O,z,1169,27,1,150.bmp,-120,-120,111.bmp,120,-120,101.bmp,-120,120,102.bmp,120,120,9226.400000035763,1004349.1999999881,7810,yes,SM,A,102.bmp,120,120,691435,685408,693451,687420,1002854.0,996826.0,1004870.0,998839.0,27
3,0,0,1,0,16,test,1,1,m,Fri May 29 2026 15:28:04 GMT-0500 (Central Daylight Time),1022490.8999999762,O,m,858,28,1,103.bmp,-120,-120,104.bmp,120,-120,105.bmp,-120,120,106.bmp,120,120,8911.699999988079,1013579.1999999881,7810,no,SM,A,103.bmp,-120,120,691435,685408,693451,687420,1012085.0,1006056.0,1014101.0,1008069.0,28
2,0,1,0,0,17,test,1,1,z,Fri May 29 2026 15:28:04 GMT-0500 (Central Daylight Time),1031170.3999999762,O,z,616,29,1,107.bmp,-120,-120,108.bmp,120,-120,109.bmp,-120,120,110.bmp,120,120,8676.199999988079,1022494.1999999881,7810,yes,SM,A,108.bmp,120,-120,691435,685408,693451,687420,1020998.0,1014971.0,1023016.0,1016983.0,29
3,0,0,1,0,18,test,1,1,z,Fri May 29 2026 15:28:04 GMT-0500 (Central Daylight Time),1039867.6000000238,O,z,640,30,1,111.bmp,-120,-120,112.bmp,120,-120,113.bmp,-120,120,114.bmp,120,120,8693.300000011921,1031174.3000000119,7810,yes,SM,A,113.bmp,-120,120,691435,685408,693451,687420,1029679.0,1023652.0,1031695.0,1025664.0,30
1,1,0,0,0,19,test,1,1,z,Fri May 29 2026 15:28:04 GMT-0500 (Central Daylight Time),1048664.699999988,O,z,733,31,1,115.bmp,-120,-120,116.bmp,120,-120,117.bmp,-120,120,118.bmp,120,120,8793.399999976158,1039871.3000000119,7810,yes,SM,A,115.bmp,-120,-120,691435,685408,693451,687420,1038376.0,1032349.0,1040393.0,1034361.0,31
2,0,1,0,0,20,test,1,1,m,Fri May 29 2026 15:28:04 GMT-0500 (Central Daylight Time),1057962.0,O,m,1242,32,1,119.bmp,-120,-120,120.bmp,120,-120,121.bmp,-120,120,122.bmp,120,120,9294.0,1048668.0,7810,no,SM,A,119.bmp,120,-120,691435,685408,693451,687420,1047173.0,1041145.0,1049189.0,1043159.0,32
4,0,0,0,1,20,test,1,0,z,Fri May 29 2026 15:28:04 GMT-0500 (Central Daylight Time),1066975.6000000238,O,m,881,33,1,131.bmp,-120,-120,132.bmp,120,-120,133.bmp,-120,120,134.bmp,120,120,9009.400000035763,1057966.199999988,7810,yes,SM,A,134.bmp,120,120,691435,685408,693451,687420,1056471.0,1050443.0,1058566.0,1052455.0,33
2,0,1,0,0,21,test,1,1,z,Fri May 29 2026 15:28:04 GMT-0500 (Central Daylight Time),1075573.0,O,z,547,34,1,123.bmp,-120,-120,124.bmp,120,-120,125.bmp,-120,120,126.bmp,120,120,8594.100000023842,1066978.8999999762,7810,yes,SM,A,124.bmp,120,-120,691435,685408,693451,687420,1065484.0,1059456.0,1067500.0,1061469.0,34
4,0,0,0,1,22,test,1,1,m,Fri May 29 2026 15:28:04 GMT-0500 (Central Daylight Time),1084587.0,O,m,950,35,1,127.bmp,-120,-120,128.bmp,120,-120,129.bmp,-120,120,130.bmp,120,120,9010.300000011921,1075576.699999988,7810,no,SM,A,129.bmp,120,120,691435,685408,693451,687420,1074082.0,1068054.0,1076098.0,1070067.0,35
3,0,0,1,0,23,test,1,1,m,Fri May 29 2026 15:28:04 GMT-0500 (Central Daylight Time),1094000.699999988,O,m,1350,36,1,135.bmp,-120,-120,136.bmp,120,-120,137.bmp,-120,120,138.bmp,120,120,9410.899999976158,1084589.800000012,7810,no,SM,A,135.bmp,-120,120,691435,685408,693451,687420,1083095.0,1077067.0,1085112.0,1079080.0,36
1,1,0,0,0,24,test,1,1,m,Fri May 29 2026 15:28:04 GMT-0500 (Central Daylight Time),1102731.199999988,O,m,681,37,1,139.bmp,-120,-120,140.bmp,120,-120,141.bmp,-120,120,142.bmp,120,120,8726.099999964237,1094005.1000000238,7810,no,SM,A,140.bmp,-120,-120,691435,685408,693451,687420,1092509.0,1086482.0,1094525.0,1088494.0,37
2,0,1,0,0,25,test,1,1,m,Fri May 29 2026 15:28:04 GMT-0500 (Central Daylight Time),1111661.6000000238,O,m,871,38,1,143.bmp,-120,-120,144.bmp,120,-120,145.bmp,-120,120,146.bmp,120,120,8927.300000011921,1102734.300000012,7810,no,SM,A,145.bmp,120,-120,691435,685408,693451,687420,1101240.0,1095211.0,1103256.0,1097224.0,38
4,0,0,0,1,25,test,1,0,z,Fri May 29 2026 15:28:04 GMT-0500 (Central Daylight Time),1120608.8999999762,O,m,891,39,1,147.bmp,-120,-120,148.bmp,120,-120,149.bmp,-120,120,150.bmp,120,120,8944.099999964237,1111664.800000012,7810,yes,SM,A,150.bmp,120,120,691435,685408,693451,687420,1110170.0,1104142.0,1112187.0,1106155.0,39
3,0,0,1,0,25,test,1,0,m,Fri May 29 2026 15:28:04 GMT-0500 (Central Daylight Time),1129356.199999988,O,z,689,40,1,104.bmp,-120,-120,105.bmp,120,-120,106.bmp,-120,120,107.bmp,120,120,8744.300000011921,1120611.8999999762,7810,no,SM,A,105.bmp,-120,120,691435,685408,693451,687420,1119117.0,1113089.0,1121134.0,1115102.0,40
1,1,0,0,0,26,test,1,1,z,Fri May 29 2026 15:28:04 GMT-0500 (Central Daylight Time),1137903.5,O,z,493,41,1,108.bmp,-120,-120,109.bmp,120,-120,110.bmp,-120,120,111.bmp,120,120,8544.0,1129359.5,7810,yes,SM,A,108.bmp,-120,-120,691435,685408,693451,687420,1127865.0,1121837.0,1129881.0,1123849.0,41
4,0,0,0,1,26,test,1,0,z,Fri May 29 2026 15:28:04 GMT-0500 (Central Daylight Time),1146517.3999999762,O,m,563,42,1,112.bmp,-120,-120,113.bmp,120,-120,114.bmp,-120,120,115.bmp,120,120,8611.0,1137906.3999999762,7810,yes,SM,A,115.bmp,120,120,691435,685408,693451,687420,1136412.0,1130384.0,1138428.0,1132397.0,42
1,1,0,0,0,27,test,1,1,z,Fri May 29 2026 15:28:04 GMT-0500 (Central Daylight Time),1155198.300000012,O,z,628,43,1,116.bmp,-120,-120,117.bmp,120,-120,118.bmp,-120,120,119.bmp,120,120,8677.699999988079,1146520.6000000238,7810,yes,SM,A,116.bmp,-120,-120,691435,685408,693451,687420,1145026.0,1138998.0,1147043.0,1141011.0,43
4,0,0,0,1,28,test,1,1,m,Fri May 29 2026 15:28:04 GMT-0500 (Central Daylight Time),1164528.3999999762,O,m,1268,44,1,104.bmp,-120,-120,101.bmp,120,-120,102.bmp,-120,120,103.bmp,120,120,9327.299999952316,1155201.1000000238,7810,no,SM,A,104.bmp,120,120,691435,685408,693451,687420,1153707.0,1147678.0,1155723.0,1149691.0,44
1,1,0,0,0,28,test,1,0,m,Fri May 29 2026 15:28:04 GMT-0500 (Central Daylight Time),1173558.699999988,O,z,978,45,1,128.bmp,-120,-120,129.bmp,120,-120,130.bmp,-120,120,131.bmp,120,120,9026.899999976158,1164531.800000012,7810,no,SM,A,131.bmp,-120,-120,691435,685408,693451,687420,1163038.0,1157009.0,1165053.0,1159022.0,45
1,1,0,0,0,29,test,1,1,m,Fri May 29 2026 15:28:04 GMT-0500 (Central Daylight Time),1182422.699999988,O,m,803,46,1,120.bmp,-120,-120,121.bmp,120,-120,122.bmp,-120,120,123.bmp,120,120,8860.599999964237,1173562.1000000238,7810,no,SM,A,121.bmp,-120,-120,691435,685408,693451,687420,1172068.0,1166039.0,1174084.0,1168053.0,46
3,0,0,1,0,29,test,1,0,z,Fri May 29 2026 15:28:04 GMT-0500 (Central Daylight Time),1191286.8999999762,O,m,811,47,1,124.bmp,-120,-120,125.bmp,120,-120,126.bmp,-120,120,127.bmp,120,120,8860.899999976158,1182426.0,7810,yes,SM,A,126.bmp,-120,120,691435,685408,693451,687420,1180931.0,1174903.0,1182948.0,1176917.0,47
3,0,0,1,0,30,test,1,1,z,Fri May 29 2026 15:28:04 GMT-0500 (Central Daylight Time),1199967.300000012,O,z,628,48,1,140.bmp,-120,-120,141.bmp,120,-120,142.bmp,-120,120,143.bmp,120,120,8677.5,1191289.800000012,7810,yes,SM,A,142.bmp,-120,120,691435,685408,693451,687420,1189795.0,1183767.0,1191811.0,1185780.0,48
2,0,1,0,0,30,test,1,0,z,Fri May 29 2026 15:28:04 GMT-0500 (Central Daylight Time),1208764.6000000238,O,m,747,49,1,136.bmp,-120,-120,137.bmp,120,-120,138.bmp,-120,120,139.bmp,120,120,8792.5,1199972.1000000238,7810,yes,SM,A,137.bmp,120,-120,691435,685408,693451,687420,1198476.0,1192449.0,1200492.0,1194461.0,49
3,0,0,1,0,31,test,1,1,m,Fri May 29 2026 15:28:04 GMT-0500 (Central Daylight Time),1217645.199999988,O,m,822,50,1,132.bmp,-120,-120,133.bmp,120,-120,134.bmp,-120,120,135.bmp,120,120,8877.399999976158,1208767.800000012,7810,no,SM,A,132.bmp,-120,120,691435,685408,693451,687420,1207273.0,1201245.0,1209289.0,1203258.0,50
2,0,1,0,0,31,test,1,0,z,Fri May 29 2026 15:28:04 GMT-0500 (Central Daylight Time),1226475.699999988,O,m,772,51,1,144.bmp,-120,-120,145.bmp,120,-120,146.bmp,-120,120,147.bmp,120,120,8826.800000011921,1217648.8999999762,7810,yes,SM,A,145.bmp,120,-120,691435,685408,693451,687420,1216154.0,1210126.0,1218171.0,1212139.0,51
4,0,0,0,1,32,test,1,1,m,Fri May 29 2026 15:28:04 GMT-0500 (Central Daylight Time),1235789.3999999762,O,m,1262,52,1,148.bmp,-120,-120,149.bmp,120,-120,150.bmp,-120,120,131.bmp,120,120,9309.899999976158,1226479.5,7810,no,SM,A,148.bmp,120,120,691435,685408,693451,687420,1224984.0,1218957.0,1227001.0,1220969.0,52
3,0,0,1,0,32,test,1,0,z,Fri May 29 2026 15:28:04 GMT-0500 (Central Daylight Time),1244853.300000012,O,m,1013,53,1,101.bmp,-120,-120,102.bmp,120,-120,103.bmp,-120,120,104.bmp,120,120,9060.699999988079,1235792.6000000238,7810,yes,SM,A,103.bmp,-120,120,691435,685408,693451,687420,1234299.0,1228270.0,1236314.0,1230283.0,53
1,1,0,0,0,33,test,1,1,m,Fri May 29 2026 15:28:04 GMT-0500 (Central Daylight Time),1254233.8999999762,O,m,1317,54,1,105.bmp,-120,-120,106.bmp,120,-120,107.bmp,-120,120,108.bmp,120,120,9377.299999952316,1244856.6000000238,7810,no,SM,A,107.bmp,-120,-120,691435,685408,693451,687420,1243362.0,1237334.0,1245378.0,1239347.0,54
4,0,0,0,1,33,test,1,0,z,Fri May 29 2026 15:28:04 GMT-0500 (Central Daylight Time),1263230.8999999762,O,m,944,55,1,109.bmp,-120,-120,110.bmp,120,-120,111.bmp,-120,120,112.bmp,120,120,8993.899999976158,1254237.0,7810,yes,SM,A,112.bmp,120,120,691435,685408,693451,687420,1252742.0,1246714.0,1254759.0,1248727.0,55
2,0,1,0,0,33,test,1,0,m,Fri May 29 2026 15:28:04 GMT-0500 (Central Daylight Time),1272211.5,O,z,923,56,1,113.bmp,-120,-120,114.bmp,120,-120,115.bmp,-120,120,116.bmp,120,120,8977.5,1263234.0,7810,no,SM,A,113.bmp,120,-120,691435,685408,693451,687420,1261739.0,1255711.0,1263756.0,1257724.0,56
4,0,0,0,1,34,test,1,1,m,Fri May 29 2026 15:28:04 GMT-0500 (Central Daylight Time),1281308.6000000238,O,m,1047,57,1,117.bmp,-120,-120,118.bmp,120,-120,119.bmp,-120,120,120.bmp,120,120,9093.200000047684,1272215.3999999762,7810,no,SM,A,118.bmp,120,120,691435,685408,693451,687420,1270733.0,1264693.0,1272736.0,1266705.0,57
3,0,0,1,0,34,test,1,0,z,Fri May 29 2026 15:28:04 GMT-0500 (Central Daylight Time),1290272.199999988,O,m,909,58,1,121.bmp,-120,-120,122.bmp,120,-120,123.bmp,-120,120,124.bmp,120,120,8959.800000011921,1281312.3999999762,7810,yes,SM,A,123.bmp,-120,120,691435,685408,693451,687420,1279817.0,1273790.0,1281833.0,1275802.0,58
2,0,1,0,0,35,test,1,1,m,Fri May 29 2026 15:28:04 GMT-0500 (Central Daylight Time),1299569.6000000238,O,m,1233,59,1,125.bmp,-120,-120,126.bmp,120,-120,127.bmp,-120,120,128.bmp,120,120,9293.700000047684,1290275.8999999762,7810,no,SM,A,128.bmp,120,-120,691435,685408,693451,687420,1288781.0,1282753.0,1290797.0,1284766.0,59
1,1,0,0,0,36,test,1,1,z,Fri May 29 2026 15:28:04 GMT-0500 (Central Daylight Time),1308233.3999999762,O,z,559,60,1,129.bmp,-120,-120,130.bmp,120,-120,131.bmp,-120,120,132.bmp,120,120,8660.799999952316,1299572.6000000238,7810,yes,SM,A,129.bmp,-120,-120,691435,685408,693451,687420,1298128.0,1292050.0,1300144.0,1294125.0,60
2,0,1,0,0,36,test,1,0,z,Fri May 29 2026 15:28:04 GMT-0500 (Central Daylight Time),1317114.0,O,m,833,61,1,133.bmp,-120,-120,134.bmp,120,-120,135.bmp,-120,120,136.bmp,120,120,8877.300000011921,1308236.699999988,7810,yes,SM,A,134.bmp,120,-120,691435,685408,693451,687420,1306742.0,1300714.0,1308758.0,1302727.0,61
4,0,0,0,1,36,test,1,0,z,Fri May 29 2026 15:28:04 GMT-0500 (Central Daylight Time),1326128.0,O,m,856,62,1,141.bmp,-120,-120,142.bmp,120,-120,143.bmp,-120,120,144.bmp,120,120,9010.699999988079,1317117.300000012,7810,yes,SM,A,144.bmp,120,120,691435,685408,693451,687420,1315623.0,1309594.0,1317735.0,1311607.0,62
1,1,0,0,0,37,test,1,1,m,Fri May 29 2026 15:28:04 GMT-0500 (Central Daylight Time),1335241.6000000238,O,m,1065,63,1,145.bmp,-120,-120,146.bmp,120,-120,147.bmp,-120,120,148.bmp,120,120,9110.800000011921,1326130.800000012,7810,no,SM,A,145.bmp,-120,120,691435,685408,693451,687420,1324637.0,1318608.0,1326653.0,1320621.0,63
2,0,1,0,0,38,test,1,1,z,Fri May 29 2026 15:28:04 GMT-0500 (Central Daylight Time),1344105.3999999762,O,z,801,64,1,149.bmp,-120,-120,150.bmp,120,-120,112.bmp,-120,120,101.bmp,120,120,8860.599999964237,1335244.800000012,7810,yes,SM,A,150.bmp,120,-120,691435,685408,693451,687420,1333750.0,1327722.0,1335766.0,1329735.0,64
4,0,0,0,1,39,test,1,1,m,Fri May 29 2026 15:28:04 GMT-0500 (Central Daylight Time),1352953.0,O,m,785,65,1,102.bmp,-120,-120,103.bmp,120,-120,104.bmp,-120,120,105.bmp,120,120,8844.100000023842,1344108.8999999762,7810,no,SM,A,104.bmp,120,120,691435,685408,693451,687420,1342614.0,1336586.0,1344630.0,1338599.0,65
3,0,0,1,0,40,test,1,1,m,Fri May 29 2026 15:28:04 GMT-0500 (Central Daylight Time),1361916.3999999762,O,m,905,66,1,106.bmp,-120,-120,107.bmp,120,-120,108.bmp,-120,120,109.bmp,120,120,8960.299999952316,1352956.1000000238,7810,no,SM,A,109.bmp,-120,120,691435,685408,693451,687420,1351461.0,1345433.0,1353478.0,1347446.0,66
2,0,1,0,0,41,test,1,1,m,Fri May 29 2026 15:28:04 GMT-0500 (Central Daylight Time),1370947.1000000238,O,m,974,67,1,137.bmp,-120,-120,138.bmp,120,-120,139.bmp,-120,120,140.bmp,120,120,9027.400000035763,1361919.699999988,7810,no,SM,A,139.bmp,120,-120,691435,685408,693451,687420,1360425.0,1354397.0,1362441.0,1356410.0,67
3,0,0,1,0,42,test,1,1,z,Fri May 29 2026 15:28:04 GMT-0500 (Central Daylight Time),1380527.300000012,O,z,1527,68,1,110.bmp,-120,-120,111.bmp,120,-120,112.bmp,-120,120,113.bmp,120,120,9576.800000011921,1370950.5,7810,yes,SM,A,112.bmp,-120,120,691435,685408,693451,687420,1369456.0,1363428.0,1371472.0,1365440.0,68
1,1,0,0,0,43,test,1,1,m,Fri May 29 2026 15:28:04 GMT-0500 (Central Daylight Time),1389591.3999999762,O,m,1003,69,1,114.bmp,-120,-120,115.bmp,120,-120,116.bmp,-120,120,117.bmp,120,120,9060.699999988079,1380530.699999988,7810,no,SM,A,115.bmp,-120,-120,691435,685408,693451,687420,1379036.0,1373008.0,1381052.0,1375022.0,69
2,0,1,0,0,44,test,1,1,m,Fri May 29 2026 15:28:04 GMT-0500 (Central Daylight Time),1399238.199999988,O,m,1587,70,1,118.bmp,-120,-120,119.bmp,120,-120,120.bmp,-120,120,121.bmp,120,120,9642.899999976158,1389595.300000012,7810,no,SM,A,120.bmp,120,-120,691435,685408,693451,687420,1388100.0,1382073.0,1390116.0,1384085.0,70
4,0,0,0,1,44,test,1,0,z,Fri May 29 2026 15:28:04 GMT-0500 (Central Daylight Time),1408268.8999999762,O,m,971,71,1,122.bmp,-120,-120,123.bmp,120,-120,124.bmp,-120,120,125.bmp,120,120,9027.5,1399241.3999999762,7810,yes,SM,A,125.bmp,120,120,691435,685408,693451,687420,1397747.0,1391719.0,1399763.0,1393732.0,71
1,1,0,0,0,45,test,1,1,z,Fri May 29 2026 15:28:04 GMT-0500 (Central Daylight Time),1417132.699999988,O,z,806,72,1,126.bmp,-120,-120,127.bmp,120,-120,128.bmp,-120,120,129.bmp,120,120,8860.599999964237,1408272.1000000238,7810,yes,SM,A,126.bmp,-120,-120,691435,685408,693451,687420,1406777.0,1400749.0,1408793.0,1402762.0,72
2,0,1,0,0,45,test,1,0,z,Fri May 29 2026 15:28:04 GMT-0500 (Central Daylight Time),1425996.5,O,m,805,73,1,130.bmp,-120,-120,131.bmp,120,-120,132.bmp,-120,120,133.bmp,120,120,8860.5,1417136.0,7810,yes,SM,A,131.bmp,120,-120,691435,685408,693451,687420,1415641.0,1409613.0,1417657.0,1411626.0,73
4,0,0,0,1,46,test,1,1,m,Fri May 29 2026 15:28:04 GMT-0500 (Central Daylight Time),1435243.800000012,O,m,1190,74,1,134.bmp,-120,-120,135.bmp,120,-120,136.bmp,-120,120,137.bmp,120,120,9243.300000011921,1426000.5,7810,no,SM,A,136.bmp,120,120,691435,685408,693451,687420,1424505.0,1418478.0,1426521.0,1420490.0,74
2,0,1,0,0,46,test,1,0,m,Fri May 29 2026 15:28:04 GMT-0500 (Central Daylight Time),1444307.800000012,O,z,996,75,1,138.bmp,-120,-120,139.bmp,120,-120,140.bmp,-120,120,141.bmp,120,120,9061.0,1435246.800000012,7810,no,SM,A,141.bmp,120,-120,691435,685408,693451,687420,1433752.0,1427724.0,1435779.0,1429737.0,75
1,1,0,0,0,46,test,1,0,z,Fri May 29 2026 15:28:04 GMT-0500 (Central Daylight Time),1453372.1000000238,O,m,1015,76,1,142.bmp,-120,-120,143.bmp,120,-120,144.bmp,-120,120,145.bmp,120,120,9061.300000011921,1444310.800000012,7810,yes,SM,A,142.bmp,-120,-120,691435,685408,693451,687420,1442816.0,1436788.0,1444832.0,1438801.0,76
3,0,0,1,0,46,test,1,0,z,Fri May 29 2026 15:28:04 GMT-0500 (Central Daylight Time),1462868.300000012,O,m,1439,77,1,150.bmp,-120,-120,111.bmp,120,-120,101.bmp,-120,120,102.bmp,120,120,9492.900000035763,1453375.3999999762,7810,yes,SM,A,101.bmp,-120,120,691435,685408,693451,687420,1451880.0,1445853.0,1453896.0,1447865.0,77
1,1,0,0,0,46,test,1,0,m,Fri May 29 2026 15:28:04 GMT-0500 (Central Daylight Time),1471432.3999999762,O,z,510,78,1,146.bmp,-120,-120,147.bmp,120,-120,148.bmp,-120,120,149.bmp,120,120,8560.599999964237,1462871.800000012,7810,no,SM,A,147.bmp,-120,-120,691435,685408,693451,687420,1461377.0,1455349.0,1463393.0,1457361.0,78
4,0,0,0,1,47,test,1,1,m,Fri May 29 2026 15:28:04 GMT-0500 (Central Daylight Time),1480579.300000012,O,m,1090,79,1,107.bmp,-120,-120,108.bmp,120,-120,109.bmp,-120,120,110.bmp,120,120,9143.100000023842,1471436.199999988,7810,no,SM,A,107.bmp,120,120,691435,685408,693451,687420,1469941.0,1463913.0,1471957.0,1465926.0,79
3,0,0,1,0,48,test,1,1,m,Fri May 29 2026 15:28:04 GMT-0500 (Central Daylight Time),1490043.199999988,O,m,1407,80,1,103.bmp,-120,-120,104.bmp,120,-120,105.bmp,-120,120,106.bmp,120,120,9460.800000011921,1480582.3999999762,7810,no,SM,A,106.bmp,-120,120,691435,685408,693451,687420,1479088.0,1473060.0,1481104.0,1475073.0,80
