Number,acc_sum,block,block_c,block_cond,con_img,correct,correct_response,datetime,endtime,jitter,project,response,response_time,row_sel,session_number,start_end,starttime,subject_id,task,task_vers,trial
9,0,prac,1,A,circle.png,0,m,Tue Apr 28 2026 16:49:56 GMT-0500 (Central Daylight Time),49820.89999997616,1500,I,None,1515,8,,3793.100000023842,46027.799999952316,8068,NTS,B,1
6,0,prac,1,A,circle.png,0,m,Tue Apr 28 2026 16:49:56 GMT-0500 (Central Daylight Time),54019.799999952316,1900,I,None,1515,5,,4190.200000047684,49829.59999990463,8068,NTS,B,2
8,0,prac,1,A,circle.png,0,m,Tue Apr 28 2026 16:49:56 GMT-0500 (Central Daylight Time),57118.799999952316,1600,I,z,700,7,,3093.600000023842,54025.199999928474,8068,NTS,B,3
7,0,prac,1,A,circle.png,0,m,Tue Apr 28 2026 16:49:56 GMT-0500 (Central Daylight Time),61117.39999997616,1700,I,None,1516,6,,3993.2000000476837,57124.199999928474,8068,NTS,B,4
4,0,prac,1,A,circle.png,0,z,Tue Apr 28 2026 16:49:56 GMT-0500 (Central Daylight Time),64816.0,1400,I,None,1515,4,,3692.0,61124.0,8068,NTS,B,5
4,1,prac,1,A,circle.png,1,z,Tue Apr 28 2026 16:49:56 GMT-0500 (Central Daylight Time),67715.09999990463,1400,I,z,711,4,,2893.899999976158,64821.199999928474,8068,NTS,B,6
3,1,prac,1,A,circle.png,0,z,Tue Apr 28 2026 16:49:56 GMT-0500 (Central Daylight Time),70714.39999997616,1200,I,m,1006,3,,2992.7000000476837,67721.69999992847,8068,NTS,B,7
1,1,prac,1,A,circle.png,0,z,Tue Apr 28 2026 16:49:56 GMT-0500 (Central Daylight Time),73730.09999990463,1000,I,m,1221,1,,3010.2999999523163,70719.79999995232,8068,NTS,B,8
8,1,prac,1,A,circle.png,0,m,Tue Apr 28 2026 16:49:56 GMT-0500 (Central Daylight Time),77628.89999997616,1600,I,None,1516,7,,3893.899999976158,73735.0,8068,NTS,B,9
6,1,prac,1,A,circle.png,0,m,Tue Apr 28 2026 16:49:56 GMT-0500 (Central Daylight Time),81827.79999995232,1900,I,None,1515,5,,4193.799999952316,77634.0,8068,NTS,B,10
7,2,prac,1,A,circle.png,1,m,Tue Apr 28 2026 16:49:56 GMT-0500 (Central Daylight Time),85043.29999995232,1700,I,m,728,6,,3210.600000023842,81832.69999992847,8068,NTS,B,11
2,3,prac,1,A,circle.png,1,z,Tue Apr 28 2026 16:49:56 GMT-0500 (Central Daylight Time),88692.19999992847,2000,I,z,860,2,,3643.2999999523163,85048.89999997616,8068,NTS,B,12
8,0,prac,2,A,circle.png,0,m,Tue Apr 28 2026 16:49:56 GMT-0500 (Central Daylight Time),100954.79999995232,1600,I,None,1515,7,,3894.100000023842,97060.69999992847,8068,NTS,B,1
2,1,prac,2,A,circle.png,1,z,Tue Apr 28 2026 16:49:56 GMT-0500 (Central Daylight Time),104470.69999992847,2000,I,z,717,2,,3510.2999999523163,100960.39999997616,8068,NTS,B,2
6,2,prac,2,A,circle.png,1,m,Tue Apr 28 2026 16:49:56 GMT-0500 (Central Daylight Time),108102.79999995232,1900,I,m,942,5,,3627.0,104475.79999995232,8068,NTS,B,3
4,3,prac,2,A,circle.png,1,z,Tue Apr 28 2026 16:49:56 GMT-0500 (Central Daylight Time),111385.19999992847,1400,I,z,1098,4,,3276.899999976158,108108.29999995232,8068,NTS,B,4
7,4,prac,2,A,circle.png,1,m,Tue Apr 28 2026 16:49:56 GMT-0500 (Central Daylight Time),114934.69999992847,1700,I,m,1051,6,,3544.1999999284744,111390.5,8068,NTS,B,5
6,5,prac,2,A,circle.png,1,m,Tue Apr 28 2026 16:49:56 GMT-0500 (Central Daylight Time),118450.19999992847,1900,I,m,823,5,,3510.7999999523163,114939.39999997616,8068,NTS,B,6
1,6,prac,2,A,circle.png,1,z,Tue Apr 28 2026 16:49:56 GMT-0500 (Central Daylight Time),120965.5,1000,I,z,719,1,,2509.8000000715256,118455.69999992847,8068,NTS,B,7
9,7,prac,2,A,circle.png,1,m,Tue Apr 28 2026 16:49:56 GMT-0500 (Central Daylight Time),124314.5,1500,I,m,1056,8,,3344.100000023842,120970.39999997616,8068,NTS,B,8
2,8,prac,2,A,circle.png,1,z,Tue Apr 28 2026 16:49:56 GMT-0500 (Central Daylight Time),127763.19999992847,2000,I,z,662,2,,3442.6999999284744,124320.5,8068,NTS,B,9
4,8,prac,2,A,circle.png,0,z,Tue Apr 28 2026 16:49:56 GMT-0500 (Central Daylight Time),130545.59999990463,1400,I,m,588,4,,2777.5999999046326,127768.0,8068,NTS,B,10
3,9,prac,2,A,circle.png,1,z,Tue Apr 28 2026 16:49:56 GMT-0500 (Central Daylight Time),133644.79999995232,1200,I,z,1110,3,,3094.600000023842,130550.19999992847,8068,NTS,B,11
1,10,prac,2,A,circle.png,1,z,Tue Apr 28 2026 16:49:56 GMT-0500 (Central Daylight Time),136160.69999992847,1000,I,z,723,1,,2511.0,133649.69999992847,8068,NTS,B,12
4,1,prac,1,B,triangle.png,1,m,Tue Apr 28 2026 16:49:56 GMT-0500 (Central Daylight Time),171499.59999990463,1500,I,m,945,4,,3227.0,168272.59999990463,8068,NTS,B,1
9,2,prac,1,B,triangle.png,1,z,Tue Apr 28 2026 16:49:56 GMT-0500 (Central Daylight Time),174432.0,1400,I,z,741,8,,2926.3000000715256,171505.69999992847,8068,NTS,B,2
8,3,prac,1,B,triangle.png,1,m,Tue Apr 28 2026 16:49:56 GMT-0500 (Central Daylight Time),177497.39999997616,1200,I,m,1081,7,,3060.600000023842,174436.79999995232,8068,NTS,B,3
4,4,prac,1,B,triangle.png,1,m,Tue Apr 28 2026 16:49:56 GMT-0500 (Central Daylight Time),180464.39999997616,1500,I,m,675,4,,2962.7000000476837,177501.69999992847,8068,NTS,B,4
2,5,prac,1,B,triangle.png,1,m,Tue Apr 28 2026 16:49:56 GMT-0500 (Central Daylight Time),183812.19999992847,1700,I,m,861,2,,3343.100000023842,180469.09999990463,8068,NTS,B,5
9,6,prac,1,B,triangle.png,1,z,Tue Apr 28 2026 16:49:56 GMT-0500 (Central Daylight Time),186794.79999995232,1400,I,z,797,8,,2977.7000000476837,183817.09999990463,8068,NTS,B,6
2,7,prac,1,B,triangle.png,1,m,Tue Apr 28 2026 16:49:56 GMT-0500 (Central Daylight Time),190543.59999990463,1700,I,m,1250,2,,3743.7999999523163,186799.79999995232,8068,NTS,B,7
7,8,prac,1,B,triangle.png,1,z,Tue Apr 28 2026 16:49:56 GMT-0500 (Central Daylight Time),193942.59999990463,2000,I,z,609,6,,3394.1999999284744,190548.39999997616,8068,NTS,B,8
7,9,prac,1,B,triangle.png,1,z,Tue Apr 28 2026 16:49:56 GMT-0500 (Central Daylight Time),197391.39999997616,2000,I,z,650,6,,3444.0,193947.39999997616,8068,NTS,B,9
1,10,prac,1,B,triangle.png,1,z,Tue Apr 28 2026 16:49:56 GMT-0500 (Central Daylight Time),201390.0,1900,I,z,1308,1,,3993.8000000715256,197396.19999992847,8068,NTS,B,10
3,11,prac,1,B,triangle.png,1,z,Tue Apr 28 2026 16:49:56 GMT-0500 (Central Daylight Time),204872.39999997616,1600,I,z,1099,3,,3477.2000000476837,201395.19999992847,8068,NTS,B,11
6,12,prac,1,B,triangle.png,1,m,Tue Apr 28 2026 16:49:56 GMT-0500 (Central Daylight Time),207455.09999990463,1000,I,m,784,5,,2578.0999999046326,204877.0,8068,NTS,B,12
9,0,test,1,A,circle.png,0,m,Tue Apr 28 2026 16:49:56 GMT-0500 (Central Daylight Time),227499.79999995232,1500,I,None,1516,8,,3031.2999999523163,224468.5,8068,NTS,B,1
3,1,test,1,A,circle.png,1,z,Tue Apr 28 2026 16:49:56 GMT-0500 (Central Daylight Time),229499.09999990463,1200,I,z,781,3,,1995.0999999046326,227504.0,8068,NTS,B,2
1,2,test,1,A,circle.png,1,z,Tue Apr 28 2026 16:49:56 GMT-0500 (Central Daylight Time),231197.69999992847,1000,I,z,670,1,,1695.0,229502.69999992847,8068,NTS,B,3
6,3,test,1,A,circle.png,1,m,Tue Apr 28 2026 16:49:56 GMT-0500 (Central Daylight Time),233913.0,1900,I,m,783,5,,2711.8000000715256,231201.19999992847,8068,NTS,B,4
6,4,test,1,A,circle.png,1,m,Tue Apr 28 2026 16:49:56 GMT-0500 (Central Daylight Time),236462.39999997616,1900,I,m,619,5,,2545.8000000715256,233916.59999990463,8068,NTS,B,5
4,5,test,1,A,circle.png,1,z,Tue Apr 28 2026 16:49:56 GMT-0500 (Central Daylight Time),238544.89999997616,1400,I,z,658,4,,2078.399999976158,236466.5,8068,NTS,B,6
7,6,test,1,A,circle.png,1,m,Tue Apr 28 2026 16:49:56 GMT-0500 (Central Daylight Time),241044.0,1700,I,m,779,6,,2495.5,238548.5,8068,NTS,B,7
4,7,test,1,A,circle.png,1,z,Tue Apr 28 2026 16:49:56 GMT-0500 (Central Daylight Time),243510.09999990463,1400,I,z,1044,4,,2462.5999999046326,241047.5,8068,NTS,B,8
3,8,test,1,A,circle.png,1,z,Tue Apr 28 2026 16:49:56 GMT-0500 (Central Daylight Time),245393.69999992847,1200,I,z,658,3,,1880.0,243513.69999992847,8068,NTS,B,9
3,9,test,1,A,circle.png,1,z,Tue Apr 28 2026 16:49:56 GMT-0500 (Central Daylight Time),247576.39999997616,1200,I,z,960,3,,2179.2000000476837,245397.19999992847,8068,NTS,B,10
1,10,test,1,A,circle.png,1,z,Tue Apr 28 2026 16:49:56 GMT-0500 (Central Daylight Time),249475.19999992847,1000,I,z,881,1,,1895.1999999284744,247580.0,8068,NTS,B,11
9,11,test,1,A,circle.png,1,m,Tue Apr 28 2026 16:49:56 GMT-0500 (Central Daylight Time),251724.29999995232,1500,I,m,721,8,,2245.5,249478.79999995232,8068,NTS,B,12
8,12,test,1,A,circle.png,1,m,Tue Apr 28 2026 16:49:56 GMT-0500 (Central Daylight Time),254106.59999990463,1600,I,m,764,7,,2378.7999999523163,251727.79999995232,8068,NTS,B,13
2,13,test,1,A,circle.png,1,z,Tue Apr 28 2026 16:49:56 GMT-0500 (Central Daylight Time),257189.29999995232,2000,I,z,1054,2,,3079.399999976158,254109.89999997616,8068,NTS,B,14
4,14,test,1,A,circle.png,1,z,Tue Apr 28 2026 16:49:56 GMT-0500 (Central Daylight Time),259638.39999997616,1400,I,z,1028,4,,2445.5,257192.89999997616,8068,NTS,B,15
8,15,test,1,A,circle.png,1,m,Tue Apr 28 2026 16:49:56 GMT-0500 (Central Daylight Time),262237.89999997616,1600,I,m,970,7,,2595.600000023842,259642.29999995232,8068,NTS,B,16
6,16,test,1,A,circle.png,1,m,Tue Apr 28 2026 16:49:56 GMT-0500 (Central Daylight Time),265136.5,1900,I,m,966,5,,2894.8000000715256,262241.6999999285,8068,NTS,B,17
9,17,test,1,A,circle.png,1,m,Tue Apr 28 2026 16:49:56 GMT-0500 (Central Daylight Time),267852.6999999285,1500,I,m,1197,8,,2711.7999999523163,265140.89999997616,8068,NTS,B,18
2,18,test,1,A,circle.png,1,z,Tue Apr 28 2026 16:49:56 GMT-0500 (Central Daylight Time),270685.1999999285,2000,I,z,813,2,,2829.0,267856.1999999285,8068,NTS,B,19
7,19,test,1,A,circle.png,1,m,Tue Apr 28 2026 16:49:56 GMT-0500 (Central Daylight Time),273134.2999999523,1700,I,m,726,6,,2445.2999999523163,270689.0,8068,NTS,B,20
1,20,test,1,A,circle.png,1,z,Tue Apr 28 2026 16:49:56 GMT-0500 (Central Daylight Time),275216.89999997616,1000,I,z,1050,1,,2079.3000000715256,273137.59999990463,8068,NTS,B,21
2,21,test,1,A,circle.png,1,z,Tue Apr 28 2026 16:49:56 GMT-0500 (Central Daylight Time),277949.0,2000,I,z,711,2,,2728.7000000476837,275220.2999999523,8068,NTS,B,22
7,22,test,1,A,circle.png,1,m,Tue Apr 28 2026 16:49:56 GMT-0500 (Central Daylight Time),280399.09999990463,1700,I,m,727,6,,2446.6999999284744,277952.39999997616,8068,NTS,B,23
3,23,test,1,A,circle.png,1,z,Tue Apr 28 2026 16:49:56 GMT-0500 (Central Daylight Time),282331.2999999523,1200,I,z,713,3,,1928.7999999523163,280402.5,8068,NTS,B,24
3,1,test,1,B,triangle.png,1,z,Tue Apr 28 2026 16:49:56 GMT-0500 (Central Daylight Time),295693.89999997616,1600,I,z,961,3,,2579.399999976158,293114.5,8068,NTS,B,1
3,2,test,1,B,triangle.png,1,z,Tue Apr 28 2026 16:49:56 GMT-0500 (Central Daylight Time),298676.1999999285,2000,I,z,963,11,,2978.2999999523163,295697.89999997616,8068,NTS,B,2
7,3,test,1,B,triangle.png,1,z,Tue Apr 28 2026 16:49:56 GMT-0500 (Central Daylight Time),301608.6999999285,2000,I,z,900,6,,2928.6999999284744,298680.0,8068,NTS,B,3
4,4,test,1,B,triangle.png,1,m,Tue Apr 28 2026 16:49:56 GMT-0500 (Central Daylight Time),304124.5,1500,I,m,988,4,,2512.3000000715256,301612.1999999285,8068,NTS,B,4
6,5,test,1,B,triangle.png,1,m,Tue Apr 28 2026 16:49:56 GMT-0500 (Central Daylight Time),306607.0,1500,I,m,961,13,,2478.600000023842,304128.39999997616,8068,NTS,B,5
6,6,test,1,B,triangle.png,1,m,Tue Apr 28 2026 16:49:56 GMT-0500 (Central Daylight Time),308306.1999999285,1000,I,m,682,5,,1695.1000000238419,306611.09999990463,8068,NTS,B,6
8,7,test,1,B,triangle.png,1,m,Tue Apr 28 2026 16:49:56 GMT-0500 (Central Daylight Time),310689.1999999285,1700,I,m,650,15,,2379.100000023842,308310.09999990463,8068,NTS,B,7
4,8,test,1,B,triangle.png,1,m,Tue Apr 28 2026 16:49:56 GMT-0500 (Central Daylight Time),312521.6999999285,1000,I,m,808,12,,1828.8999999761581,310692.7999999523,8068,NTS,B,8
2,9,test,1,B,triangle.png,1,m,Tue Apr 28 2026 16:49:56 GMT-0500 (Central Daylight Time),314937.5,1700,I,m,699,2,,2412.2000000476837,312525.2999999523,8068,NTS,B,9
8,10,test,1,B,triangle.png,1,m,Tue Apr 28 2026 16:49:56 GMT-0500 (Central Daylight Time),316937.1999999285,1200,I,m,767,7,,1996.1999999284744,314941.0,8068,NTS,B,10
8,11,test,1,B,triangle.png,1,m,Tue Apr 28 2026 16:49:56 GMT-0500 (Central Daylight Time),319304.09999990463,1700,I,m,643,15,,2363.0999999046326,316941.0,8068,NTS,B,11
7,12,test,1,B,triangle.png,1,z,Tue Apr 28 2026 16:49:56 GMT-0500 (Central Daylight Time),321752.39999997616,1600,I,z,818,14,,2444.600000023842,319307.7999999523,8068,NTS,B,12
3,13,test,1,B,triangle.png,1,z,Tue Apr 28 2026 16:49:56 GMT-0500 (Central Daylight Time),324535.1999999285,2000,I,z,751,11,,2779.1999999284744,321756.0,8068,NTS,B,13
9,13,test,1,B,triangle.png,0,z,Tue Apr 28 2026 16:49:56 GMT-0500 (Central Daylight Time),327150.59999990463,1900,I,m,695,16,,2612.0999999046326,324538.5,8068,NTS,B,14
4,14,test,1,B,triangle.png,1,m,Tue Apr 28 2026 16:49:56 GMT-0500 (Central Daylight Time),329633.09999990463,1500,I,m,958,4,,2478.399999976158,327154.6999999285,8068,NTS,B,15
1,15,test,1,B,triangle.png,1,z,Tue Apr 28 2026 16:49:56 GMT-0500 (Central Daylight Time),332665.2999999523,1900,I,z,1107,1,,3028.600000023842,329636.6999999285,8068,NTS,B,16
4,16,test,1,B,triangle.png,1,m,Tue Apr 28 2026 16:49:56 GMT-0500 (Central Daylight Time),335031.6999999285,1000,I,m,1335,12,,2362.7999999523163,332668.89999997616,8068,NTS,B,17
2,17,test,1,B,triangle.png,1,m,Tue Apr 28 2026 16:49:56 GMT-0500 (Central Daylight Time),337297.2999999523,1200,I,m,1041,10,,2261.7999999523163,335035.5,8068,NTS,B,18
9,18,test,1,B,triangle.png,1,z,Tue Apr 28 2026 16:49:56 GMT-0500 (Central Daylight Time),339730.1999999285,1400,I,z,1007,8,,2429.0,337301.1999999285,8068,NTS,B,19
1,19,test,1,B,triangle.png,1,z,Tue Apr 28 2026 16:49:56 GMT-0500 (Central Daylight Time),342562.2999999523,1400,I,z,1407,9,,2828.7999999523163,339733.5,8068,NTS,B,20
9,19,test,1,B,triangle.png,0,z,Tue Apr 28 2026 16:49:56 GMT-0500 (Central Daylight Time),345494.6999999285,1400,I,None,1516,8,,2928.899999976158,342565.7999999523,8068,NTS,B,21
6,20,test,1,B,triangle.png,1,m,Tue Apr 28 2026 16:49:56 GMT-0500 (Central Daylight Time),347777.5,1500,I,m,758,13,,2279.3000000715256,345498.1999999285,8068,NTS,B,22
7,21,test,1,B,triangle.png,1,z,Tue Apr 28 2026 16:49:56 GMT-0500 (Central Daylight Time),350193.1999999285,1600,I,z,685,14,,2412.0,347781.1999999285,8068,NTS,B,23
2,22,test,1,B,triangle.png,1,m,Tue Apr 28 2026 16:49:56 GMT-0500 (Central Daylight Time),352775.7999999523,1200,I,m,1359,10,,2579.5,350196.2999999523,8068,NTS,B,24
8,0,prac,1,C,triangle.png,0,m,Tue Apr 28 2026 16:49:56 GMT-0500 (Central Daylight Time),386382.0,1400,I,None,1501,7,,3677.600000023842,382704.39999997616,8068,NTS,B,1
6,0,prac,1,C,circle.png,0,m,Tue Apr 28 2026 16:49:56 GMT-0500 (Central Daylight Time),390681.89999997616,2000,I,None,1516,5,,4293.200000047684,386388.6999999285,8068,NTS,B,2
1,1,prac,1,C,circle.png,1,z,Tue Apr 28 2026 16:49:56 GMT-0500 (Central Daylight Time),394413.39999997616,1700,I,z,1236,1,,3726.5,390686.89999997616,8068,NTS,B,3
7,1,prac,1,C,triangle.png,0,z,Tue Apr 28 2026 16:49:56 GMT-0500 (Central Daylight Time),397912.39999997616,1200,I,None,1516,6,,3494.2000000476837,394418.1999999285,8068,NTS,B,4
3,2,prac,1,C,triangle.png,1,z,Tue Apr 28 2026 16:49:56 GMT-0500 (Central Daylight Time),401393.89999997616,1500,I,z,1189,3,,3476.5,397917.39999997616,8068,NTS,B,5
3,3,prac,1,C,triangle.png,1,z,Tue Apr 28 2026 16:49:56 GMT-0500 (Central Daylight Time),404509.7999999523,1500,I,z,827,3,,3111.100000023842,401398.6999999285,8068,NTS,B,6
4,3,prac,1,C,circle.png,0,z,Tue Apr 28 2026 16:49:56 GMT-0500 (Central Daylight Time),407275.39999997616,1000,I,m,971,4,,2760.8000000715256,404514.59999990463,8068,NTS,B,7
4,4,prac,1,C,circle.png,1,z,Tue Apr 28 2026 16:49:56 GMT-0500 (Central Daylight Time),410490.7999999523,1000,I,z,1421,4,,3210.600000023842,407280.1999999285,8068,NTS,B,8
2,4,prac,1,C,triangle.png,0,m,Tue Apr 28 2026 16:49:56 GMT-0500 (Central Daylight Time),414389.6999999285,1600,I,None,1516,2,,3893.6999999284744,410496.0,8068,NTS,B,9
2,5,prac,1,C,triangle.png,1,m,Tue Apr 28 2026 16:49:56 GMT-0500 (Central Daylight Time),417622.2999999523,1600,I,m,843,2,,3228.0,414394.2999999523,8068,NTS,B,10
9,5,prac,1,C,circle.png,0,m,Tue Apr 28 2026 16:49:56 GMT-0500 (Central Daylight Time),421820.6999999285,1900,I,None,1515,8,,4193.5,417627.1999999285,8068,NTS,B,11
9,6,prac,1,C,circle.png,1,m,Tue Apr 28 2026 16:49:56 GMT-0500 (Central Daylight Time),425453.2999999523,1900,I,m,944,8,,3628.0,421825.2999999523,8068,NTS,B,12
8,0,prac,2,C,triangle.png,0,m,Tue Apr 28 2026 16:49:56 GMT-0500 (Central Daylight Time),435101.09999990463,1400,I,None,1516,7,,3695.5999999046326,431405.5,8068,NTS,B,1
1,0,prac,2,C,circle.png,0,z,Tue Apr 28 2026 16:49:56 GMT-0500 (Central Daylight Time),439099.0,1700,I,None,1515,1,,3992.7000000476837,435106.2999999523,8068,NTS,B,2
2,0,prac,2,C,triangle.png,0,m,Tue Apr 28 2026 16:49:56 GMT-0500 (Central Daylight Time),442931.0,1600,I,z,1446,2,,3827.2000000476837,439103.7999999523,8068,NTS,B,3
2,1,prac,2,C,triangle.png,1,m,Tue Apr 28 2026 16:49:56 GMT-0500 (Central Daylight Time),446146.59999990463,1600,I,m,822,2,,3210.899999976158,442935.6999999285,8068,NTS,B,4
1,2,prac,2,C,circle.png,1,z,Tue Apr 28 2026 16:49:56 GMT-0500 (Central Daylight Time),449728.59999990463,1700,I,z,1098,1,,3576.7999999523163,446151.7999999523,8068,NTS,B,5
6,3,prac,2,C,circle.png,1,m,Tue Apr 28 2026 16:49:56 GMT-0500 (Central Daylight Time),453444.39999997616,2000,I,m,928,5,,3710.5,449733.89999997616,8068,NTS,B,6
3,3,prac,2,C,triangle.png,0,z,Tue Apr 28 2026 16:49:56 GMT-0500 (Central Daylight Time),457244.2999999523,1500,I,None,1516,3,,3795.2999999523163,453449.0,8068,NTS,B,7
7,3,prac,2,C,triangle.png,0,z,Tue Apr 28 2026 16:49:56 GMT-0500 (Central Daylight Time),460742.1999999285,1200,I,None,1516,6,,3492.6999999284744,457249.5,8068,NTS,B,8
4,3,prac,2,C,circle.png,0,z,Tue Apr 28 2026 16:49:56 GMT-0500 (Central Daylight Time),463374.5,1000,I,m,842,4,,2627.5,460747.0,8068,NTS,B,9
9,4,prac,2,C,circle.png,1,m,Tue Apr 28 2026 16:49:56 GMT-0500 (Central Daylight Time),466939.89999997616,1900,I,m,870,8,,3560.2000000476837,463379.6999999285,8068,NTS,B,10
9,4,prac,2,C,circle.png,0,m,Tue Apr 28 2026 16:49:56 GMT-0500 (Central Daylight Time),471138.89999997616,1900,I,None,1516,8,,4194.399999976158,466944.5,8068,NTS,B,11
7,5,prac,2,C,triangle.png,1,z,Tue Apr 28 2026 16:49:56 GMT-0500 (Central Daylight Time),474321.09999990463,1200,I,z,1197,6,,3177.2999999523163,471143.7999999523,8068,NTS,B,12
1,1,test,1,C,triangle.png,1,z,Tue Apr 28 2026 16:49:56 GMT-0500 (Central Daylight Time),503245.39999997616,1900,I,z,745,9,,2663.2000000476837,500582.1999999285,8068,NTS,B,1
3,2,test,1,C,triangle.png,1,z,Tue Apr 28 2026 16:49:56 GMT-0500 (Central Daylight Time),505877.7999999523,1200,I,z,1411,3,,2628.399999976158,503249.39999997616,8068,NTS,B,2
6,3,test,1,C,circle.png,1,m,Tue Apr 28 2026 16:49:56 GMT-0500 (Central Daylight Time),509176.6999999285,1900,I,m,1367,21,,3295.2999999523163,505881.39999997616,8068,NTS,B,3
4,3,test,1,C,triangle.png,0,m,Tue Apr 28 2026 16:49:56 GMT-0500 (Central Daylight Time),512209.2999999523,1500,I,None,1516,12,,3028.399999976158,509180.89999997616,8068,NTS,B,4
3,4,test,1,C,circle.png,1,z,Tue Apr 28 2026 16:49:56 GMT-0500 (Central Daylight Time),514807.89999997616,1600,I,z,968,19,,2594.2000000476837,512213.6999999285,8068,NTS,B,5
8,5,test,1,C,triangle.png,1,m,Tue Apr 28 2026 16:49:56 GMT-0500 (Central Daylight Time),517773.89999997616,1600,I,m,1336,7,,2962.100000023842,514811.7999999523,8068,NTS,B,6
4,6,test,1,C,circle.png,1,z,Tue Apr 28 2026 16:49:56 GMT-0500 (Central Daylight Time),520440.89999997616,1400,I,z,1250,4,,2663.100000023842,517777.7999999523,8068,NTS,B,7
7,6,test,1,C,triangle.png,0,z,Tue Apr 28 2026 16:49:56 GMT-0500 (Central Daylight Time),523155.6999999285,1700,I,m,989,22,,2711.1999999284744,520444.5,8068,NTS,B,8
9,7,test,1,C,circle.png,1,m,Tue Apr 28 2026 16:49:56 GMT-0500 (Central Daylight Time),525738.0999999046,1500,I,m,1057,8,,2578.5,523159.59999990463,8068,NTS,B,9
3,8,test,1,C,circle.png,1,z,Tue Apr 28 2026 16:49:56 GMT-0500 (Central Daylight Time),528620.7999999523,1600,I,z,1254,11,,2878.7000000476837,525742.0999999046,8068,NTS,B,10
8,8,test,1,C,triangle.png,0,m,Tue Apr 28 2026 16:49:56 GMT-0500 (Central Daylight Time),531753.0999999046,1600,I,None,1516,23,,3128.7999999523163,528624.2999999523,8068,NTS,B,11
6,9,test,1,C,circle.png,1,m,Tue Apr 28 2026 16:49:56 GMT-0500 (Central Daylight Time),534852.0999999046,1900,I,m,1180,5,,3095.399999976158,531756.6999999285,8068,NTS,B,12
2,10,test,1,C,circle.png,1,z,Tue Apr 28 2026 16:49:56 GMT-0500 (Central Daylight Time),537534.3999999762,1700,I,z,953,18,,2678.8000000715256,534855.5999999046,8068,NTS,B,13
9,10,test,1,C,triangle.png,0,z,Tue Apr 28 2026 16:49:56 GMT-0500 (Central Daylight Time),540033.5999999046,1400,I,m,1082,16,,2495.0,537538.5999999046,8068,NTS,B,14
4,10,test,1,C,triangle.png,0,m,Tue Apr 28 2026 16:49:56 GMT-0500 (Central Daylight Time),543066.5,1500,I,None,1516,20,,3028.8000000715256,540037.6999999285,8068,NTS,B,15
7,10,test,1,C,triangle.png,0,z,Tue Apr 28 2026 16:49:56 GMT-0500 (Central Daylight Time),546032.0,1700,I,m,1242,6,,2961.9000000953674,543070.0999999046,8068,NTS,B,16
2,10,test,1,C,triangle.png,0,m,Tue Apr 28 2026 16:49:56 GMT-0500 (Central Daylight Time),548847.7999999523,2000,I,z,785,2,,2812.2000000476837,546035.5999999046,8068,NTS,B,17
1,11,test,1,C,circle.png,1,z,Tue Apr 28 2026 16:49:56 GMT-0500 (Central Daylight Time),551080.0999999046,1000,I,z,1209,1,,2228.5,548851.5999999046,8068,NTS,B,18
1,12,test,1,C,triangle.png,1,z,Tue Apr 28 2026 16:49:56 GMT-0500 (Central Daylight Time),554495.8999999762,1900,I,z,1484,17,,3411.899999976158,551084.0,8068,NTS,B,19
7,12,test,1,C,circle.png,0,m,Tue Apr 28 2026 16:49:56 GMT-0500 (Central Daylight Time),558028.1999999285,2000,I,None,1516,14,,3528.399999976158,554499.7999999523,8068,NTS,B,20
9,12,test,1,C,circle.png,0,m,Tue Apr 28 2026 16:49:56 GMT-0500 (Central Daylight Time),561060.3999999762,1500,I,None,1515,24,,3028.0,558032.3999999762,8068,NTS,B,21
8,13,test,1,C,circle.png,1,m,Tue Apr 28 2026 16:49:56 GMT-0500 (Central Daylight Time),563743.0,1200,I,m,1452,15,,2679.0,561064.0,8068,NTS,B,22
2,13,test,1,C,circle.png,0,z,Tue Apr 28 2026 16:49:56 GMT-0500 (Central Daylight Time),566975.2999999523,1700,I,None,1515,10,,3228.600000023842,563746.6999999285,8068,NTS,B,23
6,14,test,1,C,triangle.png,1,m,Tue Apr 28 2026 16:49:56 GMT-0500 (Central Daylight Time),569141.3999999762,1000,I,m,1137,13,,2162.399999976158,566979.0,8068,NTS,B,24
4,0,test,2,C,triangle.png,0,m,Tue Apr 28 2026 16:49:56 GMT-0500 (Central Daylight Time),574674.1999999285,1500,I,None,1517,20,,3030.399999976158,571643.7999999523,8068,NTS,B,1
9,0,test,2,C,triangle.png,0,z,Tue Apr 28 2026 16:49:56 GMT-0500 (Central Daylight Time),577338.6999999285,1400,I,m,1240,16,,2659.100000023842,574679.5999999046,8068,NTS,B,2
2,0,test,2,C,circle.png,0,z,Tue Apr 28 2026 16:49:56 GMT-0500 (Central Daylight Time),580571.0999999046,1700,I,None,1516,10,,3228.6999999284744,577342.3999999762,8068,NTS,B,3
2,0,test,2,C,circle.png,0,z,Tue Apr 28 2026 16:49:56 GMT-0500 (Central Daylight Time),583803.2999999523,1700,I,None,1515,18,,3228.5,580574.7999999523,8068,NTS,B,4
3,1,test,2,C,triangle.png,1,z,Tue Apr 28 2026 16:49:56 GMT-0500 (Central Daylight Time),586069.2999999523,1200,I,z,1045,3,,2262.0,583807.2999999523,8068,NTS,B,5
1,1,test,2,C,triangle.png,0,z,Tue Apr 28 2026 16:49:56 GMT-0500 (Central Daylight Time),589501.6999999285,1900,I,None,1516,17,,3426.100000023842,586075.5999999046,8068,NTS,B,6
8,2,test,2,C,circle.png,1,m,Tue Apr 28 2026 16:49:56 GMT-0500 (Central Daylight Time),592084.0999999046,1200,I,m,1355,15,,2578.5,589505.5999999046,8068,NTS,B,7
3,3,test,2,C,circle.png,1,z,Tue Apr 28 2026 16:49:56 GMT-0500 (Central Daylight Time),594383.3999999762,1600,I,z,668,19,,2295.600000023842,592087.7999999523,8068,NTS,B,8
1,4,test,2,C,triangle.png,1,z,Tue Apr 28 2026 16:49:56 GMT-0500 (Central Daylight Time),597165.8999999762,1900,I,z,862,9,,2778.8000000715256,594387.0999999046,8068,NTS,B,9
4,4,test,2,C,triangle.png,0,m,Tue Apr 28 2026 16:49:56 GMT-0500 (Central Daylight Time),599998.2999999523,1500,I,z,1303,12,,2828.2000000476837,597170.0999999046,8068,NTS,B,10
9,4,test,2,C,triangle.png,0,z,Tue Apr 28 2026 16:49:56 GMT-0500 (Central Daylight Time),602214.2999999523,1400,I,m,787,24,,2212.2999999523163,600002.0,8068,NTS,B,11
6,4,test,2,C,triangle.png,0,m,Tue Apr 28 2026 16:49:56 GMT-0500 (Central Daylight Time),604746.8999999762,1000,I,None,1516,21,,2528.7000000476837,602218.1999999285,8068,NTS,B,12
9,4,test,2,C,circle.png,0,m,Tue Apr 28 2026 16:49:56 GMT-0500 (Central Daylight Time),607779.2999999523,1500,I,None,1514,8,,3028.600000023842,604750.6999999285,8068,NTS,B,13
8,5,test,2,C,circle.png,1,m,Tue Apr 28 2026 16:49:56 GMT-0500 (Central Daylight Time),609828.6999999285,1200,I,m,806,23,,2045.7999999523163,607782.8999999762,8068,NTS,B,14
1,6,test,2,C,circle.png,1,z,Tue Apr 28 2026 16:49:56 GMT-0500 (Central Daylight Time),611629.0999999046,1000,I,z,772,1,,1796.5999999046326,609832.5,8068,NTS,B,15
7,6,test,2,C,circle.png,0,m,Tue Apr 28 2026 16:49:56 GMT-0500 (Central Daylight Time),615160.2999999523,2000,I,None,1516,14,,3527.100000023842,611633.1999999285,8068,NTS,B,16
6,7,test,2,C,circle.png,1,m,Tue Apr 28 2026 16:49:56 GMT-0500 (Central Daylight Time),617959.5,1900,I,m,876,5,,2795.4000000953674,615164.0999999046,8068,NTS,B,17
7,8,test,2,C,triangle.png,1,z,Tue Apr 28 2026 16:49:56 GMT-0500 (Central Daylight Time),620825.2999999523,1700,I,z,1133,6,,2862.0,617963.2999999523,8068,NTS,B,18
6,9,test,2,C,triangle.png,1,m,Tue Apr 28 2026 16:49:56 GMT-0500 (Central Daylight Time),623007.6999999285,1000,I,m,1159,13,,2178.2999999523163,620829.3999999762,8068,NTS,B,19
3,10,test,2,C,circle.png,1,z,Tue Apr 28 2026 16:49:56 GMT-0500 (Central Daylight Time),625806.8999999762,1600,I,z,1169,11,,2795.5,623011.3999999762,8068,NTS,B,20
8,11,test,2,C,triangle.png,1,m,Tue Apr 28 2026 16:49:56 GMT-0500 (Central Daylight Time),628805.8999999762,1600,I,m,1370,7,,2995.3000000715256,625810.5999999046,8068,NTS,B,21
2,11,test,2,C,triangle.png,0,m,Tue Apr 28 2026 16:49:56 GMT-0500 (Central Daylight Time),632105.8999999762,2000,I,z,1275,2,,3295.899999976158,628810.0,8068,NTS,B,22
4,12,test,2,C,circle.png,1,z,Tue Apr 28 2026 16:49:56 GMT-0500 (Central Daylight Time),634587.5,1400,I,z,1064,4,,2477.8000000715256,632109.6999999285,8068,NTS,B,23
7,12,test,2,C,circle.png,0,m,Tue Apr 28 2026 16:49:56 GMT-0500 (Central Daylight Time),637904.1999999285,2000,I,z,1285,22,,3313.100000023842,634591.0999999046,8068,NTS,B,24
4,0,test,3,C,triangle.png,0,m,Tue Apr 28 2026 16:49:56 GMT-0500 (Central Daylight Time),643368.0999999046,1500,I,None,1516,12,,3029.399999976158,640338.6999999285,8068,NTS,B,1
3,1,test,3,C,triangle.png,1,z,Tue Apr 28 2026 16:49:56 GMT-0500 (Central Daylight Time),645583.6999999285,1200,I,z,992,19,,2211.100000023842,643372.5999999046,8068,NTS,B,2
1,2,test,3,C,circle.png,1,z,Tue Apr 28 2026 16:49:56 GMT-0500 (Central Daylight Time),647451.0999999046,1000,I,z,847,1,,1863.2999999523163,645587.7999999523,8068,NTS,B,3
9,2,test,3,C,triangle.png,0,z,Tue Apr 28 2026 16:49:56 GMT-0500 (Central Daylight Time),650032.7999999523,1400,I,m,1151,16,,2577.7999999523163,647455.0,8068,NTS,B,4
3,2,test,3,C,circle.png,0,z,Tue Apr 28 2026 16:49:56 GMT-0500 (Central Daylight Time),653166.0,1600,I,None,1517,11,,3129.7000000476837,650036.2999999523,8068,NTS,B,5
6,3,test,3,C,triangle.png,1,m,Tue Apr 28 2026 16:49:56 GMT-0500 (Central Daylight Time),655097.7999999523,1000,I,m,906,13,,1927.8999999761581,653169.8999999762,8068,NTS,B,6
1,4,test,3,C,triangle.png,1,z,Tue Apr 28 2026 16:49:56 GMT-0500 (Central Daylight Time),657780.1999999285,1900,I,z,755,9,,2678.100000023842,655102.0999999046,8068,NTS,B,7
6,5,test,3,C,circle.png,1,m,Tue Apr 28 2026 16:49:56 GMT-0500 (Central Daylight Time),660662.6999999285,1900,I,m,952,21,,2878.600000023842,657784.0999999046,8068,NTS,B,8
9,5,test,3,C,circle.png,0,m,Tue Apr 28 2026 16:49:56 GMT-0500 (Central Daylight Time),663262.7999999523,1500,I,z,1078,8,,2596.5,660666.2999999523,8068,NTS,B,9
4,6,test,3,C,circle.png,1,z,Tue Apr 28 2026 16:49:56 GMT-0500 (Central Daylight Time),665978.7999999523,1400,I,z,1299,4,,2712.100000023842,663266.6999999285,8068,NTS,B,10
2,6,test,3,C,triangle.png,0,m,Tue Apr 28 2026 16:49:56 GMT-0500 (Central Daylight Time),669176.5999999046,2000,I,z,1167,18,,3192.899999976158,665983.6999999285,8068,NTS,B,11
6,7,test,3,C,circle.png,1,m,Tue Apr 28 2026 16:49:56 GMT-0500 (Central Daylight Time),672058.7999999523,1900,I,m,956,5,,2878.5,669180.2999999523,8068,NTS,B,12
7,8,test,3,C,circle.png,1,m,Tue Apr 28 2026 16:49:56 GMT-0500 (Central Daylight Time),675041.1999999285,2000,I,m,966,14,,2978.6999999284744,672062.5,8068,NTS,B,13
2,9,test,3,C,circle.png,1,z,Tue Apr 28 2026 16:49:56 GMT-0500 (Central Daylight Time),678091.3999999762,1700,I,z,1331,10,,3046.7000000476837,675044.6999999285,8068,NTS,B,14
4,10,test,3,C,circle.png,1,z,Tue Apr 28 2026 16:49:56 GMT-0500 (Central Daylight Time),681023.0,1400,I,z,1421,20,,2927.5,678095.5,8068,NTS,B,15
8,11,test,3,C,circle.png,1,m,Tue Apr 28 2026 16:49:56 GMT-0500 (Central Daylight Time),683555.3999999762,1200,I,m,1305,15,,2528.5,681026.8999999762,8068,NTS,B,16
8,11,test,3,C,triangle.png,0,m,Tue Apr 28 2026 16:49:56 GMT-0500 (Central Daylight Time),686688.0,1600,I,None,1515,23,,3128.7000000476837,683559.2999999523,8068,NTS,B,17
7,11,test,3,C,triangle.png,0,z,Tue Apr 28 2026 16:49:56 GMT-0500 (Central Daylight Time),689920.1999999285,1700,I,None,1516,22,,3227.5,686692.6999999285,8068,NTS,B,18
1,12,test,3,C,circle.png,1,z,Tue Apr 28 2026 16:49:56 GMT-0500 (Central Daylight Time),692402.5999999046,1000,I,z,1464,17,,2478.5,689924.0999999046,8068,NTS,B,19
2,12,test,3,C,triangle.png,0,m,Tue Apr 28 2026 16:49:56 GMT-0500 (Central Daylight Time),695385.1999999285,2000,I,z,950,2,,2979.0,692406.1999999285,8068,NTS,B,20
7,13,test,3,C,triangle.png,1,z,Tue Apr 28 2026 16:49:56 GMT-0500 (Central Daylight Time),698468.7999999523,1700,I,z,1355,6,,3080.100000023842,695388.6999999285,8068,NTS,B,21
9,13,test,3,C,circle.png,0,m,Tue Apr 28 2026 16:49:56 GMT-0500 (Central Daylight Time),701499.7999999523,1500,I,None,1516,24,,3026.600000023842,698473.1999999285,8068,NTS,B,22
3,14,test,3,C,triangle.png,1,z,Tue Apr 28 2026 16:49:56 GMT-0500 (Central Daylight Time),703698.8999999762,1200,I,z,981,3,,2195.0,701503.8999999762,8068,NTS,B,23
8,15,test,3,C,triangle.png,1,m,Tue Apr 28 2026 16:49:56 GMT-0500 (Central Daylight Time),706731.5999999046,1600,I,m,1407,7,,3029.1999999284744,703702.3999999762,8068,NTS,B,24
6,0,test,4,C,circle.png,0,m,Tue Apr 28 2026 16:49:56 GMT-0500 (Central Daylight Time),754351.0999999046,1900,I,None,1517,5,,3430.399999976158,750920.6999999285,8068,NTS,B,1
3,0,test,4,C,triangle.png,0,z,Tue Apr 28 2026 16:49:56 GMT-0500 (Central Daylight Time),757082.5999999046,1200,I,None,1516,3,,2727.1999999284744,754355.3999999762,8068,NTS,B,2
7,0,test,4,C,triangle.png,0,z,Tue Apr 28 2026 16:49:56 GMT-0500 (Central Daylight Time),760314.6999999285,1700,I,None,1516,6,,3228.2999999523163,757086.3999999762,8068,NTS,B,3
7,0,test,4,C,circle.png,0,m,Tue Apr 28 2026 16:49:56 GMT-0500 (Central Daylight Time),763846.7999999523,2000,I,None,1516,14,,3528.0,760318.7999999523,8068,NTS,B,4
9,0,test,4,C,triangle.png,0,z,Tue Apr 28 2026 16:49:56 GMT-0500 (Central Daylight Time),766779.5,1400,I,None,1516,16,,2928.9000000953674,763850.5999999046,8068,NTS,B,5
2,1,test,4,C,circle.png,1,z,Tue Apr 28 2026 16:49:56 GMT-0500 (Central Daylight Time),769495.1999999285,1700,I,z,994,10,,2711.899999976158,766783.2999999523,8068,NTS,B,6
4,1,test,4,C,circle.png,0,z,Tue Apr 28 2026 16:49:56 GMT-0500 (Central Daylight Time),772427.5999999046,1400,I,None,1516,4,,2928.399999976158,769499.1999999285,8068,NTS,B,7
8,1,test,4,C,circle.png,0,m,Tue Apr 28 2026 16:49:56 GMT-0500 (Central Daylight Time),775160.1999999285,1200,I,None,1516,15,,2729.0,772431.1999999285,8068,NTS,B,8
1,2,test,4,C,circle.png,1,z,Tue Apr 28 2026 16:49:56 GMT-0500 (Central Daylight Time),777009.5,1000,I,z,817,1,,1845.7000000476837,775163.7999999523,8068,NTS,B,9
2,2,test,4,C,triangle.png,0,m,Tue Apr 28 2026 16:49:56 GMT-0500 (Central Daylight Time),779892.0999999046,2000,I,z,856,18,,2878.899999976158,777013.1999999285,8068,NTS,B,10
9,3,test,4,C,circle.png,1,m,Tue Apr 28 2026 16:49:56 GMT-0500 (Central Daylight Time),782707.7999999523,1500,I,m,1295,8,,2811.7999999523163,779896.0,8068,NTS,B,11
8,3,test,4,C,triangle.png,0,m,Tue Apr 28 2026 16:49:56 GMT-0500 (Central Daylight Time),785840.0,1600,I,None,1516,7,,3128.100000023842,782711.8999999762,8068,NTS,B,12
4,4,test,4,C,circle.png,1,z,Tue Apr 28 2026 16:49:56 GMT-0500 (Central Daylight Time),788755.6999999285,1400,I,z,1496,20,,2912.0,785843.6999999285,8068,NTS,B,13
1,5,test,4,C,circle.png,1,z,Tue Apr 28 2026 16:49:56 GMT-0500 (Central Daylight Time),790605.0999999046,1000,I,z,829,17,,1845.5,788759.5999999046,8068,NTS,B,14
2,5,test,4,C,triangle.png,0,m,Tue Apr 28 2026 16:49:56 GMT-0500 (Central Daylight Time),793605.3999999762,2000,I,z,980,2,,2996.7000000476837,790608.6999999285,8068,NTS,B,15
3,6,test,4,C,circle.png,1,z,Tue Apr 28 2026 16:49:56 GMT-0500 (Central Daylight Time),796354.5999999046,1600,I,z,1132,11,,2745.6999999284744,793608.8999999762,8068,NTS,B,16
8,7,test,4,C,triangle.png,1,m,Tue Apr 28 2026 16:49:56 GMT-0500 (Central Daylight Time),798952.3999999762,1600,I,m,967,23,,2594.100000023842,796358.2999999523,8068,NTS,B,17
6,8,test,4,C,circle.png,1,m,Tue Apr 28 2026 16:49:56 GMT-0500 (Central Daylight Time),802285.0,1900,I,m,1404,21,,3328.2000000476837,798956.7999999523,8068,NTS,B,18
3,9,test,4,C,triangle.png,1,z,Tue Apr 28 2026 16:49:56 GMT-0500 (Central Daylight Time),804567.5,1200,I,z,1060,19,,2278.4000000953674,802289.0999999046,8068,NTS,B,19
1,10,test,4,C,triangle.png,1,z,Tue Apr 28 2026 16:49:56 GMT-0500 (Central Daylight Time),807100.0,1900,I,z,605,9,,2529.0,804571.0,8068,NTS,B,20
4,10,test,4,C,triangle.png,0,m,Tue Apr 28 2026 16:49:56 GMT-0500 (Central Daylight Time),809315.5,1500,I,z,697,12,,2212.0,807103.5,8068,NTS,B,21
9,11,test,4,C,circle.png,1,m,Tue Apr 28 2026 16:49:56 GMT-0500 (Central Daylight Time),811648.5999999046,1500,I,m,809,24,,2328.6999999284744,809319.8999999762,8068,NTS,B,22
7,11,test,4,C,triangle.png,0,z,Tue Apr 28 2026 16:49:56 GMT-0500 (Central Daylight Time),814880.6999999285,1700,I,None,1516,22,,3228.399999976158,811652.2999999523,8068,NTS,B,23
6,11,test,4,C,triangle.png,0,m,Tue Apr 28 2026 16:49:56 GMT-0500 (Central Daylight Time),817413.3999999762,1000,I,None,1515,13,,2529.3000000715256,814884.0999999046,8068,NTS,B,24
