acc_sum,block,block_c,change,condition,correct,correct_response,datetime,endtime,face,project,response,response_time,row_sel,session_number,start_end,starttime,subject_id,task,task_vers,trial
0,prac,1,,1-Back,,,Wed Oct 22 2025 15:36:32 GMT-0500 (Central Daylight Time),,005_o_f_d_a.png,I,space,3962,1,1,,,8074,VNB,B,0
1,prac,1,0.0,1-Back,1.0,m,Wed Oct 22 2025 15:36:32 GMT-0500 (Central Daylight Time),111790.30000019073,020_y_f_n_a.png,I,m,1017,2,1,1887.9000000953674,109902.40000009537,8074,VNB,B,1
2,prac,1,0.0,1-Back,1.0,m,Wed Oct 22 2025 15:36:32 GMT-0500 (Central Daylight Time),114089.5,007_m_m_h_a.png,I,m,1409,3,1,2290.699999809265,111798.80000019073,8074,VNB,B,2
3,prac,1,0.0,1-Back,1.0,m,Wed Oct 22 2025 15:36:32 GMT-0500 (Central Daylight Time),116188.90000009537,016_y_m_d_a.png,I,m,1206,4,1,2091.5,114097.40000009537,8074,VNB,B,3
4,prac,1,0.0,1-Back,1.0,m,Wed Oct 22 2025 15:36:32 GMT-0500 (Central Daylight Time),118254.90000009537,005_o_f_n_a.png,I,m,1183,5,1,2057.0,116197.90000009537,8074,VNB,B,4
5,prac,1,1.0,1-Back,1.0,z,Wed Oct 22 2025 15:36:32 GMT-0500 (Central Daylight Time),120237.59999990463,016_y_m_n_a.png,I,z,1096,6,1,1974.9000000953674,118262.69999980927,8074,VNB,B,5
6,prac,1,0.0,1-Back,1.0,m,Wed Oct 22 2025 15:36:32 GMT-0500 (Central Daylight Time),122586.90000009537,004_o_m_h_a.png,I,m,1471,7,1,2339.7000002861023,120247.19999980927,8074,VNB,B,6
6,prac,1,0.0,1-Back,0.0,m,Wed Oct 22 2025 15:36:32 GMT-0500 (Central Daylight Time),124664.69999980927,011_m_f_d_a.png,I,z,1127,8,1,2068.8999996185303,122595.80000019073,8074,VNB,B,7
6,prac,1,1.0,1-Back,0.0,z,Wed Oct 22 2025 15:36:32 GMT-0500 (Central Daylight Time),127119.09999990463,020_y_f_d_a.png,I,m,1558,9,1,2444.5999999046326,124674.5,8074,VNB,B,8
7,prac,1,0.0,1-Back,1.0,m,Wed Oct 22 2025 15:36:32 GMT-0500 (Central Daylight Time),129518.0,007_m_m_n_a.png,I,m,1518,10,1,2390.0999999046326,127127.90000009537,8074,VNB,B,9
7,prac,1,0.0,1-Back,0.0,m,Wed Oct 22 2025 15:36:32 GMT-0500 (Central Daylight Time),131350.69999980927,005_o_f_h_a.png,I,z,954,11,1,1824.0,129526.69999980927,8074,VNB,B,10
8,prac,1,0.0,1-Back,1.0,m,Wed Oct 22 2025 15:36:32 GMT-0500 (Central Daylight Time),133533.5,016_y_m_d_a.png,I,m,1286,12,1,2174.199999809265,131359.30000019073,8074,VNB,B,11
0,test,1,0.0,1-Back,,,Wed Oct 22 2025 15:36:32 GMT-0500 (Central Daylight Time),133533.5,020_y_f_d_a.png,I,space,6743,1,1,2174.199999809265,131359.30000019073,8074,VNB,B,0
1,test,1,0.0,1-Back,1.0,m,Wed Oct 22 2025 15:36:32 GMT-0500 (Central Daylight Time),152095.19999980927,011_m_f_n_a.png,I,m,1459,2,1,2477.0,149618.19999980927,8074,VNB,B,1
2,test,1,0.0,1-Back,1.0,m,Wed Oct 22 2025 15:36:32 GMT-0500 (Central Daylight Time),154443.5,004_o_m_h_a.png,I,m,1320,3,1,2342.5999999046326,152100.90000009537,8074,VNB,B,2
3,test,1,1.0,1-Back,1.0,z,Wed Oct 22 2025 15:36:32 GMT-0500 (Central Daylight Time),156459.40000009537,007_m_m_h_a.png,I,z,987,4,1,2010.5,154448.90000009537,8074,VNB,B,3
4,test,1,0.0,1-Back,1.0,m,Wed Oct 22 2025 15:36:32 GMT-0500 (Central Daylight Time),158726.90000009537,005_o_f_n_a.png,I,m,1243,5,1,2261.4000000953674,156465.5,8074,VNB,B,4
5,test,1,0.0,1-Back,1.0,m,Wed Oct 22 2025 15:36:32 GMT-0500 (Central Daylight Time),160991.40000009537,016_y_m_d_a.png,I,m,1240,6,1,2259.0999999046326,158732.30000019073,8074,VNB,B,5
5,test,1,1.0,1-Back,0.0,z,Wed Oct 22 2025 15:36:32 GMT-0500 (Central Daylight Time),163424.19999980927,011_m_f_d_a.png,I,m,1407,7,1,2427.0,160997.19999980927,8074,VNB,B,6
6,test,1,0.0,1-Back,1.0,m,Wed Oct 22 2025 15:36:32 GMT-0500 (Central Daylight Time),165689.90000009537,020_y_f_h_a.png,I,m,1238,8,1,2260.0999999046326,163429.80000019073,8074,VNB,B,7
7,test,1,0.0,1-Back,1.0,m,Wed Oct 22 2025 15:36:32 GMT-0500 (Central Daylight Time),167706.09999990463,004_o_m_n_a.png,I,m,997,9,1,2010.2999997138977,165695.80000019073,8074,VNB,B,8
8,test,1,0.0,1-Back,1.0,m,Wed Oct 22 2025 15:36:32 GMT-0500 (Central Daylight Time),170271.59999990463,016_y_m_h_a.png,I,m,1539,10,1,2558.9000000953674,167712.69999980927,8074,VNB,B,9
9,test,1,0.0,1-Back,1.0,m,Wed Oct 22 2025 15:36:32 GMT-0500 (Central Daylight Time),172371.19999980927,004_o_m_d_a.png,I,m,1078,11,1,2093.0,170278.19999980927,8074,VNB,B,10
9,test,1,1.0,1-Back,0.0,z,Wed Oct 22 2025 15:36:32 GMT-0500 (Central Daylight Time),174270.90000009537,005_o_f_d_a.png,I,m,883,12,1,1894.0,172376.90000009537,8074,VNB,B,11
10,test,1,0.0,1-Back,1.0,m,Wed Oct 22 2025 15:36:32 GMT-0500 (Central Daylight Time),176636.69999980927,007_m_m_n_a.png,I,m,1344,13,1,2360.2999997138977,174276.40000009537,8074,VNB,B,12
11,test,1,1.0,1-Back,1.0,z,Wed Oct 22 2025 15:36:32 GMT-0500 (Central Daylight Time),178552.69999980927,020_y_f_n_a.png,I,z,890,14,1,1910.6999998092651,176642.0,8074,VNB,B,13
12,test,1,0.0,1-Back,1.0,m,Wed Oct 22 2025 15:36:32 GMT-0500 (Central Daylight Time),181101.80000019073,011_m_f_h_a.png,I,m,1517,15,1,2543.1000003814697,178558.69999980927,8074,VNB,B,14
13,test,1,0.0,1-Back,1.0,m,Wed Oct 22 2025 15:36:32 GMT-0500 (Central Daylight Time),183301.0,007_m_m_d_a.png,I,m,1167,16,1,2193.4000000953674,181107.59999990463,8074,VNB,B,15
14,test,1,0.0,1-Back,1.0,m,Wed Oct 22 2025 15:36:32 GMT-0500 (Central Daylight Time),185717.40000009537,016_y_m_n_a.png,I,m,1385,17,1,2411.300000190735,183306.09999990463,8074,VNB,B,16
15,test,1,0.0,1-Back,1.0,m,Wed Oct 22 2025 15:36:32 GMT-0500 (Central Daylight Time),187933.09999990463,005_o_f_h_a.png,I,m,1185,18,1,2209.7999997138977,185723.30000019073,8074,VNB,B,17
0,test,2,0.0,1-Back,,,Wed Oct 22 2025 15:36:32 GMT-0500 (Central Daylight Time),187933.09999990463,016_y_m_n_a.png,I,space,2801,1,1,2209.7999997138977,185723.30000019073,8074,VNB,B,0
1,test,2,0.0,1-Back,1.0,m,Wed Oct 22 2025 15:36:32 GMT-0500 (Central Daylight Time),194947.40000009537,020_y_f_h_a.png,I,m,1154,2,1,2175.0999999046326,192772.30000019073,8074,VNB,B,1
2,test,2,1.0,1-Back,1.0,m,Wed Oct 22 2025 15:36:32 GMT-0500 (Central Daylight Time),197480.09999990463,004_o_m_n_a.png,I,m,1506,3,1,2526.699999809265,194953.40000009537,8074,VNB,B,2
3,test,2,0.0,1-Back,1.0,m,Wed Oct 22 2025 15:36:32 GMT-0500 (Central Daylight Time),200212.5,011_m_f_d_a.png,I,m,1702,4,1,2725.800000190735,197486.69999980927,8074,VNB,B,3
3,test,2,0.0,1-Back,0.0,z,Wed Oct 22 2025 15:36:32 GMT-0500 (Central Daylight Time),203245.40000009537,007_m_m_d_a.png,I,None,2016,5,1,3026.9000000953674,200218.5,8074,VNB,B,4
4,test,2,0.0,1-Back,1.0,m,Wed Oct 22 2025 15:36:32 GMT-0500 (Central Daylight Time),205910.90000009537,016_y_m_h_a.png,I,m,1648,6,1,2659.5999999046326,203251.30000019073,8074,VNB,B,5
5,test,2,1.0,1-Back,1.0,z,Wed Oct 22 2025 15:36:32 GMT-0500 (Central Daylight Time),208209.90000009537,005_o_f_h_a.png,I,z,1280,7,1,2293.800000190735,205916.09999990463,8074,VNB,B,6
6,test,2,0.0,1-Back,1.0,m,Wed Oct 22 2025 15:36:32 GMT-0500 (Central Daylight Time),210392.5,011_m_f_n_a.png,I,m,1164,8,1,2177.300000190735,208215.19999980927,8074,VNB,B,7
7,test,2,0.0,1-Back,1.0,m,Wed Oct 22 2025 15:36:32 GMT-0500 (Central Daylight Time),212841.90000009537,020_y_f_d_a.png,I,m,1422,9,1,2443.800000190735,210398.09999990463,8074,VNB,B,8
8,test,2,0.0,1-Back,1.0,m,Wed Oct 22 2025 15:36:32 GMT-0500 (Central Daylight Time),215191.09999990463,007_m_m_n_a.png,I,m,1324,10,1,2343.2999997138977,212847.80000019073,8074,VNB,B,9
9,test,2,1.0,1-Back,1.0,m,Wed Oct 22 2025 15:36:32 GMT-0500 (Central Daylight Time),217540.40000009537,011_m_f_h_a.png,I,m,1327,11,1,2343.7000002861023,215196.69999980927,8074,VNB,B,10
10,test,2,0.0,1-Back,1.0,z,Wed Oct 22 2025 15:36:32 GMT-0500 (Central Daylight Time),219506.30000019073,004_o_m_h_a.png,I,z,946,12,1,1960.2000002861023,217546.09999990463,8074,VNB,B,11
11,test,2,0.0,1-Back,1.0,m,Wed Oct 22 2025 15:36:32 GMT-0500 (Central Daylight Time),221439.0,016_y_m_d_a.png,I,m,915,13,1,1927.0,219512.0,8074,VNB,B,12
12,test,2,0.0,1-Back,1.0,m,Wed Oct 22 2025 15:36:32 GMT-0500 (Central Daylight Time),223806.30000019073,005_o_f_n_a.png,I,m,1350,14,1,2361.0,221445.30000019073,8074,VNB,B,13
13,test,2,0.0,1-Back,1.0,z,Wed Oct 22 2025 15:36:32 GMT-0500 (Central Daylight Time),226254.40000009537,020_y_f_n_a.png,I,z,1425,15,1,2442.300000190735,223812.09999990463,8074,VNB,B,14
14,test,2,1.0,1-Back,1.0,m,Wed Oct 22 2025 15:36:32 GMT-0500 (Central Daylight Time),228870.09999990463,007_m_m_h_a.png,I,m,1583,16,1,2610.199999809265,226259.90000009537,8074,VNB,B,15
15,test,2,0.0,1-Back,1.0,m,Wed Oct 22 2025 15:36:32 GMT-0500 (Central Daylight Time),231736.0,005_o_f_d_a.png,I,m,1840,17,1,2859.9000000953674,228876.09999990463,8074,VNB,B,16
15,test,2,1.0,1-Back,0.0,z,Wed Oct 22 2025 15:36:32 GMT-0500 (Central Daylight Time),233951.90000009537,004_o_m_d_a.png,I,m,1198,18,1,2209.300000190735,231742.59999990463,8074,VNB,B,17
0,test,3,1.0,1-Back,,,Wed Oct 22 2025 15:36:32 GMT-0500 (Central Daylight Time),233951.90000009537,005_o_f_h_a.png,I,space,6990,1,1,2209.300000190735,231742.59999990463,8074,VNB,B,0
1,test,3,0.0,1-Back,1.0,m,Wed Oct 22 2025 15:36:32 GMT-0500 (Central Daylight Time),245498.40000009537,011_m_f_d_a.png,I,m,1412,2,1,2427.5999999046326,243070.80000019073,8074,VNB,B,1
1,test,3,1.0,1-Back,0.0,m,Wed Oct 22 2025 15:36:32 GMT-0500 (Central Daylight Time),248048.90000009537,007_m_m_n_a.png,I,z,1531,3,1,2544.4000000953674,245504.5,8074,VNB,B,2
2,test,3,0.0,1-Back,1.0,z,Wed Oct 22 2025 15:36:32 GMT-0500 (Central Daylight Time),250213.40000009537,005_o_f_n_a.png,I,z,1143,4,1,2158.4000000953674,248055.0,8074,VNB,B,3
3,test,3,1.0,1-Back,1.0,m,Wed Oct 22 2025 15:36:32 GMT-0500 (Central Daylight Time),252779.40000009537,004_o_m_d_a.png,I,m,1537,5,1,2560.800000190735,250218.59999990463,8074,VNB,B,4
4,test,3,0.0,1-Back,1.0,m,Wed Oct 22 2025 15:36:32 GMT-0500 (Central Daylight Time),255045.30000019073,020_y_f_h_a.png,I,m,1243,6,1,2259.5,252785.80000019073,8074,VNB,B,5
5,test,3,0.0,1-Back,1.0,z,Wed Oct 22 2025 15:36:32 GMT-0500 (Central Daylight Time),257094.80000019073,016_y_m_h_a.png,I,z,1025,7,1,2043.9000000953674,255050.90000009537,8074,VNB,B,6
6,test,3,0.0,1-Back,1.0,m,Wed Oct 22 2025 15:36:32 GMT-0500 (Central Daylight Time),259277.40000009537,011_m_f_n_a.png,I,m,1160,8,1,2175.0999999046326,257102.30000019073,8074,VNB,B,7
7,test,3,0.0,1-Back,1.0,m,Wed Oct 22 2025 15:36:32 GMT-0500 (Central Daylight Time),261593.59999990463,020_y_f_d_a.png,I,m,1297,9,1,2310.7999997138977,259282.80000019073,8074,VNB,B,8
8,test,3,1.0,1-Back,1.0,m,Wed Oct 22 2025 15:36:32 GMT-0500 (Central Daylight Time),263809.19999980927,004_o_m_n_a.png,I,m,1188,10,1,2209.699999809265,261599.5,8074,VNB,B,9
9,test,3,0.0,1-Back,1.0,m,Wed Oct 22 2025 15:36:32 GMT-0500 (Central Daylight Time),266041.90000009537,007_m_m_h_a.png,I,m,1213,11,1,2227.2000002861023,263814.69999980927,8074,VNB,B,10
10,test,3,0.0,1-Back,1.0,z,Wed Oct 22 2025 15:36:32 GMT-0500 (Central Daylight Time),268041.19999980927,011_m_f_h_a.png,I,z,972,12,1,1993.5,266047.69999980927,8074,VNB,B,11
11,test,3,1.0,1-Back,1.0,m,Wed Oct 22 2025 15:36:32 GMT-0500 (Central Daylight Time),270473.80000019073,005_o_f_d_a.png,I,m,1413,13,1,2427.1000003814697,268046.69999980927,8074,VNB,B,12
11,test,3,0.0,1-Back,0.0,z,Wed Oct 22 2025 15:36:32 GMT-0500 (Central Daylight Time),272689.5,007_m_m_d_a.png,I,m,1195,14,1,2209.5999999046326,270479.90000009537,8074,VNB,B,13
12,test,3,0.0,1-Back,1.0,m,Wed Oct 22 2025 15:36:32 GMT-0500 (Central Daylight Time),275205.30000019073,016_y_m_n_a.png,I,m,1492,15,1,2510.1000003814697,272695.19999980927,8074,VNB,B,14
13,test,3,1.0,1-Back,1.0,m,Wed Oct 22 2025 15:36:32 GMT-0500 (Central Daylight Time),277388.09999990463,004_o_m_h_a.png,I,m,1160,16,1,2176.699999809265,275211.40000009537,8074,VNB,B,15
14,test,3,0.0,1-Back,1.0,m,Wed Oct 22 2025 15:36:32 GMT-0500 (Central Daylight Time),279471.30000019073,016_y_m_d_a.png,I,m,1058,17,1,2077.4000000953674,277393.90000009537,8074,VNB,B,16
15,test,3,1.0,1-Back,1.0,m,Wed Oct 22 2025 15:36:32 GMT-0500 (Central Daylight Time),281670.09999990463,020_y_f_n_a.png,I,m,1176,18,1,2193.2999997138977,279476.80000019073,8074,VNB,B,17
0,test,4,1.0,1-Back,,,Wed Oct 22 2025 15:36:32 GMT-0500 (Central Daylight Time),281670.09999990463,007_m_m_d_a.png,I,space,3719,1,1,2193.2999997138977,279476.80000019073,8074,VNB,B,0
1,test,4,0.0,1-Back,1.0,z,Wed Oct 22 2025 15:36:32 GMT-0500 (Central Daylight Time),290017.30000019073,004_o_m_d_a.png,I,z,1579,2,1,2592.5,287424.80000019073,8074,VNB,B,1
2,test,4,0.0,1-Back,1.0,m,Wed Oct 22 2025 15:36:32 GMT-0500 (Central Daylight Time),292249.90000009537,016_y_m_h_a.png,I,m,1204,3,1,2227.2000002861023,290022.69999980927,8074,VNB,B,2
3,test,4,0.0,1-Back,1.0,m,Wed Oct 22 2025 15:36:32 GMT-0500 (Central Daylight Time),294516.0,011_m_f_n_a.png,I,m,1243,4,1,2260.0999999046326,292255.90000009537,8074,VNB,B,3
4,test,4,1.0,1-Back,1.0,m,Wed Oct 22 2025 15:36:32 GMT-0500 (Central Daylight Time),296865.19999980927,005_o_f_h_a.png,I,m,1321,5,1,2343.8999996185303,294521.30000019073,8074,VNB,B,4
5,test,4,0.0,1-Back,1.0,m,Wed Oct 22 2025 15:36:32 GMT-0500 (Central Daylight Time),299164.59999990463,007_m_m_n_a.png,I,m,1268,6,1,2293.2999997138977,296871.30000019073,8074,VNB,B,5
6,test,4,0.0,1-Back,1.0,m,Wed Oct 22 2025 15:36:32 GMT-0500 (Central Daylight Time),301497.09999990463,016_y_m_d_a.png,I,m,1305,7,1,2326.2999997138977,299170.80000019073,8074,VNB,B,6
7,test,4,1.0,1-Back,1.0,z,Wed Oct 22 2025 15:36:32 GMT-0500 (Central Daylight Time),303696.40000009537,020_y_f_d_a.png,I,z,1180,8,1,2193.5,301502.90000009537,8074,VNB,B,7
8,test,4,0.0,1-Back,1.0,m,Wed Oct 22 2025 15:36:32 GMT-0500 (Central Daylight Time),306378.80000019073,011_m_f_h_a.png,I,m,1653,9,1,2675.0,303703.80000019073,8074,VNB,B,8
9,test,4,0.0,1-Back,1.0,z,Wed Oct 22 2025 15:36:32 GMT-0500 (Central Daylight Time),308361.5,004_o_m_h_a.png,I,z,955,10,1,1975.6999998092651,306385.80000019073,8074,VNB,B,9
10,test,4,1.0,1-Back,1.0,m,Wed Oct 22 2025 15:36:32 GMT-0500 (Central Daylight Time),310894.40000009537,005_o_f_n_a.png,I,m,1516,11,1,2527.800000190735,308366.59999990463,8074,VNB,B,10
11,test,4,0.0,1-Back,1.0,m,Wed Oct 22 2025 15:36:32 GMT-0500 (Central Daylight Time),313560.5,011_m_f_d_a.png,I,m,1647,12,1,2660.9000000953674,310899.59999990463,8074,VNB,B,11
11,test,4,0.0,1-Back,0.0,m,Wed Oct 22 2025 15:36:32 GMT-0500 (Central Daylight Time),315875.80000019073,020_y_f_n_a.png,I,z,1285,13,1,2309.300000190735,313566.5,8074,VNB,B,12
12,test,4,0.0,1-Back,1.0,m,Wed Oct 22 2025 15:36:32 GMT-0500 (Central Daylight Time),318675.09999990463,005_o_f_d_a.png,I,m,1778,14,1,2793.4000000953674,315881.69999980927,8074,VNB,B,13
13,test,4,0.0,1-Back,1.0,m,Wed Oct 22 2025 15:36:32 GMT-0500 (Central Daylight Time),320957.59999990463,020_y_f_h_a.png,I,m,1250,15,1,2276.9000000953674,318680.69999980927,8074,VNB,B,14
14,test,4,1.0,1-Back,1.0,z,Wed Oct 22 2025 15:36:32 GMT-0500 (Central Daylight Time),323023.59999990463,007_m_m_h_a.png,I,z,1048,16,1,2060.199999809265,320963.40000009537,8074,VNB,B,15
15,test,4,0.0,1-Back,1.0,m,Wed Oct 22 2025 15:36:32 GMT-0500 (Central Daylight Time),325589.59999990463,004_o_m_n_a.png,I,m,1534,17,1,2559.9000000953674,323029.69999980927,8074,VNB,B,16
16,test,4,1.0,1-Back,1.0,z,Wed Oct 22 2025 15:36:32 GMT-0500 (Central Daylight Time),327722.09999990463,016_y_m_n_a.png,I,z,1112,18,1,2126.0,325596.09999990463,8074,VNB,B,17
0,test,5,1.0,1-Back,,,Wed Oct 22 2025 15:36:32 GMT-0500 (Central Daylight Time),327722.09999990463,004_o_m_n_a.png,I,space,2395,1,1,2126.0,325596.09999990463,8074,VNB,B,0
1,test,5,1.0,1-Back,1.0,m,Wed Oct 22 2025 15:36:32 GMT-0500 (Central Daylight Time),334453.30000019073,005_o_f_h_a.png,I,m,1284,2,1,2309.2000002861023,332144.09999990463,8074,VNB,B,1
2,test,5,0.0,1-Back,1.0,m,Wed Oct 22 2025 15:36:32 GMT-0500 (Central Daylight Time),337019.40000009537,016_y_m_d_a.png,I,m,1536,3,1,2560.0999999046326,334459.30000019073,8074,VNB,B,2
3,test,5,0.0,1-Back,1.0,z,Wed Oct 22 2025 15:36:32 GMT-0500 (Central Daylight Time),339318.5,004_o_m_d_a.png,I,z,1267,4,1,2293.9000000953674,337024.59999990463,8074,VNB,B,3
4,test,5,0.0,1-Back,1.0,m,Wed Oct 22 2025 15:36:32 GMT-0500 (Central Daylight Time),341601.19999980927,011_m_f_h_a.png,I,m,1263,5,1,2277.0999999046326,339324.09999990463,8074,VNB,B,4
5,test,5,0.0,1-Back,1.0,m,Wed Oct 22 2025 15:36:32 GMT-0500 (Central Daylight Time),343717.09999990463,020_y_f_n_a.png,I,m,1092,6,1,2109.7999997138977,341607.30000019073,8074,VNB,B,5
6,test,5,1.0,1-Back,1.0,z,Wed Oct 22 2025 15:36:32 GMT-0500 (Central Daylight Time),345899.90000009537,005_o_f_n_a.png,I,z,1160,7,1,2176.9000000953674,343723.0,8074,VNB,B,6
6,test,5,0.0,1-Back,0.0,m,Wed Oct 22 2025 15:36:32 GMT-0500 (Central Daylight Time),348149.09999990463,011_m_f_d_a.png,I,z,1225,8,1,2242.7999997138977,345906.30000019073,8074,VNB,B,7
7,test,5,0.0,1-Back,1.0,m,Wed Oct 22 2025 15:36:32 GMT-0500 (Central Daylight Time),350498.30000019073,016_y_m_h_a.png,I,m,1328,9,1,2344.1000003814697,348154.19999980927,8074,VNB,B,8
8,test,5,0.0,1-Back,1.0,m,Wed Oct 22 2025 15:36:32 GMT-0500 (Central Daylight Time),352830.90000009537,020_y_f_d_a.png,I,m,1307,10,1,2326.800000190735,350504.09999990463,8074,VNB,B,9
9,test,5,0.0,1-Back,1.0,m,Wed Oct 22 2025 15:36:32 GMT-0500 (Central Daylight Time),355163.69999980927,007_m_m_n_a.png,I,m,1303,11,1,2326.199999809265,352837.5,8074,VNB,B,10
10,test,5,1.0,1-Back,1.0,z,Wed Oct 22 2025 15:36:32 GMT-0500 (Central Daylight Time),357196.30000019073,011_m_f_n_a.png,I,z,1010,12,1,2027.0,355169.30000019073,8074,VNB,B,11
11,test,5,0.0,1-Back,1.0,m,Wed Oct 22 2025 15:36:32 GMT-0500 (Central Daylight Time),359712.19999980927,004_o_m_h_a.png,I,m,1489,13,1,2510.199999809265,357202.0,8074,VNB,B,12
12,test,5,0.0,1-Back,1.0,z,Wed Oct 22 2025 15:36:32 GMT-0500 (Central Daylight Time),361761.5,007_m_m_h_a.png,I,z,1029,14,1,2043.3000001907349,359718.19999980927,8074,VNB,B,13
13,test,5,1.0,1-Back,1.0,m,Wed Oct 22 2025 15:36:32 GMT-0500 (Central Daylight Time),364494.0,005_o_f_d_a.png,I,m,1700,15,1,2725.9000000953674,361768.09999990463,8074,VNB,B,14
14,test,5,0.0,1-Back,1.0,m,Wed Oct 22 2025 15:36:32 GMT-0500 (Central Daylight Time),367326.30000019073,016_y_m_n_a.png,I,m,1807,16,1,2826.800000190735,364499.5,8074,VNB,B,15
15,test,5,0.0,1-Back,1.0,m,Wed Oct 22 2025 15:36:32 GMT-0500 (Central Daylight Time),369775.59999990463,020_y_f_h_a.png,I,m,1423,17,1,2443.0999999046326,367332.5,8074,VNB,B,16
16,test,5,0.0,1-Back,1.0,m,Wed Oct 22 2025 15:36:32 GMT-0500 (Central Daylight Time),372291.59999990463,007_m_m_d_a.png,I,m,1494,18,1,2510.199999809265,369781.40000009537,8074,VNB,B,17
0,prac,1,0.0,2-Back,,,Wed Oct 22 2025 15:36:32 GMT-0500 (Central Daylight Time),372291.59999990463,011_m_f_n_a.png,I,space,11680,1,1,2510.199999809265,369781.40000009537,8074,VNB,B,0
0,prac,1,0.0,2-Back,,,Wed Oct 22 2025 15:36:32 GMT-0500 (Central Daylight Time),372291.59999990463,005_o_f_h_a.png,I,space,11680,2,1,2510.199999809265,369781.40000009537,8074,VNB,B,0
1,prac,1,0.0,2-Back,1.0,m,Wed Oct 22 2025 15:36:32 GMT-0500 (Central Daylight Time),514213.80000019073,004_o_m_d_a.png,I,m,1944,3,1,2807.1000003814697,511406.69999980927,8074,VNB,B,1
2,prac,1,1.0,2-Back,1.0,z,Wed Oct 22 2025 15:36:32 GMT-0500 (Central Daylight Time),516779.59999990463,007_m_m_h_a.png,I,z,1673,4,1,2556.0,514223.59999990463,8074,VNB,B,2
3,prac,1,0.0,2-Back,1.0,m,Wed Oct 22 2025 15:36:32 GMT-0500 (Central Daylight Time),518979.09999990463,020_y_f_n_a.png,I,m,1324,5,1,2189.699999809265,516789.40000009537,8074,VNB,B,3
4,prac,1,1.0,2-Back,1.0,z,Wed Oct 22 2025 15:36:32 GMT-0500 (Central Daylight Time),520978.40000009537,004_o_m_h_a.png,I,z,1122,6,1,1989.3000001907349,518989.09999990463,8074,VNB,B,4
5,prac,1,1.0,2-Back,1.0,z,Wed Oct 22 2025 15:36:32 GMT-0500 (Central Daylight Time),523494.09999990463,016_y_m_n_a.png,I,z,1628,7,1,2505.9000000953674,520988.19999980927,8074,VNB,B,5
6,prac,1,0.0,2-Back,1.0,m,Wed Oct 22 2025 15:36:32 GMT-0500 (Central Daylight Time),526109.9000000954,011_m_f_d_a.png,I,m,1726,8,1,2605.9000000953674,523504.0,8074,VNB,B,6
6,prac,1,0.0,2-Back,0.0,m,Wed Oct 22 2025 15:36:32 GMT-0500 (Central Daylight Time),528475.9000000954,005_o_f_d_a.png,I,z,1473,9,1,2354.2000002861023,526121.6999998093,8074,VNB,B,7
7,prac,1,0.0,2-Back,1.0,m,Wed Oct 22 2025 15:36:32 GMT-0500 (Central Daylight Time),530525.1999998093,007_m_m_h_a.png,I,m,1266,10,1,2041.5999999046326,528483.5999999046,8074,VNB,B,8
8,prac,1,1.0,2-Back,1.0,z,Wed Oct 22 2025 15:36:32 GMT-0500 (Central Daylight Time),532374.5999999046,020_y_f_d_a.png,I,z,969,11,1,1838.9000000953674,530535.6999998093,8074,VNB,B,9
9,prac,1,0.0,2-Back,1.0,m,Wed Oct 22 2025 15:36:32 GMT-0500 (Central Daylight Time),534307.5,004_o_m_n_a.png,I,m,1051,12,1,1924.3000001907349,532383.1999998093,8074,VNB,B,10
0,test,1,0.0,2-Back,,,Wed Oct 22 2025 15:36:32 GMT-0500 (Central Daylight Time),534307.5,016_y_m_h_a.png,I,space,8219,1,1,1924.3000001907349,532383.1999998093,8074,VNB,B,0
0,test,1,0.0,2-Back,,,Wed Oct 22 2025 15:36:32 GMT-0500 (Central Daylight Time),534307.5,005_o_f_n_a.png,I,space,8219,2,1,1924.3000001907349,532383.1999998093,8074,VNB,B,0
1,test,1,0.0,2-Back,1.0,z,Wed Oct 22 2025 15:36:32 GMT-0500 (Central Daylight Time),557283.5,004_o_m_h_a.png,I,z,1419,3,1,2443.300000190735,554840.1999998093,8074,VNB,B,1
2,test,1,0.0,2-Back,1.0,m,Wed Oct 22 2025 15:36:32 GMT-0500 (Central Daylight Time),560032.6999998093,011_m_f_d_a.png,I,m,1722,4,1,2742.8999996185303,557289.8000001907,8074,VNB,B,2
2,test,1,1.0,2-Back,0.0,m,Wed Oct 22 2025 15:36:32 GMT-0500 (Central Daylight Time),563065.1999998093,016_y_m_n_a.png,I,None,2016,5,1,3025.3999996185303,560039.8000001907,8074,VNB,B,3
2,test,1,0.0,2-Back,0.0,z,Wed Oct 22 2025 15:36:32 GMT-0500 (Central Daylight Time),565181.0999999046,020_y_f_d_a.png,I,m,1084,6,1,2110.2999997138977,563070.8000001907,8074,VNB,B,4
2,test,1,0.0,2-Back,0.0,m,Wed Oct 22 2025 15:36:32 GMT-0500 (Central Daylight Time),567180.4000000954,007_m_m_h_a.png,I,z,968,7,1,1993.0999999046326,565187.3000001907,8074,VNB,B,5
2,test,1,1.0,2-Back,0.0,m,Wed Oct 22 2025 15:36:32 GMT-0500 (Central Daylight Time),570212.6999998093,020_y_f_n_a.png,I,None,2016,8,1,3026.7999997138977,567185.9000000954,8074,VNB,B,6
2,test,1,0.0,2-Back,0.0,z,Wed Oct 22 2025 15:36:32 GMT-0500 (Central Daylight Time),573245.1999998093,005_o_f_h_a.png,I,None,2016,9,1,3026.0999999046326,570219.0999999046,8074,VNB,B,7
3,test,1,0.0,2-Back,1.0,m,Wed Oct 22 2025 15:36:32 GMT-0500 (Central Daylight Time),575611.0999999046,004_o_m_d_a.png,I,m,1344,10,1,2360.0,573251.0999999046,8074,VNB,B,8
4,test,1,1.0,2-Back,1.0,m,Wed Oct 22 2025 15:36:32 GMT-0500 (Central Daylight Time),577927.0,007_m_m_d_a.png,I,m,1298,11,1,2310.0999999046326,575616.9000000954,8074,VNB,B,9
5,test,1,0.0,2-Back,1.0,m,Wed Oct 22 2025 15:36:32 GMT-0500 (Central Daylight Time),580426.1999998093,011_m_f_n_a.png,I,m,1478,12,1,2492.8999996185303,577933.3000001907,8074,VNB,B,10
5,test,1,0.0,2-Back,0.0,m,Wed Oct 22 2025 15:36:32 GMT-0500 (Central Daylight Time),582308.9000000954,020_y_f_h_a.png,I,z,851,13,1,1877.3000001907349,580431.5999999046,8074,VNB,B,11
5,test,1,0.0,2-Back,0.0,z,Wed Oct 22 2025 15:36:32 GMT-0500 (Central Daylight Time),584874.9000000954,007_m_m_n_a.png,I,m,1536,14,1,2560.2000002861023,582314.6999998093,8074,VNB,B,12
6,test,1,0.0,2-Back,1.0,m,Wed Oct 22 2025 15:36:32 GMT-0500 (Central Daylight Time),586974.0999999046,016_y_m_d_a.png,I,m,1074,15,1,2093.0999999046326,584881.0,8074,VNB,B,13
7,test,1,1.0,2-Back,1.0,m,Wed Oct 22 2025 15:36:32 GMT-0500 (Central Daylight Time),589256.8000001907,011_m_f_h_a.png,I,m,1263,16,1,2277.2000002861023,586979.5999999046,8074,VNB,B,14
8,test,1,0.0,2-Back,1.0,z,Wed Oct 22 2025 15:36:32 GMT-0500 (Central Daylight Time),591306.1999998093,005_o_f_d_a.png,I,z,1021,17,1,2043.5999999046326,589262.5999999046,8074,VNB,B,15
9,test,1,0.0,2-Back,1.0,m,Wed Oct 22 2025 15:36:32 GMT-0500 (Central Daylight Time),593588.6999998093,004_o_m_n_a.png,I,m,1259,18,1,2277.2999997138977,591311.4000000954,8074,VNB,B,16
0,test,2,0.0,2-Back,,,Wed Oct 22 2025 15:36:32 GMT-0500 (Central Daylight Time),593588.6999998093,007_m_m_h_a.png,I,space,11849,1,1,2277.2999997138977,591311.4000000954,8074,VNB,B,0
0,test,2,0.0,2-Back,,,Wed Oct 22 2025 15:36:32 GMT-0500 (Central Daylight Time),593588.6999998093,020_y_f_n_a.png,I,space,11849,2,1,2277.2999997138977,591311.4000000954,8074,VNB,B,0
0,test,2,1.0,2-Back,0.0,z,Wed Oct 22 2025 15:36:32 GMT-0500 (Central Daylight Time),613216.0,005_o_f_h_a.png,I,m,1506,3,1,2524.699999809265,610691.3000001907,8074,VNB,B,1
0,test,2,0.0,2-Back,0.0,m,Wed Oct 22 2025 15:36:32 GMT-0500 (Central Daylight Time),616250.6999998093,004_o_m_d_a.png,I,None,2018,4,1,3027.5999999046326,613223.0999999046,8074,VNB,B,2
1,test,2,0.0,2-Back,1.0,m,Wed Oct 22 2025 15:36:32 GMT-0500 (Central Daylight Time),618680.9000000954,011_m_f_d_a.png,I,m,1405,5,1,2425.5,616255.4000000954,8074,VNB,B,3
2,test,2,0.0,2-Back,1.0,m,Wed Oct 22 2025 15:36:32 GMT-0500 (Central Daylight Time),621030.0999999046,016_y_m_h_a.png,I,m,1317,6,1,2344.9000000953674,618685.1999998093,8074,VNB,B,4
3,test,2,0.0,2-Back,1.0,m,Wed Oct 22 2025 15:36:32 GMT-0500 (Central Daylight Time),623979.0999999046,005_o_f_n_a.png,I,m,1927,7,1,2945.5999999046326,621033.5,8074,VNB,B,5
4,test,2,1.0,2-Back,1.0,z,Wed Oct 22 2025 15:36:32 GMT-0500 (Central Daylight Time),626061.8000001907,004_o_m_h_a.png,I,z,1050,8,1,2077.9000000953674,623983.9000000954,8074,VNB,B,6
5,test,2,0.0,2-Back,1.0,m,Wed Oct 22 2025 15:36:32 GMT-0500 (Central Daylight Time),628294.5,020_y_f_d_a.png,I,m,1207,9,1,2226.0,626068.5,8074,VNB,B,7
5,test,2,0.0,2-Back,0.0,m,Wed Oct 22 2025 15:36:32 GMT-0500 (Central Daylight Time),631327.0,016_y_m_d_a.png,I,None,2016,10,1,3028.9000000953674,628298.0999999046,8074,VNB,B,8
6,test,2,0.0,2-Back,1.0,m,Wed Oct 22 2025 15:36:32 GMT-0500 (Central Daylight Time),633542.9000000954,007_m_m_n_a.png,I,m,1198,11,1,2209.9000000953674,631333.0,8074,VNB,B,9
7,test,2,0.0,2-Back,1.0,m,Wed Oct 22 2025 15:36:32 GMT-0500 (Central Daylight Time),635808.8000001907,011_m_f_h_a.png,I,m,1238,12,1,2259.5,633549.3000001907,8074,VNB,B,10
7,test,2,1.0,2-Back,0.0,z,Wed Oct 22 2025 15:36:32 GMT-0500 (Central Daylight Time),638308.0999999046,004_o_m_n_a.png,I,m,1477,13,1,2494.5999999046326,635813.5,8074,VNB,B,11
8,test,2,0.0,2-Back,1.0,m,Wed Oct 22 2025 15:36:32 GMT-0500 (Central Daylight Time),640374.0,005_o_f_d_a.png,I,m,1033,14,1,2061.199999809265,638312.8000001907,8074,VNB,B,12
9,test,2,0.0,2-Back,1.0,m,Wed Oct 22 2025 15:36:32 GMT-0500 (Central Daylight Time),642590.0999999046,020_y_f_h_a.png,I,m,1191,15,1,2209.5,640380.5999999046,8074,VNB,B,13
9,test,2,0.0,2-Back,0.0,z,Wed Oct 22 2025 15:36:32 GMT-0500 (Central Daylight Time),645355.6999998093,007_m_m_d_a.png,I,m,1743,16,1,2760.7999997138977,642594.9000000954,8074,VNB,B,14
10,test,2,0.0,2-Back,1.0,m,Wed Oct 22 2025 15:36:32 GMT-0500 (Central Daylight Time),647921.8000001907,016_y_m_n_a.png,I,m,1546,17,1,2561.9000000953674,645359.9000000954,8074,VNB,B,15
11,test,2,1.0,2-Back,1.0,m,Wed Oct 22 2025 15:36:32 GMT-0500 (Central Daylight Time),650454.0999999046,011_m_f_n_a.png,I,m,1500,18,1,2526.7999997138977,647927.3000001907,8074,VNB,B,16
0,test,3,1.0,2-Back,,,Wed Oct 22 2025 15:36:32 GMT-0500 (Central Daylight Time),650454.0999999046,004_o_m_n_a.png,I,space,4063,1,1,2526.7999997138977,647927.3000001907,8074,VNB,B,0
0,test,3,1.0,2-Back,,,Wed Oct 22 2025 15:36:32 GMT-0500 (Central Daylight Time),650454.0999999046,005_o_f_d_a.png,I,space,4063,2,1,2526.7999997138977,647927.3000001907,8074,VNB,B,0
1,test,3,0.0,2-Back,1.0,m,Wed Oct 22 2025 15:36:32 GMT-0500 (Central Daylight Time),661550.6999998093,020_y_f_h_a.png,I,m,949,3,1,1977.3999996185303,659573.3000001907,8074,VNB,B,1
1,test,3,0.0,2-Back,0.0,z,Wed Oct 22 2025 15:36:32 GMT-0500 (Central Daylight Time),663750.4000000954,011_m_f_d_a.png,I,m,1183,4,1,2195.2000002861023,661555.1999998093,8074,VNB,B,2
2,test,3,1.0,2-Back,1.0,m,Wed Oct 22 2025 15:36:32 GMT-0500 (Central Daylight Time),665682.8000001907,016_y_m_n_a.png,I,m,911,5,1,1928.4000000953674,663754.4000000954,8074,VNB,B,3
3,test,3,0.0,2-Back,1.0,m,Wed Oct 22 2025 15:36:32 GMT-0500 (Central Daylight Time),668380.9000000954,004_o_m_h_a.png,I,m,1667,6,1,2693.9000000953674,665687.0,8074,VNB,B,4
4,test,3,0.0,2-Back,1.0,z,Wed Oct 22 2025 15:36:32 GMT-0500 (Central Daylight Time),671147.8000001907,020_y_f_n_a.png,I,z,1743,7,1,2761.4000000953674,668386.4000000954,8074,VNB,B,5
5,test,3,1.0,2-Back,1.0,m,Wed Oct 22 2025 15:36:32 GMT-0500 (Central Daylight Time),673630.3000001907,007_m_m_d_a.png,I,m,1450,8,1,2478.0,671152.3000001907,8074,VNB,B,6
6,test,3,0.0,2-Back,1.0,m,Wed Oct 22 2025 15:36:32 GMT-0500 (Central Daylight Time),676112.9000000954,016_y_m_d_a.png,I,m,1455,9,1,2477.300000190735,673635.5999999046,8074,VNB,B,7
7,test,3,0.0,2-Back,1.0,m,Wed Oct 22 2025 15:36:32 GMT-0500 (Central Daylight Time),678478.8000001907,005_o_f_h_a.png,I,m,1348,10,1,2361.1000003814697,676117.6999998093,8074,VNB,B,8
8,test,3,1.0,2-Back,1.0,m,Wed Oct 22 2025 15:36:32 GMT-0500 (Central Daylight Time),680861.4000000954,011_m_f_n_a.png,I,m,1351,11,1,2375.0999999046326,678486.3000001907,8074,VNB,B,9
9,test,3,1.0,2-Back,1.0,z,Wed Oct 22 2025 15:36:32 GMT-0500 (Central Daylight Time),682727.4000000954,007_m_m_h_a.png,I,z,839,12,1,1861.9000000953674,680865.5,8074,VNB,B,10
10,test,3,0.0,2-Back,1.0,m,Wed Oct 22 2025 15:36:32 GMT-0500 (Central Daylight Time),685426.5999999046,020_y_f_d_a.png,I,m,1678,13,1,2694.199999809265,682732.4000000954,8074,VNB,B,11
11,test,3,0.0,2-Back,1.0,m,Wed Oct 22 2025 15:36:32 GMT-0500 (Central Daylight Time),687959.3000001907,005_o_f_n_a.png,I,m,1507,14,1,2527.7000002861023,685431.5999999046,8074,VNB,B,12
12,test,3,0.0,2-Back,1.0,z,Wed Oct 22 2025 15:36:32 GMT-0500 (Central Daylight Time),689941.8000001907,004_o_m_d_a.png,I,z,958,15,1,1978.1000003814697,687963.6999998093,8074,VNB,B,13
12,test,3,1.0,2-Back,0.0,m,Wed Oct 22 2025 15:36:32 GMT-0500 (Central Daylight Time),692574.3000001907,011_m_f_h_a.png,I,z,1600,16,1,2627.800000190735,689946.5,8074,VNB,B,14
12,test,3,0.0,2-Back,0.0,m,Wed Oct 22 2025 15:36:32 GMT-0500 (Central Daylight Time),695590.5999999046,007_m_m_n_a.png,I,z,1983,17,1,3012.5999999046326,692578.0,8074,VNB,B,15
12,test,3,0.0,2-Back,0.0,z,Wed Oct 22 2025 15:36:32 GMT-0500 (Central Daylight Time),698489.0999999046,016_y_m_h_a.png,I,m,1879,18,1,2894.4000000953674,695594.6999998093,8074,VNB,B,16
0,test,4,0.0,2-Back,,,Wed Oct 22 2025 15:36:32 GMT-0500 (Central Daylight Time),698489.0999999046,011_m_f_n_a.png,I,space,3892,1,1,2894.4000000953674,695594.6999998093,8074,VNB,B,0
0,test,4,0.0,2-Back,,,Wed Oct 22 2025 15:36:32 GMT-0500 (Central Daylight Time),698489.0999999046,004_o_m_n_a.png,I,space,3892,2,1,2894.4000000953674,695594.6999998093,8074,VNB,B,0
1,test,4,1.0,2-Back,1.0,m,Wed Oct 22 2025 15:36:32 GMT-0500 (Central Daylight Time),710218.8000001907,016_y_m_h_a.png,I,m,1586,3,1,2608.9000000953674,707609.9000000954,8074,VNB,B,1
1,test,4,1.0,2-Back,0.0,m,Wed Oct 22 2025 15:36:32 GMT-0500 (Central Daylight Time),713251.3000001907,005_o_f_d_a.png,I,None,2016,4,1,3026.2000002861023,710225.0999999046,8074,VNB,B,2
1,test,4,0.0,2-Back,0.0,z,Wed Oct 22 2025 15:36:32 GMT-0500 (Central Daylight Time),716283.5,004_o_m_h_a.png,I,None,2015,5,1,3027.0,713256.5,8074,VNB,B,3
1,test,4,0.0,2-Back,0.0,m,Wed Oct 22 2025 15:36:32 GMT-0500 (Central Daylight Time),718616.0999999046,007_m_m_n_a.png,I,z,1314,6,1,2328.4000000953674,716287.6999998093,8074,VNB,B,4
2,test,4,0.0,2-Back,1.0,m,Wed Oct 22 2025 15:36:32 GMT-0500 (Central Daylight Time),720898.8000001907,011_m_f_d_a.png,I,m,1253,7,1,2278.6000003814697,718620.1999998093,8074,VNB,B,5
2,test,4,0.0,2-Back,0.0,z,Wed Oct 22 2025 15:36:32 GMT-0500 (Central Daylight Time),723631.1999998093,020_y_f_n_a.png,I,m,1707,8,1,2727.199999809265,720904.0,8074,VNB,B,6
3,test,4,1.0,2-Back,1.0,m,Wed Oct 22 2025 15:36:32 GMT-0500 (Central Daylight Time),725897.5999999046,005_o_f_h_a.png,I,m,1238,9,1,2262.699999809265,723634.9000000954,8074,VNB,B,7
4,test,4,0.0,2-Back,1.0,m,Wed Oct 22 2025 15:36:32 GMT-0500 (Central Daylight Time),728246.5,007_m_m_h_a.png,I,m,1316,10,1,2344.199999809265,725902.3000001907,8074,VNB,B,8
5,test,4,0.0,2-Back,1.0,m,Wed Oct 22 2025 15:36:32 GMT-0500 (Central Daylight Time),730212.5,020_y_f_d_a.png,I,m,935,11,1,1960.6999998092651,728251.8000001907,8074,VNB,B,9
6,test,4,0.0,2-Back,1.0,m,Wed Oct 22 2025 15:36:32 GMT-0500 (Central Daylight Time),732395.0999999046,016_y_m_n_a.png,I,m,1153,12,1,2177.4000000953674,730217.6999998093,8074,VNB,B,10
7,test,4,0.0,2-Back,1.0,z,Wed Oct 22 2025 15:36:32 GMT-0500 (Central Daylight Time),734294.5,004_o_m_d_a.png,I,z,866,13,1,1893.4000000953674,732401.0999999046,8074,VNB,B,11
8,test,4,1.0,2-Back,1.0,m,Wed Oct 22 2025 15:36:32 GMT-0500 (Central Daylight Time),736310.5999999046,011_m_f_h_a.png,I,m,998,14,1,2011.0,734299.5999999046,8074,VNB,B,12
9,test,4,1.0,2-Back,1.0,m,Wed Oct 22 2025 15:36:32 GMT-0500 (Central Daylight Time),738576.6999998093,020_y_f_h_a.png,I,m,1247,15,1,2261.3999996185303,736315.3000001907,8074,VNB,B,13
9,test,4,0.0,2-Back,0.0,m,Wed Oct 22 2025 15:36:32 GMT-0500 (Central Daylight Time),741042.5999999046,005_o_f_n_a.png,I,z,1437,16,1,2461.2999997138977,738581.3000001907,8074,VNB,B,14
10,test,4,0.0,2-Back,1.0,m,Wed Oct 22 2025 15:36:32 GMT-0500 (Central Daylight Time),743824.8000001907,016_y_m_d_a.png,I,m,1755,17,1,2777.4000000953674,741047.4000000954,8074,VNB,B,15
11,test,4,1.0,2-Back,1.0,m,Wed Oct 22 2025 15:36:32 GMT-0500 (Central Daylight Time),746590.5999999046,007_m_m_d_a.png,I,m,1741,18,1,2761.199999809265,743829.4000000954,8074,VNB,B,16
0,test,5,1.0,2-Back,,,Wed Oct 22 2025 15:36:32 GMT-0500 (Central Daylight Time),746590.5999999046,020_y_f_d_a.png,I,space,3599,1,1,2761.199999809265,743829.4000000954,8074,VNB,B,0
0,test,5,1.0,2-Back,,,Wed Oct 22 2025 15:36:32 GMT-0500 (Central Daylight Time),746590.5999999046,005_o_f_h_a.png,I,space,3599,2,1,2761.199999809265,743829.4000000954,8074,VNB,B,0
1,test,5,1.0,2-Back,1.0,z,Wed Oct 22 2025 15:36:32 GMT-0500 (Central Daylight Time),757670.5999999046,004_o_m_d_a.png,I,z,1199,3,1,2225.699999809265,755444.9000000954,8074,VNB,B,1
1,test,5,1.0,2-Back,0.0,m,Wed Oct 22 2025 15:36:32 GMT-0500 (Central Daylight Time),760703.0999999046,011_m_f_n_a.png,I,None,2015,4,1,3027.9000000953674,757675.1999998093,8074,VNB,B,2
2,test,5,0.0,2-Back,1.0,m,Wed Oct 22 2025 15:36:32 GMT-0500 (Central Daylight Time),763603.0,007_m_m_h_a.png,I,m,1870,5,1,2895.9000000953674,760707.0999999046,8074,VNB,B,3
3,test,5,0.0,2-Back,1.0,z,Wed Oct 22 2025 15:36:32 GMT-0500 (Central Daylight Time),765767.9000000954,020_y_f_n_a.png,I,z,1139,6,1,2160.5,763607.4000000954,8074,VNB,B,4
4,test,5,0.0,2-Back,1.0,m,Wed Oct 22 2025 15:36:32 GMT-0500 (Central Daylight Time),768550.5,005_o_f_d_a.png,I,m,1757,7,1,2777.800000190735,765772.6999998093,8074,VNB,B,5
5,test,5,0.0,2-Back,1.0,m,Wed Oct 22 2025 15:36:32 GMT-0500 (Central Daylight Time),771549.5999999046,004_o_m_h_a.png,I,m,1975,8,1,2992.7999997138977,768556.8000001907,8074,VNB,B,6
5,test,5,1.0,2-Back,0.0,z,Wed Oct 22 2025 15:36:32 GMT-0500 (Central Daylight Time),774581.9000000954,011_m_f_d_a.png,I,None,2015,9,1,3026.7000002861023,771555.1999998093,8074,VNB,B,7
6,test,5,0.0,2-Back,1.0,m,Wed Oct 22 2025 15:36:32 GMT-0500 (Central Daylight Time),776647.9000000954,016_y_m_n_a.png,I,m,1047,10,1,2061.800000190735,774586.0999999046,8074,VNB,B,8
7,test,5,0.0,2-Back,1.0,m,Wed Oct 22 2025 15:36:32 GMT-0500 (Central Daylight Time),778914.1999998093,007_m_m_n_a.png,I,m,1237,11,1,2259.0999999046326,776655.0999999046,8074,VNB,B,9
8,test,5,0.0,2-Back,1.0,m,Wed Oct 22 2025 15:36:32 GMT-0500 (Central Daylight Time),781263.0999999046,020_y_f_h_a.png,I,m,1323,12,1,2345.199999809265,778917.9000000954,8074,VNB,B,10
9,test,5,0.0,2-Back,1.0,m,Wed Oct 22 2025 15:36:32 GMT-0500 (Central Daylight Time),783412.5,016_y_m_d_a.png,I,m,1126,13,1,2145.4000000953674,781267.0999999046,8074,VNB,B,11
10,test,5,1.0,2-Back,1.0,z,Wed Oct 22 2025 15:36:32 GMT-0500 (Central Daylight Time),786327.5,011_m_f_h_a.png,I,z,1898,14,1,2909.4000000953674,783418.0999999046,8074,VNB,B,12
11,test,5,0.0,2-Back,1.0,m,Wed Oct 22 2025 15:36:32 GMT-0500 (Central Daylight Time),788777.5,004_o_m_n_a.png,I,m,1429,15,1,2445.5999999046326,786331.9000000954,8074,VNB,B,13
11,test,5,0.0,2-Back,0.0,m,Wed Oct 22 2025 15:36:32 GMT-0500 (Central Daylight Time),791093.4000000954,007_m_m_d_a.png,I,z,1285,16,1,2310.0,788783.4000000954,8074,VNB,B,14
11,test,5,0.0,2-Back,0.0,z,Wed Oct 22 2025 15:36:32 GMT-0500 (Central Daylight Time),793126.1999998093,005_o_f_n_a.png,I,m,1008,17,1,2028.5999999046326,791097.5999999046,8074,VNB,B,15
11,test,5,1.0,2-Back,0.0,m,Wed Oct 22 2025 15:36:32 GMT-0500 (Central Daylight Time),795675.4000000954,016_y_m_h_a.png,I,z,1519,18,1,2543.800000190735,793131.5999999046,8074,VNB,B,16
