acc_sum,block,block_c,change,condition,correct,correct_response,datetime,endtime,face,project,response,response_time,row_sel,session_number,start_end,starttime,subject_id,task,task_vers,trial
0,prac,1,,1-Back,,,Fri May 08 2026 13:57:25 GMT-0500 (Central Daylight Time),,124_o_f_d_a.png,I,space,2257,1,,,,8074,VNB,A,0
1,prac,1,0.0,1-Back,1.0,m,Fri May 08 2026 13:57:25 GMT-0500 (Central Daylight Time),117710.60000002384,071_y_f_n_a.png,I,m,1516,2,,2324.5,115386.10000002384,8074,VNB,A,1
2,prac,1,0.0,1-Back,1.0,m,Fri May 08 2026 13:57:25 GMT-0500 (Central Daylight Time),120359.60000002384,165_m_m_h_a.png,I,m,1850,3,,2643.100000023842,117716.5,8074,VNB,A,2
3,prac,1,0.0,1-Back,1.0,m,Fri May 08 2026 13:57:25 GMT-0500 (Central Daylight Time),122425.79999995232,109_y_m_d_a.png,I,m,1253,4,,2059.6999999284744,120366.10000002384,8074,VNB,A,3
4,prac,1,0.0,1-Back,1.0,m,Fri May 08 2026 13:57:25 GMT-0500 (Central Daylight Time),124625.10000002384,124_o_f_n_a.png,I,m,1361,5,,2193.0,122432.10000002384,8074,VNB,A,4
5,prac,1,1.0,1-Back,1.0,z,Fri May 08 2026 13:57:25 GMT-0500 (Central Daylight Time),126391.0,109_y_m_n_a.png,I,z,954,6,,1759.1000000238419,124631.89999997616,8074,VNB,A,5
6,prac,1,0.0,1-Back,1.0,m,Fri May 08 2026 13:57:25 GMT-0500 (Central Daylight Time),128141.70000004768,039_o_m_h_a.png,I,m,948,7,,1743.7000000476837,126398.0,8074,VNB,A,6
7,prac,1,0.0,1-Back,1.0,m,Fri May 08 2026 13:57:25 GMT-0500 (Central Daylight Time),130023.29999995232,139_m_f_d_a.png,I,m,1074,8,,1874.5999999046326,128148.70000004768,8074,VNB,A,7
8,prac,1,1.0,1-Back,1.0,z,Fri May 08 2026 13:57:25 GMT-0500 (Central Daylight Time),131739.60000002384,071_y_f_d_a.png,I,z,907,9,,1709.8000000715256,130029.79999995232,8074,VNB,A,8
9,prac,1,0.0,1-Back,1.0,m,Fri May 08 2026 13:57:25 GMT-0500 (Central Daylight Time),133373.39999997616,165_m_m_n_a.png,I,m,821,10,,1626.8999999761581,131746.5,8074,VNB,A,9
9,prac,1,0.0,1-Back,0.0,m,Fri May 08 2026 13:57:25 GMT-0500 (Central Daylight Time),135121.5,124_o_f_h_a.png,I,z,922,11,,1741.7999999523163,133379.70000004768,8074,VNB,A,10
10,prac,1,0.0,1-Back,1.0,m,Fri May 08 2026 13:57:25 GMT-0500 (Central Daylight Time),136887.60000002384,109_y_m_d_a.png,I,m,986,12,,1759.6000000238419,135128.0,8074,VNB,A,11
0,test,1,0.0,1-Back,,,Fri May 08 2026 13:57:25 GMT-0500 (Central Daylight Time),136887.60000002384,071_y_f_d_a.png,I,space,2995,1,,1759.6000000238419,135128.0,8074,VNB,A,0
1,test,1,0.0,1-Back,1.0,m,Fri May 08 2026 13:57:25 GMT-0500 (Central Daylight Time),148635.20000004768,139_m_f_n_a.png,I,m,1390,2,,2528.9000000953674,146106.29999995232,8074,VNB,A,1
2,test,1,0.0,1-Back,1.0,m,Fri May 08 2026 13:57:25 GMT-0500 (Central Daylight Time),150983.29999995232,039_o_m_h_a.png,I,m,1319,3,,2345.0999999046326,148638.20000004768,8074,VNB,A,2
3,test,1,1.0,1-Back,1.0,z,Fri May 08 2026 13:57:25 GMT-0500 (Central Daylight Time),152782.79999995232,165_m_m_h_a.png,I,z,770,4,,1797.0999999046326,150985.70000004768,8074,VNB,A,3
4,test,1,0.0,1-Back,1.0,m,Fri May 08 2026 13:57:25 GMT-0500 (Central Daylight Time),154782.29999995232,124_o_f_n_a.png,I,m,979,5,,1997.0,152785.29999995232,8074,VNB,A,4
5,test,1,0.0,1-Back,1.0,m,Fri May 08 2026 13:57:25 GMT-0500 (Central Daylight Time),156866.0,109_y_m_d_a.png,I,m,1059,6,,2081.100000023842,154784.89999997616,8074,VNB,A,5
6,test,1,1.0,1-Back,1.0,z,Fri May 08 2026 13:57:25 GMT-0500 (Central Daylight Time),158847.29999995232,139_m_f_d_a.png,I,z,951,7,,1978.2999999523163,156869.0,8074,VNB,A,6
7,test,1,0.0,1-Back,1.0,m,Fri May 08 2026 13:57:25 GMT-0500 (Central Daylight Time),161229.79999995232,071_y_f_h_a.png,I,m,1352,8,,2379.6999999284744,158850.10000002384,8074,VNB,A,7
8,test,1,0.0,1-Back,1.0,m,Fri May 08 2026 13:57:25 GMT-0500 (Central Daylight Time),163446.20000004768,039_o_m_n_a.png,I,m,1195,9,,2213.9000000953674,161232.29999995232,8074,VNB,A,8
9,test,1,0.0,1-Back,1.0,m,Fri May 08 2026 13:57:25 GMT-0500 (Central Daylight Time),165829.0,109_y_m_h_a.png,I,m,1355,10,,2380.100000023842,163448.89999997616,8074,VNB,A,9
10,test,1,0.0,1-Back,1.0,m,Fri May 08 2026 13:57:25 GMT-0500 (Central Daylight Time),167944.79999995232,039_o_m_d_a.png,I,m,1091,11,,2113.2999999523163,165831.5,8074,VNB,A,10
11,test,1,1.0,1-Back,1.0,z,Fri May 08 2026 13:57:25 GMT-0500 (Central Daylight Time),170227.29999995232,124_o_f_d_a.png,I,z,1264,12,,2279.899999976158,167947.39999997616,8074,VNB,A,11
12,test,1,0.0,1-Back,1.0,m,Fri May 08 2026 13:57:25 GMT-0500 (Central Daylight Time),172726.29999995232,165_m_m_n_a.png,I,m,1470,13,,2496.5,170229.79999995232,8074,VNB,A,12
13,test,1,1.0,1-Back,1.0,z,Fri May 08 2026 13:57:25 GMT-0500 (Central Daylight Time),174942.60000002384,071_y_f_n_a.png,I,z,1187,14,,2213.899999976158,172728.70000004768,8074,VNB,A,13
14,test,1,0.0,1-Back,1.0,m,Fri May 08 2026 13:57:25 GMT-0500 (Central Daylight Time),177558.10000002384,139_m_f_h_a.png,I,m,1586,15,,2612.7000000476837,174945.39999997616,8074,VNB,A,14
15,test,1,0.0,1-Back,1.0,m,Fri May 08 2026 13:57:25 GMT-0500 (Central Daylight Time),179724.29999995232,165_m_m_d_a.png,I,m,1146,16,,2163.0999999046326,177561.20000004768,8074,VNB,A,15
16,test,1,0.0,1-Back,1.0,m,Fri May 08 2026 13:57:25 GMT-0500 (Central Daylight Time),182007.0,109_y_m_n_a.png,I,m,1253,17,,2280.100000023842,179726.89999997616,8074,VNB,A,16
17,test,1,0.0,1-Back,1.0,m,Fri May 08 2026 13:57:25 GMT-0500 (Central Daylight Time),184339.10000002384,124_o_f_h_a.png,I,m,1313,18,,2329.0,182010.10000002384,8074,VNB,A,17
0,test,2,0.0,1-Back,,,Fri May 08 2026 13:57:25 GMT-0500 (Central Daylight Time),184339.10000002384,109_y_m_n_a.png,I,space,1542,1,,2329.0,182010.10000002384,8074,VNB,A,0
1,test,2,0.0,1-Back,1.0,m,Fri May 08 2026 13:57:25 GMT-0500 (Central Daylight Time),190120.89999997616,071_y_f_h_a.png,I,m,1183,2,,2211.5,187909.39999997616,8074,VNB,A,1
2,test,2,1.0,1-Back,1.0,m,Fri May 08 2026 13:57:25 GMT-0500 (Central Daylight Time),192520.20000004768,039_o_m_n_a.png,I,m,1368,3,,2396.7000000476837,190123.5,8074,VNB,A,2
3,test,2,0.0,1-Back,1.0,m,Fri May 08 2026 13:57:25 GMT-0500 (Central Daylight Time),194569.70000004768,139_m_f_d_a.png,I,m,1016,4,,2046.6000000238419,192523.10000002384,8074,VNB,A,3
4,test,2,0.0,1-Back,1.0,z,Fri May 08 2026 13:57:25 GMT-0500 (Central Daylight Time),196752.39999997616,165_m_m_d_a.png,I,z,1151,5,,2180.0,194572.39999997616,8074,VNB,A,4
5,test,2,0.0,1-Back,1.0,m,Fri May 08 2026 13:57:25 GMT-0500 (Central Daylight Time),198901.70000004768,109_y_m_h_a.png,I,m,1129,6,,2146.3000000715256,196755.39999997616,8074,VNB,A,5
6,test,2,1.0,1-Back,1.0,z,Fri May 08 2026 13:57:25 GMT-0500 (Central Daylight Time),201034.39999997616,124_o_f_h_a.png,I,z,1100,7,,2130.1999999284744,198904.20000004768,8074,VNB,A,6
7,test,2,0.0,1-Back,1.0,m,Fri May 08 2026 13:57:25 GMT-0500 (Central Daylight Time),203416.79999995232,139_m_f_n_a.png,I,m,1359,8,,2380.0,201036.79999995232,8074,VNB,A,7
8,test,2,0.0,1-Back,1.0,m,Fri May 08 2026 13:57:25 GMT-0500 (Central Daylight Time),205716.20000004768,071_y_f_d_a.png,I,m,1280,9,,2296.4000000953674,203419.79999995232,8074,VNB,A,8
9,test,2,0.0,1-Back,1.0,m,Fri May 08 2026 13:57:25 GMT-0500 (Central Daylight Time),208215.39999997616,165_m_m_n_a.png,I,m,1477,10,,2496.6999999284744,205718.70000004768,8074,VNB,A,9
10,test,2,1.0,1-Back,1.0,m,Fri May 08 2026 13:57:25 GMT-0500 (Central Daylight Time),210714.79999995232,139_m_f_h_a.png,I,m,1467,11,,2496.5,208218.29999995232,8074,VNB,A,10
11,test,2,0.0,1-Back,1.0,z,Fri May 08 2026 13:57:25 GMT-0500 (Central Daylight Time),212864.10000002384,039_o_m_h_a.png,I,z,1119,12,,2146.8000000715256,210717.29999995232,8074,VNB,A,11
12,test,2,0.0,1-Back,1.0,m,Fri May 08 2026 13:57:25 GMT-0500 (Central Daylight Time),215579.60000002384,109_y_m_d_a.png,I,m,1696,13,,2712.8000000715256,212866.79999995232,8074,VNB,A,12
13,test,2,0.0,1-Back,1.0,m,Fri May 08 2026 13:57:25 GMT-0500 (Central Daylight Time),217992.0,124_o_f_n_a.png,I,m,1378,14,,2409.5,215582.5,8074,VNB,A,13
14,test,2,0.0,1-Back,1.0,z,Fri May 08 2026 13:57:25 GMT-0500 (Central Daylight Time),220128.5,071_y_f_n_a.png,I,z,1110,15,,2133.7000000476837,217994.79999995232,8074,VNB,A,14
15,test,2,1.0,1-Back,1.0,m,Fri May 08 2026 13:57:25 GMT-0500 (Central Daylight Time),222544.10000002384,165_m_m_h_a.png,I,m,1385,16,,2413.2000000476837,220130.89999997616,8074,VNB,A,15
16,test,2,0.0,1-Back,1.0,m,Fri May 08 2026 13:57:25 GMT-0500 (Central Daylight Time),224410.5,124_o_f_d_a.png,I,m,841,17,,1863.8999999761581,222546.60000002384,8074,VNB,A,16
17,test,2,1.0,1-Back,1.0,z,Fri May 08 2026 13:57:25 GMT-0500 (Central Daylight Time),226443.20000004768,039_o_m_d_a.png,I,z,1007,18,,2030.2000000476837,224413.0,8074,VNB,A,17
0,test,3,1.0,1-Back,,,Fri May 08 2026 13:57:25 GMT-0500 (Central Daylight Time),226443.20000004768,124_o_f_h_a.png,I,space,2654,1,,2030.2000000476837,224413.0,8074,VNB,A,0
1,test,3,0.0,1-Back,1.0,m,Fri May 08 2026 13:57:25 GMT-0500 (Central Daylight Time),232974.29999995232,139_m_f_d_a.png,I,m,787,2,,1811.7999999523163,231162.5,8074,VNB,A,1
2,test,3,1.0,1-Back,1.0,m,Fri May 08 2026 13:57:25 GMT-0500 (Central Daylight Time),235257.0,165_m_m_n_a.png,I,m,1250,3,,2280.0,232977.0,8074,VNB,A,2
3,test,3,0.0,1-Back,1.0,z,Fri May 08 2026 13:57:25 GMT-0500 (Central Daylight Time),237356.39999997616,124_o_f_n_a.png,I,z,1081,4,,2097.0,235259.39999997616,8074,VNB,A,3
4,test,3,1.0,1-Back,1.0,m,Fri May 08 2026 13:57:25 GMT-0500 (Central Daylight Time),239439.10000002384,039_o_m_d_a.png,I,m,1053,5,,2079.899999976158,237359.20000004768,8074,VNB,A,4
5,test,3,0.0,1-Back,1.0,m,Fri May 08 2026 13:57:25 GMT-0500 (Central Daylight Time),241562.20000004768,071_y_f_h_a.png,I,m,1107,6,,2120.3000000715256,239441.89999997616,8074,VNB,A,5
6,test,3,0.0,1-Back,1.0,z,Fri May 08 2026 13:57:25 GMT-0500 (Central Daylight Time),243854.39999997616,109_y_m_h_a.png,I,z,1277,7,,2289.899999976158,241564.5,8074,VNB,A,6
7,test,3,0.0,1-Back,1.0,m,Fri May 08 2026 13:57:25 GMT-0500 (Central Daylight Time),246170.39999997616,139_m_f_n_a.png,I,m,1283,8,,2313.0,243857.39999997616,8074,VNB,A,7
8,test,3,0.0,1-Back,1.0,m,Fri May 08 2026 13:57:25 GMT-0500 (Central Daylight Time),248535.89999997616,071_y_f_d_a.png,I,m,1342,9,,2363.0,246172.89999997616,8074,VNB,A,8
9,test,3,1.0,1-Back,1.0,m,Fri May 08 2026 13:57:25 GMT-0500 (Central Daylight Time),251035.10000002384,039_o_m_n_a.png,I,m,1481,10,,2496.600000023842,248538.5,8074,VNB,A,9
10,test,3,0.0,1-Back,1.0,m,Fri May 08 2026 13:57:25 GMT-0500 (Central Daylight Time),253434.70000004768,165_m_m_h_a.png,I,m,1374,11,,2397.4000000953674,251037.29999995232,8074,VNB,A,10
11,test,3,0.0,1-Back,1.0,z,Fri May 08 2026 13:57:25 GMT-0500 (Central Daylight Time),255567.20000004768,139_m_f_h_a.png,I,z,1103,12,,2130.0,253437.20000004768,8074,VNB,A,11
12,test,3,1.0,1-Back,1.0,m,Fri May 08 2026 13:57:25 GMT-0500 (Central Daylight Time),257500.0,124_o_f_d_a.png,I,m,914,13,,1930.2000000476837,255569.79999995232,8074,VNB,A,12
13,test,3,0.0,1-Back,1.0,z,Fri May 08 2026 13:57:25 GMT-0500 (Central Daylight Time),259549.10000002384,165_m_m_d_a.png,I,z,1029,14,,2046.6000000238419,257502.5,8074,VNB,A,13
14,test,3,0.0,1-Back,1.0,m,Fri May 08 2026 13:57:25 GMT-0500 (Central Daylight Time),262098.70000004768,109_y_m_n_a.png,I,m,1523,15,,2547.3000000715256,259551.39999997616,8074,VNB,A,14
15,test,3,1.0,1-Back,1.0,m,Fri May 08 2026 13:57:25 GMT-0500 (Central Daylight Time),264747.7000000477,039_o_m_h_a.png,I,m,1623,16,,2646.600000023842,262101.10000002384,8074,VNB,A,15
16,test,3,0.0,1-Back,1.0,m,Fri May 08 2026 13:57:25 GMT-0500 (Central Daylight Time),267147.0,109_y_m_d_a.png,I,m,1366,17,,2396.600000023842,264750.39999997616,8074,VNB,A,16
17,test,3,1.0,1-Back,1.0,m,Fri May 08 2026 13:57:25 GMT-0500 (Central Daylight Time),269762.89999997616,071_y_f_n_a.png,I,m,1590,18,,2613.399999976158,267149.5,8074,VNB,A,17
0,test,4,1.0,1-Back,,,Fri May 08 2026 13:57:25 GMT-0500 (Central Daylight Time),269762.89999997616,165_m_m_d_a.png,I,space,1687,1,,2613.399999976158,267149.5,8074,VNB,A,0
1,test,4,0.0,1-Back,1.0,z,Fri May 08 2026 13:57:25 GMT-0500 (Central Daylight Time),275660.89999997616,039_o_m_d_a.png,I,z,1163,2,,2177.899999976158,273483.0,8074,VNB,A,1
2,test,4,0.0,1-Back,1.0,m,Fri May 08 2026 13:57:25 GMT-0500 (Central Daylight Time),277893.60000002384,109_y_m_h_a.png,I,m,1204,3,,2230.399999976158,275663.2000000477,8074,VNB,A,2
3,test,4,0.0,1-Back,1.0,m,Fri May 08 2026 13:57:25 GMT-0500 (Central Daylight Time),280109.2999999523,139_m_f_n_a.png,I,m,1188,4,,2213.0,277896.2999999523,8074,VNB,A,3
4,test,4,1.0,1-Back,1.0,m,Fri May 08 2026 13:57:25 GMT-0500 (Central Daylight Time),282625.89999997616,124_o_f_h_a.png,I,m,1484,5,,2513.7999999523163,280112.10000002384,8074,VNB,A,4
5,test,4,0.0,1-Back,1.0,m,Fri May 08 2026 13:57:25 GMT-0500 (Central Daylight Time),285158.10000002384,165_m_m_n_a.png,I,m,1504,6,,2529.899999976158,282628.2000000477,8074,VNB,A,5
6,test,4,0.0,1-Back,1.0,m,Fri May 08 2026 13:57:25 GMT-0500 (Central Daylight Time),288057.39999997616,109_y_m_d_a.png,I,m,1875,7,,2896.5,285160.89999997616,8074,VNB,A,6
7,test,4,1.0,1-Back,1.0,z,Fri May 08 2026 13:57:25 GMT-0500 (Central Daylight Time),290522.89999997616,071_y_f_d_a.png,I,z,1440,8,,2462.899999976158,288060.0,8074,VNB,A,7
8,test,4,0.0,1-Back,1.0,m,Fri May 08 2026 13:57:25 GMT-0500 (Central Daylight Time),293056.7000000477,139_m_f_h_a.png,I,m,1502,9,,2530.2000000476837,290526.5,8074,VNB,A,8
9,test,4,0.0,1-Back,1.0,z,Fri May 08 2026 13:57:25 GMT-0500 (Central Daylight Time),295104.89999997616,039_o_m_h_a.png,I,z,1017,10,,2045.2999999523163,293059.60000002384,8074,VNB,A,9
10,test,4,1.0,1-Back,1.0,m,Fri May 08 2026 13:57:25 GMT-0500 (Central Daylight Time),297320.89999997616,124_o_f_n_a.png,I,m,1192,11,,2213.600000023842,295107.2999999523,8074,VNB,A,10
11,test,4,0.0,1-Back,1.0,m,Fri May 08 2026 13:57:25 GMT-0500 (Central Daylight Time),299703.2999999523,139_m_f_d_a.png,I,m,1352,12,,2379.7999999523163,297323.5,8074,VNB,A,11
12,test,4,0.0,1-Back,1.0,m,Fri May 08 2026 13:57:25 GMT-0500 (Central Daylight Time),302185.7999999523,071_y_f_n_a.png,I,m,1458,13,,2479.5,299706.2999999523,8074,VNB,A,12
13,test,4,0.0,1-Back,1.0,m,Fri May 08 2026 13:57:25 GMT-0500 (Central Daylight Time),304351.89999997616,124_o_f_d_a.png,I,m,1143,14,,2163.5,302188.39999997616,8074,VNB,A,13
14,test,4,0.0,1-Back,1.0,m,Fri May 08 2026 13:57:25 GMT-0500 (Central Daylight Time),306484.7000000477,071_y_f_h_a.png,I,m,1114,15,,2130.2000000476837,304354.5,8074,VNB,A,14
15,test,4,1.0,1-Back,1.0,z,Fri May 08 2026 13:57:25 GMT-0500 (Central Daylight Time),308584.2000000477,165_m_m_h_a.png,I,z,1077,16,,2097.0,306487.2000000477,8074,VNB,A,15
16,test,4,0.0,1-Back,1.0,m,Fri May 08 2026 13:57:25 GMT-0500 (Central Daylight Time),311117.7000000477,039_o_m_n_a.png,I,m,1505,17,,2530.600000023842,308587.10000002384,8074,VNB,A,16
17,test,4,1.0,1-Back,1.0,z,Fri May 08 2026 13:57:25 GMT-0500 (Central Daylight Time),313682.60000002384,109_y_m_n_a.png,I,z,1428,18,,2562.0,311120.60000002384,8074,VNB,A,17
0,test,5,1.0,1-Back,,,Fri May 08 2026 13:57:25 GMT-0500 (Central Daylight Time),313682.60000002384,039_o_m_n_a.png,I,space,2647,1,,2562.0,311120.60000002384,8074,VNB,A,0
1,test,5,1.0,1-Back,1.0,m,Fri May 08 2026 13:57:25 GMT-0500 (Central Daylight Time),320480.2000000477,124_o_f_h_a.png,I,m,1102,2,,2128.2000000476837,318352.0,8074,VNB,A,1
2,test,5,0.0,1-Back,1.0,m,Fri May 08 2026 13:57:25 GMT-0500 (Central Daylight Time),322747.5,109_y_m_d_a.png,I,m,1233,3,,2265.0,320482.5,8074,VNB,A,2
3,test,5,0.0,1-Back,1.0,z,Fri May 08 2026 13:57:25 GMT-0500 (Central Daylight Time),324713.60000002384,039_o_m_d_a.png,I,z,943,4,,1963.3999999761581,322750.2000000477,8074,VNB,A,3
4,test,5,0.0,1-Back,1.0,m,Fri May 08 2026 13:57:25 GMT-0500 (Central Daylight Time),326928.10000002384,139_m_f_h_a.png,I,m,1185,5,,2211.8000000715256,324716.2999999523,8074,VNB,A,4
5,test,5,0.0,1-Back,1.0,m,Fri May 08 2026 13:57:25 GMT-0500 (Central Daylight Time),329344.10000002384,071_y_f_n_a.png,I,m,1393,6,,2413.600000023842,326930.5,8074,VNB,A,5
6,test,5,1.0,1-Back,1.0,z,Fri May 08 2026 13:57:25 GMT-0500 (Central Daylight Time),331343.7000000477,124_o_f_n_a.png,I,z,977,7,,1997.1000000238419,329346.60000002384,8074,VNB,A,6
7,test,5,0.0,1-Back,1.0,m,Fri May 08 2026 13:57:25 GMT-0500 (Central Daylight Time),333259.7000000477,139_m_f_d_a.png,I,m,897,8,,1913.5,331346.2000000477,8074,VNB,A,7
8,test,5,0.0,1-Back,1.0,m,Fri May 08 2026 13:57:25 GMT-0500 (Central Daylight Time),335242.2999999523,109_y_m_h_a.png,I,m,950,9,,1979.8999999761581,333262.39999997616,8074,VNB,A,8
8,test,5,0.0,1-Back,0.0,m,Fri May 08 2026 13:57:25 GMT-0500 (Central Daylight Time),337408.2999999523,071_y_f_d_a.png,I,z,1143,10,,2163.5999999046326,335244.7000000477,8074,VNB,A,9
9,test,5,0.0,1-Back,1.0,m,Fri May 08 2026 13:57:25 GMT-0500 (Central Daylight Time),339874.39999997616,165_m_m_n_a.png,I,m,1433,11,,2463.6999999284744,337410.7000000477,8074,VNB,A,10
10,test,5,1.0,1-Back,1.0,z,Fri May 08 2026 13:57:25 GMT-0500 (Central Daylight Time),342023.7000000477,139_m_f_n_a.png,I,z,1127,12,,2146.9000000953674,339876.7999999523,8074,VNB,A,11
11,test,5,0.0,1-Back,1.0,m,Fri May 08 2026 13:57:25 GMT-0500 (Central Daylight Time),343706.60000002384,039_o_m_h_a.png,I,m,650,13,,1680.6000000238419,342026.0,8074,VNB,A,12
12,test,5,0.0,1-Back,1.0,z,Fri May 08 2026 13:57:25 GMT-0500 (Central Daylight Time),345805.7999999523,165_m_m_h_a.png,I,z,1079,14,,2096.7999999523163,343709.0,8074,VNB,A,13
13,test,5,1.0,1-Back,1.0,m,Fri May 08 2026 13:57:25 GMT-0500 (Central Daylight Time),347521.60000002384,124_o_f_d_a.png,I,m,692,15,,1713.3999999761581,345808.2000000477,8074,VNB,A,14
14,test,5,0.0,1-Back,1.0,m,Fri May 08 2026 13:57:25 GMT-0500 (Central Daylight Time),349787.89999997616,109_y_m_n_a.png,I,m,1238,16,,2264.0,347523.89999997616,8074,VNB,A,15
14,test,5,0.0,1-Back,0.0,m,Fri May 08 2026 13:57:25 GMT-0500 (Central Daylight Time),351953.60000002384,071_y_f_h_a.png,I,z,1142,17,,2163.2000000476837,349790.39999997616,8074,VNB,A,16
15,test,5,0.0,1-Back,1.0,m,Fri May 08 2026 13:57:25 GMT-0500 (Central Daylight Time),353886.7000000477,165_m_m_d_a.png,I,m,912,18,,1930.7000000476837,351956.0,8074,VNB,A,17
0,prac,1,0.0,2-Back,,,Fri May 08 2026 13:57:25 GMT-0500 (Central Daylight Time),353886.7000000477,139_m_f_n_a.png,I,space,4613,1,,1930.7000000476837,351956.0,8074,VNB,A,0
0,prac,1,0.0,2-Back,,,Fri May 08 2026 13:57:25 GMT-0500 (Central Daylight Time),353886.7000000477,124_o_f_h_a.png,I,space,4613,2,,1930.7000000476837,351956.0,8074,VNB,A,0
1,prac,1,0.0,2-Back,1.0,m,Fri May 08 2026 13:57:25 GMT-0500 (Central Daylight Time),444824.89999997616,039_o_m_d_a.png,I,m,1458,3,,2259.399999976158,442565.5,8074,VNB,A,1
2,prac,1,1.0,2-Back,1.0,z,Fri May 08 2026 13:57:25 GMT-0500 (Central Daylight Time),446824.2999999523,165_m_m_h_a.png,I,z,1191,4,,1992.6999999284744,444831.60000002384,8074,VNB,A,2
3,prac,1,0.0,2-Back,1.0,m,Fri May 08 2026 13:57:25 GMT-0500 (Central Daylight Time),448790.5,071_y_f_n_a.png,I,m,1161,5,,1960.2000000476837,446830.2999999523,8074,VNB,A,3
4,prac,1,1.0,2-Back,1.0,z,Fri May 08 2026 13:57:25 GMT-0500 (Central Daylight Time),450773.0,039_o_m_h_a.png,I,z,1197,6,,1976.6000000238419,448796.39999997616,8074,VNB,A,4
4,prac,1,1.0,2-Back,0.0,z,Fri May 08 2026 13:57:25 GMT-0500 (Central Daylight Time),453005.7000000477,109_y_m_n_a.png,I,m,1422,7,,2227.3000000715256,450778.39999997616,8074,VNB,A,5
4,prac,1,0.0,2-Back,0.0,m,Fri May 08 2026 13:57:25 GMT-0500 (Central Daylight Time),455488.10000002384,139_m_f_d_a.png,I,z,1668,8,,2476.600000023842,453011.5,8074,VNB,A,6
5,prac,1,0.0,2-Back,1.0,m,Fri May 08 2026 13:57:25 GMT-0500 (Central Daylight Time),458003.7999999523,124_o_f_d_a.png,I,m,1675,9,,2509.2999999523163,455494.5,8074,VNB,A,7
6,prac,1,0.0,2-Back,1.0,m,Fri May 08 2026 13:57:25 GMT-0500 (Central Daylight Time),460003.5,165_m_m_h_a.png,I,m,1223,10,,1992.8999999761581,458010.60000002384,8074,VNB,A,8
7,prac,1,1.0,2-Back,1.0,z,Fri May 08 2026 13:57:25 GMT-0500 (Central Daylight Time),462036.2000000477,071_y_f_d_a.png,I,z,1222,11,,2025.8000000715256,460010.39999997616,8074,VNB,A,9
8,prac,1,0.0,2-Back,1.0,m,Fri May 08 2026 13:57:25 GMT-0500 (Central Daylight Time),463802.2999999523,039_o_m_n_a.png,I,m,966,12,,1759.0,462043.2999999523,8074,VNB,A,10
0,test,1,0.0,2-Back,,,Fri May 08 2026 13:57:25 GMT-0500 (Central Daylight Time),463802.2999999523,109_y_m_h_a.png,I,space,2510,1,,1759.0,462043.2999999523,8074,VNB,A,0
0,test,1,0.0,2-Back,,,Fri May 08 2026 13:57:25 GMT-0500 (Central Daylight Time),463802.2999999523,124_o_f_n_a.png,I,space,2510,2,,1759.0,462043.2999999523,8074,VNB,A,0
1,test,1,0.0,2-Back,1.0,z,Fri May 08 2026 13:57:25 GMT-0500 (Central Daylight Time),478713.89999997616,039_o_m_h_a.png,I,z,1149,3,,2161.1999999284744,476552.7000000477,8074,VNB,A,1
2,test,1,0.0,2-Back,1.0,m,Fri May 08 2026 13:57:25 GMT-0500 (Central Daylight Time),480913.5,139_m_f_d_a.png,I,m,1175,4,,2197.2000000476837,478716.2999999523,8074,VNB,A,2
3,test,1,1.0,2-Back,1.0,m,Fri May 08 2026 13:57:25 GMT-0500 (Central Daylight Time),483129.5,109_y_m_n_a.png,I,m,1192,5,,2213.5,480916.0,8074,VNB,A,3
4,test,1,0.0,2-Back,1.0,z,Fri May 08 2026 13:57:25 GMT-0500 (Central Daylight Time),485178.7000000477,071_y_f_d_a.png,I,z,1024,6,,2046.7000000476837,483132.0,8074,VNB,A,4
5,test,1,0.0,2-Back,1.0,m,Fri May 08 2026 13:57:25 GMT-0500 (Central Daylight Time),487527.89999997616,165_m_m_h_a.png,I,m,1319,7,,2346.600000023842,485181.2999999523,8074,VNB,A,5
6,test,1,1.0,2-Back,1.0,m,Fri May 08 2026 13:57:25 GMT-0500 (Central Daylight Time),490077.39999997616,071_y_f_n_a.png,I,m,1529,8,,2547.0,487530.39999997616,8074,VNB,A,6
6,test,1,0.0,2-Back,0.0,z,Fri May 08 2026 13:57:25 GMT-0500 (Central Daylight Time),492859.60000002384,124_o_f_h_a.png,I,m,1764,9,,2779.7000000476837,490079.89999997616,8074,VNB,A,7
7,test,1,0.0,2-Back,1.0,m,Fri May 08 2026 13:57:25 GMT-0500 (Central Daylight Time),494893.39999997616,039_o_m_d_a.png,I,m,1014,10,,2031.5,492861.89999997616,8074,VNB,A,8
7,test,1,1.0,2-Back,0.0,m,Fri May 08 2026 13:57:25 GMT-0500 (Central Daylight Time),497191.7999999523,165_m_m_d_a.png,I,z,1267,11,,2295.6999999284744,494896.10000002384,8074,VNB,A,9
8,test,1,0.0,2-Back,1.0,m,Fri May 08 2026 13:57:25 GMT-0500 (Central Daylight Time),499125.89999997616,139_m_f_n_a.png,I,m,906,12,,1931.5,497194.39999997616,8074,VNB,A,10
8,test,1,0.0,2-Back,0.0,m,Fri May 08 2026 13:57:25 GMT-0500 (Central Daylight Time),501673.5,071_y_f_h_a.png,I,z,1524,13,,2545.100000023842,499128.39999997616,8074,VNB,A,11
8,test,1,0.0,2-Back,0.0,z,Fri May 08 2026 13:57:25 GMT-0500 (Central Daylight Time),504006.2000000477,165_m_m_n_a.png,I,m,1304,14,,2329.8000000715256,501676.39999997616,8074,VNB,A,12
9,test,1,0.0,2-Back,1.0,m,Fri May 08 2026 13:57:25 GMT-0500 (Central Daylight Time),506405.5,109_y_m_d_a.png,I,m,1371,15,,2396.899999976158,504008.60000002384,8074,VNB,A,13
9,test,1,1.0,2-Back,0.0,m,Fri May 08 2026 13:57:25 GMT-0500 (Central Daylight Time),509304.89999997616,139_m_f_h_a.png,I,z,1868,16,,2896.7999999523163,506408.10000002384,8074,VNB,A,14
9,test,1,0.0,2-Back,0.0,z,Fri May 08 2026 13:57:25 GMT-0500 (Central Daylight Time),511870.39999997616,124_o_f_d_a.png,I,m,1545,17,,2562.600000023842,509307.7999999523,8074,VNB,A,15
10,test,1,0.0,2-Back,1.0,m,Fri May 08 2026 13:57:25 GMT-0500 (Central Daylight Time),514619.7000000477,039_o_m_n_a.png,I,m,1722,18,,2747.0,511872.7000000477,8074,VNB,A,16
0,test,2,0.0,2-Back,,,Fri May 08 2026 13:57:25 GMT-0500 (Central Daylight Time),514619.7000000477,165_m_m_h_a.png,I,space,1750,1,,2747.0,511872.7000000477,8074,VNB,A,0
0,test,2,0.0,2-Back,,,Fri May 08 2026 13:57:25 GMT-0500 (Central Daylight Time),514619.7000000477,071_y_f_n_a.png,I,space,1750,2,,2747.0,511872.7000000477,8074,VNB,A,0
1,test,2,1.0,2-Back,1.0,z,Fri May 08 2026 13:57:25 GMT-0500 (Central Daylight Time),523733.39999997616,124_o_f_h_a.png,I,z,1238,3,,2261.899999976158,521471.5,8074,VNB,A,1
2,test,2,0.0,2-Back,1.0,m,Fri May 08 2026 13:57:25 GMT-0500 (Central Daylight Time),526115.6000000238,039_o_m_d_a.png,I,m,1364,4,,2380.0,523735.60000002384,8074,VNB,A,2
3,test,2,0.0,2-Back,1.0,m,Fri May 08 2026 13:57:25 GMT-0500 (Central Daylight Time),529081.7000000477,139_m_f_d_a.png,I,m,1933,5,,2963.600000023842,526118.1000000238,8074,VNB,A,3
4,test,2,0.0,2-Back,1.0,m,Fri May 08 2026 13:57:25 GMT-0500 (Central Daylight Time),531847.7999999523,109_y_m_h_a.png,I,m,1736,6,,2763.5999999046326,529084.2000000477,8074,VNB,A,4
4,test,2,0.0,2-Back,0.0,m,Fri May 08 2026 13:57:25 GMT-0500 (Central Daylight Time),534881.2000000477,124_o_f_n_a.png,I,None,2017,7,,3030.9000000953674,531850.2999999523,8074,VNB,A,5
4,test,2,1.0,2-Back,0.0,z,Fri May 08 2026 13:57:25 GMT-0500 (Central Daylight Time),537412.5,039_o_m_h_a.png,I,m,1505,8,,2527.2999999523163,534885.2000000477,8074,VNB,A,6
5,test,2,0.0,2-Back,1.0,m,Fri May 08 2026 13:57:25 GMT-0500 (Central Daylight Time),540011.7000000477,071_y_f_d_a.png,I,m,1573,9,,2596.600000023842,537415.1000000238,8074,VNB,A,7
6,test,2,0.0,2-Back,1.0,m,Fri May 08 2026 13:57:25 GMT-0500 (Central Daylight Time),542894.0,109_y_m_d_a.png,I,m,1862,10,,2880.0,540014.0,8074,VNB,A,8
6,test,2,0.0,2-Back,0.0,m,Fri May 08 2026 13:57:25 GMT-0500 (Central Daylight Time),545676.2999999523,165_m_m_n_a.png,I,z,1763,11,,2779.5999999046326,542896.7000000477,8074,VNB,A,9
7,test,2,0.0,2-Back,1.0,m,Fri May 08 2026 13:57:25 GMT-0500 (Central Daylight Time),548342.3999999762,139_m_f_h_a.png,I,m,1645,12,,2662.899999976158,545679.5,8074,VNB,A,10
7,test,2,1.0,2-Back,0.0,z,Fri May 08 2026 13:57:25 GMT-0500 (Central Daylight Time),551375.0,039_o_m_n_a.png,I,None,2016,13,,3030.2999999523163,548344.7000000477,8074,VNB,A,11
8,test,2,0.0,2-Back,1.0,m,Fri May 08 2026 13:57:25 GMT-0500 (Central Daylight Time),553907.1000000238,124_o_f_d_a.png,I,m,1513,14,,2528.2000000476837,551378.8999999762,8074,VNB,A,12
8,test,2,0.0,2-Back,0.0,m,Fri May 08 2026 13:57:25 GMT-0500 (Central Daylight Time),556756.3999999762,071_y_f_h_a.png,I,z,1830,15,,2846.899999976158,553909.5,8074,VNB,A,13
8,test,2,0.0,2-Back,0.0,z,Fri May 08 2026 13:57:25 GMT-0500 (Central Daylight Time),559789.0,165_m_m_d_a.png,I,None,2016,16,,3030.100000023842,556758.8999999762,8074,VNB,A,14
9,test,2,0.0,2-Back,1.0,m,Fri May 08 2026 13:57:25 GMT-0500 (Central Daylight Time),562521.5,109_y_m_n_a.png,I,m,1709,17,,2728.5,559793.0,8074,VNB,A,15
10,test,2,1.0,2-Back,1.0,m,Fri May 08 2026 13:57:25 GMT-0500 (Central Daylight Time),565270.5,139_m_f_n_a.png,I,m,1728,18,,2746.600000023842,562523.8999999762,8074,VNB,A,16
0,test,3,1.0,2-Back,,,Fri May 08 2026 13:57:25 GMT-0500 (Central Daylight Time),565270.5,039_o_m_n_a.png,I,space,1483,1,,2746.600000023842,562523.8999999762,8074,VNB,A,0
0,test,3,1.0,2-Back,,,Fri May 08 2026 13:57:25 GMT-0500 (Central Daylight Time),565270.5,124_o_f_d_a.png,I,space,1483,2,,2746.600000023842,562523.8999999762,8074,VNB,A,0
1,test,3,0.0,2-Back,1.0,m,Fri May 08 2026 13:57:25 GMT-0500 (Central Daylight Time),574617.5,071_y_f_h_a.png,I,m,1767,3,,2794.2000000476837,571823.2999999523,8074,VNB,A,1
2,test,3,0.0,2-Back,1.0,z,Fri May 08 2026 13:57:25 GMT-0500 (Central Daylight Time),577200.1000000238,139_m_f_d_a.png,I,z,1552,4,,2580.0,574620.1000000238,8074,VNB,A,2
3,test,3,1.0,2-Back,1.0,m,Fri May 08 2026 13:57:25 GMT-0500 (Central Daylight Time),579549.3999999762,109_y_m_n_a.png,I,m,1330,5,,2346.7999999523163,577202.6000000238,8074,VNB,A,3
4,test,3,0.0,2-Back,1.0,m,Fri May 08 2026 13:57:25 GMT-0500 (Central Daylight Time),582465.0,039_o_m_h_a.png,I,m,1883,6,,2913.2000000476837,579551.7999999523,8074,VNB,A,4
5,test,3,0.0,2-Back,1.0,z,Fri May 08 2026 13:57:25 GMT-0500 (Central Daylight Time),584665.7000000477,071_y_f_n_a.png,I,z,1168,7,,2198.2000000476837,582467.5,8074,VNB,A,5
6,test,3,1.0,2-Back,1.0,m,Fri May 08 2026 13:57:25 GMT-0500 (Central Daylight Time),587213.6000000238,165_m_m_d_a.png,I,m,1529,8,,2545.399999976158,584668.2000000477,8074,VNB,A,6
7,test,3,0.0,2-Back,1.0,m,Fri May 08 2026 13:57:25 GMT-0500 (Central Daylight Time),589762.8999999762,109_y_m_d_a.png,I,m,1524,9,,2546.600000023842,587216.2999999523,8074,VNB,A,7
8,test,3,0.0,2-Back,1.0,m,Fri May 08 2026 13:57:25 GMT-0500 (Central Daylight Time),592278.7999999523,124_o_f_h_a.png,I,m,1485,10,,2513.399999976158,589765.3999999762,8074,VNB,A,8
8,test,3,1.0,2-Back,0.0,m,Fri May 08 2026 13:57:25 GMT-0500 (Central Daylight Time),595310.7999999523,139_m_f_n_a.png,I,None,2016,11,,3029.6999999284744,592281.1000000238,8074,VNB,A,9
9,test,3,1.0,2-Back,1.0,z,Fri May 08 2026 13:57:25 GMT-0500 (Central Daylight Time),597626.7000000477,165_m_m_h_a.png,I,z,1298,12,,2312.2000000476837,595314.5,8074,VNB,A,10
10,test,3,0.0,2-Back,1.0,m,Fri May 08 2026 13:57:25 GMT-0500 (Central Daylight Time),600476.2000000477,071_y_f_d_a.png,I,m,1831,13,,2847.100000023842,597629.1000000238,8074,VNB,A,11
10,test,3,0.0,2-Back,0.0,m,Fri May 08 2026 13:57:25 GMT-0500 (Central Daylight Time),603508.5,124_o_f_n_a.png,I,None,2015,14,,3029.7999999523163,600478.7000000477,8074,VNB,A,12
10,test,3,0.0,2-Back,0.0,z,Fri May 08 2026 13:57:25 GMT-0500 (Central Daylight Time),606541.0,039_o_m_d_a.png,I,None,2016,15,,3028.2000000476837,603512.7999999523,8074,VNB,A,13
10,test,3,1.0,2-Back,0.0,m,Fri May 08 2026 13:57:25 GMT-0500 (Central Daylight Time),609090.2999999523,139_m_f_h_a.png,I,z,1515,16,,2545.0999999046326,606545.2000000477,8074,VNB,A,14
11,test,3,0.0,2-Back,1.0,m,Fri May 08 2026 13:57:25 GMT-0500 (Central Daylight Time),611805.7999999523,165_m_m_n_a.png,I,m,1687,17,,2712.7999999523163,609093.0,8074,VNB,A,15
12,test,3,0.0,2-Back,1.0,z,Fri May 08 2026 13:57:25 GMT-0500 (Central Daylight Time),614405.1000000238,109_y_m_h_a.png,I,z,1580,18,,2596.7000000476837,611808.3999999762,8074,VNB,A,16
0,test,4,0.0,2-Back,,,Fri May 08 2026 13:57:25 GMT-0500 (Central Daylight Time),614405.1000000238,139_m_f_n_a.png,I,space,2805,1,,2596.7000000476837,611808.3999999762,8074,VNB,A,0
0,test,4,0.0,2-Back,,,Fri May 08 2026 13:57:25 GMT-0500 (Central Daylight Time),614405.1000000238,039_o_m_n_a.png,I,space,2805,2,,2596.7000000476837,611808.3999999762,8074,VNB,A,0
1,test,4,1.0,2-Back,1.0,m,Fri May 08 2026 13:57:25 GMT-0500 (Central Daylight Time),624452.1000000238,109_y_m_h_a.png,I,m,1131,3,,2145.5,622306.6000000238,8074,VNB,A,1
2,test,4,1.0,2-Back,1.0,m,Fri May 08 2026 13:57:25 GMT-0500 (Central Daylight Time),626717.7000000477,124_o_f_d_a.png,I,m,1245,4,,2263.100000023842,624454.6000000238,8074,VNB,A,2
3,test,4,0.0,2-Back,1.0,z,Fri May 08 2026 13:57:25 GMT-0500 (Central Daylight Time),629517.1000000238,039_o_m_h_a.png,I,z,1779,5,,2796.8000000715256,626720.2999999523,8074,VNB,A,3
4,test,4,0.0,2-Back,1.0,m,Fri May 08 2026 13:57:25 GMT-0500 (Central Daylight Time),631683.3999999762,165_m_m_n_a.png,I,m,1140,6,,2163.899999976158,629519.5,8074,VNB,A,4
4,test,4,0.0,2-Back,0.0,m,Fri May 08 2026 13:57:25 GMT-0500 (Central Daylight Time),633732.6000000238,139_m_f_d_a.png,I,z,1022,7,,2046.6000000238419,631686.0,8074,VNB,A,5
5,test,4,0.0,2-Back,1.0,z,Fri May 08 2026 13:57:25 GMT-0500 (Central Daylight Time),635898.3999999762,071_y_f_n_a.png,I,z,1133,8,,2163.5,633734.8999999762,8074,VNB,A,6
6,test,4,1.0,2-Back,1.0,m,Fri May 08 2026 13:57:25 GMT-0500 (Central Daylight Time),637997.5,124_o_f_h_a.png,I,m,1071,9,,2096.600000023842,635900.8999999762,8074,VNB,A,7
7,test,4,0.0,2-Back,1.0,m,Fri May 08 2026 13:57:25 GMT-0500 (Central Daylight Time),640913.3999999762,165_m_m_h_a.png,I,m,1892,10,,2913.1999999284744,638000.2000000477,8074,VNB,A,8
8,test,4,0.0,2-Back,1.0,m,Fri May 08 2026 13:57:25 GMT-0500 (Central Daylight Time),643563.7000000477,071_y_f_d_a.png,I,m,1617,11,,2647.600000023842,640916.1000000238,8074,VNB,A,9
9,test,4,0.0,2-Back,1.0,m,Fri May 08 2026 13:57:25 GMT-0500 (Central Daylight Time),646361.7999999523,109_y_m_n_a.png,I,m,1775,12,,2795.2999999523163,643566.5,8074,VNB,A,10
10,test,4,0.0,2-Back,1.0,z,Fri May 08 2026 13:57:25 GMT-0500 (Central Daylight Time),649011.0,039_o_m_d_a.png,I,z,1617,13,,2646.7999999523163,646364.2000000477,8074,VNB,A,11
11,test,4,1.0,2-Back,1.0,m,Fri May 08 2026 13:57:25 GMT-0500 (Central Daylight Time),651211.3999999762,139_m_f_h_a.png,I,m,1166,14,,2198.0,649013.3999999762,8074,VNB,A,12
12,test,4,1.0,2-Back,1.0,m,Fri May 08 2026 13:57:25 GMT-0500 (Central Daylight Time),653526.3999999762,071_y_f_h_a.png,I,m,1287,15,,2312.2999999523163,651214.1000000238,8074,VNB,A,13
13,test,4,0.0,2-Back,1.0,m,Fri May 08 2026 13:57:25 GMT-0500 (Central Daylight Time),656025.2999999523,124_o_f_n_a.png,I,m,1475,16,,2496.5999999046326,653528.7000000477,8074,VNB,A,14
14,test,4,0.0,2-Back,1.0,m,Fri May 08 2026 13:57:25 GMT-0500 (Central Daylight Time),658558.0,109_y_m_d_a.png,I,m,1504,17,,2530.100000023842,656027.8999999762,8074,VNB,A,15
14,test,4,1.0,2-Back,0.0,m,Fri May 08 2026 13:57:25 GMT-0500 (Central Daylight Time),661590.5,165_m_m_d_a.png,I,None,2015,18,,3029.7999999523163,658560.7000000477,8074,VNB,A,16
0,test,5,1.0,2-Back,,,Fri May 08 2026 13:57:25 GMT-0500 (Central Daylight Time),661590.5,071_y_f_d_a.png,I,space,3467,1,,3029.7999999523163,658560.7000000477,8074,VNB,A,0
0,test,5,1.0,2-Back,,,Fri May 08 2026 13:57:25 GMT-0500 (Central Daylight Time),661590.5,124_o_f_h_a.png,I,space,3467,2,,3029.7999999523163,658560.7000000477,8074,VNB,A,0
1,test,5,1.0,2-Back,1.0,z,Fri May 08 2026 13:57:25 GMT-0500 (Central Daylight Time),672237.0,039_o_m_d_a.png,I,z,1055,3,,2079.100000023842,670157.8999999762,8074,VNB,A,1
2,test,5,1.0,2-Back,1.0,m,Fri May 08 2026 13:57:25 GMT-0500 (Central Daylight Time),674536.0,139_m_f_n_a.png,I,m,1268,4,,2296.5,672239.5,8074,VNB,A,2
2,test,5,0.0,2-Back,0.0,m,Fri May 08 2026 13:57:25 GMT-0500 (Central Daylight Time),677568.5,165_m_m_h_a.png,I,None,2015,5,,3029.5,674539.0,8074,VNB,A,3
3,test,5,0.0,2-Back,1.0,z,Fri May 08 2026 13:57:25 GMT-0500 (Central Daylight Time),680501.0,071_y_f_n_a.png,I,z,1906,6,,2929.100000023842,677571.8999999762,8074,VNB,A,4
4,test,5,0.0,2-Back,1.0,m,Fri May 08 2026 13:57:25 GMT-0500 (Central Daylight Time),683084.7000000477,124_o_f_d_a.png,I,m,1565,7,,2581.100000023842,680503.6000000238,8074,VNB,A,5
5,test,5,0.0,2-Back,1.0,m,Fri May 08 2026 13:57:25 GMT-0500 (Central Daylight Time),685732.7000000477,039_o_m_h_a.png,I,m,1622,8,,2645.4000000953674,683087.2999999523,8074,VNB,A,6
5,test,5,1.0,2-Back,0.0,z,Fri May 08 2026 13:57:25 GMT-0500 (Central Daylight Time),688767.5,139_m_f_d_a.png,I,None,2019,9,,3032.2999999523163,685735.2000000477,8074,VNB,A,7
5,test,5,0.0,2-Back,0.0,m,Fri May 08 2026 13:57:25 GMT-0500 (Central Daylight Time),691680.8999999762,109_y_m_n_a.png,I,z,1892,10,,2909.2999999523163,688771.6000000238,8074,VNB,A,8
6,test,5,0.0,2-Back,1.0,m,Fri May 08 2026 13:57:25 GMT-0500 (Central Daylight Time),694197.0,165_m_m_n_a.png,I,m,1497,11,,2513.600000023842,691683.3999999762,8074,VNB,A,9
7,test,5,0.0,2-Back,1.0,m,Fri May 08 2026 13:57:25 GMT-0500 (Central Daylight Time),696995.8999999762,071_y_f_h_a.png,I,m,1774,12,,2796.600000023842,694199.2999999523,8074,VNB,A,10
8,test,5,0.0,2-Back,1.0,m,Fri May 08 2026 13:57:25 GMT-0500 (Central Daylight Time),699595.1000000238,109_y_m_d_a.png,I,m,1574,13,,2596.7000000476837,696998.3999999762,8074,VNB,A,11
9,test,5,1.0,2-Back,1.0,z,Fri May 08 2026 13:57:25 GMT-0500 (Central Daylight Time),701861.0,139_m_f_h_a.png,I,z,1246,14,,2263.399999976158,699597.6000000238,8074,VNB,A,12
9,test,5,0.0,2-Back,0.0,m,Fri May 08 2026 13:57:25 GMT-0500 (Central Daylight Time),704893.7000000477,039_o_m_n_a.png,I,None,2015,15,,3030.2000000476837,701863.5,8074,VNB,A,13
9,test,5,0.0,2-Back,0.0,m,Fri May 08 2026 13:57:25 GMT-0500 (Central Daylight Time),707109.5,165_m_m_d_a.png,I,z,1196,16,,2211.7999999523163,704897.7000000477,8074,VNB,A,14
10,test,5,0.0,2-Back,1.0,z,Fri May 08 2026 13:57:25 GMT-0500 (Central Daylight Time),709158.7999999523,124_o_f_n_a.png,I,z,1028,17,,2046.7999999523163,707112.0,8074,VNB,A,15
11,test,5,1.0,2-Back,1.0,m,Fri May 08 2026 13:57:25 GMT-0500 (Central Daylight Time),711658.0,109_y_m_h_a.png,I,m,1476,18,,2496.600000023842,709161.3999999762,8074,VNB,A,16
