acc_sum,block,block_c,change,condition,correct,correct_response,datetime,endtime,face,project,response,response_time,row_sel,session_number,start_end,starttime,subject_id,task,task_vers,trial
0,prac,1,,1-Back,,,Fri Sep 12 2025 14:22:16 GMT-0500 (Central Daylight Time),,050_m_f_n_a.png,O,space,8800,1,1,,,7223,NNB,A,0
1,prac,1,0.0,1-Back,1.0,m,Fri Sep 12 2025 14:22:16 GMT-0500 (Central Daylight Time),216927.0,063_y_f_n_a.png,O,m,1129,2,1,1937.0999999046326,214989.90000009537,7223,NNB,A,1
1,prac,1,1.0,1-Back,0.0,z,Fri Sep 12 2025 14:22:16 GMT-0500 (Central Daylight Time),219708.70000004768,063_y_f_n_a.png,O,None,2006,3,1,2772.5,216936.20000004768,7223,NNB,A,2
1,prac,1,0.0,1-Back,0.0,m,Fri Sep 12 2025 14:22:16 GMT-0500 (Central Daylight Time),222524.70000004768,053_o_m_n_a.png,O,None,2017,4,1,2803.600000023842,219721.10000002384,7223,NNB,A,3
2,prac,1,0.0,1-Back,1.0,m,Fri Sep 12 2025 14:22:16 GMT-0500 (Central Daylight Time),224157.30000007153,058_m_m_n_a.png,O,m,822,5,1,1621.6000000238419,222535.70000004768,7223,NNB,A,4
2,prac,1,1.0,1-Back,0.0,z,Fri Sep 12 2025 14:22:16 GMT-0500 (Central Daylight Time),226524.60000002384,058_m_m_n_a.png,O,m,1591,6,1,2356.600000023842,224168.0,7223,NNB,A,5
2,prac,1,0.0,1-Back,0.0,m,Fri Sep 12 2025 14:22:16 GMT-0500 (Central Daylight Time),229354.40000009537,047_o_f_n_a.png,O,None,2008,7,1,2820.3000000715256,226534.10000002384,7223,NNB,A,6
3,prac,1,0.0,1-Back,1.0,m,Fri Sep 12 2025 14:22:16 GMT-0500 (Central Daylight Time),231387.40000009537,045_m_m_n_a.png,O,m,1223,8,1,2020.6000000238419,229366.80000007153,7223,NNB,A,7
4,prac,1,0.0,1-Back,1.0,m,Fri Sep 12 2025 14:22:16 GMT-0500 (Central Daylight Time),233538.40000009537,050_m_f_n_a.png,O,m,1374,9,1,2140.8000000715256,231397.60000002384,7223,NNB,A,8
5,prac,1,1.0,1-Back,1.0,z,Fri Sep 12 2025 14:22:16 GMT-0500 (Central Daylight Time),235269.30000007153,050_m_f_n_a.png,O,z,942,10,1,1720.2000000476837,233549.10000002384,7223,NNB,A,9
5,prac,1,0.0,1-Back,0.0,m,Fri Sep 12 2025 14:22:16 GMT-0500 (Central Daylight Time),237119.90000009537,053_o_m_n_a.png,O,z,1059,11,1,1839.9000000953674,235280.0,7223,NNB,A,10
6,prac,1,0.0,1-Back,1.0,m,Fri Sep 12 2025 14:22:16 GMT-0500 (Central Daylight Time),239335.40000009537,010_y_f_n_a.png,O,m,1378,12,1,2204.5,237130.90000009537,7223,NNB,A,11
0,prac,2,0.0,1-Back,,,Fri Sep 12 2025 14:22:16 GMT-0500 (Central Daylight Time),239335.40000009537,050_m_f_n_a.png,O,a,3965,1,1,2204.5,237130.90000009537,7223,NNB,A,0
0,prac,2,0.0,1-Back,0.0,m,Fri Sep 12 2025 14:22:16 GMT-0500 (Central Daylight Time),249114.90000009537,063_y_f_n_a.png,O,None,2002,2,1,2768.9000000953674,246346.0,7223,NNB,A,1
0,prac,2,1.0,1-Back,0.0,z,Fri Sep 12 2025 14:22:16 GMT-0500 (Central Daylight Time),250883.40000009537,063_y_f_n_a.png,O,m,993,3,1,1758.6000000238419,249124.80000007153,7223,NNB,A,2
0,prac,2,0.0,1-Back,0.0,m,Fri Sep 12 2025 14:22:16 GMT-0500 (Central Daylight Time),253516.40000009537,053_o_m_n_a.png,O,z,1861,4,1,2623.4000000953674,250893.0,7223,NNB,A,3
1,prac,2,0.0,1-Back,1.0,m,Fri Sep 12 2025 14:22:16 GMT-0500 (Central Daylight Time),255697.10000002384,058_m_m_n_a.png,O,m,1405,5,1,2170.100000023842,253527.0,7223,NNB,A,4
2,prac,2,1.0,1-Back,1.0,z,Fri Sep 12 2025 14:22:16 GMT-0500 (Central Daylight Time),257480.70000004768,058_m_m_n_a.png,O,z,993,6,1,1773.7999999523163,255706.90000009537,7223,NNB,A,5
3,prac,2,0.0,1-Back,1.0,m,Fri Sep 12 2025 14:22:16 GMT-0500 (Central Daylight Time),259295.60000002384,047_o_f_n_a.png,O,m,1024,7,1,1805.0,257490.60000002384,7223,NNB,A,6
4,prac,2,0.0,1-Back,1.0,m,Fri Sep 12 2025 14:22:16 GMT-0500 (Central Daylight Time),260965.40000009537,045_m_m_n_a.png,O,m,905,8,1,1658.4000000953674,259307.0,7223,NNB,A,7
5,prac,2,0.0,1-Back,1.0,m,Fri Sep 12 2025 14:22:16 GMT-0500 (Central Daylight Time),262812.40000009537,050_m_f_n_a.png,O,m,1068,9,1,1836.3000000715256,260976.10000002384,7223,NNB,A,8
6,prac,2,1.0,1-Back,1.0,z,Fri Sep 12 2025 14:22:16 GMT-0500 (Central Daylight Time),264378.3000000715,050_m_f_n_a.png,O,z,778,10,1,1553.8000000715256,262824.5,7223,NNB,A,9
7,prac,2,0.0,1-Back,1.0,m,Fri Sep 12 2025 14:22:16 GMT-0500 (Central Daylight Time),265994.5,053_o_m_n_a.png,O,m,830,11,1,1605.3999999761581,264389.10000002384,7223,NNB,A,10
8,prac,2,0.0,1-Back,1.0,m,Fri Sep 12 2025 14:22:16 GMT-0500 (Central Daylight Time),267558.10000002384,010_y_f_n_a.png,O,m,782,12,1,1552.8999999761581,266005.2000000477,7223,NNB,A,11
0,test,1,0.0,1-Back,,,Fri Sep 12 2025 14:22:16 GMT-0500 (Central Daylight Time),267558.10000002384,063_y_f_n_a.png,O,space,5435,1,1,1552.8999999761581,266005.2000000477,7223,NNB,A,0
1,test,1,0.0,1-Back,1.0,m,Fri Sep 12 2025 14:22:16 GMT-0500 (Central Daylight Time),282171.3000000715,043_m_f_n_a.png,O,m,1082,2,1,2103.899999976158,280067.40000009537,7223,NNB,A,1
1,test,1,0.0,1-Back,0.0,m,Fri Sep 12 2025 14:22:16 GMT-0500 (Central Daylight Time),284588.7000000477,010_y_f_n_a.png,O,z,1399,3,1,2405.7000000476837,282183.0,7223,NNB,A,2
2,test,1,1.0,1-Back,1.0,z,Fri Sep 12 2025 14:22:16 GMT-0500 (Central Daylight Time),287004.7000000477,010_y_f_n_a.png,O,z,1398,4,1,2405.5,284599.2000000477,7223,NNB,A,3
3,test,1,0.0,1-Back,1.0,m,Fri Sep 12 2025 14:22:16 GMT-0500 (Central Daylight Time),289802.90000009537,043_m_f_n_a.png,O,m,1778,5,1,2790.5,287012.40000009537,7223,NNB,A,4
4,test,1,0.0,1-Back,1.0,m,Fri Sep 12 2025 14:22:16 GMT-0500 (Central Daylight Time),292401.90000009537,053_o_m_n_a.png,O,m,1566,6,1,2590.7000000476837,289811.2000000477,7223,NNB,A,5
5,test,1,1.0,1-Back,1.0,z,Fri Sep 12 2025 14:22:16 GMT-0500 (Central Daylight Time),294702.3000000715,053_o_m_n_a.png,O,z,1272,7,1,2291.399999976158,292410.90000009537,7223,NNB,A,6
6,test,1,0.0,1-Back,1.0,m,Fri Sep 12 2025 14:22:16 GMT-0500 (Central Daylight Time),297616.8000000715,058_m_m_n_a.png,O,m,1893,8,1,2904.8000000715256,294712.0,7223,NNB,A,7
7,test,1,0.0,1-Back,1.0,m,Fri Sep 12 2025 14:22:16 GMT-0500 (Central Daylight Time),299982.2000000477,047_o_f_n_a.png,O,m,1345,9,1,2356.2000000476837,297626.0,7223,NNB,A,8
7,test,1,0.0,1-Back,0.0,m,Fri Sep 12 2025 14:22:16 GMT-0500 (Central Daylight Time),302415.60000002384,058_m_m_n_a.png,O,z,1402,10,1,2423.399999976158,299992.2000000477,7223,NNB,A,9
7,test,1,0.0,1-Back,0.0,m,Fri Sep 12 2025 14:22:16 GMT-0500 (Central Daylight Time),305433.0,041_y_m_n_a.png,O,None,2002,11,1,3007.5999999046326,302425.40000009537,7223,NNB,A,10
8,test,1,1.0,1-Back,1.0,z,Fri Sep 12 2025 14:22:16 GMT-0500 (Central Daylight Time),308212.5,041_y_m_n_a.png,O,z,1755,12,1,2770.7999999523163,305441.7000000477,7223,NNB,A,11
9,test,1,0.0,1-Back,1.0,m,Fri Sep 12 2025 14:22:16 GMT-0500 (Central Daylight Time),310164.7000000477,044_o_f_n_a.png,O,m,934,13,1,1943.0,308221.7000000477,7223,NNB,A,12
10,test,1,1.0,1-Back,1.0,z,Fri Sep 12 2025 14:22:16 GMT-0500 (Central Daylight Time),312229.60000002384,044_o_f_n_a.png,O,z,1048,14,1,2057.0,310172.60000002384,7223,NNB,A,13
11,test,1,0.0,1-Back,1.0,m,Fri Sep 12 2025 14:22:16 GMT-0500 (Central Daylight Time),314245.3000000715,008_y_m_n_a.png,O,m,991,15,1,2005.7000000476837,312239.60000002384,7223,NNB,A,14
12,test,1,0.0,1-Back,1.0,m,Fri Sep 12 2025 14:22:16 GMT-0500 (Central Daylight Time),316028.7000000477,050_m_f_n_a.png,O,m,765,16,1,1773.3999999761581,314255.3000000715,7223,NNB,A,15
13,test,1,0.0,1-Back,1.0,m,Fri Sep 12 2025 14:22:16 GMT-0500 (Central Daylight Time),318160.3000000715,046_o_m_n_a.png,O,m,1102,17,1,2122.399999976158,316037.90000009537,7223,NNB,A,16
14,test,1,0.0,1-Back,1.0,m,Fri Sep 12 2025 14:22:16 GMT-0500 (Central Daylight Time),320476.3000000715,050_m_f_n_a.png,O,m,1289,18,1,2308.5,318167.8000000715,7223,NNB,A,17
0,test,2,0.0,1-Back,,,Fri Sep 12 2025 14:22:16 GMT-0500 (Central Daylight Time),320476.3000000715,058_m_m_n_a.png,O,space,2782,1,1,2308.5,318167.8000000715,7223,NNB,A,0
1,test,2,0.0,1-Back,1.0,m,Fri Sep 12 2025 14:22:16 GMT-0500 (Central Daylight Time),327705.90000009537,043_m_f_n_a.png,O,m,1381,2,1,2405.2000000476837,325300.7000000477,7223,NNB,A,1
2,test,2,1.0,1-Back,1.0,z,Fri Sep 12 2025 14:22:16 GMT-0500 (Central Daylight Time),329856.60000002384,043_m_f_n_a.png,O,z,1120,3,1,2144.899999976158,327711.7000000477,7223,NNB,A,2
3,test,2,0.0,1-Back,1.0,m,Fri Sep 12 2025 14:22:16 GMT-0500 (Central Daylight Time),332106.60000002384,058_m_m_n_a.png,O,m,1224,4,1,2241.600000023842,329865.0,7223,NNB,A,3
4,test,2,0.0,1-Back,1.0,m,Fri Sep 12 2025 14:22:16 GMT-0500 (Central Daylight Time),334305.7000000477,041_y_m_n_a.png,O,m,1167,5,1,2189.0,332116.7000000477,7223,NNB,A,4
5,test,2,0.0,1-Back,1.0,m,Fri Sep 12 2025 14:22:16 GMT-0500 (Central Daylight Time),336054.7000000477,063_y_f_n_a.png,O,m,720,6,1,1737.5,334317.2000000477,7223,NNB,A,5
6,test,2,1.0,1-Back,1.0,z,Fri Sep 12 2025 14:22:16 GMT-0500 (Central Daylight Time),337605.90000009537,063_y_f_n_a.png,O,z,534,7,1,1540.9000000953674,336065.0,7223,NNB,A,6
7,test,2,0.0,1-Back,1.0,m,Fri Sep 12 2025 14:22:16 GMT-0500 (Central Daylight Time),339370.10000002384,041_y_m_n_a.png,O,m,742,8,1,1754.2999999523163,337615.8000000715,7223,NNB,A,7
8,test,2,0.0,1-Back,1.0,m,Fri Sep 12 2025 14:22:16 GMT-0500 (Central Daylight Time),341136.40000009537,044_o_f_n_a.png,O,m,735,9,1,1756.5,339379.90000009537,7223,NNB,A,8
9,test,2,0.0,1-Back,1.0,m,Fri Sep 12 2025 14:22:16 GMT-0500 (Central Daylight Time),342836.60000002384,045_m_m_n_a.png,O,m,674,10,1,1688.8999999761581,341147.7000000477,7223,NNB,A,9
10,test,2,1.0,1-Back,1.0,z,Fri Sep 12 2025 14:22:16 GMT-0500 (Central Daylight Time),344568.60000002384,045_m_m_n_a.png,O,z,710,11,1,1721.8999999761581,342846.7000000477,7223,NNB,A,10
11,test,2,0.0,1-Back,1.0,m,Fri Sep 12 2025 14:22:16 GMT-0500 (Central Daylight Time),346317.2000000477,044_o_f_n_a.png,O,m,721,12,1,1737.7000000476837,344579.5,7223,NNB,A,11
12,test,2,0.0,1-Back,1.0,m,Fri Sep 12 2025 14:22:16 GMT-0500 (Central Daylight Time),348167.2000000477,047_o_f_n_a.png,O,m,820,13,1,1840.5,346326.7000000477,7223,NNB,A,12
13,test,2,0.0,1-Back,1.0,m,Fri Sep 12 2025 14:22:16 GMT-0500 (Central Daylight Time),349849.8000000715,053_o_m_n_a.png,O,m,650,14,1,1674.3999999761581,348175.40000009537,7223,NNB,A,13
14,test,2,0.0,1-Back,1.0,m,Fri Sep 12 2025 14:22:16 GMT-0500 (Central Daylight Time),351548.5,046_o_m_n_a.png,O,m,681,15,1,1689.0999999046326,349859.40000009537,7223,NNB,A,14
15,test,2,1.0,1-Back,1.0,z,Fri Sep 12 2025 14:22:16 GMT-0500 (Central Daylight Time),353264.90000009537,046_o_m_n_a.png,O,z,685,16,1,1706.2000000476837,351558.7000000477,7223,NNB,A,15
16,test,2,0.0,1-Back,1.0,m,Fri Sep 12 2025 14:22:16 GMT-0500 (Central Daylight Time),355132.0,008_y_m_n_a.png,O,m,849,17,1,1858.1999999284744,353273.8000000715,7223,NNB,A,16
17,test,2,1.0,1-Back,1.0,z,Fri Sep 12 2025 14:22:16 GMT-0500 (Central Daylight Time),356980.2000000477,008_y_m_n_a.png,O,z,822,18,1,1836.7999999523163,355143.40000009537,7223,NNB,A,17
0,test,3,1.0,1-Back,,,Fri Sep 12 2025 14:22:16 GMT-0500 (Central Daylight Time),356980.2000000477,010_y_f_n_a.png,O,space,1166,1,1,1836.7999999523163,355143.40000009537,7223,NNB,A,0
1,test,3,0.0,1-Back,1.0,m,Fri Sep 12 2025 14:22:16 GMT-0500 (Central Daylight Time),362830.40000009537,046_o_m_n_a.png,O,m,1600,2,1,2605.8000000715256,360224.60000002384,7223,NNB,A,1
2,test,3,1.0,1-Back,1.0,z,Fri Sep 12 2025 14:22:16 GMT-0500 (Central Daylight Time),364645.40000009537,046_o_m_n_a.png,O,z,797,3,1,1804.1000000238419,362841.3000000715,7223,NNB,A,2
3,test,3,0.0,1-Back,1.0,m,Fri Sep 12 2025 14:22:16 GMT-0500 (Central Daylight Time),366693.90000009537,050_m_f_n_a.png,O,m,1021,4,1,2037.3000000715256,364656.60000002384,7223,NNB,A,3
4,test,3,1.0,1-Back,1.0,z,Fri Sep 12 2025 14:22:16 GMT-0500 (Central Daylight Time),368377.0,050_m_f_n_a.png,O,z,660,5,1,1675.0,366702.0,7223,NNB,A,4
5,test,3,0.0,1-Back,1.0,m,Fri Sep 12 2025 14:22:16 GMT-0500 (Central Daylight Time),370110.10000002384,044_o_f_n_a.png,O,m,705,6,1,1720.7999999523163,368389.3000000715,7223,NNB,A,5
6,test,3,0.0,1-Back,1.0,m,Fri Sep 12 2025 14:22:16 GMT-0500 (Central Daylight Time),372145.90000009537,041_y_m_n_a.png,O,m,1010,7,1,2024.2000000476837,370121.7000000477,7223,NNB,A,6
7,test,3,0.0,1-Back,1.0,m,Fri Sep 12 2025 14:22:16 GMT-0500 (Central Daylight Time),374124.90000009537,044_o_f_n_a.png,O,m,949,8,1,1972.1000000238419,372152.8000000715,7223,NNB,A,7
8,test,3,0.0,1-Back,1.0,m,Fri Sep 12 2025 14:22:16 GMT-0500 (Central Daylight Time),376191.60000002384,008_y_m_n_a.png,O,m,1044,9,1,2056.6999999284744,374134.90000009537,7223,NNB,A,8
9,test,3,1.0,1-Back,1.0,z,Fri Sep 12 2025 14:22:16 GMT-0500 (Central Daylight Time),378057.5,008_y_m_n_a.png,O,z,843,10,1,1855.7999999523163,376201.7000000477,7223,NNB,A,9
10,test,3,0.0,1-Back,1.0,m,Fri Sep 12 2025 14:22:16 GMT-0500 (Central Daylight Time),379789.60000002384,043_m_f_n_a.png,O,m,705,11,1,1721.6999999284744,378067.90000009537,7223,NNB,A,10
11,test,3,0.0,1-Back,1.0,m,Fri Sep 12 2025 14:22:16 GMT-0500 (Central Daylight Time),381690.2000000477,063_y_f_n_a.png,O,m,868,12,1,1888.8999999761581,379801.3000000715,7223,NNB,A,11
11,test,3,1.0,1-Back,0.0,z,Fri Sep 12 2025 14:22:16 GMT-0500 (Central Daylight Time),383272.8000000715,063_y_f_n_a.png,O,m,551,13,1,1571.5,381701.3000000715,7223,NNB,A,12
11,test,3,0.0,1-Back,0.0,m,Fri Sep 12 2025 14:22:16 GMT-0500 (Central Daylight Time),385439.40000009537,043_m_f_n_a.png,O,z,1137,14,1,2156.2000000476837,383283.2000000477,7223,NNB,A,13
12,test,3,0.0,1-Back,1.0,m,Fri Sep 12 2025 14:22:16 GMT-0500 (Central Daylight Time),388138.90000009537,058_m_m_n_a.png,O,m,1683,15,1,2690.600000023842,385448.3000000715,7223,NNB,A,14
13,test,3,1.0,1-Back,1.0,z,Fri Sep 12 2025 14:22:16 GMT-0500 (Central Daylight Time),390154.2000000477,058_m_m_n_a.png,O,z,984,16,1,2007.3999999761581,388146.8000000715,7223,NNB,A,15
14,test,3,0.0,1-Back,1.0,m,Fri Sep 12 2025 14:22:16 GMT-0500 (Central Daylight Time),392187.40000009537,047_o_f_n_a.png,O,m,1016,17,1,2023.4000000953674,390164.0,7223,NNB,A,16
15,test,3,1.0,1-Back,1.0,z,Fri Sep 12 2025 14:22:16 GMT-0500 (Central Daylight Time),394419.7000000477,047_o_f_n_a.png,O,z,1215,18,1,2221.100000023842,392198.60000002384,7223,NNB,A,17
0,test,4,1.0,1-Back,,,Fri Sep 12 2025 14:22:16 GMT-0500 (Central Daylight Time),394419.7000000477,050_m_f_n_a.png,O,space,1005,1,1,2221.100000023842,392198.60000002384,7223,NNB,A,0
1,test,4,0.0,1-Back,1.0,m,Fri Sep 12 2025 14:22:16 GMT-0500 (Central Daylight Time),399434.40000009537,046_o_m_n_a.png,O,m,959,2,1,1972.2000000476837,397462.2000000477,7223,NNB,A,1
2,test,4,0.0,1-Back,1.0,m,Fri Sep 12 2025 14:22:16 GMT-0500 (Central Daylight Time),401600.7000000477,050_m_f_n_a.png,O,m,1135,3,1,2155.7999999523163,399444.90000009537,7223,NNB,A,2
3,test,4,0.0,1-Back,1.0,m,Fri Sep 12 2025 14:22:16 GMT-0500 (Central Daylight Time),403783.60000002384,044_o_f_n_a.png,O,m,1155,4,1,2171.2999999523163,401612.3000000715,7223,NNB,A,3
4,test,4,1.0,1-Back,1.0,z,Fri Sep 12 2025 14:22:16 GMT-0500 (Central Daylight Time),406014.60000002384,044_o_f_n_a.png,O,z,1211,5,1,2222.600000023842,403792.0,7223,NNB,A,4
5,test,4,0.0,1-Back,1.0,m,Fri Sep 12 2025 14:22:16 GMT-0500 (Central Daylight Time),407815.10000002384,063_y_f_n_a.png,O,m,771,6,1,1791.3999999761581,406023.7000000477,7223,NNB,A,5
6,test,4,0.0,1-Back,1.0,m,Fri Sep 12 2025 14:22:16 GMT-0500 (Central Daylight Time),410081.60000002384,041_y_m_n_a.png,O,m,1244,7,1,2255.100000023842,407826.5,7223,NNB,A,6
7,test,4,1.0,1-Back,1.0,z,Fri Sep 12 2025 14:22:16 GMT-0500 (Central Daylight Time),411948.5,041_y_m_n_a.png,O,z,850,8,1,1856.5999999046326,410091.90000009537,7223,NNB,A,7
8,test,4,0.0,1-Back,1.0,m,Fri Sep 12 2025 14:22:16 GMT-0500 (Central Daylight Time),413830.3000000715,063_y_f_n_a.png,O,m,865,9,1,1872.6000000238419,411957.7000000477,7223,NNB,A,8
9,test,4,0.0,1-Back,1.0,m,Fri Sep 12 2025 14:22:16 GMT-0500 (Central Daylight Time),415997.60000002384,045_m_m_n_a.png,O,m,1150,10,1,2158.399999976158,413839.2000000477,7223,NNB,A,9
10,test,4,1.0,1-Back,1.0,z,Fri Sep 12 2025 14:22:16 GMT-0500 (Central Daylight Time),417763.10000002384,045_m_m_n_a.png,O,z,734,11,1,1756.1000000238419,416007.0,7223,NNB,A,10
11,test,4,0.0,1-Back,1.0,m,Fri Sep 12 2025 14:22:16 GMT-0500 (Central Daylight Time),419778.10000002384,047_o_f_n_a.png,O,m,993,12,1,2005.3999999761581,417772.7000000477,7223,NNB,A,11
12,test,4,0.0,1-Back,1.0,m,Fri Sep 12 2025 14:22:16 GMT-0500 (Central Daylight Time),422377.0,053_o_m_n_a.png,O,m,1567,13,1,2588.2999999523163,419788.7000000477,7223,NNB,A,12
13,test,4,0.0,1-Back,1.0,m,Fri Sep 12 2025 14:22:16 GMT-0500 (Central Daylight Time),424461.0,047_o_f_n_a.png,O,m,1058,14,1,2076.2999999523163,422384.7000000477,7223,NNB,A,13
14,test,4,0.0,1-Back,1.0,m,Fri Sep 12 2025 14:22:16 GMT-0500 (Central Daylight Time),426426.10000002384,010_y_f_n_a.png,O,m,943,15,1,1956.0,424470.10000002384,7223,NNB,A,14
15,test,4,1.0,1-Back,1.0,z,Fri Sep 12 2025 14:22:16 GMT-0500 (Central Daylight Time),428109.5,010_y_f_n_a.png,O,z,666,16,1,1674.3999999761581,426435.10000002384,7223,NNB,A,15
16,test,4,0.0,1-Back,1.0,m,Fri Sep 12 2025 14:22:16 GMT-0500 (Central Daylight Time),430157.7000000477,043_m_f_n_a.png,O,m,1021,17,1,2037.7000000476837,428120.0,7223,NNB,A,16
17,test,4,1.0,1-Back,1.0,z,Fri Sep 12 2025 14:22:16 GMT-0500 (Central Daylight Time),431857.5,043_m_f_n_a.png,O,z,677,18,1,1689.1999999284744,430168.3000000715,7223,NNB,A,17
0,test,5,1.0,1-Back,,,Fri Sep 12 2025 14:22:16 GMT-0500 (Central Daylight Time),431857.5,053_o_m_n_a.png,O,space,1067,1,1,1689.1999999284744,430168.3000000715,7223,NNB,A,0
0,test,5,1.0,1-Back,0.0,z,Fri Sep 12 2025 14:22:16 GMT-0500 (Central Daylight Time),436706.5,053_o_m_n_a.png,O,m,734,2,1,1755.3999999761581,434951.10000002384,7223,NNB,A,1
1,test,5,0.0,1-Back,1.0,m,Fri Sep 12 2025 14:22:16 GMT-0500 (Central Daylight Time),438672.60000002384,063_y_f_n_a.png,O,m,944,3,1,1956.6999999284744,436715.90000009537,7223,NNB,A,2
2,test,5,0.0,1-Back,1.0,m,Fri Sep 12 2025 14:22:16 GMT-0500 (Central Daylight Time),440522.0,041_y_m_n_a.png,O,m,817,4,1,1839.7999999523163,438682.2000000477,7223,NNB,A,3
3,test,5,0.0,1-Back,1.0,m,Fri Sep 12 2025 14:22:16 GMT-0500 (Central Daylight Time),442657.7000000477,063_y_f_n_a.png,O,m,1119,5,1,2126.0,440531.7000000477,7223,NNB,A,4
4,test,5,0.0,1-Back,1.0,m,Fri Sep 12 2025 14:22:16 GMT-0500 (Central Daylight Time),444853.40000009537,058_m_m_n_a.png,O,m,1166,6,1,2190.5,442662.90000009537,7223,NNB,A,5
5,test,5,1.0,1-Back,1.0,z,Fri Sep 12 2025 14:22:16 GMT-0500 (Central Daylight Time),446420.3000000715,058_m_m_n_a.png,O,z,532,7,1,1556.8000000715256,444863.5,7223,NNB,A,6
6,test,5,0.0,1-Back,1.0,m,Fri Sep 12 2025 14:22:16 GMT-0500 (Central Daylight Time),448253.8000000715,010_y_f_n_a.png,O,m,817,8,1,1825.1000000238419,446428.7000000477,7223,NNB,A,7
7,test,5,0.0,1-Back,1.0,m,Fri Sep 12 2025 14:22:16 GMT-0500 (Central Daylight Time),450400.2000000477,008_y_m_n_a.png,O,m,1125,9,1,2136.0,448264.2000000477,7223,NNB,A,8
8,test,5,0.0,1-Back,1.0,m,Fri Sep 12 2025 14:22:16 GMT-0500 (Central Daylight Time),452501.60000002384,010_y_f_n_a.png,O,m,1072,10,1,2095.1999999284744,450406.40000009537,7223,NNB,A,9
9,test,5,0.0,1-Back,1.0,m,Fri Sep 12 2025 14:22:16 GMT-0500 (Central Daylight Time),454283.7000000477,047_o_f_n_a.png,O,m,757,11,1,1771.8999999761581,452511.8000000715,7223,NNB,A,10
10,test,5,1.0,1-Back,1.0,z,Fri Sep 12 2025 14:22:16 GMT-0500 (Central Daylight Time),455749.8000000715,047_o_f_n_a.png,O,z,439,12,1,1457.1000000238419,454292.7000000477,7223,NNB,A,11
11,test,5,0.0,1-Back,1.0,m,Fri Sep 12 2025 14:22:16 GMT-0500 (Central Daylight Time),457549.0,046_o_m_n_a.png,O,m,767,13,1,1788.6999999284744,455760.3000000715,7223,NNB,A,12
12,test,5,0.0,1-Back,1.0,m,Fri Sep 12 2025 14:22:16 GMT-0500 (Central Daylight Time),459681.90000009537,050_m_f_n_a.png,O,m,1108,14,1,2122.4000000953674,457559.5,7223,NNB,A,13
13,test,5,1.0,1-Back,1.0,z,Fri Sep 12 2025 14:22:16 GMT-0500 (Central Daylight Time),461514.7000000477,050_m_f_n_a.png,O,z,809,15,1,1823.7999999523163,459690.90000009537,7223,NNB,A,14
14,test,5,0.0,1-Back,1.0,m,Fri Sep 12 2025 14:22:16 GMT-0500 (Central Daylight Time),463397.5,046_o_m_n_a.png,O,m,855,16,1,1871.6999999284744,461525.8000000715,7223,NNB,A,15
15,test,5,0.0,1-Back,1.0,m,Fri Sep 12 2025 14:22:16 GMT-0500 (Central Daylight Time),465130.3000000715,043_m_f_n_a.png,O,m,700,17,1,1721.5,463408.8000000715,7223,NNB,A,16
16,test,5,0.0,1-Back,1.0,m,Fri Sep 12 2025 14:22:16 GMT-0500 (Central Daylight Time),467162.2000000477,045_m_m_n_a.png,O,m,1009,18,1,2022.8999999761581,465139.3000000715,7223,NNB,A,17
0,prac,1,0.0,2-Back,,,Fri Sep 12 2025 14:22:16 GMT-0500 (Central Daylight Time),467162.2000000477,008_y_m_n_a.png,O,space,16695,1,1,2022.8999999761581,465139.3000000715,7223,NNB,A,0
0,prac,1,0.0,2-Back,,,Fri Sep 12 2025 14:22:16 GMT-0500 (Central Daylight Time),467162.2000000477,043_m_f_n_a.png,O,space,16695,2,1,2022.8999999761581,465139.3000000715,7223,NNB,A,0
1,prac,1,1.0,2-Back,1.0,m,Fri Sep 12 2025 14:22:16 GMT-0500 (Central Daylight Time),703938.6000000238,046_o_m_n_a.png,O,m,1485,3,1,2276.100000023842,701662.5,7223,NNB,A,1
2,prac,1,0.0,2-Back,1.0,m,Fri Sep 12 2025 14:22:16 GMT-0500 (Central Daylight Time),706119.1000000238,047_o_f_n_a.png,O,m,1348,4,1,2168.2999999523163,703950.8000000715,7223,NNB,A,2
3,prac,1,0.0,2-Back,1.0,z,Fri Sep 12 2025 14:22:16 GMT-0500 (Central Daylight Time),708318.5,046_o_m_n_a.png,O,z,1416,5,1,2187.6999999284744,706130.8000000715,7223,NNB,A,3
4,prac,1,1.0,2-Back,1.0,z,Fri Sep 12 2025 14:22:16 GMT-0500 (Central Daylight Time),710867.7000000477,047_o_f_n_a.png,O,z,1762,6,1,2538.899999976158,708328.8000000715,7223,NNB,A,4
5,prac,1,0.0,2-Back,1.0,m,Fri Sep 12 2025 14:22:16 GMT-0500 (Central Daylight Time),713102.4000000954,045_m_m_n_a.png,O,m,1450,7,1,2224.4000000953674,710878.0,7223,NNB,A,5
6,prac,1,0.0,2-Back,1.0,m,Fri Sep 12 2025 14:22:16 GMT-0500 (Central Daylight Time),715632.8000000715,053_o_m_n_a.png,O,m,1715,8,1,2518.3000000715256,713114.5,7223,NNB,A,6
7,prac,1,0.0,2-Back,1.0,m,Fri Sep 12 2025 14:22:16 GMT-0500 (Central Daylight Time),717600.2000000477,010_y_f_n_a.png,O,m,1133,9,1,1955.5,715644.7000000477,7223,NNB,A,7
8,prac,1,1.0,2-Back,1.0,z,Fri Sep 12 2025 14:22:16 GMT-0500 (Central Daylight Time),719782.7000000477,053_o_m_n_a.png,O,z,1414,10,1,2169.899999976158,717612.8000000715,7223,NNB,A,8
9,prac,1,0.0,2-Back,1.0,m,Fri Sep 12 2025 14:22:16 GMT-0500 (Central Daylight Time),722197.1000000238,063_y_f_n_a.png,O,m,1596,11,1,2403.2999999523163,719793.8000000715,7223,NNB,A,9
10,prac,1,0.0,2-Back,1.0,m,Fri Sep 12 2025 14:22:16 GMT-0500 (Central Daylight Time),724330.7000000477,045_m_m_n_a.png,O,m,1347,12,1,2122.899999976158,722207.8000000715,7223,NNB,A,10
0,test,1,0.0,2-Back,,,Fri Sep 12 2025 14:22:16 GMT-0500 (Central Daylight Time),724330.7000000477,041_y_m_n_a.png,O,space,5765,1,1,2122.899999976158,722207.8000000715,7223,NNB,A,0
0,test,1,0.0,2-Back,,,Fri Sep 12 2025 14:22:16 GMT-0500 (Central Daylight Time),724330.7000000477,041_y_m_n_a.png,O,space,5765,2,1,2122.899999976158,722207.8000000715,7223,NNB,A,0
1,test,1,0.0,2-Back,1.0,m,Fri Sep 12 2025 14:22:16 GMT-0500 (Central Daylight Time),752438.6000000238,047_o_f_n_a.png,O,m,1730,3,1,2739.899999976158,749698.7000000477,7223,NNB,A,1
2,test,1,0.0,2-Back,1.0,m,Fri Sep 12 2025 14:22:16 GMT-0500 (Central Daylight Time),754987.8000000715,058_m_m_n_a.png,O,m,1516,4,1,2538.2000000476837,752449.6000000238,7223,NNB,A,2
3,test,1,1.0,2-Back,1.0,z,Fri Sep 12 2025 14:22:16 GMT-0500 (Central Daylight Time),757019.1000000238,047_o_f_n_a.png,O,z,1014,5,1,2019.3999999761581,754999.7000000477,7223,NNB,A,3
4,test,1,0.0,2-Back,1.0,m,Fri Sep 12 2025 14:22:16 GMT-0500 (Central Daylight Time),759188.6000000238,063_y_f_n_a.png,O,m,1151,6,1,2163.7999999523163,757024.8000000715,7223,NNB,A,4
4,test,1,0.0,2-Back,0.0,m,Fri Sep 12 2025 14:22:16 GMT-0500 (Central Daylight Time),761585.5,058_m_m_n_a.png,O,z,1367,7,1,2386.1999999284744,759199.3000000715,7223,NNB,A,5
5,test,1,1.0,2-Back,1.0,z,Fri Sep 12 2025 14:22:16 GMT-0500 (Central Daylight Time),763670.1000000238,063_y_f_n_a.png,O,z,1064,8,1,2075.2999999523163,761594.8000000715,7223,NNB,A,6
6,test,1,0.0,2-Back,1.0,m,Fri Sep 12 2025 14:22:16 GMT-0500 (Central Daylight Time),765800.9000000954,008_y_m_n_a.png,O,m,1109,9,1,2120.3000000715256,763680.6000000238,7223,NNB,A,7
7,test,1,0.0,2-Back,1.0,m,Fri Sep 12 2025 14:22:16 GMT-0500 (Central Daylight Time),768167.1000000238,044_o_f_n_a.png,O,m,1346,10,1,2356.7999999523163,765810.3000000715,7223,NNB,A,8
7,test,1,1.0,2-Back,0.0,z,Fri Sep 12 2025 14:22:16 GMT-0500 (Central Daylight Time),771200.6000000238,008_y_m_n_a.png,O,None,2016,11,1,3022.399999976158,768178.2000000477,7223,NNB,A,9
8,test,1,0.0,2-Back,1.0,m,Fri Sep 12 2025 14:22:16 GMT-0500 (Central Daylight Time),773332.8000000715,043_m_f_n_a.png,O,m,1112,12,1,2122.8000000715256,771210.0,7223,NNB,A,10
9,test,1,0.0,2-Back,1.0,m,Fri Sep 12 2025 14:22:16 GMT-0500 (Central Daylight Time),776064.8000000715,043_m_f_n_a.png,O,m,1701,13,1,2725.100000023842,773339.7000000477,7223,NNB,A,11
10,test,1,0.0,2-Back,1.0,m,Fri Sep 12 2025 14:22:16 GMT-0500 (Central Daylight Time),778446.3000000715,046_o_m_n_a.png,O,m,1354,14,1,2372.5,776073.8000000715,7223,NNB,A,12
11,test,1,0.0,2-Back,1.0,m,Fri Sep 12 2025 14:22:16 GMT-0500 (Central Daylight Time),780580.0,044_o_f_n_a.png,O,m,1116,15,1,2123.1999999284744,778456.8000000715,7223,NNB,A,13
12,test,1,1.0,2-Back,1.0,z,Fri Sep 12 2025 14:22:16 GMT-0500 (Central Daylight Time),782928.5,046_o_m_n_a.png,O,z,1317,16,1,2339.5,780589.0,7223,NNB,A,14
13,test,1,0.0,2-Back,1.0,m,Fri Sep 12 2025 14:22:16 GMT-0500 (Central Daylight Time),785028.3000000715,050_m_f_n_a.png,O,m,1074,17,1,2089.3000000715256,782939.0,7223,NNB,A,15
14,test,1,0.0,2-Back,1.0,m,Fri Sep 12 2025 14:22:16 GMT-0500 (Central Daylight Time),787861.4000000954,045_m_m_n_a.png,O,m,1816,18,1,2824.0,785037.4000000954,7223,NNB,A,16
0,test,2,0.0,2-Back,,,Fri Sep 12 2025 14:22:16 GMT-0500 (Central Daylight Time),787861.4000000954,045_m_m_n_a.png,O,space,1333,1,1,2824.0,785037.4000000954,7223,NNB,A,0
0,test,2,0.0,2-Back,,,Fri Sep 12 2025 14:22:16 GMT-0500 (Central Daylight Time),787861.4000000954,010_y_f_n_a.png,O,space,1333,2,1,2824.0,785037.4000000954,7223,NNB,A,0
1,test,2,1.0,2-Back,1.0,z,Fri Sep 12 2025 14:22:16 GMT-0500 (Central Daylight Time),795928.2000000477,045_m_m_n_a.png,O,z,602,3,1,1606.2000000476837,794322.0,7223,NNB,A,1
2,test,2,0.0,2-Back,1.0,m,Fri Sep 12 2025 14:22:16 GMT-0500 (Central Daylight Time),798357.3000000715,050_m_f_n_a.png,O,m,1401,4,1,2424.100000023842,795933.2000000477,7223,NNB,A,2
2,test,2,0.0,2-Back,0.0,m,Fri Sep 12 2025 14:22:16 GMT-0500 (Central Daylight Time),801389.9000000954,010_y_f_n_a.png,O,None,2016,5,1,3022.5,798367.4000000954,7223,NNB,A,3
3,test,2,0.0,2-Back,1.0,m,Fri Sep 12 2025 14:22:16 GMT-0500 (Central Daylight Time),803372.6000000238,046_o_m_n_a.png,O,m,955,6,1,1973.6000000238419,801399.0,7223,NNB,A,4
4,test,2,0.0,2-Back,1.0,m,Fri Sep 12 2025 14:22:16 GMT-0500 (Central Daylight Time),805538.3000000715,063_y_f_n_a.png,O,m,1142,7,1,2155.100000023842,803383.2000000477,7223,NNB,A,5
5,test,2,1.0,2-Back,1.0,z,Fri Sep 12 2025 14:22:16 GMT-0500 (Central Daylight Time),807669.1000000238,046_o_m_n_a.png,O,z,1110,8,1,2120.100000023842,805549.0,7223,NNB,A,6
6,test,2,0.0,2-Back,1.0,m,Fri Sep 12 2025 14:22:16 GMT-0500 (Central Daylight Time),809554.8000000715,008_y_m_n_a.png,O,m,851,9,1,1880.3999999761581,807674.4000000954,7223,NNB,A,7
7,test,2,0.0,2-Back,1.0,m,Fri Sep 12 2025 14:22:16 GMT-0500 (Central Daylight Time),812351.7000000477,008_y_m_n_a.png,O,m,1767,10,1,2785.7999999523163,809565.9000000954,7223,NNB,A,8
8,test,2,0.0,2-Back,1.0,m,Fri Sep 12 2025 14:22:16 GMT-0500 (Central Daylight Time),814951.5,043_m_f_n_a.png,O,m,1569,11,1,2593.5999999046326,812357.9000000954,7223,NNB,A,9
9,test,2,0.0,2-Back,1.0,m,Fri Sep 12 2025 14:22:16 GMT-0500 (Central Daylight Time),817169.2000000477,010_y_f_n_a.png,O,m,1194,12,1,2206.7000000476837,814962.5,7223,NNB,A,10
10,test,2,1.0,2-Back,1.0,z,Fri Sep 12 2025 14:22:16 GMT-0500 (Central Daylight Time),819233.9000000954,043_m_f_n_a.png,O,z,1044,13,1,2054.3000000715256,817179.6000000238,7223,NNB,A,11
11,test,2,0.0,2-Back,1.0,m,Fri Sep 12 2025 14:22:16 GMT-0500 (Central Daylight Time),821399.8000000715,053_o_m_n_a.png,O,m,1143,14,1,2157.0,819242.8000000715,7223,NNB,A,12
12,test,2,0.0,2-Back,1.0,m,Fri Sep 12 2025 14:22:16 GMT-0500 (Central Daylight Time),823917.2000000477,053_o_m_n_a.png,O,m,1500,15,1,2507.100000023842,821410.1000000238,7223,NNB,A,13
13,test,2,0.0,2-Back,1.0,m,Fri Sep 12 2025 14:22:16 GMT-0500 (Central Daylight Time),826532.8000000715,044_o_f_n_a.png,O,m,1592,16,1,2606.600000023842,823926.2000000477,7223,NNB,A,14
14,test,2,0.0,2-Back,1.0,m,Fri Sep 12 2025 14:22:16 GMT-0500 (Central Daylight Time),828629.9000000954,058_m_m_n_a.png,O,m,1071,17,1,2084.8000000715256,826545.1000000238,7223,NNB,A,15
15,test,2,1.0,2-Back,1.0,z,Fri Sep 12 2025 14:22:16 GMT-0500 (Central Daylight Time),830863.5,044_o_f_n_a.png,O,z,1203,18,1,2224.1999999284744,828639.3000000715,7223,NNB,A,16
0,test,3,1.0,2-Back,,,Fri Sep 12 2025 14:22:16 GMT-0500 (Central Daylight Time),830863.5,041_y_m_n_a.png,O,space,1019,1,1,2224.1999999284744,828639.3000000715,7223,NNB,A,0
0,test,3,1.0,2-Back,,,Fri Sep 12 2025 14:22:16 GMT-0500 (Central Daylight Time),830863.5,041_y_m_n_a.png,O,space,1019,2,1,2224.1999999284744,828639.3000000715,7223,NNB,A,0
1,test,3,0.0,2-Back,1.0,m,Fri Sep 12 2025 14:22:16 GMT-0500 (Central Daylight Time),839210.1000000238,044_o_f_n_a.png,O,m,1218,3,1,2239.600000023842,836970.5,7223,NNB,A,1
2,test,3,0.0,2-Back,1.0,m,Fri Sep 12 2025 14:22:16 GMT-0500 (Central Daylight Time),842060.9000000954,045_m_m_n_a.png,O,m,1818,4,1,2841.100000023842,839219.8000000715,7223,NNB,A,2
3,test,3,1.0,2-Back,1.0,z,Fri Sep 12 2025 14:22:16 GMT-0500 (Central Daylight Time),843992.9000000954,044_o_f_n_a.png,O,z,900,5,1,1921.8000000715256,842071.1000000238,7223,NNB,A,3
4,test,3,0.0,2-Back,1.0,m,Fri Sep 12 2025 14:22:16 GMT-0500 (Central Daylight Time),846090.9000000954,008_y_m_n_a.png,O,m,1066,6,1,2088.5,844002.4000000954,7223,NNB,A,4
4,test,3,0.0,2-Back,0.0,m,Fri Sep 12 2025 14:22:16 GMT-0500 (Central Daylight Time),848624.1000000238,045_m_m_n_a.png,O,z,1502,7,1,2521.0,846103.1000000238,7223,NNB,A,5
5,test,3,1.0,2-Back,1.0,z,Fri Sep 12 2025 14:22:16 GMT-0500 (Central Daylight Time),851156.1000000238,008_y_m_n_a.png,O,z,1514,8,1,2521.600000023842,848634.5,7223,NNB,A,6
6,test,3,0.0,2-Back,1.0,m,Fri Sep 12 2025 14:22:16 GMT-0500 (Central Daylight Time),853338.7000000477,010_y_f_n_a.png,O,m,1159,9,1,2170.0,851168.7000000477,7223,NNB,A,7
7,test,3,0.0,2-Back,1.0,m,Fri Sep 12 2025 14:22:16 GMT-0500 (Central Daylight Time),855723.2000000477,058_m_m_n_a.png,O,m,1367,10,1,2372.7000000476837,853350.5,7223,NNB,A,8
8,test,3,1.0,2-Back,1.0,z,Fri Sep 12 2025 14:22:16 GMT-0500 (Central Daylight Time),857722.2000000477,010_y_f_n_a.png,O,z,977,11,1,1987.5,855734.7000000477,7223,NNB,A,9
9,test,3,1.0,2-Back,1.0,z,Fri Sep 12 2025 14:22:16 GMT-0500 (Central Daylight Time),860303.4000000954,058_m_m_n_a.png,O,z,1552,12,1,2569.8000000715256,857733.6000000238,7223,NNB,A,10
10,test,3,0.0,2-Back,1.0,m,Fri Sep 12 2025 14:22:16 GMT-0500 (Central Daylight Time),862253.3000000715,044_o_f_n_a.png,O,m,929,13,1,1940.0,860313.3000000715,7223,NNB,A,11
11,test,3,0.0,2-Back,1.0,m,Fri Sep 12 2025 14:22:16 GMT-0500 (Central Daylight Time),864321.0,050_m_f_n_a.png,O,m,1046,14,1,2057.5999999046326,862263.4000000954,7223,NNB,A,12
12,test,3,0.0,2-Back,1.0,m,Fri Sep 12 2025 14:22:16 GMT-0500 (Central Daylight Time),866336.3000000715,046_o_m_n_a.png,O,m,987,15,1,2004.8999999761581,864331.4000000954,7223,NNB,A,13
13,test,3,1.0,2-Back,1.0,z,Fri Sep 12 2025 14:22:16 GMT-0500 (Central Daylight Time),868584.5,050_m_f_n_a.png,O,z,1219,16,1,2237.5999999046326,866346.9000000954,7223,NNB,A,14
14,test,3,0.0,2-Back,1.0,m,Fri Sep 12 2025 14:22:16 GMT-0500 (Central Daylight Time),870567.0,047_o_f_n_a.png,O,m,960,17,1,1972.5999999046326,868594.4000000954,7223,NNB,A,15
14,test,3,0.0,2-Back,0.0,m,Fri Sep 12 2025 14:22:16 GMT-0500 (Central Daylight Time),873485.0,047_o_f_n_a.png,O,z,1902,18,1,2908.2999999523163,870576.7000000477,7223,NNB,A,16
0,test,4,0.0,2-Back,,,Fri Sep 12 2025 14:22:16 GMT-0500 (Central Daylight Time),873485.0,053_o_m_n_a.png,O,space,1047,1,1,2908.2999999523163,870576.7000000477,7223,NNB,A,0
0,test,4,0.0,2-Back,,,Fri Sep 12 2025 14:22:16 GMT-0500 (Central Daylight Time),873485.0,063_y_f_n_a.png,O,space,1047,2,1,2908.2999999523163,870576.7000000477,7223,NNB,A,0
1,test,4,1.0,2-Back,1.0,z,Fri Sep 12 2025 14:22:16 GMT-0500 (Central Daylight Time),881748.9000000954,053_o_m_n_a.png,O,z,1100,3,1,2107.7000000476837,879641.2000000477,7223,NNB,A,1
2,test,4,1.0,2-Back,1.0,z,Fri Sep 12 2025 14:22:16 GMT-0500 (Central Daylight Time),883646.3000000715,063_y_f_n_a.png,O,z,880,4,1,1886.8000000715256,881759.5,7223,NNB,A,2
3,test,4,0.0,2-Back,1.0,m,Fri Sep 12 2025 14:22:16 GMT-0500 (Central Daylight Time),885713.7000000477,044_o_f_n_a.png,O,m,1043,5,1,2061.7999999523163,883651.9000000954,7223,NNB,A,3
4,test,4,0.0,2-Back,1.0,m,Fri Sep 12 2025 14:22:16 GMT-0500 (Central Daylight Time),888395.9000000954,044_o_f_n_a.png,O,m,1660,6,1,2672.2000000476837,885723.7000000477,7223,NNB,A,4
4,test,4,0.0,2-Back,0.0,m,Fri Sep 12 2025 14:22:16 GMT-0500 (Central Daylight Time),891428.8000000715,043_m_f_n_a.png,O,None,2015,7,1,3024.399999976158,888404.4000000954,7223,NNB,A,5
5,test,4,0.0,2-Back,1.0,m,Fri Sep 12 2025 14:22:16 GMT-0500 (Central Daylight Time),893593.8000000715,008_y_m_n_a.png,O,m,1133,8,1,2157.3000000715256,891436.5,7223,NNB,A,6
6,test,4,1.0,2-Back,1.0,z,Fri Sep 12 2025 14:22:16 GMT-0500 (Central Daylight Time),895709.3000000715,043_m_f_n_a.png,O,z,1088,9,1,2104.7000000476837,893604.6000000238,7223,NNB,A,7
7,test,4,0.0,2-Back,1.0,m,Fri Sep 12 2025 14:22:16 GMT-0500 (Central Daylight Time),897660.3000000715,058_m_m_n_a.png,O,m,917,10,1,1939.8000000715256,895720.5,7223,NNB,A,8
8,test,4,0.0,2-Back,1.0,m,Fri Sep 12 2025 14:22:16 GMT-0500 (Central Daylight Time),900059.3000000715,008_y_m_n_a.png,O,m,1367,11,1,2389.8000000715256,897669.5,7223,NNB,A,9
9,test,4,0.0,2-Back,1.0,m,Fri Sep 12 2025 14:22:16 GMT-0500 (Central Daylight Time),902390.3000000715,047_o_f_n_a.png,O,m,1302,12,1,2322.100000023842,900068.2000000477,7223,NNB,A,10
10,test,4,0.0,2-Back,1.0,m,Fri Sep 12 2025 14:22:16 GMT-0500 (Central Daylight Time),904590.1000000238,041_y_m_n_a.png,O,m,1181,13,1,2189.600000023842,902400.5,7223,NNB,A,11
11,test,4,1.0,2-Back,1.0,z,Fri Sep 12 2025 14:22:16 GMT-0500 (Central Daylight Time),906707.1000000238,047_o_f_n_a.png,O,z,1084,14,1,2109.1999999284744,904597.9000000954,7223,NNB,A,12
11,test,4,1.0,2-Back,0.0,z,Fri Sep 12 2025 14:22:16 GMT-0500 (Central Daylight Time),908588.6000000238,041_y_m_n_a.png,O,m,856,15,1,1869.6000000238419,906719.0,7223,NNB,A,13
12,test,4,0.0,2-Back,1.0,m,Fri Sep 12 2025 14:22:16 GMT-0500 (Central Daylight Time),910487.8000000715,045_m_m_n_a.png,O,m,877,16,1,1890.0,908597.8000000715,7223,NNB,A,14
13,test,4,0.0,2-Back,1.0,m,Fri Sep 12 2025 14:22:16 GMT-0500 (Central Daylight Time),912438.3000000715,050_m_f_n_a.png,O,m,921,17,1,1939.5,910498.8000000715,7223,NNB,A,15
13,test,4,1.0,2-Back,0.0,z,Fri Sep 12 2025 14:22:16 GMT-0500 (Central Daylight Time),915070.5,045_m_m_n_a.png,O,m,1605,18,1,2626.5,912444.0,7223,NNB,A,16
0,test,5,1.0,2-Back,,,Fri Sep 12 2025 14:22:16 GMT-0500 (Central Daylight Time),915070.5,041_y_m_n_a.png,O,space,970,1,1,2626.5,912444.0,7223,NNB,A,0
0,test,5,1.0,2-Back,,,Fri Sep 12 2025 14:22:16 GMT-0500 (Central Daylight Time),915070.5,050_m_f_n_a.png,O,space,970,2,1,2626.5,912444.0,7223,NNB,A,0
1,test,5,1.0,2-Back,1.0,z,Fri Sep 12 2025 14:22:16 GMT-0500 (Central Daylight Time),922934.1000000238,041_y_m_n_a.png,O,z,800,3,1,1822.6000000238419,921111.5,7223,NNB,A,1
2,test,5,1.0,2-Back,1.0,z,Fri Sep 12 2025 14:22:16 GMT-0500 (Central Daylight Time),924850.5,050_m_f_n_a.png,O,z,893,4,1,1904.5999999046326,922945.9000000954,7223,NNB,A,2
3,test,5,0.0,2-Back,1.0,m,Fri Sep 12 2025 14:22:16 GMT-0500 (Central Daylight Time),927150.0,047_o_f_n_a.png,O,m,1272,5,1,2289.5,924860.5,7223,NNB,A,3
3,test,5,0.0,2-Back,0.0,m,Fri Sep 12 2025 14:22:16 GMT-0500 (Central Daylight Time),930098.0,041_y_m_n_a.png,O,z,1916,6,1,2937.6999999284744,927160.3000000715,7223,NNB,A,4
4,test,5,0.0,2-Back,1.0,m,Fri Sep 12 2025 14:22:16 GMT-0500 (Central Daylight Time),932182.1000000238,010_y_f_n_a.png,O,m,1066,7,1,2076.5,930105.6000000238,7223,NNB,A,5
4,test,5,0.0,2-Back,0.0,m,Fri Sep 12 2025 14:22:16 GMT-0500 (Central Daylight Time),934564.2000000477,047_o_f_n_a.png,O,z,1358,8,1,2371.7999999523163,932192.4000000954,7223,NNB,A,6
4,test,5,1.0,2-Back,0.0,z,Fri Sep 12 2025 14:22:16 GMT-0500 (Central Daylight Time),936380.9000000954,010_y_f_n_a.png,O,m,799,9,1,1806.8000000715256,934574.1000000238,7223,NNB,A,7
5,test,5,0.0,2-Back,1.0,m,Fri Sep 12 2025 14:22:16 GMT-0500 (Central Daylight Time),938696.7000000477,046_o_m_n_a.png,O,m,1284,10,1,2304.600000023842,936392.1000000238,7223,NNB,A,8
6,test,5,0.0,2-Back,1.0,m,Fri Sep 12 2025 14:22:16 GMT-0500 (Central Daylight Time),941028.7000000477,043_m_f_n_a.png,O,m,1307,11,1,2321.0,938707.7000000477,7223,NNB,A,9
7,test,5,0.0,2-Back,1.0,m,Fri Sep 12 2025 14:22:16 GMT-0500 (Central Daylight Time),942960.4000000954,058_m_m_n_a.png,O,m,910,12,1,1921.0,941039.4000000954,7223,NNB,A,10
8,test,5,0.0,2-Back,1.0,m,Fri Sep 12 2025 14:22:16 GMT-0500 (Central Daylight Time),945160.4000000954,046_o_m_n_a.png,O,m,1177,13,1,2190.5,942969.9000000954,7223,NNB,A,11
9,test,5,1.0,2-Back,1.0,z,Fri Sep 12 2025 14:22:16 GMT-0500 (Central Daylight Time),947026.5,058_m_m_n_a.png,O,z,835,14,1,1856.0,945170.5,7223,NNB,A,12
10,test,5,0.0,2-Back,1.0,m,Fri Sep 12 2025 14:22:16 GMT-0500 (Central Daylight Time),949144.0,063_y_f_n_a.png,O,m,1096,15,1,2107.5,947036.5,7223,NNB,A,13
11,test,5,0.0,2-Back,1.0,m,Fri Sep 12 2025 14:22:16 GMT-0500 (Central Daylight Time),951241.9000000954,053_o_m_n_a.png,O,m,1065,16,1,2088.8000000715256,949153.1000000238,7223,NNB,A,14
12,test,5,0.0,2-Back,1.0,m,Fri Sep 12 2025 14:22:16 GMT-0500 (Central Daylight Time),953240.2000000477,043_m_f_n_a.png,O,m,967,17,1,1988.7000000476837,951251.5,7223,NNB,A,15
13,test,5,1.0,2-Back,1.0,z,Fri Sep 12 2025 14:22:16 GMT-0500 (Central Daylight Time),955090.0,053_o_m_n_a.png,O,z,818,18,1,1840.0,953250.0,7223,NNB,A,16
