Q,Q1,Q2,Q3,Q4,acc_sum,block,block_c,correct,correct_response,datetime,endtime,project,response,response_time,row_sel,session_number,squiggle1,squiggle1x,squiggle1y,squiggle2,squiggle2x,squiggle2y,squiggle3,squiggle3x,squiggle3y,squiggle4,squiggle4x,squiggle4y,start_end,starttime,subject_id,target_congruent,task,task_vers,testsquiggle,testsquigglex,testsquiggley,time_practice_delay,time_practice_fixation,time_practice_stimuli,time_practice_study,time_test_delay,time_test_fixation,time_test_stimuli,time_test_study,trial
1,1,0,0,0,1,prac,1,1,z,Mon Jan 12 2026 15:27:23 GMT-0600 (Central Standard Time),99600.39999999944,I,z,1257,1,2,116.bmp,-120,-120,117.bmp,120,-120,118.bmp,-120,120,119.bmp,120,120,10077.200000000186,89523.19999999925,8072,yes,SM,A,116.bmp,-120,-120,93702,87673,95718,89686,,,,,1
3,0,0,1,0,1,prac,1,0,m,Mon Jan 12 2026 15:27:23 GMT-0600 (Central Standard Time),109313.89999999944,I,z,897,2,2,120.bmp,-120,-120,121.bmp,120,-120,122.bmp,-120,120,123.bmp,120,120,9709.200000000186,99604.69999999925,8072,no,SM,A,123.bmp,-120,120,103782,97755,105798,99767,,,,,2
4,0,0,0,1,1,prac,1,0,m,Mon Jan 12 2026 15:27:23 GMT-0600 (Central Standard Time),119560.89999999944,I,z,1423,3,2,124.bmp,-120,-120,125.bmp,120,-120,126.bmp,-120,120,127.bmp,120,120,10242.599999999627,109318.29999999981,8072,no,SM,A,124.bmp,120,120,113496,107469,115512,109480,,,,,3
2,0,1,0,0,1,prac,1,0,z,Mon Jan 12 2026 15:27:23 GMT-0600 (Central Standard Time),129824.39999999944,I,m,1449,4,2,128.bmp,-120,-120,129.bmp,120,-120,130.bmp,-120,120,131.bmp,120,120,10256.899999999441,119567.5,8072,yes,SM,A,129.bmp,120,-120,123742,117718,125758,119727,,,,,4
3,0,0,1,0,2,prac,1,1,z,Mon Jan 12 2026 15:27:23 GMT-0600 (Central Standard Time),139404.59999999963,I,z,761,5,2,132.bmp,-120,-120,133.bmp,120,-120,134.bmp,-120,120,135.bmp,120,120,9576.200000000186,129828.39999999944,8072,yes,SM,A,134.bmp,-120,120,134006,127979,136022,129990,,,,,5
1,1,0,0,0,3,prac,1,1,m,Mon Jan 12 2026 15:27:23 GMT-0600 (Central Standard Time),149418.0,I,m,1197,6,2,136.bmp,-120,-120,137.bmp,120,-120,138.bmp,-120,120,139.bmp,120,120,10010.200000000186,139407.7999999998,8072,no,SM,A,139.bmp,-120,-120,143586,137558,145602,139571,,,,,6
2,0,1,0,0,3,prac,1,0,m,Mon Jan 12 2026 15:27:23 GMT-0600 (Central Standard Time),160248.09999999963,I,None,2016,7,2,140.bmp,-120,-120,141.bmp,120,-120,142.bmp,-120,120,143.bmp,120,120,10826.400000000373,149421.69999999925,8072,no,SM,A,140.bmp,120,-120,153600,147572,155616,149584,,,,,7
4,0,0,0,1,4,prac,1,1,z,Mon Jan 12 2026 15:27:23 GMT-0600 (Central Standard Time),169861.7999999998,I,z,785,8,2,144.bmp,-120,-120,145.bmp,120,-120,146.bmp,-120,120,147.bmp,120,120,9608.600000000559,160253.19999999925,8072,yes,SM,A,147.bmp,120,120,164430,158404,166446,160414,,,,,8
4,0,0,0,1,0,test,1,0,m,Mon Jan 12 2026 15:27:23 GMT-0600 (Central Standard Time),189538.7999999998,I,z,848,1,2,148.bmp,-120,-120,149.bmp,120,-120,150.bmp,-120,120,143.bmp,120,120,8894.700000000186,180644.09999999963,8072,no,SM,A,150.bmp,120,120,164430,158404,166446,160414,184823.0,178794.0,186839.0,180808.0,1
2,0,1,0,0,1,test,1,1,m,Mon Jan 12 2026 15:27:23 GMT-0600 (Central Standard Time),198985.7999999998,I,m,1323,2,2,101.bmp,-120,-120,102.bmp,120,-120,103.bmp,-120,120,104.bmp,120,120,9443.5,189542.2999999998,8072,no,SM,A,103.bmp,120,-120,164430,158404,166446,160414,193796.0,187693.0,195804.0,189705.0,2
1,1,0,0,0,2,test,1,1,z,Mon Jan 12 2026 15:27:23 GMT-0600 (Central Standard Time),207983.09999999963,I,z,943,3,2,105.bmp,-120,-120,106.bmp,120,-120,107.bmp,-120,120,108.bmp,120,120,8993.0,198990.09999999963,8072,yes,SM,A,105.bmp,-120,-120,164430,158404,166446,160414,203168.0,197140.0,205184.0,199152.0,3
3,0,0,1,0,3,test,1,1,m,Mon Jan 12 2026 15:27:23 GMT-0600 (Central Standard Time),216980.2999999998,I,m,946,4,2,109.bmp,-120,-120,110.bmp,120,-120,111.bmp,-120,120,112.bmp,120,120,8993.400000000373,207986.89999999944,8072,no,SM,A,109.bmp,-120,120,164430,158404,166446,160414,212165.0,206137.0,214181.0,208149.0,4
2,0,1,0,0,4,test,1,1,z,Mon Jan 12 2026 15:27:23 GMT-0600 (Central Standard Time),225977.39999999944,I,z,858,5,2,113.bmp,-120,-120,114.bmp,120,-120,115.bmp,-120,120,116.bmp,120,120,8994.0,216983.39999999944,8072,yes,SM,A,114.bmp,120,-120,164430,158404,166446,160414,221245.0,215134.0,223261.0,217229.0,5
3,0,0,1,0,5,test,1,1,z,Mon Jan 12 2026 15:27:23 GMT-0600 (Central Standard Time),234774.69999999925,I,z,744,6,2,117.bmp,-120,-120,118.bmp,120,-120,119.bmp,-120,120,120.bmp,120,120,8793.899999999441,225980.7999999998,8072,yes,SM,A,119.bmp,-120,120,164430,158404,166446,160414,230159.0,224131.0,232175.0,226144.0,6
4,0,0,0,1,5,test,1,0,z,Mon Jan 12 2026 15:27:23 GMT-0600 (Central Standard Time),244321.69999999925,I,m,1486,7,2,121.bmp,-120,-120,122.bmp,120,-120,123.bmp,-120,120,124.bmp,120,120,9542.099999999627,234779.59999999963,8072,yes,SM,A,124.bmp,120,120,164430,158404,166446,160414,238956.0,232930.0,240977.0,234941.0,7
2,0,1,0,0,5,test,1,0,m,Mon Jan 12 2026 15:27:23 GMT-0600 (Central Standard Time),254152.0,I,z,1768,8,2,125.bmp,-120,-120,126.bmp,120,-120,127.bmp,-120,120,128.bmp,120,120,9827.200000000186,244324.7999999998,8072,no,SM,A,125.bmp,120,-120,164430,158404,166446,160414,248503.0,242475.0,250519.0,244488.0,8
3,0,0,1,0,6,test,1,1,m,Mon Jan 12 2026 15:27:23 GMT-0600 (Central Standard Time),263282.39999999944,I,m,1081,9,2,129.bmp,-120,-120,130.bmp,120,-120,131.bmp,-120,120,132.bmp,120,120,9127.099999999627,254155.2999999998,8072,no,SM,A,130.bmp,-120,120,164430,158404,166446,160414,258334.0,252306.0,260350.0,254318.0,9
4,0,0,0,1,6,test,1,0,z,Mon Jan 12 2026 15:27:23 GMT-0600 (Central Standard Time),272896.0999999996,I,m,1559,10,2,137.bmp,-120,-120,138.bmp,120,-120,139.bmp,-120,120,140.bmp,120,120,9610.200000000186,263285.89999999944,8072,yes,SM,A,140.bmp,120,120,164430,158404,166446,160414,267464.0,261436.0,269480.0,263449.0,10
3,0,0,1,0,6,test,1,0,z,Mon Jan 12 2026 15:27:23 GMT-0600 (Central Standard Time),282359.7999999998,I,m,1401,11,2,133.bmp,-120,-120,134.bmp,120,-120,135.bmp,-120,120,136.bmp,120,120,9458.799999999814,272901.0,8072,yes,SM,A,135.bmp,-120,120,164430,158404,166446,160414,277078.0,271052.0,279094.0,273062.0,11
2,0,1,0,0,7,test,1,1,m,Mon Jan 12 2026 15:27:23 GMT-0600 (Central Standard Time),292156.69999999925,I,m,1746,12,2,141.bmp,-120,-120,142.bmp,120,-120,143.bmp,-120,120,144.bmp,120,120,9793.799999999814,282362.89999999944,8072,no,SM,A,141.bmp,120,-120,164430,158404,166446,160414,286541.0,280513.0,288557.0,282526.0,12
3,0,0,1,0,7,test,1,0,m,Mon Jan 12 2026 15:27:23 GMT-0600 (Central Standard Time),302220.5,I,None,2016,13,2,145.bmp,-120,-120,146.bmp,120,-120,147.bmp,-120,120,148.bmp,120,120,10058.800000000745,292161.69999999925,8072,no,SM,A,146.bmp,-120,120,164430,158404,166446,160414,296338.0,290312.0,298354.0,292323.0,13
1,1,0,0,0,8,test,1,1,z,Mon Jan 12 2026 15:27:23 GMT-0600 (Central Standard Time),311384.0,I,z,1101,14,2,149.bmp,-120,-120,150.bmp,120,-120,104.bmp,-120,120,101.bmp,120,120,9159.800000000745,302224.19999999925,8072,yes,SM,A,149.bmp,-120,-120,164430,158404,166446,160414,306402.0,300374.0,308418.0,302387.0,14
4,0,0,0,1,9,test,1,1,m,Mon Jan 12 2026 15:27:23 GMT-0600 (Central Standard Time),320414.5,I,m,911,15,2,110.bmp,-120,-120,111.bmp,120,-120,112.bmp,-120,120,113.bmp,120,120,9026.300000000745,311388.19999999925,8072,no,SM,A,111.bmp,120,120,164430,158404,166446,160414,315632.0,309538.0,317648.0,311627.0,15
1,1,0,0,0,9,test,1,0,m,Mon Jan 12 2026 15:27:23 GMT-0600 (Central Standard Time),330011.5999999996,I,z,1547,16,2,102.bmp,-120,-120,103.bmp,120,-120,104.bmp,-120,120,105.bmp,120,120,9593.700000000186,320417.89999999944,8072,no,SM,A,105.bmp,-120,-120,164430,158404,166446,160414,324596.0,318568.0,326612.0,320581.0,16
3,0,0,1,0,9,test,1,0,m,Mon Jan 12 2026 15:27:23 GMT-0600 (Central Standard Time),339375.39999999944,I,z,1310,17,2,122.bmp,-120,-120,123.bmp,120,-120,124.bmp,-120,120,125.bmp,120,120,9360.899999999441,330014.5,8072,no,SM,A,122.bmp,-120,120,164430,158404,166446,160414,334193.0,328165.0,336209.0,330178.0,17
1,1,0,0,0,10,test,1,1,z,Mon Jan 12 2026 15:27:23 GMT-0600 (Central Standard Time),348156.0,I,z,730,18,2,106.bmp,-120,-120,107.bmp,120,-120,108.bmp,-120,120,109.bmp,120,120,8777.5,339378.5,8072,yes,SM,A,106.bmp,-120,-120,164430,158404,166446,160414,343557.0,337529.0,345573.0,339542.0,18
2,0,1,0,0,10,test,1,0,z,Mon Jan 12 2026 15:27:23 GMT-0600 (Central Standard Time),357486.2999999998,I,m,1269,19,2,126.bmp,-120,-120,127.bmp,120,-120,128.bmp,-120,120,129.bmp,120,120,9326.0,348160.2999999998,8072,yes,SM,A,127.bmp,120,-120,164430,158404,166446,160414,352337.0,346311.0,354354.0,348322.0,19
3,0,0,1,0,11,test,1,1,z,Mon Jan 12 2026 15:27:23 GMT-0600 (Central Standard Time),366217.19999999925,I,z,683,20,2,130.bmp,-120,-120,131.bmp,120,-120,132.bmp,-120,120,133.bmp,120,120,8726.599999999627,357490.5999999996,8072,yes,SM,A,132.bmp,-120,120,164430,158404,166446,160414,361668.0,355641.0,363684.0,357653.0,20
1,1,0,0,0,12,test,1,1,m,Mon Jan 12 2026 15:27:23 GMT-0600 (Central Standard Time),375280.69999999925,I,m,1008,21,2,114.bmp,-120,-120,115.bmp,120,-120,116.bmp,-120,120,117.bmp,120,120,9060.399999999441,366220.2999999998,8072,no,SM,A,116.bmp,-120,-120,164430,158404,166446,160414,370398.0,364371.0,372415.0,366383.0,21
4,0,0,0,1,12,test,1,0,z,Mon Jan 12 2026 15:27:23 GMT-0600 (Central Standard Time),384227.89999999944,I,m,894,22,2,118.bmp,-120,-120,119.bmp,120,-120,120.bmp,-120,120,121.bmp,120,120,8944.0,375283.89999999944,8072,yes,SM,A,121.bmp,120,120,164430,158404,166446,160414,379462.0,373434.0,381478.0,375447.0,22
1,1,0,0,0,13,test,1,1,m,Mon Jan 12 2026 15:27:23 GMT-0600 (Central Standard Time),393491.69999999925,I,m,1205,23,2,134.bmp,-120,-120,135.bmp,120,-120,136.bmp,-120,120,137.bmp,120,120,9257.799999999814,384233.89999999944,8072,no,SM,A,137.bmp,-120,-120,164430,158404,166446,160414,388409.0,382384.0,390426.0,384394.0,23
2,0,1,0,0,13,test,1,0,z,Mon Jan 12 2026 15:27:23 GMT-0600 (Central Standard Time),402572.2999999998,I,m,1022,24,2,142.bmp,-120,-120,143.bmp,120,-120,144.bmp,-120,120,145.bmp,120,120,9077.200000000186,393495.0999999996,8072,yes,SM,A,143.bmp,120,-120,164430,158404,166446,160414,397673.0,391645.0,399689.0,393658.0,24
4,0,0,0,1,14,test,1,1,m,Mon Jan 12 2026 15:27:23 GMT-0600 (Central Standard Time),412252.39999999944,I,m,1629,25,2,146.bmp,-120,-120,147.bmp,120,-120,148.bmp,-120,120,149.bmp,120,120,9677.099999999627,402575.2999999998,8072,no,SM,A,148.bmp,120,120,164430,158404,166446,160414,406754.0,400726.0,408770.0,402738.0,25
1,1,0,0,0,15,test,1,1,z,Mon Jan 12 2026 15:27:23 GMT-0600 (Central Standard Time),421066.5,I,z,757,26,2,138.bmp,-120,-120,139.bmp,120,-120,140.bmp,-120,120,141.bmp,120,120,8810.900000000373,412255.5999999996,8072,yes,SM,A,138.bmp,-120,-120,164430,158404,166446,160414,416434.0,410406.0,418450.0,412419.0,26
4,0,0,0,1,16,test,1,1,z,Mon Jan 12 2026 15:27:23 GMT-0600 (Central Standard Time),431113.2999999998,I,z,1983,27,2,150.bmp,-120,-120,111.bmp,120,-120,101.bmp,-120,120,102.bmp,120,120,10040.100000000559,421073.19999999925,8072,yes,SM,A,102.bmp,120,120,164430,158404,166446,160414,425248.0,419223.0,427264.0,421233.0,27
3,0,0,1,0,16,test,1,0,m,Mon Jan 12 2026 15:27:23 GMT-0600 (Central Standard Time),440293.7999999998,I,z,1128,28,2,103.bmp,-120,-120,104.bmp,120,-120,105.bmp,-120,120,106.bmp,120,120,9177.100000000559,431116.69999999925,8072,no,SM,A,103.bmp,-120,120,164430,158404,166446,160414,435295.0,429267.0,437311.0,431280.0,28
2,0,1,0,0,16,test,1,0,z,Mon Jan 12 2026 15:27:23 GMT-0600 (Central Standard Time),449807.39999999944,I,m,1452,29,2,107.bmp,-120,-120,108.bmp,120,-120,109.bmp,-120,120,110.bmp,120,120,9510.899999999441,440296.5,8072,yes,SM,A,108.bmp,120,-120,164430,158404,166446,160414,444475.0,438447.0,446491.0,440460.0,29
3,0,0,1,0,17,test,1,1,z,Mon Jan 12 2026 15:27:23 GMT-0600 (Central Standard Time),458738.0,I,z,874,30,2,111.bmp,-120,-120,112.bmp,120,-120,113.bmp,-120,120,114.bmp,120,120,8927.0,449811.0,8072,yes,SM,A,113.bmp,-120,120,164430,158404,166446,160414,453989.0,447961.0,456005.0,449974.0,30
1,1,0,0,0,18,test,1,1,z,Mon Jan 12 2026 15:27:23 GMT-0600 (Central Standard Time),468401.5,I,z,1607,31,2,115.bmp,-120,-120,116.bmp,120,-120,117.bmp,-120,120,118.bmp,120,120,9658.5,458743.0,8072,yes,SM,A,115.bmp,-120,-120,164430,158404,166446,160414,462920.0,456893.0,464936.0,458904.0,31
2,0,1,0,0,19,test,1,1,m,Mon Jan 12 2026 15:27:23 GMT-0600 (Central Standard Time),477881.89999999944,I,m,1424,32,2,119.bmp,-120,-120,120.bmp,120,-120,121.bmp,-120,120,122.bmp,120,120,9476.599999999627,468405.2999999998,8072,no,SM,A,119.bmp,120,-120,164430,158404,166446,160414,472583.0,466556.0,474599.0,468568.0,32
4,0,0,0,1,20,test,1,1,z,Mon Jan 12 2026 15:27:23 GMT-0600 (Central Standard Time),486979.0999999996,I,z,1039,33,2,131.bmp,-120,-120,132.bmp,120,-120,133.bmp,-120,120,134.bmp,120,120,9093.799999999814,477885.2999999998,8072,yes,SM,A,134.bmp,120,120,164430,158404,166446,160414,482064.0,476036.0,484080.0,478048.0,33
2,0,1,0,0,21,test,1,1,z,Mon Jan 12 2026 15:27:23 GMT-0600 (Central Standard Time),496626.19999999925,I,z,1590,34,2,123.bmp,-120,-120,124.bmp,120,-120,125.bmp,-120,120,126.bmp,120,120,9644.099999999627,486982.0999999996,8072,yes,SM,A,124.bmp,120,-120,164430,158404,166446,160414,491161.0,485132.0,493177.0,487145.0,34
4,0,0,0,1,21,test,1,0,m,Mon Jan 12 2026 15:27:23 GMT-0600 (Central Standard Time),506689.5999999996,I,None,2016,35,2,127.bmp,-120,-120,128.bmp,120,-120,129.bmp,-120,120,130.bmp,120,120,10059.299999999814,496630.2999999998,8072,no,SM,A,129.bmp,120,120,164430,158404,166446,160414,500808.0,494781.0,502824.0,496792.0,35
3,0,0,1,0,21,test,1,0,m,Mon Jan 12 2026 15:27:23 GMT-0600 (Central Standard Time),515703.5,I,z,952,36,2,135.bmp,-120,-120,136.bmp,120,-120,137.bmp,-120,120,138.bmp,120,120,9010.400000000373,506693.0999999996,8072,no,SM,A,135.bmp,-120,120,164430,158404,166446,160414,510871.0,504843.0,512887.0,506856.0,36
1,1,0,0,0,21,test,1,0,m,Mon Jan 12 2026 15:27:23 GMT-0600 (Central Standard Time),525017.0999999996,I,z,1250,37,2,139.bmp,-120,-120,140.bmp,120,-120,141.bmp,-120,120,142.bmp,120,120,9310.599999999627,515706.5,8072,no,SM,A,140.bmp,-120,-120,164430,158404,166446,160414,519885.0,513857.0,521901.0,515870.0,37
2,0,1,0,0,21,test,1,0,m,Mon Jan 12 2026 15:27:23 GMT-0600 (Central Standard Time),534198.5999999996,I,z,1128,38,2,143.bmp,-120,-120,144.bmp,120,-120,145.bmp,-120,120,146.bmp,120,120,9178.099999999627,525020.5,8072,no,SM,A,145.bmp,120,-120,164430,158404,166446,160414,529199.0,523171.0,531215.0,525184.0,38
4,0,0,0,1,22,test,1,1,z,Mon Jan 12 2026 15:27:23 GMT-0600 (Central Standard Time),542994.7999999998,I,z,740,39,2,147.bmp,-120,-120,148.bmp,120,-120,149.bmp,-120,120,150.bmp,120,120,8791.5,534203.2999999998,8072,yes,SM,A,150.bmp,120,120,164430,158404,166446,160414,538379.0,532353.0,540395.0,534364.0,39
3,0,0,1,0,22,test,1,0,m,Mon Jan 12 2026 15:27:23 GMT-0600 (Central Standard Time),552025.5,I,z,833,40,2,104.bmp,-120,-120,105.bmp,120,-120,106.bmp,-120,120,107.bmp,120,120,9027.300000000745,542998.1999999993,8072,no,SM,A,105.bmp,-120,120,164430,158404,166446,160414,547309.0,541148.0,549326.0,543161.0,40
1,1,0,0,0,22,test,1,0,z,Mon Jan 12 2026 15:27:23 GMT-0600 (Central Standard Time),562088.7999999998,I,None,2016,41,2,108.bmp,-120,-120,109.bmp,120,-120,110.bmp,-120,120,111.bmp,120,120,10060.200000000186,552028.5999999996,8072,yes,SM,A,108.bmp,-120,-120,164430,158404,166446,160414,556207.0,550179.0,558223.0,552192.0,41
4,0,0,0,1,22,test,1,0,z,Mon Jan 12 2026 15:27:23 GMT-0600 (Central Standard Time),571219.5,I,m,1072,42,2,112.bmp,-120,-120,113.bmp,120,-120,114.bmp,-120,120,115.bmp,120,120,9127.0,562092.5,8072,yes,SM,A,115.bmp,120,120,164430,158404,166446,160414,566271.0,560243.0,568287.0,562255.0,42
1,1,0,0,0,23,test,1,1,z,Mon Jan 12 2026 15:27:23 GMT-0600 (Central Standard Time),580216.5,I,z,942,43,2,116.bmp,-120,-120,117.bmp,120,-120,118.bmp,-120,120,119.bmp,120,120,8992.900000000373,571223.5999999996,8072,yes,SM,A,116.bmp,-120,-120,164430,158404,166446,160414,575401.0,569374.0,577417.0,571386.0,43
4,0,0,0,1,24,test,1,1,m,Mon Jan 12 2026 15:27:23 GMT-0600 (Central Standard Time),589613.5,I,m,1345,44,2,104.bmp,-120,-120,101.bmp,120,-120,102.bmp,-120,120,103.bmp,120,120,9393.700000000186,580219.7999999998,8072,no,SM,A,104.bmp,120,120,164430,158404,166446,160414,584398.0,578370.0,586414.0,580383.0,44
1,1,0,0,0,25,test,1,1,m,Mon Jan 12 2026 15:27:23 GMT-0600 (Central Standard Time),599144.0,I,m,1468,45,2,128.bmp,-120,-120,129.bmp,120,-120,130.bmp,-120,120,131.bmp,120,120,9527.600000000559,589616.3999999994,8072,no,SM,A,131.bmp,-120,-120,164430,158404,166446,160414,593795.0,587767.0,595811.0,589780.0,45
1,1,0,0,0,25,test,1,0,m,Mon Jan 12 2026 15:27:23 GMT-0600 (Central Standard Time),609174.1999999993,I,z,1977,46,2,120.bmp,-120,-120,121.bmp,120,-120,122.bmp,-120,120,123.bmp,120,120,10027.5,599146.6999999993,8072,no,SM,A,121.bmp,-120,-120,164430,158404,166446,160414,603326.0,597297.0,605342.0,599310.0,46
3,0,0,1,0,26,test,1,1,z,Mon Jan 12 2026 15:27:23 GMT-0600 (Central Standard Time),617905.0999999996,I,z,683,47,2,124.bmp,-120,-120,125.bmp,120,-120,126.bmp,-120,120,127.bmp,120,120,8727.400000000373,609177.6999999993,8072,yes,SM,A,126.bmp,-120,120,164430,158404,166446,160414,613356.0,607328.0,615372.0,609340.0,47
3,0,0,1,0,26,test,1,0,z,Mon Jan 12 2026 15:27:23 GMT-0600 (Central Standard Time),628034.8999999994,I,None,2016,48,2,140.bmp,-120,-120,141.bmp,120,-120,142.bmp,-120,120,143.bmp,120,120,10126.599999999627,617908.2999999998,8072,yes,SM,A,142.bmp,-120,120,164430,158404,166446,160414,622153.0,616059.0,624169.0,618149.0,48
2,0,1,0,0,26,test,1,0,z,Mon Jan 12 2026 15:27:23 GMT-0600 (Central Standard Time),637748.5,I,m,1662,49,2,136.bmp,-120,-120,137.bmp,120,-120,138.bmp,-120,120,139.bmp,120,120,9709.800000000745,628038.6999999993,8072,yes,SM,A,137.bmp,120,-120,164430,158404,166446,160414,632217.0,626189.0,634233.0,628201.0,49
3,0,0,1,0,26,test,1,0,m,Mon Jan 12 2026 15:27:23 GMT-0600 (Central Standard Time),646629.1999999993,I,z,821,50,2,132.bmp,-120,-120,133.bmp,120,-120,134.bmp,-120,120,135.bmp,120,120,8877.599999999627,637751.5999999996,8072,no,SM,A,132.bmp,-120,120,164430,158404,166446,160414,641930.0,635902.0,643946.0,637915.0,50
2,0,1,0,0,26,test,1,0,z,Mon Jan 12 2026 15:27:23 GMT-0600 (Central Standard Time),656359.3999999994,I,m,1668,51,2,144.bmp,-120,-120,145.bmp,120,-120,146.bmp,-120,120,147.bmp,120,120,9726.700000000186,646632.6999999993,8072,yes,SM,A,145.bmp,120,-120,164430,158404,166446,160414,650811.0,644783.0,652827.0,646795.0,51
4,0,0,0,1,26,test,1,0,m,Mon Jan 12 2026 15:27:23 GMT-0600 (Central Standard Time),665423.1999999993,I,z,1002,52,2,148.bmp,-120,-120,149.bmp,120,-120,150.bmp,-120,120,131.bmp,120,120,9060.599999999627,656362.5999999996,8072,no,SM,A,148.bmp,120,120,164430,158404,166446,160414,660541.0,654513.0,662557.0,656526.0,52
3,0,0,1,0,27,test,1,1,z,Mon Jan 12 2026 15:27:23 GMT-0600 (Central Standard Time),674437.0999999996,I,z,962,53,2,101.bmp,-120,-120,102.bmp,120,-120,103.bmp,-120,120,104.bmp,120,120,9010.599999999627,665426.5,8072,yes,SM,A,103.bmp,-120,120,164430,158404,166446,160414,669605.0,663577.0,671621.0,665590.0,53
1,1,0,0,0,27,test,1,0,m,Mon Jan 12 2026 15:27:23 GMT-0600 (Central Standard Time),683201.0999999996,I,z,716,54,2,105.bmp,-120,-120,106.bmp,120,-120,107.bmp,-120,120,108.bmp,120,120,8760.900000000373,674440.1999999993,8072,no,SM,A,107.bmp,-120,-120,164430,158404,166446,160414,678619.0,672590.0,680635.0,674603.0,54
4,0,0,0,1,27,test,1,0,z,Mon Jan 12 2026 15:27:23 GMT-0600 (Central Standard Time),693147.8999999994,I,m,1896,55,2,109.bmp,-120,-120,110.bmp,120,-120,111.bmp,-120,120,112.bmp,120,120,9943.799999999814,683204.0999999996,8072,yes,SM,A,112.bmp,120,120,164430,158404,166446,160414,687383.0,681354.0,689399.0,683367.0,55
2,0,1,0,0,28,test,1,1,m,Mon Jan 12 2026 15:27:23 GMT-0600 (Central Standard Time),702195.0999999996,I,m,997,56,2,113.bmp,-120,-120,114.bmp,120,-120,115.bmp,-120,120,116.bmp,120,120,9044.0,693151.0999999996,8072,no,SM,A,113.bmp,120,-120,164430,158404,166446,160414,697330.0,691301.0,699346.0,693314.0,56
4,0,0,0,1,28,test,1,0,m,Mon Jan 12 2026 15:27:23 GMT-0600 (Central Standard Time),711292.1999999993,I,z,1046,57,2,117.bmp,-120,-120,118.bmp,120,-120,119.bmp,-120,120,120.bmp,120,120,9094.199999999255,702198.0,8072,no,SM,A,118.bmp,120,120,164430,158404,166446,160414,706377.0,700348.0,708393.0,702361.0,57
3,0,0,1,0,28,test,1,0,z,Mon Jan 12 2026 15:27:23 GMT-0600 (Central Standard Time),720356.0999999996,I,m,1005,58,2,121.bmp,-120,-120,122.bmp,120,-120,123.bmp,-120,120,124.bmp,120,120,9061.099999999627,711295.0,8072,yes,SM,A,123.bmp,-120,120,164430,158404,166446,160414,715474.0,709445.0,717490.0,711459.0,58
2,0,1,0,0,28,test,1,0,m,Mon Jan 12 2026 15:27:23 GMT-0600 (Central Standard Time),730019.6999999993,I,z,1605,59,2,125.bmp,-120,-120,126.bmp,120,-120,127.bmp,-120,120,128.bmp,120,120,9660.699999999255,720359.0,8072,no,SM,A,128.bmp,120,-120,164430,158404,166446,160414,724538.0,718509.0,726554.0,720522.0,59
1,1,0,0,0,29,test,1,1,z,Mon Jan 12 2026 15:27:23 GMT-0600 (Central Standard Time),739017.0,I,z,956,60,2,129.bmp,-120,-120,130.bmp,120,-120,131.bmp,-120,120,132.bmp,120,120,8994.200000000186,730022.7999999998,8072,yes,SM,A,129.bmp,-120,-120,164430,158404,166446,160414,734201.0,728173.0,736203.0,730186.0,60
2,0,1,0,0,30,test,1,1,z,Mon Jan 12 2026 15:27:23 GMT-0600 (Central Standard Time),748413.8999999994,I,z,1344,61,2,133.bmp,-120,-120,134.bmp,120,-120,135.bmp,-120,120,136.bmp,120,120,9393.5,739020.3999999994,8072,yes,SM,A,134.bmp,120,-120,164430,158404,166446,160414,743198.0,737171.0,745215.0,739183.0,61
4,0,0,0,1,30,test,1,0,z,Mon Jan 12 2026 15:27:23 GMT-0600 (Central Standard Time),757711.0,I,m,1243,62,2,141.bmp,-120,-120,142.bmp,120,-120,143.bmp,-120,120,144.bmp,120,120,9293.5,748417.5,8072,yes,SM,A,144.bmp,120,120,164430,158404,166446,160414,752596.0,746568.0,754612.0,748580.0,62
1,1,0,0,0,31,test,1,1,m,Mon Jan 12 2026 15:27:23 GMT-0600 (Central Standard Time),767374.5999999996,I,m,1602,63,2,145.bmp,-120,-120,146.bmp,120,-120,147.bmp,-120,120,148.bmp,120,120,9660.5,757714.0999999996,8072,no,SM,A,145.bmp,-120,120,164430,158404,166446,160414,761893.0,755864.0,763909.0,757877.0,63
2,0,1,0,0,32,test,1,1,z,Mon Jan 12 2026 15:27:23 GMT-0600 (Central Standard Time),776921.8999999994,I,z,1491,64,2,149.bmp,-120,-120,150.bmp,120,-120,112.bmp,-120,120,101.bmp,120,120,9544.399999999441,767377.5,8072,yes,SM,A,150.bmp,120,-120,164430,158404,166446,160414,771556.0,765528.0,773572.0,767541.0,64
4,0,0,0,1,32,test,1,0,m,Mon Jan 12 2026 15:27:23 GMT-0600 (Central Standard Time),786218.7999999998,I,z,1235,65,2,102.bmp,-120,-120,103.bmp,120,-120,104.bmp,-120,120,105.bmp,120,120,9293.0,776925.7999999998,8072,no,SM,A,104.bmp,120,120,164430,158404,166446,160414,781103.0,775076.0,783132.0,777088.0,65
3,0,0,1,0,32,test,1,0,m,Mon Jan 12 2026 15:27:23 GMT-0600 (Central Standard Time),795266.0,I,z,998,66,2,106.bmp,-120,-120,107.bmp,120,-120,108.bmp,-120,120,109.bmp,120,120,9044.600000000559,786221.3999999994,8072,no,SM,A,109.bmp,-120,120,164430,158404,166446,160414,790400.0,784372.0,792417.0,786385.0,66
2,0,1,0,0,33,test,1,1,m,Mon Jan 12 2026 15:27:23 GMT-0600 (Central Standard Time),804196.5,I,m,871,67,2,137.bmp,-120,-120,138.bmp,120,-120,139.bmp,-120,120,140.bmp,120,120,8927.400000000373,795269.0999999996,8072,no,SM,A,139.bmp,120,-120,164430,158404,166446,160414,799448.0,793419.0,801464.0,795432.0,67
3,0,0,1,0,34,test,1,1,z,Mon Jan 12 2026 15:27:23 GMT-0600 (Central Standard Time),813210.2999999998,I,z,957,68,2,110.bmp,-120,-120,111.bmp,120,-120,112.bmp,-120,120,113.bmp,120,120,9010.900000000373,804199.3999999994,8072,yes,SM,A,112.bmp,-120,120,164430,158404,166446,160414,808378.0,802350.0,810394.0,804363.0,68
1,1,0,0,0,34,test,1,0,m,Mon Jan 12 2026 15:27:23 GMT-0600 (Central Standard Time),822340.8999999994,I,z,1077,69,2,114.bmp,-120,-120,115.bmp,120,-120,116.bmp,-120,120,117.bmp,120,120,9127.5,813213.3999999994,8072,no,SM,A,115.bmp,-120,-120,164430,158404,166446,160414,817393.0,811364.0,819410.0,813377.0,69
2,0,1,0,0,34,test,1,0,m,Mon Jan 12 2026 15:27:23 GMT-0600 (Central Standard Time),831654.5,I,z,1260,70,2,118.bmp,-120,-120,119.bmp,120,-120,120.bmp,-120,120,121.bmp,120,120,9310.700000000186,822343.7999999998,8072,no,SM,A,120.bmp,120,-120,164430,158404,166446,160414,826522.0,820494.0,828539.0,822507.0,70
4,0,0,0,1,34,test,1,0,z,Mon Jan 12 2026 15:27:23 GMT-0600 (Central Standard Time),840501.8999999994,I,m,787,71,2,122.bmp,-120,-120,123.bmp,120,-120,124.bmp,-120,120,125.bmp,120,120,8843.799999999814,831658.0999999996,8072,yes,SM,A,125.bmp,120,120,164430,158404,166446,160414,835836.0,829808.0,837852.0,831821.0,71
1,1,0,0,0,35,test,1,1,z,Mon Jan 12 2026 15:27:23 GMT-0600 (Central Standard Time),849565.5,I,z,1011,72,2,126.bmp,-120,-120,127.bmp,120,-120,128.bmp,-120,120,129.bmp,120,120,9060.5,840505.0,8072,yes,SM,A,126.bmp,-120,-120,164430,158404,166446,160414,844684.0,838655.0,846700.0,840668.0,72
2,0,1,0,0,36,test,1,1,z,Mon Jan 12 2026 15:27:23 GMT-0600 (Central Standard Time),858562.7999999998,I,z,831,73,2,130.bmp,-120,-120,131.bmp,120,-120,132.bmp,-120,120,133.bmp,120,120,8994.400000000373,849568.3999999994,8072,yes,SM,A,131.bmp,120,-120,164430,158404,166446,160414,853878.0,847719.0,855880.0,849732.0,73
4,0,0,0,1,37,test,1,1,m,Mon Jan 12 2026 15:27:23 GMT-0600 (Central Standard Time),867743.3999999994,I,m,1126,74,2,134.bmp,-120,-120,135.bmp,120,-120,136.bmp,-120,120,137.bmp,120,120,9177.799999999814,858565.5999999996,8072,no,SM,A,136.bmp,120,120,164430,158404,166446,160414,862744.0,856716.0,864761.0,858729.0,74
2,0,1,0,0,37,test,1,0,m,Mon Jan 12 2026 15:27:23 GMT-0600 (Central Standard Time),877340.5,I,z,1538,75,2,138.bmp,-120,-120,139.bmp,120,-120,140.bmp,-120,120,141.bmp,120,120,9593.900000000373,867746.5999999996,8072,no,SM,A,141.bmp,120,-120,164430,158404,166446,160414,871925.0,865897.0,873941.0,867910.0,75
1,1,0,0,0,37,test,1,0,z,Mon Jan 12 2026 15:27:23 GMT-0600 (Central Standard Time),886770.6999999993,I,m,1281,76,2,142.bmp,-120,-120,143.bmp,120,-120,144.bmp,-120,120,145.bmp,120,120,9427.399999999441,877343.2999999998,8072,yes,SM,A,142.bmp,-120,-120,164430,158404,166446,160414,881622.0,875494.0,883638.0,877617.0,76
3,0,0,1,0,38,test,1,1,z,Mon Jan 12 2026 15:27:23 GMT-0600 (Central Standard Time),896717.5999999996,I,z,1886,77,2,150.bmp,-120,-120,111.bmp,120,-120,101.bmp,-120,120,102.bmp,120,120,9943.900000000373,886773.6999999993,8072,yes,SM,A,101.bmp,-120,120,164430,158404,166446,160414,890953.0,884924.0,892969.0,886937.0,77
1,1,0,0,0,39,test,1,1,m,Mon Jan 12 2026 15:27:23 GMT-0600 (Central Standard Time),905648.2999999998,I,m,868,78,2,146.bmp,-120,-120,147.bmp,120,-120,148.bmp,-120,120,149.bmp,120,120,8926.400000000373,896721.8999999994,8072,no,SM,A,147.bmp,-120,-120,164430,158404,166446,160414,900899.0,894872.0,902915.0,896884.0,78
4,0,0,0,1,40,test,1,1,m,Mon Jan 12 2026 15:27:23 GMT-0600 (Central Standard Time),914828.5999999996,I,m,1121,79,2,107.bmp,-120,-120,108.bmp,120,-120,109.bmp,-120,120,110.bmp,120,120,9175.200000000186,905653.3999999994,8072,no,SM,A,107.bmp,120,120,164430,158404,166446,160414,909830.0,903804.0,911846.0,905814.0,79
3,0,0,1,0,40,test,1,0,m,Mon Jan 12 2026 15:27:23 GMT-0600 (Central Standard Time),924075.6999999993,I,z,1189,80,2,103.bmp,-120,-120,104.bmp,120,-120,105.bmp,-120,120,106.bmp,120,120,9243.799999999814,914831.8999999994,8072,no,SM,A,106.bmp,-120,120,164430,158404,166446,160414,919010.0,912982.0,921026.0,914995.0,80
