Q,Q1,Q2,Q3,Q4,acc_sum,block,block_c,correct,correct_response,datetime,endtime,project,response,response_time,row_sel,session_number,squiggle1,squiggle1x,squiggle1y,squiggle2,squiggle2x,squiggle2y,squiggle3,squiggle3x,squiggle3y,squiggle4,squiggle4x,squiggle4y,start_end,starttime,subject_id,target_congruent,task,task_vers,testsquiggle,testsquigglex,testsquiggley,time_practice_delay,time_practice_fixation,time_practice_stimuli,time_practice_study,time_test_delay,time_test_fixation,time_test_stimuli,time_test_study,trial
1,1,0,0,0,1,prac,1,1,z,Wed Jul 23 2025 16:23:53 GMT-0500 (Central Daylight Time),137784.79999995232,O,z,1326,1,1,116.bmp,-120,-120,117.bmp,120,-120,118.bmp,-120,120,119.bmp,120,120,10148.599999964237,127636.19999998808,7186,yes,SM,A,116.bmp,-120,-120,125328,119296,127345,121312,,,,,1
3,0,0,1,0,2,prac,1,1,m,Wed Jul 23 2025 16:23:53 GMT-0500 (Central Daylight Time),147931.29999995232,O,m,1315,2,1,120.bmp,-120,-120,121.bmp,120,-120,122.bmp,-120,120,123.bmp,120,120,10128.0,137803.29999995232,7186,no,SM,A,123.bmp,-120,120,135492,129463,137508,131477,,,,,2
4,0,0,0,1,3,prac,1,1,m,Wed Jul 23 2025 16:23:53 GMT-0500 (Central Daylight Time),158294.69999998808,O,m,1538,3,1,124.bmp,-120,-120,125.bmp,120,-120,126.bmp,-120,120,127.bmp,120,120,10352.5,147942.19999998808,7186,no,SM,A,124.bmp,120,120,145621,139602,147638,141607,,,,,3
2,0,1,0,0,4,prac,1,1,z,Wed Jul 23 2025 16:23:53 GMT-0500 (Central Daylight Time),168908.59999996424,O,z,1780,4,1,128.bmp,-120,-120,129.bmp,120,-120,130.bmp,-120,120,131.bmp,120,120,10599.300000011921,158309.29999995232,7186,yes,SM,A,129.bmp,120,-120,156001,149969,158018,151986,,,,,4
3,0,0,1,0,5,prac,1,1,z,Wed Jul 23 2025 16:23:53 GMT-0500 (Central Daylight Time),178871.19999998808,O,z,1128,5,1,132.bmp,-120,-120,133.bmp,120,-120,134.bmp,-120,120,135.bmp,120,120,9948.199999988079,168923.0,7186,yes,SM,A,134.bmp,-120,120,166615,160583,168631,162600,,,,,5
1,1,0,0,0,6,prac,1,1,m,Wed Jul 23 2025 16:23:53 GMT-0500 (Central Daylight Time),189000.0,O,m,1301,6,1,136.bmp,-120,-120,137.bmp,120,-120,138.bmp,-120,120,139.bmp,120,120,10115.400000035763,178884.59999996424,7186,no,SM,A,139.bmp,-120,-120,176561,170545,178578,172547,,,,,6
2,0,1,0,0,6,prac,1,0,m,Wed Jul 23 2025 16:23:53 GMT-0500 (Central Daylight Time),199830.59999996424,O,None,2014,7,1,140.bmp,-120,-120,141.bmp,120,-120,142.bmp,-120,120,143.bmp,120,120,10826.199999988079,189004.39999997616,7186,no,SM,A,140.bmp,120,-120,186691,180664,188709,182677,,,,,7
4,0,0,0,1,7,prac,1,1,z,Wed Jul 23 2025 16:23:53 GMT-0500 (Central Daylight Time),209727.69999998808,O,z,1069,8,1,144.bmp,-120,-120,145.bmp,120,-120,146.bmp,-120,120,147.bmp,120,120,9883.300000011921,199844.39999997616,7186,yes,SM,A,147.bmp,120,120,197521,191504,199538,193506,,,,,8
4,0,0,0,1,1,test,1,1,m,Wed Jul 23 2025 16:23:53 GMT-0500 (Central Daylight Time),229921.09999996424,O,m,1312,1,1,148.bmp,-120,-120,149.bmp,120,-120,150.bmp,-120,120,143.bmp,120,120,9352.0,220569.09999996424,7186,no,SM,A,150.bmp,120,120,197521,191504,199538,193506,218248.0,212229.0,220264.0,214233.0,1
2,0,1,0,0,1,test,1,0,m,Wed Jul 23 2025 16:23:53 GMT-0500 (Central Daylight Time),239984.29999995232,O,None,2014,2,1,101.bmp,-120,-120,102.bmp,120,-120,103.bmp,-120,120,104.bmp,120,120,10050.099999964237,229934.19999998808,7186,no,SM,A,103.bmp,120,-120,197521,191504,199538,193506,227611.0,221594.0,229629.0,223597.0,2
1,1,0,0,0,2,test,1,1,z,Wed Jul 23 2025 16:23:53 GMT-0500 (Central Daylight Time),249030.39999997616,O,z,987,3,1,105.bmp,-120,-120,106.bmp,120,-120,107.bmp,-120,120,108.bmp,120,120,9032.699999988079,239997.69999998808,7186,yes,SM,A,105.bmp,-120,-120,197521,191504,199538,193506,237675.0,231657.0,239691.0,233660.0,3
3,0,0,1,0,3,test,1,1,m,Wed Jul 23 2025 16:23:53 GMT-0500 (Central Daylight Time),258261.69999998808,O,m,1182,4,1,109.bmp,-120,-120,110.bmp,120,-120,111.bmp,-120,120,112.bmp,120,120,9226.5,249035.19999998808,7186,no,SM,A,109.bmp,-120,120,197521,191504,199538,193506,246721.0,240695.0,248738.0,242707.0,4
2,0,1,0,0,4,test,1,1,z,Wed Jul 23 2025 16:23:53 GMT-0500 (Central Daylight Time),267791.39999997616,O,z,1454,5,1,113.bmp,-120,-120,114.bmp,120,-120,115.bmp,-120,120,116.bmp,120,120,9515.5,258275.89999997616,7186,yes,SM,A,114.bmp,120,-120,197521,191504,199538,193506,255969.0,249936.0,257985.0,251954.0,5
3,0,0,1,0,5,test,1,1,z,Wed Jul 23 2025 16:23:53 GMT-0500 (Central Daylight Time),277088.7999999523,O,z,1245,6,1,117.bmp,-120,-120,118.bmp,120,-120,119.bmp,-120,120,120.bmp,120,120,9289.399999976158,267799.39999997616,7186,yes,SM,A,119.bmp,-120,120,197521,191504,199538,193506,265482.0,259459.0,267499.0,261467.0,6
4,0,0,0,1,6,test,1,1,z,Wed Jul 23 2025 16:23:53 GMT-0500 (Central Daylight Time),286901.7999999523,O,z,1764,7,1,121.bmp,-120,-120,122.bmp,120,-120,123.bmp,-120,120,124.bmp,120,120,9800.099999964237,277101.6999999881,7186,yes,SM,A,124.bmp,120,120,197521,191504,199538,193506,274780.0,268761.0,276796.0,270764.0,7
2,0,1,0,0,7,test,1,1,m,Wed Jul 23 2025 16:23:53 GMT-0500 (Central Daylight Time),296565.6999999881,O,m,1615,8,1,125.bmp,-120,-120,126.bmp,120,-120,127.bmp,-120,120,128.bmp,120,120,9651.199999988079,286914.5,7186,no,SM,A,125.bmp,120,-120,197521,191504,199538,193506,284593.0,278574.0,286609.0,280577.0,8
3,0,0,1,0,8,test,1,1,m,Wed Jul 23 2025 16:23:53 GMT-0500 (Central Daylight Time),306512.5,O,m,1887,9,1,129.bmp,-120,-120,130.bmp,120,-120,131.bmp,-120,120,132.bmp,120,120,9933.600000023842,296578.89999997616,7186,no,SM,A,130.bmp,-120,120,197521,191504,199538,193506,294256.0,288239.0,296273.0,290241.0,9
4,0,0,0,1,8,test,1,0,z,Wed Jul 23 2025 16:23:53 GMT-0500 (Central Daylight Time),316575.89999997616,O,None,2016,10,1,137.bmp,-120,-120,138.bmp,120,-120,139.bmp,-120,120,140.bmp,120,120,10050.800000011921,306525.09999996424,7186,yes,SM,A,140.bmp,120,120,197521,191504,199538,193506,304203.0,298185.0,306219.0,300188.0,10
3,0,0,1,0,9,test,1,1,z,Wed Jul 23 2025 16:23:53 GMT-0500 (Central Daylight Time),326039.39999997616,O,z,1405,11,1,133.bmp,-120,-120,134.bmp,120,-120,135.bmp,-120,120,136.bmp,120,120,9450.0,316589.39999997616,7186,yes,SM,A,135.bmp,-120,120,197521,191504,199538,193506,314266.0,308249.0,316283.0,310251.0,11
2,0,1,0,0,10,test,1,1,m,Wed Jul 23 2025 16:23:53 GMT-0500 (Central Daylight Time),335786.1999999881,O,m,1685,12,1,141.bmp,-120,-120,142.bmp,120,-120,143.bmp,-120,120,144.bmp,120,120,9734.300000011921,326051.89999997616,7186,no,SM,A,141.bmp,120,-120,197521,191504,199538,193506,323730.0,317712.0,325746.0,319715.0,12
3,0,0,1,0,11,test,1,1,m,Wed Jul 23 2025 16:23:53 GMT-0500 (Central Daylight Time),345716.1999999881,O,m,1875,13,1,145.bmp,-120,-120,146.bmp,120,-120,147.bmp,-120,120,148.bmp,120,120,9916.100000023842,335800.09999996424,7186,no,SM,A,146.bmp,-120,120,197521,191504,199538,193506,333477.0,327460.0,335493.0,329462.0,13
1,1,0,0,0,11,test,1,0,z,Wed Jul 23 2025 16:23:53 GMT-0500 (Central Daylight Time),355796.1999999881,O,None,2015,14,1,149.bmp,-120,-120,150.bmp,120,-120,104.bmp,-120,120,101.bmp,120,120,10065.300000011921,345730.89999997616,7186,yes,SM,A,149.bmp,-120,-120,197521,191504,199538,193506,343424.0,337392.0,345440.0,339409.0,14
4,0,0,0,1,12,test,1,1,m,Wed Jul 23 2025 16:23:53 GMT-0500 (Central Daylight Time),365693.0,O,m,1824,15,1,110.bmp,-120,-120,111.bmp,120,-120,112.bmp,-120,120,113.bmp,120,120,9882.400000035763,355810.59999996424,7186,no,SM,A,111.bmp,120,120,197521,191504,199538,193506,353503.0,347471.0,355520.0,349488.0,15
1,1,0,0,0,12,test,1,0,m,Wed Jul 23 2025 16:23:53 GMT-0500 (Central Daylight Time),375174.09999996424,O,z,1432,16,1,102.bmp,-120,-120,103.bmp,120,-120,104.bmp,-120,120,105.bmp,120,120,9468.800000011921,365705.2999999523,7186,no,SM,A,105.bmp,-120,-120,197521,191504,199538,193506,363384.0,357365.0,365400.0,359368.0,16
3,0,0,1,0,12,test,1,0,m,Wed Jul 23 2025 16:23:53 GMT-0500 (Central Daylight Time),385237.0,O,None,2015,17,1,122.bmp,-120,-120,123.bmp,120,-120,124.bmp,-120,120,125.bmp,120,120,10050.0,375187.0,7186,no,SM,A,122.bmp,-120,120,197521,191504,199538,193506,372864.0,366847.0,374880.0,368849.0,17
1,1,0,0,0,13,test,1,1,z,Wed Jul 23 2025 16:23:53 GMT-0500 (Central Daylight Time),394283.6999999881,O,z,976,18,1,106.bmp,-120,-120,107.bmp,120,-120,108.bmp,-120,120,109.bmp,120,120,9031.800000011921,385251.89999997616,7186,yes,SM,A,106.bmp,-120,-120,197521,191504,199538,193506,382944.0,376912.0,384960.0,378929.0,18
2,0,1,0,0,14,test,1,1,z,Wed Jul 23 2025 16:23:53 GMT-0500 (Central Daylight Time),404013.89999997616,O,z,1673,19,1,126.bmp,-120,-120,127.bmp,120,-120,128.bmp,-120,120,129.bmp,120,120,9717.600000023842,394296.2999999523,7186,yes,SM,A,127.bmp,120,-120,197521,191504,199538,193506,391974.0,385956.0,393991.0,387959.0,19
3,0,0,1,0,15,test,1,1,z,Wed Jul 23 2025 16:23:53 GMT-0500 (Central Daylight Time),413760.59999996424,O,z,1686,20,1,130.bmp,-120,-120,131.bmp,120,-120,132.bmp,-120,120,133.bmp,120,120,9733.199999988079,404027.39999997616,7186,yes,SM,A,132.bmp,-120,120,197521,191504,199538,193506,401705.0,395687.0,403721.0,397690.0,20
1,1,0,0,0,16,test,1,1,m,Wed Jul 23 2025 16:23:53 GMT-0500 (Central Daylight Time),423141.0,O,m,1326,21,1,114.bmp,-120,-120,115.bmp,120,-120,116.bmp,-120,120,117.bmp,120,120,9369.800000011921,413771.1999999881,7186,no,SM,A,116.bmp,-120,-120,197521,191504,199538,193506,411451.0,405431.0,413466.0,407437.0,21
4,0,0,0,1,16,test,1,0,z,Wed Jul 23 2025 16:23:53 GMT-0500 (Central Daylight Time),433204.2999999523,O,None,2015,22,1,118.bmp,-120,-120,119.bmp,120,-120,120.bmp,-120,120,121.bmp,120,120,10049.799999952316,423154.5,7186,yes,SM,A,121.bmp,120,120,197521,191504,199538,193506,420831.0,414814.0,422848.0,416817.0,22
1,1,0,0,0,16,test,1,0,m,Wed Jul 23 2025 16:23:53 GMT-0500 (Central Daylight Time),443267.7999999523,O,None,2016,23,1,134.bmp,-120,-120,135.bmp,120,-120,136.bmp,-120,120,137.bmp,120,120,10050.899999976158,433216.89999997616,7186,no,SM,A,137.bmp,-120,-120,197521,191504,199538,193506,430895.0,424877.0,432911.0,426880.0,23
2,0,1,0,0,17,test,1,1,z,Wed Jul 23 2025 16:23:53 GMT-0500 (Central Daylight Time),453097.6999999881,O,z,1777,24,1,142.bmp,-120,-120,143.bmp,120,-120,144.bmp,-120,120,145.bmp,120,120,9817.5,443280.1999999881,7186,yes,SM,A,143.bmp,120,-120,197521,191504,199538,193506,440958.0,434940.0,442975.0,436943.0,24
4,0,0,0,1,17,test,1,0,m,Wed Jul 23 2025 16:23:53 GMT-0500 (Central Daylight Time),463161.0,O,None,2015,25,1,146.bmp,-120,-120,147.bmp,120,-120,148.bmp,-120,120,149.bmp,120,120,10051.200000047684,453109.7999999523,7186,no,SM,A,148.bmp,120,120,197521,191504,199538,193506,450789.0,444770.0,452805.0,446773.0,25
1,1,0,0,0,18,test,1,1,z,Wed Jul 23 2025 16:23:53 GMT-0500 (Central Daylight Time),472757.89999997616,O,z,1540,26,1,138.bmp,-120,-120,139.bmp,120,-120,140.bmp,-120,120,141.bmp,120,120,9583.800000011921,463174.09999996424,7186,yes,SM,A,138.bmp,-120,-120,197521,191504,199538,193506,460852.0,454834.0,462868.0,456837.0,26
4,0,0,0,1,19,test,1,1,z,Wed Jul 23 2025 16:23:53 GMT-0500 (Central Daylight Time),482137.2999999523,O,z,1325,27,1,150.bmp,-120,-120,111.bmp,120,-120,101.bmp,-120,120,102.bmp,120,120,9366.199999988079,472771.09999996424,7186,yes,SM,A,102.bmp,120,120,197521,191504,199538,193506,470448.0,464431.0,472465.0,466433.0,27
3,0,0,1,0,20,test,1,1,m,Wed Jul 23 2025 16:23:53 GMT-0500 (Central Daylight Time),491851.6999999881,O,m,1649,28,1,103.bmp,-120,-120,104.bmp,120,-120,105.bmp,-120,120,106.bmp,120,120,9710.5,482141.1999999881,7186,no,SM,A,103.bmp,-120,120,197521,191504,199538,193506,479829.0,473801.0,481846.0,475815.0,28
2,0,1,0,0,20,test,1,0,z,Wed Jul 23 2025 16:23:53 GMT-0500 (Central Daylight Time),501931.6999999881,O,None,2015,29,1,107.bmp,-120,-120,108.bmp,120,-120,109.bmp,-120,120,110.bmp,120,120,10066.5,491865.1999999881,7186,yes,SM,A,108.bmp,120,-120,197521,191504,199538,193506,489559.0,483526.0,491575.0,485544.0,29
3,0,0,1,0,21,test,1,1,z,Wed Jul 23 2025 16:23:53 GMT-0500 (Central Daylight Time),510978.7999999523,O,z,985,30,1,111.bmp,-120,-120,112.bmp,120,-120,113.bmp,-120,120,114.bmp,120,120,9034.099999964237,501944.6999999881,7186,yes,SM,A,113.bmp,-120,120,197521,191504,199538,193506,499622.0,493604.0,501639.0,495607.0,30
1,1,0,0,0,22,test,1,1,z,Wed Jul 23 2025 16:23:53 GMT-0500 (Central Daylight Time),520675.59999996424,O,z,1634,31,1,115.bmp,-120,-120,116.bmp,120,-120,117.bmp,-120,120,118.bmp,120,120,9683.399999976158,510992.1999999881,7186,yes,SM,A,115.bmp,-120,-120,197521,191504,199538,193506,508669.0,502652.0,510685.0,504654.0,31
2,0,1,0,0,23,test,1,1,m,Wed Jul 23 2025 16:23:53 GMT-0500 (Central Daylight Time),530705.7999999523,O,m,1978,32,1,119.bmp,-120,-120,120.bmp,120,-120,121.bmp,-120,120,122.bmp,120,120,10016.799999952316,520689.0,7186,no,SM,A,119.bmp,120,-120,197521,191504,199538,193506,518366.0,512349.0,520382.0,514351.0,32
4,0,0,0,1,24,test,1,1,z,Wed Jul 23 2025 16:23:53 GMT-0500 (Central Daylight Time),539952.5999999642,O,z,1195,33,1,131.bmp,-120,-120,132.bmp,120,-120,133.bmp,-120,120,134.bmp,120,120,9234.199999988079,530718.3999999762,7186,yes,SM,A,134.bmp,120,120,197521,191504,199538,193506,528397.0,522378.0,530413.0,524381.0,33
2,0,1,0,0,25,test,1,1,z,Wed Jul 23 2025 16:23:53 GMT-0500 (Central Daylight Time),549649.5999999642,O,z,1636,34,1,123.bmp,-120,-120,124.bmp,120,-120,125.bmp,-120,120,126.bmp,120,120,9683.5,539966.0999999642,7186,yes,SM,A,124.bmp,120,-120,197521,191504,199538,193506,537643.0,531626.0,539660.0,533628.0,34
4,0,0,0,1,26,test,1,1,m,Wed Jul 23 2025 16:23:53 GMT-0500 (Central Daylight Time),558863.1999999881,O,m,1155,35,1,127.bmp,-120,-120,128.bmp,120,-120,129.bmp,-120,120,130.bmp,120,120,9201.0,549662.1999999881,7186,no,SM,A,129.bmp,120,120,197521,191504,199538,193506,547340.0,541322.0,549357.0,543325.0,35
3,0,0,1,0,26,test,1,0,m,Wed Jul 23 2025 16:23:53 GMT-0500 (Central Daylight Time),568626.3999999762,O,z,1710,36,1,135.bmp,-120,-120,136.bmp,120,-120,137.bmp,-120,120,138.bmp,120,120,9750.899999976158,558875.5,7186,no,SM,A,135.bmp,-120,120,197521,191504,199538,193506,556554.0,550535.0,558570.0,552539.0,36
1,1,0,0,0,27,test,1,1,m,Wed Jul 23 2025 16:23:53 GMT-0500 (Central Daylight Time),578356.5999999642,O,m,1675,37,1,139.bmp,-120,-120,140.bmp,120,-120,141.bmp,-120,120,142.bmp,120,120,9716.300000011921,568640.2999999523,7186,no,SM,A,140.bmp,-120,-120,197521,191504,199538,193506,566317.0,560300.0,568333.0,562302.0,37
2,0,1,0,0,28,test,1,1,m,Wed Jul 23 2025 16:23:53 GMT-0500 (Central Daylight Time),587786.8999999762,O,m,1376,38,1,143.bmp,-120,-120,144.bmp,120,-120,145.bmp,-120,120,146.bmp,120,120,9417.600000023842,578369.2999999523,7186,no,SM,A,145.bmp,120,-120,197521,191504,199538,193506,576047.0,570029.0,578063.0,572032.0,38
4,0,0,0,1,29,test,1,1,z,Wed Jul 23 2025 16:23:53 GMT-0500 (Central Daylight Time),597067.1999999881,O,z,1226,39,1,147.bmp,-120,-120,148.bmp,120,-120,149.bmp,-120,120,150.bmp,120,120,9266.400000035763,587800.7999999523,7186,yes,SM,A,150.bmp,120,120,197521,191504,199538,193506,585477.0,579461.0,587494.0,581462.0,39
3,0,0,1,0,29,test,1,0,m,Wed Jul 23 2025 16:23:53 GMT-0500 (Central Daylight Time),607130.5999999642,O,None,2015,40,1,104.bmp,-120,-120,105.bmp,120,-120,106.bmp,-120,120,107.bmp,120,120,10050.399999976158,597080.1999999881,7186,no,SM,A,105.bmp,-120,120,197521,191504,199538,193506,594758.0,588740.0,596774.0,590743.0,40
1,1,0,0,0,30,test,1,1,z,Wed Jul 23 2025 16:23:53 GMT-0500 (Central Daylight Time),616394.1999999881,O,z,1210,41,1,108.bmp,-120,-120,109.bmp,120,-120,110.bmp,-120,120,111.bmp,120,120,9251.900000035763,607142.2999999523,7186,yes,SM,A,108.bmp,-120,-120,197521,191504,199538,193506,604821.0,598802.0,606838.0,600805.0,41
4,0,0,0,1,31,test,1,1,z,Wed Jul 23 2025 16:23:53 GMT-0500 (Central Daylight Time),625807.8999999762,O,z,1355,42,1,112.bmp,-120,-120,113.bmp,120,-120,114.bmp,-120,120,115.bmp,120,120,9401.5,616406.3999999762,7186,yes,SM,A,115.bmp,120,120,197521,191504,199538,193506,614085.0,608066.0,616101.0,610070.0,42
1,1,0,0,0,31,test,1,0,z,Wed Jul 23 2025 16:23:53 GMT-0500 (Central Daylight Time),635871.2999999523,O,None,2015,43,1,116.bmp,-120,-120,117.bmp,120,-120,118.bmp,-120,120,119.bmp,120,120,10051.5,625819.7999999523,7186,yes,SM,A,116.bmp,-120,-120,197521,191504,199538,193506,623498.0,617480.0,625515.0,619483.0,43
4,0,0,0,1,32,test,1,1,m,Wed Jul 23 2025 16:23:53 GMT-0500 (Central Daylight Time),645718.0999999642,O,m,1798,44,1,104.bmp,-120,-120,101.bmp,120,-120,102.bmp,-120,120,103.bmp,120,120,9834.599999964237,635883.5,7186,no,SM,A,104.bmp,120,120,197521,191504,199538,193506,633562.0,627543.0,635578.0,629547.0,44
1,1,0,0,0,33,test,1,1,m,Wed Jul 23 2025 16:23:53 GMT-0500 (Central Daylight Time),655414.7999999523,O,m,1639,45,1,128.bmp,-120,-120,129.bmp,120,-120,130.bmp,-120,120,131.bmp,120,120,9685.099999964237,645729.6999999881,7186,no,SM,A,131.bmp,-120,-120,197521,191504,199538,193506,643408.0,637389.0,645425.0,639393.0,45
1,1,0,0,0,34,test,1,1,m,Wed Jul 23 2025 16:23:53 GMT-0500 (Central Daylight Time),664945.0999999642,O,m,1470,46,1,120.bmp,-120,-120,121.bmp,120,-120,122.bmp,-120,120,123.bmp,120,120,9516.899999976158,655428.1999999881,7186,no,SM,A,121.bmp,-120,-120,197521,191504,199538,193506,653105.0,647088.0,655122.0,649089.0,46
3,0,0,1,0,34,test,1,0,z,Wed Jul 23 2025 16:23:53 GMT-0500 (Central Daylight Time),675008.1999999881,O,None,2015,47,1,124.bmp,-120,-120,125.bmp,120,-120,126.bmp,-120,120,127.bmp,120,120,10049.300000011921,664958.8999999762,7186,yes,SM,A,126.bmp,-120,120,197521,191504,199538,193506,662636.0,656619.0,664652.0,658620.0,47
3,0,0,1,0,35,test,1,1,z,Wed Jul 23 2025 16:23:53 GMT-0500 (Central Daylight Time),684738.5999999642,O,z,1677,48,1,140.bmp,-120,-120,141.bmp,120,-120,142.bmp,-120,120,143.bmp,120,120,9717.399999976158,675021.1999999881,7186,yes,SM,A,142.bmp,-120,120,197521,191504,199538,193506,672699.0,666681.0,674715.0,668684.0,48
2,0,1,0,0,36,test,1,1,z,Wed Jul 23 2025 16:23:53 GMT-0500 (Central Daylight Time),694468.5999999642,O,z,1675,49,1,136.bmp,-120,-120,137.bmp,120,-120,138.bmp,-120,120,139.bmp,120,120,9717.599999964237,684751.0,7186,yes,SM,A,137.bmp,120,-120,197521,191504,199538,193506,682429.0,676411.0,684445.0,678414.0,49
3,0,0,1,0,37,test,1,1,m,Wed Jul 23 2025 16:23:53 GMT-0500 (Central Daylight Time),703815.5999999642,O,m,1288,50,1,132.bmp,-120,-120,133.bmp,120,-120,134.bmp,-120,120,135.bmp,120,120,9334.800000011921,694480.7999999523,7186,no,SM,A,132.bmp,-120,120,197521,191504,199538,193506,692159.0,686140.0,694176.0,688144.0,50
2,0,1,0,0,37,test,1,0,z,Wed Jul 23 2025 16:23:53 GMT-0500 (Central Daylight Time),713579.0,O,m,1709,51,1,144.bmp,-120,-120,145.bmp,120,-120,146.bmp,-120,120,147.bmp,120,120,9751.700000047684,703827.2999999523,7186,yes,SM,A,145.bmp,120,-120,197521,191504,199538,193506,701506.0,695487.0,703523.0,697491.0,51
4,0,0,0,1,38,test,1,1,m,Wed Jul 23 2025 16:23:53 GMT-0500 (Central Daylight Time),723326.0,O,m,1698,52,1,148.bmp,-120,-120,149.bmp,120,-120,150.bmp,-120,120,131.bmp,120,120,9734.0,713592.0,7186,no,SM,A,148.bmp,120,120,197521,191504,199538,193506,711269.0,705252.0,713286.0,707254.0,52
3,0,0,1,0,38,test,1,0,z,Wed Jul 23 2025 16:23:53 GMT-0500 (Central Daylight Time),733389.3999999762,O,None,2015,53,1,101.bmp,-120,-120,102.bmp,120,-120,103.bmp,-120,120,104.bmp,120,120,10050.899999976158,723338.5,7186,yes,SM,A,103.bmp,-120,120,197521,191504,199538,193506,721016.0,714998.0,723033.0,717001.0,53
1,1,0,0,0,39,test,1,1,m,Wed Jul 23 2025 16:23:53 GMT-0500 (Central Daylight Time),743035.8999999762,O,m,1592,54,1,105.bmp,-120,-120,106.bmp,120,-120,107.bmp,-120,120,108.bmp,120,120,9634.0,733401.8999999762,7186,no,SM,A,107.bmp,-120,-120,197521,191504,199538,193506,731080.0,725062.0,733096.0,727065.0,54
4,0,0,0,1,39,test,1,0,z,Wed Jul 23 2025 16:23:53 GMT-0500 (Central Daylight Time),752666.1999999881,O,m,1577,55,1,109.bmp,-120,-120,110.bmp,120,-120,111.bmp,-120,120,112.bmp,120,120,9618.0,743048.1999999881,7186,yes,SM,A,112.bmp,120,120,197521,191504,199538,193506,740727.0,734708.0,742743.0,736712.0,55
2,0,1,0,0,40,test,1,1,m,Wed Jul 23 2025 16:23:53 GMT-0500 (Central Daylight Time),762230.2999999523,O,m,1515,56,1,113.bmp,-120,-120,114.bmp,120,-120,115.bmp,-120,120,116.bmp,120,120,9551.599999964237,752678.6999999881,7186,no,SM,A,113.bmp,120,-120,197521,191504,199538,193506,750357.0,744339.0,752373.0,746342.0,56
4,0,0,0,1,40,test,1,0,m,Wed Jul 23 2025 16:23:53 GMT-0500 (Central Daylight Time),772292.8999999762,O,None,2015,57,1,117.bmp,-120,-120,118.bmp,120,-120,119.bmp,-120,120,120.bmp,120,120,10050.399999976158,762242.5,7186,no,SM,A,118.bmp,120,120,197521,191504,199538,193506,759920.0,753902.0,761937.0,755905.0,57
3,0,0,1,0,41,test,1,1,z,Wed Jul 23 2025 16:23:53 GMT-0500 (Central Daylight Time),781439.8999999762,O,z,1096,58,1,121.bmp,-120,-120,122.bmp,120,-120,123.bmp,-120,120,124.bmp,120,120,9134.600000023842,772305.2999999523,7186,yes,SM,A,123.bmp,-120,120,197521,191504,199538,193506,769984.0,763965.0,772000.0,765969.0,58
2,0,1,0,0,42,test,1,1,m,Wed Jul 23 2025 16:23:53 GMT-0500 (Central Daylight Time),791420.5999999642,O,m,1918,59,1,125.bmp,-120,-120,126.bmp,120,-120,127.bmp,-120,120,128.bmp,120,120,9966.0,781454.5999999642,7186,no,SM,A,128.bmp,120,-120,197521,191504,199538,193506,779131.0,773114.0,781146.0,775116.0,59
1,1,0,0,0,43,test,1,1,z,Wed Jul 23 2025 16:23:53 GMT-0500 (Central Daylight Time),800716.1999999881,O,z,1247,60,1,129.bmp,-120,-120,130.bmp,120,-120,131.bmp,-120,120,132.bmp,120,120,9281.5,791434.6999999881,7186,yes,SM,A,129.bmp,-120,-120,197521,191504,199538,193506,789111.0,783094.0,791126.0,785096.0,60
2,0,1,0,0,44,test,1,1,z,Wed Jul 23 2025 16:23:53 GMT-0500 (Central Daylight Time),810114.1999999881,O,z,1344,61,1,133.bmp,-120,-120,134.bmp,120,-120,135.bmp,-120,120,136.bmp,120,120,9394.300000011921,800719.8999999762,7186,yes,SM,A,134.bmp,120,-120,197521,191504,199538,193506,798408.0,792379.0,800424.0,794392.0,61
4,0,0,0,1,44,test,1,0,z,Wed Jul 23 2025 16:23:53 GMT-0500 (Central Daylight Time),820077.8999999762,O,m,1915,62,1,141.bmp,-120,-120,142.bmp,120,-120,143.bmp,-120,120,144.bmp,120,120,9951.800000011921,810126.0999999642,7186,yes,SM,A,144.bmp,120,120,197521,191504,199538,193506,807804.0,801786.0,809821.0,803789.0,62
1,1,0,0,0,45,test,1,1,m,Wed Jul 23 2025 16:23:53 GMT-0500 (Central Daylight Time),830124.1999999881,O,m,1992,63,1,145.bmp,-120,-120,146.bmp,120,-120,147.bmp,-120,120,148.bmp,120,120,10033.5,820090.6999999881,7186,no,SM,A,145.bmp,-120,120,197521,191504,199538,193506,817768.0,811750.0,819785.0,813753.0,63
2,0,1,0,0,46,test,1,1,z,Wed Jul 23 2025 16:23:53 GMT-0500 (Central Daylight Time),839320.7999999523,O,z,1136,64,1,149.bmp,-120,-120,150.bmp,120,-120,112.bmp,-120,120,101.bmp,120,120,9185.399999976158,830135.3999999762,7186,yes,SM,A,150.bmp,120,-120,197521,191504,199538,193506,827815.0,821795.0,829831.0,823800.0,64
4,0,0,0,1,47,test,1,1,m,Wed Jul 23 2025 16:23:53 GMT-0500 (Central Daylight Time),848702.3999999762,O,m,1333,65,1,102.bmp,-120,-120,103.bmp,120,-120,104.bmp,-120,120,105.bmp,120,120,9374.699999988079,839327.6999999881,7186,no,SM,A,104.bmp,120,120,197521,191504,199538,193506,837012.0,830987.0,839028.0,832997.0,65
3,0,0,1,0,48,test,1,1,m,Wed Jul 23 2025 16:23:53 GMT-0500 (Central Daylight Time),858231.5,O,m,1472,66,1,106.bmp,-120,-120,107.bmp,120,-120,108.bmp,-120,120,109.bmp,120,120,9517.300000011921,848714.1999999881,7186,no,SM,A,109.bmp,-120,120,197521,191504,199538,193506,846392.0,840374.0,848408.0,842377.0,66
2,0,1,0,0,49,test,1,1,m,Wed Jul 23 2025 16:23:53 GMT-0500 (Central Daylight Time),867495.0,O,m,1214,67,1,137.bmp,-120,-120,138.bmp,120,-120,139.bmp,-120,120,140.bmp,120,120,9251.900000035763,858243.0999999642,7186,no,SM,A,139.bmp,120,-120,197521,191504,199538,193506,855922.0,849903.0,857938.0,851907.0,67
3,0,0,1,0,50,test,1,1,z,Wed Jul 23 2025 16:23:53 GMT-0500 (Central Daylight Time),876942.2999999523,O,z,1398,68,1,110.bmp,-120,-120,111.bmp,120,-120,112.bmp,-120,120,113.bmp,120,120,9435.899999976158,867506.3999999762,7186,yes,SM,A,112.bmp,-120,120,197521,191504,199538,193506,865186.0,859166.0,867202.0,861171.0,68
1,1,0,0,0,51,test,1,1,m,Wed Jul 23 2025 16:23:53 GMT-0500 (Central Daylight Time),886205.6999999881,O,m,1200,69,1,114.bmp,-120,-120,115.bmp,120,-120,116.bmp,-120,120,117.bmp,120,120,9251.300000011921,876954.3999999762,7186,no,SM,A,115.bmp,-120,-120,197521,191504,199538,193506,874633.0,868614.0,876649.0,870618.0,69
2,0,1,0,0,52,test,1,1,m,Wed Jul 23 2025 16:23:53 GMT-0500 (Central Daylight Time),895602.7999999523,O,m,1335,70,1,118.bmp,-120,-120,119.bmp,120,-120,120.bmp,-120,120,121.bmp,120,120,9384.0,886218.7999999523,7186,no,SM,A,120.bmp,120,-120,197521,191504,199538,193506,883896.0,877879.0,885913.0,879881.0,70
4,0,0,0,1,52,test,1,0,z,Wed Jul 23 2025 16:23:53 GMT-0500 (Central Daylight Time),905465.8999999762,O,m,1811,71,1,122.bmp,-120,-120,123.bmp,120,-120,124.bmp,-120,120,125.bmp,120,120,9850.199999988079,895615.6999999881,7186,yes,SM,A,125.bmp,120,120,197521,191504,199538,193506,893293.0,887275.0,895310.0,889278.0,71
1,1,0,0,0,53,test,1,1,z,Wed Jul 23 2025 16:23:53 GMT-0500 (Central Daylight Time),914563.0,O,z,1026,72,1,126.bmp,-120,-120,127.bmp,120,-120,128.bmp,-120,120,129.bmp,120,120,9079.800000011921,905483.1999999881,7186,yes,SM,A,126.bmp,-120,-120,197521,191504,199538,193506,903173.0,897143.0,905190.0,899158.0,72
2,0,1,0,0,54,test,1,1,z,Wed Jul 23 2025 16:23:53 GMT-0500 (Central Daylight Time),924010.0999999642,O,z,1387,73,1,130.bmp,-120,-120,131.bmp,120,-120,132.bmp,-120,120,133.bmp,120,120,9434.800000011921,914575.2999999523,7186,yes,SM,A,131.bmp,120,-120,197521,191504,199538,193506,912254.0,906235.0,914270.0,908239.0,73
4,0,0,0,1,55,test,1,1,m,Wed Jul 23 2025 16:23:53 GMT-0500 (Central Daylight Time),933173.6999999881,O,m,1107,74,1,134.bmp,-120,-120,135.bmp,120,-120,136.bmp,-120,120,137.bmp,120,120,9151.900000035763,924021.7999999523,7186,no,SM,A,136.bmp,120,120,197521,191504,199538,193506,921701.0,915682.0,923717.0,917686.0,74
2,0,1,0,0,56,test,1,1,m,Wed Jul 23 2025 16:23:53 GMT-0500 (Central Daylight Time),942387.1999999881,O,m,1160,75,1,138.bmp,-120,-120,139.bmp,120,-120,140.bmp,-120,120,141.bmp,120,120,9202.0,933185.1999999881,7186,no,SM,A,141.bmp,120,-120,197521,191504,199538,193506,930864.0,924845.0,932881.0,926849.0,75
1,1,0,0,0,57,test,1,1,z,Wed Jul 23 2025 16:23:53 GMT-0500 (Central Daylight Time),951651.0,O,z,1210,76,1,142.bmp,-120,-120,143.bmp,120,-120,144.bmp,-120,120,145.bmp,120,120,9250.700000047684,942400.2999999523,7186,yes,SM,A,142.bmp,-120,-120,197521,191504,199538,193506,940078.0,934060.0,942094.0,936063.0,76
3,0,0,1,0,58,test,1,1,z,Wed Jul 23 2025 16:23:53 GMT-0500 (Central Daylight Time),961597.5999999642,O,z,1883,77,1,150.bmp,-120,-120,111.bmp,120,-120,101.bmp,-120,120,102.bmp,120,120,9933.300000011921,951664.2999999523,7186,yes,SM,A,101.bmp,-120,120,197521,191504,199538,193506,949342.0,943324.0,951358.0,945327.0,77
1,1,0,0,0,58,test,1,0,m,Wed Jul 23 2025 16:23:53 GMT-0500 (Central Daylight Time),970511.5999999642,O,z,856,78,1,146.bmp,-120,-120,147.bmp,120,-120,148.bmp,-120,120,149.bmp,120,120,8901.0,961610.5999999642,7186,no,SM,A,147.bmp,-120,-120,197521,191504,199538,193506,959288.0,953270.0,961304.0,955274.0,78
4,0,0,0,1,59,test,1,1,m,Wed Jul 23 2025 16:23:53 GMT-0500 (Central Daylight Time),979708.5999999642,O,m,1101,79,1,107.bmp,-120,-120,108.bmp,120,-120,109.bmp,-120,120,110.bmp,120,120,9157.599999964237,970551.0,7186,no,SM,A,107.bmp,120,120,197521,191504,199538,193506,968235.0,962211.0,970252.0,964220.0,79
3,0,0,1,0,60,test,1,1,m,Wed Jul 23 2025 16:23:53 GMT-0500 (Central Daylight Time),989406.0999999642,O,m,1648,80,1,103.bmp,-120,-120,104.bmp,120,-120,105.bmp,-120,120,106.bmp,120,120,9684.0,979722.0999999642,7186,no,SM,A,106.bmp,-120,120,197521,191504,199538,193506,977399.0,971382.0,979416.0,973384.0,80
