Number,acc_sum,block,block_c,block_cond,con_img,correct,correct_response,datetime,endtime,jitter,project,response,response_time,row_sel,session_number,start_end,starttime,subject_id,task,task_vers,trial
3,1,prac,1,A,circle.png,1,z,Mon Mar 09 2026 11:14:10 GMT-0500 (Central Daylight Time),26086.200000047684,1200,I,z,870,3,,2860.5,23225.700000047684,8063,NTS,A,1
7,2,prac,1,A,circle.png,1,m,Mon Mar 09 2026 11:14:10 GMT-0500 (Central Daylight Time),29185.299999952316,1700,I,m,615,6,,3092.2999999523163,26093.0,8063,NTS,A,2
9,3,prac,1,A,circle.png,1,m,Mon Mar 09 2026 11:14:10 GMT-0500 (Central Daylight Time),32034.299999952316,1500,I,m,555,8,,2844.0,29190.299999952316,8063,NTS,A,3
1,4,prac,1,A,circle.png,1,z,Mon Mar 09 2026 11:14:10 GMT-0500 (Central Daylight Time),34483.700000047684,1000,I,z,597,1,,2443.800000190735,32039.89999985695,8063,NTS,A,4
9,5,prac,1,A,circle.png,1,m,Mon Mar 09 2026 11:14:10 GMT-0500 (Central Daylight Time),37315.89999985695,1500,I,m,538,8,,2826.399999856949,34489.5,8063,NTS,A,5
8,6,prac,1,A,circle.png,1,m,Mon Mar 09 2026 11:14:10 GMT-0500 (Central Daylight Time),40248.09999990463,1600,I,m,533,7,,2926.399999856949,37321.700000047684,8063,NTS,A,6
1,7,prac,1,A,circle.png,1,z,Mon Mar 09 2026 11:14:10 GMT-0500 (Central Daylight Time),42580.799999952316,1000,I,z,545,1,,2325.5999999046326,40255.200000047684,8063,NTS,A,7
4,8,prac,1,A,circle.png,1,z,Mon Mar 09 2026 11:14:10 GMT-0500 (Central Daylight Time),45313.700000047684,1400,I,z,549,4,,2727.300000190735,42586.39999985695,8063,NTS,A,8
6,9,prac,1,A,circle.png,1,m,Mon Mar 09 2026 11:14:10 GMT-0500 (Central Daylight Time),48679.09999990463,1900,I,m,668,5,,3360.0999999046326,45319.0,8063,NTS,A,9
7,10,prac,1,A,circle.png,1,m,Mon Mar 09 2026 11:14:10 GMT-0500 (Central Daylight Time),51778.09999990463,1700,I,m,606,6,,3093.7999999523163,48684.299999952316,8063,NTS,A,10
2,11,prac,1,A,circle.png,1,z,Mon Mar 09 2026 11:14:10 GMT-0500 (Central Daylight Time),55143.59999990463,2000,I,z,567,2,,3360.2999999523163,51783.299999952316,8063,NTS,A,11
6,12,prac,1,A,circle.png,1,m,Mon Mar 09 2026 11:14:10 GMT-0500 (Central Daylight Time),58443.89999985695,1900,I,m,622,5,,3295.199999809265,55148.700000047684,8063,NTS,A,12
6,1,prac,1,B,triangle.png,1,m,Mon Mar 09 2026 11:14:10 GMT-0500 (Central Daylight Time),72888.20000004768,1000,I,m,534,5,,2327.9000000953674,70560.29999995232,8063,NTS,A,1
3,2,prac,1,B,triangle.png,1,z,Mon Mar 09 2026 11:14:10 GMT-0500 (Central Daylight Time),75853.59999990463,1600,I,z,569,3,,2958.899999856949,72894.70000004768,8063,NTS,A,2
2,3,prac,1,B,triangle.png,1,m,Mon Mar 09 2026 11:14:10 GMT-0500 (Central Daylight Time),79053.0,1700,I,m,705,2,,3194.4000000953674,75858.59999990463,8063,NTS,A,3
4,4,prac,1,B,triangle.png,1,m,Mon Mar 09 2026 11:14:10 GMT-0500 (Central Daylight Time),81951.79999995232,1500,I,m,609,4,,2893.7000000476837,79058.09999990463,8063,NTS,A,4
9,5,prac,1,B,triangle.png,1,z,Mon Mar 09 2026 11:14:10 GMT-0500 (Central Daylight Time),84934.39999985695,1400,I,z,795,8,,2976.399999856949,81958.0,8063,NTS,A,5
1,6,prac,1,B,triangle.png,1,z,Mon Mar 09 2026 11:14:10 GMT-0500 (Central Daylight Time),88516.59999990463,1900,I,z,887,1,,3577.0999999046326,84939.5,8063,NTS,A,6
9,7,prac,1,B,triangle.png,1,z,Mon Mar 09 2026 11:14:10 GMT-0500 (Central Daylight Time),91315.70000004768,1400,I,z,613,8,,2793.9000000953674,88521.79999995232,8063,NTS,A,7
3,8,prac,1,B,triangle.png,1,z,Mon Mar 09 2026 11:14:10 GMT-0500 (Central Daylight Time),94464.70000004768,1600,I,z,750,3,,3143.600000143051,91321.09999990463,8063,NTS,A,8
8,9,prac,1,B,triangle.png,1,m,Mon Mar 09 2026 11:14:10 GMT-0500 (Central Daylight Time),97163.89999985695,1200,I,m,705,7,,2693.899999856949,94470.0,8063,NTS,A,9
2,10,prac,1,B,triangle.png,1,m,Mon Mar 09 2026 11:14:10 GMT-0500 (Central Daylight Time),100312.79999995232,1700,I,m,650,2,,3144.0999999046326,97168.70000004768,8063,NTS,A,10
7,11,prac,1,B,triangle.png,1,z,Mon Mar 09 2026 11:14:10 GMT-0500 (Central Daylight Time),103844.89999985695,2000,I,z,736,6,,3527.399999856949,100317.5,8063,NTS,A,11
8,12,prac,1,B,triangle.png,1,m,Mon Mar 09 2026 11:14:10 GMT-0500 (Central Daylight Time),106610.89999985695,1200,I,m,780,7,,2761.7999999523163,103849.09999990463,8063,NTS,A,12
7,1,test,1,A,circle.png,1,m,Mon Mar 09 2026 11:14:10 GMT-0500 (Central Daylight Time),119073.59999990463,1700,I,m,542,6,,2262.0999999046326,116811.5,8063,NTS,A,1
9,2,test,1,A,circle.png,1,m,Mon Mar 09 2026 11:14:10 GMT-0500 (Central Daylight Time),121106.09999990463,1500,I,m,508,8,,2027.3999998569489,119078.70000004768,8063,NTS,A,2
8,3,test,1,A,circle.png,1,m,Mon Mar 09 2026 11:14:10 GMT-0500 (Central Daylight Time),123372.5,1600,I,m,647,7,,2262.7000000476837,121109.79999995232,8063,NTS,A,3
4,4,test,1,A,circle.png,1,z,Mon Mar 09 2026 11:14:10 GMT-0500 (Central Daylight Time),125388.5,1400,I,z,589,4,,2012.2999999523163,123376.20000004768,8063,NTS,A,4
6,5,test,1,A,circle.png,1,m,Mon Mar 09 2026 11:14:10 GMT-0500 (Central Daylight Time),128020.79999995232,1900,I,m,649,5,,2628.5999999046326,125392.20000004768,8063,NTS,A,5
4,6,test,1,A,circle.png,1,z,Mon Mar 09 2026 11:14:10 GMT-0500 (Central Daylight Time),130020.09999990463,1400,I,z,580,4,,1995.0999999046326,128025.0,8063,NTS,A,6
3,7,test,1,A,circle.png,1,z,Mon Mar 09 2026 11:14:10 GMT-0500 (Central Daylight Time),131853.09999990463,1200,I,z,614,3,,1829.2000000476837,130023.89999985695,8063,NTS,A,7
1,8,test,1,A,circle.png,1,z,Mon Mar 09 2026 11:14:10 GMT-0500 (Central Daylight Time),133469.0,1000,I,z,587,1,,1612.2000000476837,131856.79999995232,8063,NTS,A,8
3,9,test,1,A,circle.png,1,z,Mon Mar 09 2026 11:14:10 GMT-0500 (Central Daylight Time),135301.79999995232,1200,I,z,604,3,,1828.5,133473.29999995232,8063,NTS,A,9
2,10,test,1,A,circle.png,1,z,Mon Mar 09 2026 11:14:10 GMT-0500 (Central Daylight Time),137850.89999985695,2000,I,z,533,2,,2545.5,135305.39999985695,8063,NTS,A,10
3,11,test,1,A,circle.png,1,z,Mon Mar 09 2026 11:14:10 GMT-0500 (Central Daylight Time),139617.29999995232,1200,I,z,542,3,,1762.7999999523163,137854.5,8063,NTS,A,11
2,12,test,1,A,circle.png,1,z,Mon Mar 09 2026 11:14:10 GMT-0500 (Central Daylight Time),142133.09999990463,2000,I,z,496,2,,2512.0999999046326,139621.0,8063,NTS,A,12
8,13,test,1,A,circle.png,1,m,Mon Mar 09 2026 11:14:10 GMT-0500 (Central Daylight Time),144415.59999990463,1600,I,m,652,7,,2278.5,142137.09999990463,8063,NTS,A,13
4,14,test,1,A,circle.png,1,z,Mon Mar 09 2026 11:14:10 GMT-0500 (Central Daylight Time),146431.89999985695,1400,I,z,594,4,,2012.3999998569489,144419.5,8063,NTS,A,14
7,15,test,1,A,circle.png,1,m,Mon Mar 09 2026 11:14:10 GMT-0500 (Central Daylight Time),148780.89999985695,1700,I,m,621,6,,2345.199999809265,146435.70000004768,8063,NTS,A,15
8,16,test,1,A,circle.png,1,m,Mon Mar 09 2026 11:14:10 GMT-0500 (Central Daylight Time),150976.59999990463,1600,I,m,577,7,,2191.899999856949,148784.70000004768,8063,NTS,A,16
3,17,test,1,A,circle.png,1,z,Mon Mar 09 2026 11:14:10 GMT-0500 (Central Daylight Time),152813.09999990463,1200,I,z,604,3,,1831.2999999523163,150981.79999995232,8063,NTS,A,17
1,18,test,1,A,circle.png,1,z,Mon Mar 09 2026 11:14:10 GMT-0500 (Central Daylight Time),154495.89999985695,1000,I,z,652,1,,1678.8999998569489,152817.0,8063,NTS,A,18
1,19,test,1,A,circle.png,1,z,Mon Mar 09 2026 11:14:10 GMT-0500 (Central Daylight Time),156012.20000004768,1000,I,z,497,1,,1512.3000001907349,154499.89999985695,8063,NTS,A,19
6,20,test,1,A,circle.png,1,m,Mon Mar 09 2026 11:14:10 GMT-0500 (Central Daylight Time),158544.5,1900,I,m,602,5,,2528.600000143051,156015.89999985695,8063,NTS,A,20
9,21,test,1,A,circle.png,1,m,Mon Mar 09 2026 11:14:10 GMT-0500 (Central Daylight Time),160744.0,1500,I,m,669,8,,2195.600000143051,158548.39999985695,8063,NTS,A,21
2,22,test,1,A,circle.png,1,z,Mon Mar 09 2026 11:14:10 GMT-0500 (Central Daylight Time),163393.0,2000,I,z,626,2,,2645.2999999523163,160747.70000004768,8063,NTS,A,22
1,23,test,1,A,circle.png,1,z,Mon Mar 09 2026 11:14:10 GMT-0500 (Central Daylight Time),164925.89999985695,1000,I,z,505,1,,1529.0999999046326,163396.79999995232,8063,NTS,A,23
7,24,test,1,A,circle.png,1,m,Mon Mar 09 2026 11:14:10 GMT-0500 (Central Daylight Time),167291.70000004768,1700,I,m,639,6,,2362.2000000476837,164929.5,8063,NTS,A,24
4,1,test,1,B,triangle.png,1,m,Mon Mar 09 2026 11:14:10 GMT-0500 (Central Daylight Time),173456.79999995232,1000,I,m,1043,12,,2062.9000000953674,171393.89999985695,8063,NTS,A,1
4,2,test,1,B,triangle.png,1,m,Mon Mar 09 2026 11:14:10 GMT-0500 (Central Daylight Time),175589.0,1500,I,m,614,4,,2128.100000143051,173460.89999985695,8063,NTS,A,2
2,3,test,1,B,triangle.png,1,m,Mon Mar 09 2026 11:14:10 GMT-0500 (Central Daylight Time),177505.5,1200,I,m,684,10,,1913.1000001430511,175592.39999985695,8063,NTS,A,3
9,4,test,1,B,triangle.png,1,z,Mon Mar 09 2026 11:14:10 GMT-0500 (Central Daylight Time),179554.59999990463,1400,I,z,624,8,,2045.2999999523163,177509.29999995232,8063,NTS,A,4
7,5,test,1,B,triangle.png,1,z,Mon Mar 09 2026 11:14:10 GMT-0500 (Central Daylight Time),182220.39999985695,2000,I,z,639,6,,2661.7999999523163,179558.59999990463,8063,NTS,A,5
8,6,test,1,B,triangle.png,1,m,Mon Mar 09 2026 11:14:10 GMT-0500 (Central Daylight Time),184170.0,1200,I,m,726,7,,1945.9000000953674,182224.09999990463,8063,NTS,A,6
2,7,test,1,B,triangle.png,1,m,Mon Mar 09 2026 11:14:10 GMT-0500 (Central Daylight Time),186586.09999990463,1700,I,m,691,2,,2412.2000000476837,184173.89999985695,8063,NTS,A,7
2,8,test,1,B,triangle.png,1,m,Mon Mar 09 2026 11:14:10 GMT-0500 (Central Daylight Time),188885.20000004768,1700,I,m,571,2,,2295.5,186589.70000004768,8063,NTS,A,8
1,9,test,1,B,triangle.png,1,z,Mon Mar 09 2026 11:14:10 GMT-0500 (Central Daylight Time),191467.70000004768,1900,I,z,656,1,,2578.9000000953674,188888.79999995232,8063,NTS,A,9
1,10,test,1,B,triangle.png,1,z,Mon Mar 09 2026 11:14:10 GMT-0500 (Central Daylight Time),193383.70000004768,1400,I,z,494,9,,1912.3000001907349,191471.39999985695,8063,NTS,A,10
9,11,test,1,B,triangle.png,1,z,Mon Mar 09 2026 11:14:10 GMT-0500 (Central Daylight Time),195883.79999995232,1900,I,z,582,16,,2496.4000000953674,193387.39999985695,8063,NTS,A,11
6,12,test,1,B,triangle.png,1,m,Mon Mar 09 2026 11:14:10 GMT-0500 (Central Daylight Time),197550.20000004768,1000,I,m,646,5,,1662.5,195887.70000004768,8063,NTS,A,12
3,13,test,1,B,triangle.png,1,z,Mon Mar 09 2026 11:14:10 GMT-0500 (Central Daylight Time),199998.0,1600,I,z,820,3,,2443.9000000953674,197554.09999990463,8063,NTS,A,13
3,14,test,1,B,triangle.png,1,z,Mon Mar 09 2026 11:14:10 GMT-0500 (Central Daylight Time),202297.5,1600,I,z,676,3,,2295.600000143051,200001.89999985695,8063,NTS,A,14
7,15,test,1,B,triangle.png,1,z,Mon Mar 09 2026 11:14:10 GMT-0500 (Central Daylight Time),204597.09999990463,1600,I,z,672,14,,2296.0999999046326,202301.0,8063,NTS,A,15
8,16,test,1,B,triangle.png,1,m,Mon Mar 09 2026 11:14:10 GMT-0500 (Central Daylight Time),206962.59999990463,1700,I,m,649,15,,2361.899999856949,204600.70000004768,8063,NTS,A,16
8,17,test,1,B,triangle.png,1,m,Mon Mar 09 2026 11:14:10 GMT-0500 (Central Daylight Time),208845.5,1200,I,m,655,7,,1878.9000000953674,206966.59999990463,8063,NTS,A,17
3,18,test,1,B,triangle.png,1,z,Mon Mar 09 2026 11:14:10 GMT-0500 (Central Daylight Time),211611.5,2000,I,z,733,11,,2762.2999999523163,208849.20000004768,8063,NTS,A,18
7,19,test,1,B,triangle.png,1,z,Mon Mar 09 2026 11:14:10 GMT-0500 (Central Daylight Time),214210.39999985695,2000,I,z,566,6,,2594.899999856949,211615.5,8063,NTS,A,19
6,20,test,1,B,triangle.png,1,m,Mon Mar 09 2026 11:14:10 GMT-0500 (Central Daylight Time),216393.29999995232,1500,I,m,659,13,,2178.7000000476837,214214.59999990463,8063,NTS,A,20
7,21,test,1,B,triangle.png,1,z,Mon Mar 09 2026 11:14:10 GMT-0500 (Central Daylight Time),218709.09999990463,1600,I,z,697,14,,2311.7000000476837,216397.39999985695,8063,NTS,A,21
1,22,test,1,B,triangle.png,1,z,Mon Mar 09 2026 11:14:10 GMT-0500 (Central Daylight Time),221191.59999990463,1900,I,z,554,1,,2478.7999999523163,218712.79999995232,8063,NTS,A,22
4,23,test,1,B,triangle.png,1,m,Mon Mar 09 2026 11:14:10 GMT-0500 (Central Daylight Time),222891.0,1000,I,m,683,12,,1695.7000000476837,221195.29999995232,8063,NTS,A,23
4,24,test,1,B,triangle.png,1,m,Mon Mar 09 2026 11:14:10 GMT-0500 (Central Daylight Time),225040.29999995232,1500,I,m,619,4,,2146.2000000476837,222894.09999990463,8063,NTS,A,24
9,0,prac,1,C,circle.png,0,m,Mon Mar 09 2026 11:14:10 GMT-0500 (Central Daylight Time),238386.29999995232,1900,I,z,1439,8,,4127.400000095367,234258.89999985695,8063,NTS,A,1
3,1,prac,1,C,triangle.png,1,z,Mon Mar 09 2026 11:14:10 GMT-0500 (Central Daylight Time),241585.39999985695,1500,I,z,908,3,,3193.0,238392.39999985695,8063,NTS,A,2
6,2,prac,1,C,circle.png,1,m,Mon Mar 09 2026 11:14:10 GMT-0500 (Central Daylight Time),245214.89999985695,2000,I,m,712,5,,3624.899999856949,241590.0,8063,NTS,A,3
7,3,prac,1,C,triangle.png,1,z,Mon Mar 09 2026 11:14:10 GMT-0500 (Central Daylight Time),247966.70000004768,1200,I,z,760,6,,2746.5,245220.20000004768,8063,NTS,A,4
2,4,prac,1,C,triangle.png,1,m,Mon Mar 09 2026 11:14:10 GMT-0500 (Central Daylight Time),251248.89999985695,1600,I,m,883,2,,3276.7999999523163,247972.09999990463,8063,NTS,A,5
4,5,prac,1,C,circle.png,1,z,Mon Mar 09 2026 11:14:10 GMT-0500 (Central Daylight Time),254464.89999985695,1000,I,z,1416,4,,3210.699999809265,251254.20000004768,8063,NTS,A,6
7,6,prac,1,C,triangle.png,1,z,Mon Mar 09 2026 11:14:10 GMT-0500 (Central Daylight Time),257247.39999985695,1200,I,z,793,6,,2777.7999999523163,254469.59999990463,8063,NTS,A,7
8,6,prac,1,C,triangle.png,0,m,Mon Mar 09 2026 11:14:10 GMT-0500 (Central Daylight Time),260945.70000004768,1400,I,None,1516,7,,3693.100000143051,257252.59999990463,8063,NTS,A,8
6,7,prac,1,C,circle.png,1,m,Mon Mar 09 2026 11:14:10 GMT-0500 (Central Daylight Time),264578.09999990463,2000,I,m,840,5,,3627.399999856949,260950.70000004768,8063,NTS,A,9
9,8,prac,1,C,circle.png,1,m,Mon Mar 09 2026 11:14:10 GMT-0500 (Central Daylight Time),268010.2000000477,1900,I,m,748,8,,3426.5,264583.7000000477,8063,NTS,A,10
3,9,prac,1,C,triangle.png,1,z,Mon Mar 09 2026 11:14:10 GMT-0500 (Central Daylight Time),271375.89999985695,1500,I,z,1075,3,,3361.0,268014.89999985695,8063,NTS,A,11
1,10,prac,1,C,circle.png,1,z,Mon Mar 09 2026 11:14:10 GMT-0500 (Central Daylight Time),274891.89999985695,1700,I,z,1031,1,,3511.0999999046326,271380.7999999523,8063,NTS,A,12
9,1,test,1,C,circle.png,1,m,Mon Mar 09 2026 11:14:10 GMT-0500 (Central Daylight Time),280239.89999985695,1500,I,m,886,24,,2412.7999999523163,277827.09999990463,8063,NTS,A,1
4,1,test,1,C,triangle.png,0,m,Mon Mar 09 2026 11:14:10 GMT-0500 (Central Daylight Time),282406.7000000477,1500,I,z,638,12,,2162.800000190735,280243.89999985695,8063,NTS,A,2
6,2,test,1,C,triangle.png,1,m,Mon Mar 09 2026 11:14:10 GMT-0500 (Central Daylight Time),284188.59999990463,1000,I,m,764,13,,1778.2000000476837,282410.39999985695,8063,NTS,A,3
3,3,test,1,C,triangle.png,1,z,Mon Mar 09 2026 11:14:10 GMT-0500 (Central Daylight Time),286137.89999985695,1200,I,z,725,3,,1945.5,284192.39999985695,8063,NTS,A,4
2,4,test,1,C,triangle.png,1,m,Mon Mar 09 2026 11:14:10 GMT-0500 (Central Daylight Time),289053.89999985695,2000,I,m,896,2,,2912.0,286141.89999985695,8063,NTS,A,5
8,4,test,1,C,triangle.png,0,m,Mon Mar 09 2026 11:14:10 GMT-0500 (Central Daylight Time),292185.7999999523,1600,I,None,1515,23,,3128.2000000476837,289057.59999990463,8063,NTS,A,6
7,5,test,1,C,circle.png,1,m,Mon Mar 09 2026 11:14:10 GMT-0500 (Central Daylight Time),294968.7000000477,2000,I,m,751,14,,2778.5,292190.2000000477,8063,NTS,A,7
2,6,test,1,C,circle.png,1,z,Mon Mar 09 2026 11:14:10 GMT-0500 (Central Daylight Time),297451.2999999523,1700,I,z,757,10,,2478.2999999523163,294973.0,8063,NTS,A,8
7,6,test,1,C,triangle.png,0,z,Mon Mar 09 2026 11:14:10 GMT-0500 (Central Daylight Time),299883.39999985695,1700,I,m,714,22,,2427.7999999523163,297455.59999990463,8063,NTS,A,9
7,6,test,1,C,triangle.png,0,z,Mon Mar 09 2026 11:14:10 GMT-0500 (Central Daylight Time),302532.59999990463,1700,I,m,930,6,,2645.7999999523163,299886.7999999523,8063,NTS,A,10
1,7,test,1,C,triangle.png,1,z,Mon Mar 09 2026 11:14:10 GMT-0500 (Central Daylight Time),305498.2999999523,1900,I,z,1049,17,,2962.2000000476837,302536.09999990463,8063,NTS,A,11
2,8,test,1,C,circle.png,1,z,Mon Mar 09 2026 11:14:10 GMT-0500 (Central Daylight Time),308047.7999999523,1700,I,z,819,18,,2545.7999999523163,305502.0,8063,NTS,A,12
3,9,test,1,C,circle.png,1,z,Mon Mar 09 2026 11:14:10 GMT-0500 (Central Daylight Time),310713.5,1600,I,z,1034,11,,2660.9000000953674,308052.59999990463,8063,NTS,A,13
4,10,test,1,C,circle.png,1,z,Mon Mar 09 2026 11:14:10 GMT-0500 (Central Daylight Time),312896.2000000477,1400,I,z,761,4,,2179.100000143051,310717.09999990463,8063,NTS,A,14
8,11,test,1,C,triangle.png,1,m,Mon Mar 09 2026 11:14:10 GMT-0500 (Central Daylight Time),315645.2999999523,1600,I,m,1129,7,,2745.2999999523163,312900.0,8063,NTS,A,15
4,12,test,1,C,triangle.png,1,m,Mon Mar 09 2026 11:14:10 GMT-0500 (Central Daylight Time),317878.09999990463,1500,I,m,712,20,,2228.899999856949,315649.2000000477,8063,NTS,A,16
3,13,test,1,C,circle.png,1,z,Mon Mar 09 2026 11:14:10 GMT-0500 (Central Daylight Time),320194.2000000477,1600,I,z,699,19,,2311.7000000476837,317882.5,8063,NTS,A,17
8,14,test,1,C,circle.png,1,m,Mon Mar 09 2026 11:14:10 GMT-0500 (Central Daylight Time),322176.59999990463,1200,I,m,751,15,,1978.7999999523163,320197.7999999523,8063,NTS,A,18
1,15,test,1,C,triangle.png,1,z,Mon Mar 09 2026 11:14:10 GMT-0500 (Central Daylight Time),325075.5,1900,I,z,981,9,,2895.2999999523163,322180.2000000477,8063,NTS,A,19
9,16,test,1,C,triangle.png,1,z,Mon Mar 09 2026 11:14:10 GMT-0500 (Central Daylight Time),327775.0,1400,I,z,1269,16,,2695.7000000476837,325079.2999999523,8063,NTS,A,20
6,17,test,1,C,circle.png,1,m,Mon Mar 09 2026 11:14:10 GMT-0500 (Central Daylight Time),330541.2000000477,1900,I,m,839,21,,2762.5,327778.7000000477,8063,NTS,A,21
1,18,test,1,C,circle.png,1,z,Mon Mar 09 2026 11:14:10 GMT-0500 (Central Daylight Time),332440.0,1000,I,z,869,1,,1895.0,330545.0,8063,NTS,A,22
6,19,test,1,C,circle.png,1,m,Mon Mar 09 2026 11:14:10 GMT-0500 (Central Daylight Time),335106.0,1900,I,m,740,5,,2662.2000000476837,332443.7999999523,8063,NTS,A,23
9,20,test,1,C,circle.png,1,m,Mon Mar 09 2026 11:14:10 GMT-0500 (Central Daylight Time),337488.5,1500,I,m,860,8,,2378.7000000476837,335109.7999999523,8063,NTS,A,24
7,1,test,2,C,triangle.png,1,z,Mon Mar 09 2026 11:14:10 GMT-0500 (Central Daylight Time),363247.0,1700,I,z,1494,6,,3212.2000000476837,360034.7999999523,8063,NTS,A,1
3,2,test,2,C,circle.png,1,z,Mon Mar 09 2026 11:14:10 GMT-0500 (Central Daylight Time),365762.7000000477,1600,I,z,890,19,,2508.7000000476837,363254.0,8063,NTS,A,2
9,3,test,2,C,circle.png,1,m,Mon Mar 09 2026 11:14:10 GMT-0500 (Central Daylight Time),368062.09999990463,1500,I,m,770,8,,2295.5999999046326,365766.5,8063,NTS,A,3
7,4,test,2,C,circle.png,1,m,Mon Mar 09 2026 11:14:10 GMT-0500 (Central Daylight Time),370945.0,2000,I,m,852,14,,2879.100000143051,368065.89999985695,8063,NTS,A,4
6,5,test,2,C,triangle.png,1,m,Mon Mar 09 2026 11:14:10 GMT-0500 (Central Daylight Time),372994.39999985695,1000,I,m,1016,13,,2045.6999998092651,370948.7000000477,8063,NTS,A,5
4,6,test,2,C,triangle.png,1,m,Mon Mar 09 2026 11:14:10 GMT-0500 (Central Daylight Time),375393.5,1500,I,m,875,20,,2395.2999999523163,372998.2000000477,8063,NTS,A,6
7,7,test,2,C,circle.png,1,m,Mon Mar 09 2026 11:14:10 GMT-0500 (Central Daylight Time),378458.7999999523,2000,I,m,1040,22,,3061.5999999046326,375397.2000000477,8063,NTS,A,7
8,8,test,2,C,circle.png,1,m,Mon Mar 09 2026 11:14:10 GMT-0500 (Central Daylight Time),380524.89999985695,1200,I,m,848,23,,2061.5,378463.39999985695,8063,NTS,A,8
2,8,test,2,C,triangle.png,0,m,Mon Mar 09 2026 11:14:10 GMT-0500 (Central Daylight Time),384057.5,2000,I,None,1515,2,,3528.9000000953674,380528.59999990463,8063,NTS,A,9
6,9,test,2,C,triangle.png,1,m,Mon Mar 09 2026 11:14:10 GMT-0500 (Central Daylight Time),385690.2999999523,1000,I,m,600,21,,1629.2000000476837,384061.09999990463,8063,NTS,A,10
2,10,test,2,C,circle.png,1,z,Mon Mar 09 2026 11:14:10 GMT-0500 (Central Daylight Time),388172.7999999523,1700,I,z,763,10,,2478.7999999523163,385694.0,8063,NTS,A,11
8,11,test,2,C,circle.png,1,m,Mon Mar 09 2026 11:14:10 GMT-0500 (Central Daylight Time),390122.0,1200,I,m,733,15,,1945.2000000476837,388176.7999999523,8063,NTS,A,12
4,12,test,2,C,triangle.png,1,m,Mon Mar 09 2026 11:14:10 GMT-0500 (Central Daylight Time),392821.39999985695,1500,I,m,1171,12,,2695.2999999523163,390126.09999990463,8063,NTS,A,13
1,13,test,2,C,triangle.png,1,z,Mon Mar 09 2026 11:14:10 GMT-0500 (Central Daylight Time),395603.7000000477,1900,I,z,856,17,,2778.800000190735,392824.89999985695,8063,NTS,A,14
3,14,test,2,C,circle.png,1,z,Mon Mar 09 2026 11:14:10 GMT-0500 (Central Daylight Time),398002.89999985695,1600,I,z,774,11,,2395.399999856949,395607.5,8063,NTS,A,15
8,15,test,2,C,triangle.png,1,m,Mon Mar 09 2026 11:14:10 GMT-0500 (Central Daylight Time),400452.2000000477,1600,I,m,832,7,,2445.4000000953674,398006.7999999523,8063,NTS,A,16
4,16,test,2,C,circle.png,1,z,Mon Mar 09 2026 11:14:10 GMT-0500 (Central Daylight Time),402634.7000000477,1400,I,z,750,4,,2178.9000000953674,400455.7999999523,8063,NTS,A,17
9,17,test,2,C,triangle.png,1,z,Mon Mar 09 2026 11:14:10 GMT-0500 (Central Daylight Time),405234.09999990463,1400,I,z,1182,24,,2595.5,402638.59999990463,8063,NTS,A,18
9,18,test,2,C,triangle.png,1,z,Mon Mar 09 2026 11:14:10 GMT-0500 (Central Daylight Time),407351.09999990463,1400,I,z,688,16,,2113.5,405237.59999990463,8063,NTS,A,19
2,19,test,2,C,circle.png,1,z,Mon Mar 09 2026 11:14:10 GMT-0500 (Central Daylight Time),409682.59999990463,1700,I,z,615,18,,2327.5,407355.09999990463,8063,NTS,A,20
6,20,test,2,C,circle.png,1,m,Mon Mar 09 2026 11:14:10 GMT-0500 (Central Daylight Time),412381.7000000477,1900,I,m,771,5,,2695.300000190735,409686.39999985695,8063,NTS,A,21
1,21,test,2,C,triangle.png,1,z,Mon Mar 09 2026 11:14:10 GMT-0500 (Central Daylight Time),415314.2999999523,1900,I,z,1008,9,,2928.5999999046326,412385.7000000477,8063,NTS,A,22
3,22,test,2,C,triangle.png,1,z,Mon Mar 09 2026 11:14:10 GMT-0500 (Central Daylight Time),417230.0,1200,I,z,694,3,,1911.9000000953674,415318.09999990463,8063,NTS,A,23
1,23,test,2,C,circle.png,1,z,Mon Mar 09 2026 11:14:10 GMT-0500 (Central Daylight Time),418913.09999990463,1000,I,z,651,1,,1678.8999998569489,417234.2000000477,8063,NTS,A,24
9,1,test,3,C,triangle.png,1,z,Mon Mar 09 2026 11:14:10 GMT-0500 (Central Daylight Time),422228.89999985695,1400,I,z,862,16,,2279.699999809265,419949.2000000477,8063,NTS,A,1
1,2,test,3,C,triangle.png,1,z,Mon Mar 09 2026 11:14:10 GMT-0500 (Central Daylight Time),424761.39999985695,1900,I,z,609,9,,2528.899999856949,422232.5,8063,NTS,A,2
9,3,test,3,C,circle.png,1,m,Mon Mar 09 2026 11:14:10 GMT-0500 (Central Daylight Time),426910.5,1500,I,m,621,8,,2145.0,424765.5,8063,NTS,A,3
4,4,test,3,C,circle.png,1,z,Mon Mar 09 2026 11:14:10 GMT-0500 (Central Daylight Time),429043.2999999523,1400,I,z,700,20,,2129.2000000476837,426914.09999990463,8063,NTS,A,4
2,5,test,3,C,triangle.png,1,m,Mon Mar 09 2026 11:14:10 GMT-0500 (Central Daylight Time),431759.0,2000,I,m,695,18,,2711.9000000953674,429047.09999990463,8063,NTS,A,5
4,6,test,3,C,triangle.png,1,m,Mon Mar 09 2026 11:14:10 GMT-0500 (Central Daylight Time),433942.0,1500,I,m,666,12,,2179.4000000953674,431762.59999990463,8063,NTS,A,6
2,7,test,3,C,triangle.png,1,m,Mon Mar 09 2026 11:14:10 GMT-0500 (Central Daylight Time),436624.39999985695,2000,I,m,652,2,,2677.399999856949,433947.0,8063,NTS,A,7
8,8,test,3,C,triangle.png,1,m,Mon Mar 09 2026 11:14:10 GMT-0500 (Central Daylight Time),439373.2000000477,1600,I,m,1130,23,,2744.7000000476837,436628.5,8063,NTS,A,8
8,9,test,3,C,circle.png,1,m,Mon Mar 09 2026 11:14:10 GMT-0500 (Central Daylight Time),441522.89999985695,1200,I,m,933,15,,2145.5,439377.39999985695,8063,NTS,A,9
7,10,test,3,C,triangle.png,1,z,Mon Mar 09 2026 11:14:10 GMT-0500 (Central Daylight Time),444305.2000000477,1700,I,z,1051,22,,2778.800000190735,441526.39999985695,8063,NTS,A,10
8,11,test,3,C,triangle.png,1,m,Mon Mar 09 2026 11:14:10 GMT-0500 (Central Daylight Time),446737.7999999523,1600,I,m,809,7,,2429.0,444308.7999999523,8063,NTS,A,11
2,12,test,3,C,circle.png,1,z,Mon Mar 09 2026 11:14:10 GMT-0500 (Central Daylight Time),449187.2000000477,1700,I,z,725,10,,2445.5,446741.7000000477,8063,NTS,A,12
9,13,test,3,C,circle.png,1,m,Mon Mar 09 2026 11:14:10 GMT-0500 (Central Daylight Time),451935.89999985695,1500,I,m,1218,24,,2744.899999856949,449191.0,8063,NTS,A,13
6,14,test,3,C,circle.png,1,m,Mon Mar 09 2026 11:14:10 GMT-0500 (Central Daylight Time),454602.09999990463,1900,I,m,734,5,,2662.2999999523163,451939.7999999523,8063,NTS,A,14
3,15,test,3,C,triangle.png,1,z,Mon Mar 09 2026 11:14:10 GMT-0500 (Central Daylight Time),456867.7000000477,1200,I,z,1048,3,,2262.100000143051,454605.59999990463,8063,NTS,A,15
3,16,test,3,C,triangle.png,1,z,Mon Mar 09 2026 11:14:10 GMT-0500 (Central Daylight Time),458733.89999985695,1200,I,z,646,19,,1862.3999998569489,456871.5,8063,NTS,A,16
6,17,test,3,C,circle.png,1,m,Mon Mar 09 2026 11:14:10 GMT-0500 (Central Daylight Time),461299.89999985695,1900,I,m,639,21,,2561.899999856949,458738.0,8063,NTS,A,17
1,18,test,3,C,circle.png,1,z,Mon Mar 09 2026 11:14:10 GMT-0500 (Central Daylight Time),462982.7000000477,1000,I,z,662,1,,1678.7000000476837,461304.0,8063,NTS,A,18
1,19,test,3,C,circle.png,1,z,Mon Mar 09 2026 11:14:10 GMT-0500 (Central Daylight Time),464531.7999999523,1000,I,z,531,17,,1545.2000000476837,462986.59999990463,8063,NTS,A,19
6,20,test,3,C,triangle.png,1,m,Mon Mar 09 2026 11:14:10 GMT-0500 (Central Daylight Time),466231.89999985695,1000,I,m,669,13,,1694.0999999046326,464537.7999999523,8063,NTS,A,20
7,21,test,3,C,triangle.png,1,z,Mon Mar 09 2026 11:14:10 GMT-0500 (Central Daylight Time),469014.0,1700,I,z,1054,6,,2778.0,466236.0,8063,NTS,A,21
7,22,test,3,C,circle.png,1,m,Mon Mar 09 2026 11:14:10 GMT-0500 (Central Daylight Time),471830.0,2000,I,m,786,14,,2811.7999999523163,469018.2000000477,8063,NTS,A,22
3,23,test,3,C,circle.png,1,z,Mon Mar 09 2026 11:14:10 GMT-0500 (Central Daylight Time),474279.0,1600,I,z,821,11,,2444.7000000476837,471834.2999999523,8063,NTS,A,23
4,24,test,3,C,circle.png,1,z,Mon Mar 09 2026 11:14:10 GMT-0500 (Central Daylight Time),476613.09999990463,1400,I,z,906,4,,2330.5,474282.59999990463,8063,NTS,A,24
6,1,test,4,C,circle.png,1,m,Mon Mar 09 2026 11:14:10 GMT-0500 (Central Daylight Time),480227.2000000477,1900,I,m,757,5,,2679.2000000476837,477548.0,8063,NTS,A,1
4,2,test,4,C,circle.png,1,z,Mon Mar 09 2026 11:14:10 GMT-0500 (Central Daylight Time),482443.0,1400,I,z,790,20,,2212.2000000476837,480230.7999999523,8063,NTS,A,2
6,3,test,4,C,circle.png,1,m,Mon Mar 09 2026 11:14:10 GMT-0500 (Central Daylight Time),485159.0,1900,I,m,787,21,,2712.100000143051,482446.89999985695,8063,NTS,A,3
9,4,test,4,C,triangle.png,1,z,Mon Mar 09 2026 11:14:10 GMT-0500 (Central Daylight Time),487324.89999985695,1400,I,z,739,16,,2161.7999999523163,485163.09999990463,8063,NTS,A,4
4,5,test,4,C,circle.png,1,z,Mon Mar 09 2026 11:14:10 GMT-0500 (Central Daylight Time),489590.89999985695,1400,I,z,844,4,,2262.5,487328.39999985695,8063,NTS,A,5
7,5,test,4,C,triangle.png,0,z,Mon Mar 09 2026 11:14:10 GMT-0500 (Central Daylight Time),491956.7999999523,1700,I,m,638,22,,2361.9000000953674,489594.89999985695,8063,NTS,A,6
1,6,test,4,C,circle.png,1,z,Mon Mar 09 2026 11:14:10 GMT-0500 (Central Daylight Time),494256.0,1000,I,z,1277,17,,2295.2000000476837,491960.7999999523,8063,NTS,A,7
2,7,test,4,C,triangle.png,1,m,Mon Mar 09 2026 11:14:10 GMT-0500 (Central Daylight Time),497055.2000000477,2000,I,m,770,18,,2795.300000190735,494259.89999985695,8063,NTS,A,8
4,8,test,4,C,triangle.png,1,m,Mon Mar 09 2026 11:14:10 GMT-0500 (Central Daylight Time),499721.2000000477,1500,I,m,1143,12,,2662.0,497059.2000000477,8063,NTS,A,9
7,8,test,4,C,circle.png,0,m,Mon Mar 09 2026 11:14:10 GMT-0500 (Central Daylight Time),503254.59999990463,2000,I,None,1516,14,,3529.2999999523163,499725.2999999523,8063,NTS,A,10
2,9,test,4,C,circle.png,1,z,Mon Mar 09 2026 11:14:10 GMT-0500 (Central Daylight Time),505653.7999999523,1700,I,z,680,10,,2395.4000000953674,503258.39999985695,8063,NTS,A,11
9,10,test,4,C,circle.png,1,m,Mon Mar 09 2026 11:14:10 GMT-0500 (Central Daylight Time),507818.59999990463,1500,I,m,641,8,,2161.0,505657.59999990463,8063,NTS,A,12
1,11,test,4,C,triangle.png,1,z,Mon Mar 09 2026 11:14:10 GMT-0500 (Central Daylight Time),510434.2999999523,1900,I,z,692,9,,2611.7999999523163,507822.5,8063,NTS,A,13
3,12,test,4,C,circle.png,1,z,Mon Mar 09 2026 11:14:10 GMT-0500 (Central Daylight Time),512783.7000000477,1600,I,z,728,11,,2345.5,510438.2000000477,8063,NTS,A,14
3,12,test,4,C,triangle.png,0,z,Mon Mar 09 2026 11:14:10 GMT-0500 (Central Daylight Time),514884.2000000477,1200,I,m,874,3,,2096.600000143051,512787.59999990463,8063,NTS,A,15
1,13,test,4,C,circle.png,1,z,Mon Mar 09 2026 11:14:10 GMT-0500 (Central Daylight Time),516599.2999999523,1000,I,z,694,1,,1710.5999999046326,514888.7000000477,8063,NTS,A,16
9,14,test,4,C,circle.png,1,m,Mon Mar 09 2026 11:14:10 GMT-0500 (Central Daylight Time),519298.5,1500,I,m,1175,24,,2695.2000000476837,516603.2999999523,8063,NTS,A,17
8,15,test,4,C,triangle.png,1,m,Mon Mar 09 2026 11:14:10 GMT-0500 (Central Daylight Time),521830.89999985695,1600,I,m,904,7,,2528.2999999523163,519302.59999990463,8063,NTS,A,18
2,16,test,4,C,triangle.png,1,m,Mon Mar 09 2026 11:14:10 GMT-0500 (Central Daylight Time),525163.0,2000,I,m,1315,2,,3328.5,521834.5,8063,NTS,A,19
8,17,test,4,C,triangle.png,1,m,Mon Mar 09 2026 11:14:10 GMT-0500 (Central Daylight Time),527695.7999999523,1600,I,m,911,23,,2529.2999999523163,525166.5,8063,NTS,A,20
6,18,test,4,C,triangle.png,1,m,Mon Mar 09 2026 11:14:10 GMT-0500 (Central Daylight Time),529461.899999857,1000,I,m,746,13,,1762.1999998092651,527699.7000000477,8063,NTS,A,21
7,18,test,4,C,triangle.png,0,z,Mon Mar 09 2026 11:14:10 GMT-0500 (Central Daylight Time),532061.0,1700,I,m,873,6,,2595.2999999523163,529465.7000000477,8063,NTS,A,22
3,19,test,4,C,triangle.png,1,z,Mon Mar 09 2026 11:14:10 GMT-0500 (Central Daylight Time),534326.7000000477,1200,I,z,1044,19,,2261.800000190735,532064.899999857,8063,NTS,A,23
8,20,test,4,C,circle.png,1,m,Mon Mar 09 2026 11:14:10 GMT-0500 (Central Daylight Time),536509.7999999523,1200,I,m,954,15,,2179.5,534330.2999999523,8063,NTS,A,24
