block_c,block_dur,condition,countdown,datetime,endtime,list,multichar_response,project,response,response_time,session_number,start_end,starttime,subject_id,task,task_vers,trial
,,,,Thu May 07 2026 09:55:28 GMT-0500 (Central Daylight Time),,,,O,space,467,1,,,7805,WL,C,
prac,,0,,Thu May 07 2026 09:55:28 GMT-0500 (Central Daylight Time),,NA,b,O,b,2186,1,,,7805,WL,C,1.0
prac,,0,,Thu May 07 2026 09:55:28 GMT-0500 (Central Daylight Time),,NA,bo,O,o,472,1,,,7805,WL,C,1.0
prac,,0,,Thu May 07 2026 09:55:28 GMT-0500 (Central Daylight Time),,NA,boo,O,o,197,1,,,7805,WL,C,1.0
prac,,0,,Thu May 07 2026 09:55:28 GMT-0500 (Central Daylight Time),,NA,boos,O,s,181,1,,,7805,WL,C,1.0
prac,,0,,Thu May 07 2026 09:55:28 GMT-0500 (Central Daylight Time),,NA,boost,O,t,222,1,,,7805,WL,C,1.0
prac,,0,,Thu May 07 2026 09:55:28 GMT-0500 (Central Daylight Time),,NA,boostenter,O,enter,1923,1,,,7805,WL,C,1.0
1,2.749000072479248,learn,57250.99992752075,Thu May 07 2026 09:55:28 GMT-0500 (Central Daylight Time),203058.5,A,t,O,t,2724,1,2748.4000000059605,200310.09999999404,7805,WL,C,1.0
1,3.0980000495910645,learn,56901.999950408936,Thu May 07 2026 09:55:28 GMT-0500 (Central Daylight Time),203408.29999999702,A,to,O,o,333,1,3098.2000000029802,200310.09999999404,7805,WL,C,1.0
1,3.3480000495910645,learn,56651.999950408936,Thu May 07 2026 09:55:28 GMT-0500 (Central Daylight Time),203658.19999998808,A,tow,O,w,226,1,3348.0999999940395,200310.09999999404,7805,WL,C,1.0
1,3.515000104904175,learn,56484.999895095825,Thu May 07 2026 09:55:28 GMT-0500 (Central Daylight Time),203824.69999998808,A,town,O,n,142,1,3514.5999999940395,200310.09999999404,7805,WL,C,1.0
1,4.365000009536743,learn,55634.99999046326,Thu May 07 2026 09:55:28 GMT-0500 (Central Daylight Time),204674.29999999702,A,townenter,O,enter,841,1,4364.20000000298,200310.09999999404,7805,WL,C,1.0
1,5.496999979019165,learn,54503.000020980835,Thu May 07 2026 09:55:28 GMT-0500 (Central Daylight Time),205807.29999999702,A,w,O,w,1120,1,1132.6000000089407,204674.69999998808,7805,WL,C,2.0
1,5.648000001907349,learn,54351.99999809265,Thu May 07 2026 09:55:28 GMT-0500 (Central Daylight Time),205957.5,A,wh,O,h,139,1,1282.800000011921,204674.69999998808,7805,WL,C,2.0
1,5.96399998664856,learn,54036.00001335144,Thu May 07 2026 09:55:28 GMT-0500 (Central Daylight Time),206273.89999999106,A,whe,O,e,292,1,1599.2000000029802,204674.69999998808,7805,WL,C,2.0
1,6.164000034332275,learn,53835.999965667725,Thu May 07 2026 09:55:28 GMT-0500 (Central Daylight Time),206474.0,A,whea,O,a,176,1,1799.300000011921,204674.69999998808,7805,WL,C,2.0
1,6.3470001220703125,learn,53652.99987792969,Thu May 07 2026 09:55:28 GMT-0500 (Central Daylight Time),206656.69999998808,A,wheat,O,t,164,1,1982.0,204674.69999998808,7805,WL,C,2.0
1,6.698000192642212,learn,53301.99980735779,Thu May 07 2026 09:55:28 GMT-0500 (Central Daylight Time),207007.39999999106,A,wheatenter,O,enter,327,1,2332.7000000029802,204674.69999998808,7805,WL,C,2.0
1,7.397000074386597,learn,52602.9999256134,Thu May 07 2026 09:55:28 GMT-0500 (Central Daylight Time),207706.79999999702,A,c,O,c,678,1,699.0,207007.79999999702,7805,WL,C,3.0
1,7.513000011444092,learn,52486.99998855591,Thu May 07 2026 09:55:28 GMT-0500 (Central Daylight Time),207823.19999998808,A,co,O,o,103,1,815.3999999910593,207007.79999999702,7805,WL,C,3.0
1,7.71399998664856,learn,52286.00001335144,Thu May 07 2026 09:55:28 GMT-0500 (Central Daylight Time),208024.19999998808,A,cor,O,r,184,1,1016.3999999910593,207007.79999999702,7805,WL,C,3.0
1,7.864000082015991,learn,52135.99991798401,Thu May 07 2026 09:55:28 GMT-0500 (Central Daylight Time),208174.29999999702,A,corn,O,n,134,1,1166.5,207007.79999999702,7805,WL,C,3.0
1,8.246999979019165,learn,51753.000020980835,Thu May 07 2026 09:55:28 GMT-0500 (Central Daylight Time),208556.59999999404,A,cornenter,O,enter,368,1,1548.7999999970198,207007.79999999702,7805,WL,C,3.0
1,9.19700002670288,learn,50802.99997329712,Thu May 07 2026 09:55:28 GMT-0500 (Central Daylight Time),209507.19999998808,A,f,O,f,929,1,950.3999999910593,208556.79999999702,7805,WL,C,4.0
1,9.328999996185303,learn,50671.0000038147,Thu May 07 2026 09:55:28 GMT-0500 (Central Daylight Time),209639.0,A,fl,O,l,109,1,1082.2000000029802,208556.79999999702,7805,WL,C,4.0
1,9.480000019073486,learn,50519.999980926514,Thu May 07 2026 09:55:28 GMT-0500 (Central Daylight Time),209789.39999999106,A,fla,O,a,138,1,1232.5999999940395,208556.79999999702,7805,WL,C,4.0
1,9.696000099182129,learn,50303.99990081787,Thu May 07 2026 09:55:28 GMT-0500 (Central Daylight Time),210005.79999999702,A,flag,O,g,204,1,1449.0,208556.79999999702,7805,WL,C,4.0
1,9.913000106811523,learn,50086.99989318848,Thu May 07 2026 09:55:28 GMT-0500 (Central Daylight Time),210222.5,A,flagenter,O,enter,193,1,1665.7000000029802,208556.79999999702,7805,WL,C,4.0
1,12.245000123977661,learn,47754.99987602234,Thu May 07 2026 09:55:28 GMT-0500 (Central Daylight Time),212555.0,A,t,O,t,2325,1,2332.2000000029802,210222.79999999702,7805,WL,C,5.0
1,12.44700002670288,learn,47552.99997329712,Thu May 07 2026 09:55:28 GMT-0500 (Central Daylight Time),212756.59999999404,A,to,O,o,190,1,2533.7999999970198,210222.79999999702,7805,WL,C,5.0
1,12.578999996185303,learn,47421.0000038147,Thu May 07 2026 09:55:28 GMT-0500 (Central Daylight Time),212889.19999998808,A,tow,O,w,107,1,2666.3999999910593,210222.79999999702,7805,WL,C,5.0
1,12.828999996185303,learn,47171.0000038147,Thu May 07 2026 09:55:28 GMT-0500 (Central Daylight Time),213139.09999999404,A,town,O,n,228,1,2916.2999999970198,210222.79999999702,7805,WL,C,5.0
1,13.07800006866455,learn,46921.99993133545,Thu May 07 2026 09:55:28 GMT-0500 (Central Daylight Time),213388.0,A,townenter,O,enter,227,1,3165.2000000029802,210222.79999999702,7805,WL,C,5.0
1,15.378000020980835,learn,44621.999979019165,Thu May 07 2026 09:55:28 GMT-0500 (Central Daylight Time),215687.69999998808,A,c,O,c,2287,1,2299.2999999970198,213388.39999999106,7805,WL,C,6.0
1,15.544000148773193,learn,44455.99985122681,Thu May 07 2026 09:55:28 GMT-0500 (Central Daylight Time),215854.0,A,ca,O,a,144,1,2465.6000000089407,213388.39999999106,7805,WL,C,6.0
1,15.729000091552734,learn,44270.999908447266,Thu May 07 2026 09:55:28 GMT-0500 (Central Daylight Time),216038.39999999106,A,cat,O,t,163,1,2650.0,213388.39999999106,7805,WL,C,6.0
1,15.894999980926514,learn,44105.000019073486,Thu May 07 2026 09:55:28 GMT-0500 (Central Daylight Time),216204.5,A,catt,O,t,148,1,2816.1000000089407,213388.39999999106,7805,WL,C,6.0
1,16.14400005340576,learn,43855.99994659424,Thu May 07 2026 09:55:28 GMT-0500 (Central Daylight Time),216453.69999998808,A,cattl,O,l,239,1,3065.2999999970198,213388.39999999106,7805,WL,C,6.0
1,16.24500012397766,learn,43754.99987602234,Thu May 07 2026 09:55:28 GMT-0500 (Central Daylight Time),216554.69999998808,A,cattle,O,e,86,1,3166.2999999970198,213388.39999999106,7805,WL,C,6.0
1,16.67799997329712,learn,43322.00002670288,Thu May 07 2026 09:55:28 GMT-0500 (Central Daylight Time),216987.5,A,cattleenter,O,enter,410,1,3599.1000000089407,213388.39999999106,7805,WL,C,6.0
1,18.777000188827515,learn,41222.999811172485,Thu May 07 2026 09:55:28 GMT-0500 (Central Daylight Time),219087.29999999702,A,f,O,f,2079,1,2099.5,216987.79999999702,7805,WL,C,7.0
1,18.926000118255615,learn,41073.999881744385,Thu May 07 2026 09:55:28 GMT-0500 (Central Daylight Time),219236.29999999702,A,fl,O,l,132,1,2248.5,216987.79999999702,7805,WL,C,7.0
1,19.0770001411438,learn,40922.9998588562,Thu May 07 2026 09:55:28 GMT-0500 (Central Daylight Time),219386.89999999106,A,fla,O,a,140,1,2399.0999999940395,216987.79999999702,7805,WL,C,7.0
1,19.343000173568726,learn,40656.999826431274,Thu May 07 2026 09:55:28 GMT-0500 (Central Daylight Time),219653.19999998808,A,flag,O,g,249,1,2665.3999999910593,216987.79999999702,7805,WL,C,7.0
1,19.64400005340576,learn,40355.99994659424,Thu May 07 2026 09:55:28 GMT-0500 (Central Daylight Time),219954.29999999702,A,flagenter,O,enter,286,1,2966.5,216987.79999999702,7805,WL,C,7.0
1,39.72000002861023,learn,20279.99997138977,Thu May 07 2026 09:55:28 GMT-0500 (Central Daylight Time),240030.09999999404,A,b,O,b,20066,1,20075.59999999404,219954.5,7805,WL,C,8.0
1,39.91799998283386,learn,20082.000017166138,Thu May 07 2026 09:55:28 GMT-0500 (Central Daylight Time),240228.59999999404,A,bo,O,o,188,1,20274.09999999404,219954.5,7805,WL,C,8.0
1,40.10199999809265,learn,19898.00000190735,Thu May 07 2026 09:55:28 GMT-0500 (Central Daylight Time),240412.29999999702,A,boy,O,y,166,1,20457.79999999702,219954.5,7805,WL,C,8.0
1,40.35300016403198,learn,19646.999835968018,Thu May 07 2026 09:55:28 GMT-0500 (Central Daylight Time),240662.89999999106,A,boyenter,O,enter,231,1,20708.39999999106,219954.5,7805,WL,C,8.0
1,48.91700005531311,learn,11082.99994468689,Thu May 07 2026 09:55:28 GMT-0500 (Central Daylight Time),249227.5,A,s,O,s,8559,1,8564.300000011921,240663.19999998808,7805,WL,C,9.0
1,49.16700005531311,learn,10832.99994468689,Thu May 07 2026 09:55:28 GMT-0500 (Central Daylight Time),249476.79999999702,A,sp,O,p,231,1,8813.60000000894,240663.19999998808,7805,WL,C,9.0
1,49.28400015830994,learn,10715.999841690063,Thu May 07 2026 09:55:28 GMT-0500 (Central Daylight Time),249594.39999999106,A,spa,O,a,103,1,8931.20000000298,240663.19999998808,7805,WL,C,9.0
1,49.61800003051758,learn,10381.999969482422,Thu May 07 2026 09:55:28 GMT-0500 (Central Daylight Time),249928.09999999404,A,spac,O,c,320,1,9264.90000000596,240663.19999998808,7805,WL,C,9.0
1,49.867000102996826,learn,10132.999897003174,Thu May 07 2026 09:55:28 GMT-0500 (Central Daylight Time),250177.0,A,space,O,e,237,1,9513.800000011921,240663.19999998808,7805,WL,C,9.0
1,50.06599998474121,learn,9934.000015258789,Thu May 07 2026 09:55:28 GMT-0500 (Central Daylight Time),250376.69999998808,A,spaceenter,O,enter,188,1,9713.5,240663.19999998808,7805,WL,C,9.0
1,57.51300001144409,learn,2486.999988555908,Thu May 07 2026 09:55:28 GMT-0500 (Central Daylight Time),257823.5,A,b,O,b,7434,1,7446.600000008941,250376.89999999106,7805,WL,C,10.0
1,57.6800000667572,learn,2319.999933242798,Thu May 07 2026 09:55:28 GMT-0500 (Central Daylight Time),257990.09999999404,A,bo,O,o,157,1,7613.20000000298,250376.89999999106,7805,WL,C,10.0
1,57.8289999961853,learn,2171.0000038146973,Thu May 07 2026 09:55:28 GMT-0500 (Central Daylight Time),258139.69999998808,A,boy,O,y,133,1,7762.79999999702,250376.89999999106,7805,WL,C,10.0
1,58.09700012207031,learn,1902.9998779296875,Thu May 07 2026 09:55:28 GMT-0500 (Central Daylight Time),258407.59999999404,A,boyenter,O,enter,248,1,8030.70000000298,250376.89999999106,7805,WL,C,10.0
1,60.01400017738342,learn,-14.000177383422852,Thu May 07 2026 09:55:28 GMT-0500 (Central Daylight Time),260324.19999998808,A,None,O,None,1911,1,1916.199999988079,258408.0,7805,WL,C,11.0
2,0.8830001354217529,learn,59116.99986457825,Thu May 07 2026 09:55:28 GMT-0500 (Central Daylight Time),331467.299999997,A,t,O,t,863,1,882.7999999970198,330584.5,7805,WL,C,1.0
2,1.0350000858306885,learn,58964.99991416931,Thu May 07 2026 09:55:28 GMT-0500 (Central Daylight Time),331618.5,A,to,O,o,126,1,1034.0,330584.5,7805,WL,C,1.0
2,1.1670000553131104,learn,58832.99994468689,Thu May 07 2026 09:55:28 GMT-0500 (Central Daylight Time),331750.39999999106,A,toq,O,q,111,1,1165.8999999910593,330584.5,7805,WL,C,1.0
2,1.3510000705718994,learn,58648.9999294281,Thu May 07 2026 09:55:28 GMT-0500 (Central Daylight Time),331934.5,A,toqn,O,n,171,1,1350.0,330584.5,7805,WL,C,1.0
2,1.8500001430511475,learn,58149.99985694885,Thu May 07 2026 09:55:28 GMT-0500 (Central Daylight Time),332433.5,A,toq,O,backspace,483,1,1849.0,330584.5,7805,WL,C,1.0
2,2.0329999923706055,learn,57967.000007629395,Thu May 07 2026 09:55:28 GMT-0500 (Central Daylight Time),332617.0,A,to,O,backspace,161,1,2032.5,330584.5,7805,WL,C,1.0
2,2.450000047683716,learn,57549.999952316284,Thu May 07 2026 09:55:28 GMT-0500 (Central Daylight Time),333033.39999999106,A,tow,O,w,395,1,2448.8999999910593,330584.5,7805,WL,C,1.0
2,3.1660001277923584,learn,56833.99987220764,Thu May 07 2026 09:55:28 GMT-0500 (Central Daylight Time),333749.799999997,A,town,O,n,693,1,3165.2999999970198,330584.5,7805,WL,C,1.0
2,3.433000087738037,learn,56566.99991226196,Thu May 07 2026 09:55:28 GMT-0500 (Central Daylight Time),334016.299999997,A,townenter,O,enter,250,1,3431.7999999970198,330584.5,7805,WL,C,1.0
2,4.299000024795532,learn,55700.99997520447,Thu May 07 2026 09:55:28 GMT-0500 (Central Daylight Time),334882.6999999881,A,w,O,w,852,1,866.0999999940395,334016.59999999404,7805,WL,C,2.0
2,4.432000160217285,learn,55567.999839782715,Thu May 07 2026 09:55:28 GMT-0500 (Central Daylight Time),335015.6999999881,A,wh,O,h,121,1,999.0999999940395,334016.59999999404,7805,WL,C,2.0
2,4.582000017166138,learn,55417.99998283386,Thu May 07 2026 09:55:28 GMT-0500 (Central Daylight Time),335165.799999997,A,whe,O,e,131,1,1149.2000000029802,334016.59999999404,7805,WL,C,2.0
2,4.749000072479248,learn,55250.99992752075,Thu May 07 2026 09:55:28 GMT-0500 (Central Daylight Time),335332.39999999106,A,whea,O,a,156,1,1315.7999999970198,334016.59999999404,7805,WL,C,2.0
2,4.947000026702881,learn,55052.99997329712,Thu May 07 2026 09:55:28 GMT-0500 (Central Daylight Time),335531.1999999881,A,wheat,O,t,180,1,1514.5999999940395,334016.59999999404,7805,WL,C,2.0
2,5.1650002002716064,learn,54834.99979972839,Thu May 07 2026 09:55:28 GMT-0500 (Central Daylight Time),335748.39999999106,A,wheatenter,O,enter,209,1,1731.7999999970198,334016.59999999404,7805,WL,C,2.0
2,6.266000032424927,learn,53733.99996757507,Thu May 07 2026 09:55:28 GMT-0500 (Central Daylight Time),336850.1999999881,A,s,O,s,1082,1,1101.5,335748.6999999881,7805,WL,C,3.0
2,6.398000001907349,learn,53601.99999809265,Thu May 07 2026 09:55:28 GMT-0500 (Central Daylight Time),336981.5,A,su,O,u,119,1,1232.800000011921,335748.6999999881,7805,WL,C,3.0
2,6.7820000648498535,learn,53217.99993515015,Thu May 07 2026 09:55:28 GMT-0500 (Central Daylight Time),337365.799999997,A,sug,O,g,374,1,1617.1000000089407,335748.6999999881,7805,WL,C,3.0
2,6.998000144958496,learn,53001.999855041504,Thu May 07 2026 09:55:28 GMT-0500 (Central Daylight Time),337581.59999999404,A,suga,O,a,198,1,1832.9000000059605,335748.6999999881,7805,WL,C,3.0
2,7.0970001220703125,learn,52902.99987792969,Thu May 07 2026 09:55:28 GMT-0500 (Central Daylight Time),337681.1999999881,A,sugar,O,r,84,1,1932.5,335748.6999999881,7805,WL,C,3.0
2,7.38100004196167,learn,52618.99995803833,Thu May 07 2026 09:55:28 GMT-0500 (Central Daylight Time),337965.299999997,A,sugarenter,O,enter,269,1,2216.6000000089407,335748.6999999881,7805,WL,C,3.0
2,7.832000017166138,learn,52167.99998283386,Thu May 07 2026 09:55:28 GMT-0500 (Central Daylight Time),338416.09999999404,A,b,O,b,430,1,450.5,337965.59999999404,7805,WL,C,4.0
2,7.965000152587891,learn,52034.99984741211,Thu May 07 2026 09:55:28 GMT-0500 (Central Daylight Time),338548.89999999106,A,bo,O,o,122,1,583.2999999970198,337965.59999999404,7805,WL,C,4.0
2,8.098999977111816,learn,51901.00002288818,Thu May 07 2026 09:55:28 GMT-0500 (Central Daylight Time),338682.39999999106,A,boy,O,y,110,1,716.7999999970198,337965.59999999404,7805,WL,C,4.0
2,8.598999977111816,learn,51401.00002288818,Thu May 07 2026 09:55:28 GMT-0500 (Central Daylight Time),339182.39999999106,A,boyenter,O,enter,479,1,1216.7999999970198,337965.59999999404,7805,WL,C,4.0
2,9.098999977111816,learn,50901.00002288818,Thu May 07 2026 09:55:28 GMT-0500 (Central Daylight Time),339682.59999999404,A,c,O,c,480,1,499.90000000596046,339182.6999999881,7805,WL,C,5.0
2,9.248000144958496,learn,50751.999855041504,Thu May 07 2026 09:55:28 GMT-0500 (Central Daylight Time),339831.799999997,A,ca,O,a,137,1,649.1000000089407,339182.6999999881,7805,WL,C,5.0
2,9.397000074386597,learn,50602.9999256134,Thu May 07 2026 09:55:28 GMT-0500 (Central Daylight Time),339980.39999999106,A,cat,O,t,140,1,797.7000000029802,339182.6999999881,7805,WL,C,5.0
2,9.54800009727478,learn,50451.99990272522,Thu May 07 2026 09:55:28 GMT-0500 (Central Daylight Time),340131.799999997,A,catt,O,t,134,1,949.1000000089407,339182.6999999881,7805,WL,C,5.0
2,9.765000104904175,learn,50234.999895095825,Thu May 07 2026 09:55:28 GMT-0500 (Central Daylight Time),340348.59999999404,A,cattl,O,l,209,1,1165.9000000059605,339182.6999999881,7805,WL,C,5.0
2,9.830000162124634,learn,50169.999837875366,Thu May 07 2026 09:55:28 GMT-0500 (Central Daylight Time),340413.799999997,A,cattle,O,e,53,1,1231.1000000089407,339182.6999999881,7805,WL,C,5.0
2,10.114000082015991,learn,49885.99991798401,Thu May 07 2026 09:55:28 GMT-0500 (Central Daylight Time),340698.09999999404,A,cattleenter,O,enter,269,1,1515.4000000059605,339182.6999999881,7805,WL,C,5.0
2,10.531000137329102,learn,49468.9998626709,Thu May 07 2026 09:55:28 GMT-0500 (Central Daylight Time),341114.6999999881,A,w,O,w,401,1,416.29999999701977,340698.39999999106,7805,WL,C,6.0
2,10.71399998664856,learn,49286.00001335144,Thu May 07 2026 09:55:28 GMT-0500 (Central Daylight Time),341297.39999999106,A,wh,O,h,169,1,599.0,340698.39999999106,7805,WL,C,6.0
2,10.77999997138977,learn,49220.00002861023,Thu May 07 2026 09:55:28 GMT-0500 (Central Daylight Time),341363.89999999106,A,whe,O,e,48,1,665.5,340698.39999999106,7805,WL,C,6.0
2,10.914000034332275,learn,49085.999965667725,Thu May 07 2026 09:55:28 GMT-0500 (Central Daylight Time),341497.59999999404,A,whea,O,a,119,1,799.2000000029802,340698.39999999106,7805,WL,C,6.0
2,11.047000169754028,learn,48952.99983024597,Thu May 07 2026 09:55:28 GMT-0500 (Central Daylight Time),341631.0,A,wheat,O,t,123,1,932.6000000089407,340698.39999999106,7805,WL,C,6.0
2,11.264000177383423,learn,48735.99982261658,Thu May 07 2026 09:55:28 GMT-0500 (Central Daylight Time),341847.6999999881,A,wheatenter,O,enter,204,1,1149.2999999970198,340698.39999999106,7805,WL,C,6.0
2,11.680999994277954,learn,48319.000005722046,Thu May 07 2026 09:55:28 GMT-0500 (Central Daylight Time),342265.299999997,A,c,O,c,397,1,417.20000000298023,341848.09999999404,7805,WL,C,7.0
2,11.77999997138977,learn,48220.00002861023,Thu May 07 2026 09:55:28 GMT-0500 (Central Daylight Time),342364.0,A,co,O,o,92,1,515.9000000059605,341848.09999999404,7805,WL,C,7.0
2,11.963000059127808,learn,48036.99994087219,Thu May 07 2026 09:55:28 GMT-0500 (Central Daylight Time),342546.89999999106,A,cor,O,r,176,1,698.7999999970198,341848.09999999404,7805,WL,C,7.0
2,12.098000049591064,learn,47901.999950408936,Thu May 07 2026 09:55:28 GMT-0500 (Central Daylight Time),342681.59999999404,A,corn,O,n,115,1,833.5,341848.09999999404,7805,WL,C,7.0
2,12.496999979019165,learn,47503.000020980835,Thu May 07 2026 09:55:28 GMT-0500 (Central Daylight Time),343081.0,A,cornenter,O,enter,385,1,1232.9000000059605,341848.09999999404,7805,WL,C,7.0
2,13.11300015449524,learn,46886.99984550476,Thu May 07 2026 09:55:28 GMT-0500 (Central Daylight Time),343697.0,A,f,O,f,603,1,615.8000000119209,343081.1999999881,7805,WL,C,8.0
2,13.264000177383423,learn,46735.99982261658,Thu May 07 2026 09:55:28 GMT-0500 (Central Daylight Time),343847.59999999404,A,fl,O,l,128,1,766.4000000059605,343081.1999999881,7805,WL,C,8.0
2,13.38100004196167,learn,46618.99995803833,Thu May 07 2026 09:55:28 GMT-0500 (Central Daylight Time),343964.5,A,fla,O,a,111,1,883.3000000119209,343081.1999999881,7805,WL,C,8.0
2,13.564000129699707,learn,46435.99987030029,Thu May 07 2026 09:55:28 GMT-0500 (Central Daylight Time),344147.59999999404,A,flag,O,g,168,1,1066.4000000059605,343081.1999999881,7805,WL,C,8.0
2,13.861999988555908,learn,46138.00001144409,Thu May 07 2026 09:55:28 GMT-0500 (Central Daylight Time),344445.6999999881,A,flagenter,O,enter,287,1,1364.5,343081.1999999881,7805,WL,C,8.0
2,14.84600019454956,learn,45153.99980545044,Thu May 07 2026 09:55:28 GMT-0500 (Central Daylight Time),345429.6999999881,A,q,O,q,974,1,983.7999999970198,344445.89999999106,7805,WL,C,9.0
2,14.963000059127808,learn,45036.99994087219,Thu May 07 2026 09:55:28 GMT-0500 (Central Daylight Time),345546.6999999881,A,qu,O,u,110,1,1100.7999999970198,344445.89999999106,7805,WL,C,9.0
2,15.147000074386597,learn,44852.9999256134,Thu May 07 2026 09:55:28 GMT-0500 (Central Daylight Time),345731.09999999404,A,que,O,e,167,1,1285.2000000029802,344445.89999999106,7805,WL,C,9.0
2,15.347000122070312,learn,44652.99987792969,Thu May 07 2026 09:55:28 GMT-0500 (Central Daylight Time),345930.59999999404,A,quee,O,e,184,1,1484.7000000029802,344445.89999999106,7805,WL,C,9.0
2,15.446000099182129,learn,44553.99990081787,Thu May 07 2026 09:55:28 GMT-0500 (Central Daylight Time),346030.1999999881,A,queen,O,n,89,1,1584.2999999970198,344445.89999999106,7805,WL,C,9.0
2,15.77999997138977,learn,44220.00002861023,Thu May 07 2026 09:55:28 GMT-0500 (Central Daylight Time),346363.5,A,queenenter,O,enter,312,1,1917.6000000089407,344445.89999999106,7805,WL,C,9.0
2,17.463000059127808,learn,42536.99994087219,Thu May 07 2026 09:55:28 GMT-0500 (Central Daylight Time),348046.39999999106,A,t,O,t,1663,1,1682.5999999940395,346363.799999997,7805,WL,C,10.0
2,17.544000148773193,learn,42455.99985122681,Thu May 07 2026 09:55:28 GMT-0500 (Central Daylight Time),348128.1999999881,A,to,O,o,70,1,1764.3999999910593,346363.799999997,7805,WL,C,10.0
2,17.67799997329712,learn,42322.00002670288,Thu May 07 2026 09:55:28 GMT-0500 (Central Daylight Time),348261.799999997,A,tow,O,w,124,1,1898.0,346363.799999997,7805,WL,C,10.0
2,17.8270001411438,learn,42172.9998588562,Thu May 07 2026 09:55:28 GMT-0500 (Central Daylight Time),348410.39999999106,A,town,O,n,144,1,2046.5999999940395,346363.799999997,7805,WL,C,10.0
2,18.111000061035156,learn,41888.999938964844,Thu May 07 2026 09:55:28 GMT-0500 (Central Daylight Time),348694.299999997,A,townenter,O,enter,266,1,2330.5,346363.799999997,7805,WL,C,10.0
2,29.841000080108643,learn,30158.999919891357,Thu May 07 2026 09:55:28 GMT-0500 (Central Daylight Time),360425.39999999106,A,f,O,f,11718,1,11730.79999999702,348694.59999999404,7805,WL,C,11.0
2,29.973999977111816,learn,30026.000022888184,Thu May 07 2026 09:55:28 GMT-0500 (Central Daylight Time),360558.299999997,A,fl,O,l,113,1,11863.70000000298,348694.59999999404,7805,WL,C,11.0
2,30.124000072479248,learn,29875.999927520752,Thu May 07 2026 09:55:28 GMT-0500 (Central Daylight Time),360708.59999999404,A,fla,O,a,143,1,12014.0,348694.59999999404,7805,WL,C,11.0
2,30.257000207901,learn,29742.999792099,Thu May 07 2026 09:55:28 GMT-0500 (Central Daylight Time),360841.39999999106,A,flag,O,g,119,1,12146.79999999702,348694.59999999404,7805,WL,C,11.0
2,30.42300009727478,learn,29576.99990272522,Thu May 07 2026 09:55:28 GMT-0500 (Central Daylight Time),361007.6999999881,A,flagenter,O,enter,147,1,12313.09999999404,348694.59999999404,7805,WL,C,11.0
2,34.38900017738342,learn,25610.999822616577,Thu May 07 2026 09:55:28 GMT-0500 (Central Daylight Time),364973.799999997,A,s,O,s,3955,1,3965.7999999970198,361008.0,7805,WL,C,12.0
2,34.5220000743866,learn,25477.999925613403,Thu May 07 2026 09:55:28 GMT-0500 (Central Daylight Time),365106.6999999881,A,sh,O,h,112,1,4098.699999988079,361008.0,7805,WL,C,12.0
2,34.623000144958496,learn,25376.999855041504,Thu May 07 2026 09:55:28 GMT-0500 (Central Daylight Time),365206.799999997,A,sho,O,o,87,1,4198.79999999702,361008.0,7805,WL,C,12.0
2,34.75500011444092,learn,25244.999885559082,Thu May 07 2026 09:55:28 GMT-0500 (Central Daylight Time),365339.799999997,A,shor,O,r,115,1,4331.79999999702,361008.0,7805,WL,C,12.0
2,34.956000089645386,learn,25043.999910354614,Thu May 07 2026 09:55:28 GMT-0500 (Central Daylight Time),365540.39999999106,A,shore,O,e,177,1,4532.399999991059,361008.0,7805,WL,C,12.0
2,35.257000207901,learn,24742.999792099,Thu May 07 2026 09:55:28 GMT-0500 (Central Daylight Time),365841.09999999404,A,shoreenter,O,enter,288,1,4833.0999999940395,361008.0,7805,WL,C,12.0
2,40.63700008392334,learn,19362.99991607666,Thu May 07 2026 09:55:28 GMT-0500 (Central Daylight Time),371221.59999999404,A,f,O,f,5371,1,5380.29999999702,365841.299999997,7805,WL,C,13.0
2,40.789000034332275,learn,19210.999965667725,Thu May 07 2026 09:55:28 GMT-0500 (Central Daylight Time),371373.1999999881,A,fl,O,l,146,1,5531.899999991059,365841.299999997,7805,WL,C,13.0
2,40.88700008392334,learn,19112.99991607666,Thu May 07 2026 09:55:28 GMT-0500 (Central Daylight Time),371471.09999999404,A,fla,O,a,85,1,5629.79999999702,365841.299999997,7805,WL,C,13.0
2,41.05400013923645,learn,18945.99986076355,Thu May 07 2026 09:55:28 GMT-0500 (Central Daylight Time),371637.89999999106,A,flag,O,g,146,1,5796.5999999940395,365841.299999997,7805,WL,C,13.0
2,41.2039999961853,learn,18796.000003814697,Thu May 07 2026 09:55:28 GMT-0500 (Central Daylight Time),371788.39999999106,A,flagenter,O,enter,134,1,5947.0999999940395,365841.299999997,7805,WL,C,13.0
2,47.26900005340576,learn,12730.999946594238,Thu May 07 2026 09:55:28 GMT-0500 (Central Daylight Time),377853.0,A,c,O,c,6056,1,6064.300000011921,371788.6999999881,7805,WL,C,14.0
2,47.43600010871887,learn,12563.999891281128,Thu May 07 2026 09:55:28 GMT-0500 (Central Daylight Time),378020.39999999106,A,ca,O,a,149,1,6231.70000000298,371788.6999999881,7805,WL,C,14.0
2,47.65300011634827,learn,12346.999883651733,Thu May 07 2026 09:55:28 GMT-0500 (Central Daylight Time),378237.799999997,A,cat,O,t,196,1,6449.100000008941,371788.6999999881,7805,WL,C,14.0
2,47.83500003814697,learn,12164.999961853027,Thu May 07 2026 09:55:28 GMT-0500 (Central Daylight Time),378419.299999997,A,catt,O,t,162,1,6630.600000008941,371788.6999999881,7805,WL,C,14.0
2,48.104000091552734,learn,11895.999908447266,Thu May 07 2026 09:55:28 GMT-0500 (Central Daylight Time),378688.39999999106,A,cattl,O,l,247,1,6899.70000000298,371788.6999999881,7805,WL,C,14.0
2,48.18500018119812,learn,11814.99981880188,Thu May 07 2026 09:55:28 GMT-0500 (Central Daylight Time),378769.5,A,cattle,O,e,59,1,6980.800000011921,371788.6999999881,7805,WL,C,14.0
2,48.46900010108948,learn,11530.999898910522,Thu May 07 2026 09:55:28 GMT-0500 (Central Daylight Time),379053.1999999881,A,cattleenter,O,enter,264,1,7264.5,371788.6999999881,7805,WL,C,14.0
2,54.31599998474121,learn,5684.000015258789,Thu May 07 2026 09:55:28 GMT-0500 (Central Daylight Time),384900.5,A,v,O,v,5830,1,5847.0,379053.5,7805,WL,C,15.0
2,54.498000144958496,learn,5501.999855041504,Thu May 07 2026 09:55:28 GMT-0500 (Central Daylight Time),385082.799999997,A,va,O,a,173,1,6029.29999999702,379053.5,7805,WL,C,15.0
2,54.93300008773804,learn,5066.999912261963,Thu May 07 2026 09:55:28 GMT-0500 (Central Daylight Time),385517.0,A,v,O,backspace,418,1,6463.5,379053.5,7805,WL,C,15.0
2,55.80000019073486,learn,4199.999809265137,Thu May 07 2026 09:55:28 GMT-0500 (Central Daylight Time),386383.799999997,A,,O,backspace,854,1,7330.29999999702,379053.5,7805,WL,C,15.0
2,56.14900016784668,learn,3850.9998321533203,Thu May 07 2026 09:55:28 GMT-0500 (Central Daylight Time),386733.1999999881,A,c,O,c,330,1,7679.699999988079,379053.5,7805,WL,C,15.0
2,56.28200006484985,learn,3717.9999351501465,Thu May 07 2026 09:55:28 GMT-0500 (Central Daylight Time),386866.1999999881,A,ca,O,a,118,1,7812.699999988079,379053.5,7805,WL,C,15.0
2,56.58300018310547,learn,3416.9998168945312,Thu May 07 2026 09:55:28 GMT-0500 (Central Daylight Time),387167.799999997,A,cam,O,m,282,1,8114.29999999702,379053.5,7805,WL,C,15.0
2,56.79900002479553,learn,3200.999975204468,Thu May 07 2026 09:55:28 GMT-0500 (Central Daylight Time),387383.59999999404,A,camp,O,p,196,1,8330.09999999404,379053.5,7805,WL,C,15.0
2,57.13100004196167,learn,2868.99995803833,Thu May 07 2026 09:55:28 GMT-0500 (Central Daylight Time),387715.09999999404,A,campenter,O,enter,323,1,8661.59999999404,379053.5,7805,WL,C,15.0
3,0.6830000877380371,learn,59316.99991226196,Thu May 07 2026 09:55:28 GMT-0500 (Central Daylight Time),455328.5,A,t,O,t,665,1,683.2000000029802,454645.299999997,7805,WL,C,1.0
3,0.8320000171661377,learn,59167.99998283386,Thu May 07 2026 09:55:28 GMT-0500 (Central Daylight Time),455477.89999999106,A,to,O,o,136,1,832.5999999940395,454645.299999997,7805,WL,C,1.0
3,0.931999921798706,learn,59068.000078201294,Thu May 07 2026 09:55:28 GMT-0500 (Central Daylight Time),455577.89999999106,A,tow,O,w,82,1,932.5999999940395,454645.299999997,7805,WL,C,1.0
3,1.2000000476837158,learn,58799.999952316284,Thu May 07 2026 09:55:28 GMT-0500 (Central Daylight Time),455845.09999999404,A,towe,O,e,257,1,1199.7999999970198,454645.299999997,7805,WL,C,1.0
3,1.2829999923706055,learn,58717.000007629395,Thu May 07 2026 09:55:28 GMT-0500 (Central Daylight Time),455928.39999999106,A,tower,O,r,63,1,1283.0999999940395,454645.299999997,7805,WL,C,1.0
3,1.5329999923706055,learn,58467.000007629395,Thu May 07 2026 09:55:28 GMT-0500 (Central Daylight Time),456178.09999999404,A,towerenter,O,enter,227,1,1532.7999999970198,454645.299999997,7805,WL,C,1.0
3,2.431999921798706,learn,57568.000078201294,Thu May 07 2026 09:55:28 GMT-0500 (Central Daylight Time),457077.799999997,A,w,O,w,895,1,899.5,456178.299999997,7805,WL,C,2.0
3,2.5980000495910645,learn,57401.999950408936,Thu May 07 2026 09:55:28 GMT-0500 (Central Daylight Time),457243.6999999881,A,wh,O,h,159,1,1065.3999999910593,456178.299999997,7805,WL,C,2.0
3,2.681999921798706,learn,57318.000078201294,Thu May 07 2026 09:55:28 GMT-0500 (Central Daylight Time),457327.39999999106,A,whe,O,e,73,1,1149.0999999940395,456178.299999997,7805,WL,C,2.0
3,2.8480000495910645,learn,57151.999950408936,Thu May 07 2026 09:55:28 GMT-0500 (Central Daylight Time),457493.39999999106,A,whea,O,a,146,1,1315.0999999940395,456178.299999997,7805,WL,C,2.0
3,3.0490000247955322,learn,56950.99997520447,Thu May 07 2026 09:55:28 GMT-0500 (Central Daylight Time),457694.799999997,A,wheat,O,t,183,1,1516.5,456178.299999997,7805,WL,C,2.0
3,3.315999984741211,learn,56684.00001525879,Thu May 07 2026 09:55:28 GMT-0500 (Central Daylight Time),457961.59999999404,A,wheatenter,O,enter,253,1,1783.2999999970198,456178.299999997,7805,WL,C,2.0
3,3.8980000019073486,learn,56101.99999809265,Thu May 07 2026 09:55:28 GMT-0500 (Central Daylight Time),458543.89999999106,A,c,O,c,562,1,582.0999999940395,457961.799999997,7805,WL,C,3.0
3,4.0309998989105225,learn,55969.00010108948,Thu May 07 2026 09:55:28 GMT-0500 (Central Daylight Time),458676.39999999106,A,co,O,o,114,1,714.5999999940395,457961.799999997,7805,WL,C,3.0
3,4.21399998664856,learn,55786.00001335144,Thu May 07 2026 09:55:28 GMT-0500 (Central Daylight Time),458859.89999999106,A,cor,O,r,167,1,898.0999999940395,457961.799999997,7805,WL,C,3.0
3,4.329999923706055,learn,55670.000076293945,Thu May 07 2026 09:55:28 GMT-0500 (Central Daylight Time),458975.59999999404,A,corn,O,n,103,1,1013.7999999970198,457961.799999997,7805,WL,C,3.0
3,4.581000089645386,learn,55418.999910354614,Thu May 07 2026 09:55:28 GMT-0500 (Central Daylight Time),459226.89999999106,A,cornenter,O,enter,236,1,1265.0999999940395,457961.799999997,7805,WL,C,3.0
3,4.9649999141693115,learn,55035.00008583069,Thu May 07 2026 09:55:28 GMT-0500 (Central Daylight Time),459610.39999999106,A,s,O,s,370,1,383.29999999701977,459227.09999999404,7805,WL,C,4.0
3,5.081000089645386,learn,54918.999910354614,Thu May 07 2026 09:55:28 GMT-0500 (Central Daylight Time),459726.799999997,A,su,O,u,92,1,499.70000000298023,459227.09999999404,7805,WL,C,4.0
3,5.2149999141693115,learn,54785.00008583069,Thu May 07 2026 09:55:28 GMT-0500 (Central Daylight Time),459860.1999999881,A,sug,O,g,117,1,633.0999999940395,459227.09999999404,7805,WL,C,4.0
3,5.38100004196167,learn,54618.99995803833,Thu May 07 2026 09:55:28 GMT-0500 (Central Daylight Time),460026.39999999106,A,suga,O,a,145,1,799.2999999970198,459227.09999999404,7805,WL,C,4.0
3,5.514999866485596,learn,54485.000133514404,Thu May 07 2026 09:55:28 GMT-0500 (Central Daylight Time),460160.89999999106,A,sugar,O,r,113,1,933.7999999970198,459227.09999999404,7805,WL,C,4.0
3,5.79800009727478,learn,54201.99990272522,Thu May 07 2026 09:55:28 GMT-0500 (Central Daylight Time),460443.09999999404,A,sugarenter,O,enter,262,1,1216.0,459227.09999999404,7805,WL,C,4.0
3,6.197999954223633,learn,53802.00004577637,Thu May 07 2026 09:55:28 GMT-0500 (Central Daylight Time),460843.09999999404,A,b,O,b,386,1,399.79999999701977,460443.299999997,7805,WL,C,5.0
3,6.313999891281128,learn,53686.00010871887,Thu May 07 2026 09:55:28 GMT-0500 (Central Daylight Time),460960.0,A,bo,O,o,110,1,516.7000000029802,460443.299999997,7805,WL,C,5.0
3,6.46399998664856,learn,53536.00001335144,Thu May 07 2026 09:55:28 GMT-0500 (Central Daylight Time),461109.59999999404,A,boy,O,y,130,1,666.2999999970198,460443.299999997,7805,WL,C,5.0
3,6.79800009727478,learn,53201.99990272522,Thu May 07 2026 09:55:28 GMT-0500 (Central Daylight Time),461443.89999999106,A,boyenter,O,enter,314,1,1000.5999999940395,460443.299999997,7805,WL,C,5.0
3,7.230999946594238,learn,52769.00005340576,Thu May 07 2026 09:55:28 GMT-0500 (Central Daylight Time),461876.09999999404,A,d,O,d,413,1,432.0,461444.09999999404,7805,WL,C,6.0
3,7.365000009536743,learn,52634.99999046326,Thu May 07 2026 09:55:28 GMT-0500 (Central Daylight Time),462010.39999999106,A,do,O,o,111,1,566.2999999970198,461444.09999999404,7805,WL,C,6.0
3,7.480999946594238,learn,52519.00005340576,Thu May 07 2026 09:55:28 GMT-0500 (Central Daylight Time),462126.1999999881,A,doc,O,c,104,1,682.0999999940395,461444.09999999404,7805,WL,C,6.0
3,7.697000026702881,learn,52302.99997329712,Thu May 07 2026 09:55:28 GMT-0500 (Central Daylight Time),462342.89999999106,A,doct,O,t,197,1,898.7999999970198,461444.09999999404,7805,WL,C,6.0
3,7.79800009727478,learn,52201.99990272522,Thu May 07 2026 09:55:28 GMT-0500 (Central Daylight Time),462443.09999999404,A,docto,O,o,84,1,999.0,461444.09999999404,7805,WL,C,6.0
3,7.914000034332275,learn,52085.999965667725,Thu May 07 2026 09:55:28 GMT-0500 (Central Daylight Time),462559.89999999106,A,doctor,O,r,102,1,1115.7999999970198,461444.09999999404,7805,WL,C,6.0
3,8.095999956130981,learn,51904.00004386902,Thu May 07 2026 09:55:28 GMT-0500 (Central Daylight Time),462741.5,A,doctorenter,O,enter,169,1,1297.4000000059605,461444.09999999404,7805,WL,C,6.0
3,8.532999992370605,learn,51467.000007629395,Thu May 07 2026 09:55:28 GMT-0500 (Central Daylight Time),463178.09999999404,A,s,O,s,433,1,436.29999999701977,462741.799999997,7805,WL,C,7.0
3,8.680000066757202,learn,51319.9999332428,Thu May 07 2026 09:55:28 GMT-0500 (Central Daylight Time),463325.799999997,A,sh,O,h,129,1,584.0,462741.799999997,7805,WL,C,7.0
3,8.86299991607666,learn,51137.00008392334,Thu May 07 2026 09:55:28 GMT-0500 (Central Daylight Time),463508.39999999106,A,sho,O,o,171,1,766.5999999940395,462741.799999997,7805,WL,C,7.0
3,9.096999883651733,learn,50903.00011634827,Thu May 07 2026 09:55:28 GMT-0500 (Central Daylight Time),463742.09999999404,A,shor,O,r,216,1,1000.2999999970198,462741.799999997,7805,WL,C,7.0
3,9.27999997138977,learn,50720.00002861023,Thu May 07 2026 09:55:28 GMT-0500 (Central Daylight Time),463925.1999999881,A,shore,O,e,166,1,1183.3999999910593,462741.799999997,7805,WL,C,7.0
3,9.644999980926514,learn,50355.000019073486,Thu May 07 2026 09:55:28 GMT-0500 (Central Daylight Time),464290.799999997,A,shoreenter,O,enter,352,1,1549.0,462741.799999997,7805,WL,C,7.0
3,10.26200008392334,learn,49737.99991607666,Thu May 07 2026 09:55:28 GMT-0500 (Central Daylight Time),464907.89999999106,A,n,O,n,602,1,616.8999999910593,464291.0,7805,WL,C,8.0
3,10.36299991607666,learn,49637.00008392334,Thu May 07 2026 09:55:28 GMT-0500 (Central Daylight Time),465008.59999999404,A,na,O,a,90,1,717.5999999940395,464291.0,7805,WL,C,8.0
3,10.52999997138977,learn,49470.00002861023,Thu May 07 2026 09:55:28 GMT-0500 (Central Daylight Time),465175.89999999106,A,nai,O,i,147,1,884.8999999910593,464291.0,7805,WL,C,8.0
3,10.71399998664856,learn,49286.00001335144,Thu May 07 2026 09:55:28 GMT-0500 (Central Daylight Time),465359.6999999881,A,nail,O,l,172,1,1068.699999988079,464291.0,7805,WL,C,8.0
3,11.062000036239624,learn,48937.999963760376,Thu May 07 2026 09:55:28 GMT-0500 (Central Daylight Time),465707.6999999881,A,nailenter,O,enter,334,1,1416.699999988079,464291.0,7805,WL,C,8.0
3,12.461999893188477,learn,47538.00010681152,Thu May 07 2026 09:55:28 GMT-0500 (Central Daylight Time),467107.6999999881,A,f,O,f,1382,1,1399.5999999940395,465708.09999999404,7805,WL,C,9.0
3,12.578999996185303,learn,47421.0000038147,Thu May 07 2026 09:55:28 GMT-0500 (Central Daylight Time),467224.39999999106,A,fl,O,l,101,1,1516.2999999970198,465708.09999999404,7805,WL,C,9.0
3,12.710999965667725,learn,47289.000034332275,Thu May 07 2026 09:55:28 GMT-0500 (Central Daylight Time),467356.89999999106,A,fla,O,a,121,1,1648.7999999970198,465708.09999999404,7805,WL,C,9.0
3,12.861999988555908,learn,47138.00001144409,Thu May 07 2026 09:55:28 GMT-0500 (Central Daylight Time),467507.299999997,A,flag,O,g,136,1,1799.2000000029802,465708.09999999404,7805,WL,C,9.0
3,13.144999980926514,learn,46855.000019073486,Thu May 07 2026 09:55:28 GMT-0500 (Central Daylight Time),467790.89999999106,A,flagenter,O,enter,265,1,2082.7999999970198,465708.09999999404,7805,WL,C,9.0
3,22.22499990463257,learn,37775.00009536743,Thu May 07 2026 09:55:28 GMT-0500 (Central Daylight Time),476870.6999999881,A,s,O,s,9069,1,9079.59999999404,467791.09999999404,7805,WL,C,10.0
3,22.30999994277954,learn,37690.00005722046,Thu May 07 2026 09:55:28 GMT-0500 (Central Daylight Time),476955.299999997,A,sh,O,h,78,1,9164.20000000298,467791.09999999404,7805,WL,C,10.0
3,22.425999879837036,learn,37574.000120162964,Thu May 07 2026 09:55:28 GMT-0500 (Central Daylight Time),477071.89999999106,A,sho,O,o,110,1,9280.79999999702,467791.09999999404,7805,WL,C,10.0
3,22.592000007629395,learn,37407.999992370605,Thu May 07 2026 09:55:28 GMT-0500 (Central Daylight Time),477237.59999999404,A,shor,O,r,149,1,9446.5,467791.09999999404,7805,WL,C,10.0
3,22.691999912261963,learn,37308.00008773804,Thu May 07 2026 09:55:28 GMT-0500 (Central Daylight Time),477337.39999999106,A,shore,O,e,80,1,9546.29999999702,467791.09999999404,7805,WL,C,10.0
3,23.009000062942505,learn,36990.999937057495,Thu May 07 2026 09:55:28 GMT-0500 (Central Daylight Time),477655.09999999404,A,shoreenter,O,enter,295,1,9864.0,467791.09999999404,7805,WL,C,10.0
3,25.83999991416931,learn,34160.00008583069,Thu May 07 2026 09:55:28 GMT-0500 (Central Daylight Time),480486.299999997,A,d,O,d,2812,1,2830.9000000059605,477655.39999999106,7805,WL,C,11.0
3,25.95799994468689,learn,34042.00005531311,Thu May 07 2026 09:55:28 GMT-0500 (Central Daylight Time),480604.1999999881,A,do,O,o,95,1,2948.7999999970198,477655.39999999106,7805,WL,C,11.0
3,26.091000080108643,learn,33908.99991989136,Thu May 07 2026 09:55:28 GMT-0500 (Central Daylight Time),480736.799999997,A,doc,O,c,117,1,3081.4000000059605,477655.39999999106,7805,WL,C,11.0
3,26.374000072479248,learn,33625.99992752075,Thu May 07 2026 09:55:28 GMT-0500 (Central Daylight Time),481020.09999999404,A,doct,O,t,264,1,3364.7000000029802,477655.39999999106,7805,WL,C,11.0
3,26.507999897003174,learn,33492.000102996826,Thu May 07 2026 09:55:28 GMT-0500 (Central Daylight Time),481153.59999999404,A,docto,O,o,118,1,3498.2000000029802,477655.39999999106,7805,WL,C,11.0
3,26.625,learn,33375.0,Thu May 07 2026 09:55:28 GMT-0500 (Central Daylight Time),481270.5,A,doctor,O,r,94,1,3615.1000000089407,477655.39999999106,7805,WL,C,11.0
3,26.842000007629395,learn,33157.999992370605,Thu May 07 2026 09:55:28 GMT-0500 (Central Daylight Time),481487.5,A,doctorenter,O,enter,206,1,3832.1000000089407,477655.39999999106,7805,WL,C,11.0
3,32.888999938964844,learn,27111.000061035156,Thu May 07 2026 09:55:28 GMT-0500 (Central Daylight Time),487534.5,A,q,O,q,6030,1,6046.800000011921,481487.6999999881,7805,WL,C,12.0
3,33.15599989891052,learn,26844.000101089478,Thu May 07 2026 09:55:28 GMT-0500 (Central Daylight Time),487801.39999999106,A,qu,O,u,254,1,6313.70000000298,481487.6999999881,7805,WL,C,12.0
3,33.355000019073486,learn,26644.999980926514,Thu May 07 2026 09:55:28 GMT-0500 (Central Daylight Time),488000.5,A,que,O,e,186,1,6512.800000011921,481487.6999999881,7805,WL,C,12.0
3,33.555999994277954,learn,26444.000005722046,Thu May 07 2026 09:55:28 GMT-0500 (Central Daylight Time),488201.799999997,A,quee,O,e,188,1,6714.100000008941,481487.6999999881,7805,WL,C,12.0
3,33.65499997138977,learn,26345.00002861023,Thu May 07 2026 09:55:28 GMT-0500 (Central Daylight Time),488300.799999997,A,queen,O,n,90,1,6813.100000008941,481487.6999999881,7805,WL,C,12.0
3,33.855000019073486,learn,26144.999980926514,Thu May 07 2026 09:55:28 GMT-0500 (Central Daylight Time),488501.09999999404,A,queenenter,O,enter,191,1,7013.4000000059605,481487.6999999881,7805,WL,C,12.0
3,36.937999963760376,learn,23062.000036239624,Thu May 07 2026 09:55:28 GMT-0500 (Central Daylight Time),491583.89999999106,A,w,O,w,3072,1,3082.5,488501.39999999106,7805,WL,C,13.0
3,37.05399990081787,learn,22946.00009918213,Thu May 07 2026 09:55:28 GMT-0500 (Central Daylight Time),491699.59999999404,A,wh,O,h,111,1,3198.2000000029802,488501.39999999106,7805,WL,C,13.0
3,37.22000002861023,learn,22779.99997138977,Thu May 07 2026 09:55:28 GMT-0500 (Central Daylight Time),491866.0,A,wha,O,a,144,1,3364.6000000089407,488501.39999999106,7805,WL,C,13.0
3,37.8529999256134,learn,22147.000074386597,Thu May 07 2026 09:55:28 GMT-0500 (Central Daylight Time),492498.799999997,A,wh,O,backspace,616,1,3997.4000000059605,488501.39999999106,7805,WL,C,13.0
3,39.03699994087219,learn,20963.000059127808,Thu May 07 2026 09:55:28 GMT-0500 (Central Daylight Time),493682.39999999106,A,w,O,backspace,1164,1,5181.0,488501.39999999106,7805,WL,C,13.0
3,39.187999963760376,learn,20812.000036239624,Thu May 07 2026 09:55:28 GMT-0500 (Central Daylight Time),493833.59999999404,A,,O,backspace,136,1,5332.20000000298,488501.39999999106,7805,WL,C,13.0
3,39.65499997138977,learn,20345.00002861023,Thu May 07 2026 09:55:28 GMT-0500 (Central Daylight Time),494300.39999999106,A,c,O,c,449,1,5799.0,488501.39999999106,7805,WL,C,13.0
3,39.78699994087219,learn,20213.000059127808,Thu May 07 2026 09:55:28 GMT-0500 (Central Daylight Time),494433.09999999404,A,ca,O,a,115,1,5931.70000000298,488501.39999999106,7805,WL,C,13.0
3,39.95300006866455,learn,20046.99993133545,Thu May 07 2026 09:55:28 GMT-0500 (Central Daylight Time),494599.0,A,cam,O,m,145,1,6097.600000008941,488501.39999999106,7805,WL,C,13.0
3,40.11999988555908,learn,19880.000114440918,Thu May 07 2026 09:55:28 GMT-0500 (Central Daylight Time),494765.6999999881,A,camp,O,p,146,1,6264.29999999702,488501.39999999106,7805,WL,C,13.0
3,40.47000002861023,learn,19529.99997138977,Thu May 07 2026 09:55:28 GMT-0500 (Central Daylight Time),495115.299999997,A,campenter,O,enter,336,1,6613.9000000059605,488501.39999999106,7805,WL,C,13.0
3,40.93599987030029,learn,19064.000129699707,Thu May 07 2026 09:55:28 GMT-0500 (Central Daylight Time),495582.0,A,s,O,s,448,1,466.5,495115.5,7805,WL,C,14.0
3,41.05299997329712,learn,18947.00002670288,Thu May 07 2026 09:55:28 GMT-0500 (Central Daylight Time),495698.89999999106,A,sh,O,h,95,1,583.3999999910593,495115.5,7805,WL,C,14.0
3,41.11899995803833,learn,18881.00004196167,Thu May 07 2026 09:55:28 GMT-0500 (Central Daylight Time),495764.299999997,A,sho,O,o,56,1,648.7999999970198,495115.5,7805,WL,C,14.0
3,41.253000020980835,learn,18746.999979019165,Thu May 07 2026 09:55:28 GMT-0500 (Central Daylight Time),495898.6999999881,A,shor,O,r,115,1,783.1999999880791,495115.5,7805,WL,C,14.0
3,41.355000019073486,learn,18644.999980926514,Thu May 07 2026 09:55:28 GMT-0500 (Central Daylight Time),496000.5,A,shore,O,e,87,1,885.0,495115.5,7805,WL,C,14.0
3,41.585999965667725,learn,18414.000034332275,Thu May 07 2026 09:55:28 GMT-0500 (Central Daylight Time),496231.5,A,shoreenter,O,enter,212,1,1116.0,495115.5,7805,WL,C,14.0
3,55.21600008010864,learn,4783.999919891357,Thu May 07 2026 09:55:28 GMT-0500 (Central Daylight Time),509861.5,A,c,O,c,13622,1,13629.70000000298,496231.799999997,7805,WL,C,15.0
3,55.3970000743866,learn,4602.999925613403,Thu May 07 2026 09:55:28 GMT-0500 (Central Daylight Time),510043.0,A,ca,O,a,164,1,13811.20000000298,496231.799999997,7805,WL,C,15.0
3,55.56500005722046,learn,4434.999942779541,Thu May 07 2026 09:55:28 GMT-0500 (Central Daylight Time),510211.09999999404,A,cam,O,m,147,1,13979.29999999702,496231.799999997,7805,WL,C,15.0
3,55.764999866485596,learn,4235.000133514404,Thu May 07 2026 09:55:28 GMT-0500 (Central Daylight Time),510410.5,A,camp,O,p,183,1,14178.70000000298,496231.799999997,7805,WL,C,15.0
3,56.098000049591064,learn,3901.9999504089355,Thu May 07 2026 09:55:28 GMT-0500 (Central Daylight Time),510743.6999999881,A,campenter,O,enter,312,1,14511.89999999106,496231.799999997,7805,WL,C,15.0
4,0.6999998092651367,learn,59300.00019073486,Thu May 07 2026 09:55:28 GMT-0500 (Central Daylight Time),580789.299999997,A,t,O,t,696,1,700.5,580088.799999997,7805,WL,C,1.0
4,0.8659999370574951,learn,59134.000062942505,Thu May 07 2026 09:55:28 GMT-0500 (Central Daylight Time),580954.6999999881,A,to,O,o,147,1,865.8999999910593,580088.799999997,7805,WL,C,1.0
4,0.9819998741149902,learn,59018.00012588501,Thu May 07 2026 09:55:28 GMT-0500 (Central Daylight Time),581071.299999997,A,tow,O,w,96,1,982.5,580088.799999997,7805,WL,C,1.0
4,1.1499998569488525,learn,58850.00014305115,Thu May 07 2026 09:55:28 GMT-0500 (Central Daylight Time),581239.099999994,A,towe,O,e,148,1,1150.2999999970198,580088.799999997,7805,WL,C,1.0
4,1.248999834060669,learn,58751.00016593933,Thu May 07 2026 09:55:28 GMT-0500 (Central Daylight Time),581338.3999999911,A,tower,O,r,85,1,1249.5999999940395,580088.799999997,7805,WL,C,1.0
4,1.431999921798706,learn,58568.000078201294,Thu May 07 2026 09:55:28 GMT-0500 (Central Daylight Time),581521.299999997,A,towerenter,O,enter,177,1,1432.5,580088.799999997,7805,WL,C,1.0
4,2.2819998264312744,learn,57718.000173568726,Thu May 07 2026 09:55:28 GMT-0500 (Central Daylight Time),582371.3999999911,A,w,O,w,846,1,850.0,581521.3999999911,7805,WL,C,2.0
4,2.5139999389648438,learn,57486.000061035156,Thu May 07 2026 09:55:28 GMT-0500 (Central Daylight Time),582603.299999997,A,wh,O,h,224,1,1081.9000000059605,581521.3999999911,7805,WL,C,2.0
4,2.5820000171661377,learn,57417.99998283386,Thu May 07 2026 09:55:28 GMT-0500 (Central Daylight Time),582670.599999994,A,whe,O,e,55,1,1149.2000000029802,581521.3999999911,7805,WL,C,2.0
4,2.7309999465942383,learn,57269.00005340576,Thu May 07 2026 09:55:28 GMT-0500 (Central Daylight Time),582819.6999999881,A,whea,O,a,129,1,1298.2999999970198,581521.3999999911,7805,WL,C,2.0
4,2.8489999771118164,learn,57151.00002288818,Thu May 07 2026 09:55:28 GMT-0500 (Central Daylight Time),582938.1999999881,A,wheat,O,t,100,1,1416.7999999970198,581521.3999999911,7805,WL,C,2.0
4,3.0309998989105225,learn,56969.00010108948,Thu May 07 2026 09:55:28 GMT-0500 (Central Daylight Time),583120.0,A,wheatenter,O,enter,161,1,1598.6000000089407,581521.3999999911,7805,WL,C,2.0
4,3.5979998111724854,learn,56402.000188827515,Thu May 07 2026 09:55:28 GMT-0500 (Central Daylight Time),583687.0,A,h,O,h,556,1,566.8000000119209,583120.1999999881,7805,WL,C,3.0
4,3.748999834060669,learn,56251.00016593933,Thu May 07 2026 09:55:28 GMT-0500 (Central Daylight Time),583837.6999999881,A,ho,O,o,131,1,717.5,583120.1999999881,7805,WL,C,3.0
4,3.930999994277954,learn,56069.000005722046,Thu May 07 2026 09:55:28 GMT-0500 (Central Daylight Time),584020.099999994,A,hom,O,m,164,1,899.9000000059605,583120.1999999881,7805,WL,C,3.0
4,4.115999937057495,learn,55884.000062942505,Thu May 07 2026 09:55:28 GMT-0500 (Central Daylight Time),584204.5,A,home,O,e,163,1,1084.300000011921,583120.1999999881,7805,WL,C,3.0
4,4.398000001907349,learn,55601.99999809265,Thu May 07 2026 09:55:28 GMT-0500 (Central Daylight Time),584486.599999994,A,homeenter,O,enter,261,1,1366.4000000059605,583120.1999999881,7805,WL,C,3.0
4,4.896999835968018,learn,55103.00016403198,Thu May 07 2026 09:55:28 GMT-0500 (Central Daylight Time),584986.299999997,A,s,O,s,480,1,499.5,584486.799999997,7805,WL,C,4.0
4,4.997999906539917,learn,55002.00009346008,Thu May 07 2026 09:55:28 GMT-0500 (Central Daylight Time),585087.299999997,A,su,O,u,79,1,600.5,584486.799999997,7805,WL,C,4.0
4,5.2809998989105225,learn,54719.00010108948,Thu May 07 2026 09:55:28 GMT-0500 (Central Daylight Time),585370.299999997,A,sug,O,g,269,1,883.5,584486.799999997,7805,WL,C,4.0
4,5.4649999141693115,learn,54535.00008583069,Thu May 07 2026 09:55:28 GMT-0500 (Central Daylight Time),585553.8999999911,A,suga,O,a,170,1,1067.0999999940395,584486.799999997,7805,WL,C,4.0
4,5.597999811172485,learn,54402.000188827515,Thu May 07 2026 09:55:28 GMT-0500 (Central Daylight Time),585687.099999994,A,sugar,O,r,123,1,1200.2999999970198,584486.799999997,7805,WL,C,4.0
4,6.013999938964844,learn,53986.000061035156,Thu May 07 2026 09:55:28 GMT-0500 (Central Daylight Time),586103.299999997,A,sugarenter,O,enter,395,1,1616.5,584486.799999997,7805,WL,C,4.0
4,6.898000001907349,learn,53101.99999809265,Thu May 07 2026 09:55:28 GMT-0500 (Central Daylight Time),586986.799999997,A,h,O,h,869,1,883.2999999970198,586103.5,7805,WL,C,5.0
4,7.046999931335449,learn,52953.00006866455,Thu May 07 2026 09:55:28 GMT-0500 (Central Daylight Time),587136.299999997,A,ho,O,o,128,1,1032.7999999970198,586103.5,7805,WL,C,5.0
4,7.230999946594238,learn,52769.00005340576,Thu May 07 2026 09:55:28 GMT-0500 (Central Daylight Time),587320.0,A,hom,O,m,159,1,1216.5,586103.5,7805,WL,C,5.0
4,7.381999969482422,learn,52618.00003051758,Thu May 07 2026 09:55:28 GMT-0500 (Central Daylight Time),587471.0,A,home,O,e,146,1,1367.5,586103.5,7805,WL,C,5.0
4,7.56499981880188,learn,52435.00018119812,Thu May 07 2026 09:55:28 GMT-0500 (Central Daylight Time),587653.799999997,A,homeenter,O,enter,166,1,1550.2999999970198,586103.5,7805,WL,C,5.0
4,7.980999946594238,learn,52019.00005340576,Thu May 07 2026 09:55:28 GMT-0500 (Central Daylight Time),588069.599999994,A,b,O,b,397,1,415.59999999403954,587654.0,7805,WL,C,6.0
4,8.096999883651733,learn,51903.00011634827,Thu May 07 2026 09:55:28 GMT-0500 (Central Daylight Time),588186.1999999881,A,bo,O,o,97,1,532.1999999880791,587654.0,7805,WL,C,6.0
4,8.21399998664856,learn,51786.00001335144,Thu May 07 2026 09:55:28 GMT-0500 (Central Daylight Time),588302.599999994,A,boy,O,y,96,1,648.5999999940395,587654.0,7805,WL,C,6.0
4,8.563999891281128,learn,51436.00010871887,Thu May 07 2026 09:55:28 GMT-0500 (Central Daylight Time),588652.5,A,boyenter,O,enter,341,1,998.5,587654.0,7805,WL,C,6.0
4,8.980000019073486,learn,51019.999980926514,Thu May 07 2026 09:55:28 GMT-0500 (Central Daylight Time),589068.5,A,d,O,d,398,1,415.70000000298023,588652.799999997,7805,WL,C,7.0
4,9.11299991607666,learn,50887.00008392334,Thu May 07 2026 09:55:28 GMT-0500 (Central Daylight Time),589202.5,A,do,O,o,118,1,549.7000000029802,588652.799999997,7805,WL,C,7.0
4,9.230000019073486,learn,50769.999980926514,Thu May 07 2026 09:55:28 GMT-0500 (Central Daylight Time),589318.799999997,A,doc,O,c,107,1,666.0,588652.799999997,7805,WL,C,7.0
4,9.46399998664856,learn,50536.00001335144,Thu May 07 2026 09:55:28 GMT-0500 (Central Daylight Time),589552.799999997,A,doct,O,t,222,1,900.0,588652.799999997,7805,WL,C,7.0
4,9.546000003814697,learn,50453.9999961853,Thu May 07 2026 09:55:28 GMT-0500 (Central Daylight Time),589634.6999999881,A,docto,O,o,74,1,981.8999999910593,588652.799999997,7805,WL,C,7.0
4,9.69599986076355,learn,50304.00013923645,Thu May 07 2026 09:55:28 GMT-0500 (Central Daylight Time),589785.3999999911,A,doctor,O,r,133,1,1132.5999999940395,588652.799999997,7805,WL,C,7.0
4,9.896999835968018,learn,50103.00016403198,Thu May 07 2026 09:55:28 GMT-0500 (Central Daylight Time),589986.3999999911,A,doctorenter,O,enter,179,1,1333.5999999940395,588652.799999997,7805,WL,C,7.0
4,10.230999946594238,learn,49769.00005340576,Thu May 07 2026 09:55:28 GMT-0500 (Central Daylight Time),590320.099999994,A,c,O,c,313,1,333.40000000596046,589986.6999999881,7805,WL,C,8.0
4,10.345999956130981,learn,49654.00004386902,Thu May 07 2026 09:55:28 GMT-0500 (Central Daylight Time),590434.799999997,A,ca,O,a,93,1,448.1000000089407,589986.6999999881,7805,WL,C,8.0
4,10.513000011444092,learn,49486.99998855591,Thu May 07 2026 09:55:28 GMT-0500 (Central Daylight Time),590602.5,A,cat,O,t,150,1,615.8000000119209,589986.6999999881,7805,WL,C,8.0
4,10.662999868392944,learn,49337.000131607056,Thu May 07 2026 09:55:28 GMT-0500 (Central Daylight Time),590752.299999997,A,catt,O,t,131,1,765.6000000089407,589986.6999999881,7805,WL,C,8.0
4,10.86299991607666,learn,49137.00008392334,Thu May 07 2026 09:55:28 GMT-0500 (Central Daylight Time),590951.799999997,A,cattl,O,l,185,1,965.1000000089407,589986.6999999881,7805,WL,C,8.0
4,10.928999900817871,learn,49071.00009918213,Thu May 07 2026 09:55:28 GMT-0500 (Central Daylight Time),591017.6999999881,A,cattle,O,e,45,1,1031.0,589986.6999999881,7805,WL,C,8.0
4,11.161999940872192,learn,48838.00005912781,Thu May 07 2026 09:55:28 GMT-0500 (Central Daylight Time),591251.5,A,cattleenter,O,enter,227,1,1264.800000011921,589986.6999999881,7805,WL,C,8.0
4,12.194000005722046,learn,47805.999994277954,Thu May 07 2026 09:55:28 GMT-0500 (Central Daylight Time),592282.799999997,A,c,O,c,1024,1,1031.1000000089407,591251.6999999881,7805,WL,C,9.0
4,12.345999956130981,learn,47654.00004386902,Thu May 07 2026 09:55:28 GMT-0500 (Central Daylight Time),592435.099999994,A,co,O,o,139,1,1183.4000000059605,591251.6999999881,7805,WL,C,9.0
4,12.51199984550476,learn,47488.00015449524,Thu May 07 2026 09:55:28 GMT-0500 (Central Daylight Time),592601.5,A,cor,O,r,154,1,1349.800000011921,591251.6999999881,7805,WL,C,9.0
4,12.59499979019165,learn,47405.00020980835,Thu May 07 2026 09:55:28 GMT-0500 (Central Daylight Time),592683.8999999911,A,corn,O,n,73,1,1432.2000000029802,591251.6999999881,7805,WL,C,9.0
4,12.84499979019165,learn,47155.00020980835,Thu May 07 2026 09:55:28 GMT-0500 (Central Daylight Time),592933.8999999911,A,cornenter,O,enter,233,1,1682.2000000029802,591251.6999999881,7805,WL,C,9.0
4,13.194999933242798,learn,46805.0000667572,Thu May 07 2026 09:55:28 GMT-0500 (Central Daylight Time),593284.299999997,A,w,O,w,333,1,350.20000000298023,592934.099999994,7805,WL,C,10.0
4,13.444999933242798,learn,46555.0000667572,Thu May 07 2026 09:55:28 GMT-0500 (Central Daylight Time),593534.299999997,A,we,O,e,230,1,600.2000000029802,592934.099999994,7805,WL,C,10.0
4,13.559999942779541,learn,46440.00005722046,Thu May 07 2026 09:55:28 GMT-0500 (Central Daylight Time),593649.3999999911,A,weh,O,h,111,1,715.2999999970198,592934.099999994,7805,WL,C,10.0
4,14.095999956130981,learn,45904.00004386902,Thu May 07 2026 09:55:28 GMT-0500 (Central Daylight Time),594185.1999999881,A,we,O,backspace,516,1,1251.0999999940395,592934.099999994,7805,WL,C,10.0
4,14.244999885559082,learn,45755.00011444092,Thu May 07 2026 09:55:28 GMT-0500 (Central Daylight Time),594333.799999997,A,w,O,backspace,138,1,1399.7000000029802,592934.099999994,7805,WL,C,10.0
4,14.527999877929688,learn,45472.00012207031,Thu May 07 2026 09:55:28 GMT-0500 (Central Daylight Time),594617.599999994,A,wn,O,n,264,1,1683.5,592934.099999994,7805,WL,C,10.0
4,15.260999917984009,learn,44739.00008201599,Thu May 07 2026 09:55:28 GMT-0500 (Central Daylight Time),595350.099999994,A,w,O,backspace,712,1,2416.0,592934.099999994,7805,WL,C,10.0
4,15.978999853134155,learn,44021.000146865845,Thu May 07 2026 09:55:28 GMT-0500 (Central Daylight Time),596068.599999994,A,wh,O,h,713,1,3134.5,592934.099999994,7805,WL,C,10.0
4,17.043999910354614,learn,42956.000089645386,Thu May 07 2026 09:55:28 GMT-0500 (Central Daylight Time),597133.299999997,A,whe,O,e,1053,1,4199.20000000298,592934.099999994,7805,WL,C,10.0
4,17.24399995803833,learn,42756.00004196167,Thu May 07 2026 09:55:28 GMT-0500 (Central Daylight Time),597332.799999997,A,whea,O,a,182,1,4398.70000000298,592934.099999994,7805,WL,C,10.0
4,17.426999807357788,learn,42573.00019264221,Thu May 07 2026 09:55:28 GMT-0500 (Central Daylight Time),597515.799999997,A,wheat,O,t,175,1,4581.70000000298,592934.099999994,7805,WL,C,10.0
4,17.692999839782715,learn,42307.000160217285,Thu May 07 2026 09:55:28 GMT-0500 (Central Daylight Time),597782.6999999881,A,wheatenter,O,enter,256,1,4848.5999999940395,592934.099999994,7805,WL,C,10.0
4,18.40999984741211,learn,41590.00015258789,Thu May 07 2026 09:55:28 GMT-0500 (Central Daylight Time),598498.8999999911,A,s,O,s,700,1,716.0,597782.8999999911,7805,WL,C,11.0
4,18.560999870300293,learn,41439.00012969971,Thu May 07 2026 09:55:28 GMT-0500 (Central Daylight Time),598650.5,A,sh,O,h,130,1,867.6000000089407,597782.8999999911,7805,WL,C,11.0
4,18.643999814987183,learn,41356.00018501282,Thu May 07 2026 09:55:28 GMT-0500 (Central Daylight Time),598732.799999997,A,sho,O,o,64,1,949.9000000059605,597782.8999999911,7805,WL,C,11.0
4,18.80900001525879,learn,41190.99998474121,Thu May 07 2026 09:55:28 GMT-0500 (Central Daylight Time),598898.3999999911,A,shor,O,r,149,1,1115.5,597782.8999999911,7805,WL,C,11.0
4,18.959999799728394,learn,41040.00020027161,Thu May 07 2026 09:55:28 GMT-0500 (Central Daylight Time),599049.6999999881,A,shore,O,e,145,1,1266.7999999970198,597782.8999999911,7805,WL,C,11.0
4,19.376999855041504,learn,40623.000144958496,Thu May 07 2026 09:55:28 GMT-0500 (Central Daylight Time),599465.8999999911,A,shoreenter,O,enter,402,1,1683.0,597782.8999999911,7805,WL,C,11.0
4,19.776999950408936,learn,40223.000049591064,Thu May 07 2026 09:55:28 GMT-0500 (Central Daylight Time),599866.5,A,c,O,c,380,1,400.40000000596046,599466.099999994,7805,WL,C,12.0
4,19.875999927520752,learn,40124.00007247925,Thu May 07 2026 09:55:28 GMT-0500 (Central Daylight Time),599965.0,A,ca,O,a,80,1,498.90000000596046,599466.099999994,7805,WL,C,12.0
4,20.026999950408936,learn,39973.000049591064,Thu May 07 2026 09:55:28 GMT-0500 (Central Daylight Time),600115.799999997,A,cam,O,m,143,1,649.7000000029802,599466.099999994,7805,WL,C,12.0
4,20.194000005722046,learn,39805.999994277954,Thu May 07 2026 09:55:28 GMT-0500 (Central Daylight Time),600283.599999994,A,camp,O,p,152,1,817.5,599466.099999994,7805,WL,C,12.0
4,20.509999990463257,learn,39490.00000953674,Thu May 07 2026 09:55:28 GMT-0500 (Central Daylight Time),600599.099999994,A,campenter,O,enter,305,1,1133.0,599466.099999994,7805,WL,C,12.0
4,20.959999799728394,learn,39040.00020027161,Thu May 07 2026 09:55:28 GMT-0500 (Central Daylight Time),601049.299999997,A,f,O,f,429,1,450.0,600599.299999997,7805,WL,C,13.0
4,21.092000007629395,learn,38907.999992370605,Thu May 07 2026 09:55:28 GMT-0500 (Central Daylight Time),601181.6999999881,A,fl,O,l,114,1,582.3999999910593,600599.299999997,7805,WL,C,13.0
4,21.209999799728394,learn,38790.00020027161,Thu May 07 2026 09:55:28 GMT-0500 (Central Daylight Time),601299.0,A,fla,O,a,95,1,699.7000000029802,600599.299999997,7805,WL,C,13.0
4,21.376999855041504,learn,38623.000144958496,Thu May 07 2026 09:55:28 GMT-0500 (Central Daylight Time),601466.0,A,flag,O,g,153,1,866.7000000029802,600599.299999997,7805,WL,C,13.0
4,21.70899987220764,learn,38291.00012779236,Thu May 07 2026 09:55:28 GMT-0500 (Central Daylight Time),601798.0,A,flagenter,O,enter,314,1,1198.7000000029802,600599.299999997,7805,WL,C,13.0
4,22.842000007629395,learn,37157.999992370605,Thu May 07 2026 09:55:28 GMT-0500 (Central Daylight Time),602931.5,A,d,O,d,1119,1,1133.2000000029802,601798.299999997,7805,WL,C,14.0
4,22.941999912261963,learn,37058.00008773804,Thu May 07 2026 09:55:28 GMT-0500 (Central Daylight Time),603031.599999994,A,do,O,o,89,1,1233.2999999970198,601798.299999997,7805,WL,C,14.0
4,23.092000007629395,learn,36907.999992370605,Thu May 07 2026 09:55:28 GMT-0500 (Central Daylight Time),603181.5,A,doc,O,c,139,1,1383.2000000029802,601798.299999997,7805,WL,C,14.0
4,23.325999975204468,learn,36674.00002479553,Thu May 07 2026 09:55:28 GMT-0500 (Central Daylight Time),603414.799999997,A,doct,O,t,215,1,1616.5,601798.299999997,7805,WL,C,14.0
4,23.441999912261963,learn,36558.00008773804,Thu May 07 2026 09:55:28 GMT-0500 (Central Daylight Time),603531.5,A,docto,O,o,107,1,1733.2000000029802,601798.299999997,7805,WL,C,14.0
4,23.55900001525879,learn,36440.99998474121,Thu May 07 2026 09:55:28 GMT-0500 (Central Daylight Time),603648.599999994,A,doctor,O,r,93,1,1850.2999999970198,601798.299999997,7805,WL,C,14.0
4,23.973999977111816,learn,36026.00002288818,Thu May 07 2026 09:55:28 GMT-0500 (Central Daylight Time),604063.599999994,A,doctorenter,O,enter,396,1,2265.2999999970198,601798.299999997,7805,WL,C,14.0
4,25.39299988746643,learn,34607.00011253357,Thu May 07 2026 09:55:28 GMT-0500 (Central Daylight Time),605482.0,A,n,O,n,1398,1,1418.2000000029802,604063.799999997,7805,WL,C,15.0
4,25.54099988937378,learn,34459.00011062622,Thu May 07 2026 09:55:28 GMT-0500 (Central Daylight Time),605629.799999997,A,na,O,a,137,1,1566.0,604063.799999997,7805,WL,C,15.0
4,25.673999786376953,learn,34326.00021362305,Thu May 07 2026 09:55:28 GMT-0500 (Central Daylight Time),605762.799999997,A,nai,O,i,118,1,1699.0,604063.799999997,7805,WL,C,15.0
4,25.890999794006348,learn,34109.00020599365,Thu May 07 2026 09:55:28 GMT-0500 (Central Daylight Time),605980.599999994,A,nail,O,l,200,1,1916.7999999970198,604063.799999997,7805,WL,C,15.0
4,26.140999794006348,learn,33859.00020599365,Thu May 07 2026 09:55:28 GMT-0500 (Central Daylight Time),606230.099999994,A,nailenter,O,enter,232,1,2166.2999999970198,604063.799999997,7805,WL,C,15.0
5,0.6330001354217529,learn,60000.0,Thu May 07 2026 09:55:28 GMT-0500 (Central Daylight Time),675774.6999999881,A,d,O,d,619,1,632.8999999910593,675141.799999997,7805,WL,C,1.0
5,0.8000001907348633,learn,60000.0,Thu May 07 2026 09:55:28 GMT-0500 (Central Daylight Time),675941.599999994,A,do,O,o,146,1,799.7999999970198,675141.799999997,7805,WL,C,1.0
5,0.9830000400543213,learn,60000.0,Thu May 07 2026 09:55:28 GMT-0500 (Central Daylight Time),676124.5,A,doc,O,c,174,1,982.7000000029802,675141.799999997,7805,WL,C,1.0
5,1.2660000324249268,learn,60000.0,Thu May 07 2026 09:55:28 GMT-0500 (Central Daylight Time),676407.299999997,A,doct,O,t,260,1,1265.5,675141.799999997,7805,WL,C,1.0
5,1.2980000972747803,learn,60000.0,Thu May 07 2026 09:55:28 GMT-0500 (Central Daylight Time),676439.799999997,A,docta,O,a,7,1,1298.0,675141.799999997,7805,WL,C,1.0
5,1.382000207901001,learn,60000.0,Thu May 07 2026 09:55:28 GMT-0500 (Central Daylight Time),676523.599999994,A,doctao,O,o,75,1,1381.7999999970198,675141.799999997,7805,WL,C,1.0
5,1.5,learn,60000.0,Thu May 07 2026 09:55:28 GMT-0500 (Central Daylight Time),676641.599999994,A,doctaor,O,r,104,1,1499.7999999970198,675141.799999997,7805,WL,C,1.0
5,1.9160001277923584,learn,60000.0,Thu May 07 2026 09:55:28 GMT-0500 (Central Daylight Time),677057.299999997,A,doctao,O,backspace,396,1,1915.5,675141.799999997,7805,WL,C,1.0
5,2.0830001831054688,learn,60000.0,Thu May 07 2026 09:55:28 GMT-0500 (Central Daylight Time),677224.0,A,docta,O,backspace,156,1,2082.2000000029802,675141.799999997,7805,WL,C,1.0
5,2.265000104904175,learn,60000.0,Thu May 07 2026 09:55:28 GMT-0500 (Central Daylight Time),677406.8999999911,A,doct,O,backspace,162,1,2265.0999999940395,675141.799999997,7805,WL,C,1.0
5,2.749000072479248,learn,60000.0,Thu May 07 2026 09:55:28 GMT-0500 (Central Daylight Time),677891.0,A,docto,O,o,475,1,2749.2000000029802,675141.799999997,7805,WL,C,1.0
5,2.866000175476074,learn,60000.0,Thu May 07 2026 09:55:28 GMT-0500 (Central Daylight Time),678007.099999994,A,doctor,O,r,103,1,2865.2999999970198,675141.799999997,7805,WL,C,1.0
5,3.0490000247955322,learn,60000.0,Thu May 07 2026 09:55:28 GMT-0500 (Central Daylight Time),678190.099999994,A,doctorenter,O,enter,161,1,3048.2999999970198,675141.799999997,7805,WL,C,1.0
5,3.4150002002716064,learn,60000.0,Thu May 07 2026 09:55:28 GMT-0500 (Central Daylight Time),678556.8999999911,A,c,O,c,350,1,366.5,678190.3999999911,7805,WL,C,2.0
5,3.515000104904175,learn,60000.0,Thu May 07 2026 09:55:28 GMT-0500 (Central Daylight Time),678656.6999999881,A,ca,O,a,76,1,466.29999999701977,678190.3999999911,7805,WL,C,2.0
5,3.683000087738037,learn,60000.0,Thu May 07 2026 09:55:28 GMT-0500 (Central Daylight Time),678824.799999997,A,cam,O,m,146,1,634.4000000059605,678190.3999999911,7805,WL,C,2.0
5,3.865000009536743,learn,60000.0,Thu May 07 2026 09:55:28 GMT-0500 (Central Daylight Time),679006.599999994,A,camp,O,p,161,1,816.2000000029802,678190.3999999911,7805,WL,C,2.0
5,4.148000001907349,learn,60000.0,Thu May 07 2026 09:55:28 GMT-0500 (Central Daylight Time),679289.5,A,campenter,O,enter,275,1,1099.1000000089407,678190.3999999911,7805,WL,C,2.0
5,4.565000057220459,learn,60000.0,Thu May 07 2026 09:55:28 GMT-0500 (Central Daylight Time),679706.099999994,A,b,O,b,398,1,416.40000000596046,679289.6999999881,7805,WL,C,3.0
5,4.664000034332275,learn,60000.0,Thu May 07 2026 09:55:28 GMT-0500 (Central Daylight Time),679805.799999997,A,bo,O,o,78,1,516.1000000089407,679289.6999999881,7805,WL,C,3.0
5,4.79800009727478,learn,60000.0,Thu May 07 2026 09:55:28 GMT-0500 (Central Daylight Time),679939.299999997,A,boy,O,y,116,1,649.6000000089407,679289.6999999881,7805,WL,C,3.0
5,5.132000207901001,learn,60000.0,Thu May 07 2026 09:55:28 GMT-0500 (Central Daylight Time),680273.0,A,boyenter,O,enter,312,1,983.3000000119209,679289.6999999881,7805,WL,C,3.0
5,5.6650002002716064,learn,60000.0,Thu May 07 2026 09:55:28 GMT-0500 (Central Daylight Time),680806.6999999881,A,h,O,h,523,1,533.5,680273.1999999881,7805,WL,C,4.0
5,5.79800009727478,learn,60000.0,Thu May 07 2026 09:55:28 GMT-0500 (Central Daylight Time),680939.099999994,A,ho,O,o,108,1,665.9000000059605,680273.1999999881,7805,WL,C,4.0
5,5.966000080108643,learn,60000.0,Thu May 07 2026 09:55:28 GMT-0500 (Central Daylight Time),681107.599999994,A,hom,O,m,145,1,834.4000000059605,680273.1999999881,7805,WL,C,4.0
5,6.115000009536743,learn,60000.0,Thu May 07 2026 09:55:28 GMT-0500 (Central Daylight Time),681256.5,A,home,O,e,129,1,983.3000000119209,680273.1999999881,7805,WL,C,4.0
5,6.314000129699707,learn,60000.0,Thu May 07 2026 09:55:28 GMT-0500 (Central Daylight Time),681455.599999994,A,homeenter,O,enter,177,1,1182.4000000059605,680273.1999999881,7805,WL,C,4.0
5,7.314000129699707,learn,60000.0,Thu May 07 2026 09:55:28 GMT-0500 (Central Daylight Time),682455.299999997,A,t,O,t,980,1,999.5,681455.799999997,7805,WL,C,5.0
5,7.465000152587891,learn,60000.0,Thu May 07 2026 09:55:28 GMT-0500 (Central Daylight Time),682606.1999999881,A,to,O,o,133,1,1150.3999999910593,681455.799999997,7805,WL,C,5.0
5,7.547000169754028,learn,60000.0,Thu May 07 2026 09:55:28 GMT-0500 (Central Daylight Time),682688.8999999911,A,tow,O,w,61,1,1233.0999999940395,681455.799999997,7805,WL,C,5.0
5,7.697000026702881,learn,60000.0,Thu May 07 2026 09:55:28 GMT-0500 (Central Daylight Time),682838.6999999881,A,towe,O,e,128,1,1382.8999999910593,681455.799999997,7805,WL,C,5.0
5,7.78000020980835,learn,60000.0,Thu May 07 2026 09:55:28 GMT-0500 (Central Daylight Time),682921.599999994,A,tower,O,r,61,1,1465.7999999970198,681455.799999997,7805,WL,C,5.0
5,8.397000074386597,learn,60000.0,Thu May 07 2026 09:55:28 GMT-0500 (Central Daylight Time),683538.5,A,towerenter,O,enter,609,1,2082.7000000029802,681455.799999997,7805,WL,C,5.0
5,10.014000177383423,learn,60000.0,Thu May 07 2026 09:55:28 GMT-0500 (Central Daylight Time),685155.299999997,A,w,O,w,1596,1,1616.2999999970198,683539.0,7805,WL,C,6.0
5,10.147000074386597,learn,60000.0,Thu May 07 2026 09:55:28 GMT-0500 (Central Daylight Time),685288.0,A,wh,O,h,117,1,1749.0,683539.0,7805,WL,C,6.0
5,10.213000059127808,learn,60000.0,Thu May 07 2026 09:55:28 GMT-0500 (Central Daylight Time),685354.099999994,A,whe,O,e,50,1,1815.0999999940395,683539.0,7805,WL,C,6.0
5,10.330000162124634,learn,60000.0,Thu May 07 2026 09:55:28 GMT-0500 (Central Daylight Time),685471.8999999911,A,whea,O,a,99,1,1932.8999999910593,683539.0,7805,WL,C,6.0
5,10.430000066757202,learn,60000.0,Thu May 07 2026 09:55:28 GMT-0500 (Central Daylight Time),685571.1999999881,A,wheat,O,t,77,1,2032.199999988079,683539.0,7805,WL,C,6.0
5,10.614000082015991,learn,60000.0,Thu May 07 2026 09:55:28 GMT-0500 (Central Daylight Time),685755.1999999881,A,wheatenter,O,enter,162,1,2216.199999988079,683539.0,7805,WL,C,6.0
5,10.930000066757202,learn,60000.0,Thu May 07 2026 09:55:28 GMT-0500 (Central Daylight Time),686071.799999997,A,c,O,c,296,1,316.40000000596046,685755.3999999911,7805,WL,C,7.0
5,11.062000036239624,learn,60000.0,Thu May 07 2026 09:55:28 GMT-0500 (Central Daylight Time),686203.1999999881,A,co,O,o,120,1,447.79999999701977,685755.3999999911,7805,WL,C,7.0
5,11.17900013923645,learn,60000.0,Thu May 07 2026 09:55:28 GMT-0500 (Central Daylight Time),686321.0,A,cor,O,r,105,1,565.6000000089407,685755.3999999911,7805,WL,C,7.0
5,11.313000202178955,learn,60000.0,Thu May 07 2026 09:55:28 GMT-0500 (Central Daylight Time),686454.1999999881,A,corn,O,n,112,1,698.7999999970198,685755.3999999911,7805,WL,C,7.0
5,11.513000011444092,learn,60000.0,Thu May 07 2026 09:55:28 GMT-0500 (Central Daylight Time),686654.0,A,cornenter,O,enter,178,1,898.6000000089407,685755.3999999911,7805,WL,C,7.0
5,12.379000186920166,learn,60000.0,Thu May 07 2026 09:55:28 GMT-0500 (Central Daylight Time),687520.3999999911,A,h,O,h,854,1,866.2000000029802,686654.1999999881,7805,WL,C,8.0
5,12.529000043869019,learn,60000.0,Thu May 07 2026 09:55:28 GMT-0500 (Central Daylight Time),687670.5,A,ho,O,o,127,1,1016.3000000119209,686654.1999999881,7805,WL,C,8.0
5,12.713000059127808,learn,60000.0,Thu May 07 2026 09:55:28 GMT-0500 (Central Daylight Time),687854.299999997,A,hom,O,m,168,1,1200.1000000089407,686654.1999999881,7805,WL,C,8.0
5,12.896000146865845,learn,60000.0,Thu May 07 2026 09:55:28 GMT-0500 (Central Daylight Time),688037.099999994,A,home,O,e,172,1,1382.9000000059605,686654.1999999881,7805,WL,C,8.0
5,13.063000202178955,learn,60000.0,Thu May 07 2026 09:55:28 GMT-0500 (Central Daylight Time),688204.8999999911,A,homeenter,O,enter,155,1,1550.7000000029802,686654.1999999881,7805,WL,C,8.0
5,13.59500002861023,learn,60000.0,Thu May 07 2026 09:55:28 GMT-0500 (Central Daylight Time),688737.099999994,A,s,O,s,513,1,531.9000000059605,688205.1999999881,7805,WL,C,9.0
5,13.745000123977661,learn,60000.0,Thu May 07 2026 09:55:28 GMT-0500 (Central Daylight Time),688886.599999994,A,su,O,u,134,1,681.4000000059605,688205.1999999881,7805,WL,C,9.0
5,13.894999980926514,learn,60000.0,Thu May 07 2026 09:55:28 GMT-0500 (Central Daylight Time),689036.599999994,A,sug,O,g,130,1,831.4000000059605,688205.1999999881,7805,WL,C,9.0
5,14.029000043869019,learn,60000.0,Thu May 07 2026 09:55:28 GMT-0500 (Central Daylight Time),689170.6999999881,A,suga,O,a,112,1,965.5,688205.1999999881,7805,WL,C,9.0
5,14.128000020980835,learn,60000.0,Thu May 07 2026 09:55:28 GMT-0500 (Central Daylight Time),689269.5,A,sugar,O,r,78,1,1064.300000011921,688205.1999999881,7805,WL,C,9.0
5,14.34500002861023,learn,60000.0,Thu May 07 2026 09:55:28 GMT-0500 (Central Daylight Time),689486.299999997,A,sugarenter,O,enter,205,1,1281.1000000089407,688205.1999999881,7805,WL,C,9.0
5,14.662000179290771,learn,60000.0,Thu May 07 2026 09:55:28 GMT-0500 (Central Daylight Time),689803.3999999911,A,q,O,q,310,1,316.8999999910593,689486.5,7805,WL,C,10.0
5,14.82800006866455,learn,60000.0,Thu May 07 2026 09:55:28 GMT-0500 (Central Daylight Time),689969.599999994,A,qu,O,u,144,1,483.09999999403954,689486.5,7805,WL,C,10.0
5,14.945000171661377,learn,60000.0,Thu May 07 2026 09:55:28 GMT-0500 (Central Daylight Time),690086.8999999911,A,que,O,e,103,1,600.3999999910593,689486.5,7805,WL,C,10.0
5,15.144000053405762,learn,60000.0,Thu May 07 2026 09:55:28 GMT-0500 (Central Daylight Time),690285.799999997,A,quee,O,e,188,1,799.2999999970198,689486.5,7805,WL,C,10.0
5,15.261000156402588,learn,60000.0,Thu May 07 2026 09:55:28 GMT-0500 (Central Daylight Time),690402.1999999881,A,queen,O,n,99,1,915.6999999880791,689486.5,7805,WL,C,10.0
5,15.461000204086304,learn,60000.0,Thu May 07 2026 09:55:28 GMT-0500 (Central Daylight Time),690602.6999999881,A,queenenter,O,enter,192,1,1116.199999988079,689486.5,7805,WL,C,10.0
5,15.84500002861023,learn,60000.0,Thu May 07 2026 09:55:28 GMT-0500 (Central Daylight Time),690986.1999999881,A,b,O,b,363,1,383.19999998807907,690603.0,7805,WL,C,11.0
5,15.944000005722046,learn,60000.0,Thu May 07 2026 09:55:28 GMT-0500 (Central Daylight Time),691085.6999999881,A,bo,O,o,90,1,482.69999998807907,690603.0,7805,WL,C,11.0
5,16.07800006866455,learn,60000.0,Thu May 07 2026 09:55:28 GMT-0500 (Central Daylight Time),691219.1999999881,A,boy,O,y,116,1,616.1999999880791,690603.0,7805,WL,C,11.0
5,16.378000020980835,learn,60000.0,Thu May 07 2026 09:55:28 GMT-0500 (Central Daylight Time),691519.099999994,A,boyenter,O,enter,285,1,916.0999999940395,690603.0,7805,WL,C,11.0
5,17.394999980926514,learn,60000.0,Thu May 07 2026 09:55:28 GMT-0500 (Central Daylight Time),692536.1999999881,A,f,O,f,997,1,1016.8999999910593,691519.299999997,7805,WL,C,12.0
5,17.527000188827515,learn,60000.0,Thu May 07 2026 09:55:28 GMT-0500 (Central Daylight Time),692668.6999999881,A,fl,O,l,114,1,1149.3999999910593,691519.299999997,7805,WL,C,12.0
5,17.64400005340576,learn,60000.0,Thu May 07 2026 09:55:28 GMT-0500 (Central Daylight Time),692785.5,A,fla,O,a,94,1,1266.2000000029802,691519.299999997,7805,WL,C,12.0
5,17.794000148773193,learn,60000.0,Thu May 07 2026 09:55:28 GMT-0500 (Central Daylight Time),692935.3999999911,A,flag,O,g,135,1,1416.0999999940395,691519.299999997,7805,WL,C,12.0
5,17.97699999809265,learn,60000.0,Thu May 07 2026 09:55:28 GMT-0500 (Central Daylight Time),693118.6999999881,A,flagenter,O,enter,161,1,1599.3999999910593,691519.299999997,7805,WL,C,12.0
5,18.24400019645691,learn,60000.0,Thu May 07 2026 09:55:28 GMT-0500 (Central Daylight Time),693385.1999999881,A,s,O,s,252,1,266.29999999701977,693118.8999999911,7805,WL,C,13.0
5,18.41100001335144,learn,60000.0,Thu May 07 2026 09:55:28 GMT-0500 (Central Daylight Time),693552.099999994,A,sh,O,h,144,1,433.20000000298023,693118.8999999911,7805,WL,C,13.0
5,18.528000116348267,learn,60000.0,Thu May 07 2026 09:55:28 GMT-0500 (Central Daylight Time),693669.3999999911,A,sho,O,o,106,1,550.5,693118.8999999911,7805,WL,C,13.0
5,18.66000008583069,learn,60000.0,Thu May 07 2026 09:55:28 GMT-0500 (Central Daylight Time),693801.6999999881,A,shor,O,r,116,1,682.7999999970198,693118.8999999911,7805,WL,C,13.0
5,18.82800006866455,learn,60000.0,Thu May 07 2026 09:55:28 GMT-0500 (Central Daylight Time),693969.1999999881,A,shore,O,e,146,1,850.2999999970198,693118.8999999911,7805,WL,C,13.0
5,19.127000093460083,learn,60000.0,Thu May 07 2026 09:55:28 GMT-0500 (Central Daylight Time),694268.299999997,A,shoreenter,O,enter,277,1,1149.4000000059605,693118.8999999911,7805,WL,C,13.0
5,21.37600016593933,learn,60000.0,Thu May 07 2026 09:55:28 GMT-0500 (Central Daylight Time),696517.299999997,A,c,O,c,2240,1,2248.7000000029802,694268.599999994,7805,WL,C,14.0
5,21.509000062942505,learn,60000.0,Thu May 07 2026 09:55:28 GMT-0500 (Central Daylight Time),696650.6999999881,A,ca,O,a,123,1,2382.0999999940395,694268.599999994,7805,WL,C,14.0
5,21.677000045776367,learn,60000.0,Thu May 07 2026 09:55:28 GMT-0500 (Central Daylight Time),696818.599999994,A,cam,O,m,146,1,2550.0,694268.599999994,7805,WL,C,14.0
5,21.8270001411438,learn,60000.0,Thu May 07 2026 09:55:28 GMT-0500 (Central Daylight Time),696968.0,A,camp,O,p,128,1,2699.4000000059605,694268.599999994,7805,WL,C,14.0
5,22.12600016593933,learn,60000.0,Thu May 07 2026 09:55:28 GMT-0500 (Central Daylight Time),697267.6999999881,A,campenter,O,enter,292,1,2999.0999999940395,694268.599999994,7805,WL,C,14.0
5,24.225000143051147,learn,60000.0,Thu May 07 2026 09:55:28 GMT-0500 (Central Daylight Time),699366.799999997,A,c,O,c,2087,1,2098.9000000059605,697267.8999999911,7805,WL,C,15.0
5,24.35800004005432,learn,60000.0,Thu May 07 2026 09:55:28 GMT-0500 (Central Daylight Time),699499.5,A,ca,O,a,124,1,2231.6000000089407,697267.8999999911,7805,WL,C,15.0
5,24.55900001525879,learn,60000.0,Thu May 07 2026 09:55:28 GMT-0500 (Central Daylight Time),699700.599999994,A,cat,O,t,185,1,2432.7000000029802,697267.8999999911,7805,WL,C,15.0
5,24.7260000705719,learn,60000.0,Thu May 07 2026 09:55:28 GMT-0500 (Central Daylight Time),699867.1999999881,A,catt,O,t,151,1,2599.2999999970198,697267.8999999911,7805,WL,C,15.0
5,24.926000118255615,learn,60000.0,Thu May 07 2026 09:55:28 GMT-0500 (Central Daylight Time),700067.799999997,A,cattl,O,l,193,1,2799.9000000059605,697267.8999999911,7805,WL,C,15.0
5,25.009000062942505,learn,60000.0,Thu May 07 2026 09:55:28 GMT-0500 (Central Daylight Time),700150.099999994,A,cattle,O,e,63,1,2882.2000000029802,697267.8999999911,7805,WL,C,15.0
5,25.375,learn,60000.0,Thu May 07 2026 09:55:28 GMT-0500 (Central Daylight Time),700516.099999994,A,cattleenter,O,enter,359,1,3248.2000000029802,697267.8999999911,7805,WL,C,15.0
6,0.7690000534057617,distr,59230.99994659424,Thu May 07 2026 09:55:28 GMT-0500 (Central Daylight Time),786339.5,B,m,O,m,763,1,768.2000000029802,785571.299999997,7805,WL,C,1.0
6,0.935999870300293,distr,59064.00012969971,Thu May 07 2026 09:55:28 GMT-0500 (Central Daylight Time),786507.0,B,mo,O,o,143,1,935.7000000029802,785571.299999997,7805,WL,C,1.0
6,1.1019999980926514,distr,58898.00000190735,Thu May 07 2026 09:55:28 GMT-0500 (Central Daylight Time),786673.299999997,B,mon,O,n,144,1,1102.0,785571.299999997,7805,WL,C,1.0
6,1.500999927520752,distr,58499.00007247925,Thu May 07 2026 09:55:28 GMT-0500 (Central Daylight Time),787072.1999999881,B,mone,O,e,377,1,1500.8999999910593,785571.299999997,7805,WL,C,1.0
6,1.6019999980926514,distr,58398.00000190735,Thu May 07 2026 09:55:28 GMT-0500 (Central Daylight Time),787173.099999994,B,money,O,y,92,1,1601.7999999970198,785571.299999997,7805,WL,C,1.0
6,1.9019999504089355,distr,58098.000049591064,Thu May 07 2026 09:55:28 GMT-0500 (Central Daylight Time),787473.1999999881,B,moneyenter,O,enter,278,1,1901.8999999910593,785571.299999997,7805,WL,C,1.0
6,2.419999837875366,distr,57580.000162124634,Thu May 07 2026 09:55:28 GMT-0500 (Central Daylight Time),787991.099999994,B,h,O,h,507,1,517.7000000029802,787473.3999999911,7805,WL,C,2.0
6,2.753999948501587,distr,57246.00005149841,Thu May 07 2026 09:55:28 GMT-0500 (Central Daylight Time),788324.6999999881,B,ho,O,o,309,1,851.2999999970198,787473.3999999911,7805,WL,C,2.0
6,2.9010000228881836,distr,57098.99997711182,Thu May 07 2026 09:55:28 GMT-0500 (Central Daylight Time),788471.799999997,B,hot,O,t,135,1,998.4000000059605,787473.3999999911,7805,WL,C,2.0
6,3.1029999256134033,distr,56897.0000743866,Thu May 07 2026 09:55:28 GMT-0500 (Central Daylight Time),788673.3999999911,B,hote,O,e,179,1,1200.0,787473.3999999911,7805,WL,C,2.0
6,3.2170000076293945,distr,56782.999992370605,Thu May 07 2026 09:55:28 GMT-0500 (Central Daylight Time),788787.599999994,B,hotel,O,l,104,1,1314.2000000029802,787473.3999999911,7805,WL,C,2.0
6,3.434000015258789,distr,56565.99998474121,Thu May 07 2026 09:55:28 GMT-0500 (Central Daylight Time),789005.099999994,B,hotelenter,O,enter,201,1,1531.7000000029802,787473.3999999911,7805,WL,C,2.0
6,4.033999919891357,distr,55966.00008010864,Thu May 07 2026 09:55:28 GMT-0500 (Central Daylight Time),789604.799999997,B,m,O,m,583,1,599.5,789005.299999997,7805,WL,C,3.0
6,4.203000068664551,distr,55796.99993133545,Thu May 07 2026 09:55:28 GMT-0500 (Central Daylight Time),789773.299999997,B,mo,O,o,146,1,768.0,789005.299999997,7805,WL,C,3.0
6,4.317999839782715,distr,55682.000160217285,Thu May 07 2026 09:55:28 GMT-0500 (Central Daylight Time),789888.3999999911,B,mot,O,t,102,1,883.0999999940395,789005.299999997,7805,WL,C,3.0
6,4.434000015258789,distr,55565.99998474121,Thu May 07 2026 09:55:28 GMT-0500 (Central Daylight Time),790004.3999999911,B,moth,O,h,96,1,999.0999999940395,789005.299999997,7805,WL,C,3.0
6,4.4659998416900635,distr,55534.00015830994,Thu May 07 2026 09:55:28 GMT-0500 (Central Daylight Time),790036.8999999911,B,mothe,O,e,21,1,1031.5999999940395,789005.299999997,7805,WL,C,3.0
6,4.567999839782715,distr,55432.000160217285,Thu May 07 2026 09:55:28 GMT-0500 (Central Daylight Time),790138.6999999881,B,mother,O,r,87,1,1133.3999999910593,789005.299999997,7805,WL,C,3.0
6,4.7829999923706055,distr,55217.000007629395,Thu May 07 2026 09:55:28 GMT-0500 (Central Daylight Time),790354.1999999881,B,motherenter,O,enter,195,1,1348.8999999910593,789005.299999997,7805,WL,C,3.0
6,5.266999959945679,distr,54733.00004005432,Thu May 07 2026 09:55:28 GMT-0500 (Central Daylight Time),790837.3999999911,B,c,O,c,466,1,483.0,790354.3999999911,7805,WL,C,4.0
6,5.368000030517578,distr,54631.99996948242,Thu May 07 2026 09:55:28 GMT-0500 (Central Daylight Time),790938.5,B,ch,O,h,77,1,584.1000000089407,790354.3999999911,7805,WL,C,4.0
6,5.500999927520752,distr,54499.00007247925,Thu May 07 2026 09:55:28 GMT-0500 (Central Daylight Time),791071.599999994,B,chr,O,r,118,1,717.2000000029802,790354.3999999911,7805,WL,C,4.0
6,5.6499998569488525,distr,54350.00014305115,Thu May 07 2026 09:55:28 GMT-0500 (Central Daylight Time),791221.1999999881,B,chri,O,i,140,1,866.7999999970198,790354.3999999911,7805,WL,C,4.0
6,5.766999959945679,distr,54233.00004005432,Thu May 07 2026 09:55:28 GMT-0500 (Central Daylight Time),791338.299999997,B,chris,O,s,111,1,983.9000000059605,790354.3999999911,7805,WL,C,4.0
6,5.9670000076293945,distr,54032.999992370605,Thu May 07 2026 09:55:28 GMT-0500 (Central Daylight Time),791537.599999994,B,christ,O,t,186,1,1183.2000000029802,790354.3999999911,7805,WL,C,4.0
6,6.200000047683716,distr,53799.999952316284,Thu May 07 2026 09:55:28 GMT-0500 (Central Daylight Time),791771.0,B,christm,O,m,213,1,1416.6000000089407,790354.3999999911,7805,WL,C,4.0
6,6.299999952316284,distr,53700.000047683716,Thu May 07 2026 09:55:28 GMT-0500 (Central Daylight Time),791871.0,B,christma,O,a,81,1,1516.6000000089407,790354.3999999911,7805,WL,C,4.0
6,6.500999927520752,distr,53499.00007247925,Thu May 07 2026 09:55:28 GMT-0500 (Central Daylight Time),792072.299999997,B,christmas,O,s,189,1,1717.9000000059605,790354.3999999911,7805,WL,C,4.0
6,6.6499998569488525,distr,53350.00014305115,Thu May 07 2026 09:55:28 GMT-0500 (Central Daylight Time),792220.3999999911,B,christmasenter,O,enter,130,1,1866.0,790354.3999999911,7805,WL,C,4.0
6,7.065999984741211,distr,52934.00001525879,Thu May 07 2026 09:55:28 GMT-0500 (Central Daylight Time),792636.599999994,B,v,O,v,407,1,415.90000000596046,792220.6999999881,7805,WL,C,5.0
6,7.165999889373779,distr,52834.00011062622,Thu May 07 2026 09:55:28 GMT-0500 (Central Daylight Time),792737.099999994,B,va,O,a,84,1,516.4000000059605,792220.6999999881,7805,WL,C,5.0
6,7.348999977111816,distr,52651.00002288818,Thu May 07 2026 09:55:28 GMT-0500 (Central Daylight Time),792920.1999999881,B,val,O,l,161,1,699.5,792220.6999999881,7805,WL,C,5.0
6,7.5,distr,52500.0,Thu May 07 2026 09:55:28 GMT-0500 (Central Daylight Time),793070.799999997,B,vall,O,l,132,1,850.1000000089407,792220.6999999881,7805,WL,C,5.0
6,7.700000047683716,distr,52299.999952316284,Thu May 07 2026 09:55:28 GMT-0500 (Central Daylight Time),793270.8999999911,B,valle,O,e,187,1,1050.2000000029802,792220.6999999881,7805,WL,C,5.0
6,7.816999912261963,distr,52183.00008773804,Thu May 07 2026 09:55:28 GMT-0500 (Central Daylight Time),793387.8999999911,B,valley,O,y,99,1,1167.2000000029802,792220.6999999881,7805,WL,C,5.0
6,8.132999897003174,distr,51867.000102996826,Thu May 07 2026 09:55:28 GMT-0500 (Central Daylight Time),793703.5,B,valleyenter,O,enter,295,1,1482.800000011921,792220.6999999881,7805,WL,C,5.0
6,8.932999849319458,distr,51067.00015068054,Thu May 07 2026 09:55:28 GMT-0500 (Central Daylight Time),794504.1999999881,B,s,O,s,789,1,800.5,793703.6999999881,7805,WL,C,6.0
6,9.052000045776367,distr,50947.99995422363,Thu May 07 2026 09:55:28 GMT-0500 (Central Daylight Time),794622.8999999911,B,sk,O,k,108,1,919.2000000029802,793703.6999999881,7805,WL,C,6.0
6,9.249000072479248,distr,50750.99992752075,Thu May 07 2026 09:55:28 GMT-0500 (Central Daylight Time),794819.6999999881,B,sky,O,y,180,1,1116.0,793703.6999999881,7805,WL,C,6.0
6,9.58299994468689,distr,50417.00005531311,Thu May 07 2026 09:55:28 GMT-0500 (Central Daylight Time),795154.099999994,B,skyenter,O,enter,314,1,1450.4000000059605,793703.6999999881,7805,WL,C,6.0
6,10.914999961853027,distr,49085.00003814697,Thu May 07 2026 09:55:28 GMT-0500 (Central Daylight Time),796486.0,B,b,O,b,1323,1,1331.6000000089407,795154.3999999911,7805,WL,C,7.0
6,11.016000032424927,distr,48983.99996757507,Thu May 07 2026 09:55:28 GMT-0500 (Central Daylight Time),796587.1999999881,B,bu,O,u,85,1,1432.7999999970198,795154.3999999911,7805,WL,C,7.0
6,11.214999914169312,distr,48785.00008583069,Thu May 07 2026 09:55:28 GMT-0500 (Central Daylight Time),796786.0,B,but,O,t,184,1,1631.6000000089407,795154.3999999911,7805,WL,C,7.0
6,11.381999969482422,distr,48618.00003051758,Thu May 07 2026 09:55:28 GMT-0500 (Central Daylight Time),796953.299999997,B,butt,O,t,161,1,1798.9000000059605,795154.3999999911,7805,WL,C,7.0
6,11.530999898910522,distr,48469.00010108948,Thu May 07 2026 09:55:28 GMT-0500 (Central Daylight Time),797101.799999997,B,butte,O,e,140,1,1947.4000000059605,795154.3999999911,7805,WL,C,7.0
6,11.648000001907349,distr,48351.99999809265,Thu May 07 2026 09:55:28 GMT-0500 (Central Daylight Time),797219.0,B,butter,O,r,95,1,2064.6000000089407,795154.3999999911,7805,WL,C,7.0
6,12.030999898910522,distr,47969.00010108948,Thu May 07 2026 09:55:28 GMT-0500 (Central Daylight Time),797602.1999999881,B,butterenter,O,enter,366,1,2447.7999999970198,795154.3999999911,7805,WL,C,7.0
6,15.200000047683716,distr,44799.999952316284,Thu May 07 2026 09:55:28 GMT-0500 (Central Daylight Time),800770.5,B,h,O,h,3154,1,3168.1000000089407,797602.3999999911,7805,WL,C,8.0
6,15.329999923706055,distr,44670.000076293945,Thu May 07 2026 09:55:28 GMT-0500 (Central Daylight Time),800900.8999999911,B,ho,O,o,120,1,3298.5,797602.3999999911,7805,WL,C,8.0
6,15.513999938964844,distr,44486.000061035156,Thu May 07 2026 09:55:28 GMT-0500 (Central Daylight Time),801084.3999999911,B,hot,O,t,165,1,3482.0,797602.3999999911,7805,WL,C,8.0
6,15.596999883651733,distr,44403.00011634827,Thu May 07 2026 09:55:28 GMT-0500 (Central Daylight Time),801167.799999997,B,hote,O,e,70,1,3565.4000000059605,797602.3999999911,7805,WL,C,8.0
6,15.69700002670288,distr,44302.99997329712,Thu May 07 2026 09:55:28 GMT-0500 (Central Daylight Time),801267.8999999911,B,hotel,O,l,94,1,3665.5,797602.3999999911,7805,WL,C,8.0
6,15.947999954223633,distr,44052.00004577637,Thu May 07 2026 09:55:28 GMT-0500 (Central Daylight Time),801518.299999997,B,hotelenter,O,enter,240,1,3915.9000000059605,797602.3999999911,7805,WL,C,8.0
6,20.414000034332275,distr,39585.999965667725,Thu May 07 2026 09:55:28 GMT-0500 (Central Daylight Time),805984.799999997,B,f,O,f,4447,1,4466.29999999702,801518.5,7805,WL,C,9.0
6,20.544999837875366,distr,39455.000162124634,Thu May 07 2026 09:55:28 GMT-0500 (Central Daylight Time),806116.1999999881,B,fl,O,l,112,1,4597.699999988079,801518.5,7805,WL,C,9.0
6,20.67899990081787,distr,39321.00009918213,Thu May 07 2026 09:55:28 GMT-0500 (Central Daylight Time),806249.799999997,B,fla,O,a,120,1,4731.29999999702,801518.5,7805,WL,C,9.0
6,20.828999996185303,distr,39171.0000038147,Thu May 07 2026 09:55:28 GMT-0500 (Central Daylight Time),806399.799999997,B,flag,O,g,137,1,4881.29999999702,801518.5,7805,WL,C,9.0
6,21.111999988555908,distr,38888.00001144409,Thu May 07 2026 09:55:28 GMT-0500 (Central Daylight Time),806682.799999997,B,flagenter,O,enter,267,1,5164.29999999702,801518.5,7805,WL,C,9.0
6,22.711999893188477,distr,37288.00010681152,Thu May 07 2026 09:55:28 GMT-0500 (Central Daylight Time),808283.1999999881,B,w,O,w,1580,1,1600.0999999940395,806683.099999994,7805,WL,C,10.0
6,22.810999870300293,distr,37189.00012969971,Thu May 07 2026 09:55:28 GMT-0500 (Central Daylight Time),808381.8999999911,B,wi,O,i,80,1,1698.7999999970198,806683.099999994,7805,WL,C,10.0
6,22.977999925613403,distr,37022.0000743866,Thu May 07 2026 09:55:28 GMT-0500 (Central Daylight Time),808549.099999994,B,win,O,n,147,1,1866.0,806683.099999994,7805,WL,C,10.0
6,23.09500002861023,distr,36904.99997138977,Thu May 07 2026 09:55:28 GMT-0500 (Central Daylight Time),808665.5,B,wint,O,t,100,1,1982.4000000059605,806683.099999994,7805,WL,C,10.0
6,23.14400005340576,distr,36855.99994659424,Thu May 07 2026 09:55:28 GMT-0500 (Central Daylight Time),808714.8999999911,B,winte,O,e,45,1,2031.7999999970198,806683.099999994,7805,WL,C,10.0
6,23.294999837875366,distr,36705.000162124634,Thu May 07 2026 09:55:28 GMT-0500 (Central Daylight Time),808866.0,B,winter,O,r,131,1,2182.9000000059605,806683.099999994,7805,WL,C,10.0
6,23.711999893188477,distr,36288.00010681152,Thu May 07 2026 09:55:28 GMT-0500 (Central Daylight Time),809282.5,B,winterenter,O,enter,402,1,2599.4000000059605,806683.099999994,7805,WL,C,10.0
6,26.293999910354614,distr,33706.000089645386,Thu May 07 2026 09:55:28 GMT-0500 (Central Daylight Time),811865.099999994,B,s,O,s,2569,1,2582.2999999970198,809282.799999997,7805,WL,C,11.0
6,26.460999965667725,distr,33539.000034332275,Thu May 07 2026 09:55:28 GMT-0500 (Central Daylight Time),812031.599999994,B,sp,O,p,141,1,2748.7999999970198,809282.799999997,7805,WL,C,11.0
6,26.64299988746643,distr,33357.00011253357,Thu May 07 2026 09:55:28 GMT-0500 (Central Daylight Time),812214.0,B,spr,O,r,162,1,2931.2000000029802,809282.799999997,7805,WL,C,11.0
6,26.792999982833862,distr,33207.00001716614,Thu May 07 2026 09:55:28 GMT-0500 (Central Daylight Time),812364.0,B,spri,O,i,131,1,3081.2000000029802,809282.799999997,7805,WL,C,11.0
6,26.876999855041504,distr,33123.000144958496,Thu May 07 2026 09:55:28 GMT-0500 (Central Daylight Time),812447.299999997,B,sprin,O,n,68,1,3164.5,809282.799999997,7805,WL,C,11.0
6,26.9760000705719,distr,33023.9999294281,Thu May 07 2026 09:55:28 GMT-0500 (Central Daylight Time),812547.099999994,B,spring,O,g,83,1,3264.2999999970198,809282.799999997,7805,WL,C,11.0
6,27.177000045776367,distr,32822.99995422363,Thu May 07 2026 09:55:28 GMT-0500 (Central Daylight Time),812747.6999999881,B,springenter,O,enter,184,1,3464.8999999910593,809282.799999997,7805,WL,C,11.0
6,31.592000007629395,distr,28407.999992370605,Thu May 07 2026 09:55:28 GMT-0500 (Central Daylight Time),817162.8999999911,B,b,O,b,4411,1,4415.0,812747.8999999911,7805,WL,C,12.0
6,31.72499990463257,distr,28275.00009536743,Thu May 07 2026 09:55:28 GMT-0500 (Central Daylight Time),817295.6999999881,B,bu,O,u,119,1,4547.79999999702,812747.8999999911,7805,WL,C,12.0
6,31.89199995994568,distr,28108.00004005432,Thu May 07 2026 09:55:28 GMT-0500 (Central Daylight Time),817462.8999999911,B,but,O,t,149,1,4715.0,812747.8999999911,7805,WL,C,12.0
6,32.04299998283386,distr,27957.000017166138,Thu May 07 2026 09:55:28 GMT-0500 (Central Daylight Time),817613.5,B,butt,O,t,134,1,4865.600000008941,812747.8999999911,7805,WL,C,12.0
6,32.192999839782715,distr,27807.000160217285,Thu May 07 2026 09:55:28 GMT-0500 (Central Daylight Time),817764.0,B,butte,O,e,141,1,5016.100000008941,812747.8999999911,7805,WL,C,12.0
6,32.29200005531311,distr,27707.99994468689,Thu May 07 2026 09:55:28 GMT-0500 (Central Daylight Time),817863.099999994,B,butter,O,r,88,1,5115.20000000298,812747.8999999911,7805,WL,C,12.0
6,32.507999897003174,distr,27492.000102996826,Thu May 07 2026 09:55:28 GMT-0500 (Central Daylight Time),818078.799999997,B,butterenter,O,enter,195,1,5330.9000000059605,812747.8999999911,7805,WL,C,12.0
6,36.09099984169006,distr,23909.000158309937,Thu May 07 2026 09:55:28 GMT-0500 (Central Daylight Time),821662.099999994,B,m,O,m,3566,1,3583.0999999940395,818079.0,7805,WL,C,13.0
6,36.27300000190735,distr,23726.99999809265,Thu May 07 2026 09:55:28 GMT-0500 (Central Daylight Time),821844.0,B,mo,O,o,165,1,3765.0,818079.0,7805,WL,C,13.0
6,36.407999992370605,distr,23592.000007629395,Thu May 07 2026 09:55:28 GMT-0500 (Central Daylight Time),821978.3999999911,B,mot,O,t,115,1,3899.3999999910593,818079.0,7805,WL,C,13.0
6,36.50699996948242,distr,23493.000030517578,Thu May 07 2026 09:55:28 GMT-0500 (Central Daylight Time),822078.0,B,moth,O,h,87,1,3999.0,818079.0,7805,WL,C,13.0
6,36.639999866485596,distr,23360.000133514404,Thu May 07 2026 09:55:28 GMT-0500 (Central Daylight Time),822211.1999999881,B,mothe,O,e,115,1,4132.199999988079,818079.0,7805,WL,C,13.0
6,36.70700001716614,distr,23292.999982833862,Thu May 07 2026 09:55:28 GMT-0500 (Central Daylight Time),822277.5,B,mother,O,r,47,1,4198.5,818079.0,7805,WL,C,13.0
6,36.907999992370605,distr,23092.000007629395,Thu May 07 2026 09:55:28 GMT-0500 (Central Daylight Time),822479.0,B,motherenter,O,enter,180,1,4400.0,818079.0,7805,WL,C,13.0
6,40.638999938964844,distr,19361.000061035156,Thu May 07 2026 09:55:28 GMT-0500 (Central Daylight Time),826209.8999999911,B,s,O,s,3718,1,3730.5999999940395,822479.299999997,7805,WL,C,14.0
6,40.78999996185303,distr,19210.000038146973,Thu May 07 2026 09:55:28 GMT-0500 (Central Daylight Time),826360.799999997,B,sp,O,p,133,1,3881.5,822479.299999997,7805,WL,C,14.0
6,40.94000005722046,distr,19059.99994277954,Thu May 07 2026 09:55:28 GMT-0500 (Central Daylight Time),826511.099999994,B,spr,O,r,138,1,4031.7999999970198,822479.299999997,7805,WL,C,14.0
6,41.07299995422363,distr,18927.000045776367,Thu May 07 2026 09:55:28 GMT-0500 (Central Daylight Time),826643.8999999911,B,spri,O,i,118,1,4164.5999999940395,822479.299999997,7805,WL,C,14.0
6,41.1729998588562,distr,18827.0001411438,Thu May 07 2026 09:55:28 GMT-0500 (Central Daylight Time),826743.8999999911,B,sprin,O,n,80,1,4264.5999999940395,822479.299999997,7805,WL,C,14.0
6,41.289000034332275,distr,18710.999965667725,Thu May 07 2026 09:55:28 GMT-0500 (Central Daylight Time),826860.299999997,B,spring,O,g,98,1,4381.0,822479.299999997,7805,WL,C,14.0
6,41.52300000190735,distr,18476.99999809265,Thu May 07 2026 09:55:28 GMT-0500 (Central Daylight Time),827094.0,B,springenter,O,enter,223,1,4614.70000000298,822479.299999997,7805,WL,C,14.0
6,42.7720000743866,distr,17227.999925613403,Thu May 07 2026 09:55:28 GMT-0500 (Central Daylight Time),828342.599999994,B,m,O,m,1238,1,1248.2999999970198,827094.299999997,7805,WL,C,15.0
6,42.92199993133545,distr,17078.00006866455,Thu May 07 2026 09:55:28 GMT-0500 (Central Daylight Time),828493.1999999881,B,mo,O,o,131,1,1398.8999999910593,827094.299999997,7805,WL,C,15.0
6,43.2720000743866,distr,16727.999925613403,Thu May 07 2026 09:55:28 GMT-0500 (Central Daylight Time),828843.1999999881,B,mon,O,n,335,1,1748.8999999910593,827094.299999997,7805,WL,C,15.0
6,43.65599989891052,distr,16344.000101089478,Thu May 07 2026 09:55:28 GMT-0500 (Central Daylight Time),829226.799999997,B,mone,O,e,362,1,2132.5,827094.299999997,7805,WL,C,15.0
6,43.7720000743866,distr,16227.999925613403,Thu May 07 2026 09:55:28 GMT-0500 (Central Daylight Time),829342.6999999881,B,money,O,y,107,1,2248.3999999910593,827094.299999997,7805,WL,C,15.0
6,44.07099986076355,distr,15929.00013923645,Thu May 07 2026 09:55:28 GMT-0500 (Central Daylight Time),829642.3999999911,B,moneyenter,O,enter,286,1,2548.0999999940395,827094.299999997,7805,WL,C,15.0
7,1.998999834060669,immed,58001.00016593933,Thu May 07 2026 09:55:28 GMT-0500 (Central Daylight Time),856084.099999994,A,s,O,s,1984,1,1999.2000000029802,854084.8999999911,7805,WL,C,1.0
7,2.0809998512268066,immed,57919.00014877319,Thu May 07 2026 09:55:28 GMT-0500 (Central Daylight Time),856165.6999999881,A,sk,O,k,61,1,2080.7999999970198,854084.8999999911,7805,WL,C,1.0
7,2.3329999446868896,immed,57667.00005531311,Thu May 07 2026 09:55:28 GMT-0500 (Central Daylight Time),856417.8999999911,A,sky,O,y,237,1,2333.0,854084.8999999911,7805,WL,C,1.0
7,3.1649999618530273,immed,56835.00003814697,Thu May 07 2026 09:55:28 GMT-0500 (Central Daylight Time),857250.099999994,A,skyenter,O,enter,814,1,3165.2000000029802,854084.8999999911,7805,WL,C,1.0
7,5.565999984741211,immed,54434.00001525879,Thu May 07 2026 09:55:28 GMT-0500 (Central Daylight Time),859650.3999999911,A,c,O,c,2395,1,2400.0999999940395,857250.299999997,7805,WL,C,2.0
7,5.7149999141693115,immed,54285.00008583069,Thu May 07 2026 09:55:28 GMT-0500 (Central Daylight Time),859799.799999997,A,ca,O,a,129,1,2549.5,857250.299999997,7805,WL,C,2.0
7,5.914000034332275,immed,54085.999965667725,Thu May 07 2026 09:55:28 GMT-0500 (Central Daylight Time),859998.3999999911,A,cat,O,t,178,1,2748.0999999940395,857250.299999997,7805,WL,C,2.0
7,6.082000017166138,immed,53917.99998283386,Thu May 07 2026 09:55:28 GMT-0500 (Central Daylight Time),860166.799999997,A,catt,O,t,149,1,2916.5,857250.299999997,7805,WL,C,2.0
7,6.230999946594238,immed,53769.00005340576,Thu May 07 2026 09:55:28 GMT-0500 (Central Daylight Time),860315.599999994,A,cattl,O,l,140,1,3065.2999999970198,857250.299999997,7805,WL,C,2.0
7,6.348999977111816,immed,53651.00002288818,Thu May 07 2026 09:55:28 GMT-0500 (Central Daylight Time),860433.299999997,A,cattle,O,e,96,1,3183.0,857250.299999997,7805,WL,C,2.0
7,6.516000032424927,immed,53483.99996757507,Thu May 07 2026 09:55:28 GMT-0500 (Central Daylight Time),860601.299999997,A,cattleenter,O,enter,146,1,3351.0,857250.299999997,7805,WL,C,2.0
7,6.865999937057495,immed,53134.000062942505,Thu May 07 2026 09:55:28 GMT-0500 (Central Daylight Time),860950.3999999911,A,w,O,w,342,1,348.8999999910593,860601.5,7805,WL,C,3.0
7,7.014999866485596,immed,52985.000133514404,Thu May 07 2026 09:55:28 GMT-0500 (Central Daylight Time),861099.5,A,wh,O,h,141,1,498.0,860601.5,7805,WL,C,3.0
7,7.0980000495910645,immed,52901.999950408936,Thu May 07 2026 09:55:28 GMT-0500 (Central Daylight Time),861182.5,A,whe,O,e,61,1,581.0,860601.5,7805,WL,C,3.0
7,7.213000059127808,immed,52786.99994087219,Thu May 07 2026 09:55:28 GMT-0500 (Central Daylight Time),861298.299999997,A,whea,O,a,93,1,696.7999999970198,860601.5,7805,WL,C,3.0
7,7.296000003814697,immed,52703.9999961853,Thu May 07 2026 09:55:28 GMT-0500 (Central Daylight Time),861381.0,A,wheat,O,t,72,1,779.5,860601.5,7805,WL,C,3.0
7,7.546999931335449,immed,52453.00006866455,Thu May 07 2026 09:55:28 GMT-0500 (Central Daylight Time),861631.799999997,A,wheatenter,O,enter,238,1,1030.2999999970198,860601.5,7805,WL,C,3.0
7,8.296000003814697,immed,51703.9999961853,Thu May 07 2026 09:55:28 GMT-0500 (Central Daylight Time),862380.599999994,A,c,O,c,739,1,748.5,861632.099999994,7805,WL,C,4.0
7,8.363999843597412,immed,51636.00015640259,Thu May 07 2026 09:55:28 GMT-0500 (Central Daylight Time),862448.8999999911,A,co,O,o,48,1,816.7999999970198,861632.099999994,7805,WL,C,4.0
7,8.565000057220459,immed,51434.99994277954,Thu May 07 2026 09:55:28 GMT-0500 (Central Daylight Time),862649.3999999911,A,cor,O,r,179,1,1017.2999999970198,861632.099999994,7805,WL,C,4.0
7,8.679999828338623,immed,51320.00017166138,Thu May 07 2026 09:55:28 GMT-0500 (Central Daylight Time),862765.0,A,corn,O,n,98,1,1132.9000000059605,861632.099999994,7805,WL,C,4.0
7,8.930999994277954,immed,51069.000005722046,Thu May 07 2026 09:55:28 GMT-0500 (Central Daylight Time),863015.799999997,A,cornenter,O,enter,239,1,1383.7000000029802,861632.099999994,7805,WL,C,4.0
7,10.679999828338623,immed,49320.00017166138,Thu May 07 2026 09:55:28 GMT-0500 (Central Daylight Time),864764.3999999911,A,f,O,f,1742,1,1748.3999999910593,863016.0,7805,WL,C,5.0
7,10.829999923706055,immed,49170.000076293945,Thu May 07 2026 09:55:28 GMT-0500 (Central Daylight Time),864914.799999997,A,fl,O,l,129,1,1898.7999999970198,863016.0,7805,WL,C,5.0
7,10.911999940872192,immed,49088.00005912781,Thu May 07 2026 09:55:28 GMT-0500 (Central Daylight Time),864997.099999994,A,fla,O,a,72,1,1981.0999999940395,863016.0,7805,WL,C,5.0
7,11.046000003814697,immed,48953.9999961853,Thu May 07 2026 09:55:28 GMT-0500 (Central Daylight Time),865130.799999997,A,flag,O,g,117,1,2114.7999999970198,863016.0,7805,WL,C,5.0
7,11.312999963760376,immed,48687.000036239624,Thu May 07 2026 09:55:28 GMT-0500 (Central Daylight Time),865397.8999999911,A,flagenter,O,enter,248,1,2381.8999999910593,863016.0,7805,WL,C,5.0
7,12.246999979019165,immed,47753.000020980835,Thu May 07 2026 09:55:28 GMT-0500 (Central Daylight Time),866331.6999999881,A,s,O,s,913,1,933.5,865398.1999999881,7805,WL,C,6.0
7,12.361999988555908,immed,47638.00001144409,Thu May 07 2026 09:55:28 GMT-0500 (Central Daylight Time),866447.0,A,sh,O,h,104,1,1048.800000011921,865398.1999999881,7805,WL,C,6.0
7,12.461999893188477,immed,47538.00010681152,Thu May 07 2026 09:55:28 GMT-0500 (Central Daylight Time),866546.299999997,A,sho,O,o,82,1,1148.1000000089407,865398.1999999881,7805,WL,C,6.0
7,12.579999923706055,immed,47420.000076293945,Thu May 07 2026 09:55:28 GMT-0500 (Central Daylight Time),866664.599999994,A,shor,O,r,105,1,1266.4000000059605,865398.1999999881,7805,WL,C,6.0
7,12.694999933242798,immed,47305.0000667572,Thu May 07 2026 09:55:28 GMT-0500 (Central Daylight Time),866779.5,A,shore,O,e,94,1,1381.300000011921,865398.1999999881,7805,WL,C,6.0
