acc_sum,block,block_c,condition,correct,correct_response,datetime,endtime,flanker,jitter,project,response,response_test_buffer_response,response_test_target_response,response_time,response_time_test_buffer_response,response_time_test_target_response,row_sel,session_number,start_end,starttime,subject_id,target,task,task_vers,time_test_buffer,time_test_buffer_response,time_test_constants,time_test_flanker,time_test_jitter,time_test_logger,time_test_target,time_test_target_response,time_test_variables,trial
0,prac,1,inc,0,z,Mon Jun 09 2025 09:05:47 GMT-0500 (Central Daylight Time),186964.89999997616,iron,900,I,m,,,685,,,6,1,2894.699999988079,184070.19999998808,7161,pear,NF,C,,,,,,,,,,1
1,prac,1,inc,1,z,Mon Jun 09 2025 09:05:47 GMT-0500 (Central Daylight Time),190213.80000001192,cobalt,1100,I,z,,,850,,,4,1,3241.400000035763,186972.39999997616,7161,raisin,NF,C,,,,,,,,,,2
2,prac,1,inc,1,z,Mon Jun 09 2025 09:05:47 GMT-0500 (Central Daylight Time),192996.5,copper,900,I,z,,,569,,,2,1,2778.300000011921,190218.19999998808,7161,cherry,NF,C,,,,,,,,,,3
3,prac,1,con,1,z,Mon Jun 09 2025 09:05:47 GMT-0500 (Central Daylight Time),195695.39999997616,banana,800,I,z,,,599,,,1,1,2694.599999964237,193000.80000001192,7161,banana,NF,C,,,,,,,,,,4
4,prac,1,con,1,m,Mon Jun 09 2025 09:05:47 GMT-0500 (Central Daylight Time),198578.89999997616,zinc,1000,I,m,,,579,,,15,1,2879.099999964237,195699.80000001192,7161,zinc,NF,C,,,,,,,,,,5
5,prac,1,con,1,z,Mon Jun 09 2025 09:05:47 GMT-0500 (Central Daylight Time),201260.30000001192,lime,800,I,z,,,569,,,5,1,2676.900000035763,198583.39999997616,7161,lime,NF,C,,,,,,,,,,6
6,prac,1,inc,1,m,Mon Jun 09 2025 09:05:47 GMT-0500 (Central Daylight Time),204192.69999998808,pear,900,I,m,,,646,,,14,1,2928.399999976158,201264.30000001192,7161,iron,NF,C,,,,,,,,,,7
7,prac,1,inc,1,m,Mon Jun 09 2025 09:05:47 GMT-0500 (Central Daylight Time),207558.30000001192,raisin,1100,I,m,,,957,,,12,1,3361.300000011921,204197.0,7161,cobalt,NF,C,,,,,,,,,,8
8,prac,1,con,1,m,Mon Jun 09 2025 09:05:47 GMT-0500 (Central Daylight Time),210440.89999997616,silver,1000,I,m,,,573,,,11,1,2878.5,207562.39999997616,7161,silver,NF,C,,,,,,,,,,9
9,prac,1,con,1,m,Mon Jun 09 2025 09:05:47 GMT-0500 (Central Daylight Time),213123.19999998808,bronze,800,I,m,,,570,,,9,1,2677.600000023842,210445.59999996424,7161,bronze,NF,C,,,,,,,,,,10
10,prac,1,inc,1,m,Mon Jun 09 2025 09:05:47 GMT-0500 (Central Daylight Time),215789.30000001192,cherry,900,I,m,,,459,,,10,1,2661.300000011921,213128.0,7161,copper,NF,C,,,,,,,,,,11
11,prac,1,con,1,z,Mon Jun 09 2025 09:05:47 GMT-0500 (Central Daylight Time),218738.19999998808,kiwi,1000,I,z,,,638,,,7,1,2944.100000023842,215794.09999996424,7161,kiwi,NF,C,,,,,,,,,,12
12,prac,1,con,1,z,Mon Jun 09 2025 09:05:47 GMT-0500 (Central Daylight Time),221654.30000001192,orange,1000,I,z,,,609,,,3,1,2911.7000000476837,218742.59999996424,7161,orange,NF,C,,,,,,,,,,13
13,prac,1,inc,1,z,Mon Jun 09 2025 09:05:47 GMT-0500 (Central Daylight Time),224786.0,lead,1100,I,z,,,729,,,8,1,3127.300000011921,221658.69999998808,7161,plum,NF,C,,,,,,,,,,14
14,prac,1,con,1,m,Mon Jun 09 2025 09:05:47 GMT-0500 (Central Daylight Time),227802.0,gold,800,I,m,,,917,,,13,1,3011.199999988079,224790.80000001192,7161,gold,NF,C,,,,,,,,,,15
15,prac,1,inc,1,m,Mon Jun 09 2025 09:05:47 GMT-0500 (Central Daylight Time),230900.89999997616,plum,1100,I,m,,,693,,,16,1,3094.599999964237,227806.30000001192,7161,lead,NF,C,,,,,,,,,,16
1,test,1,inc,1,m,Mon Jun 09 2025 09:05:47 GMT-0500 (Central Daylight Time),269389.09999996424,plum,1100,I,m,m,None,560,361.0,199.0,104,1,2196.0,267193.09999996424,7161,gold,NF,C,262725,262725,260895,262008,260895,263091,262525,262525,263091,1
2,test,1,con,1,z,Mon Jun 09 2025 09:05:47 GMT-0500 (Central Daylight Time),271371.59999996424,pear,800,I,z,z,None,646,446.0,200.0,41,1,1977.5,269394.09999996424,7161,pear,NF,C,264624,264624,263096,263908,263096,265074,264424,264424,265074,2
3,test,1,inc,1,m,Mon Jun 09 2025 09:05:47 GMT-0500 (Central Daylight Time),273504.5,pear,900,I,m,m,None,698,402.0,296.0,110,1,2128.400000035763,271376.09999996424,7161,iron,NF,C,266804,266804,265078,265990,265079,267207,266507,266507,267206,3
4,test,1,inc,1,z,Mon Jun 09 2025 09:05:47 GMT-0500 (Central Daylight Time),275586.8000000119,iron,900,I,z,z,None,637,438.0,199.0,46,1,2078.400000035763,273508.39999997616,7161,pear,NF,C,268839,268840,267210,268123,267211,269289,268640,268640,269289,4
5,test,1,inc,1,z,Mon Jun 09 2025 09:05:47 GMT-0500 (Central Daylight Time),277869.59999996424,cobalt,1100,I,z,z,None,644,444.0,200.0,8,1,2279.099999964237,275590.5,7161,banana,NF,C,271122,271122,269293,270406,269293,271572,270922,270922,271572,5
6,test,1,con,1,m,Mon Jun 09 2025 09:05:47 GMT-0500 (Central Daylight Time),280052.39999997616,copper,1000,I,m,m,None,645,446.0,199.0,75,1,2178.599999964237,277873.8000000119,7161,copper,NF,C,273304,273304,271576,272588,271576,273754,273105,273105,273754,6
7,test,1,con,1,m,Mon Jun 09 2025 09:05:47 GMT-0500 (Central Daylight Time),282468.09999996424,silver,1100,I,m,m,None,771,571.0,200.0,84,1,2411.399999976158,280056.6999999881,7161,silver,NF,C,275587,275587,273759,274871,273759,276170,275387,275387,276170,7
8,test,1,con,1,m,Mon Jun 09 2025 09:05:47 GMT-0500 (Central Daylight Time),284234.1999999881,silver,800,I,m,m,None,430,231.0,199.0,81,1,1761.800000011921,282472.39999997616,7161,silver,NF,C,277703,277703,276174,276987,276175,277936,277504,277504,277936,8
9,test,1,inc,1,m,Mon Jun 09 2025 09:05:47 GMT-0500 (Central Daylight Time),286250.3000000119,cherry,900,I,m,m,None,572,373.0,199.0,78,1,2012.2000000476837,284238.09999996424,7161,copper,NF,C,279569,279569,277940,278853,277941,279952,279369,279370,279952,9
10,test,1,inc,1,z,Mon Jun 09 2025 09:05:47 GMT-0500 (Central Daylight Time),288166.3000000119,bronze,800,I,z,z,None,568,369.0,199.0,5,1,1912.1000000238419,286254.1999999881,7161,banana,NF,C,281485,281485,279956,280769,279957,281868,281286,281286,281868,10
11,test,1,con,1,m,Mon Jun 09 2025 09:05:47 GMT-0500 (Central Daylight Time),290399.0,lead,900,I,m,m,None,792,593.0,199.0,122,1,2228.400000035763,288170.59999996424,7161,lead,NF,C,283501,283501,281873,282785,281873,284101,283302,283302,284101,11
12,test,1,con,1,z,Mon Jun 09 2025 09:05:47 GMT-0500 (Central Daylight Time),292298.3000000119,banana,900,I,z,z,None,456,256.0,200.0,2,1,1894.7000000476837,290403.59999996424,7161,banana,NF,C,285734,285734,284106,285018,284106,286000,285534,285534,286000,12
13,test,1,inc,1,z,Mon Jun 09 2025 09:05:47 GMT-0500 (Central Daylight Time),294614.5,lead,1100,I,z,z,None,676,476.0,200.0,56,1,2312.300000011921,292302.1999999881,7161,kiwi,NF,C,287834,287834,286004,287117,286005,288317,287633,287633,288317,13
14,test,1,con,1,m,Mon Jun 09 2025 09:05:47 GMT-0500 (Central Daylight Time),296527.5,copper,800,I,m,m,None,578,379.0,199.0,73,1,1908.800000011921,294618.6999999881,7161,copper,NF,C,289850,289850,288321,289133,288321,290230,289650,289650,290229,14
14,test,1,inc,0,m,Mon Jun 09 2025 09:05:47 GMT-0500 (Central Daylight Time),298879.8000000119,kiwi,1000,I,z,z,None,808,609.0,199.0,127,1,2347.400000035763,296532.39999997616,7161,lead,NF,C,291965,291965,290234,291249,290235,292582,291766,291766,292582,15
15,test,1,inc,1,m,Mon Jun 09 2025 09:05:47 GMT-0500 (Central Daylight Time),301312.09999996424,plum,1100,I,m,m,None,790,591.0,199.0,128,1,2428.2999999523163,298883.8000000119,7161,lead,NF,C,294415,294415,292586,293698,292586,295014,294215,294215,295014,16
16,test,1,con,1,m,Mon Jun 09 2025 09:05:47 GMT-0500 (Central Daylight Time),303411.5,copper,900,I,m,m,None,654,454.0,200.0,74,1,2095.5,301316.0,7161,copper,NF,C,296648,296648,295018,295931,295018,297114,296447,296447,297114,17
17,test,1,con,1,m,Mon Jun 09 2025 09:05:47 GMT-0500 (Central Daylight Time),305510.8000000119,gold,900,I,m,m,None,650,451.0,199.0,98,1,2095.600000023842,303415.1999999881,7161,gold,NF,C,298747,298747,297117,298030,297118,299213,298547,298547,299213,18
18,test,1,con,1,z,Mon Jun 09 2025 09:05:47 GMT-0500 (Central Daylight Time),308076.8000000119,orange,1100,I,z,z,None,920,720.0,200.0,20,1,2562.400000035763,305514.39999997616,7161,orange,NF,C,301046,301046,299216,300329,299217,301779,300846,300846,301779,19
19,test,1,inc,1,z,Mon Jun 09 2025 09:05:47 GMT-0500 (Central Daylight Time),310276.0,gold,800,I,z,z,None,861,662.0,199.0,45,1,2194.5,308081.5,7161,pear,NF,C,303312,303312,301784,302596,301784,303978,303112,303112,303978,20
20,test,1,inc,1,z,Mon Jun 09 2025 09:05:47 GMT-0500 (Central Daylight Time),312358.6999999881,iron,900,I,z,z,None,634,435.0,199.0,54,1,2078.899999976158,310279.8000000119,7161,kiwi,NF,C,305611,305611,303982,304895,303982,306061,305412,305412,306061,21
21,test,1,inc,1,m,Mon Jun 09 2025 09:05:47 GMT-0500 (Central Daylight Time),314524.6999999881,kiwi,1000,I,m,m,None,628,428.0,200.0,119,1,2160.800000011921,312363.89999997616,7161,zinc,NF,C,307794,307794,306066,307077,306066,308227,307594,307594,308227,22
22,test,1,inc,1,z,Mon Jun 09 2025 09:05:47 GMT-0500 (Central Daylight Time),316857.5,zinc,1000,I,z,z,None,789,590.0,199.0,63,1,2328.699999988079,314528.8000000119,7161,plum,NF,C,309960,309960,308231,309244,308231,310560,309760,309760,310560,23
23,test,1,inc,1,z,Mon Jun 09 2025 09:05:47 GMT-0500 (Central Daylight Time),318856.6999999881,bronze,800,I,z,z,None,656,457.0,199.0,29,1,1995.1000000238419,316861.59999996424,7161,raisin,NF,C,312093,312093,310564,311376,310564,312559,311892,311893,312559,24
24,test,1,con,1,z,Mon Jun 09 2025 09:05:47 GMT-0500 (Central Daylight Time),321056.1999999881,cherry,1000,I,z,z,None,665,450.0,215.0,11,1,2196.0,318860.1999999881,7161,cherry,NF,C,314308,314308,312562,313575,312563,314758,314093,314093,314758,25
25,test,1,inc,1,m,Mon Jun 09 2025 09:05:47 GMT-0500 (Central Daylight Time),323155.39999997616,cherry,900,I,m,m,None,655,455.0,200.0,94,1,2095.199999988079,321060.1999999881,7161,cobalt,NF,C,316391,316391,314762,315675,314762,316857,316191,316191,316857,26
26,test,1,con,1,z,Mon Jun 09 2025 09:05:47 GMT-0500 (Central Daylight Time),325621.1999999881,lime,1100,I,z,z,None,827,628.0,199.0,36,1,2461.5,323159.6999999881,7161,lime,NF,C,318690,318690,316862,317974,316862,319323,318491,318491,319323,27
27,test,1,con,1,z,Mon Jun 09 2025 09:05:47 GMT-0500 (Central Daylight Time),327870.59999996424,plum,1100,I,z,z,None,601,402.0,199.0,60,1,2245.5,325625.09999996424,7161,plum,NF,C,321156,321156,319327,320440,319327,321573,320957,320957,321573,28
28,test,1,con,1,m,Mon Jun 09 2025 09:05:47 GMT-0500 (Central Daylight Time),330003.59999996424,bronze,900,I,m,m,None,687,488.0,199.0,66,1,2129.5,327874.09999996424,7161,bronze,NF,C,323206,323206,321576,322489,321576,323706,323006,323006,323706,29
28,test,1,con,0,m,Mon Jun 09 2025 09:05:47 GMT-0500 (Central Daylight Time),332319.09999996424,gold,1000,I,z,z,None,776,576.0,200.0,99,1,2311.199999988079,330007.89999997616,7161,gold,NF,C,325438,325438,323710,324722,323710,326021,325238,325238,326021,30
29,test,1,inc,1,z,Mon Jun 09 2025 09:05:47 GMT-0500 (Central Daylight Time),334385.09999996424,copper,900,I,z,z,None,632,432.0,200.0,22,1,2062.2999999523163,332322.8000000119,7161,orange,NF,C,327654,327654,326025,326938,326025,328087,327454,327454,328087,31
30,test,1,con,1,z,Mon Jun 09 2025 09:05:47 GMT-0500 (Central Daylight Time),336251.3000000119,cherry,800,I,z,z,None,522,322.0,200.0,9,1,1862.2000000476837,334389.09999996424,7161,cherry,NF,C,329620,329620,328091,328904,328091,329953,329420,329420,329953,32
31,test,1,con,1,z,Mon Jun 09 2025 09:05:47 GMT-0500 (Central Daylight Time),338217.3000000119,kiwi,900,I,z,z,None,523,324.0,199.0,50,1,1962.4000000357628,336254.89999997616,7161,kiwi,NF,C,331586,331586,329957,330870,329957,331919,331387,331387,331919,33
32,test,1,inc,1,z,Mon Jun 09 2025 09:05:47 GMT-0500 (Central Daylight Time),340116.5,gold,800,I,z,z,None,553,354.0,199.0,37,1,1895.1000000238419,338221.39999997616,7161,lime,NF,C,333452,333452,331923,332736,331924,333819,333253,333253,333819,34
33,test,1,con,1,m,Mon Jun 09 2025 09:05:47 GMT-0500 (Central Daylight Time),342149.5,iron,900,I,m,m,None,585,386.0,199.0,106,1,2029.1000000238419,340120.39999997616,7161,iron,NF,C,335452,335452,333822,334735,333823,335852,335252,335252,335851,35
34,test,1,inc,1,z,Mon Jun 09 2025 09:05:47 GMT-0500 (Central Daylight Time),344365.39999997616,iron,900,I,z,z,None,665,461.0,204.0,38,1,2212.199999988079,342153.1999999881,7161,lime,NF,C,337601,337601,335855,336768,335856,338067,337397,337397,338067,36
35,test,1,con,1,m,Mon Jun 09 2025 09:05:47 GMT-0500 (Central Daylight Time),346481.3000000119,zinc,1000,I,m,m,None,572,373.0,199.0,115,1,2112.5,344368.8000000119,7161,zinc,NF,C,339800,339801,338071,339084,338071,340183,339601,339601,340183,37
36,test,1,inc,1,m,Mon Jun 09 2025 09:05:47 GMT-0500 (Central Daylight Time),348780.8000000119,orange,1000,I,m,m,None,761,562.0,199.0,79,1,2295.7000000476837,346485.09999996424,7161,copper,NF,C,341916,341916,340187,341200,340187,342483,341717,341717,342483,38
37,test,1,inc,1,z,Mon Jun 09 2025 09:05:47 GMT-0500 (Central Daylight Time),351063.3000000119,cobalt,1100,I,z,z,None,642,442.0,200.0,16,1,2278.400000035763,348784.89999997616,7161,cherry,NF,C,344316,344316,342487,343599,342487,344765,344116,344116,344765,39
38,test,1,con,1,z,Mon Jun 09 2025 09:05:47 GMT-0500 (Central Daylight Time),353462.5,pear,1100,I,z,z,None,752,552.0,200.0,44,1,2394.900000035763,351067.59999996424,7161,pear,NF,C,346598,346598,344770,345882,344770,347165,346398,346398,347165,40
39,test,1,inc,1,z,Mon Jun 09 2025 09:05:47 GMT-0500 (Central Daylight Time),355512.0,iron,900,I,z,z,None,599,400.0,199.0,62,1,2045.4000000357628,353466.59999996424,7161,plum,NF,C,348798,348798,347169,348081,347169,349214,348598,348598,349214,41
40,test,1,inc,1,z,Mon Jun 09 2025 09:05:47 GMT-0500 (Central Daylight Time),357511.39999997616,copper,900,I,z,z,None,559,359.0,200.0,30,1,1995.5999999642372,355515.8000000119,7161,raisin,NF,C,350847,350847,349218,350131,349218,351214,350647,350647,351213,42
41,test,1,inc,1,z,Mon Jun 09 2025 09:05:47 GMT-0500 (Central Daylight Time),359444.3000000119,copper,900,I,z,z,None,487,287.0,200.0,6,1,1929.0,357515.3000000119,7161,banana,NF,C,352847,352847,351217,352130,351218,353146,352647,352647,353146,43
42,test,1,con,1,m,Mon Jun 09 2025 09:05:47 GMT-0500 (Central Daylight Time),361460.3000000119,bronze,800,I,m,m,None,678,479.0,199.0,65,1,2012.5,359447.8000000119,7161,bronze,NF,C,354679,354679,353150,353963,353150,355162,354480,354480,355162,44
43,test,1,con,1,z,Mon Jun 09 2025 09:05:47 GMT-0500 (Central Daylight Time),363709.59999996424,kiwi,1100,I,z,z,None,610,411.0,199.0,52,1,2245.2999999523163,361464.3000000119,7161,kiwi,NF,C,356995,356995,355166,356279,355167,357412,356795,356796,357412,45
44,test,1,con,1,m,Mon Jun 09 2025 09:05:47 GMT-0500 (Central Daylight Time),365892.5,bronze,1000,I,m,m,None,645,445.0,200.0,67,1,2179.100000023842,363713.39999997616,7161,bronze,NF,C,359145,359145,357415,358429,357416,359595,358945,358945,359594,46
45,test,1,inc,1,m,Mon Jun 09 2025 09:05:47 GMT-0500 (Central Daylight Time),368258.39999997616,plum,1100,I,m,m,None,731,531.0,200.0,120,1,2362.199999988079,365896.1999999881,7161,zinc,NF,C,361427,361427,359598,360711,359599,361960,361227,361227,361960,47
46,test,1,inc,1,m,Mon Jun 09 2025 09:05:47 GMT-0500 (Central Daylight Time),370690.8000000119,raisin,1100,I,m,m,None,796,597.0,199.0,80,1,2428.7000000476837,368262.09999996424,7161,copper,NF,C,363793,363793,361964,363077,361964,364393,363593,363594,364393,48
47,test,1,inc,1,m,Mon Jun 09 2025 09:05:47 GMT-0500 (Central Daylight Time),372923.3000000119,lime,800,I,m,m,None,896,696.0,200.0,117,1,2228.900000035763,370694.39999997616,7161,zinc,NF,C,365926,365926,364396,365210,364397,366625,365726,365726,366625,49
48,test,1,inc,1,m,Mon Jun 09 2025 09:05:47 GMT-0500 (Central Daylight Time),375056.3000000119,orange,1000,I,m,m,None,599,400.0,199.0,95,1,2129.400000035763,372926.89999997616,7161,cobalt,NF,C,368358,368358,366629,367642,366629,368758,368159,368159,368758,50
49,test,1,inc,1,z,Mon Jun 09 2025 09:05:47 GMT-0500 (Central Daylight Time),377355.3000000119,cobalt,1100,I,z,z,None,654,454.0,200.0,24,1,2295.400000035763,375059.89999997616,7161,orange,NF,C,370591,370592,368762,369875,368762,371057,370391,370391,371057,51
50,test,1,con,1,m,Mon Jun 09 2025 09:05:47 GMT-0500 (Central Daylight Time),379421.3000000119,cobalt,800,I,m,m,None,727,528.0,199.0,89,1,2062.2000000476837,377359.09999996424,7161,cobalt,NF,C,372590,372590,371061,371874,371061,373123,372391,372391,373123,52
51,test,1,con,1,z,Mon Jun 09 2025 09:05:47 GMT-0500 (Central Daylight Time),381570.8000000119,lime,1000,I,z,z,None,605,405.0,200.0,35,1,2145.7000000476837,379425.09999996424,7161,lime,NF,C,374857,374857,373127,374140,373127,375273,374656,374656,375273,53
52,test,1,con,1,z,Mon Jun 09 2025 09:05:47 GMT-0500 (Central Daylight Time),383486.8000000119,lime,900,I,z,z,None,468,268.0,200.0,34,1,1912.300000011921,381574.5,7161,lime,NF,C,376906,376906,375277,376190,375277,377189,376706,376706,377189,54
53,test,1,con,1,z,Mon Jun 09 2025 09:05:47 GMT-0500 (Central Daylight Time),385602.59999996424,pear,1000,I,z,z,None,572,373.0,199.0,43,1,2111.7999999523163,383490.8000000119,7161,pear,NF,C,378921,378921,377193,378205,377193,379305,378722,378722,379305,55
54,test,1,inc,1,m,Mon Jun 09 2025 09:05:47 GMT-0500 (Central Daylight Time),387602.09999996424,pear,900,I,m,m,None,565,365.0,200.0,126,1,1995.5,385606.59999996424,7161,lead,NF,C,380938,380938,379309,380221,379309,381304,380738,380738,381304,56
55,test,1,con,1,m,Mon Jun 09 2025 09:05:47 GMT-0500 (Central Daylight Time),389568.3000000119,gold,800,I,m,m,None,633,433.0,200.0,97,1,1962.300000011921,387606.0,7161,gold,NF,C,382837,382837,381308,382121,381308,383270,382637,382637,383270,57
56,test,1,con,1,m,Mon Jun 09 2025 09:05:47 GMT-0500 (Central Daylight Time),391967.1999999881,silver,1000,I,m,m,None,859,659.0,200.0,83,1,2395.399999976158,389571.8000000119,7161,silver,NF,C,385003,385003,383274,384287,383274,385669,384803,384803,385669,58
57,test,1,con,1,z,Mon Jun 09 2025 09:05:47 GMT-0500 (Central Daylight Time),393917.0,banana,800,I,z,z,None,602,403.0,199.0,1,1,1945.199999988079,391971.8000000119,7161,banana,NF,C,387203,387203,385674,386486,385674,387619,387003,387003,387619,59
58,test,1,inc,1,m,Mon Jun 09 2025 09:05:47 GMT-0500 (Central Daylight Time),395916.1999999881,pear,900,I,m,m,None,554,354.0,200.0,118,1,1995.699999988079,393920.5,7161,zinc,NF,C,389252,389252,387623,388536,387623,389618,389052,389052,389618,60
59,test,1,con,1,z,Mon Jun 09 2025 09:05:47 GMT-0500 (Central Daylight Time),397899.09999996424,raisin,1000,I,z,z,None,439,239.0,200.0,27,1,1979.0,395920.09999996424,7161,raisin,NF,C,391351,391351,389622,390635,389622,391601,391151,391151,391601,61
60,test,1,inc,1,z,Mon Jun 09 2025 09:05:47 GMT-0500 (Central Daylight Time),400131.5,lead,1100,I,z,z,None,588,388.0,200.0,48,1,2228.800000011921,397902.6999999881,7161,pear,NF,C,393434,393434,391605,392718,391605,393834,393234,393234,393833,62
61,test,1,inc,1,z,Mon Jun 09 2025 09:05:47 GMT-0500 (Central Daylight Time),402047.6999999881,bronze,800,I,z,z,None,574,375.0,199.0,21,1,1912.199999988079,400135.5,7161,orange,NF,C,395367,395367,393837,394650,393838,395750,395167,395167,395750,63
62,test,1,con,1,z,Mon Jun 09 2025 09:05:47 GMT-0500 (Central Daylight Time),404030.59999996424,banana,1000,I,z,z,None,434,235.0,199.0,3,1,1979.2999999523163,402051.3000000119,7161,banana,NF,C,397483,397483,395753,396766,395754,397733,397283,397283,397733,64
63,test,1,con,1,z,Mon Jun 09 2025 09:05:47 GMT-0500 (Central Daylight Time),406479.59999996424,raisin,1100,I,z,z,None,809,609.0,200.0,28,1,2445.399999976158,404034.1999999881,7161,raisin,NF,C,399565,399565,397736,398849,397737,400182,399365,399365,400182,65
64,test,1,con,1,m,Mon Jun 09 2025 09:05:47 GMT-0500 (Central Daylight Time),408712.1999999881,lead,1100,I,m,m,None,582,367.0,215.0,124,1,2229.0,406483.1999999881,7161,lead,NF,C,402031,402031,400185,401298,400186,402414,401816,401816,402414,66
65,test,1,inc,1,z,Mon Jun 09 2025 09:05:47 GMT-0500 (Central Daylight Time),410861.59999996424,silver,1000,I,z,z,None,603,403.0,200.0,31,1,2145.5,408716.09999996424,7161,raisin,NF,C,404147,404147,402418,403431,402418,404564,403947,403947,404564,67
66,test,1,inc,1,m,Mon Jun 09 2025 09:05:47 GMT-0500 (Central Daylight Time),413210.8000000119,orange,1000,I,m,m,None,812,613.0,199.0,87,1,2345.300000011921,410865.5,7161,silver,NF,C,406297,406297,404568,405580,404568,406913,406097,406097,406913,68
67,test,1,inc,1,z,Mon Jun 09 2025 09:05:47 GMT-0500 (Central Daylight Time),415110.39999997616,gold,800,I,z,z,None,565,360.0,205.0,61,1,1895.8999999761581,413214.5,7161,plum,NF,C,408446,408446,406917,407730,406917,408813,408241,408241,408812,69
68,test,1,con,1,m,Mon Jun 09 2025 09:05:47 GMT-0500 (Central Daylight Time),417376.39999997616,cobalt,1000,I,m,m,None,725,525.0,200.0,91,1,2262.300000011921,415114.09999996424,7161,cobalt,NF,C,410545,410545,408816,409829,408816,411078,410345,410345,411078,70
69,test,1,inc,1,m,Mon Jun 09 2025 09:05:47 GMT-0500 (Central Daylight Time),419658.8000000119,raisin,1100,I,m,m,None,646,447.0,199.0,96,1,2278.5,417380.3000000119,7161,cobalt,NF,C,412911,412911,411082,412195,411083,413361,412712,412712,413361,71
69,test,1,inc,0,z,Mon Jun 09 2025 09:05:47 GMT-0500 (Central Daylight Time),421608.09999996424,gold,800,I,m,m,None,607,408.0,199.0,53,1,1945.5999999642372,419662.5,7161,kiwi,NF,C,414894,414894,413365,414178,413365,415310,414694,414694,415310,72
70,test,1,con,1,m,Mon Jun 09 2025 09:05:47 GMT-0500 (Central Daylight Time),423624.5,silver,900,I,m,m,None,566,365.0,201.0,82,1,2012.6000000238419,421611.89999997616,7161,silver,NF,C,416945,416945,415314,416227,415314,417327,416743,416743,417327,73
71,test,1,con,1,z,Mon Jun 09 2025 09:05:47 GMT-0500 (Central Daylight Time),425573.59999996424,orange,800,I,z,z,None,603,403.0,200.0,17,1,1945.2999999523163,423628.3000000119,7161,orange,NF,C,418859,418859,417330,418143,417331,419276,418659,418659,419276,74
72,test,1,con,1,m,Mon Jun 09 2025 09:05:47 GMT-0500 (Central Daylight Time),427823.0,iron,1100,I,m,m,None,600,401.0,199.0,108,1,2245.900000035763,425577.09999996424,7161,iron,NF,C,421109,421109,419279,420392,419280,421525,420909,420909,421525,75
73,test,1,con,1,m,Mon Jun 09 2025 09:05:47 GMT-0500 (Central Daylight Time),429955.59999996424,lead,800,I,m,m,None,788,588.0,200.0,121,1,2128.899999976158,427826.6999999881,7161,lead,NF,C,423058,423058,421529,422342,421529,423658,422858,422858,423657,76
74,test,1,inc,1,m,Mon Jun 09 2025 09:05:47 GMT-0500 (Central Daylight Time),431904.89999997616,banana,800,I,m,m,None,606,407.0,199.0,93,1,1945.5,429959.39999997616,7161,cobalt,NF,C,425191,425191,423661,424474,423662,425607,424991,424991,425607,77
75,test,1,con,1,z,Mon Jun 09 2025 09:05:47 GMT-0500 (Central Daylight Time),433904.5,lime,800,I,z,z,None,666,466.0,200.0,33,1,1995.699999988079,431908.8000000119,7161,lime,NF,C,427140,427140,425611,426424,425611,427607,426940,426940,427606,78
76,test,1,inc,1,m,Mon Jun 09 2025 09:05:47 GMT-0500 (Central Daylight Time),435937.09999996424,lime,800,I,m,m,None,689,490.0,199.0,109,1,2029.0999999642372,433908.0,7161,iron,NF,C,429140,429140,427610,428423,427610,429639,428940,428940,429639,79
77,test,1,con,1,z,Mon Jun 09 2025 09:05:47 GMT-0500 (Central Daylight Time),437934.1999999881,plum,800,I,z,z,None,664,464.0,200.0,57,1,1993.3999999761581,435940.8000000119,7161,plum,NF,C,431172,431172,429643,430456,429643,431636,430972,430972,431636,80
78,test,1,con,1,m,Mon Jun 09 2025 09:05:47 GMT-0500 (Central Daylight Time),440168.6999999881,cobalt,1100,I,m,m,None,599,399.0,200.0,92,1,2230.699999988079,437938.0,7161,cobalt,NF,C,433471,433471,431640,432755,431640,433871,433271,433271,433871,81
79,test,1,inc,1,z,Mon Jun 09 2025 09:05:47 GMT-0500 (Central Daylight Time),442435.09999996424,silver,1000,I,z,z,None,730,530.0,200.0,7,1,2262.699999988079,440172.39999997616,7161,banana,NF,C,435604,435604,433874,434887,433875,436137,435404,435404,436137,82
79,test,1,con,0,z,Mon Jun 09 2025 09:05:47 GMT-0500 (Central Daylight Time),444467.8000000119,raisin,800,I,m,m,None,687,488.0,199.0,25,1,2028.9000000357628,442438.89999997616,7161,raisin,NF,C,437670,437670,436141,436954,436141,438170,437471,437471,438170,83
80,test,1,inc,1,m,Mon Jun 09 2025 09:05:47 GMT-0500 (Central Daylight Time),446500.0,banana,800,I,m,m,None,687,488.0,199.0,85,1,2028.300000011921,444471.6999999881,7161,silver,NF,C,439702,439702,438174,438986,438174,440202,439503,439503,440202,84
81,test,1,con,1,m,Mon Jun 09 2025 09:05:47 GMT-0500 (Central Daylight Time),448500.8000000119,zinc,800,I,m,m,None,654,455.0,199.0,113,1,1997.2000000476837,446503.59999996424,7161,zinc,NF,C,441735,441735,440206,441019,440206,442203,441536,441536,442203,85
82,test,1,inc,1,m,Mon Jun 09 2025 09:05:47 GMT-0500 (Central Daylight Time),450432.5,banana,800,I,m,m,None,591,391.0,200.0,69,1,1927.9000000357628,448504.59999996424,7161,bronze,NF,C,443735,443735,442207,443018,442207,444135,443535,443535,444135,86
83,test,1,inc,1,z,Mon Jun 09 2025 09:05:47 GMT-0500 (Central Daylight Time),452598.5,silver,1000,I,z,z,None,625,425.0,200.0,23,1,2162.400000035763,450436.09999996424,7161,orange,NF,C,445869,445869,444138,445151,444138,446301,445668,445668,446301,87
84,test,1,inc,1,z,Mon Jun 09 2025 09:05:47 GMT-0500 (Central Daylight Time),454731.3000000119,zinc,1000,I,z,z,None,595,396.0,199.0,39,1,2128.2000000476837,452603.09999996424,7161,lime,NF,C,448034,448034,446305,447317,446305,448433,447834,447834,448433,88
85,test,1,con,1,z,Mon Jun 09 2025 09:05:47 GMT-0500 (Central Daylight Time),456963.89999997616,cherry,1100,I,z,z,None,588,388.0,200.0,12,1,2229.099999964237,454734.8000000119,7161,cherry,NF,C,450266,450266,448437,449550,448437,450666,450066,450066,450666,89
86,test,1,con,1,m,Mon Jun 09 2025 09:05:47 GMT-0500 (Central Daylight Time),459213.09999996424,bronze,1100,I,m,m,None,603,403.0,200.0,68,1,2245.599999964237,456967.5,7161,bronze,NF,C,452499,452499,450670,451782,450670,452915,452299,452299,452915,90
87,test,1,inc,1,m,Mon Jun 09 2025 09:05:47 GMT-0500 (Central Daylight Time),461523.3000000119,raisin,1100,I,m,m,None,677,477.0,200.0,88,1,2306.5,459216.8000000119,7161,silver,NF,C,454748,454748,452919,454032,452919,455225,454548,454548,455225,91
88,test,1,con,1,z,Mon Jun 09 2025 09:05:47 GMT-0500 (Central Daylight Time),463578.1999999881,plum,900,I,z,z,None,629,430.0,199.0,58,1,2050.899999976158,461527.3000000119,7161,plum,NF,C,456848,456848,455229,456131,455230,457280,456648,456648,457280,92
89,test,1,inc,1,z,Mon Jun 09 2025 09:05:47 GMT-0500 (Central Daylight Time),465877.6999999881,lead,1100,I,z,z,None,659,460.0,199.0,64,1,2295.800000011921,463581.89999997616,7161,plum,NF,C,459114,459114,457284,458397,457284,459580,458914,458914,459580,93
90,test,1,con,1,z,Mon Jun 09 2025 09:05:47 GMT-0500 (Central Daylight Time),467893.59999996424,cherry,900,I,z,z,None,576,377.0,199.0,10,1,2012.2999999523163,465881.3000000119,7161,cherry,NF,C,461213,461213,459583,460496,459584,461596,461013,461013,461596,94
91,test,1,con,1,m,Mon Jun 09 2025 09:05:47 GMT-0500 (Central Daylight Time),470276.3000000119,zinc,1100,I,m,m,None,744,545.0,199.0,116,1,2379.100000023842,467897.1999999881,7161,zinc,NF,C,463429,463429,461599,462713,461599,463978,463229,463229,463978,95
92,test,1,inc,1,m,Mon Jun 09 2025 09:05:47 GMT-0500 (Central Daylight Time),472242.3000000119,lime,800,I,m,m,None,631,432.0,199.0,125,1,1962.2000000476837,470280.09999996424,7161,lead,NF,C,465511,465511,463982,464795,463982,465944,465312,465312,465944,96
93,test,1,inc,1,z,Mon Jun 09 2025 09:05:47 GMT-0500 (Central Daylight Time),474341.5,zinc,1000,I,z,z,None,553,353.0,200.0,47,1,2095.699999988079,472245.8000000119,7161,pear,NF,C,467677,467677,465948,466961,465948,468044,467477,467477,468043,97
94,test,1,inc,1,m,Mon Jun 09 2025 09:05:47 GMT-0500 (Central Daylight Time),476591.09999996424,raisin,1100,I,m,m,None,608,409.0,199.0,72,1,2246.0,474345.09999996424,7161,bronze,NF,C,469877,469877,468047,469160,468047,470293,469677,469677,470293,98
95,test,1,inc,1,z,Mon Jun 09 2025 09:05:47 GMT-0500 (Central Daylight Time),478723.5,zinc,1000,I,z,z,None,595,396.0,199.0,55,1,2128.699999988079,476594.8000000119,7161,kiwi,NF,C,472026,472026,470297,471309,470297,472426,471826,471826,472426,99
96,test,1,con,1,m,Mon Jun 09 2025 09:05:47 GMT-0500 (Central Daylight Time),480806.5,lead,1000,I,m,m,None,534,335.0,199.0,123,1,2079.300000011921,478727.1999999881,7161,lead,NF,C,474159,474159,472429,473443,472430,474509,473959,473959,474508,100
97,test,1,con,1,m,Mon Jun 09 2025 09:05:47 GMT-0500 (Central Daylight Time),483155.5,copper,1100,I,m,m,None,713,513.0,200.0,76,1,2345.400000035763,480810.09999996424,7161,copper,NF,C,476341,476341,474512,475625,474512,476858,476141,476141,476857,101
98,test,1,inc,1,z,Mon Jun 09 2025 09:05:47 GMT-0500 (Central Daylight Time),485371.09999996424,cobalt,1100,I,z,z,None,570,275.0,295.0,32,1,2212.0,483159.09999996424,7161,raisin,NF,C,478787,478787,476861,477974,476861,479073,478491,478491,479073,102
99,test,1,con,1,z,Mon Jun 09 2025 09:05:47 GMT-0500 (Central Daylight Time),487970.6999999881,banana,1100,I,z,z,None,955,755.0,200.0,4,1,2595.800000011921,485374.89999997616,7161,banana,NF,C,480907,480907,479077,480190,479077,481673,480706,480706,481673,103
100,test,1,inc,1,z,Mon Jun 09 2025 09:05:47 GMT-0500 (Central Daylight Time),489803.59999996424,bronze,800,I,z,z,None,488,288.0,200.0,13,1,1829.199999988079,487974.39999997616,7161,cherry,NF,C,483206,483206,481676,482489,481677,483506,483006,483006,483506,104
101,test,1,inc,1,m,Mon Jun 09 2025 09:05:47 GMT-0500 (Central Daylight Time),491652.89999997616,banana,800,I,m,m,None,502,302.0,200.0,77,1,1845.699999988079,489807.1999999881,7161,copper,NF,C,485040,485040,483509,484322,483509,485355,484839,484839,485355,105
102,test,1,con,1,z,Mon Jun 09 2025 09:05:47 GMT-0500 (Central Daylight Time),493702.09999996424,raisin,900,I,z,z,None,610,410.0,200.0,26,1,2045.5999999642372,491656.5,7161,raisin,NF,C,486988,486988,485359,486272,485359,487404,486788,486788,487404,106
103,test,1,con,1,z,Mon Jun 09 2025 09:05:47 GMT-0500 (Central Daylight Time),495651.5,orange,900,I,z,z,None,505,305.0,200.0,18,1,1945.5,493706.0,7161,orange,NF,C,489037,489037,487408,488321,487408,489354,488837,488837,489354,107
104,test,1,inc,1,m,Mon Jun 09 2025 09:05:47 GMT-0500 (Central Daylight Time),497701.09999996424,pear,900,I,m,m,None,602,403.0,199.0,102,1,2045.5999999642372,495655.5,7161,gold,NF,C,490987,490987,489358,490271,489358,491403,490787,490787,491403,108
105,test,1,con,1,z,Mon Jun 09 2025 09:05:47 GMT-0500 (Central Daylight Time),499800.6999999881,pear,900,I,z,z,None,666,466.0,200.0,42,1,2095.699999988079,497705.0,7161,pear,NF,C,493036,493036,491407,492320,491407,493503,492836,492836,493503,109
106,test,1,inc,1,z,Mon Jun 09 2025 09:05:47 GMT-0500 (Central Daylight Time),501916.3000000119,silver,1000,I,z,z,None,570,371.0,199.0,15,1,2111.800000011921,499804.5,7161,cherry,NF,C,495235,495235,493507,494519,493507,495618,495036,495036,495618,110
107,test,1,con,1,z,Mon Jun 09 2025 09:05:47 GMT-0500 (Central Daylight Time),503833.09999996424,kiwi,800,I,z,z,None,574,375.0,199.0,49,1,1912.5999999642372,501920.5,7161,kiwi,NF,C,497151,497151,495623,496435,495623,497535,496952,496952,497535,111
108,test,1,con,1,m,Mon Jun 09 2025 09:05:47 GMT-0500 (Central Daylight Time),505731.89999997616,iron,800,I,m,m,None,562,363.0,199.0,105,1,1895.300000011921,503836.59999996424,7161,iron,NF,C,499067,499067,497539,498351,497539,499434,498868,498868,499434,112
109,test,1,con,1,z,Mon Jun 09 2025 09:05:47 GMT-0500 (Central Daylight Time),508097.6999999881,plum,1000,I,z,z,None,822,623.0,199.0,59,1,2362.100000023842,505735.59999996424,7161,plum,NF,C,501167,501167,499438,500450,499438,501800,500967,500967,501800,113
109,test,1,con,0,m,Mon Jun 09 2025 09:05:47 GMT-0500 (Central Daylight Time),510180.3000000119,iron,1000,I,z,z,None,545,345.0,200.0,107,1,2078.900000035763,508101.39999997616,7161,iron,NF,C,503533,503533,501803,502816,501804,503882,503333,503333,503882,114
110,test,1,inc,1,z,Mon Jun 09 2025 09:05:47 GMT-0500 (Central Daylight Time),512446.39999997616,lead,1100,I,z,z,None,618,418.0,200.0,40,1,2262.599999964237,510183.8000000119,7161,lime,NF,C,505716,505716,503886,504999,503886,506148,505515,505515,506148,115
111,test,1,inc,1,m,Mon Jun 09 2025 09:05:47 GMT-0500 (Central Daylight Time),514595.89999997616,kiwi,1000,I,m,m,None,613,413.0,200.0,103,1,2146.0,512449.89999997616,7161,gold,NF,C,507881,507881,506152,507165,506152,508298,507681,507681,508298,116
112,test,1,con,1,m,Mon Jun 09 2025 09:05:47 GMT-0500 (Central Daylight Time),516728.39999997616,cobalt,900,I,m,m,None,691,491.0,200.0,90,1,2128.599999964237,514599.8000000119,7161,cobalt,NF,C,509931,509931,508302,509214,508302,510430,509731,509731,510430,117
113,test,1,inc,1,m,Mon Jun 09 2025 09:05:47 GMT-0500 (Central Daylight Time),519127.5,plum,1100,I,m,m,None,759,559.0,200.0,112,1,2395.400000035763,516732.09999996424,7161,iron,NF,C,512263,512263,510434,511547,510434,512830,512063,512063,512830,118
114,test,1,con,1,z,Mon Jun 09 2025 09:05:47 GMT-0500 (Central Daylight Time),521426.8000000119,kiwi,1000,I,z,z,None,762,563.0,199.0,51,1,2295.7000000476837,519131.09999996424,7161,kiwi,NF,C,514563,514563,512833,513846,512834,515129,514363,514363,515129,119
115,test,1,con,1,m,Mon Jun 09 2025 09:05:47 GMT-0500 (Central Daylight Time),523509.5,zinc,900,I,m,m,None,636,436.0,200.0,114,1,2078.900000035763,521430.59999996424,7161,zinc,NF,C,516762,516762,515133,516046,515133,517212,516562,516562,517211,120
116,test,1,con,1,m,Mon Jun 09 2025 09:05:47 GMT-0500 (Central Daylight Time),526025.3000000119,gold,1100,I,m,m,None,872,673.0,199.0,100,1,2512.300000011921,523513.0,7161,gold,NF,C,519045,519045,517215,518328,517215,519727,518845,518845,519727,121
116,test,1,inc,0,m,Mon Jun 09 2025 09:05:47 GMT-0500 (Central Daylight Time),528024.5,cherry,900,I,z,z,None,564,365.0,199.0,86,1,1995.5,526029.0,7161,silver,NF,C,521361,521361,519731,520644,519731,521727,521161,521161,521727,122
117,test,1,inc,1,m,Mon Jun 09 2025 09:05:47 GMT-0500 (Central Daylight Time),530074.1999999881,cherry,900,I,m,m,None,614,414.0,200.0,70,1,2046.1000000238419,528028.0999999642,7161,bronze,NF,C,523360,523360,521730,522644,521731,523776,523160,523160,523776,123
118,test,1,inc,1,z,Mon Jun 09 2025 09:05:47 GMT-0500 (Central Daylight Time),532382.6999999881,copper,900,I,z,z,None,875,675.0,200.0,14,1,2304.800000011921,530077.8999999762,7161,cherry,NF,C,525409,525409,523780,524693,523780,526085,525209,525209,526085,124
119,test,1,inc,1,m,Mon Jun 09 2025 09:05:47 GMT-0500 (Central Daylight Time),534556.0999999642,kiwi,1000,I,m,m,None,636,437.0,199.0,111,1,2169.5,532386.5999999642,7161,iron,NF,C,527809,527809,526089,527093,526089,528258,527609,527609,528258,125
120,test,1,inc,1,m,Mon Jun 09 2025 09:05:47 GMT-0500 (Central Daylight Time),536538.6999999881,lime,800,I,m,m,None,647,447.0,200.0,101,1,1978.800000011921,534559.8999999762,7161,gold,NF,C,529791,529791,528262,529075,528262,530241,529591,529591,530241,126
121,test,1,con,1,z,Mon Jun 09 2025 09:05:47 GMT-0500 (Central Daylight Time),538788.1999999881,orange,1000,I,z,z,None,712,512.0,200.0,19,1,2245.899999976158,536542.3000000119,7161,orange,NF,C,531974,531974,530244,531258,530245,532490,531774,531774,532490,127
122,test,1,inc,1,m,Mon Jun 09 2025 09:05:47 GMT-0500 (Central Daylight Time),540854.0999999642,orange,1000,I,m,m,None,526,327.0,199.0,71,1,2062.099999964237,538792.0,7161,bronze,NF,C,534223,534223,532494,533507,532494,534556,534024,534024,534556,128
