acc_sum,block,block_c,change,condition,correct,correct_response,datetime,endtime,face,project,response,response_time,row_sel,session_number,start_end,starttime,subject_id,task,task_vers,trial
0,prac,1,,1-Back,,,Fri Oct 10 2025 13:48:56 GMT-0500 (Central Daylight Time),,012_o_f_d_a.png,O,space,7146,1,1,,,7226,VNB,C,0
1,prac,1,0.0,1-Back,1.0,m,Fri Oct 10 2025 13:48:56 GMT-0500 (Central Daylight Time),118249.0,022_y_f_n_a.png,O,m,1319,2,1,2274.2999999523163,115974.70000004768,7226,VNB,C,1
2,prac,1,0.0,1-Back,1.0,m,Fri Oct 10 2025 13:48:56 GMT-0500 (Central Daylight Time),120264.70000004768,014_m_m_h_a.png,O,m,1068,3,1,1982.9000000953674,118281.79999995232,7226,VNB,C,2
3,prac,1,0.0,1-Back,1.0,m,Fri Oct 10 2025 13:48:56 GMT-0500 (Central Daylight Time),122081.20000004768,025_y_m_d_a.png,O,m,856,4,1,1780.0,120301.20000004768,7226,VNB,C,3
4,prac,1,0.0,1-Back,1.0,m,Fri Oct 10 2025 13:48:56 GMT-0500 (Central Daylight Time),124379.20000004768,012_o_f_n_a.png,O,m,1102,5,1,2263.0999999046326,122116.10000014305,7226,VNB,C,4
5,prac,1,1.0,1-Back,1.0,z,Fri Oct 10 2025 13:48:56 GMT-0500 (Central Daylight Time),126446.29999995232,025_y_m_n_a.png,O,z,1134,6,1,2051.899999856949,124394.40000009537,7226,VNB,C,5
6,prac,1,0.0,1-Back,1.0,m,Fri Oct 10 2025 13:48:56 GMT-0500 (Central Daylight Time),128411.10000014305,015_o_m_h_a.png,O,m,967,7,1,1919.3000001907349,126491.79999995232,7226,VNB,C,6
7,prac,1,0.0,1-Back,1.0,m,Fri Oct 10 2025 13:48:56 GMT-0500 (Central Daylight Time),130244.0,019_m_f_d_a.png,O,m,866,8,1,1819.7999999523163,128424.20000004768,7226,VNB,C,7
8,prac,1,1.0,1-Back,1.0,z,Fri Oct 10 2025 13:48:56 GMT-0500 (Central Daylight Time),132094.40000009537,022_y_f_d_a.png,O,z,873,9,1,1835.2000000476837,130259.20000004768,7226,VNB,C,8
9,prac,1,0.0,1-Back,1.0,m,Fri Oct 10 2025 13:48:56 GMT-0500 (Central Daylight Time),133993.79999995232,014_m_m_n_a.png,O,m,945,10,1,1871.0999999046326,132122.70000004768,7226,VNB,C,9
10,prac,1,0.0,1-Back,1.0,m,Fri Oct 10 2025 13:48:56 GMT-0500 (Central Daylight Time),135926.40000009537,012_o_f_h_a.png,O,m,952,11,1,1888.5,134037.90000009537,7226,VNB,C,10
11,prac,1,0.0,1-Back,1.0,m,Fri Oct 10 2025 13:48:56 GMT-0500 (Central Daylight Time),137642.5,025_y_m_d_a.png,O,m,756,12,1,1672.0999999046326,135970.40000009537,7226,VNB,C,11
0,test,1,0.0,1-Back,,,Fri Oct 10 2025 13:48:56 GMT-0500 (Central Daylight Time),137642.5,022_y_f_d_a.png,O,space,2248,1,1,1672.0999999046326,135970.40000009537,7226,VNB,C,0
1,test,1,0.0,1-Back,1.0,m,Fri Oct 10 2025 13:48:56 GMT-0500 (Central Daylight Time),149588.10000014305,019_m_f_n_a.png,O,m,781,2,1,1792.0,147796.10000014305,7226,VNB,C,1
2,test,1,0.0,1-Back,1.0,m,Fri Oct 10 2025 13:48:56 GMT-0500 (Central Daylight Time),151337.79999995232,015_o_m_h_a.png,O,m,692,3,1,1716.5,149621.29999995232,7226,VNB,C,2
3,test,1,1.0,1-Back,1.0,z,Fri Oct 10 2025 13:48:56 GMT-0500 (Central Daylight Time),153103.60000014305,014_m_m_h_a.png,O,z,720,4,1,1740.2000000476837,151363.40000009537,7226,VNB,C,3
4,test,1,0.0,1-Back,1.0,m,Fri Oct 10 2025 13:48:56 GMT-0500 (Central Daylight Time),154852.5,012_o_f_n_a.png,O,m,697,5,1,1713.7999999523163,153138.70000004768,7226,VNB,C,4
5,test,1,0.0,1-Back,1.0,m,Fri Oct 10 2025 13:48:56 GMT-0500 (Central Daylight Time),156568.70000004768,025_y_m_d_a.png,O,m,685,6,1,1708.5,154860.20000004768,7226,VNB,C,5
6,test,1,1.0,1-Back,1.0,z,Fri Oct 10 2025 13:48:56 GMT-0500 (Central Daylight Time),158635.5,019_m_f_d_a.png,O,z,1042,7,1,2057.0999999046326,156578.40000009537,7226,VNB,C,6
7,test,1,0.0,1-Back,1.0,m,Fri Oct 10 2025 13:48:56 GMT-0500 (Central Daylight Time),161151.29999995232,022_y_f_h_a.png,O,m,1455,8,1,2477.2999999523163,158674.0,7226,VNB,C,7
8,test,1,0.0,1-Back,1.0,m,Fri Oct 10 2025 13:48:56 GMT-0500 (Central Daylight Time),162817.29999995232,015_o_m_n_a.png,O,m,626,9,1,1640.2999999523163,161177.0,7226,VNB,C,8
9,test,1,0.0,1-Back,1.0,m,Fri Oct 10 2025 13:48:56 GMT-0500 (Central Daylight Time),164733.60000014305,025_y_m_h_a.png,O,m,856,10,1,1883.5,162850.10000014305,7226,VNB,C,9
10,test,1,0.0,1-Back,1.0,m,Fri Oct 10 2025 13:48:56 GMT-0500 (Central Daylight Time),166549.40000009537,015_o_m_d_a.png,O,m,755,11,1,1781.5,164767.90000009537,7226,VNB,C,10
11,test,1,1.0,1-Back,1.0,z,Fri Oct 10 2025 13:48:56 GMT-0500 (Central Daylight Time),168515.79999995232,012_o_f_d_a.png,O,z,915,12,1,1938.0999999046326,166577.70000004768,7226,VNB,C,11
12,test,1,0.0,1-Back,1.0,m,Fri Oct 10 2025 13:48:56 GMT-0500 (Central Daylight Time),170581.29999995232,014_m_m_n_a.png,O,m,1014,13,1,2031.1999998092651,168550.10000014305,7226,VNB,C,12
13,test,1,1.0,1-Back,1.0,z,Fri Oct 10 2025 13:48:56 GMT-0500 (Central Daylight Time),172664.10000014305,022_y_f_n_a.png,O,z,1037,14,1,2054.800000190735,170609.29999995232,7226,VNB,C,13
14,test,1,0.0,1-Back,1.0,m,Fri Oct 10 2025 13:48:56 GMT-0500 (Central Daylight Time),174480.10000014305,019_m_f_h_a.png,O,m,777,15,1,1788.2000000476837,172691.90000009537,7226,VNB,C,14
15,test,1,0.0,1-Back,1.0,m,Fri Oct 10 2025 13:48:56 GMT-0500 (Central Daylight Time),176212.60000014305,014_m_m_d_a.png,O,m,681,16,1,1697.4000000953674,174515.20000004768,7226,VNB,C,15
16,test,1,0.0,1-Back,1.0,m,Fri Oct 10 2025 13:48:56 GMT-0500 (Central Daylight Time),177978.10000014305,025_y_m_n_a.png,O,m,716,17,1,1737.6000001430511,176240.5,7226,VNB,C,16
17,test,1,0.0,1-Back,1.0,m,Fri Oct 10 2025 13:48:56 GMT-0500 (Central Daylight Time),179711.79999995232,012_o_f_h_a.png,O,m,703,18,1,1725.3999998569489,177986.40000009537,7226,VNB,C,17
0,test,2,0.0,1-Back,,,Fri Oct 10 2025 13:48:56 GMT-0500 (Central Daylight Time),179711.79999995232,025_y_m_n_a.png,O,space,4521,1,1,1725.3999998569489,177986.40000009537,7226,VNB,C,0
1,test,2,0.0,1-Back,1.0,m,Fri Oct 10 2025 13:48:56 GMT-0500 (Central Daylight Time),187992.5,022_y_f_h_a.png,O,m,687,2,1,1710.2000000476837,186282.29999995232,7226,VNB,C,1
2,test,2,1.0,1-Back,1.0,m,Fri Oct 10 2025 13:48:56 GMT-0500 (Central Daylight Time),189624.79999995232,015_o_m_n_a.png,O,m,577,3,1,1609.8999998569489,188014.90000009537,7226,VNB,C,2
3,test,2,0.0,1-Back,1.0,m,Fri Oct 10 2025 13:48:56 GMT-0500 (Central Daylight Time),191274.70000004768,019_m_f_d_a.png,O,m,617,4,1,1638.9000000953674,189635.79999995232,7226,VNB,C,3
4,test,2,0.0,1-Back,1.0,z,Fri Oct 10 2025 13:48:56 GMT-0500 (Central Daylight Time),193107.29999995232,014_m_m_d_a.png,O,z,787,5,1,1801.0,191306.29999995232,7226,VNB,C,4
5,test,2,0.0,1-Back,1.0,m,Fri Oct 10 2025 13:48:56 GMT-0500 (Central Daylight Time),194856.90000009537,025_y_m_h_a.png,O,m,686,6,1,1716.4000000953674,193140.5,7226,VNB,C,5
6,test,2,1.0,1-Back,1.0,z,Fri Oct 10 2025 13:48:56 GMT-0500 (Central Daylight Time),196439.79999995232,012_o_f_h_a.png,O,z,528,7,1,1550.1999998092651,194889.60000014305,7226,VNB,C,6
7,test,2,0.0,1-Back,1.0,m,Fri Oct 10 2025 13:48:56 GMT-0500 (Central Daylight Time),198139.10000014305,019_m_f_n_a.png,O,m,635,8,1,1664.6000001430511,196474.5,7226,VNB,C,7
8,test,2,0.0,1-Back,1.0,m,Fri Oct 10 2025 13:48:56 GMT-0500 (Central Daylight Time),199738.60000014305,022_y_f_d_a.png,O,m,550,9,1,1578.8000001907349,198159.79999995232,7226,VNB,C,8
9,test,2,0.0,1-Back,1.0,m,Fri Oct 10 2025 13:48:56 GMT-0500 (Central Daylight Time),201337.79999995232,014_m_m_n_a.png,O,m,556,10,1,1574.0,199763.79999995232,7226,VNB,C,9
10,test,2,1.0,1-Back,1.0,m,Fri Oct 10 2025 13:48:56 GMT-0500 (Central Daylight Time),203104.0,019_m_f_h_a.png,O,m,702,11,1,1733.0,201371.0,7226,VNB,C,10
11,test,2,0.0,1-Back,1.0,z,Fri Oct 10 2025 13:48:56 GMT-0500 (Central Daylight Time),204936.70000004768,015_o_m_h_a.png,O,z,777,12,1,1792.0,203144.70000004768,7226,VNB,C,11
12,test,2,0.0,1-Back,1.0,m,Fri Oct 10 2025 13:48:56 GMT-0500 (Central Daylight Time),206586.20000004768,025_y_m_d_a.png,O,m,584,13,1,1613.0,204973.20000004768,7226,VNB,C,12
13,test,2,0.0,1-Back,1.0,m,Fri Oct 10 2025 13:48:56 GMT-0500 (Central Daylight Time),208385.70000004768,012_o_f_n_a.png,O,m,735,14,1,1771.0,206614.70000004768,7226,VNB,C,13
14,test,2,0.0,1-Back,1.0,z,Fri Oct 10 2025 13:48:56 GMT-0500 (Central Daylight Time),210101.29999995232,022_y_f_n_a.png,O,z,539,15,1,1684.1999998092651,208417.10000014305,7226,VNB,C,14
15,test,2,1.0,1-Back,1.0,m,Fri Oct 10 2025 13:48:56 GMT-0500 (Central Daylight Time),211700.60000014305,014_m_m_h_a.png,O,m,579,16,1,1587.0,210113.60000014305,7226,VNB,C,15
16,test,2,0.0,1-Back,1.0,m,Fri Oct 10 2025 13:48:56 GMT-0500 (Central Daylight Time),213350.90000009537,012_o_f_d_a.png,O,m,613,17,1,1634.7999999523163,211716.10000014305,7226,VNB,C,16
17,test,2,1.0,1-Back,1.0,z,Fri Oct 10 2025 13:48:56 GMT-0500 (Central Daylight Time),215083.5,015_o_m_d_a.png,O,z,686,18,1,1705.2999999523163,213378.20000004768,7226,VNB,C,17
0,test,3,1.0,1-Back,,,Fri Oct 10 2025 13:48:56 GMT-0500 (Central Daylight Time),215083.5,012_o_f_h_a.png,O,space,3573,1,1,1705.2999999523163,213378.20000004768,7226,VNB,C,0
1,test,3,0.0,1-Back,1.0,m,Fri Oct 10 2025 13:48:56 GMT-0500 (Central Daylight Time),222547.90000009537,019_m_f_d_a.png,O,m,623,2,1,1641.4000000953674,220906.5,7226,VNB,C,1
2,test,3,1.0,1-Back,1.0,m,Fri Oct 10 2025 13:48:56 GMT-0500 (Central Daylight Time),224263.90000009537,014_m_m_n_a.png,O,m,661,3,1,1682.9000000953674,222581.0,7226,VNB,C,2
3,test,3,0.0,1-Back,1.0,z,Fri Oct 10 2025 13:48:56 GMT-0500 (Central Daylight Time),226079.60000014305,012_o_f_n_a.png,O,z,752,4,1,1782.2000000476837,224297.40000009537,7226,VNB,C,3
4,test,3,1.0,1-Back,1.0,m,Fri Oct 10 2025 13:48:56 GMT-0500 (Central Daylight Time),227579.29999995232,015_o_m_d_a.png,O,m,449,5,1,1475.5,226103.79999995232,7226,VNB,C,4
5,test,3,0.0,1-Back,1.0,m,Fri Oct 10 2025 13:48:56 GMT-0500 (Central Daylight Time),229213.10000014305,022_y_f_h_a.png,O,m,582,6,1,1596.8000001907349,227616.29999995232,7226,VNB,C,5
6,test,3,0.0,1-Back,1.0,z,Fri Oct 10 2025 13:48:56 GMT-0500 (Central Daylight Time),230761.90000009537,025_y_m_h_a.png,O,z,502,7,1,1520.2000000476837,229241.70000004768,7226,VNB,C,6
7,test,3,0.0,1-Back,1.0,m,Fri Oct 10 2025 13:48:56 GMT-0500 (Central Daylight Time),232311.29999995232,019_m_f_n_a.png,O,m,496,8,1,1510.7999999523163,230800.5,7226,VNB,C,7
7,test,3,0.0,1-Back,0.0,m,Fri Oct 10 2025 13:48:56 GMT-0500 (Central Daylight Time),234044.10000014305,022_y_f_d_a.png,O,z,690,9,1,1709.5,232334.60000014305,7226,VNB,C,8
8,test,3,1.0,1-Back,1.0,m,Fri Oct 10 2025 13:48:56 GMT-0500 (Central Daylight Time),236243.79999995232,015_o_m_n_a.png,O,m,1148,10,1,2171.0999999046326,234072.70000004768,7226,VNB,C,9
9,test,3,0.0,1-Back,1.0,m,Fri Oct 10 2025 13:48:56 GMT-0500 (Central Daylight Time),237976.0,014_m_m_h_a.png,O,m,654,11,1,1685.2000000476837,236290.79999995232,7226,VNB,C,10
10,test,3,0.0,1-Back,1.0,z,Fri Oct 10 2025 13:48:56 GMT-0500 (Central Daylight Time),239642.20000004768,019_m_f_h_a.png,O,z,626,12,1,1636.7000000476837,238005.5,7226,VNB,C,11
11,test,3,1.0,1-Back,1.0,m,Fri Oct 10 2025 13:48:56 GMT-0500 (Central Daylight Time),241241.60000014305,012_o_f_d_a.png,O,m,551,13,1,1576.9000000953674,239664.70000004768,7226,VNB,C,12
12,test,3,0.0,1-Back,1.0,z,Fri Oct 10 2025 13:48:56 GMT-0500 (Central Daylight Time),243091.29999995232,014_m_m_d_a.png,O,z,792,14,1,1814.5999999046326,241276.70000004768,7226,VNB,C,13
12,test,3,0.0,1-Back,0.0,m,Fri Oct 10 2025 13:48:56 GMT-0500 (Central Daylight Time),246161.79999995232,025_y_m_n_a.png,O,None,2016,15,1,3035.7999999523163,243126.0,7226,VNB,C,14
12,test,3,1.0,1-Back,0.0,m,Fri Oct 10 2025 13:48:56 GMT-0500 (Central Daylight Time),249222.20000004768,015_o_m_h_a.png,O,None,2012,16,1,3023.0,246199.20000004768,7226,VNB,C,15
12,test,3,0.0,1-Back,0.0,m,Fri Oct 10 2025 13:48:56 GMT-0500 (Central Daylight Time),252288.10000014305,025_y_m_d_a.png,O,None,2016,17,1,3033.5,249254.60000014305,7226,VNB,C,16
12,test,3,1.0,1-Back,0.0,m,Fri Oct 10 2025 13:48:56 GMT-0500 (Central Daylight Time),255337.10000014305,022_y_f_n_a.png,O,None,2015,18,1,3020.0,252317.10000014305,7226,VNB,C,17
0,test,4,1.0,1-Back,,,Fri Oct 10 2025 13:48:56 GMT-0500 (Central Daylight Time),255337.10000014305,014_m_m_d_a.png,O,space,10807,1,1,3020.0,252317.10000014305,7226,VNB,C,0
1,test,4,0.0,1-Back,1.0,z,Fri Oct 10 2025 13:48:56 GMT-0500 (Central Daylight Time),270287.60000014305,015_o_m_d_a.png,O,z,921,2,1,1931.0,268356.60000014305,7226,VNB,C,1
2,test,4,0.0,1-Back,1.0,m,Fri Oct 10 2025 13:48:56 GMT-0500 (Central Daylight Time),271847.5,025_y_m_h_a.png,O,m,503,3,1,1520.7999999523163,270326.7000000477,7226,VNB,C,2
3,test,4,0.0,1-Back,1.0,m,Fri Oct 10 2025 13:48:56 GMT-0500 (Central Daylight Time),273430.5,019_m_f_n_a.png,O,m,537,4,1,1555.0,271875.5,7226,VNB,C,3
4,test,4,1.0,1-Back,1.0,m,Fri Oct 10 2025 13:48:56 GMT-0500 (Central Daylight Time),275213.90000009537,012_o_f_h_a.png,O,m,755,5,1,1771.4000000953674,273442.5,7226,VNB,C,4
5,test,4,0.0,1-Back,1.0,m,Fri Oct 10 2025 13:48:56 GMT-0500 (Central Daylight Time),276796.2000000477,014_m_m_n_a.png,O,m,531,6,1,1552.5,275243.7000000477,7226,VNB,C,5
6,test,4,0.0,1-Back,1.0,m,Fri Oct 10 2025 13:48:56 GMT-0500 (Central Daylight Time),278529.7000000477,025_y_m_d_a.png,O,m,668,7,1,1699.2999999523163,276830.40000009537,7226,VNB,C,6
7,test,4,1.0,1-Back,1.0,z,Fri Oct 10 2025 13:48:56 GMT-0500 (Central Daylight Time),280324.2000000477,022_y_f_d_a.png,O,z,745,8,1,1763.5,278560.7000000477,7226,VNB,C,7
8,test,4,0.0,1-Back,1.0,m,Fri Oct 10 2025 13:48:56 GMT-0500 (Central Daylight Time),282727.7999999523,019_m_f_h_a.png,O,m,1377,9,1,2390.899999856949,280336.90000009537,7226,VNB,C,8
9,test,4,0.0,1-Back,1.0,z,Fri Oct 10 2025 13:48:56 GMT-0500 (Central Daylight Time),284394.2000000477,015_o_m_h_a.png,O,z,618,10,1,1637.9000000953674,282756.2999999523,7226,VNB,C,9
10,test,4,1.0,1-Back,1.0,m,Fri Oct 10 2025 13:48:56 GMT-0500 (Central Daylight Time),286093.5,012_o_f_n_a.png,O,m,655,11,1,1674.2999999523163,284419.2000000477,7226,VNB,C,10
11,test,4,0.0,1-Back,1.0,m,Fri Oct 10 2025 13:48:56 GMT-0500 (Central Daylight Time),287793.2999999523,019_m_f_d_a.png,O,m,653,12,1,1669.5999999046326,286123.7000000477,7226,VNB,C,11
12,test,4,0.0,1-Back,1.0,m,Fri Oct 10 2025 13:48:56 GMT-0500 (Central Daylight Time),289409.40000009537,022_y_f_n_a.png,O,m,560,13,1,1582.1000001430511,287827.2999999523,7226,VNB,C,12
13,test,4,0.0,1-Back,1.0,m,Fri Oct 10 2025 13:48:56 GMT-0500 (Central Daylight Time),291708.2999999523,012_o_f_d_a.png,O,m,1239,14,1,2266.699999809265,289441.60000014305,7226,VNB,C,13
13,test,4,0.0,1-Back,0.0,m,Fri Oct 10 2025 13:48:56 GMT-0500 (Central Daylight Time),294774.40000009537,022_y_f_h_a.png,O,None,2016,15,1,3040.0,291734.40000009537,7226,VNB,C,14
13,test,4,1.0,1-Back,0.0,z,Fri Oct 10 2025 13:48:56 GMT-0500 (Central Daylight Time),297822.2999999523,014_m_m_h_a.png,O,None,2011,16,1,3021.699999809265,294800.60000014305,7226,VNB,C,15
14,test,4,0.0,1-Back,1.0,m,Fri Oct 10 2025 13:48:56 GMT-0500 (Central Daylight Time),300755.7000000477,015_o_m_n_a.png,O,m,1900,17,1,2921.7000000476837,297834.0,7226,VNB,C,16
15,test,4,1.0,1-Back,1.0,z,Fri Oct 10 2025 13:48:56 GMT-0500 (Central Daylight Time),302555.0,025_y_m_n_a.png,O,z,734,18,1,1765.0999999046326,300789.90000009537,7226,VNB,C,17
0,test,5,1.0,1-Back,,,Fri Oct 10 2025 13:48:56 GMT-0500 (Central Daylight Time),302555.0,015_o_m_n_a.png,O,space,1750,1,1,1765.0999999046326,300789.90000009537,7226,VNB,C,0
1,test,5,1.0,1-Back,1.0,m,Fri Oct 10 2025 13:48:56 GMT-0500 (Central Daylight Time),308153.10000014305,012_o_f_h_a.png,O,m,759,2,1,1775.6000001430511,306377.5,7226,VNB,C,1
2,test,5,0.0,1-Back,1.0,m,Fri Oct 10 2025 13:48:56 GMT-0500 (Central Daylight Time),309835.90000009537,025_y_m_d_a.png,O,m,631,3,1,1656.0,308179.90000009537,7226,VNB,C,2
3,test,5,0.0,1-Back,1.0,z,Fri Oct 10 2025 13:48:56 GMT-0500 (Central Daylight Time),311701.90000009537,015_o_m_d_a.png,O,z,819,4,1,1845.2999999523163,309856.60000014305,7226,VNB,C,3
4,test,5,0.0,1-Back,1.0,m,Fri Oct 10 2025 13:48:56 GMT-0500 (Central Daylight Time),313268.10000014305,019_m_f_h_a.png,O,m,517,5,1,1528.0,311740.10000014305,7226,VNB,C,4
5,test,5,0.0,1-Back,1.0,m,Fri Oct 10 2025 13:48:56 GMT-0500 (Central Daylight Time),315034.2000000477,022_y_f_n_a.png,O,m,725,6,1,1735.0,313299.2000000477,7226,VNB,C,5
6,test,5,1.0,1-Back,1.0,z,Fri Oct 10 2025 13:48:56 GMT-0500 (Central Daylight Time),316833.40000009537,012_o_f_n_a.png,O,z,751,7,1,1769.6000001430511,315063.7999999523,7226,VNB,C,6
7,test,5,0.0,1-Back,1.0,m,Fri Oct 10 2025 13:48:56 GMT-0500 (Central Daylight Time),318466.5,019_m_f_d_a.png,O,m,568,8,1,1595.2000000476837,316871.2999999523,7226,VNB,C,7
8,test,5,0.0,1-Back,1.0,m,Fri Oct 10 2025 13:48:56 GMT-0500 (Central Daylight Time),320082.2999999523,025_y_m_h_a.png,O,m,550,9,1,1587.8999998569489,318494.40000009537,7226,VNB,C,8
9,test,5,0.0,1-Back,1.0,m,Fri Oct 10 2025 13:48:56 GMT-0500 (Central Daylight Time),321915.2000000477,022_y_f_d_a.png,O,m,768,10,1,1799.7000000476837,320115.5,7226,VNB,C,9
9,test,5,0.0,1-Back,0.0,m,Fri Oct 10 2025 13:48:56 GMT-0500 (Central Daylight Time),324331.0,014_m_m_n_a.png,O,z,1350,11,1,2384.2000000476837,321946.7999999523,7226,VNB,C,10
9,test,5,1.0,1-Back,0.0,z,Fri Oct 10 2025 13:48:56 GMT-0500 (Central Daylight Time),327380.2999999523,019_m_f_n_a.png,O,None,2015,12,1,3029.399999856949,324350.90000009537,7226,VNB,C,11
10,test,5,0.0,1-Back,1.0,m,Fri Oct 10 2025 13:48:56 GMT-0500 (Central Daylight Time),328996.10000014305,015_o_m_h_a.png,O,m,577,13,1,1587.5,327408.60000014305,7226,VNB,C,12
11,test,5,0.0,1-Back,1.0,z,Fri Oct 10 2025 13:48:56 GMT-0500 (Central Daylight Time),330812.0,014_m_m_h_a.png,O,z,764,14,1,1782.2000000476837,329029.7999999523,7226,VNB,C,13
12,test,5,1.0,1-Back,1.0,m,Fri Oct 10 2025 13:48:56 GMT-0500 (Central Daylight Time),332461.7000000477,012_o_f_d_a.png,O,m,606,15,1,1626.4000000953674,330835.2999999523,7226,VNB,C,14
12,test,5,0.0,1-Back,0.0,m,Fri Oct 10 2025 13:48:56 GMT-0500 (Central Daylight Time),334260.7999999523,025_y_m_n_a.png,O,z,747,16,1,1766.1999998092651,332494.60000014305,7226,VNB,C,15
13,test,5,0.0,1-Back,1.0,m,Fri Oct 10 2025 13:48:56 GMT-0500 (Central Daylight Time),335910.5,022_y_f_h_a.png,O,m,596,17,1,1622.5999999046326,334287.90000009537,7226,VNB,C,16
14,test,5,0.0,1-Back,1.0,m,Fri Oct 10 2025 13:48:56 GMT-0500 (Central Daylight Time),337676.2000000477,014_m_m_d_a.png,O,m,731,18,1,1743.2000000476837,335933.0,7226,VNB,C,17
0,prac,1,0.0,2-Back,,,Fri Oct 10 2025 13:48:56 GMT-0500 (Central Daylight Time),337676.2000000477,019_m_f_n_a.png,O,space,1006,1,1,1743.2000000476837,335933.0,7226,VNB,C,0
0,prac,1,0.0,2-Back,,,Fri Oct 10 2025 13:48:56 GMT-0500 (Central Daylight Time),337676.2000000477,012_o_f_h_a.png,O,space,1006,2,1,1743.2000000476837,335933.0,7226,VNB,C,0
1,prac,1,0.0,2-Back,1.0,m,Fri Oct 10 2025 13:48:56 GMT-0500 (Central Daylight Time),428047.5,015_o_m_d_a.png,O,m,991,3,1,1942.2999999523163,426105.2000000477,7226,VNB,C,1
1,prac,1,1.0,2-Back,0.0,z,Fri Oct 10 2025 13:48:56 GMT-0500 (Central Daylight Time),430329.7999999523,014_m_m_h_a.png,O,m,1278,4,1,2230.2999999523163,428099.5,7226,VNB,C,2
2,prac,1,0.0,2-Back,1.0,m,Fri Oct 10 2025 13:48:56 GMT-0500 (Central Daylight Time),432862.2999999523,022_y_f_n_a.png,O,m,1431,5,1,2434.2999999523163,430428.0,7226,VNB,C,3
3,prac,1,1.0,2-Back,1.0,z,Fri Oct 10 2025 13:48:56 GMT-0500 (Central Daylight Time),434745.0,015_o_m_h_a.png,O,z,472,6,1,1844.5,432900.5,7226,VNB,C,4
4,prac,1,1.0,2-Back,1.0,z,Fri Oct 10 2025 13:48:56 GMT-0500 (Central Daylight Time),436684.7000000477,025_y_m_n_a.png,O,z,802,7,1,1881.0,434803.7000000477,7226,VNB,C,5
5,prac,1,0.0,2-Back,1.0,m,Fri Oct 10 2025 13:48:56 GMT-0500 (Central Daylight Time),439210.0,019_m_f_d_a.png,O,m,802,8,1,1861.0,437349.0,7226,VNB,C,6
6,prac,1,0.0,2-Back,1.0,m,Fri Oct 10 2025 13:48:56 GMT-0500 (Central Daylight Time),441909.40000009537,012_o_f_d_a.png,O,m,1715,9,1,2665.9000000953674,439243.5,7226,VNB,C,7
7,prac,1,0.0,2-Back,1.0,m,Fri Oct 10 2025 13:48:56 GMT-0500 (Central Daylight Time),443608.7000000477,014_m_m_h_a.png,O,m,739,10,1,1666.5999999046326,441942.10000014305,7226,VNB,C,8
8,prac,1,1.0,2-Back,1.0,z,Fri Oct 10 2025 13:48:56 GMT-0500 (Central Daylight Time),445374.7999999523,022_y_f_d_a.png,O,z,780,11,1,1728.2999999523163,443646.5,7226,VNB,C,9
9,prac,1,0.0,2-Back,1.0,m,Fri Oct 10 2025 13:48:56 GMT-0500 (Central Daylight Time),447324.2999999523,015_o_m_n_a.png,O,m,967,12,1,1911.5,445412.7999999523,7226,VNB,C,10
0,test,1,0.0,2-Back,,,Fri Oct 10 2025 13:48:56 GMT-0500 (Central Daylight Time),447324.2999999523,025_y_m_h_a.png,O,space,929,1,1,1911.5,445412.7999999523,7226,VNB,C,0
0,test,1,0.0,2-Back,,,Fri Oct 10 2025 13:48:56 GMT-0500 (Central Daylight Time),447324.2999999523,012_o_f_n_a.png,O,space,929,2,1,1911.5,445412.7999999523,7226,VNB,C,0
1,test,1,0.0,2-Back,1.0,z,Fri Oct 10 2025 13:48:56 GMT-0500 (Central Daylight Time),462568.40000009537,015_o_m_h_a.png,O,z,1026,3,1,2038.7000000476837,460529.7000000477,7226,VNB,C,1
2,test,1,0.0,2-Back,1.0,m,Fri Oct 10 2025 13:48:56 GMT-0500 (Central Daylight Time),464335.10000014305,019_m_f_d_a.png,O,m,746,4,1,1757.2000000476837,462577.90000009537,7226,VNB,C,2
3,test,1,1.0,2-Back,1.0,m,Fri Oct 10 2025 13:48:56 GMT-0500 (Central Daylight Time),466950.90000009537,025_y_m_n_a.png,O,m,1561,5,1,2582.7000000476837,464368.2000000477,7226,VNB,C,3
4,test,1,0.0,2-Back,1.0,z,Fri Oct 10 2025 13:48:56 GMT-0500 (Central Daylight Time),468684.2000000477,022_y_f_d_a.png,O,z,700,6,1,1708.4000000953674,466975.7999999523,7226,VNB,C,4
5,test,1,0.0,2-Back,1.0,m,Fri Oct 10 2025 13:48:56 GMT-0500 (Central Daylight Time),470749.5,014_m_m_h_a.png,O,m,1015,7,1,2031.7000000476837,468717.7999999523,7226,VNB,C,5
6,test,1,1.0,2-Back,1.0,m,Fri Oct 10 2025 13:48:56 GMT-0500 (Central Daylight Time),472732.2000000477,022_y_f_n_a.png,O,m,932,8,1,1951.7999999523163,470780.40000009537,7226,VNB,C,6
7,test,1,0.0,2-Back,1.0,z,Fri Oct 10 2025 13:48:56 GMT-0500 (Central Daylight Time),475048.40000009537,012_o_f_h_a.png,O,z,1262,9,1,2282.600000143051,472765.7999999523,7226,VNB,C,7
8,test,1,0.0,2-Back,1.0,m,Fri Oct 10 2025 13:48:56 GMT-0500 (Central Daylight Time),476831.2000000477,015_o_m_d_a.png,O,m,738,10,1,1754.2000000476837,475077.0,7226,VNB,C,8
9,test,1,1.0,2-Back,1.0,m,Fri Oct 10 2025 13:48:56 GMT-0500 (Central Daylight Time),478946.40000009537,014_m_m_d_a.png,O,m,1071,11,1,2088.9000000953674,476857.5,7226,VNB,C,9
10,test,1,0.0,2-Back,1.0,m,Fri Oct 10 2025 13:48:56 GMT-0500 (Central Daylight Time),480879.7000000477,019_m_f_n_a.png,O,m,895,12,1,1913.7000000476837,478966.0,7226,VNB,C,10
11,test,1,0.0,2-Back,1.0,m,Fri Oct 10 2025 13:48:56 GMT-0500 (Central Daylight Time),482612.2999999523,022_y_f_h_a.png,O,m,698,13,1,1705.5,480906.7999999523,7226,VNB,C,11
12,test,1,0.0,2-Back,1.0,z,Fri Oct 10 2025 13:48:56 GMT-0500 (Central Daylight Time),484511.90000009537,014_m_m_n_a.png,O,z,853,14,1,1872.2999999523163,482639.60000014305,7226,VNB,C,12
13,test,1,0.0,2-Back,1.0,m,Fri Oct 10 2025 13:48:56 GMT-0500 (Central Daylight Time),486594.60000014305,025_y_m_d_a.png,O,m,1026,15,1,2045.5,484549.10000014305,7226,VNB,C,13
14,test,1,1.0,2-Back,1.0,m,Fri Oct 10 2025 13:48:56 GMT-0500 (Central Daylight Time),488709.7000000477,019_m_f_h_a.png,O,m,1059,16,1,2082.7000000476837,486627.0,7226,VNB,C,14
14,test,1,0.0,2-Back,0.0,z,Fri Oct 10 2025 13:48:56 GMT-0500 (Central Daylight Time),491748.40000009537,012_o_f_d_a.png,O,None,2017,17,1,3029.2000000476837,488719.2000000477,7226,VNB,C,15
15,test,1,0.0,2-Back,1.0,m,Fri Oct 10 2025 13:48:56 GMT-0500 (Central Daylight Time),494175.40000009537,015_o_m_n_a.png,O,m,1370,18,1,2397.2999999523163,491778.10000014305,7226,VNB,C,16
0,test,2,0.0,2-Back,,,Fri Oct 10 2025 13:48:56 GMT-0500 (Central Daylight Time),494175.40000009537,014_m_m_h_a.png,O,space,3952,1,1,2397.2999999523163,491778.10000014305,7226,VNB,C,0
0,test,2,0.0,2-Back,,,Fri Oct 10 2025 13:48:56 GMT-0500 (Central Daylight Time),494175.40000009537,022_y_f_n_a.png,O,space,3952,2,1,2397.2999999523163,491778.10000014305,7226,VNB,C,0
1,test,2,1.0,2-Back,1.0,z,Fri Oct 10 2025 13:48:56 GMT-0500 (Central Daylight Time),505371.7000000477,012_o_f_h_a.png,O,z,790,3,1,1818.0999999046326,503553.60000014305,7226,VNB,C,1
2,test,2,0.0,2-Back,1.0,m,Fri Oct 10 2025 13:48:56 GMT-0500 (Central Daylight Time),507287.60000014305,015_o_m_d_a.png,O,m,852,4,1,1882.5,505405.10000014305,7226,VNB,C,2
3,test,2,0.0,2-Back,1.0,m,Fri Oct 10 2025 13:48:56 GMT-0500 (Central Daylight Time),509736.40000009537,019_m_f_d_a.png,O,m,1393,5,1,2411.2999999523163,507325.10000014305,7226,VNB,C,3
3,test,2,0.0,2-Back,0.0,m,Fri Oct 10 2025 13:48:56 GMT-0500 (Central Daylight Time),511518.7999999523,025_y_m_h_a.png,O,z,744,6,1,1761.6999998092651,509757.10000014305,7226,VNB,C,4
3,test,2,0.0,2-Back,0.0,m,Fri Oct 10 2025 13:48:56 GMT-0500 (Central Daylight Time),514551.2999999523,012_o_f_n_a.png,O,None,2015,7,1,3023.0,511528.2999999523,7226,VNB,C,5
4,test,2,1.0,2-Back,1.0,z,Fri Oct 10 2025 13:48:56 GMT-0500 (Central Daylight Time),516350.60000014305,015_o_m_h_a.png,O,z,742,8,1,1789.8000001907349,514560.7999999523,7226,VNB,C,6
5,test,2,0.0,2-Back,1.0,m,Fri Oct 10 2025 13:48:56 GMT-0500 (Central Daylight Time),518183.7000000477,022_y_f_d_a.png,O,m,805,9,1,1825.4000000953674,516358.2999999523,7226,VNB,C,7
6,test,2,0.0,2-Back,1.0,m,Fri Oct 10 2025 13:48:56 GMT-0500 (Central Daylight Time),520141.40000009537,025_y_m_d_a.png,O,m,854,10,1,1895.4000000953674,518246.0,7226,VNB,C,8
7,test,2,0.0,2-Back,1.0,m,Fri Oct 10 2025 13:48:56 GMT-0500 (Central Daylight Time),522670.2000000477,014_m_m_n_a.png,O,m,1136,11,1,2174.0,520496.2000000477,7226,VNB,C,9
8,test,2,0.0,2-Back,1.0,m,Fri Oct 10 2025 13:48:56 GMT-0500 (Central Daylight Time),524331.2000000477,019_m_f_h_a.png,O,m,598,12,1,1612.9000000953674,522718.2999999523,7226,VNB,C,10
9,test,2,1.0,2-Back,1.0,z,Fri Oct 10 2025 13:48:56 GMT-0500 (Central Daylight Time),525864.100000143,015_o_m_n_a.png,O,z,502,13,1,1524.2000000476837,524339.9000000954,7226,VNB,C,11
10,test,2,0.0,2-Back,1.0,m,Fri Oct 10 2025 13:48:56 GMT-0500 (Central Daylight Time),527780.2000000477,012_o_f_d_a.png,O,m,889,14,1,1907.0,525873.2000000477,7226,VNB,C,12
10,test,2,0.0,2-Back,0.0,m,Fri Oct 10 2025 13:48:56 GMT-0500 (Central Daylight Time),530596.7000000477,022_y_f_h_a.png,O,z,1790,15,1,2811.4000000953674,527785.2999999523,7226,VNB,C,13
10,test,2,0.0,2-Back,0.0,z,Fri Oct 10 2025 13:48:56 GMT-0500 (Central Daylight Time),532546.2999999523,014_m_m_d_a.png,O,m,902,16,1,1925.8999998569489,530620.4000000954,7226,VNB,C,14
11,test,2,0.0,2-Back,1.0,m,Fri Oct 10 2025 13:48:56 GMT-0500 (Central Daylight Time),534378.7999999523,025_y_m_n_a.png,O,m,775,17,1,1792.5,532586.2999999523,7226,VNB,C,15
12,test,2,1.0,2-Back,1.0,m,Fri Oct 10 2025 13:48:56 GMT-0500 (Central Daylight Time),536428.4000000954,019_m_f_n_a.png,O,m,993,18,1,2015.2999999523163,534413.100000143,7226,VNB,C,16
0,test,3,1.0,2-Back,,,Fri Oct 10 2025 13:48:56 GMT-0500 (Central Daylight Time),536428.4000000954,015_o_m_n_a.png,O,space,6821,1,1,2015.2999999523163,534413.100000143,7226,VNB,C,0
0,test,3,1.0,2-Back,,,Fri Oct 10 2025 13:48:56 GMT-0500 (Central Daylight Time),536428.4000000954,012_o_f_d_a.png,O,space,6821,2,1,2015.2999999523163,534413.100000143,7226,VNB,C,0
1,test,3,0.0,2-Back,1.0,m,Fri Oct 10 2025 13:48:56 GMT-0500 (Central Daylight Time),550190.4000000954,022_y_f_h_a.png,O,m,812,3,1,1820.0,548370.4000000954,7226,VNB,C,1
2,test,3,0.0,2-Back,1.0,z,Fri Oct 10 2025 13:48:56 GMT-0500 (Central Daylight Time),552406.2999999523,019_m_f_d_a.png,O,z,1156,4,1,2177.5,550228.7999999523,7226,VNB,C,2
3,test,3,1.0,2-Back,1.0,m,Fri Oct 10 2025 13:48:56 GMT-0500 (Central Daylight Time),554105.7999999523,025_y_m_n_a.png,O,m,643,5,1,1669.5,552436.2999999523,7226,VNB,C,3
4,test,3,0.0,2-Back,1.0,m,Fri Oct 10 2025 13:48:56 GMT-0500 (Central Daylight Time),556471.7999999523,015_o_m_h_a.png,O,m,1320,6,1,2337.7999999523163,554134.0,7226,VNB,C,4
5,test,3,0.0,2-Back,1.0,z,Fri Oct 10 2025 13:48:56 GMT-0500 (Central Daylight Time),558637.7000000477,022_y_f_n_a.png,O,z,1130,7,1,2135.2999999523163,556502.4000000954,7226,VNB,C,5
6,test,3,1.0,2-Back,1.0,m,Fri Oct 10 2025 13:48:56 GMT-0500 (Central Daylight Time),560353.600000143,014_m_m_d_a.png,O,m,651,8,1,1692.2000000476837,558661.4000000954,7226,VNB,C,6
7,test,3,0.0,2-Back,1.0,m,Fri Oct 10 2025 13:48:56 GMT-0500 (Central Daylight Time),562652.5,025_y_m_d_a.png,O,m,1249,9,1,2276.2999999523163,560376.2000000477,7226,VNB,C,7
7,test,3,0.0,2-Back,0.0,m,Fri Oct 10 2025 13:48:56 GMT-0500 (Central Daylight Time),564185.7999999523,012_o_f_h_a.png,O,z,488,10,1,1504.2999999523163,562681.5,7226,VNB,C,8
8,test,3,1.0,2-Back,1.0,m,Fri Oct 10 2025 13:48:56 GMT-0500 (Central Daylight Time),566068.2999999523,019_m_f_n_a.png,O,m,823,11,1,1846.8999998569489,564221.4000000954,7226,VNB,C,9
9,test,3,1.0,2-Back,1.0,z,Fri Oct 10 2025 13:48:56 GMT-0500 (Central Daylight Time),567634.7000000477,014_m_m_h_a.png,O,z,509,12,1,1535.7000000476837,566099.0,7226,VNB,C,10
10,test,3,0.0,2-Back,1.0,m,Fri Oct 10 2025 13:48:56 GMT-0500 (Central Daylight Time),569650.2999999523,022_y_f_d_a.png,O,m,967,13,1,1985.6999998092651,567664.600000143,7226,VNB,C,11
11,test,3,0.0,2-Back,1.0,m,Fri Oct 10 2025 13:48:56 GMT-0500 (Central Daylight Time),572266.5,012_o_f_n_a.png,O,m,1575,14,1,2589.0,569677.5,7226,VNB,C,12
12,test,3,0.0,2-Back,1.0,z,Fri Oct 10 2025 13:48:56 GMT-0500 (Central Daylight Time),573999.2000000477,015_o_m_d_a.png,O,z,671,15,1,1695.2000000476837,572304.0,7226,VNB,C,13
13,test,3,1.0,2-Back,1.0,m,Fri Oct 10 2025 13:48:56 GMT-0500 (Central Daylight Time),575898.7000000477,019_m_f_h_a.png,O,m,835,16,1,1860.7999999523163,574037.9000000954,7226,VNB,C,14
13,test,3,0.0,2-Back,0.0,m,Fri Oct 10 2025 13:48:56 GMT-0500 (Central Daylight Time),578664.4000000954,014_m_m_n_a.png,O,z,1710,17,1,2734.7000000476837,575929.7000000477,7226,VNB,C,15
14,test,3,0.0,2-Back,1.0,z,Fri Oct 10 2025 13:48:56 GMT-0500 (Central Daylight Time),580646.2000000477,025_y_m_h_a.png,O,z,928,18,1,1954.9000000953674,578691.2999999523,7226,VNB,C,16
0,test,4,0.0,2-Back,,,Fri Oct 10 2025 13:48:56 GMT-0500 (Central Daylight Time),580646.2000000477,019_m_f_n_a.png,O,space,2994,1,1,1954.9000000953674,578691.2999999523,7226,VNB,C,0
0,test,4,0.0,2-Back,,,Fri Oct 10 2025 13:48:56 GMT-0500 (Central Daylight Time),580646.2000000477,015_o_m_n_a.png,O,space,2994,2,1,1954.9000000953674,578691.2999999523,7226,VNB,C,0
1,test,4,1.0,2-Back,1.0,m,Fri Oct 10 2025 13:48:56 GMT-0500 (Central Daylight Time),590826.100000143,025_y_m_h_a.png,O,m,700,3,1,1717.7000000476837,589108.4000000954,7226,VNB,C,1
2,test,4,1.0,2-Back,1.0,m,Fri Oct 10 2025 13:48:56 GMT-0500 (Central Daylight Time),593492.5,012_o_f_d_a.png,O,m,1619,4,1,2648.0,590844.5,7226,VNB,C,2
3,test,4,0.0,2-Back,1.0,z,Fri Oct 10 2025 13:48:56 GMT-0500 (Central Daylight Time),595558.7999999523,015_o_m_h_a.png,O,z,1029,5,1,2034.7999999523163,593524.0,7226,VNB,C,3
4,test,4,0.0,2-Back,1.0,m,Fri Oct 10 2025 13:48:56 GMT-0500 (Central Daylight Time),597275.0,014_m_m_n_a.png,O,m,667,6,1,1684.5999999046326,595590.4000000954,7226,VNB,C,4
5,test,4,0.0,2-Back,1.0,m,Fri Oct 10 2025 13:48:56 GMT-0500 (Central Daylight Time),599124.2000000477,019_m_f_d_a.png,O,m,807,7,1,1818.7000000476837,597305.5,7226,VNB,C,5
6,test,4,0.0,2-Back,1.0,z,Fri Oct 10 2025 13:48:56 GMT-0500 (Central Daylight Time),601173.4000000954,022_y_f_n_a.png,O,z,1014,8,1,2020.9000000953674,599152.5,7226,VNB,C,6
7,test,4,1.0,2-Back,1.0,m,Fri Oct 10 2025 13:48:56 GMT-0500 (Central Daylight Time),602906.4000000954,012_o_f_h_a.png,O,m,693,9,1,1708.6000001430511,601197.7999999523,7226,VNB,C,7
8,test,4,0.0,2-Back,1.0,m,Fri Oct 10 2025 13:48:56 GMT-0500 (Central Daylight Time),604922.2999999523,014_m_m_h_a.png,O,m,950,10,1,1986.5,602935.7999999523,7226,VNB,C,8
9,test,4,0.0,2-Back,1.0,m,Fri Oct 10 2025 13:48:56 GMT-0500 (Central Daylight Time),606755.100000143,022_y_f_d_a.png,O,m,783,11,1,1804.4000000953674,604950.7000000477,7226,VNB,C,9
10,test,4,0.0,2-Back,1.0,m,Fri Oct 10 2025 13:48:56 GMT-0500 (Central Daylight Time),608871.2000000477,025_y_m_n_a.png,O,m,1055,12,1,2082.0999999046326,606789.100000143,7226,VNB,C,10
11,test,4,0.0,2-Back,1.0,z,Fri Oct 10 2025 13:48:56 GMT-0500 (Central Daylight Time),611603.600000143,015_o_m_d_a.png,O,z,1667,13,1,2695.9000000953674,608907.7000000477,7226,VNB,C,11
12,test,4,1.0,2-Back,1.0,m,Fri Oct 10 2025 13:48:56 GMT-0500 (Central Daylight Time),613486.2000000477,019_m_f_h_a.png,O,m,839,14,1,1853.9000000953674,611632.2999999523,7226,VNB,C,12
13,test,4,1.0,2-Back,1.0,m,Fri Oct 10 2025 13:48:56 GMT-0500 (Central Daylight Time),615652.2999999523,022_y_f_h_a.png,O,m,1108,15,1,2139.2999999523163,613513.0,7226,VNB,C,13
14,test,4,0.0,2-Back,1.0,m,Fri Oct 10 2025 13:48:56 GMT-0500 (Central Daylight Time),617568.100000143,012_o_f_n_a.png,O,m,862,16,1,1880.5,615687.600000143,7226,VNB,C,14
15,test,4,0.0,2-Back,1.0,m,Fri Oct 10 2025 13:48:56 GMT-0500 (Central Daylight Time),619450.9000000954,025_y_m_d_a.png,O,m,825,17,1,1845.0,617605.9000000954,7226,VNB,C,15
16,test,4,1.0,2-Back,1.0,m,Fri Oct 10 2025 13:48:56 GMT-0500 (Central Daylight Time),621666.9000000954,014_m_m_d_a.png,O,m,1172,18,1,2193.2000000476837,619473.7000000477,7226,VNB,C,16
0,test,5,1.0,2-Back,,,Fri Oct 10 2025 13:48:56 GMT-0500 (Central Daylight Time),621666.9000000954,022_y_f_d_a.png,O,space,3921,1,1,2193.2000000476837,619473.7000000477,7226,VNB,C,0
0,test,5,1.0,2-Back,,,Fri Oct 10 2025 13:48:56 GMT-0500 (Central Daylight Time),621666.9000000954,012_o_f_h_a.png,O,space,3921,2,1,2193.2000000476837,619473.7000000477,7226,VNB,C,0
1,test,5,1.0,2-Back,1.0,z,Fri Oct 10 2025 13:48:56 GMT-0500 (Central Daylight Time),632712.7000000477,015_o_m_d_a.png,O,z,676,3,1,1699.5,631013.2000000477,7226,VNB,C,1
2,test,5,1.0,2-Back,1.0,m,Fri Oct 10 2025 13:48:56 GMT-0500 (Central Daylight Time),634612.5,019_m_f_n_a.png,O,m,882,4,1,1887.2000000476837,632725.2999999523,7226,VNB,C,2
3,test,5,0.0,2-Back,1.0,m,Fri Oct 10 2025 13:48:56 GMT-0500 (Central Daylight Time),636678.600000143,014_m_m_h_a.png,O,m,1021,5,1,2038.0,634640.600000143,7226,VNB,C,3
4,test,5,0.0,2-Back,1.0,z,Fri Oct 10 2025 13:48:56 GMT-0500 (Central Daylight Time),638161.5,022_y_f_n_a.png,O,z,419,6,1,1447.5999999046326,636713.9000000954,7226,VNB,C,4
5,test,5,0.0,2-Back,1.0,m,Fri Oct 10 2025 13:48:56 GMT-0500 (Central Daylight Time),639726.7000000477,012_o_f_d_a.png,O,m,520,7,1,1538.7999999523163,638187.9000000954,7226,VNB,C,5
6,test,5,0.0,2-Back,1.0,m,Fri Oct 10 2025 13:48:56 GMT-0500 (Central Daylight Time),641826.0,015_o_m_h_a.png,O,m,1067,8,1,2091.5,639734.5,7226,VNB,C,6
7,test,5,1.0,2-Back,1.0,z,Fri Oct 10 2025 13:48:56 GMT-0500 (Central Daylight Time),643859.7000000477,019_m_f_d_a.png,O,z,1009,9,1,2024.0,641835.7000000477,7226,VNB,C,7
8,test,5,0.0,2-Back,1.0,m,Fri Oct 10 2025 13:48:56 GMT-0500 (Central Daylight Time),645792.4000000954,025_y_m_n_a.png,O,m,870,10,1,1900.5,643891.9000000954,7226,VNB,C,8
9,test,5,0.0,2-Back,1.0,m,Fri Oct 10 2025 13:48:56 GMT-0500 (Central Daylight Time),647941.4000000954,014_m_m_n_a.png,O,m,1097,11,1,2106.7999999523163,645834.600000143,7226,VNB,C,9
10,test,5,0.0,2-Back,1.0,m,Fri Oct 10 2025 13:48:56 GMT-0500 (Central Daylight Time),649974.2999999523,022_y_f_h_a.png,O,m,994,12,1,2007.0,647967.2999999523,7226,VNB,C,10
11,test,5,0.0,2-Back,1.0,m,Fri Oct 10 2025 13:48:56 GMT-0500 (Central Daylight Time),652006.7999999523,025_y_m_d_a.png,O,m,972,13,1,2002.5999999046326,650004.2000000477,7226,VNB,C,11
12,test,5,1.0,2-Back,1.0,z,Fri Oct 10 2025 13:48:56 GMT-0500 (Central Daylight Time),654622.7999999523,019_m_f_h_a.png,O,z,1579,14,1,2589.199999809265,652033.600000143,7226,VNB,C,12
13,test,5,0.0,2-Back,1.0,m,Fri Oct 10 2025 13:48:56 GMT-0500 (Central Daylight Time),656838.5,015_o_m_n_a.png,O,m,1171,15,1,2189.5999999046326,654648.9000000954,7226,VNB,C,13
14,test,5,0.0,2-Back,1.0,m,Fri Oct 10 2025 13:48:56 GMT-0500 (Central Daylight Time),658704.7000000477,014_m_m_d_a.png,O,m,804,16,1,1827.9000000953674,656876.7999999523,7226,VNB,C,14
15,test,5,0.0,2-Back,1.0,z,Fri Oct 10 2025 13:48:56 GMT-0500 (Central Daylight Time),660903.9000000954,012_o_f_n_a.png,O,z,1144,17,1,2167.100000143051,658736.7999999523,7226,VNB,C,15
16,test,5,1.0,2-Back,1.0,m,Fri Oct 10 2025 13:48:56 GMT-0500 (Central Daylight Time),662619.5,025_y_m_h_a.png,O,m,681,18,1,1690.8999998569489,660928.600000143,7226,VNB,C,16
