block_c,block_dur,condition,countdown,datetime,endtime,list,multichar_response,project,response,response_time,session_number,start_end,starttime,subject_id,task,task_vers,trial
,,,,Mon May 12 2025 16:40:18 GMT-0500 (Central Daylight Time),,,,O,space,456,1,,,7151,WL,A,
prac,,0,,Mon May 12 2025 16:40:18 GMT-0500 (Central Daylight Time),,NA,b,O,b,3897,1,,,7151,WL,A,1.0
prac,,0,,Mon May 12 2025 16:40:18 GMT-0500 (Central Daylight Time),,NA,bo,O,o,728,1,,,7151,WL,A,1.0
prac,,0,,Mon May 12 2025 16:40:18 GMT-0500 (Central Daylight Time),,NA,boo,O,o,147,1,,,7151,WL,A,1.0
prac,,0,,Mon May 12 2025 16:40:18 GMT-0500 (Central Daylight Time),,NA,boos,O,s,66,1,,,7151,WL,A,1.0
prac,,0,,Mon May 12 2025 16:40:18 GMT-0500 (Central Daylight Time),,NA,boost,O,t,598,1,,,7151,WL,A,1.0
prac,,0,,Mon May 12 2025 16:40:18 GMT-0500 (Central Daylight Time),,NA,boostenter,O,enter,1596,1,,,7151,WL,A,1.0
1,2.5989999771118164,learn,57401.00002288818,Mon May 12 2025 16:40:18 GMT-0500 (Central Daylight Time),128202.89999997616,A,b,O,b,2590,1,2598.8000000715256,125604.09999990463,7151,WL,A,1.0
1,3.065999984741211,learn,56934.00001525879,Mon May 12 2025 16:40:18 GMT-0500 (Central Daylight Time),128670.19999992847,A,bo,O,o,456,1,3066.100000023842,125604.09999990463,7151,WL,A,1.0
1,3.2659997940063477,learn,56734.00020599365,Mon May 12 2025 16:40:18 GMT-0500 (Central Daylight Time),128870.0,A,boo,O,o,181,1,3265.9000000953674,125604.09999990463,7151,WL,A,1.0
1,3.5179998874664307,learn,56482.00011253357,Mon May 12 2025 16:40:18 GMT-0500 (Central Daylight Time),129122.09999990463,A,book,O,k,239,1,3518.0,125604.09999990463,7151,WL,A,1.0
1,5.948999881744385,learn,54051.000118255615,Mon May 12 2025 16:40:18 GMT-0500 (Central Daylight Time),131553.5,A,bookenter,O,enter,2415,1,5949.400000095367,125604.09999990463,7151,WL,A,1.0
1,8.180999994277954,learn,51819.000005722046,Mon May 12 2025 16:40:18 GMT-0500 (Central Daylight Time),133784.89999997616,A,f,O,f,2216,1,2231.0,131553.89999997616,7151,WL,A,2.0
1,8.329999923706055,learn,51670.000076293945,Mon May 12 2025 16:40:18 GMT-0500 (Central Daylight Time),133934.69999992847,A,fl,O,l,131,1,2380.7999999523163,131553.89999997616,7151,WL,A,2.0
1,8.546000003814697,learn,51453.9999961853,Mon May 12 2025 16:40:18 GMT-0500 (Central Daylight Time),134150.39999997616,A,flo,O,o,204,1,2596.5,131553.89999997616,7151,WL,A,2.0
1,8.746999979019165,learn,51253.000020980835,Mon May 12 2025 16:40:18 GMT-0500 (Central Daylight Time),134351.0,A,flow,O,w,191,1,2797.100000023842,131553.89999997616,7151,WL,A,2.0
1,8.965999841690063,learn,51034.00015830994,Mon May 12 2025 16:40:18 GMT-0500 (Central Daylight Time),134570.69999992847,A,flowe,O,e,215,1,3016.7999999523163,131553.89999997616,7151,WL,A,2.0
1,9.180999994277954,learn,50819.000005722046,Mon May 12 2025 16:40:18 GMT-0500 (Central Daylight Time),134785.59999990463,A,flower,O,r,207,1,3231.6999999284744,131553.89999997616,7151,WL,A,2.0
1,9.413999795913696,learn,50586.000204086304,Mon May 12 2025 16:40:18 GMT-0500 (Central Daylight Time),135018.5,A,flowerenter,O,enter,226,1,3464.600000023842,131553.89999997616,7151,WL,A,2.0
1,10.447999954223633,learn,49552.00004577637,Mon May 12 2025 16:40:18 GMT-0500 (Central Daylight Time),136052.29999995232,A,t,O,t,1011,1,1033.3999999761581,135018.89999997616,7151,WL,A,3.0
1,10.661999940872192,learn,49338.00005912781,Mon May 12 2025 16:40:18 GMT-0500 (Central Daylight Time),136266.79999995232,A,tr,O,r,196,1,1247.8999999761581,135018.89999997616,7151,WL,A,3.0
1,10.878999948501587,learn,49121.00005149841,Mon May 12 2025 16:40:18 GMT-0500 (Central Daylight Time),136482.89999997616,A,tra,O,a,209,1,1464.0,135018.89999997616,7151,WL,A,3.0
1,11.046000003814697,learn,48953.9999961853,Mon May 12 2025 16:40:18 GMT-0500 (Central Daylight Time),136650.69999992847,A,trai,O,i,153,1,1631.7999999523163,135018.89999997616,7151,WL,A,3.0
1,11.247999906539917,learn,48752.00009346008,Mon May 12 2025 16:40:18 GMT-0500 (Central Daylight Time),136852.19999992847,A,train,O,n,186,1,1833.2999999523163,135018.89999997616,7151,WL,A,3.0
1,11.46399998664856,learn,48536.00001335144,Mon May 12 2025 16:40:18 GMT-0500 (Central Daylight Time),137067.79999995232,A,trainenter,O,enter,197,1,2048.899999976158,135018.89999997616,7151,WL,A,3.0
1,12.312999963760376,learn,47687.000036239624,Mon May 12 2025 16:40:18 GMT-0500 (Central Daylight Time),137917.19999992847,A,k,O,k,833,1,849.0,137068.19999992847,7151,WL,A,4.0
1,12.462999820709229,learn,47537.00017929077,Mon May 12 2025 16:40:18 GMT-0500 (Central Daylight Time),138067.29999995232,A,ke,O,e,133,1,999.1000000238419,137068.19999992847,7151,WL,A,4.0
1,12.845999956130981,learn,47154.00004386902,Mon May 12 2025 16:40:18 GMT-0500 (Central Daylight Time),138450.0,A,key,O,y,369,1,1381.8000000715256,137068.19999992847,7151,WL,A,4.0
1,13.36299991607666,learn,46637.00008392334,Mon May 12 2025 16:40:18 GMT-0500 (Central Daylight Time),138967.39999997616,A,keyenter,O,enter,499,1,1899.2000000476837,137068.19999992847,7151,WL,A,4.0
1,14.077999830245972,learn,45922.00016975403,Mon May 12 2025 16:40:18 GMT-0500 (Central Daylight Time),139681.89999997616,A,s,O,s,701,1,714.3000000715256,138967.59999990463,7151,WL,A,5.0
1,14.328999996185303,learn,45671.0000038147,Mon May 12 2025 16:40:18 GMT-0500 (Central Daylight Time),139933.5,A,sa,O,a,235,1,965.9000000953674,138967.59999990463,7151,WL,A,5.0
1,14.462999820709229,learn,45537.00017929077,Mon May 12 2025 16:40:18 GMT-0500 (Central Daylight Time),140067.39999997616,A,sal,O,l,118,1,1099.8000000715256,138967.59999990463,7151,WL,A,5.0
1,14.863999843597412,learn,45136.00015640259,Mon May 12 2025 16:40:18 GMT-0500 (Central Daylight Time),140467.89999997616,A,salt,O,t,393,1,1500.3000000715256,138967.59999990463,7151,WL,A,5.0
1,17.877999782562256,learn,42122.000217437744,Mon May 12 2025 16:40:18 GMT-0500 (Central Daylight Time),143482.39999997616,A,saltk,O,k,2998,1,4514.800000071526,138967.59999990463,7151,WL,A,5.0
1,18.009999990463257,learn,41990.00000953674,Mon May 12 2025 16:40:18 GMT-0500 (Central Daylight Time),143614.09999990463,A,saltke,O,e,122,1,4646.5,138967.59999990463,7151,WL,A,5.0
1,18.444999933242798,learn,41555.0000667572,Mon May 12 2025 16:40:18 GMT-0500 (Central Daylight Time),144049.19999992847,A,saltkey,O,y,422,1,5081.600000023842,138967.59999990463,7151,WL,A,5.0
1,20.16100001335144,learn,39838.99998664856,Mon May 12 2025 16:40:18 GMT-0500 (Central Daylight Time),145765.39999997616,A,saltke,O,backspace,1708,1,6797.800000071526,138967.59999990463,7151,WL,A,5.0
1,20.377999782562256,learn,39622.000217437744,Mon May 12 2025 16:40:18 GMT-0500 (Central Daylight Time),145982.69999992847,A,saltk,O,backspace,198,1,7015.100000023842,138967.59999990463,7151,WL,A,5.0
1,20.57799983024597,learn,39422.00016975403,Mon May 12 2025 16:40:18 GMT-0500 (Central Daylight Time),146181.79999995232,A,salt,O,backspace,181,1,7214.200000047684,138967.59999990463,7151,WL,A,5.0
1,20.8439998626709,learn,39156.0001373291,Mon May 12 2025 16:40:18 GMT-0500 (Central Daylight Time),146448.09999990463,A,saltenter,O,enter,255,1,7480.5,138967.59999990463,7151,WL,A,5.0
1,21.95899987220764,learn,38041.00012779236,Mon May 12 2025 16:40:18 GMT-0500 (Central Daylight Time),147562.89999997616,A,k,O,k,1100,1,1114.6000000238419,146448.29999995232,7151,WL,A,6.0
1,22.075999975204468,learn,37924.00002479553,Mon May 12 2025 16:40:18 GMT-0500 (Central Daylight Time),147680.09999990463,A,ke,O,e,112,1,1231.7999999523163,146448.29999995232,7151,WL,A,6.0
1,22.39299988746643,learn,37607.00011253357,Mon May 12 2025 16:40:18 GMT-0500 (Central Daylight Time),147997.69999992847,A,key,O,y,309,1,1549.3999999761581,146448.29999995232,7151,WL,A,6.0
1,22.80900001525879,learn,37190.99998474121,Mon May 12 2025 16:40:18 GMT-0500 (Central Daylight Time),148412.89999997616,A,keyenter,O,enter,398,1,1964.6000000238419,146448.29999995232,7151,WL,A,6.0
1,25.908999919891357,learn,34091.00008010864,Mon May 12 2025 16:40:18 GMT-0500 (Central Daylight Time),151512.89999997616,A,m,O,m,3080,1,3099.8000000715256,148413.09999990463,7151,WL,A,7.0
1,26.157999992370605,learn,33842.000007629395,Mon May 12 2025 16:40:18 GMT-0500 (Central Daylight Time),151762.69999992847,A,me,O,e,245,1,3349.600000023842,148413.09999990463,7151,WL,A,7.0
1,26.425999879837036,learn,33574.000120162964,Mon May 12 2025 16:40:18 GMT-0500 (Central Daylight Time),152029.79999995232,A,med,O,d,251,1,3616.7000000476837,148413.09999990463,7151,WL,A,7.0
1,26.643999814987183,learn,33356.00018501282,Mon May 12 2025 16:40:18 GMT-0500 (Central Daylight Time),152248.19999992847,A,medo,O,o,198,1,3835.100000023842,148413.09999990463,7151,WL,A,7.0
1,26.776999950408936,learn,33223.000049591064,Mon May 12 2025 16:40:18 GMT-0500 (Central Daylight Time),152381.89999997616,A,medow,O,w,113,1,3968.8000000715256,148413.09999990463,7151,WL,A,7.0
1,28.276999950408936,learn,31723.000049591064,Mon May 12 2025 16:40:18 GMT-0500 (Central Daylight Time),153881.0,A,medo,O,backspace,1471,1,5467.900000095367,148413.09999990463,7151,WL,A,7.0
1,29.092999935150146,learn,30907.000064849854,Mon May 12 2025 16:40:18 GMT-0500 (Central Daylight Time),154697.09999990463,A,med,O,backspace,804,1,6284.0,148413.09999990463,7151,WL,A,7.0
1,30.256999969482422,learn,29743.000030517578,Mon May 12 2025 16:40:18 GMT-0500 (Central Daylight Time),155861.69999992847,A,me,O,backspace,1146,1,7448.600000023842,148413.09999990463,7151,WL,A,7.0
1,31.375,learn,28625.0,Mon May 12 2025 16:40:18 GMT-0500 (Central Daylight Time),156979.19999992847,A,mea,O,a,1095,1,8566.100000023842,148413.09999990463,7151,WL,A,7.0
1,31.62399983406067,learn,28376.00016593933,Mon May 12 2025 16:40:18 GMT-0500 (Central Daylight Time),157228.39999997616,A,mead,O,d,233,1,8815.300000071526,148413.09999990463,7151,WL,A,7.0
1,31.857999801635742,learn,28142.000198364258,Mon May 12 2025 16:40:18 GMT-0500 (Central Daylight Time),157462.79999995232,A,meado,O,o,213,1,9049.700000047684,148413.09999990463,7151,WL,A,7.0
1,31.95899987220764,learn,28041.00012779236,Mon May 12 2025 16:40:18 GMT-0500 (Central Daylight Time),157563.19999992847,A,meadow,O,w,84,1,9150.100000023842,148413.09999990463,7151,WL,A,7.0
1,33.0239999294281,learn,26976.0000705719,Mon May 12 2025 16:40:18 GMT-0500 (Central Daylight Time),158628.5,A,meadowenter,O,enter,1043,1,10215.400000095367,148413.09999990463,7151,WL,A,7.0
1,34.592000007629395,learn,25407.999992370605,Mon May 12 2025 16:40:18 GMT-0500 (Central Daylight Time),160195.89999997616,A,c,O,c,1551,1,1567.0,158628.89999997616,7151,WL,A,8.0
1,34.973999977111816,learn,25026.000022888184,Mon May 12 2025 16:40:18 GMT-0500 (Central Daylight Time),160578.69999992847,A,ch,O,h,368,1,1949.7999999523163,158628.89999997616,7151,WL,A,8.0
1,35.30799984931946,learn,24692.000150680542,Mon May 12 2025 16:40:18 GMT-0500 (Central Daylight Time),160912.09999990463,A,chi,O,i,321,1,2283.1999999284744,158628.89999997616,7151,WL,A,8.0
1,35.62299990653992,learn,24377.000093460083,Mon May 12 2025 16:40:18 GMT-0500 (Central Daylight Time),161227.0,A,chim,O,m,309,1,2598.100000023842,158628.89999997616,7151,WL,A,8.0
1,35.85699987411499,learn,24143.00012588501,Mon May 12 2025 16:40:18 GMT-0500 (Central Daylight Time),161461.09999990463,A,chime,O,e,225,1,2832.1999999284744,158628.89999997616,7151,WL,A,8.0
1,36.49000000953674,learn,23509.999990463257,Mon May 12 2025 16:40:18 GMT-0500 (Central Daylight Time),162094.39999997616,A,chimey,O,y,613,1,3465.5,158628.89999997616,7151,WL,A,8.0
1,37.972999811172485,learn,22027.000188827515,Mon May 12 2025 16:40:18 GMT-0500 (Central Daylight Time),163577.19999992847,A,chimeyenter,O,enter,1457,1,4948.299999952316,158628.89999997616,7151,WL,A,8.0
1,42.97699999809265,learn,17023.00000190735,Mon May 12 2025 16:40:18 GMT-0500 (Central Daylight Time),168580.89999997616,A,g,O,g,4982,1,5003.399999976158,163577.5,7151,WL,A,9.0
1,43.18899989128113,learn,16811.000108718872,Mon May 12 2025 16:40:18 GMT-0500 (Central Daylight Time),168793.39999997616,A,go,O,o,191,1,5215.899999976158,163577.5,7151,WL,A,9.0
1,43.370999813079834,learn,16629.000186920166,Mon May 12 2025 16:40:18 GMT-0500 (Central Daylight Time),168975.69999992847,A,gol,O,l,163,1,5398.199999928474,163577.5,7151,WL,A,9.0
1,43.502999782562256,learn,16497.000217437744,Mon May 12 2025 16:40:18 GMT-0500 (Central Daylight Time),169107.69999992847,A,gold,O,d,124,1,5530.199999928474,163577.5,7151,WL,A,9.0
1,43.72099995613098,learn,16279.000043869019,Mon May 12 2025 16:40:18 GMT-0500 (Central Daylight Time),169324.79999995232,A,goldenter,O,enter,205,1,5747.299999952316,163577.5,7151,WL,A,9.0
1,60.01599979400635,learn,-15.999794006347656,Mon May 12 2025 16:40:18 GMT-0500 (Central Daylight Time),185620.19999992847,A,None,O,None,16290,1,16295.100000023842,169325.09999990463,7151,WL,A,10.0
2,0.5329999923706055,learn,59467.000007629395,Mon May 12 2025 16:40:18 GMT-0500 (Central Daylight Time),251665.79999995232,A,r,O,r,526,1,532.7999999523163,251133.0,7151,WL,A,1.0
2,1.5139999389648438,learn,58486.000061035156,Mon May 12 2025 16:40:18 GMT-0500 (Central Daylight Time),252647.09999990463,A,ru,O,u,960,1,1514.0999999046326,251133.0,7151,WL,A,1.0
2,1.9149999618530273,learn,58085.00003814697,Mon May 12 2025 16:40:18 GMT-0500 (Central Daylight Time),253047.79999995232,A,rug,O,g,390,1,1914.7999999523163,251133.0,7151,WL,A,1.0
2,2.247999906539917,learn,57752.00009346008,Mon May 12 2025 16:40:18 GMT-0500 (Central Daylight Time),253380.5,A,rugenter,O,enter,324,1,2247.5,251133.0,7151,WL,A,1.0
2,2.997999906539917,learn,57002.00009346008,Mon May 12 2025 16:40:18 GMT-0500 (Central Daylight Time),254131.0,A,a,O,a,744,1,750.3000000715256,253380.69999992847,7151,WL,A,2.0
2,3.314000129699707,learn,56685.99987030029,Mon May 12 2025 16:40:18 GMT-0500 (Central Daylight Time),254447.29999995232,A,ap,O,p,304,1,1066.6000000238419,253380.69999992847,7151,WL,A,2.0
2,3.615000009536743,learn,56384.99999046326,Mon May 12 2025 16:40:18 GMT-0500 (Central Daylight Time),254747.59999990463,A,apl,O,l,293,1,1366.8999999761581,253380.69999992847,7151,WL,A,2.0
2,3.749000072479248,learn,56250.99992752075,Mon May 12 2025 16:40:18 GMT-0500 (Central Daylight Time),254881.29999995232,A,apll,O,l,127,1,1500.6000000238419,253380.69999992847,7151,WL,A,2.0
2,4.230999946594238,learn,55769.00005340576,Mon May 12 2025 16:40:18 GMT-0500 (Central Daylight Time),255363.59999990463,A,aplle,O,e,475,1,1982.8999999761581,253380.69999992847,7151,WL,A,2.0
2,4.999000072479248,learn,55000.99992752075,Mon May 12 2025 16:40:18 GMT-0500 (Central Daylight Time),256131.39999997616,A,aplleenter,O,enter,751,1,2750.7000000476837,253380.69999992847,7151,WL,A,2.0
2,6.365000009536743,learn,53634.99999046326,Mon May 12 2025 16:40:18 GMT-0500 (Central Daylight Time),257498.0,A,a,O,a,1361,1,1366.4000000953674,256131.59999990463,7151,WL,A,3.0
2,6.765000104904175,learn,53234.999895095825,Mon May 12 2025 16:40:18 GMT-0500 (Central Daylight Time),257898.09999990463,A,ap,O,p,393,1,1766.5,256131.59999990463,7151,WL,A,3.0
2,6.930000066757202,learn,53069.9999332428,Mon May 12 2025 16:40:18 GMT-0500 (Central Daylight Time),258063.29999995232,A,app,O,p,144,1,1931.7000000476837,256131.59999990463,7151,WL,A,3.0
2,7.130000114440918,learn,52869.99988555908,Mon May 12 2025 16:40:18 GMT-0500 (Central Daylight Time),258263.19999992847,A,appl,O,l,179,1,2131.600000023842,256131.59999990463,7151,WL,A,3.0
2,7.296999931335449,learn,52703.00006866455,Mon May 12 2025 16:40:18 GMT-0500 (Central Daylight Time),258429.69999992847,A,apple,O,e,149,1,2298.100000023842,256131.59999990463,7151,WL,A,3.0
2,8.095999956130981,learn,51904.00004386902,Mon May 12 2025 16:40:18 GMT-0500 (Central Daylight Time),259229.0,A,appleenter,O,enter,780,1,3097.4000000953674,256131.59999990463,7151,WL,A,3.0
2,9.015000104904175,learn,50984.999895095825,Mon May 12 2025 16:40:18 GMT-0500 (Central Daylight Time),260147.39999997616,A,l,O,l,897,1,918.2000000476837,259229.19999992847,7151,WL,A,4.0
2,9.229000091552734,learn,50770.999908447266,Mon May 12 2025 16:40:18 GMT-0500 (Central Daylight Time),260361.89999997616,A,lo,O,o,200,1,1132.7000000476837,259229.19999992847,7151,WL,A,4.0
2,9.531000137329102,learn,50468.9998626709,Mon May 12 2025 16:40:18 GMT-0500 (Central Daylight Time),260663.5,A,log,O,g,282,1,1434.3000000715256,259229.19999992847,7151,WL,A,4.0
2,9.829999923706055,learn,50170.000076293945,Mon May 12 2025 16:40:18 GMT-0500 (Central Daylight Time),260963.19999992847,A,logenter,O,enter,294,1,1734.0,259229.19999992847,7151,WL,A,4.0
2,24.259000062942505,learn,35740.999937057495,Mon May 12 2025 16:40:18 GMT-0500 (Central Daylight Time),275391.39999997616,A,enter,O,enter,14417,1,14428.0,260963.39999997616,7151,WL,A,5.0
2,32.52300000190735,learn,27476.99999809265,Mon May 12 2025 16:40:18 GMT-0500 (Central Daylight Time),283655.89999997616,A,enter,O,enter,8244,1,8264.200000047684,275391.6999999285,7151,WL,A,6.0
2,60.013999938964844,learn,-13.99993896484375,Mon May 12 2025 16:40:18 GMT-0500 (Central Daylight Time),311147.09999990463,A,None,O,None,27486,1,27490.799999952316,283656.2999999523,7151,WL,A,7.0
3,1.4849998950958252,learn,58515.000104904175,Mon May 12 2025 16:40:18 GMT-0500 (Central Daylight Time),389123.39999997616,A,t,O,t,1462,1,1484.3000000715256,387639.09999990463,7151,WL,A,1.0
3,1.7319998741149902,learn,58268.00012588501,Mon May 12 2025 16:40:18 GMT-0500 (Central Daylight Time),389370.6999999285,A,tr,O,r,239,1,1731.6000000238419,387639.09999990463,7151,WL,A,1.0
3,2.0989999771118164,learn,57901.00002288818,Mon May 12 2025 16:40:18 GMT-0500 (Central Daylight Time),389737.2999999523,A,tra,O,a,353,1,2098.2000000476837,387639.09999990463,7151,WL,A,1.0
3,2.251999855041504,learn,57748.000144958496,Mon May 12 2025 16:40:18 GMT-0500 (Central Daylight Time),389890.59999990463,A,trai,O,i,146,1,2251.5,387639.09999990463,7151,WL,A,1.0
3,2.500999927520752,learn,57499.00007247925,Mon May 12 2025 16:40:18 GMT-0500 (Central Daylight Time),390139.5,A,train,O,n,227,1,2500.4000000953674,387639.09999990463,7151,WL,A,1.0
3,2.882999897003174,learn,57117.000102996826,Mon May 12 2025 16:40:18 GMT-0500 (Central Daylight Time),390521.2999999523,A,trainenter,O,enter,359,1,2882.2000000476837,387639.09999990463,7151,WL,A,1.0
3,3.6669998168945312,learn,56333.00018310547,Mon May 12 2025 16:40:18 GMT-0500 (Central Daylight Time),391305.1999999285,A,r,O,r,770,1,783.5,390521.6999999285,7151,WL,A,2.0
3,4.11899995803833,learn,55881.00004196167,Mon May 12 2025 16:40:18 GMT-0500 (Central Daylight Time),391757.6999999285,A,ru,O,u,445,1,1236.0,390521.6999999285,7151,WL,A,2.0
3,4.4670000076293945,learn,55532.999992370605,Mon May 12 2025 16:40:18 GMT-0500 (Central Daylight Time),392105.59999990463,A,rug,O,g,338,1,1583.8999999761581,390521.6999999285,7151,WL,A,2.0
3,4.9670000076293945,learn,55032.999992370605,Mon May 12 2025 16:40:18 GMT-0500 (Central Daylight Time),392605.39999997616,A,rugenter,O,enter,491,1,2083.7000000476837,390521.6999999285,7151,WL,A,2.0
3,5.582000017166138,learn,54417.99998283386,Mon May 12 2025 16:40:18 GMT-0500 (Central Daylight Time),393220.59999990463,A,a,O,a,607,1,615.0,392605.59999990463,7151,WL,A,3.0
3,6.016999959945679,learn,53983.00004005432,Mon May 12 2025 16:40:18 GMT-0500 (Central Daylight Time),393655.1999999285,A,ap,O,p,413,1,1049.6000000238419,392605.59999990463,7151,WL,A,3.0
3,6.2159998416900635,learn,53784.00015830994,Mon May 12 2025 16:40:18 GMT-0500 (Central Daylight Time),393854.39999997616,A,app,O,p,193,1,1248.8000000715256,392605.59999990463,7151,WL,A,3.0
3,6.431999921798706,learn,53568.000078201294,Mon May 12 2025 16:40:18 GMT-0500 (Central Daylight Time),394070.5,A,appl,O,l,197,1,1464.9000000953674,392605.59999990463,7151,WL,A,3.0
3,7.531999826431274,learn,52468.000173568726,Mon May 12 2025 16:40:18 GMT-0500 (Central Daylight Time),395170.2999999523,A,apple,O,e,1094,1,2564.7000000476837,392605.59999990463,7151,WL,A,3.0
3,8.613999843597412,learn,51386.00015640259,Mon May 12 2025 16:40:18 GMT-0500 (Central Daylight Time),396252.1999999285,A,appleenter,O,enter,1065,1,3646.600000023842,392605.59999990463,7151,WL,A,3.0
3,10.747999906539917,learn,49252.00009346008,Mon May 12 2025 16:40:18 GMT-0500 (Central Daylight Time),398386.09999990463,A,l,O,l,2120,1,2133.6999999284744,396252.39999997616,7151,WL,A,4.0
3,11.097999811172485,learn,48902.000188827515,Mon May 12 2025 16:40:18 GMT-0500 (Central Daylight Time),398736.0,A,lo,O,o,330,1,2483.600000023842,396252.39999997616,7151,WL,A,4.0
3,11.395999908447266,learn,48604.000091552734,Mon May 12 2025 16:40:18 GMT-0500 (Central Daylight Time),399034.39999997616,A,log,O,g,283,1,2782.0,396252.39999997616,7151,WL,A,4.0
3,11.895999908447266,learn,48104.000091552734,Mon May 12 2025 16:40:18 GMT-0500 (Central Daylight Time),399534.6999999285,A,logenter,O,enter,488,1,3282.2999999523163,396252.39999997616,7151,WL,A,4.0
3,13.13099980354309,learn,46869.00019645691,Mon May 12 2025 16:40:18 GMT-0500 (Central Daylight Time),400769.2999999523,A,d,O,d,1230,1,1234.3999999761581,399534.89999997616,7151,WL,A,5.0
3,13.345999956130981,learn,46654.00004386902,Mon May 12 2025 16:40:18 GMT-0500 (Central Daylight Time),400983.89999997616,A,du,O,u,201,1,1449.0,399534.89999997616,7151,WL,A,5.0
3,13.495999813079834,learn,46504.000186920166,Mon May 12 2025 16:40:18 GMT-0500 (Central Daylight Time),401134.0,A,dus,O,s,135,1,1599.1000000238419,399534.89999997616,7151,WL,A,5.0
3,13.780999898910522,learn,46219.00010108948,Mon May 12 2025 16:40:18 GMT-0500 (Central Daylight Time),401419.59999990463,A,dust,O,t,277,1,1884.6999999284744,399534.89999997616,7151,WL,A,5.0
3,13.928999900817871,learn,46071.00009918213,Mon May 12 2025 16:40:18 GMT-0500 (Central Daylight Time),401567.39999997616,A,dustenter,O,enter,133,1,2032.5,399534.89999997616,7151,WL,A,5.0
3,15.26199984550476,learn,44738.00015449524,Mon May 12 2025 16:40:18 GMT-0500 (Central Daylight Time),402900.6999999285,A,c,O,c,1317,1,1333.1000000238419,401567.59999990463,7151,WL,A,6.0
3,15.546000003814697,learn,44453.9999961853,Mon May 12 2025 16:40:18 GMT-0500 (Central Daylight Time),403184.39999997616,A,ch,O,h,271,1,1616.8000000715256,401567.59999990463,7151,WL,A,6.0
3,16.162999868392944,learn,43837.000131607056,Mon May 12 2025 16:40:18 GMT-0500 (Central Daylight Time),403801.6999999285,A,chi,O,i,611,1,2234.100000023842,401567.59999990463,7151,WL,A,6.0
3,16.42799997329712,learn,43572.00002670288,Mon May 12 2025 16:40:18 GMT-0500 (Central Daylight Time),404066.39999997616,A,chim,O,m,252,1,2498.8000000715256,401567.59999990463,7151,WL,A,6.0
3,16.561999797821045,learn,43438.000202178955,Mon May 12 2025 16:40:18 GMT-0500 (Central Daylight Time),404200.7999999523,A,chime,O,e,120,1,2633.2000000476837,401567.59999990463,7151,WL,A,6.0
3,16.829999923706055,learn,43170.000076293945,Mon May 12 2025 16:40:18 GMT-0500 (Central Daylight Time),404468.6999999285,A,chimey,O,y,259,1,2901.100000023842,401567.59999990463,7151,WL,A,6.0
3,18.111999988555908,learn,41888.00001144409,Mon May 12 2025 16:40:18 GMT-0500 (Central Daylight Time),405750.0,A,chimeyenter,O,enter,1271,1,4182.400000095367,401567.59999990463,7151,WL,A,6.0
3,19.944999933242798,learn,40055.0000667572,Mon May 12 2025 16:40:18 GMT-0500 (Central Daylight Time),407583.0,A,s,O,s,1814,1,1832.8000000715256,405750.1999999285,7151,WL,A,7.0
3,20.211999893188477,learn,39788.00010681152,Mon May 12 2025 16:40:18 GMT-0500 (Central Daylight Time),407850.7999999523,A,sa,O,a,253,1,2100.600000023842,405750.1999999285,7151,WL,A,7.0
3,20.3439998626709,learn,39656.0001373291,Mon May 12 2025 16:40:18 GMT-0500 (Central Daylight Time),407982.0,A,sal,O,l,122,1,2231.8000000715256,405750.1999999285,7151,WL,A,7.0
3,20.82799983024597,learn,39172.00016975403,Mon May 12 2025 16:40:18 GMT-0500 (Central Daylight Time),408466.6999999285,A,salt,O,t,477,1,2716.5,405750.1999999285,7151,WL,A,7.0
3,21.026999950408936,learn,38973.000049591064,Mon May 12 2025 16:40:18 GMT-0500 (Central Daylight Time),408665.89999997616,A,saltenter,O,enter,184,1,2915.7000000476837,405750.1999999285,7151,WL,A,7.0
3,22.01099991798401,learn,37989.00008201599,Mon May 12 2025 16:40:18 GMT-0500 (Central Daylight Time),409649.7999999523,A,b,O,b,962,1,983.6000000238419,408666.1999999285,7151,WL,A,8.0
3,22.509999990463257,learn,37490.00000953674,Mon May 12 2025 16:40:18 GMT-0500 (Central Daylight Time),410148.0,A,bo,O,o,482,1,1481.8000000715256,408666.1999999285,7151,WL,A,8.0
3,22.89299988746643,learn,37107.00011253357,Mon May 12 2025 16:40:18 GMT-0500 (Central Daylight Time),410531.7999999523,A,boo,O,o,377,1,1865.6000000238419,408666.1999999285,7151,WL,A,8.0
3,24.092000007629395,learn,35907.999992370605,Mon May 12 2025 16:40:18 GMT-0500 (Central Daylight Time),411730.2999999523,A,book,O,k,1182,1,3064.100000023842,408666.1999999285,7151,WL,A,8.0
3,26.140999794006348,learn,33859.00020599365,Mon May 12 2025 16:40:18 GMT-0500 (Central Daylight Time),413779.6999999285,A,bookenter,O,enter,2032,1,5113.5,408666.1999999285,7151,WL,A,8.0
3,26.72499990463257,learn,33275.00009536743,Mon May 12 2025 16:40:18 GMT-0500 (Central Daylight Time),414363.09999990463,A,k,O,k,569,1,583.0,413780.09999990463,7151,WL,A,9.0
3,26.924999952316284,learn,33075.000047683716,Mon May 12 2025 16:40:18 GMT-0500 (Central Daylight Time),414563.5,A,ke,O,e,193,1,783.4000000953674,413780.09999990463,7151,WL,A,9.0
3,27.325999975204468,learn,32674.000024795532,Mon May 12 2025 16:40:18 GMT-0500 (Central Daylight Time),414964.09999990463,A,key,O,y,382,1,1184.0,413780.09999990463,7151,WL,A,9.0
3,27.62399983406067,learn,32376.00016593933,Mon May 12 2025 16:40:18 GMT-0500 (Central Daylight Time),415262.1999999285,A,keyenter,O,enter,288,1,1482.1000000238419,413780.09999990463,7151,WL,A,9.0
3,35.65599989891052,learn,24344.000101089478,Mon May 12 2025 16:40:18 GMT-0500 (Central Daylight Time),423294.39999997616,A,f,O,f,8014,1,8031.800000071526,415262.59999990463,7151,WL,A,10.0
3,35.95700001716614,learn,24042.999982833862,Mon May 12 2025 16:40:18 GMT-0500 (Central Daylight Time),423595.89999997616,A,fi,O,i,295,1,8333.300000071526,415262.59999990463,7151,WL,A,10.0
3,36.23899984359741,learn,23761.000156402588,Mon May 12 2025 16:40:18 GMT-0500 (Central Daylight Time),423877.6999999285,A,fin,O,n,271,1,8615.100000023842,415262.59999990463,7151,WL,A,10.0
3,36.45599985122681,learn,23544.000148773193,Mon May 12 2025 16:40:18 GMT-0500 (Central Daylight Time),424094.5,A,fine,O,e,200,1,8831.900000095367,415262.59999990463,7151,WL,A,10.0
3,36.78699994087219,learn,23213.000059127808,Mon May 12 2025 16:40:18 GMT-0500 (Central Daylight Time),424425.2999999523,A,finer,O,r,314,1,9162.700000047684,415262.59999990463,7151,WL,A,10.0
3,37.50599980354309,learn,22494.00019645691,Mon May 12 2025 16:40:18 GMT-0500 (Central Daylight Time),425144.59999990463,A,fine,O,backspace,699,1,9882.0,415262.59999990463,7151,WL,A,10.0
3,37.72199988365173,learn,22278.000116348267,Mon May 12 2025 16:40:18 GMT-0500 (Central Daylight Time),425361.0,A,fin,O,backspace,205,1,10098.400000095367,415262.59999990463,7151,WL,A,10.0
3,38.687999963760376,learn,21312.000036239624,Mon May 12 2025 16:40:18 GMT-0500 (Central Daylight Time),426327.09999990463,A,fing,O,g,956,1,11064.5,415262.59999990463,7151,WL,A,10.0
3,38.98899984359741,learn,21011.000156402588,Mon May 12 2025 16:40:18 GMT-0500 (Central Daylight Time),426628.0,A,finge,O,e,296,1,11365.400000095367,415262.59999990463,7151,WL,A,10.0
3,39.17199993133545,learn,20828.00006866455,Mon May 12 2025 16:40:18 GMT-0500 (Central Daylight Time),426810.59999990463,A,finger,O,r,176,1,11548.0,415262.59999990463,7151,WL,A,10.0
3,41.40399980545044,learn,18596.00019454956,Mon May 12 2025 16:40:18 GMT-0500 (Central Daylight Time),429042.5,A,fingerenter,O,enter,2225,1,13779.900000095367,415262.59999990463,7151,WL,A,10.0
3,46.21999979019165,learn,13780.00020980835,Mon May 12 2025 16:40:18 GMT-0500 (Central Daylight Time),433858.89999997616,A,b,O,b,4810,1,4816.100000023842,429042.7999999523,7151,WL,A,11.0
3,46.82099986076355,learn,13179.00013923645,Mon May 12 2025 16:40:18 GMT-0500 (Central Daylight Time),434459.2999999523,A,bu,O,u,595,1,5416.5,429042.7999999523,7151,WL,A,11.0
3,47.401999950408936,learn,12598.000049591064,Mon May 12 2025 16:40:18 GMT-0500 (Central Daylight Time),435040.59999990463,A,but,O,t,569,1,5997.799999952316,429042.7999999523,7151,WL,A,11.0
3,47.60199999809265,learn,12398.000001907349,Mon May 12 2025 16:40:18 GMT-0500 (Central Daylight Time),435240.39999997616,A,butt,O,t,189,1,6197.600000023842,429042.7999999523,7151,WL,A,11.0
3,47.78499984741211,learn,12215.00015258789,Mon May 12 2025 16:40:18 GMT-0500 (Central Daylight Time),435424.0,A,butto,O,o,173,1,6381.200000047684,429042.7999999523,7151,WL,A,11.0
3,48.18499994277954,learn,11815.000057220459,Mon May 12 2025 16:40:18 GMT-0500 (Central Daylight Time),435824.09999990463,A,button,O,n,389,1,6781.299999952316,429042.7999999523,7151,WL,A,11.0
3,50.51599979400635,learn,9484.000205993652,Mon May 12 2025 16:40:18 GMT-0500 (Central Daylight Time),438154.6999999285,A,buttonenter,O,enter,2316,1,9111.899999976158,429042.7999999523,7151,WL,A,11.0
3,60.014999866485596,learn,-14.999866485595703,Mon May 12 2025 16:40:18 GMT-0500 (Central Daylight Time),447653.89999997616,A,None,O,None,9493,1,9499.0,438154.89999997616,7151,WL,A,12.0
4,1.0,learn,59000.0,Mon May 12 2025 16:40:18 GMT-0500 (Central Daylight Time),522930.0,A,l,O,l,995,1,999.6000000238419,521930.39999997616,7151,WL,A,1.0
4,1.2660000324249268,learn,58733.99996757507,Mon May 12 2025 16:40:18 GMT-0500 (Central Daylight Time),523195.7999999523,A,lo,O,o,248,1,1265.3999999761581,521930.39999997616,7151,WL,A,1.0
4,1.6979999542236328,learn,58302.00004577637,Mon May 12 2025 16:40:18 GMT-0500 (Central Daylight Time),523628.39999997616,A,log,O,g,427,1,1698.0,521930.39999997616,7151,WL,A,1.0
4,2.0320000648498535,learn,57967.99993515015,Mon May 12 2025 16:40:18 GMT-0500 (Central Daylight Time),523962.39999997616,A,logenter,O,enter,319,1,2032.0,521930.39999997616,7151,WL,A,1.0
4,2.865999937057495,learn,57134.000062942505,Mon May 12 2025 16:40:18 GMT-0500 (Central Daylight Time),524795.6999999285,A,y,O,y,819,1,833.0,523962.6999999285,7151,WL,A,2.0
4,3.7139999866485596,learn,56286.00001335144,Mon May 12 2025 16:40:18 GMT-0500 (Central Daylight Time),525644.0,A,ye,O,e,839,1,1681.3000000715256,523962.6999999285,7151,WL,A,2.0
4,3.947000026702881,learn,56052.99997329712,Mon May 12 2025 16:40:18 GMT-0500 (Central Daylight Time),525877.5,A,yey,O,y,224,1,1914.8000000715256,523962.6999999285,7151,WL,A,2.0
4,4.29800009727478,learn,55701.99990272522,Mon May 12 2025 16:40:18 GMT-0500 (Central Daylight Time),526228.0,A,yeyenter,O,enter,345,1,2265.3000000715256,523962.6999999285,7151,WL,A,2.0
4,5.88100004196167,learn,54118.99995803833,Mon May 12 2025 16:40:18 GMT-0500 (Central Daylight Time),527810.8999999762,A,k,O,k,1568,1,1582.6000000238419,526228.2999999523,7151,WL,A,3.0
4,6.0970001220703125,learn,53902.99987792969,Mon May 12 2025 16:40:18 GMT-0500 (Central Daylight Time),528027.2999999523,A,ke,O,e,210,1,1799.0,526228.2999999523,7151,WL,A,3.0
4,6.364000082015991,learn,53635.99991798401,Mon May 12 2025 16:40:18 GMT-0500 (Central Daylight Time),528293.5999999046,A,key,O,y,246,1,2065.2999999523163,526228.2999999523,7151,WL,A,3.0
4,6.71399998664856,learn,53286.00001335144,Mon May 12 2025 16:40:18 GMT-0500 (Central Daylight Time),528643.5999999046,A,keyenter,O,enter,334,1,2415.2999999523163,526228.2999999523,7151,WL,A,3.0
4,7.565000057220459,learn,52434.99994277954,Mon May 12 2025 16:40:18 GMT-0500 (Central Daylight Time),529495.0,A,a,O,a,832,1,851.1000000238419,528643.8999999762,7151,WL,A,4.0
4,7.880000114440918,learn,52119.99988555908,Mon May 12 2025 16:40:18 GMT-0500 (Central Daylight Time),529810.2999999523,A,ap,O,p,301,1,1166.3999999761581,528643.8999999762,7151,WL,A,4.0
4,8.062999963760376,learn,51937.000036239624,Mon May 12 2025 16:40:18 GMT-0500 (Central Daylight Time),529993.2999999523,A,app,O,p,168,1,1349.3999999761581,528643.8999999762,7151,WL,A,4.0
4,8.27999997138977,learn,51720.00002861023,Mon May 12 2025 16:40:18 GMT-0500 (Central Daylight Time),530210.0,A,appl,O,l,200,1,1566.1000000238419,528643.8999999762,7151,WL,A,4.0
4,8.513999938964844,learn,51486.000061035156,Mon May 12 2025 16:40:18 GMT-0500 (Central Daylight Time),530444.2999999523,A,apple,O,e,218,1,1800.3999999761581,528643.8999999762,7151,WL,A,4.0
4,8.86299991607666,learn,51137.00008392334,Mon May 12 2025 16:40:18 GMT-0500 (Central Daylight Time),530792.8999999762,A,appleenter,O,enter,333,1,2149.0,528643.8999999762,7151,WL,A,4.0
4,9.597000122070312,learn,50402.99987792969,Mon May 12 2025 16:40:18 GMT-0500 (Central Daylight Time),531527.0,A,t,O,t,724,1,733.8000000715256,530793.1999999285,7151,WL,A,5.0
4,9.865000009536743,learn,50134.99999046326,Mon May 12 2025 16:40:18 GMT-0500 (Central Daylight Time),531794.6999999285,A,tr,O,r,262,1,1001.5,530793.1999999285,7151,WL,A,5.0
4,10.11299991607666,learn,49887.00008392334,Mon May 12 2025 16:40:18 GMT-0500 (Central Daylight Time),532042.5999999046,A,tra,O,a,233,1,1249.3999999761581,530793.1999999285,7151,WL,A,5.0
4,10.263999938964844,learn,49736.000061035156,Mon May 12 2025 16:40:18 GMT-0500 (Central Daylight Time),532193.5,A,trai,O,i,131,1,1400.3000000715256,530793.1999999285,7151,WL,A,5.0
4,10.447999954223633,learn,49552.00004577637,Mon May 12 2025 16:40:18 GMT-0500 (Central Daylight Time),532378.2999999523,A,train,O,n,177,1,1585.1000000238419,530793.1999999285,7151,WL,A,5.0
4,10.796000003814697,learn,49203.9999961853,Mon May 12 2025 16:40:18 GMT-0500 (Central Daylight Time),532725.8999999762,A,trainenter,O,enter,337,1,1932.7000000476837,530793.1999999285,7151,WL,A,5.0
4,11.529000043869019,learn,48470.99995613098,Mon May 12 2025 16:40:18 GMT-0500 (Central Daylight Time),533459.2999999523,A,r,O,r,727,1,733.1000000238419,532726.1999999285,7151,WL,A,6.0
4,12.029000043869019,learn,47970.99995613098,Mon May 12 2025 16:40:18 GMT-0500 (Central Daylight Time),533958.5999999046,A,ru,O,u,486,1,1232.3999999761581,532726.1999999285,7151,WL,A,6.0
4,12.428999900817871,learn,47571.00009918213,Mon May 12 2025 16:40:18 GMT-0500 (Central Daylight Time),534358.8999999762,A,rug,O,g,389,1,1632.7000000476837,532726.1999999285,7151,WL,A,6.0
4,13.111999988555908,learn,46888.00001144409,Mon May 12 2025 16:40:18 GMT-0500 (Central Daylight Time),535042.3999999762,A,rugenter,O,enter,675,1,2316.2000000476837,532726.1999999285,7151,WL,A,6.0
4,15.528000116348267,learn,44471.99988365173,Mon May 12 2025 16:40:18 GMT-0500 (Central Daylight Time),537458.0999999046,A,d,O,d,2410,1,2415.399999976158,535042.6999999285,7151,WL,A,7.0
4,15.710999965667725,learn,44289.000034332275,Mon May 12 2025 16:40:18 GMT-0500 (Central Daylight Time),537640.7999999523,A,du,O,u,166,1,2598.100000023842,535042.6999999285,7151,WL,A,7.0
4,15.82800006866455,learn,44171.99993133545,Mon May 12 2025 16:40:18 GMT-0500 (Central Daylight Time),537757.7999999523,A,dus,O,s,99,1,2715.100000023842,535042.6999999285,7151,WL,A,7.0
4,16.147000074386597,learn,43852.9999256134,Mon May 12 2025 16:40:18 GMT-0500 (Central Daylight Time),538076.6999999285,A,dust,O,t,311,1,3034.0,535042.6999999285,7151,WL,A,7.0
4,16.296000003814697,learn,43703.9999961853,Mon May 12 2025 16:40:18 GMT-0500 (Central Daylight Time),538225.5,A,dustenter,O,enter,143,1,3182.8000000715256,535042.6999999285,7151,WL,A,7.0
4,17.47699999809265,learn,42523.00000190735,Mon May 12 2025 16:40:18 GMT-0500 (Central Daylight Time),539407.2999999523,A,r,O,r,1171,1,1181.6000000238419,538225.6999999285,7151,WL,A,8.0
4,17.74399995803833,learn,42256.00004196167,Mon May 12 2025 16:40:18 GMT-0500 (Central Daylight Time),539674.3999999762,A,ra,O,a,243,1,1448.7000000476837,538225.6999999285,7151,WL,A,8.0
4,18.094000101089478,learn,41905.99989891052,Mon May 12 2025 16:40:18 GMT-0500 (Central Daylight Time),540023.8999999762,A,rat,O,t,330,1,1798.2000000476837,538225.6999999285,7151,WL,A,8.0
4,18.276999950408936,learn,41723.000049591064,Mon May 12 2025 16:40:18 GMT-0500 (Central Daylight Time),540207.7999999523,A,ratt,O,t,164,1,1982.1000000238419,538225.6999999285,7151,WL,A,8.0
4,18.426000118255615,learn,41573.999881744385,Mon May 12 2025 16:40:18 GMT-0500 (Central Daylight Time),540355.8999999762,A,rattl,O,l,139,1,2130.2000000476837,538225.6999999285,7151,WL,A,8.0
4,18.526999950408936,learn,41473.000049591064,Mon May 12 2025 16:40:18 GMT-0500 (Central Daylight Time),540457.3999999762,A,rattle,O,e,77,1,2231.7000000476837,538225.6999999285,7151,WL,A,8.0
4,19.72499990463257,learn,40275.00009536743,Mon May 12 2025 16:40:18 GMT-0500 (Central Daylight Time),541655.2999999523,A,rattleenter,O,enter,1184,1,3429.600000023842,538225.6999999285,7151,WL,A,8.0
4,20.4760000705719,learn,39523.9999294281,Mon May 12 2025 16:40:18 GMT-0500 (Central Daylight Time),542406.3999999762,A,h,O,h,742,1,750.8999999761581,541655.5,7151,WL,A,9.0
4,20.625999927520752,learn,39374.00007247925,Mon May 12 2025 16:40:18 GMT-0500 (Central Daylight Time),542556.2999999523,A,ha,O,a,145,1,900.7999999523163,541655.5,7151,WL,A,9.0
4,20.941999912261963,learn,39058.00008773804,Mon May 12 2025 16:40:18 GMT-0500 (Central Daylight Time),542872.5,A,har,O,r,295,1,1217.0,541655.5,7151,WL,A,9.0
4,21.276000022888184,learn,38723.99997711182,Mon May 12 2025 16:40:18 GMT-0500 (Central Daylight Time),543205.8999999762,A,harp,O,p,316,1,1550.3999999761581,541655.5,7151,WL,A,9.0
4,21.592000007629395,learn,38407.999992370605,Mon May 12 2025 16:40:18 GMT-0500 (Central Daylight Time),543522.3999999762,A,harpenter,O,enter,311,1,1866.8999999761581,541655.5,7151,WL,A,9.0
4,24.39400005340576,learn,35605.99994659424,Mon May 12 2025 16:40:18 GMT-0500 (Central Daylight Time),546324.2999999523,A,b,O,b,2796,1,2801.600000023842,543522.6999999285,7151,WL,A,10.0
4,24.85800004005432,learn,35141.99995994568,Mon May 12 2025 16:40:18 GMT-0500 (Central Daylight Time),546788.3999999762,A,bo,O,o,448,1,3265.7000000476837,543522.6999999285,7151,WL,A,10.0
4,25.141000032424927,learn,34858.99996757507,Mon May 12 2025 16:40:18 GMT-0500 (Central Daylight Time),547071.5999999046,A,bot,O,t,263,1,3548.899999976158,543522.6999999285,7151,WL,A,10.0
4,25.341000080108643,learn,34658.99991989136,Mon May 12 2025 16:40:18 GMT-0500 (Central Daylight Time),547270.8999999762,A,bott,O,t,189,1,3748.2000000476837,543522.6999999285,7151,WL,A,10.0
4,26.074000120162964,learn,33925.999879837036,Mon May 12 2025 16:40:18 GMT-0500 (Central Daylight Time),548004.2999999523,A,bot,O,backspace,717,1,4481.600000023842,543522.6999999285,7151,WL,A,10.0
4,26.289999961853027,learn,33710.00003814697,Mon May 12 2025 16:40:18 GMT-0500 (Central Daylight Time),548220.6999999285,A,bo,O,backspace,196,1,4698.0,543522.6999999285,7151,WL,A,10.0
4,26.45799994468689,learn,33542.00005531311,Mon May 12 2025 16:40:18 GMT-0500 (Central Daylight Time),548387.7999999523,A,b,O,backspace,150,1,4865.100000023842,543522.6999999285,7151,WL,A,10.0
4,27.074000120162964,learn,32925.999879837036,Mon May 12 2025 16:40:18 GMT-0500 (Central Daylight Time),549004.1999999285,A,bu,O,u,599,1,5481.5,543522.6999999285,7151,WL,A,10.0
4,27.322999954223633,learn,32677.000045776367,Mon May 12 2025 16:40:18 GMT-0500 (Central Daylight Time),549253.3999999762,A,but,O,t,239,1,5730.700000047684,543522.6999999285,7151,WL,A,10.0
4,27.52300000190735,learn,32476.99999809265,Mon May 12 2025 16:40:18 GMT-0500 (Central Daylight Time),549453.1999999285,A,butt,O,t,189,1,5930.5,543522.6999999285,7151,WL,A,10.0
4,27.657000064849854,learn,32342.999935150146,Mon May 12 2025 16:40:18 GMT-0500 (Central Daylight Time),549587.6999999285,A,butto,O,o,120,1,6065.0,543522.6999999285,7151,WL,A,10.0
4,27.907000064849854,learn,32092.999935150146,Mon May 12 2025 16:40:18 GMT-0500 (Central Daylight Time),549837.6999999285,A,button,O,n,228,1,6315.0,543522.6999999285,7151,WL,A,10.0
4,28.305999994277954,learn,31694.000005722046,Mon May 12 2025 16:40:18 GMT-0500 (Central Daylight Time),550236.5,A,buttonenter,O,enter,389,1,6713.800000071526,543522.6999999285,7151,WL,A,10.0
4,31.439000129699707,learn,28560.999870300293,Mon May 12 2025 16:40:18 GMT-0500 (Central Daylight Time),553369.3999999762,A,f,O,f,3121,1,3132.600000023842,550236.7999999523,7151,WL,A,11.0
4,31.638999938964844,learn,28361.000061035156,Mon May 12 2025 16:40:18 GMT-0500 (Central Daylight Time),553569.1999999285,A,fl,O,l,178,1,3332.399999976158,550236.7999999523,7151,WL,A,11.0
4,31.85599994659424,learn,28144.00005340576,Mon May 12 2025 16:40:18 GMT-0500 (Central Daylight Time),553786.2999999523,A,flo,O,o,201,1,3549.5,550236.7999999523,7151,WL,A,11.0
4,31.98900008201599,learn,28010.99991798401,Mon May 12 2025 16:40:18 GMT-0500 (Central Daylight Time),553919.2999999523,A,flow,O,w,112,1,3682.5,550236.7999999523,7151,WL,A,11.0
4,32.121999979019165,learn,27878.000020980835,Mon May 12 2025 16:40:18 GMT-0500 (Central Daylight Time),554051.8999999762,A,flowe,O,e,112,1,3815.100000023842,550236.7999999523,7151,WL,A,11.0
4,32.35599994659424,learn,27644.00005340576,Mon May 12 2025 16:40:18 GMT-0500 (Central Daylight Time),554286.3999999762,A,flower,O,r,216,1,4049.600000023842,550236.7999999523,7151,WL,A,11.0
4,32.82200002670288,learn,27177.99997329712,Mon May 12 2025 16:40:18 GMT-0500 (Central Daylight Time),554752.5999999046,A,flowerenter,O,enter,452,1,4515.799999952316,550236.7999999523,7151,WL,A,11.0
4,33.67400002479553,learn,26325.999975204468,Mon May 12 2025 16:40:18 GMT-0500 (Central Daylight Time),555604.7999999523,A,b,O,b,828,1,851.7999999523163,554753.0,7151,WL,A,12.0
4,34.03999996185303,learn,25960.000038146973,Mon May 12 2025 16:40:18 GMT-0500 (Central Daylight Time),555970.5999999046,A,bo,O,o,358,1,1217.5999999046326,554753.0,7151,WL,A,12.0
4,34.204999923706055,learn,25795.000076293945,Mon May 12 2025 16:40:18 GMT-0500 (Central Daylight Time),556135.3999999762,A,boo,O,o,144,1,1382.3999999761581,554753.0,7151,WL,A,12.0
4,34.454999923706055,learn,25545.000076293945,Mon May 12 2025 16:40:18 GMT-0500 (Central Daylight Time),556385.1999999285,A,book,O,k,235,1,1632.1999999284744,554753.0,7151,WL,A,12.0
4,35.88800001144409,learn,24111.99998855591,Mon May 12 2025 16:40:18 GMT-0500 (Central Daylight Time),557818.6999999285,A,bookenter,O,enter,1427,1,3065.6999999284744,554753.0,7151,WL,A,12.0
4,40.4539999961853,learn,19546.000003814697,Mon May 12 2025 16:40:18 GMT-0500 (Central Daylight Time),562384.5999999046,A,g,O,g,4546,1,4565.5,557819.0999999046,7151,WL,A,13.0
4,40.63599991798401,learn,19364.00008201599,Mon May 12 2025 16:40:18 GMT-0500 (Central Daylight Time),562566.5,A,go,O,o,162,1,4747.400000095367,557819.0999999046,7151,WL,A,13.0
4,40.88800001144409,learn,19111.99998855591,Mon May 12 2025 16:40:18 GMT-0500 (Central Daylight Time),562818.6999999285,A,gol,O,l,245,1,4999.600000023842,557819.0999999046,7151,WL,A,13.0
4,41.01900005340576,learn,18980.99994659424,Mon May 12 2025 16:40:18 GMT-0500 (Central Daylight Time),562949.0,A,gold,O,d,122,1,5129.900000095367,557819.0999999046,7151,WL,A,13.0
4,41.22000002861023,learn,18779.99997138977,Mon May 12 2025 16:40:18 GMT-0500 (Central Daylight Time),563150.0,A,goldenter,O,enter,183,1,5330.900000095367,557819.0999999046,7151,WL,A,13.0
4,60.013999938964844,learn,-13.99993896484375,Mon May 12 2025 16:40:18 GMT-0500 (Central Daylight Time),581944.5,A,None,O,None,18790,1,18794.200000047684,563150.2999999523,7151,WL,A,14.0
5,1.5499999523162842,learn,60000.0,Mon May 12 2025 16:40:18 GMT-0500 (Central Daylight Time),652322.8999999762,A,b,O,b,1534,1,1550.3999999761581,650772.5,7151,WL,A,1.0
5,2.0309998989105225,learn,60000.0,Mon May 12 2025 16:40:18 GMT-0500 (Central Daylight Time),652804.0999999046,A,bo,O,o,472,1,2031.5999999046326,650772.5,7151,WL,A,1.0
5,2.200000047683716,learn,60000.0,Mon May 12 2025 16:40:18 GMT-0500 (Central Daylight Time),652972.8999999762,A,boo,O,o,157,1,2200.399999976158,650772.5,7151,WL,A,1.0
5,2.450000047683716,learn,60000.0,Mon May 12 2025 16:40:18 GMT-0500 (Central Daylight Time),653222.5999999046,A,book,O,k,227,1,2450.0999999046326,650772.5,7151,WL,A,1.0
5,2.933000087738037,learn,60000.0,Mon May 12 2025 16:40:18 GMT-0500 (Central Daylight Time),653705.8999999762,A,bookenter,O,enter,477,1,2933.399999976158,650772.5,7151,WL,A,1.0
5,4.414999961853027,learn,60000.0,Mon May 12 2025 16:40:18 GMT-0500 (Central Daylight Time),655187.5999999046,A,f,O,f,1475,1,1481.3999999761581,653706.1999999285,7151,WL,A,2.0
5,4.5980000495910645,learn,60000.0,Mon May 12 2025 16:40:18 GMT-0500 (Central Daylight Time),655371.0,A,fl,O,l,176,1,1664.8000000715256,653706.1999999285,7151,WL,A,2.0
5,4.8480000495910645,learn,60000.0,Mon May 12 2025 16:40:18 GMT-0500 (Central Daylight Time),655620.5,A,flo,O,o,242,1,1914.3000000715256,653706.1999999285,7151,WL,A,2.0
5,5.697000026702881,learn,60000.0,Mon May 12 2025 16:40:18 GMT-0500 (Central Daylight Time),656469.3999999762,A,flow,O,w,831,1,2763.2000000476837,653706.1999999285,7151,WL,A,2.0
5,5.947999954223633,learn,60000.0,Mon May 12 2025 16:40:18 GMT-0500 (Central Daylight Time),656720.0,A,flowe,O,e,230,1,3013.8000000715256,653706.1999999285,7151,WL,A,2.0
5,6.164999961853027,learn,60000.0,Mon May 12 2025 16:40:18 GMT-0500 (Central Daylight Time),656937.0999999046,A,flower,O,r,203,1,3230.899999976158,653706.1999999285,7151,WL,A,2.0
5,6.380000114440918,learn,60000.0,Mon May 12 2025 16:40:18 GMT-0500 (Central Daylight Time),657152.0999999046,A,flowerenter,O,enter,194,1,3445.899999976158,653706.1999999285,7151,WL,A,2.0
5,7.199000120162964,learn,60000.0,Mon May 12 2025 16:40:18 GMT-0500 (Central Daylight Time),657971.3999999762,A,t,O,t,814,1,819.0,657152.3999999762,7151,WL,A,3.0
5,7.447000026702881,learn,60000.0,Mon May 12 2025 16:40:18 GMT-0500 (Central Daylight Time),658219.1999999285,A,tr,O,r,240,1,1066.7999999523163,657152.3999999762,7151,WL,A,3.0
5,7.730999946594238,learn,60000.0,Mon May 12 2025 16:40:18 GMT-0500 (Central Daylight Time),658503.1999999285,A,tra,O,a,263,1,1350.7999999523163,657152.3999999762,7151,WL,A,3.0
5,7.864000082015991,learn,60000.0,Mon May 12 2025 16:40:18 GMT-0500 (Central Daylight Time),658636.7999999523,A,trai,O,i,127,1,1484.3999999761581,657152.3999999762,7151,WL,A,3.0
5,8.145999908447266,learn,60000.0,Mon May 12 2025 16:40:18 GMT-0500 (Central Daylight Time),658919.0,A,train,O,n,262,1,1766.6000000238419,657152.3999999762,7151,WL,A,3.0
5,8.678999900817871,learn,60000.0,Mon May 12 2025 16:40:18 GMT-0500 (Central Daylight Time),659451.5,A,trainenter,O,enter,527,1,2299.100000023842,657152.3999999762,7151,WL,A,3.0
5,9.911999940872192,learn,60000.0,Mon May 12 2025 16:40:18 GMT-0500 (Central Daylight Time),660684.8999999762,A,h,O,h,1216,1,1233.1000000238419,659451.7999999523,7151,WL,A,4.0
5,10.062000036239624,learn,60000.0,Mon May 12 2025 16:40:18 GMT-0500 (Central Daylight Time),660834.7999999523,A,ha,O,a,134,1,1383.0,659451.7999999523,7151,WL,A,4.0
5,10.36299991607666,learn,60000.0,Mon May 12 2025 16:40:18 GMT-0500 (Central Daylight Time),661135.5,A,har,O,r,282,1,1683.7000000476837,659451.7999999523,7151,WL,A,4.0
5,10.711999893188477,learn,60000.0,Mon May 12 2025 16:40:18 GMT-0500 (Central Daylight Time),661484.3999999762,A,harp,O,p,333,1,2032.6000000238419,659451.7999999523,7151,WL,A,4.0
5,10.995000123977661,learn,60000.0,Mon May 12 2025 16:40:18 GMT-0500 (Central Daylight Time),661767.5,A,harpenter,O,enter,271,1,2315.7000000476837,659451.7999999523,7151,WL,A,4.0
5,11.878000020980835,learn,60000.0,Mon May 12 2025 16:40:18 GMT-0500 (Central Daylight Time),662651.0,A,m,O,m,878,1,883.2000000476837,661767.7999999523,7151,WL,A,5.0
5,12.078999996185303,learn,60000.0,Mon May 12 2025 16:40:18 GMT-0500 (Central Daylight Time),662852.1999999285,A,me,O,e,186,1,1084.3999999761581,661767.7999999523,7151,WL,A,5.0
5,12.32800006866455,learn,60000.0,Mon May 12 2025 16:40:18 GMT-0500 (Central Daylight Time),663101.0,A,med,O,d,242,1,1333.2000000476837,661767.7999999523,7151,WL,A,5.0
5,12.861999988555908,learn,60000.0,Mon May 12 2025 16:40:18 GMT-0500 (Central Daylight Time),663635.2999999523,A,medo,O,o,518,1,1867.5,661767.7999999523,7151,WL,A,5.0
5,13.128000020980835,learn,60000.0,Mon May 12 2025 16:40:18 GMT-0500 (Central Daylight Time),663900.8999999762,A,medow,O,w,260,1,2133.100000023842,661767.7999999523,7151,WL,A,5.0
5,15.66100001335144,learn,60000.0,Mon May 12 2025 16:40:18 GMT-0500 (Central Daylight Time),666434.0999999046,A,medo,O,backspace,2518,1,4666.299999952316,661767.7999999523,7151,WL,A,5.0
5,15.960999965667725,learn,60000.0,Mon May 12 2025 16:40:18 GMT-0500 (Central Daylight Time),666733.5,A,med,O,backspace,281,1,4965.700000047684,661767.7999999523,7151,WL,A,5.0
5,16.194000005722046,learn,60000.0,Mon May 12 2025 16:40:18 GMT-0500 (Central Daylight Time),666966.3999999762,A,meda,O,a,214,1,5198.600000023842,661767.7999999523,7151,WL,A,5.0
5,16.611000061035156,learn,60000.0,Mon May 12 2025 16:40:18 GMT-0500 (Central Daylight Time),667383.5,A,med,O,backspace,405,1,5615.700000047684,661767.7999999523,7151,WL,A,5.0
5,16.80999994277954,learn,60000.0,Mon May 12 2025 16:40:18 GMT-0500 (Central Daylight Time),667583.0,A,me,O,backspace,179,1,5815.200000047684,661767.7999999523,7151,WL,A,5.0
5,16.89300012588501,learn,60000.0,Mon May 12 2025 16:40:18 GMT-0500 (Central Daylight Time),667666.1999999285,A,mea,O,a,75,1,5898.399999976158,661767.7999999523,7151,WL,A,5.0
5,17.91100001335144,learn,60000.0,Mon May 12 2025 16:40:18 GMT-0500 (Central Daylight Time),668683.8999999762,A,mead,O,d,1011,1,6916.100000023842,661767.7999999523,7151,WL,A,5.0
5,18.128000020980835,learn,60000.0,Mon May 12 2025 16:40:18 GMT-0500 (Central Daylight Time),668900.5,A,meado,O,o,198,1,7132.700000047684,661767.7999999523,7151,WL,A,5.0
5,18.259999990463257,learn,60000.0,Mon May 12 2025 16:40:18 GMT-0500 (Central Daylight Time),669033.1999999285,A,meadow,O,w,120,1,7265.399999976158,661767.7999999523,7151,WL,A,5.0
5,18.55999994277954,learn,60000.0,Mon May 12 2025 16:40:18 GMT-0500 (Central Daylight Time),669332.3999999762,A,meadowenter,O,enter,280,1,7564.600000023842,661767.7999999523,7151,WL,A,5.0
5,19.509999990463257,learn,60000.0,Mon May 12 2025 16:40:18 GMT-0500 (Central Daylight Time),670282.3999999762,A,g,O,g,937,1,949.8000000715256,669332.5999999046,7151,WL,A,6.0
5,19.72699999809265,learn,60000.0,Mon May 12 2025 16:40:18 GMT-0500 (Central Daylight Time),670499.6999999285,A,go,O,o,212,1,1167.1000000238419,669332.5999999046,7151,WL,A,6.0
5,19.95900011062622,learn,60000.0,Mon May 12 2025 16:40:18 GMT-0500 (Central Daylight Time),670732.0,A,gol,O,l,223,1,1399.4000000953674,669332.5999999046,7151,WL,A,6.0
5,20.094000101089478,learn,60000.0,Mon May 12 2025 16:40:18 GMT-0500 (Central Daylight Time),670867.0999999046,A,gold,O,d,111,1,1534.5,669332.5999999046,7151,WL,A,6.0
5,21.358999967575073,learn,60000.0,Mon May 12 2025 16:40:18 GMT-0500 (Central Daylight Time),672131.8999999762,A,goldenter,O,enter,1248,1,2799.3000000715256,669332.5999999046,7151,WL,A,6.0
5,21.825000047683716,learn,60000.0,Mon May 12 2025 16:40:18 GMT-0500 (Central Daylight Time),672597.5,A,r,O,r,456,1,465.40000009536743,672132.0999999046,7151,WL,A,7.0
5,22.108999967575073,learn,60000.0,Mon May 12 2025 16:40:18 GMT-0500 (Central Daylight Time),672881.8999999762,A,ru,O,u,271,1,749.8000000715256,672132.0999999046,7151,WL,A,7.0
5,22.30999994277954,learn,60000.0,Mon May 12 2025 16:40:18 GMT-0500 (Central Daylight Time),673082.5999999046,A,rug,O,g,187,1,950.5,672132.0999999046,7151,WL,A,7.0
5,22.674999952316284,learn,60000.0,Mon May 12 2025 16:40:18 GMT-0500 (Central Daylight Time),673447.3999999762,A,rugenter,O,enter,353,1,1315.3000000715256,672132.0999999046,7151,WL,A,7.0
5,27.990000009536743,learn,60000.0,Mon May 12 2025 16:40:18 GMT-0500 (Central Daylight Time),678763.0,A,b,O,b,5301,1,5315.300000071526,673447.6999999285,7151,WL,A,8.0
5,28.39400005340576,learn,60000.0,Mon May 12 2025 16:40:18 GMT-0500 (Central Daylight Time),679166.5,A,bo,O,o,397,1,5718.800000071526,673447.6999999285,7151,WL,A,8.0
5,28.555999994277954,learn,60000.0,Mon May 12 2025 16:40:18 GMT-0500 (Central Daylight Time),679328.5999999046,A,boo,O,o,149,1,5880.899999976158,673447.6999999285,7151,WL,A,8.0
5,28.77500009536743,learn,60000.0,Mon May 12 2025 16:40:18 GMT-0500 (Central Daylight Time),679547.3999999762,A,book,O,k,211,1,6099.700000047684,673447.6999999285,7151,WL,A,8.0
5,29.10700011253357,learn,60000.0,Mon May 12 2025 16:40:18 GMT-0500 (Central Daylight Time),679879.5999999046,A,bookenter,O,enter,311,1,6431.899999976158,673447.6999999285,7151,WL,A,8.0
5,36.986000061035156,learn,60000.0,Mon May 12 2025 16:40:18 GMT-0500 (Central Daylight Time),687758.7999999523,A,c,O,c,7859,1,7878.899999976158,679879.8999999762,7151,WL,A,9.0
5,37.37000012397766,learn,60000.0,Mon May 12 2025 16:40:18 GMT-0500 (Central Daylight Time),688142.3999999762,A,ch,O,h,374,1,8262.5,679879.8999999762,7151,WL,A,9.0
5,38.651000022888184,learn,60000.0,Mon May 12 2025 16:40:18 GMT-0500 (Central Daylight Time),689423.5,A,che,O,e,1270,1,9543.600000023842,679879.8999999762,7151,WL,A,9.0
5,39.117000102996826,learn,60000.0,Mon May 12 2025 16:40:18 GMT-0500 (Central Daylight Time),689890.1999999285,A,chei,O,i,461,1,10010.299999952316,679879.8999999762,7151,WL,A,9.0
5,40.23300004005432,learn,60000.0,Mon May 12 2025 16:40:18 GMT-0500 (Central Daylight Time),691006.0999999046,A,cheim,O,m,1107,1,11126.199999928474,679879.8999999762,7151,WL,A,9.0
5,40.83500003814697,learn,60000.0,Mon May 12 2025 16:40:18 GMT-0500 (Central Daylight Time),691607.3999999762,A,cheimy,O,y,582,1,11727.5,679879.8999999762,7151,WL,A,9.0
5,41.753000020980835,learn,60000.0,Mon May 12 2025 16:40:18 GMT-0500 (Central Daylight Time),692525.3999999762,A,cheimyenter,O,enter,902,1,12645.5,679879.8999999762,7151,WL,A,9.0
5,52.91499996185303,learn,60000.0,Mon May 12 2025 16:40:18 GMT-0500 (Central Daylight Time),703687.8999999762,A,l,O,l,11152,1,11162.100000023842,692525.7999999523,7151,WL,A,10.0
5,53.19700002670288,learn,60000.0,Mon May 12 2025 16:40:18 GMT-0500 (Central Daylight Time),703969.5,A,lo,O,o,276,1,11443.700000047684,692525.7999999523,7151,WL,A,10.0
5,53.41499996185303,learn,60000.0,Mon May 12 2025 16:40:18 GMT-0500 (Central Daylight Time),704187.3999999762,A,log,O,g,206,1,11661.600000023842,692525.7999999523,7151,WL,A,10.0
5,54.74900007247925,learn,60000.0,Mon May 12 2025 16:40:18 GMT-0500 (Central Daylight Time),705522.1999999285,A,logenter,O,enter,1330,1,12996.399999976158,692525.7999999523,7151,WL,A,10.0
5,62.7279999256134,learn,60000.0,Mon May 12 2025 16:40:18 GMT-0500 (Central Daylight Time),713501.0999999046,A,h,O,h,7971,1,7978.599999904633,705522.5,7151,WL,A,11.0
6,1.249000072479248,distr,58750.99992752075,Mon May 12 2025 16:40:18 GMT-0500 (Central Daylight Time),791226.5999999046,B,j,O,j,1241,1,1249.0999999046326,789977.5,7151,WL,A,1.0
6,1.6500000953674316,distr,58349.99990463257,Mon May 12 2025 16:40:18 GMT-0500 (Central Daylight Time),791627.5999999046,B,ju,O,u,382,1,1650.0999999046326,789977.5,7151,WL,A,1.0
6,2.183000087738037,distr,57816.99991226196,Mon May 12 2025 16:40:18 GMT-0500 (Central Daylight Time),792160.6999999285,B,jud,O,d,509,1,2183.1999999284744,789977.5,7151,WL,A,1.0
6,2.315999984741211,distr,57684.00001525879,Mon May 12 2025 16:40:18 GMT-0500 (Central Daylight Time),792293.0999999046,B,judg,O,g,127,1,2315.5999999046326,789977.5,7151,WL,A,1.0
6,2.5160000324249268,distr,57483.99996757507,Mon May 12 2025 16:40:18 GMT-0500 (Central Daylight Time),792493.3999999762,B,judge,O,e,183,1,2515.899999976158,789977.5,7151,WL,A,1.0
6,2.949000120162964,distr,57050.999879837036,Mon May 12 2025 16:40:18 GMT-0500 (Central Daylight Time),792926.2999999523,B,judgeenter,O,enter,423,1,2948.7999999523163,789977.5,7151,WL,A,1.0
6,3.9170000553131104,distr,56082.99994468689,Mon May 12 2025 16:40:18 GMT-0500 (Central Daylight Time),793894.0999999046,B,d,O,d,950,1,967.5999999046326,792926.5,7151,WL,A,2.0
6,4.233000040054321,distr,55766.99995994568,Mon May 12 2025 16:40:18 GMT-0500 (Central Daylight Time),794210.5,B,da,O,a,310,1,1284.0,792926.5,7151,WL,A,2.0
6,4.564000129699707,distr,55435.99987030029,Mon May 12 2025 16:40:18 GMT-0500 (Central Daylight Time),794541.5,B,daw,O,w,321,1,1615.0,792926.5,7151,WL,A,2.0
6,5.381999969482422,distr,54618.00003051758,Mon May 12 2025 16:40:18 GMT-0500 (Central Daylight Time),795359.7999999523,B,dawn,O,n,796,1,2433.2999999523163,792926.5,7151,WL,A,2.0
6,6.0309998989105225,distr,53969.00010108948,Mon May 12 2025 16:40:18 GMT-0500 (Central Daylight Time),796008.3999999762,B,dawnenter,O,enter,637,1,3081.899999976158,792926.5,7151,WL,A,2.0
6,7.661999940872192,distr,52338.00005912781,Mon May 12 2025 16:40:18 GMT-0500 (Central Daylight Time),797639.5999999046,B,b,O,b,1619,1,1631.0,796008.5999999046,7151,WL,A,3.0
6,7.949000120162964,distr,52050.999879837036,Mon May 12 2025 16:40:18 GMT-0500 (Central Daylight Time),797925.8999999762,B,bo,O,o,283,1,1917.3000000715256,796008.5999999046,7151,WL,A,3.0
6,8.197999954223633,distr,51802.00004577637,Mon May 12 2025 16:40:18 GMT-0500 (Central Daylight Time),798175.0,B,bow,O,w,239,1,2166.4000000953674,796008.5999999046,7151,WL,A,3.0
6,8.348999977111816,distr,51651.00002288818,Mon May 12 2025 16:40:18 GMT-0500 (Central Daylight Time),798326.3999999762,B,bowl,O,l,140,1,2317.8000000715256,796008.5999999046,7151,WL,A,3.0
6,8.814000129699707,distr,51185.99987030029,Mon May 12 2025 16:40:18 GMT-0500 (Central Daylight Time),798791.3999999762,B,bowlenter,O,enter,453,1,2782.8000000715256,796008.5999999046,7151,WL,A,3.0
6,9.614000082015991,distr,50385.99991798401,Mon May 12 2025 16:40:18 GMT-0500 (Central Daylight Time),799591.0,B,d,O,d,789,1,799.4000000953674,798791.5999999046,7151,WL,A,4.0
6,9.86299991607666,distr,50137.00008392334,Mon May 12 2025 16:40:18 GMT-0500 (Central Daylight Time),799840.5,B,du,O,u,236,1,1048.9000000953674,798791.5999999046,7151,WL,A,4.0
6,9.996999979019165,distr,50003.000020980835,Mon May 12 2025 16:40:18 GMT-0500 (Central Daylight Time),799974.0999999046,B,dus,O,s,113,1,1182.5,798791.5999999046,7151,WL,A,4.0
6,10.29699993133545,distr,49703.00006866455,Mon May 12 2025 16:40:18 GMT-0500 (Central Daylight Time),800274.7999999523,B,dust,O,t,287,1,1483.2000000476837,798791.5999999046,7151,WL,A,4.0
6,10.564000129699707,distr,49435.99987030029,Mon May 12 2025 16:40:18 GMT-0500 (Central Daylight Time),800541.0999999046,B,dustenter,O,enter,249,1,1749.5,798791.5999999046,7151,WL,A,4.0
6,17.062999963760376,distr,42937.000036239624,Mon May 12 2025 16:40:18 GMT-0500 (Central Daylight Time),807040.0,B,c,O,c,6479,1,6498.600000023842,800541.3999999762,7151,WL,A,5.0
6,17.24500012397766,distr,42754.99987602234,Mon May 12 2025 16:40:18 GMT-0500 (Central Daylight Time),807222.0999999046,B,ch,O,h,164,1,6680.699999928474,800541.3999999762,7151,WL,A,5.0
6,17.394999980926514,distr,42605.000019073486,Mon May 12 2025 16:40:18 GMT-0500 (Central Daylight Time),807372.1999999285,B,cha,O,a,144,1,6830.799999952316,800541.3999999762,7151,WL,A,5.0
6,17.611000061035156,distr,42388.999938964844,Mon May 12 2025 16:40:18 GMT-0500 (Central Daylight Time),807588.2999999523,B,chai,O,i,198,1,7046.899999976158,800541.3999999762,7151,WL,A,5.0
6,17.930000066757202,distr,42069.9999332428,Mon May 12 2025 16:40:18 GMT-0500 (Central Daylight Time),807907.0,B,chair,O,r,314,1,7365.600000023842,800541.3999999762,7151,WL,A,5.0
6,18.444000005722046,distr,41555.999994277954,Mon May 12 2025 16:40:18 GMT-0500 (Central Daylight Time),808421.0999999046,B,chairenter,O,enter,496,1,7879.699999928474,800541.3999999762,7151,WL,A,5.0
6,26.20900011062622,distr,33790.99988937378,Mon May 12 2025 16:40:18 GMT-0500 (Central Daylight Time),816186.6999999285,B,j,O,j,7759,1,7765.399999976158,808421.2999999523,7151,WL,A,6.0
6,26.490999937057495,distr,33509.000062942505,Mon May 12 2025 16:40:18 GMT-0500 (Central Daylight Time),816468.2999999523,B,jd,O,d,274,1,8047.0,808421.2999999523,7151,WL,A,6.0
6,26.95900011062622,distr,33040.99988937378,Mon May 12 2025 16:40:18 GMT-0500 (Central Daylight Time),816936.0,B,jdu,O,u,446,1,8514.700000047684,808421.2999999523,7151,WL,A,6.0
6,27.257999897003174,distr,32742.000102996826,Mon May 12 2025 16:40:18 GMT-0500 (Central Daylight Time),817235.7999999523,B,jdug,O,g,285,1,8814.5,808421.2999999523,7151,WL,A,6.0
6,27.39199995994568,distr,32608.00004005432,Mon May 12 2025 16:40:18 GMT-0500 (Central Daylight Time),817369.1999999285,B,jduge,O,e,112,1,8947.899999976158,808421.2999999523,7151,WL,A,6.0
6,30.58999991416931,distr,29410.00008583069,Mon May 12 2025 16:40:18 GMT-0500 (Central Daylight Time),820567.5999999046,B,jdug,O,backspace,3185,1,12146.299999952316,808421.2999999523,7151,WL,A,6.0
6,30.822999954223633,distr,29177.000045776367,Mon May 12 2025 16:40:18 GMT-0500 (Central Daylight Time),820800.6999999285,B,jdu,O,backspace,214,1,12379.399999976158,808421.2999999523,7151,WL,A,6.0
6,31.02300000190735,distr,28976.99999809265,Mon May 12 2025 16:40:18 GMT-0500 (Central Daylight Time),821000.5999999046,B,jd,O,backspace,187,1,12579.299999952316,808421.2999999523,7151,WL,A,6.0
6,31.240000009536743,distr,28759.999990463257,Mon May 12 2025 16:40:18 GMT-0500 (Central Daylight Time),821217.3999999762,B,j,O,backspace,205,1,12796.100000023842,808421.2999999523,7151,WL,A,6.0
6,31.98900008201599,distr,28010.99991798401,Mon May 12 2025 16:40:18 GMT-0500 (Central Daylight Time),821966.2999999523,B,ju,O,u,732,1,13545.0,808421.2999999523,7151,WL,A,6.0
6,32.371999979019165,distr,27628.000020980835,Mon May 12 2025 16:40:18 GMT-0500 (Central Daylight Time),822349.7999999523,B,juf,O,f,373,1,13928.5,808421.2999999523,7151,WL,A,6.0
6,32.75600004196167,distr,27243.99995803833,Mon May 12 2025 16:40:18 GMT-0500 (Central Daylight Time),822733.6999999285,B,ju,O,backspace,375,1,14312.399999976158,808421.2999999523,7151,WL,A,6.0
6,32.92300009727478,distr,27076.99990272522,Mon May 12 2025 16:40:18 GMT-0500 (Central Daylight Time),822900.2999999523,B,jud,O,d,161,1,14479.0,808421.2999999523,7151,WL,A,6.0
6,33.140000104904175,distr,26859.999895095825,Mon May 12 2025 16:40:18 GMT-0500 (Central Daylight Time),823117.0999999046,B,judg,O,g,195,1,14695.799999952316,808421.2999999523,7151,WL,A,6.0
6,33.23900008201599,distr,26760.99991798401,Mon May 12 2025 16:40:18 GMT-0500 (Central Daylight Time),823216.3999999762,B,judge,O,e,87,1,14795.100000023842,808421.2999999523,7151,WL,A,6.0
6,34.58800005912781,distr,25411.999940872192,Mon May 12 2025 16:40:18 GMT-0500 (Central Daylight Time),824565.7999999523,B,judgeenter,O,enter,1332,1,16144.5,808421.2999999523,7151,WL,A,6.0
6,46.01800012588501,distr,13981.99987411499,Mon May 12 2025 16:40:18 GMT-0500 (Central Daylight Time),835995.0999999046,B,enter,O,enter,11422,1,11429.0,824566.0999999046,7151,WL,A,7.0
6,59.78099989891052,distr,219.00010108947754,Mon May 12 2025 16:40:18 GMT-0500 (Central Daylight Time),849758.7999999523,B,b,O,b,13745,1,13763.399999976158,835995.3999999762,7151,WL,A,8.0
6,60.015000104904175,distr,-15.000104904174805,Mon May 12 2025 16:40:18 GMT-0500 (Central Daylight Time),849992.6999999285,B,bNone,O,None,226,1,13997.299999952316,835995.3999999762,7151,WL,A,8.0
7,2.0,immed,58000.0,Mon May 12 2025 16:40:18 GMT-0500 (Central Daylight Time),867286.6999999285,A,t,O,t,1981,1,1999.5,865287.1999999285,7151,WL,A,1.0
7,2.25,immed,57750.0,Mon May 12 2025 16:40:18 GMT-0500 (Central Daylight Time),867536.8999999762,A,tr,O,r,237,1,2249.7000000476837,865287.1999999285,7151,WL,A,1.0
7,2.5320000648498535,immed,57467.99993515015,Mon May 12 2025 16:40:18 GMT-0500 (Central Daylight Time),867818.5999999046,A,tra,O,a,268,1,2531.399999976158,865287.1999999285,7151,WL,A,1.0
7,2.631999969482422,immed,57368.00003051758,Mon May 12 2025 16:40:18 GMT-0500 (Central Daylight Time),867918.8999999762,A,trai,O,i,87,1,2631.7000000476837,865287.1999999285,7151,WL,A,1.0
7,2.881999969482422,immed,57118.00003051758,Mon May 12 2025 16:40:18 GMT-0500 (Central Daylight Time),868168.7999999523,A,train,O,n,229,1,2881.600000023842,865287.1999999285,7151,WL,A,1.0
7,3.1659998893737793,immed,56834.00011062622,Mon May 12 2025 16:40:18 GMT-0500 (Central Daylight Time),868452.5999999046,A,trainenter,O,enter,261,1,3165.399999976158,865287.1999999285,7151,WL,A,1.0
7,3.931999921798706,immed,56068.000078201294,Mon May 12 2025 16:40:18 GMT-0500 (Central Daylight Time),869218.7999999523,A,f,O,f,751,1,766.0,868452.7999999523,7151,WL,A,2.0
7,4.114000082015991,immed,55885.99991798401,Mon May 12 2025 16:40:18 GMT-0500 (Central Daylight Time),869401.0,A,fl,O,l,170,1,948.2000000476837,868452.7999999523,7151,WL,A,2.0
7,4.315999984741211,immed,55684.00001525879,Mon May 12 2025 16:40:18 GMT-0500 (Central Daylight Time),869602.5999999046,A,flo,O,o,198,1,1149.7999999523163,868452.7999999523,7151,WL,A,2.0
7,4.450000047683716,immed,55549.999952316284,Mon May 12 2025 16:40:18 GMT-0500 (Central Daylight Time),869736.1999999285,A,flow,O,w,120,1,1283.3999999761581,868452.7999999523,7151,WL,A,2.0
7,4.631999969482422,immed,55368.00003051758,Mon May 12 2025 16:40:18 GMT-0500 (Central Daylight Time),869919.0999999046,A,flowe,O,e,162,1,1466.2999999523163,868452.7999999523,7151,WL,A,2.0
7,4.865999937057495,immed,55134.000062942505,Mon May 12 2025 16:40:18 GMT-0500 (Central Daylight Time),870152.8999999762,A,flower,O,r,221,1,1700.1000000238419,868452.7999999523,7151,WL,A,2.0
7,5.581000089645386,immed,54418.999910354614,Mon May 12 2025 16:40:18 GMT-0500 (Central Daylight Time),870867.7999999523,A,flowerenter,O,enter,696,1,2415.0,868452.7999999523,7151,WL,A,2.0
7,6.430999994277954,immed,53569.000005722046,Mon May 12 2025 16:40:18 GMT-0500 (Central Daylight Time),871718.0999999046,A,r,O,r,832,1,850.0,870868.0999999046,7151,WL,A,3.0
7,6.66700005531311,immed,53332.99994468689,Mon May 12 2025 16:40:18 GMT-0500 (Central Daylight Time),871953.3999999762,A,ru,O,u,222,1,1085.3000000715256,870868.0999999046,7151,WL,A,3.0
7,6.982000112533569,immed,53017.99988746643,Mon May 12 2025 16:40:18 GMT-0500 (Central Daylight Time),872268.1999999285,A,rug,O,g,298,1,1400.1000000238419,870868.0999999046,7151,WL,A,3.0
7,8.11299991607666,immed,51887.00008392334,Mon May 12 2025 16:40:18 GMT-0500 (Central Daylight Time),873400.0,A,rugenter,O,enter,1118,1,2531.9000000953674,870868.0999999046,7151,WL,A,3.0
7,8.88100004196167,immed,51118.99995803833,Mon May 12 2025 16:40:18 GMT-0500 (Central Daylight Time),874167.5999999046,A,g,O,g,757,1,767.3999999761581,873400.1999999285,7151,WL,A,4.0
7,9.096999883651733,immed,50903.00011634827,Mon May 12 2025 16:40:18 GMT-0500 (Central Daylight Time),874384.0999999046,A,go,O,o,193,1,983.8999999761581,873400.1999999285,7151,WL,A,4.0
7,9.315000057220459,immed,50684.99994277954,Mon May 12 2025 16:40:18 GMT-0500 (Central Daylight Time),874601.2999999523,A,gol,O,l,192,1,1201.1000000238419,873400.1999999285,7151,WL,A,4.0
7,9.46399998664856,immed,50536.00001335144,Mon May 12 2025 16:40:18 GMT-0500 (Central Daylight Time),874750.5999999046,A,gold,O,d,129,1,1350.3999999761581,873400.1999999285,7151,WL,A,4.0
7,10.130000114440918,immed,49869.99988555908,Mon May 12 2025 16:40:18 GMT-0500 (Central Daylight Time),875416.7999999523,A,goldenter,O,enter,645,1,2016.6000000238419,873400.1999999285,7151,WL,A,4.0
7,13.463000059127808,immed,46536.99994087219,Mon May 12 2025 16:40:18 GMT-0500 (Central Daylight Time),878749.6999999285,A,h,O,h,3327,1,3332.600000023842,875417.0999999046,7151,WL,A,5.0
7,13.696000099182129,immed,46303.99990081787,Mon May 12 2025 16:40:18 GMT-0500 (Central Daylight Time),878982.1999999285,A,ha,O,a,220,1,3565.100000023842,875417.0999999046,7151,WL,A,5.0
7,14.07800006866455,immed,45921.99993133545,Mon May 12 2025 16:40:18 GMT-0500 (Central Daylight Time),879365.0,A,har,O,r,376,1,3947.9000000953674,875417.0999999046,7151,WL,A,5.0
7,14.378000020980835,immed,45621.999979019165,Mon May 12 2025 16:40:18 GMT-0500 (Central Daylight Time),879665.0999999046,A,harp,O,p,286,1,4248.0,875417.0999999046,7151,WL,A,5.0
7,14.66100001335144,immed,45338.99998664856,Mon May 12 2025 16:40:18 GMT-0500 (Central Daylight Time),879948.1999999285,A,harpenter,O,enter,266,1,4531.100000023842,875417.0999999046,7151,WL,A,5.0
7,15.279000043869019,immed,44720.99995613098,Mon May 12 2025 16:40:18 GMT-0500 (Central Daylight Time),880565.5,A,c,O,c,609,1,617.0,879948.5,7151,WL,A,6.0
7,15.530999898910522,immed,44469.00010108948,Mon May 12 2025 16:40:18 GMT-0500 (Central Daylight Time),880817.5999999046,A,ch,O,h,231,1,869.0999999046326,879948.5,7151,WL,A,6.0
7,15.779000043869019,immed,44220.99995613098,Mon May 12 2025 16:40:18 GMT-0500 (Central Daylight Time),881065.5999999046,A,che,O,e,233,1,1117.0999999046326,879948.5,7151,WL,A,6.0
7,16.17899990081787,immed,43821.00009918213,Mon May 12 2025 16:40:18 GMT-0500 (Central Daylight Time),881465.6999999285,A,chei,O,i,378,1,1517.1999999284744,879948.5,7151,WL,A,6.0
7,16.661999940872192,immed,43338.00005912781,Mon May 12 2025 16:40:18 GMT-0500 (Central Daylight Time),881948.5999999046,A,cheim,O,m,478,1,2000.0999999046326,879948.5,7151,WL,A,6.0
7,17.312000036239624,immed,42687.999963760376,Mon May 12 2025 16:40:18 GMT-0500 (Central Daylight Time),882599.0,A,cheimy,O,y,637,1,2650.5,879948.5,7151,WL,A,6.0
7,18.276999950408936,immed,41723.000049591064,Mon May 12 2025 16:40:18 GMT-0500 (Central Daylight Time),883563.3999999762,A,cheimyenter,O,enter,959,1,3614.899999976158,879948.5,7151,WL,A,6.0
7,21.878000020980835,immed,38121.999979019165,Mon May 12 2025 16:40:18 GMT-0500 (Central Daylight Time),887164.2999999523,A,f,O,f,3585,1,3600.600000023842,883563.6999999285,7151,WL,A,7.0
7,22.158999919891357,immed,37841.00008010864,Mon May 12 2025 16:40:18 GMT-0500 (Central Daylight Time),887446.0999999046,A,fi,O,i,264,1,3882.399999976158,883563.6999999285,7151,WL,A,7.0
7,22.47699999809265,immed,37523.00000190735,Mon May 12 2025 16:40:18 GMT-0500 (Central Daylight Time),887763.7999999523,A,fib,O,b,310,1,4200.100000023842,883563.6999999285,7151,WL,A,7.0
7,23.375999927520752,immed,36624.00007247925,Mon May 12 2025 16:40:18 GMT-0500 (Central Daylight Time),888662.1999999285,A,fi,O,backspace,878,1,5098.5,883563.6999999285,7151,WL,A,7.0
7,24.042999982833862,immed,35957.00001716614,Mon May 12 2025 16:40:18 GMT-0500 (Central Daylight Time),889329.6999999285,A,fin,O,n,646,1,5766.0,883563.6999999285,7151,WL,A,7.0
7,24.22499990463257,immed,35775.00009536743,Mon May 12 2025 16:40:18 GMT-0500 (Central Daylight Time),889512.0999999046,A,fine,O,e,169,1,5948.399999976158,883563.6999999285,7151,WL,A,7.0
7,24.45900011062622,immed,35540.99988937378,Mon May 12 2025 16:40:18 GMT-0500 (Central Daylight Time),889745.2999999523,A,finer,O,r,219,1,6181.600000023842,883563.6999999285,7151,WL,A,7.0
7,25.344000101089478,immed,34655.99989891052,Mon May 12 2025 16:40:18 GMT-0500 (Central Daylight Time),890630.3999999762,A,fine,O,backspace,865,1,7066.700000047684,883563.6999999285,7151,WL,A,7.0
7,25.55900001525879,immed,34440.99998474121,Mon May 12 2025 16:40:18 GMT-0500 (Central Daylight Time),890845.5,A,fin,O,backspace,197,1,7281.800000071526,883563.6999999285,7151,WL,A,7.0
7,26.358999967575073,immed,33641.00003242493,Mon May 12 2025 16:40:18 GMT-0500 (Central Daylight Time),891645.1999999285,A,fing,O,g,789,1,8081.5,883563.6999999285,7151,WL,A,7.0
7,26.47699999809265,immed,33523.00000190735,Mon May 12 2025 16:40:18 GMT-0500 (Central Daylight Time),891763.7999999523,A,finge,O,e,102,1,8200.100000023842,883563.6999999285,7151,WL,A,7.0
7,26.691999912261963,immed,33308.00008773804,Mon May 12 2025 16:40:18 GMT-0500 (Central Daylight Time),891978.5,A,finger,O,r,199,1,8414.800000071526,883563.6999999285,7151,WL,A,7.0
7,28.091000080108643,immed,31908.999919891357,Mon May 12 2025 16:40:18 GMT-0500 (Central Daylight Time),893377.8999999762,A,fingerenter,O,enter,1394,1,9814.200000047684,883563.6999999285,7151,WL,A,7.0
7,30.207000017166138,immed,29792.999982833862,Mon May 12 2025 16:40:18 GMT-0500 (Central Daylight Time),895493.8999999762,A,l,O,l,2107,1,2115.8000000715256,893378.0999999046,7151,WL,A,8.0
7,30.42300009727478,immed,29576.99990272522,Mon May 12 2025 16:40:18 GMT-0500 (Central Daylight Time),895709.7999999523,A,lo,O,o,206,1,2331.7000000476837,893378.0999999046,7151,WL,A,8.0
7,30.67300009727478,immed,29326.99990272522,Mon May 12 2025 16:40:18 GMT-0500 (Central Daylight Time),895959.7999999523,A,log,O,g,239,1,2581.7000000476837,893378.0999999046,7151,WL,A,8.0
7,30.872999906539917,immed,29127.000093460083,Mon May 12 2025 16:40:18 GMT-0500 (Central Daylight Time),896160.1999999285,A,logenter,O,enter,189,1,2782.100000023842,893378.0999999046,7151,WL,A,8.0
7,49.76799988746643,immed,10232.00011253357,Mon May 12 2025 16:40:18 GMT-0500 (Central Daylight Time),915054.6999999285,A,l,O,l,18877,1,18894.299999952316,896160.3999999762,7151,WL,A,9.0
7,49.96799993515015,immed,10032.000064849854,Mon May 12 2025 16:40:18 GMT-0500 (Central Daylight Time),915254.5999999046,A,lo,O,o,181,1,19094.199999928474,896160.3999999762,7151,WL,A,9.0
7,50.08500003814697,immed,9914.999961853027,Mon May 12 2025 16:40:18 GMT-0500 (Central Daylight Time),915372.3999999762,A,log,O,g,111,1,19212.0,896160.3999999762,7151,WL,A,9.0
7,50.36500000953674,immed,9634.999990463257,Mon May 12 2025 16:40:18 GMT-0500 (Central Daylight Time),915652.5,A,logenter,O,enter,270,1,19492.100000023842,896160.3999999762,7151,WL,A,9.0
7,53.34999990463257,immed,6650.000095367432,Mon May 12 2025 16:40:18 GMT-0500 (Central Daylight Time),918636.7999999523,A,g,O,g,2977,1,2984.2000000476837,915652.5999999046,7151,WL,A,10.0
7,53.59999990463257,immed,6400.000095367432,Mon May 12 2025 16:40:18 GMT-0500 (Central Daylight Time),918887.1999999285,A,go,O,o,230,1,3234.600000023842,915652.5999999046,7151,WL,A,10.0
7,53.81599998474121,immed,6184.000015258789,Mon May 12 2025 16:40:18 GMT-0500 (Central Daylight Time),919103.3999999762,A,gol,O,l,197,1,3450.8000000715256,915652.5999999046,7151,WL,A,10.0
7,53.98200011253357,immed,6017.999887466431,Mon May 12 2025 16:40:18 GMT-0500 (Central Daylight Time),919269.3999999762,A,gold,O,d,156,1,3616.8000000715256,915652.5999999046,7151,WL,A,10.0
7,54.181999921798706,immed,5818.000078201294,Mon May 12 2025 16:40:18 GMT-0500 (Central Daylight Time),919469.1999999285,A,goldenter,O,enter,189,1,3816.600000023842,915652.5999999046,7151,WL,A,10.0
7,60.013999938964844,immed,-13.99993896484375,Mon May 12 2025 16:40:18 GMT-0500 (Central Daylight Time),925301.2999999523,A,None,O,None,5828,1,5831.799999952316,919469.5,7151,WL,A,11.0
