acc_sum,block,block_c,change,condition,correct,correct_response,datetime,endtime,face,project,response,response_time,row_sel,session_number,start_end,starttime,subject_id,task,task_vers,trial
0,prac,1,,1-Back,,,Thu Feb 26 2026 09:47:36 GMT-0600 (Central Standard Time),,050_m_f_n_a.png,I,space,1832,1,2,,,8078,NNB,A,0
1,prac,1,0.0,1-Back,1.0,m,Thu Feb 26 2026 09:47:36 GMT-0600 (Central Standard Time),129441.19999998808,063_y_f_n_a.png,I,m,1608,2,2,2408.600000023842,127032.59999996424,8078,NNB,A,1
2,prac,1,1.0,1-Back,1.0,z,Thu Feb 26 2026 09:47:36 GMT-0600 (Central Standard Time),131624.80000001192,063_y_f_n_a.png,I,z,1415,3,2,2176.400000035763,129448.39999997616,8078,NNB,A,2
3,prac,1,0.0,1-Back,1.0,m,Thu Feb 26 2026 09:47:36 GMT-0600 (Central Standard Time),134139.5,053_o_m_n_a.png,I,m,1709,4,2,2504.699999988079,131634.80000001192,8078,NNB,A,3
4,prac,1,0.0,1-Back,1.0,m,Thu Feb 26 2026 09:47:36 GMT-0600 (Central Standard Time),136089.0,058_m_m_n_a.png,I,m,1150,5,2,1942.9000000357628,134146.09999996424,8078,NNB,A,4
5,prac,1,1.0,1-Back,1.0,z,Thu Feb 26 2026 09:47:36 GMT-0600 (Central Standard Time),137471.80000001192,058_m_m_n_a.png,I,z,600,6,2,1375.9000000357628,136095.89999997616,8078,NNB,A,5
6,prac,1,0.0,1-Back,1.0,m,Thu Feb 26 2026 09:47:36 GMT-0600 (Central Standard Time),139637.80000001192,047_o_f_n_a.png,I,m,1377,7,2,2159.2000000476837,137478.59999996424,8078,NNB,A,6
7,prac,1,0.0,1-Back,1.0,m,Thu Feb 26 2026 09:47:36 GMT-0600 (Central Standard Time),141487.39999997616,045_m_m_n_a.png,I,m,1045,8,2,1843.3999999761581,139644.0,8078,NNB,A,7
8,prac,1,0.0,1-Back,1.0,m,Thu Feb 26 2026 09:47:36 GMT-0600 (Central Standard Time),143020.09999996424,050_m_f_n_a.png,I,m,755,9,2,1526.8999999761581,141493.19999998808,8078,NNB,A,8
9,prac,1,1.0,1-Back,1.0,z,Thu Feb 26 2026 09:47:36 GMT-0600 (Central Standard Time),144702.80000001192,050_m_f_n_a.png,I,z,901,10,2,1676.1000000238419,143026.69999998808,8078,NNB,A,9
10,prac,1,0.0,1-Back,1.0,m,Thu Feb 26 2026 09:47:36 GMT-0600 (Central Standard Time),146418.69999998808,053_o_m_n_a.png,I,m,930,11,2,1709.199999988079,144709.5,8078,NNB,A,10
11,prac,1,0.0,1-Back,1.0,m,Thu Feb 26 2026 09:47:36 GMT-0600 (Central Standard Time),148185.09999996424,010_y_f_n_a.png,I,m,919,12,2,1756.8999999761581,146428.19999998808,8078,NNB,A,11
0,test,1,0.0,1-Back,,,Thu Feb 26 2026 09:47:36 GMT-0600 (Central Standard Time),148185.09999996424,063_y_f_n_a.png,I,space,826,1,2,1756.8999999761581,146428.19999998808,8078,NNB,A,0
1,test,1,0.0,1-Back,1.0,m,Thu Feb 26 2026 09:47:36 GMT-0600 (Central Standard Time),174193.30000001192,043_m_f_n_a.png,I,m,998,2,2,2011.2000000476837,172182.09999996424,8078,NNB,A,1
2,test,1,0.0,1-Back,1.0,m,Thu Feb 26 2026 09:47:36 GMT-0600 (Central Standard Time),176076.59999996424,010_y_f_n_a.png,I,m,854,3,2,1879.5,174197.09999996424,8078,NNB,A,2
3,test,1,1.0,1-Back,1.0,z,Thu Feb 26 2026 09:47:36 GMT-0600 (Central Standard Time),177825.59999996424,010_y_f_n_a.png,I,z,723,4,2,1745.5,176080.09999996424,8078,NNB,A,3
4,test,1,0.0,1-Back,1.0,m,Thu Feb 26 2026 09:47:36 GMT-0600 (Central Standard Time),179958.39999997616,043_m_f_n_a.png,I,m,1030,5,2,2128.699999988079,177829.69999998808,8078,NNB,A,4
5,test,1,0.0,1-Back,1.0,m,Thu Feb 26 2026 09:47:36 GMT-0600 (Central Standard Time),181741.59999996424,053_o_m_n_a.png,I,m,754,6,2,1779.5999999642372,179962.0,8078,NNB,A,5
6,test,1,1.0,1-Back,1.0,z,Thu Feb 26 2026 09:47:36 GMT-0600 (Central Standard Time),183657.30000001192,053_o_m_n_a.png,I,z,891,7,2,1911.300000011921,181746.0,8078,NNB,A,6
7,test,1,0.0,1-Back,1.0,m,Thu Feb 26 2026 09:47:36 GMT-0600 (Central Standard Time),185973.19999998808,058_m_m_n_a.png,I,m,1286,8,2,2311.699999988079,183661.5,8078,NNB,A,7
8,test,1,0.0,1-Back,1.0,m,Thu Feb 26 2026 09:47:36 GMT-0600 (Central Standard Time),187922.69999998808,047_o_f_n_a.png,I,m,930,9,2,1945.0,185977.69999998808,8078,NNB,A,8
9,test,1,0.0,1-Back,1.0,m,Thu Feb 26 2026 09:47:36 GMT-0600 (Central Standard Time),189872.09999996424,058_m_m_n_a.png,I,m,917,10,2,1944.8999999761581,187927.19999998808,8078,NNB,A,9
10,test,1,0.0,1-Back,1.0,m,Thu Feb 26 2026 09:47:36 GMT-0600 (Central Standard Time),191521.59999996424,041_y_m_n_a.png,I,m,624,11,2,1645.5999999642372,189876.0,8078,NNB,A,10
11,test,1,1.0,1-Back,1.0,z,Thu Feb 26 2026 09:47:36 GMT-0600 (Central Standard Time),193454.09999996424,041_y_m_n_a.png,I,z,902,12,2,1928.2999999523163,191525.80000001192,8078,NNB,A,11
12,test,1,0.0,1-Back,1.0,m,Thu Feb 26 2026 09:47:36 GMT-0600 (Central Standard Time),195370.59999996424,044_o_f_n_a.png,I,m,890,13,2,1912.7999999523163,193457.80000001192,8078,NNB,A,12
13,test,1,1.0,1-Back,1.0,z,Thu Feb 26 2026 09:47:36 GMT-0600 (Central Standard Time),197353.0,044_o_f_n_a.png,I,z,959,14,2,1978.0,195375.0,8078,NNB,A,13
14,test,1,0.0,1-Back,1.0,m,Thu Feb 26 2026 09:47:36 GMT-0600 (Central Standard Time),199602.39999997616,008_y_m_n_a.png,I,m,1231,15,2,2245.399999976158,197357.0,8078,NNB,A,14
15,test,1,0.0,1-Back,1.0,m,Thu Feb 26 2026 09:47:36 GMT-0600 (Central Standard Time),201535.0,050_m_f_n_a.png,I,m,901,16,2,1928.4000000357628,199606.59999996424,8078,NNB,A,15
16,test,1,0.0,1-Back,1.0,m,Thu Feb 26 2026 09:47:36 GMT-0600 (Central Standard Time),203267.69999998808,046_o_m_n_a.png,I,m,666,17,2,1729.1000000238419,201538.59999996424,8078,NNB,A,16
17,test,1,0.0,1-Back,1.0,m,Thu Feb 26 2026 09:47:36 GMT-0600 (Central Standard Time),205467.5,050_m_f_n_a.png,I,m,1173,18,2,2195.900000035763,203271.59999996424,8078,NNB,A,17
0,test,2,0.0,1-Back,,,Thu Feb 26 2026 09:47:36 GMT-0600 (Central Standard Time),205467.5,058_m_m_n_a.png,I,space,2477,1,2,2195.900000035763,203271.59999996424,8078,NNB,A,0
1,test,2,0.0,1-Back,1.0,m,Thu Feb 26 2026 09:47:36 GMT-0600 (Central Standard Time),211898.30000001192,043_m_f_n_a.png,I,m,913,2,2,1924.4000000357628,209973.89999997616,8078,NNB,A,1
2,test,2,1.0,1-Back,1.0,z,Thu Feb 26 2026 09:47:36 GMT-0600 (Central Standard Time),213814.59999996424,043_m_f_n_a.png,I,z,893,3,2,1912.5999999642372,211902.0,8078,NNB,A,2
3,test,2,0.0,1-Back,1.0,m,Thu Feb 26 2026 09:47:36 GMT-0600 (Central Standard Time),215664.0,058_m_m_n_a.png,I,m,825,4,2,1845.699999988079,213818.30000001192,8078,NNB,A,3
4,test,2,0.0,1-Back,1.0,m,Thu Feb 26 2026 09:47:36 GMT-0600 (Central Standard Time),217830.09999996424,041_y_m_n_a.png,I,m,1143,5,2,2161.199999988079,215668.89999997616,8078,NNB,A,4
5,test,2,0.0,1-Back,1.0,m,Thu Feb 26 2026 09:47:36 GMT-0600 (Central Standard Time),219546.30000001192,063_y_f_n_a.png,I,m,689,6,2,1712.5,217833.80000001192,8078,NNB,A,5
6,test,2,1.0,1-Back,1.0,z,Thu Feb 26 2026 09:47:36 GMT-0600 (Central Standard Time),221245.5,063_y_f_n_a.png,I,z,677,7,2,1694.9000000357628,219550.59999996424,8078,NNB,A,6
7,test,2,0.0,1-Back,1.0,m,Thu Feb 26 2026 09:47:36 GMT-0600 (Central Standard Time),223045.19999998808,041_y_m_n_a.png,I,m,770,8,2,1796.0,221249.19999998808,8078,NNB,A,7
8,test,2,0.0,1-Back,1.0,m,Thu Feb 26 2026 09:47:36 GMT-0600 (Central Standard Time),225194.0,044_o_f_n_a.png,I,m,1131,9,2,2145.300000011921,223048.69999998808,8078,NNB,A,8
9,test,2,0.0,1-Back,1.0,m,Thu Feb 26 2026 09:47:36 GMT-0600 (Central Standard Time),226960.39999997616,045_m_m_n_a.png,I,m,740,10,2,1762.699999988079,225197.69999998808,8078,NNB,A,9
10,test,2,1.0,1-Back,1.0,z,Thu Feb 26 2026 09:47:36 GMT-0600 (Central Standard Time),228543.59999996424,045_m_m_n_a.png,I,z,550,11,2,1579.0,226964.59999996424,8078,NNB,A,10
11,test,2,0.0,1-Back,1.0,m,Thu Feb 26 2026 09:47:36 GMT-0600 (Central Standard Time),230192.89999997616,044_o_f_n_a.png,I,m,633,12,2,1645.8999999761581,228547.0,8078,NNB,A,11
12,test,2,0.0,1-Back,1.0,m,Thu Feb 26 2026 09:47:36 GMT-0600 (Central Standard Time),231925.5,047_o_f_n_a.png,I,m,703,13,2,1728.0,230197.5,8078,NNB,A,12
13,test,2,0.0,1-Back,1.0,m,Thu Feb 26 2026 09:47:36 GMT-0600 (Central Standard Time),233608.30000001192,053_o_m_n_a.png,I,m,659,14,2,1679.2000000476837,231929.09999996424,8078,NNB,A,13
14,test,2,0.0,1-Back,1.0,m,Thu Feb 26 2026 09:47:36 GMT-0600 (Central Standard Time),235374.5,046_o_m_n_a.png,I,m,735,15,2,1762.199999988079,233612.30000001192,8078,NNB,A,14
15,test,2,1.0,1-Back,1.0,z,Thu Feb 26 2026 09:47:36 GMT-0600 (Central Standard Time),236990.69999998808,046_o_m_n_a.png,I,z,593,16,2,1611.8999999761581,235378.80000001192,8078,NNB,A,15
16,test,2,0.0,1-Back,1.0,m,Thu Feb 26 2026 09:47:36 GMT-0600 (Central Standard Time),238873.30000001192,008_y_m_n_a.png,I,m,857,17,2,1877.5,236995.80000001192,8078,NNB,A,16
17,test,2,1.0,1-Back,1.0,z,Thu Feb 26 2026 09:47:36 GMT-0600 (Central Standard Time),240539.59999996424,008_y_m_n_a.png,I,z,638,18,2,1662.2999999523163,238877.30000001192,8078,NNB,A,17
0,test,3,1.0,1-Back,,,Thu Feb 26 2026 09:47:36 GMT-0600 (Central Standard Time),240539.59999996424,010_y_f_n_a.png,I,space,1900,1,2,1662.2999999523163,238877.30000001192,8078,NNB,A,0
1,test,3,0.0,1-Back,1.0,m,Thu Feb 26 2026 09:47:36 GMT-0600 (Central Standard Time),246421.09999996424,046_o_m_n_a.png,I,m,878,2,2,1891.5,244529.59999996424,8078,NNB,A,1
2,test,3,1.0,1-Back,1.0,z,Thu Feb 26 2026 09:47:36 GMT-0600 (Central Standard Time),248154.59999996424,046_o_m_n_a.png,I,z,714,3,2,1729.7999999523163,246424.80000001192,8078,NNB,A,2
3,test,3,0.0,1-Back,1.0,m,Thu Feb 26 2026 09:47:36 GMT-0600 (Central Standard Time),249831.69999998808,050_m_f_n_a.png,I,m,647,4,2,1672.6000000238419,248159.09999996424,8078,NNB,A,3
3,test,3,1.0,1-Back,0.0,z,Thu Feb 26 2026 09:47:36 GMT-0600 (Central Standard Time),251485.89999997616,050_m_f_n_a.png,I,m,627,5,2,1646.800000011921,249839.09999996424,8078,NNB,A,4
4,test,3,0.0,1-Back,1.0,m,Thu Feb 26 2026 09:47:36 GMT-0600 (Central Standard Time),253335.30000001192,044_o_f_n_a.png,I,m,827,6,2,1845.0,251490.30000001192,8078,NNB,A,5
5,test,3,0.0,1-Back,1.0,m,Thu Feb 26 2026 09:47:36 GMT-0600 (Central Standard Time),255301.39999997616,041_y_m_n_a.png,I,m,945,7,2,1961.5999999642372,253339.80000001192,8078,NNB,A,6
6,test,3,0.0,1-Back,1.0,m,Thu Feb 26 2026 09:47:36 GMT-0600 (Central Standard Time),256984.59999996424,044_o_f_n_a.png,I,m,666,8,2,1678.8999999761581,255305.69999998808,8078,NNB,A,7
7,test,3,0.0,1-Back,1.0,m,Thu Feb 26 2026 09:47:36 GMT-0600 (Central Standard Time),258618.19999998808,008_y_m_n_a.png,I,m,615,9,2,1629.800000011921,256988.39999997616,8078,NNB,A,8
7,test,3,1.0,1-Back,0.0,z,Thu Feb 26 2026 09:47:36 GMT-0600 (Central Standard Time),260699.89999997616,008_y_m_n_a.png,I,m,1062,10,2,2077.399999976158,258622.5,8078,NNB,A,9
8,test,3,0.0,1-Back,1.0,m,Thu Feb 26 2026 09:47:36 GMT-0600 (Central Standard Time),262399.39999997616,043_m_f_n_a.png,I,m,677,11,2,1694.8999999761581,260704.5,8078,NNB,A,10
9,test,3,0.0,1-Back,1.0,m,Thu Feb 26 2026 09:47:36 GMT-0600 (Central Standard Time),263982.09999996424,063_y_f_n_a.png,I,m,553,12,2,1578.3999999761581,262403.6999999881,8078,NNB,A,11
10,test,3,1.0,1-Back,1.0,z,Thu Feb 26 2026 09:47:36 GMT-0600 (Central Standard Time),265764.8000000119,063_y_f_n_a.png,I,z,753,13,2,1778.7000000476837,263986.09999996424,8078,NNB,A,12
11,test,3,0.0,1-Back,1.0,m,Thu Feb 26 2026 09:47:36 GMT-0600 (Central Standard Time),268064.39999997616,043_m_f_n_a.png,I,m,1275,14,2,2296.0,265768.39999997616,8078,NNB,A,13
12,test,3,0.0,1-Back,1.0,m,Thu Feb 26 2026 09:47:36 GMT-0600 (Central Standard Time),269730.1999999881,058_m_m_n_a.png,I,m,647,15,2,1661.800000011921,268068.39999997616,8078,NNB,A,14
13,test,3,1.0,1-Back,1.0,z,Thu Feb 26 2026 09:47:36 GMT-0600 (Central Standard Time),271430.0,058_m_m_n_a.png,I,z,678,16,2,1695.699999988079,269734.3000000119,8078,NNB,A,15
14,test,3,0.0,1-Back,1.0,m,Thu Feb 26 2026 09:47:36 GMT-0600 (Central Standard Time),273745.5,047_o_f_n_a.png,I,m,1298,17,2,2311.199999988079,271434.3000000119,8078,NNB,A,16
14,test,3,1.0,1-Back,0.0,z,Thu Feb 26 2026 09:47:36 GMT-0600 (Central Standard Time),275645.1999999881,047_o_f_n_a.png,I,m,879,18,2,1896.3999999761581,273748.8000000119,8078,NNB,A,17
0,test,4,1.0,1-Back,,,Thu Feb 26 2026 09:47:36 GMT-0600 (Central Standard Time),275645.1999999881,050_m_f_n_a.png,I,space,1379,1,2,1896.3999999761581,273748.8000000119,8078,NNB,A,0
1,test,4,0.0,1-Back,1.0,m,Thu Feb 26 2026 09:47:36 GMT-0600 (Central Standard Time),280943.6999999881,046_o_m_n_a.png,I,m,867,2,2,1895.0,279048.6999999881,8078,NNB,A,1
2,test,4,0.0,1-Back,1.0,m,Thu Feb 26 2026 09:47:36 GMT-0600 (Central Standard Time),282460.8000000119,050_m_f_n_a.png,I,m,496,3,2,1512.1000000238419,280948.6999999881,8078,NNB,A,2
3,test,4,0.0,1-Back,1.0,m,Thu Feb 26 2026 09:47:36 GMT-0600 (Central Standard Time),284192.8000000119,044_o_f_n_a.png,I,m,709,4,2,1728.300000011921,282464.5,8078,NNB,A,3
4,test,4,1.0,1-Back,1.0,z,Thu Feb 26 2026 09:47:36 GMT-0600 (Central Standard Time),285791.89999997616,044_o_f_n_a.png,I,z,575,5,2,1594.800000011921,284197.09999996424,8078,NNB,A,4
5,test,4,0.0,1-Back,1.0,m,Thu Feb 26 2026 09:47:36 GMT-0600 (Central Standard Time),287474.89999997616,063_y_f_n_a.png,I,m,654,6,2,1678.800000011921,285796.09999996424,8078,NNB,A,5
6,test,4,0.0,1-Back,1.0,m,Thu Feb 26 2026 09:47:36 GMT-0600 (Central Standard Time),289224.1999999881,041_y_m_n_a.png,I,m,732,7,2,1746.0,287478.1999999881,8078,NNB,A,6
6,test,4,1.0,1-Back,0.0,z,Thu Feb 26 2026 09:47:36 GMT-0600 (Central Standard Time),291123.59999996424,041_y_m_n_a.png,I,m,872,8,2,1895.7999999523163,289227.8000000119,8078,NNB,A,7
7,test,4,0.0,1-Back,1.0,m,Thu Feb 26 2026 09:47:36 GMT-0600 (Central Standard Time),292839.8000000119,063_y_f_n_a.png,I,m,684,9,2,1712.0,291127.8000000119,8078,NNB,A,8
8,test,4,0.0,1-Back,1.0,m,Thu Feb 26 2026 09:47:36 GMT-0600 (Central Standard Time),294505.59999996424,045_m_m_n_a.png,I,m,648,10,2,1661.7999999523163,292843.8000000119,8078,NNB,A,9
9,test,4,1.0,1-Back,1.0,z,Thu Feb 26 2026 09:47:36 GMT-0600 (Central Standard Time),296072.3000000119,045_m_m_n_a.png,I,z,534,11,2,1563.4000000357628,294508.89999997616,8078,NNB,A,10
10,test,4,0.0,1-Back,1.0,m,Thu Feb 26 2026 09:47:36 GMT-0600 (Central Standard Time),297505.1999999881,047_o_f_n_a.png,I,m,408,12,2,1429.3999999761581,296075.8000000119,8078,NNB,A,11
11,test,4,0.0,1-Back,1.0,m,Thu Feb 26 2026 09:47:36 GMT-0600 (Central Standard Time),299137.59999996424,053_o_m_n_a.png,I,m,614,13,2,1628.3999999761581,297509.1999999881,8078,NNB,A,12
12,test,4,0.0,1-Back,1.0,m,Thu Feb 26 2026 09:47:36 GMT-0600 (Central Standard Time),301003.8000000119,047_o_f_n_a.png,I,m,846,14,2,1861.7000000476837,299142.09999996424,8078,NNB,A,13
13,test,4,0.0,1-Back,1.0,m,Thu Feb 26 2026 09:47:36 GMT-0600 (Central Standard Time),302554.39999997616,010_y_f_n_a.png,I,m,531,15,2,1546.8999999761581,301007.5,8078,NNB,A,14
14,test,4,1.0,1-Back,1.0,z,Thu Feb 26 2026 09:47:36 GMT-0600 (Central Standard Time),304236.39999997616,010_y_f_n_a.png,I,z,655,16,2,1678.0,302558.39999997616,8078,NNB,A,15
15,test,4,0.0,1-Back,1.0,m,Thu Feb 26 2026 09:47:36 GMT-0600 (Central Standard Time),305820.1999999881,043_m_f_n_a.png,I,m,563,17,2,1580.300000011921,304239.89999997616,8078,NNB,A,16
16,test,4,1.0,1-Back,1.0,z,Thu Feb 26 2026 09:47:36 GMT-0600 (Central Standard Time),307718.39999997616,043_m_f_n_a.png,I,z,869,18,2,1893.3999999761581,305825.0,8078,NNB,A,17
0,test,5,1.0,1-Back,,,Thu Feb 26 2026 09:47:36 GMT-0600 (Central Standard Time),307718.39999997616,053_o_m_n_a.png,I,space,1210,1,2,1893.3999999761581,305825.0,8078,NNB,A,0
1,test,5,1.0,1-Back,1.0,z,Thu Feb 26 2026 09:47:36 GMT-0600 (Central Standard Time),312666.8000000119,053_o_m_n_a.png,I,z,697,2,2,1711.4000000357628,310955.39999997616,8078,NNB,A,1
2,test,5,0.0,1-Back,1.0,m,Thu Feb 26 2026 09:47:36 GMT-0600 (Central Standard Time),314566.09999996424,063_y_f_n_a.png,I,m,878,3,2,1895.8999999761581,312670.1999999881,8078,NNB,A,2
3,test,5,0.0,1-Back,1.0,m,Thu Feb 26 2026 09:47:36 GMT-0600 (Central Standard Time),316298.6999999881,041_y_m_n_a.png,I,m,705,4,2,1728.699999988079,314570.0,8078,NNB,A,3
4,test,5,0.0,1-Back,1.0,m,Thu Feb 26 2026 09:47:36 GMT-0600 (Central Standard Time),317965.09999996424,063_y_f_n_a.png,I,m,636,5,2,1662.5999999642372,316302.5,8078,NNB,A,4
5,test,5,0.0,1-Back,1.0,m,Thu Feb 26 2026 09:47:36 GMT-0600 (Central Standard Time),319531.5,058_m_m_n_a.png,I,m,539,6,2,1562.699999988079,317968.8000000119,8078,NNB,A,5
6,test,5,1.0,1-Back,1.0,z,Thu Feb 26 2026 09:47:36 GMT-0600 (Central Standard Time),321364.1999999881,058_m_m_n_a.png,I,z,786,7,2,1829.300000011921,319534.89999997616,8078,NNB,A,6
7,test,5,0.0,1-Back,1.0,m,Thu Feb 26 2026 09:47:36 GMT-0600 (Central Standard Time),322996.8000000119,010_y_f_n_a.png,I,m,612,8,2,1628.7000000476837,321368.09999996424,8078,NNB,A,7
8,test,5,0.0,1-Back,1.0,m,Thu Feb 26 2026 09:47:36 GMT-0600 (Central Standard Time),324813.0,008_y_m_n_a.png,I,m,794,9,2,1812.4000000357628,323000.59999996424,8078,NNB,A,8
9,test,5,0.0,1-Back,1.0,m,Thu Feb 26 2026 09:47:36 GMT-0600 (Central Standard Time),327162.39999997616,010_y_f_n_a.png,I,m,1323,10,2,2345.099999964237,324817.3000000119,8078,NNB,A,9
10,test,5,0.0,1-Back,1.0,m,Thu Feb 26 2026 09:47:36 GMT-0600 (Central Standard Time),329045.1999999881,047_o_f_n_a.png,I,m,861,11,2,1877.199999988079,327168.0,8078,NNB,A,10
11,test,5,1.0,1-Back,1.0,z,Thu Feb 26 2026 09:47:36 GMT-0600 (Central Standard Time),330744.6999999881,047_o_f_n_a.png,I,z,667,12,2,1696.300000011921,329048.39999997616,8078,NNB,A,11
12,test,5,0.0,1-Back,1.0,m,Thu Feb 26 2026 09:47:36 GMT-0600 (Central Standard Time),332294.09999996424,046_o_m_n_a.png,I,m,519,13,2,1546.199999988079,330747.89999997616,8078,NNB,A,12
13,test,5,0.0,1-Back,1.0,m,Thu Feb 26 2026 09:47:36 GMT-0600 (Central Standard Time),333893.6999999881,050_m_f_n_a.png,I,m,569,14,2,1596.199999988079,332297.5,8078,NNB,A,13
14,test,5,1.0,1-Back,1.0,z,Thu Feb 26 2026 09:47:36 GMT-0600 (Central Standard Time),335593.3000000119,050_m_f_n_a.png,I,z,674,15,2,1695.2000000476837,333898.09999996424,8078,NNB,A,14
15,test,5,0.0,1-Back,1.0,m,Thu Feb 26 2026 09:47:36 GMT-0600 (Central Standard Time),337225.89999997616,046_o_m_n_a.png,I,m,608,16,2,1629.0999999642372,335596.8000000119,8078,NNB,A,15
16,test,5,0.0,1-Back,1.0,m,Thu Feb 26 2026 09:47:36 GMT-0600 (Central Standard Time),339158.5,043_m_f_n_a.png,I,m,902,17,2,1929.1000000238419,337229.39999997616,8078,NNB,A,16
17,test,5,0.0,1-Back,1.0,m,Thu Feb 26 2026 09:47:36 GMT-0600 (Central Standard Time),340758.3000000119,045_m_m_n_a.png,I,m,577,18,2,1595.7000000476837,339162.59999996424,8078,NNB,A,17
0,prac,1,0.0,2-Back,,,Thu Feb 26 2026 09:47:36 GMT-0600 (Central Standard Time),340758.3000000119,008_y_m_n_a.png,I,space,983,1,2,1595.7000000476837,339162.59999996424,8078,NNB,A,0
0,prac,1,0.0,2-Back,,,Thu Feb 26 2026 09:47:36 GMT-0600 (Central Standard Time),340758.3000000119,043_m_f_n_a.png,I,space,983,2,2,1595.7000000476837,339162.59999996424,8078,NNB,A,0
1,prac,1,1.0,2-Back,1.0,m,Thu Feb 26 2026 09:47:36 GMT-0600 (Central Standard Time),454072.89999997616,046_o_m_n_a.png,I,m,1342,3,2,2143.300000011921,451929.59999996424,8078,NNB,A,1
1,prac,1,0.0,2-Back,0.0,m,Thu Feb 26 2026 09:47:36 GMT-0600 (Central Standard Time),456906.3000000119,047_o_f_n_a.png,I,None,2002,4,2,2826.900000035763,454079.39999997616,8078,NNB,A,2
1,prac,1,0.0,2-Back,0.0,z,Thu Feb 26 2026 09:47:36 GMT-0600 (Central Standard Time),459687.39999997616,046_o_m_n_a.png,I,None,2008,5,2,2774.899999976158,456912.5,8078,NNB,A,3
2,prac,1,1.0,2-Back,1.0,z,Thu Feb 26 2026 09:47:36 GMT-0600 (Central Standard Time),460520.8000000119,047_o_f_n_a.png,I,z,51,6,2,827.3000000119209,459693.5,8078,NNB,A,4
2,prac,1,0.0,2-Back,0.0,m,Thu Feb 26 2026 09:47:36 GMT-0600 (Central Standard Time),463319.89999997616,045_m_m_n_a.png,I,None,2004,7,2,2793.699999988079,460526.1999999881,8078,NNB,A,5
3,prac,1,0.0,2-Back,1.0,m,Thu Feb 26 2026 09:47:36 GMT-0600 (Central Standard Time),464853.89999997616,053_o_m_n_a.png,I,m,746,8,2,1527.699999988079,463326.1999999881,8078,NNB,A,6
3,prac,1,0.0,2-Back,0.0,m,Thu Feb 26 2026 09:47:36 GMT-0600 (Central Standard Time),467701.59999996424,010_y_f_n_a.png,I,None,2014,9,2,2842.0,464859.59999996424,8078,NNB,A,7
4,prac,1,1.0,2-Back,1.0,z,Thu Feb 26 2026 09:47:36 GMT-0600 (Central Standard Time),470418.89999997616,053_o_m_n_a.png,I,z,1955,10,2,2710.599999964237,467708.3000000119,8078,NNB,A,8
4,prac,1,0.0,2-Back,0.0,m,Thu Feb 26 2026 09:47:36 GMT-0600 (Central Standard Time),473150.09999996424,063_y_f_n_a.png,I,z,1918,11,2,2724.599999964237,470425.5,8078,NNB,A,9
4,prac,1,0.0,2-Back,0.0,m,Thu Feb 26 2026 09:47:36 GMT-0600 (Central Standard Time),475932.5,045_m_m_n_a.png,I,None,2009,12,2,2776.100000023842,473156.39999997616,8078,NNB,A,10
0,prac,2,0.0,2-Back,,,Thu Feb 26 2026 09:47:36 GMT-0600 (Central Standard Time),475932.5,008_y_m_n_a.png,I,a,9112,1,2,2776.100000023842,473156.39999997616,8078,NNB,A,0
0,prac,2,0.0,2-Back,,,Thu Feb 26 2026 09:47:36 GMT-0600 (Central Standard Time),475932.5,043_m_f_n_a.png,I,a,9112,2,2,2776.100000023842,473156.39999997616,8078,NNB,A,0
1,prac,2,1.0,2-Back,1.0,m,Thu Feb 26 2026 09:47:36 GMT-0600 (Central Standard Time),492144.09999996424,046_o_m_n_a.png,I,m,1200,3,2,1975.8999999761581,490168.1999999881,8078,NNB,A,1
1,prac,2,0.0,2-Back,0.0,m,Thu Feb 26 2026 09:47:36 GMT-0600 (Central Standard Time),494793.3000000119,047_o_f_n_a.png,I,z,1865,4,2,2642.600000023842,492150.6999999881,8078,NNB,A,2
1,prac,2,0.0,2-Back,0.0,z,Thu Feb 26 2026 09:47:36 GMT-0600 (Central Standard Time),497575.89999997616,046_o_m_n_a.png,I,None,2010,5,2,2776.800000011921,494799.09999996424,8078,NNB,A,3
2,prac,2,1.0,2-Back,1.0,z,Thu Feb 26 2026 09:47:36 GMT-0600 (Central Standard Time),499625.3000000119,047_o_f_n_a.png,I,z,1273,6,2,2042.9000000357628,497582.39999997616,8078,NNB,A,4
3,prac,2,0.0,2-Back,1.0,m,Thu Feb 26 2026 09:47:36 GMT-0600 (Central Standard Time),501674.5,045_m_m_n_a.png,I,m,1265,7,2,2043.0,499631.5,8078,NNB,A,5
4,prac,2,0.0,2-Back,1.0,m,Thu Feb 26 2026 09:47:36 GMT-0600 (Central Standard Time),503757.09999996424,053_o_m_n_a.png,I,m,1305,8,2,2076.899999976158,501680.1999999881,8078,NNB,A,6
5,prac,2,0.0,2-Back,1.0,m,Thu Feb 26 2026 09:47:36 GMT-0600 (Central Standard Time),505673.3000000119,010_y_f_n_a.png,I,m,1133,9,2,1909.800000011921,503763.5,8078,NNB,A,7
6,prac,2,1.0,2-Back,1.0,z,Thu Feb 26 2026 09:47:36 GMT-0600 (Central Standard Time),507406.1999999881,053_o_m_n_a.png,I,z,953,10,2,1726.300000011921,505679.89999997616,8078,NNB,A,8
6,prac,2,0.0,2-Back,0.0,m,Thu Feb 26 2026 09:47:36 GMT-0600 (Central Standard Time),509872.0,063_y_f_n_a.png,I,z,1645,11,2,2460.100000023842,507411.89999997616,8078,NNB,A,9
6,prac,2,0.0,2-Back,0.0,m,Thu Feb 26 2026 09:47:36 GMT-0600 (Central Standard Time),512654.39999997616,045_m_m_n_a.png,I,None,2009,12,2,2776.099999964237,509878.3000000119,8078,NNB,A,10
0,test,1,0.0,2-Back,,,Thu Feb 26 2026 09:47:36 GMT-0600 (Central Standard Time),512654.39999997616,041_y_m_n_a.png,I,space,856,1,2,2776.099999964237,509878.3000000119,8078,NNB,A,0
0,test,1,0.0,2-Back,,,Thu Feb 26 2026 09:47:36 GMT-0600 (Central Standard Time),512654.39999997616,041_y_m_n_a.png,I,space,856,2,2,2776.099999964237,509878.3000000119,8078,NNB,A,0
1,test,1,0.0,2-Back,1.0,m,Thu Feb 26 2026 09:47:36 GMT-0600 (Central Standard Time),528250.8000000119,047_o_f_n_a.png,I,m,1331,3,2,2347.0,525903.8000000119,8078,NNB,A,1
2,test,1,0.0,2-Back,1.0,m,Thu Feb 26 2026 09:47:36 GMT-0600 (Central Standard Time),530548.8000000119,058_m_m_n_a.png,I,m,1270,4,2,2294.400000035763,528254.3999999762,8078,NNB,A,2
3,test,1,1.0,2-Back,1.0,z,Thu Feb 26 2026 09:47:36 GMT-0600 (Central Standard Time),532677.8999999762,047_o_f_n_a.png,I,z,966,5,2,2125.5,530552.3999999762,8078,NNB,A,3
4,test,1,0.0,2-Back,1.0,m,Thu Feb 26 2026 09:47:36 GMT-0600 (Central Standard Time),534730.8000000119,063_y_f_n_a.png,I,m,1020,6,2,2048.7000000476837,532682.0999999642,8078,NNB,A,4
4,test,1,0.0,2-Back,0.0,m,Thu Feb 26 2026 09:47:36 GMT-0600 (Central Standard Time),536880.1999999881,058_m_m_n_a.png,I,z,1117,7,2,2145.5,534734.6999999881,8078,NNB,A,5
5,test,1,1.0,2-Back,1.0,z,Thu Feb 26 2026 09:47:36 GMT-0600 (Central Standard Time),539429.3000000119,063_y_f_n_a.png,I,z,1526,8,2,2545.300000011921,536884.0,8078,NNB,A,6
6,test,1,0.0,2-Back,1.0,m,Thu Feb 26 2026 09:47:36 GMT-0600 (Central Standard Time),541512.0999999642,008_y_m_n_a.png,I,m,1058,9,2,2079.2999999523163,539432.8000000119,8078,NNB,A,7
7,test,1,0.0,2-Back,1.0,m,Thu Feb 26 2026 09:47:36 GMT-0600 (Central Standard Time),544277.8000000119,044_o_f_n_a.png,I,m,1735,10,2,2761.600000023842,541516.1999999881,8078,NNB,A,8
8,test,1,1.0,2-Back,1.0,z,Thu Feb 26 2026 09:47:36 GMT-0600 (Central Standard Time),546177.0999999642,008_y_m_n_a.png,I,z,875,11,2,1895.699999988079,544281.3999999762,8078,NNB,A,9
9,test,1,0.0,2-Back,1.0,m,Thu Feb 26 2026 09:47:36 GMT-0600 (Central Standard Time),548427.6999999881,043_m_f_n_a.png,I,m,1230,12,2,2246.699999988079,546181.0,8078,NNB,A,10
9,test,1,0.0,2-Back,0.0,m,Thu Feb 26 2026 09:47:36 GMT-0600 (Central Standard Time),550875.3999999762,043_m_f_n_a.png,I,z,1421,13,2,2443.800000011921,548431.5999999642,8078,NNB,A,11
10,test,1,0.0,2-Back,1.0,m,Thu Feb 26 2026 09:47:36 GMT-0600 (Central Standard Time),553091.5999999642,046_o_m_n_a.png,I,m,1197,14,2,2213.0,550878.5999999642,8078,NNB,A,12
11,test,1,0.0,2-Back,1.0,m,Thu Feb 26 2026 09:47:36 GMT-0600 (Central Standard Time),555274.0999999642,044_o_f_n_a.png,I,m,1164,15,2,2178.099999964237,553096.0,8078,NNB,A,13
11,test,1,1.0,2-Back,0.0,z,Thu Feb 26 2026 09:47:36 GMT-0600 (Central Standard Time),558073.5999999642,046_o_m_n_a.png,I,m,1773,16,2,2796.199999988079,555277.3999999762,8078,NNB,A,14
12,test,1,0.0,2-Back,1.0,m,Thu Feb 26 2026 09:47:36 GMT-0600 (Central Standard Time),560922.3000000119,050_m_f_n_a.png,I,m,1822,17,2,2844.600000023842,558077.6999999881,8078,NNB,A,15
13,test,1,0.0,2-Back,1.0,m,Thu Feb 26 2026 09:47:36 GMT-0600 (Central Standard Time),563571.8000000119,045_m_m_n_a.png,I,m,1622,18,2,2645.2000000476837,560926.5999999642,8078,NNB,A,16
0,test,2,0.0,2-Back,,,Thu Feb 26 2026 09:47:36 GMT-0600 (Central Standard Time),563571.8000000119,045_m_m_n_a.png,I,space,1957,1,2,2645.2000000476837,560926.5999999642,8078,NNB,A,0
0,test,2,0.0,2-Back,,,Thu Feb 26 2026 09:47:36 GMT-0600 (Central Standard Time),563571.8000000119,010_y_f_n_a.png,I,space,1957,2,2,2645.2000000476837,560926.5999999642,8078,NNB,A,0
1,test,2,1.0,2-Back,1.0,z,Thu Feb 26 2026 09:47:36 GMT-0600 (Central Standard Time),572885.3999999762,045_m_m_n_a.png,I,z,1220,3,2,2244.099999964237,570641.3000000119,8078,NNB,A,1
1,test,2,0.0,2-Back,0.0,m,Thu Feb 26 2026 09:47:36 GMT-0600 (Central Standard Time),575918.0,050_m_f_n_a.png,I,None,2016,4,2,3027.300000011921,572890.6999999881,8078,NNB,A,2
1,test,2,0.0,2-Back,0.0,m,Thu Feb 26 2026 09:47:36 GMT-0600 (Central Standard Time),577833.6999999881,010_y_f_n_a.png,I,z,899,5,2,1912.1000000238419,575921.5999999642,8078,NNB,A,3
1,test,2,0.0,2-Back,0.0,m,Thu Feb 26 2026 09:47:36 GMT-0600 (Central Standard Time),580866.0,046_o_m_n_a.png,I,None,2016,6,2,3028.300000011921,577837.6999999881,8078,NNB,A,4
2,test,2,0.0,2-Back,1.0,m,Thu Feb 26 2026 09:47:36 GMT-0600 (Central Standard Time),583398.8999999762,063_y_f_n_a.png,I,m,1509,7,2,2529.199999988079,580869.6999999881,8078,NNB,A,5
3,test,2,1.0,2-Back,1.0,z,Thu Feb 26 2026 09:47:36 GMT-0600 (Central Standard Time),585348.1999999881,046_o_m_n_a.png,I,z,921,8,2,1945.3999999761581,583402.8000000119,8078,NNB,A,6
4,test,2,0.0,2-Back,1.0,m,Thu Feb 26 2026 09:47:36 GMT-0600 (Central Standard Time),587381.1999999881,008_y_m_n_a.png,I,m,1004,9,2,2029.199999988079,585352.0,8078,NNB,A,7
4,test,2,0.0,2-Back,0.0,m,Thu Feb 26 2026 09:47:36 GMT-0600 (Central Standard Time),589613.8000000119,008_y_m_n_a.png,I,z,1204,10,2,2228.600000023842,587385.1999999881,8078,NNB,A,8
4,test,2,0.0,2-Back,0.0,m,Thu Feb 26 2026 09:47:36 GMT-0600 (Central Standard Time),592646.0,043_m_f_n_a.png,I,None,2016,11,2,3028.199999988079,589617.8000000119,8078,NNB,A,9
5,test,2,0.0,2-Back,1.0,m,Thu Feb 26 2026 09:47:36 GMT-0600 (Central Standard Time),595345.3999999762,010_y_f_n_a.png,I,m,1666,12,2,2695.599999964237,592649.8000000119,8078,NNB,A,10
6,test,2,1.0,2-Back,1.0,z,Thu Feb 26 2026 09:47:36 GMT-0600 (Central Standard Time),597461.5,043_m_f_n_a.png,I,z,1087,13,2,2112.699999988079,595348.8000000119,8078,NNB,A,11
7,test,2,0.0,2-Back,1.0,m,Thu Feb 26 2026 09:47:36 GMT-0600 (Central Standard Time),599843.8000000119,053_o_m_n_a.png,I,m,1362,14,2,2379.400000035763,597464.3999999762,8078,NNB,A,12
7,test,2,0.0,2-Back,0.0,m,Thu Feb 26 2026 09:47:36 GMT-0600 (Central Standard Time),602126.1999999881,053_o_m_n_a.png,I,z,1261,15,2,2278.699999988079,599847.5,8078,NNB,A,13
7,test,2,0.0,2-Back,0.0,m,Thu Feb 26 2026 09:47:36 GMT-0600 (Central Standard Time),605242.8999999762,044_o_f_n_a.png,I,None,2016,16,2,3113.300000011921,602129.5999999642,8078,NNB,A,14
8,test,2,0.0,2-Back,1.0,m,Thu Feb 26 2026 09:47:36 GMT-0600 (Central Standard Time),607707.8000000119,058_m_m_n_a.png,I,m,1439,17,2,2461.300000011921,605246.5,8078,NNB,A,15
9,test,2,1.0,2-Back,1.0,z,Thu Feb 26 2026 09:47:36 GMT-0600 (Central Standard Time),609607.3000000119,044_o_f_n_a.png,I,z,867,18,2,1896.1000000238419,607711.1999999881,8078,NNB,A,16
0,test,3,1.0,2-Back,,,Thu Feb 26 2026 09:47:36 GMT-0600 (Central Standard Time),609607.3000000119,041_y_m_n_a.png,I,space,1192,1,2,1896.1000000238419,607711.1999999881,8078,NNB,A,0
0,test,3,1.0,2-Back,,,Thu Feb 26 2026 09:47:36 GMT-0600 (Central Standard Time),609607.3000000119,041_y_m_n_a.png,I,space,1192,2,2,1896.1000000238419,607711.1999999881,8078,NNB,A,0
0,test,3,0.0,2-Back,0.0,m,Thu Feb 26 2026 09:47:36 GMT-0600 (Central Standard Time),618905.5,044_o_f_n_a.png,I,None,2016,3,2,3029.300000011921,615876.1999999881,8078,NNB,A,1
1,test,3,0.0,2-Back,1.0,m,Thu Feb 26 2026 09:47:36 GMT-0600 (Central Standard Time),621636.8000000119,045_m_m_n_a.png,I,m,1703,4,2,2727.600000023842,618909.1999999881,8078,NNB,A,2
2,test,3,1.0,2-Back,1.0,z,Thu Feb 26 2026 09:47:36 GMT-0600 (Central Standard Time),623636.3999999762,044_o_f_n_a.png,I,z,971,5,2,1995.8999999761581,621640.5,8078,NNB,A,3
3,test,3,0.0,2-Back,1.0,m,Thu Feb 26 2026 09:47:36 GMT-0600 (Central Standard Time),625869.0,008_y_m_n_a.png,I,m,1211,6,2,2229.199999988079,623639.8000000119,8078,NNB,A,4
3,test,3,0.0,2-Back,0.0,m,Thu Feb 26 2026 09:47:36 GMT-0600 (Central Standard Time),627985.0999999642,045_m_m_n_a.png,I,z,1041,7,2,2111.699999988079,625873.3999999762,8078,NNB,A,5
4,test,3,1.0,2-Back,1.0,z,Thu Feb 26 2026 09:47:36 GMT-0600 (Central Standard Time),630300.8000000119,008_y_m_n_a.png,I,z,1286,8,2,2312.300000011921,627988.5,8078,NNB,A,6
5,test,3,0.0,2-Back,1.0,m,Thu Feb 26 2026 09:47:36 GMT-0600 (Central Standard Time),632234.6999999881,010_y_f_n_a.png,I,m,915,9,2,1930.699999988079,630304.0,8078,NNB,A,7
6,test,3,0.0,2-Back,1.0,m,Thu Feb 26 2026 09:47:36 GMT-0600 (Central Standard Time),635165.8999999762,058_m_m_n_a.png,I,m,1902,10,2,2927.5,632238.3999999762,8078,NNB,A,8
7,test,3,1.0,2-Back,1.0,z,Thu Feb 26 2026 09:47:36 GMT-0600 (Central Standard Time),637048.8000000119,010_y_f_n_a.png,I,z,849,11,2,1879.0,635169.8000000119,8078,NNB,A,9
8,test,3,1.0,2-Back,1.0,z,Thu Feb 26 2026 09:47:36 GMT-0600 (Central Standard Time),639231.1999999881,058_m_m_n_a.png,I,z,1159,12,2,2178.899999976158,637052.3000000119,8078,NNB,A,10
8,test,3,0.0,2-Back,0.0,m,Thu Feb 26 2026 09:47:36 GMT-0600 (Central Standard Time),641347.0999999642,044_o_f_n_a.png,I,z,1088,13,2,2111.7999999523163,639235.3000000119,8078,NNB,A,11
9,test,3,0.0,2-Back,1.0,m,Thu Feb 26 2026 09:47:36 GMT-0600 (Central Standard Time),643346.8000000119,050_m_f_n_a.png,I,m,981,14,2,1995.6000000238419,641351.1999999881,8078,NNB,A,12
10,test,3,0.0,2-Back,1.0,m,Thu Feb 26 2026 09:47:36 GMT-0600 (Central Standard Time),645213.0999999642,046_o_m_n_a.png,I,m,845,15,2,1861.3999999761581,643351.6999999881,8078,NNB,A,13
11,test,3,1.0,2-Back,1.0,z,Thu Feb 26 2026 09:47:36 GMT-0600 (Central Standard Time),647278.5999999642,050_m_f_n_a.png,I,z,1033,16,2,2061.599999964237,645217.0,8078,NNB,A,14
12,test,3,0.0,2-Back,1.0,m,Thu Feb 26 2026 09:47:36 GMT-0600 (Central Standard Time),650144.3999999762,047_o_f_n_a.png,I,m,1843,17,2,2862.5,647281.8999999762,8078,NNB,A,15
12,test,3,0.0,2-Back,0.0,m,Thu Feb 26 2026 09:47:36 GMT-0600 (Central Standard Time),652560.8000000119,047_o_f_n_a.png,I,z,1392,18,2,2412.2000000476837,650148.5999999642,8078,NNB,A,16
0,test,4,0.0,2-Back,,,Thu Feb 26 2026 09:47:36 GMT-0600 (Central Standard Time),652560.8000000119,053_o_m_n_a.png,I,space,1128,1,2,2412.2000000476837,650148.5999999642,8078,NNB,A,0
0,test,4,0.0,2-Back,,,Thu Feb 26 2026 09:47:36 GMT-0600 (Central Standard Time),652560.8000000119,063_y_f_n_a.png,I,space,1128,2,2,2412.2000000476837,650148.5999999642,8078,NNB,A,0
1,test,4,1.0,2-Back,1.0,z,Thu Feb 26 2026 09:47:36 GMT-0600 (Central Standard Time),660658.0,053_o_m_n_a.png,I,z,840,3,2,1861.699999988079,658796.3000000119,8078,NNB,A,1
1,test,4,1.0,2-Back,0.0,z,Thu Feb 26 2026 09:47:36 GMT-0600 (Central Standard Time),662640.6999999881,063_y_f_n_a.png,I,m,957,4,2,1979.1000000238419,660661.5999999642,8078,NNB,A,2
1,test,4,0.0,2-Back,0.0,m,Thu Feb 26 2026 09:47:36 GMT-0600 (Central Standard Time),665522.8999999762,044_o_f_n_a.png,I,z,1855,5,2,2878.399999976158,662644.5,8078,NNB,A,3
1,test,4,0.0,2-Back,0.0,m,Thu Feb 26 2026 09:47:36 GMT-0600 (Central Standard Time),667189.3000000119,044_o_f_n_a.png,I,z,636,6,2,1662.2000000476837,665527.0999999642,8078,NNB,A,4
2,test,4,0.0,2-Back,1.0,m,Thu Feb 26 2026 09:47:36 GMT-0600 (Central Standard Time),669188.6999999881,043_m_f_n_a.png,I,m,971,7,2,1995.3999999761581,667193.3000000119,8078,NNB,A,5
3,test,4,0.0,2-Back,1.0,m,Thu Feb 26 2026 09:47:36 GMT-0600 (Central Standard Time),671054.6999999881,008_y_m_n_a.png,I,m,835,8,2,1862.3999999761581,669192.3000000119,8078,NNB,A,6
4,test,4,1.0,2-Back,1.0,z,Thu Feb 26 2026 09:47:36 GMT-0600 (Central Standard Time),672970.5,043_m_f_n_a.png,I,z,890,9,2,1911.800000011921,671058.6999999881,8078,NNB,A,7
5,test,4,0.0,2-Back,1.0,m,Thu Feb 26 2026 09:47:36 GMT-0600 (Central Standard Time),675086.8000000119,058_m_m_n_a.png,I,m,979,10,2,2112.900000035763,672973.8999999762,8078,NNB,A,8
5,test,4,0.0,2-Back,0.0,m,Thu Feb 26 2026 09:47:36 GMT-0600 (Central Standard Time),677036.1999999881,008_y_m_n_a.png,I,z,921,11,2,1945.3999999761581,675090.8000000119,8078,NNB,A,9
6,test,4,0.0,2-Back,1.0,m,Thu Feb 26 2026 09:47:36 GMT-0600 (Central Standard Time),679018.6999999881,047_o_f_n_a.png,I,m,964,12,2,1978.699999988079,677040.0,8078,NNB,A,10
7,test,4,0.0,2-Back,1.0,m,Thu Feb 26 2026 09:47:36 GMT-0600 (Central Standard Time),681301.3999999762,041_y_m_n_a.png,I,m,1260,13,2,2279.300000011921,679022.0999999642,8078,NNB,A,11
8,test,4,1.0,2-Back,1.0,z,Thu Feb 26 2026 09:47:36 GMT-0600 (Central Standard Time),683084.3000000119,047_o_f_n_a.png,I,z,754,14,2,1779.0,681305.3000000119,8078,NNB,A,12
9,test,4,1.0,2-Back,1.0,z,Thu Feb 26 2026 09:47:36 GMT-0600 (Central Standard Time),685200.3000000119,041_y_m_n_a.png,I,z,1092,15,2,2111.400000035763,683088.8999999762,8078,NNB,A,13
10,test,4,0.0,2-Back,1.0,m,Thu Feb 26 2026 09:47:36 GMT-0600 (Central Standard Time),687266.5,045_m_m_n_a.png,I,m,1039,16,2,2061.900000035763,685204.5999999642,8078,NNB,A,14
11,test,4,0.0,2-Back,1.0,m,Thu Feb 26 2026 09:47:36 GMT-0600 (Central Standard Time),689482.3999999762,050_m_f_n_a.png,I,m,1189,17,2,2212.300000011921,687270.0999999642,8078,NNB,A,15
12,test,4,1.0,2-Back,1.0,z,Thu Feb 26 2026 09:47:36 GMT-0600 (Central Standard Time),691382.0,045_m_m_n_a.png,I,z,877,18,2,1896.199999988079,689485.8000000119,8078,NNB,A,16
0,test,5,1.0,2-Back,,,Thu Feb 26 2026 09:47:36 GMT-0600 (Central Standard Time),691382.0,041_y_m_n_a.png,I,space,1210,1,2,1896.199999988079,689485.8000000119,8078,NNB,A,0
0,test,5,1.0,2-Back,,,Thu Feb 26 2026 09:47:36 GMT-0600 (Central Standard Time),691382.0,050_m_f_n_a.png,I,space,1210,2,2,1896.199999988079,689485.8000000119,8078,NNB,A,0
1,test,5,1.0,2-Back,1.0,z,Thu Feb 26 2026 09:47:36 GMT-0600 (Central Standard Time),699462.5,041_y_m_n_a.png,I,z,752,3,2,1782.300000011921,697680.1999999881,8078,NNB,A,1
1,test,5,1.0,2-Back,0.0,z,Thu Feb 26 2026 09:47:36 GMT-0600 (Central Standard Time),701911.8000000119,050_m_f_n_a.png,I,m,1416,4,2,2445.900000035763,699465.8999999762,8078,NNB,A,2
2,test,5,0.0,2-Back,1.0,m,Thu Feb 26 2026 09:47:36 GMT-0600 (Central Standard Time),703928.0999999642,047_o_f_n_a.png,I,m,993,5,2,2011.0,701917.0999999642,8078,NNB,A,3
2,test,5,0.0,2-Back,0.0,m,Thu Feb 26 2026 09:47:36 GMT-0600 (Central Standard Time),706327.3000000119,041_y_m_n_a.png,I,z,1377,6,2,2394.7000000476837,703932.5999999642,8078,NNB,A,4
3,test,5,0.0,2-Back,1.0,m,Thu Feb 26 2026 09:47:36 GMT-0600 (Central Standard Time),708343.0,010_y_f_n_a.png,I,m,992,7,2,2011.300000011921,706331.6999999881,8078,NNB,A,5
3,test,5,0.0,2-Back,0.0,m,Thu Feb 26 2026 09:47:36 GMT-0600 (Central Standard Time),710242.5,047_o_f_n_a.png,I,z,880,8,2,1895.699999988079,708346.8000000119,8078,NNB,A,6
4,test,5,1.0,2-Back,1.0,z,Thu Feb 26 2026 09:47:36 GMT-0600 (Central Standard Time),712208.3999999762,010_y_f_n_a.png,I,z,949,9,2,1962.0,710246.3999999762,8078,NNB,A,7
5,test,5,0.0,2-Back,1.0,m,Thu Feb 26 2026 09:47:36 GMT-0600 (Central Standard Time),714124.8000000119,046_o_m_n_a.png,I,m,887,10,2,1912.7000000476837,712212.0999999642,8078,NNB,A,8
6,test,5,0.0,2-Back,1.0,m,Thu Feb 26 2026 09:47:36 GMT-0600 (Central Standard Time),716807.1999999881,043_m_f_n_a.png,I,m,1651,11,2,2679.0,714128.1999999881,8078,NNB,A,9
6,test,5,0.0,2-Back,0.0,m,Thu Feb 26 2026 09:47:36 GMT-0600 (Central Standard Time),718656.5999999642,058_m_m_n_a.png,I,z,817,12,2,1845.8999999761581,716810.6999999881,8078,NNB,A,10
6,test,5,0.0,2-Back,0.0,m,Thu Feb 26 2026 09:47:36 GMT-0600 (Central Standard Time),720456.0999999642,046_o_m_n_a.png,I,z,767,13,2,1795.8999999761581,718660.1999999881,8078,NNB,A,11
7,test,5,1.0,2-Back,1.0,z,Thu Feb 26 2026 09:47:36 GMT-0600 (Central Standard Time),722088.8000000119,058_m_m_n_a.png,I,z,615,14,2,1628.7000000476837,720460.0999999642,8078,NNB,A,12
8,test,5,0.0,2-Back,1.0,m,Thu Feb 26 2026 09:47:36 GMT-0600 (Central Standard Time),724088.1999999881,063_y_f_n_a.png,I,m,975,15,2,1995.5,722092.6999999881,8078,NNB,A,13
9,test,5,0.0,2-Back,1.0,m,Thu Feb 26 2026 09:47:36 GMT-0600 (Central Standard Time),726354.0999999642,053_o_m_n_a.png,I,m,1240,16,2,2262.199999988079,724091.8999999762,8078,NNB,A,14
10,test,5,0.0,2-Back,1.0,m,Thu Feb 26 2026 09:47:36 GMT-0600 (Central Standard Time),728503.3000000119,043_m_f_n_a.png,I,m,1126,17,2,2145.0,726358.3000000119,8078,NNB,A,15
11,test,5,1.0,2-Back,1.0,z,Thu Feb 26 2026 09:47:36 GMT-0600 (Central Standard Time),730203.0,053_o_m_n_a.png,I,z,672,18,2,1696.0,728507.0,8078,NNB,A,16
