block_c,block_dur,condition,countdown,datetime,endtime,list,multichar_response,project,response,response_time,session_number,start_end,starttime,subject_id,task,task_vers,trial
,,,,Wed Aug 20 2025 16:56:44 GMT-0400 (Eastern Daylight Time),,,,I,space,1028,2,,,9019,WL,B,
prac,,0,,Wed Aug 20 2025 16:56:44 GMT-0400 (Eastern Daylight Time),,NA,b,I,b,1982,2,,,9019,WL,B,1.0
prac,,0,,Wed Aug 20 2025 16:56:44 GMT-0400 (Eastern Daylight Time),,NA,bo,I,o,702,2,,,9019,WL,B,1.0
prac,,0,,Wed Aug 20 2025 16:56:44 GMT-0400 (Eastern Daylight Time),,NA,boo,I,o,119,2,,,9019,WL,B,1.0
prac,,0,,Wed Aug 20 2025 16:56:44 GMT-0400 (Eastern Daylight Time),,NA,boos,I,s,41,2,,,9019,WL,B,1.0
prac,,0,,Wed Aug 20 2025 16:56:44 GMT-0400 (Eastern Daylight Time),,NA,boost,I,t,60,2,,,9019,WL,B,1.0
prac,,0,,Wed Aug 20 2025 16:56:44 GMT-0400 (Eastern Daylight Time),,NA,boostenter,I,enter,1146,2,,,9019,WL,B,1.0
1,0.7179999351501465,learn,59282.00006484985,Wed Aug 20 2025 16:56:44 GMT-0400 (Eastern Daylight Time),181015.09999990463,A,s,I,s,688,2,716.0999999046326,180299.0,9019,WL,B,1.0
1,1.6009998321533203,learn,58399.00016784668,Wed Aug 20 2025 16:56:44 GMT-0400 (Eastern Daylight Time),181898.09999990463,A,sh,I,h,861,2,1599.0999999046326,180299.0,9019,WL,B,1.0
1,2.0,learn,58000.0,Wed Aug 20 2025 16:56:44 GMT-0400 (Eastern Daylight Time),182297.80000019073,A,she,I,e,378,2,1998.8000001907349,180299.0,9019,WL,B,1.0
1,2.1499998569488525,learn,57850.00014305115,Wed Aug 20 2025 16:56:44 GMT-0400 (Eastern Daylight Time),182447.7000002861,A,shee,I,e,139,2,2148.7000002861023,180299.0,9019,WL,B,1.0
1,2.500999927520752,learn,57499.00007247925,Wed Aug 20 2025 16:56:44 GMT-0400 (Eastern Daylight Time),182798.09999990463,A,sheet,I,t,325,2,2499.0999999046326,180299.0,9019,WL,B,1.0
1,3.2829999923706055,learn,56717.000007629395,Wed Aug 20 2025 16:56:44 GMT-0400 (Eastern Daylight Time),183580.80000019073,A,sheetenter,I,enter,757,2,3281.800000190735,180299.0,9019,WL,B,1.0
1,4.200999975204468,learn,55799.00002479553,Wed Aug 20 2025 16:56:44 GMT-0400 (Eastern Daylight Time),184498.0,A,g,I,g,906,2,916.5,183581.5,9019,WL,B,2.0
1,4.383999824523926,learn,55616.000175476074,Wed Aug 20 2025 16:56:44 GMT-0400 (Eastern Daylight Time),184681.40000009537,A,gr,I,r,163,2,1099.9000000953674,183581.5,9019,WL,B,2.0
1,4.566999912261963,learn,55433.00008773804,Wed Aug 20 2025 16:56:44 GMT-0400 (Eastern Daylight Time),184864.59999990463,A,gra,I,a,170,2,1283.0999999046326,183581.5,9019,WL,B,2.0
1,4.766999959945679,learn,55233.00004005432,Wed Aug 20 2025 16:56:44 GMT-0400 (Eastern Daylight Time),185064.80000019073,A,gras,I,s,171,2,1483.3000001907349,183581.5,9019,WL,B,2.0
1,4.916999816894531,learn,55083.00018310547,Wed Aug 20 2025 16:56:44 GMT-0400 (Eastern Daylight Time),185214.7000002861,A,grass,I,s,112,2,1633.2000002861023,183581.5,9019,WL,B,2.0
1,5.383999824523926,learn,54616.000175476074,Wed Aug 20 2025 16:56:44 GMT-0400 (Eastern Daylight Time),185680.90000009537,A,grassenter,I,enter,443,2,2099.4000000953674,183581.5,9019,WL,B,2.0
1,5.700999975204468,learn,54299.00002479553,Wed Aug 20 2025 16:56:44 GMT-0400 (Eastern Daylight Time),185998.0,A,a,I,a,295,2,316.59999990463257,185681.40000009537,9019,WL,B,3.0
1,6.016999959945679,learn,53983.00004005432,Wed Aug 20 2025 16:56:44 GMT-0400 (Eastern Daylight Time),186314.7000002861,A,ar,I,r,295,2,633.3000001907349,185681.40000009537,9019,WL,B,3.0
1,6.583999872207642,learn,53416.00012779236,Wed Aug 20 2025 16:56:44 GMT-0400 (Eastern Daylight Time),186881.30000019073,A,arn,I,n,553,2,1199.9000000953674,185681.40000009537,9019,WL,B,3.0
1,7.099999904632568,learn,52900.00009536743,Wed Aug 20 2025 16:56:44 GMT-0400 (Eastern Daylight Time),187397.5,A,arnenter,I,enter,497,2,1716.0999999046326,185681.40000009537,9019,WL,B,3.0
1,8.533999919891357,learn,51466.00008010864,Wed Aug 20 2025 16:56:44 GMT-0400 (Eastern Daylight Time),188831.5,A,s,I,s,1426,2,1433.5999999046326,187397.90000009537,9019,WL,B,4.0
1,8.750999927520752,learn,51249.00007247925,Wed Aug 20 2025 16:56:44 GMT-0400 (Eastern Daylight Time),189047.90000009537,A,st,I,t,196,2,1650.0,187397.90000009537,9019,WL,B,4.0
1,8.934000015258789,learn,51065.99998474121,Wed Aug 20 2025 16:56:44 GMT-0400 (Eastern Daylight Time),189231.59999990463,A,sta,I,a,171,2,1833.6999998092651,187397.90000009537,9019,WL,B,4.0
1,9.151000022888184,learn,50848.99997711182,Wed Aug 20 2025 16:56:44 GMT-0400 (Eastern Daylight Time),189448.2000002861,A,star,I,r,197,2,2050.300000190735,187397.90000009537,9019,WL,B,4.0
1,10.299999952316284,learn,49700.000047683716,Wed Aug 20 2025 16:56:44 GMT-0400 (Eastern Daylight Time),190597.5,A,starenter,I,enter,1132,2,3199.5999999046326,187397.90000009537,9019,WL,B,4.0
1,11.0,learn,49000.0,Wed Aug 20 2025 16:56:44 GMT-0400 (Eastern Daylight Time),191297.90000009537,A,w,I,w,690,2,699.9000000953674,190598.0,9019,WL,B,5.0
1,11.349999904632568,learn,48650.00009536743,Wed Aug 20 2025 16:56:44 GMT-0400 (Eastern Daylight Time),191647.7000002861,A,wi,I,i,329,2,1049.7000002861023,190598.0,9019,WL,B,5.0
1,11.684000015258789,learn,48315.99998474121,Wed Aug 20 2025 16:56:44 GMT-0400 (Eastern Daylight Time),191981.40000009537,A,wif,I,f,308,2,1383.4000000953674,190598.0,9019,WL,B,5.0
1,11.750999927520752,learn,48249.00007247925,Wed Aug 20 2025 16:56:44 GMT-0400 (Eastern Daylight Time),192048.90000009537,A,wife,I,e,56,2,1450.9000000953674,190598.0,9019,WL,B,5.0
1,12.182999849319458,learn,47817.00015068054,Wed Aug 20 2025 16:56:44 GMT-0400 (Eastern Daylight Time),192480.90000009537,A,wifeenter,I,enter,419,2,1882.9000000953674,190598.0,9019,WL,B,5.0
1,12.934000015258789,learn,47065.99998474121,Wed Aug 20 2025 16:56:44 GMT-0400 (Eastern Daylight Time),193231.0,A,p,I,p,726,2,749.5999999046326,192481.40000009537,9019,WL,B,6.0
1,13.133999824523926,learn,46866.000175476074,Wed Aug 20 2025 16:56:44 GMT-0400 (Eastern Daylight Time),193431.40000009537,A,pu,I,u,183,2,950.0,192481.40000009537,9019,WL,B,6.0
1,13.383999824523926,learn,46616.000175476074,Wed Aug 20 2025 16:56:44 GMT-0400 (Eastern Daylight Time),193681.5,A,pup,I,p,238,2,1200.0999999046326,192481.40000009537,9019,WL,B,6.0
1,13.916999816894531,learn,46083.00018310547,Wed Aug 20 2025 16:56:44 GMT-0400 (Eastern Daylight Time),194214.2000002861,A,pupi,I,i,514,2,1732.8000001907349,192481.40000009537,9019,WL,B,6.0
1,14.217000007629395,learn,45782.999992370605,Wed Aug 20 2025 16:56:44 GMT-0400 (Eastern Daylight Time),194514.7000002861,A,pupil,I,l,290,2,2033.3000001907349,192481.40000009537,9019,WL,B,6.0
1,14.799999952316284,learn,45200.000047683716,Wed Aug 20 2025 16:56:44 GMT-0400 (Eastern Daylight Time),195097.5,A,pupilenter,I,enter,561,2,2616.0999999046326,192481.40000009537,9019,WL,B,6.0
1,15.083999872207642,learn,44916.00012779236,Wed Aug 20 2025 16:56:44 GMT-0400 (Eastern Daylight Time),195381.40000009537,A,c,I,c,270,2,283.5,195097.90000009537,9019,WL,B,7.0
1,15.349999904632568,learn,44650.00009536743,Wed Aug 20 2025 16:56:44 GMT-0400 (Eastern Daylight Time),195647.80000019073,A,ci,I,i,256,2,549.9000000953674,195097.90000009537,9019,WL,B,7.0
1,15.616999864578247,learn,44383.00013542175,Wed Aug 20 2025 16:56:44 GMT-0400 (Eastern Daylight Time),195914.7000002861,A,cit,I,t,241,2,816.8000001907349,195097.90000009537,9019,WL,B,7.0
1,15.833999872207642,learn,44166.00012779236,Wed Aug 20 2025 16:56:44 GMT-0400 (Eastern Daylight Time),196131.40000009537,A,city,I,y,203,2,1033.5,195097.90000009537,9019,WL,B,7.0
1,17.616999864578247,learn,42383.00013542175,Wed Aug 20 2025 16:56:44 GMT-0400 (Eastern Daylight Time),197914.2000002861,A,cityenter,I,enter,1759,2,2816.300000190735,195097.90000009537,9019,WL,B,7.0
1,18.08399987220764,learn,41916.00012779236,Wed Aug 20 2025 16:56:44 GMT-0400 (Eastern Daylight Time),198381.30000019073,A,c,I,c,445,2,466.7000002861023,197914.59999990463,9019,WL,B,8.0
1,18.250999927520752,learn,41749.00007247925,Wed Aug 20 2025 16:56:44 GMT-0400 (Eastern Daylight Time),198548.0,A,ca,I,a,149,2,633.4000000953674,197914.59999990463,9019,WL,B,8.0
1,18.450999975204468,learn,41549.00002479553,Wed Aug 20 2025 16:56:44 GMT-0400 (Eastern Daylight Time),198747.90000009537,A,cab,I,b,168,2,833.3000001907349,197914.59999990463,9019,WL,B,8.0
1,18.84999990463257,learn,41150.00009536743,Wed Aug 20 2025 16:56:44 GMT-0400 (Eastern Daylight Time),199147.90000009537,A,cabi,I,i,368,2,1233.3000001907349,197914.59999990463,9019,WL,B,8.0
1,19.200000047683716,learn,40799.999952316284,Wed Aug 20 2025 16:56:44 GMT-0400 (Eastern Daylight Time),199498.0,A,cabin,I,n,330,2,1583.4000000953674,197914.59999990463,9019,WL,B,8.0
1,20.316999912261963,learn,39683.00008773804,Wed Aug 20 2025 16:56:44 GMT-0400 (Eastern Daylight Time),200614.2000002861,A,cabinenter,I,enter,1099,2,2699.6000003814697,197914.59999990463,9019,WL,B,8.0
1,24.450999975204468,learn,35549.00002479553,Wed Aug 20 2025 16:56:44 GMT-0400 (Eastern Daylight Time),204748.09999990463,A,w,I,w,4113,2,4133.39999961853,200614.7000002861,9019,WL,B,9.0
1,24.59999990463257,learn,35400.00009536743,Wed Aug 20 2025 16:56:44 GMT-0400 (Eastern Daylight Time),204897.80000019073,A,wi,I,i,134,2,4283.099999904633,200614.7000002861,9019,WL,B,9.0
1,24.66699981689453,learn,35333.00018310547,Wed Aug 20 2025 16:56:44 GMT-0400 (Eastern Daylight Time),204964.30000019073,A,win,I,n,46,2,4349.599999904633,200614.7000002861,9019,WL,B,9.0
1,24.883999824523926,learn,35116.000175476074,Wed Aug 20 2025 16:56:44 GMT-0400 (Eastern Daylight Time),205181.40000009537,A,wind,I,d,192,2,4566.699999809265,200614.7000002861,9019,WL,B,9.0
1,24.983999967575073,learn,35016.00003242493,Wed Aug 20 2025 16:56:44 GMT-0400 (Eastern Daylight Time),205281.40000009537,A,windo,I,o,87,2,4666.699999809265,200614.7000002861,9019,WL,B,9.0
1,25.133999824523926,learn,34866.000175476074,Wed Aug 20 2025 16:56:44 GMT-0400 (Eastern Daylight Time),205431.5,A,window,I,w,132,2,4816.799999713898,200614.7000002861,9019,WL,B,9.0
1,25.932999849319458,learn,34067.00015068054,Wed Aug 20 2025 16:56:44 GMT-0400 (Eastern Daylight Time),206230.80000019073,A,windowenter,I,enter,780,2,5616.099999904633,200614.7000002861,9019,WL,B,9.0
1,35.26699995994568,learn,24733.00004005432,Wed Aug 20 2025 16:56:44 GMT-0400 (Eastern Daylight Time),215564.80000019073,A,c,I,c,9314,2,9333.700000286102,206231.09999990463,9019,WL,B,10.0
1,35.41699981689453,learn,24583.00018310547,Wed Aug 20 2025 16:56:44 GMT-0400 (Eastern Daylight Time),215714.7000002861,A,ca,I,a,137,2,9483.60000038147,206231.09999990463,9019,WL,B,10.0
1,35.53399991989136,learn,24466.000080108643,Wed Aug 20 2025 16:56:44 GMT-0400 (Eastern Daylight Time),215831.40000009537,A,cab,I,b,98,2,9600.300000190735,206231.09999990463,9019,WL,B,10.0
1,35.73399996757507,learn,24266.000032424927,Wed Aug 20 2025 16:56:44 GMT-0400 (Eastern Daylight Time),216031.40000009537,A,cabi,I,i,165,2,9800.300000190735,206231.09999990463,9019,WL,B,10.0
1,35.86699986457825,learn,24133.000135421753,Wed Aug 20 2025 16:56:44 GMT-0400 (Eastern Daylight Time),216164.30000019073,A,cabin,I,n,118,2,9933.200000286102,206231.09999990463,9019,WL,B,10.0
1,36.5,learn,23500.0,Wed Aug 20 2025 16:56:44 GMT-0400 (Eastern Daylight Time),216797.5,A,cabinenter,I,enter,607,2,10566.400000095367,206231.09999990463,9019,WL,B,10.0
1,39.34999990463257,learn,20650.00009536743,Wed Aug 20 2025 16:56:44 GMT-0400 (Eastern Daylight Time),219647.7000002861,A,a,I,a,2842,2,2849.7000002861023,216798.0,9019,WL,B,11.0
1,39.43400001525879,learn,20565.99998474121,Wed Aug 20 2025 16:56:44 GMT-0400 (Eastern Daylight Time),219731.40000009537,A,ar,I,r,71,2,2933.4000000953674,216798.0,9019,WL,B,11.0
1,39.56699991226196,learn,20433.000087738037,Wed Aug 20 2025 16:56:44 GMT-0400 (Eastern Daylight Time),219864.7000002861,A,arn,I,n,114,2,3066.7000002861023,216798.0,9019,WL,B,11.0
1,41.34999990463257,learn,18650.00009536743,Wed Aug 20 2025 16:56:44 GMT-0400 (Eastern Daylight Time),221647.80000019073,A,ar,I,backspace,1772,2,4849.800000190735,216798.0,9019,WL,B,11.0
1,41.799999952316284,learn,18200.000047683716,Wed Aug 20 2025 16:56:44 GMT-0400 (Eastern Daylight Time),222097.90000009537,A,arm,I,m,429,2,5299.900000095367,216798.0,9019,WL,B,11.0
1,43.25,learn,16750.0,Wed Aug 20 2025 16:56:44 GMT-0400 (Eastern Daylight Time),223547.5,A,armenter,I,enter,1426,2,6749.5,216798.0,9019,WL,B,11.0
1,60.01699995994568,learn,-16.99995994567871,Wed Aug 20 2025 16:56:44 GMT-0400 (Eastern Daylight Time),240314.80000019073,A,None,I,None,16759,2,16766.900000095367,223547.90000009537,9019,WL,B,12.0
2,0.9839999675750732,learn,59016.00003242493,Wed Aug 20 2025 16:56:44 GMT-0400 (Eastern Daylight Time),312848.0,A,s,I,s,973,2,982.9000000953674,311865.09999990463,9019,WL,B,1.0
2,1.2999999523162842,learn,58700.000047683716,Wed Aug 20 2025 16:56:44 GMT-0400 (Eastern Daylight Time),313164.80000019073,A,sh,I,h,292,2,1299.7000002861023,311865.09999990463,9019,WL,B,1.0
2,1.9170000553131104,learn,58082.99994468689,Wed Aug 20 2025 16:56:44 GMT-0400 (Eastern Daylight Time),313781.40000009537,A,she,I,e,601,2,1916.3000001907349,311865.09999990463,9019,WL,B,1.0
2,2.184000015258789,learn,57815.99998474121,Wed Aug 20 2025 16:56:44 GMT-0400 (Eastern Daylight Time),314047.90000009537,A,shee,I,e,256,2,2182.800000190735,311865.09999990463,9019,WL,B,1.0
2,2.5999999046325684,learn,57400.00009536743,Wed Aug 20 2025 16:56:44 GMT-0400 (Eastern Daylight Time),314464.59999990463,A,sheet,I,t,405,2,2599.5,311865.09999990463,9019,WL,B,1.0
2,3.2170000076293945,learn,56782.999992370605,Wed Aug 20 2025 16:56:44 GMT-0400 (Eastern Daylight Time),315080.90000009537,A,sheetenter,I,enter,598,2,3215.800000190735,311865.09999990463,9019,WL,B,1.0
2,3.8340001106262207,learn,56165.99988937378,Wed Aug 20 2025 16:56:44 GMT-0400 (Eastern Daylight Time),315698.30000019073,A,g,I,g,607,2,617.0,315081.30000019073,9019,WL,B,2.0
2,4.117000102996826,learn,55882.999897003174,Wed Aug 20 2025 16:56:44 GMT-0400 (Eastern Daylight Time),315981.5,A,gr,I,r,254,2,900.1999998092651,315081.30000019073,9019,WL,B,2.0
2,4.384000062942505,learn,55615.999937057495,Wed Aug 20 2025 16:56:44 GMT-0400 (Eastern Daylight Time),316248.2000002861,A,gra,I,a,246,2,1166.9000000953674,315081.30000019073,9019,WL,B,2.0
2,4.650000095367432,learn,55349.99990463257,Wed Aug 20 2025 16:56:44 GMT-0400 (Eastern Daylight Time),316514.80000019073,A,gras,I,s,254,2,1433.5,315081.30000019073,9019,WL,B,2.0
2,5.2170000076293945,learn,54782.999992370605,Wed Aug 20 2025 16:56:44 GMT-0400 (Eastern Daylight Time),317081.40000009537,A,grass,I,s,547,2,2000.0999999046326,315081.30000019073,9019,WL,B,2.0
2,6.349999904632568,learn,53650.00009536743,Wed Aug 20 2025 16:56:44 GMT-0400 (Eastern Daylight Time),318214.2000002861,A,grassenter,I,enter,1117,2,3132.9000000953674,315081.30000019073,9019,WL,B,2.0
2,6.634000062942505,learn,53365.999937057495,Wed Aug 20 2025 16:56:44 GMT-0400 (Eastern Daylight Time),318497.90000009537,A,d,I,d,274,2,283.30000019073486,318214.59999990463,9019,WL,B,3.0
2,6.983000040054321,learn,53016.99995994568,Wed Aug 20 2025 16:56:44 GMT-0400 (Eastern Daylight Time),318847.80000019073,A,do,I,o,340,2,633.2000002861023,318214.59999990463,9019,WL,B,3.0
2,7.117000102996826,learn,52882.999897003174,Wed Aug 20 2025 16:56:44 GMT-0400 (Eastern Daylight Time),318981.40000009537,A,doo,I,o,119,2,766.8000001907349,318214.59999990463,9019,WL,B,3.0
2,7.334000110626221,learn,52665.99988937378,Wed Aug 20 2025 16:56:44 GMT-0400 (Eastern Daylight Time),319198.09999990463,A,door,I,r,184,2,983.5,318214.59999990463,9019,WL,B,3.0
2,7.799999952316284,learn,52200.000047683716,Wed Aug 20 2025 16:56:44 GMT-0400 (Eastern Daylight Time),319664.30000019073,A,doorenter,I,enter,455,2,1449.7000002861023,318214.59999990463,9019,WL,B,3.0
2,8.400000095367432,learn,51599.99990463257,Wed Aug 20 2025 16:56:44 GMT-0400 (Eastern Daylight Time),320264.80000019073,A,a,I,a,584,2,600.2000002861023,319664.59999990463,9019,WL,B,4.0
2,8.700000047683716,learn,51299.999952316284,Wed Aug 20 2025 16:56:44 GMT-0400 (Eastern Daylight Time),320565.0,A,ar,I,r,285,2,900.4000000953674,319664.59999990463,9019,WL,B,4.0
2,9.900000095367432,learn,50099.99990463257,Wed Aug 20 2025 16:56:44 GMT-0400 (Eastern Daylight Time),321764.80000019073,A,arm,I,m,1184,2,2100.2000002861023,319664.59999990463,9019,WL,B,4.0
2,11.900000095367432,learn,48099.99990463257,Wed Aug 20 2025 16:56:44 GMT-0400 (Eastern Daylight Time),323764.40000009537,A,armenter,I,enter,1984,2,4099.800000190735,319664.59999990463,9019,WL,B,4.0
2,12.516999959945679,learn,47483.00004005432,Wed Aug 20 2025 16:56:44 GMT-0400 (Eastern Daylight Time),324381.40000009537,A,s,I,s,596,2,616.6999998092651,323764.7000002861,9019,WL,B,5.0
2,12.83400011062622,learn,47165.99988937378,Wed Aug 20 2025 16:56:44 GMT-0400 (Eastern Daylight Time),324698.2000002861,A,st,I,t,295,2,933.5,323764.7000002861,9019,WL,B,5.0
2,13.134000062942505,learn,46865.999937057495,Wed Aug 20 2025 16:56:44 GMT-0400 (Eastern Daylight Time),324998.09999990463,A,sta,I,a,282,2,1233.3999996185303,323764.7000002861,9019,WL,B,5.0
2,13.467000007629395,learn,46532.999992370605,Wed Aug 20 2025 16:56:44 GMT-0400 (Eastern Daylight Time),325331.5,A,star,I,r,319,2,1566.7999997138977,323764.7000002861,9019,WL,B,5.0
2,14.299999952316284,learn,45700.000047683716,Wed Aug 20 2025 16:56:44 GMT-0400 (Eastern Daylight Time),326164.40000009537,A,starenter,I,enter,817,2,2399.699999809265,323764.7000002861,9019,WL,B,5.0
2,16.16700005531311,learn,43832.99994468689,Wed Aug 20 2025 16:56:44 GMT-0400 (Eastern Daylight Time),328031.7000002861,A,w,I,w,1860,2,1867.0,326164.7000002861,9019,WL,B,6.0
2,16.33400011062622,learn,43665.99988937378,Wed Aug 20 2025 16:56:44 GMT-0400 (Eastern Daylight Time),328198.0,A,wi,I,i,146,2,2033.2999997138977,326164.7000002861,9019,WL,B,6.0
2,16.51699995994568,learn,43483.00004005432,Wed Aug 20 2025 16:56:44 GMT-0400 (Eastern Daylight Time),328381.5,A,wif,I,f,153,2,2216.7999997138977,326164.7000002861,9019,WL,B,6.0
2,16.717000007629395,learn,43282.999992370605,Wed Aug 20 2025 16:56:44 GMT-0400 (Eastern Daylight Time),328581.5,A,wife,I,e,185,2,2416.7999997138977,326164.7000002861,9019,WL,B,6.0
2,17.967000007629395,learn,42032.999992370605,Wed Aug 20 2025 16:56:44 GMT-0400 (Eastern Daylight Time),329830.90000009537,A,wifeenter,I,enter,1228,2,3666.199999809265,326164.7000002861,9019,WL,B,6.0
2,18.717000007629395,learn,41282.999992370605,Wed Aug 20 2025 16:56:44 GMT-0400 (Eastern Daylight Time),330581.5,A,c,I,c,738,2,750.1999998092651,329831.30000019073,9019,WL,B,7.0
2,18.950000047683716,learn,41049.999952316284,Wed Aug 20 2025 16:56:44 GMT-0400 (Eastern Daylight Time),330814.30000019073,A,ca,I,a,208,2,983.0,329831.30000019073,9019,WL,B,7.0
2,19.134000062942505,learn,40865.999937057495,Wed Aug 20 2025 16:56:44 GMT-0400 (Eastern Daylight Time),330998.09999990463,A,cab,I,b,170,2,1166.7999997138977,329831.30000019073,9019,WL,B,7.0
2,19.566999912261963,learn,40433.00008773804,Wed Aug 20 2025 16:56:44 GMT-0400 (Eastern Daylight Time),331431.5,A,cabi,I,i,414,2,1600.1999998092651,329831.30000019073,9019,WL,B,7.0
2,19.783999919891357,learn,40216.00008010864,Wed Aug 20 2025 16:56:44 GMT-0400 (Eastern Daylight Time),331648.09999990463,A,cabin,I,n,190,2,1816.7999997138977,329831.30000019073,9019,WL,B,7.0
2,20.549999952316284,learn,39450.000047683716,Wed Aug 20 2025 16:56:44 GMT-0400 (Eastern Daylight Time),332414.30000019073,A,cabinenter,I,enter,731,2,2583.0,329831.30000019073,9019,WL,B,7.0
2,21.867000102996826,learn,38132.999897003174,Wed Aug 20 2025 16:56:44 GMT-0400 (Eastern Daylight Time),333731.0,A,p,I,p,1305,2,1316.4000000953674,332414.59999990463,9019,WL,B,8.0
2,22.18400001525879,learn,37815.99998474121,Wed Aug 20 2025 16:56:44 GMT-0400 (Eastern Daylight Time),334048.09999990463,A,pu,I,u,293,2,1633.5,332414.59999990463,9019,WL,B,8.0
2,22.467000007629395,learn,37532.999992370605,Wed Aug 20 2025 16:56:44 GMT-0400 (Eastern Daylight Time),334331.5,A,pup,I,p,259,2,1916.9000000953674,332414.59999990463,9019,WL,B,8.0
2,23.34999990463257,learn,36650.00009536743,Wed Aug 20 2025 16:56:44 GMT-0400 (Eastern Daylight Time),335214.90000009537,A,pupi,I,i,857,2,2800.300000190735,332414.59999990463,9019,WL,B,8.0
2,23.66700005531311,learn,36332.99994468689,Wed Aug 20 2025 16:56:44 GMT-0400 (Eastern Daylight Time),335531.5,A,pupil,I,l,295,2,3116.9000000953674,332414.59999990463,9019,WL,B,8.0
2,24.549999952316284,learn,35450.000047683716,Wed Aug 20 2025 16:56:44 GMT-0400 (Eastern Daylight Time),336414.30000019073,A,pupilenter,I,enter,857,2,3999.7000002861023,332414.59999990463,9019,WL,B,8.0
2,25.83400011062622,learn,34165.99988937378,Wed Aug 20 2025 16:56:44 GMT-0400 (Eastern Daylight Time),337698.09999990463,A,l,I,l,1274,2,1283.3999996185303,336414.7000002861,9019,WL,B,9.0
2,26.0,learn,34000.0,Wed Aug 20 2025 16:56:44 GMT-0400 (Eastern Daylight Time),337864.90000009537,A,la,I,a,148,2,1450.1999998092651,336414.7000002861,9019,WL,B,9.0
2,26.18400001525879,learn,33815.99998474121,Wed Aug 20 2025 16:56:44 GMT-0400 (Eastern Daylight Time),338048.2000002861,A,lak,I,k,147,2,1633.5,336414.7000002861,9019,WL,B,9.0
2,26.384000062942505,learn,33615.999937057495,Wed Aug 20 2025 16:56:44 GMT-0400 (Eastern Daylight Time),338248.09999990463,A,lake,I,e,172,2,1833.3999996185303,336414.7000002861,9019,WL,B,9.0
2,27.25,learn,32750.0,Wed Aug 20 2025 16:56:44 GMT-0400 (Eastern Daylight Time),339114.30000019073,A,lakeenter,I,enter,845,2,2699.5999999046326,336414.7000002861,9019,WL,B,9.0
2,27.717000007629395,learn,32282.999992370605,Wed Aug 20 2025 16:56:44 GMT-0400 (Eastern Daylight Time),339581.5,A,f,I,f,446,2,466.90000009536743,339114.59999990463,9019,WL,B,10.0
2,27.84999990463257,learn,32150.00009536743,Wed Aug 20 2025 16:56:44 GMT-0400 (Eastern Daylight Time),339714.80000019073,A,fi,I,i,118,2,600.2000002861023,339114.59999990463,9019,WL,B,10.0
2,28.049999952316284,learn,31950.000047683716,Wed Aug 20 2025 16:56:44 GMT-0400 (Eastern Daylight Time),339914.80000019073,A,fir,I,r,171,2,800.2000002861023,339114.59999990463,9019,WL,B,10.0
2,28.117000102996826,learn,31882.999897003174,Wed Aug 20 2025 16:56:44 GMT-0400 (Eastern Daylight Time),339981.2000002861,A,fire,I,e,42,2,866.6000003814697,339114.59999990463,9019,WL,B,10.0
2,28.532999992370605,learn,31467.000007629395,Wed Aug 20 2025 16:56:44 GMT-0400 (Eastern Daylight Time),340397.59999990463,A,fireenter,I,enter,390,2,1283.0,339114.59999990463,9019,WL,B,10.0
2,29.316999912261963,learn,30683.000087738037,Wed Aug 20 2025 16:56:44 GMT-0400 (Eastern Daylight Time),341181.40000009537,A,w,I,w,763,2,783.5,340397.90000009537,9019,WL,B,11.0
2,30.066999912261963,learn,29933.000087738037,Wed Aug 20 2025 16:56:44 GMT-0400 (Eastern Daylight Time),341931.5,A,wi,I,i,729,2,1533.5999999046326,340397.90000009537,9019,WL,B,11.0
2,30.91700005531311,learn,29082.99994468689,Wed Aug 20 2025 16:56:44 GMT-0400 (Eastern Daylight Time),342781.5,A,win,I,n,817,2,2383.5999999046326,340397.90000009537,9019,WL,B,11.0
2,31.533999919891357,learn,28466.000080108643,Wed Aug 20 2025 16:56:44 GMT-0400 (Eastern Daylight Time),343398.0,A,wind,I,d,598,2,3000.0999999046326,340397.90000009537,9019,WL,B,11.0
2,31.733999967575073,learn,28266.000032424927,Wed Aug 20 2025 16:56:44 GMT-0400 (Eastern Daylight Time),343598.2000002861,A,windo,I,o,176,2,3200.300000190735,340397.90000009537,9019,WL,B,11.0
2,31.93400001525879,learn,28065.99998474121,Wed Aug 20 2025 16:56:44 GMT-0400 (Eastern Daylight Time),343798.0,A,window,I,w,180,2,3400.0999999046326,340397.90000009537,9019,WL,B,11.0
2,33.5,learn,26500.0,Wed Aug 20 2025 16:56:44 GMT-0400 (Eastern Daylight Time),345364.40000009537,A,windowenter,I,enter,1552,2,4966.5,340397.90000009537,9019,WL,B,11.0
2,42.950000047683716,learn,17049.999952316284,Wed Aug 20 2025 16:56:44 GMT-0400 (Eastern Daylight Time),354814.80000019073,A,f,I,f,9428,2,9450.099999904633,345364.7000002861,9019,WL,B,12.0
2,43.049999952316284,learn,16950.000047683716,Wed Aug 20 2025 16:56:44 GMT-0400 (Eastern Daylight Time),354914.80000019073,A,fl,I,l,85,2,9550.099999904633,345364.7000002861,9019,WL,B,12.0
2,43.217000007629395,learn,16782.999992370605,Wed Aug 20 2025 16:56:44 GMT-0400 (Eastern Daylight Time),355081.5,A,flo,I,o,137,2,9716.799999713898,345364.7000002861,9019,WL,B,12.0
2,43.367000102996826,learn,16632.999897003174,Wed Aug 20 2025 16:56:44 GMT-0400 (Eastern Daylight Time),355231.7000002861,A,flow,I,w,132,2,9867.0,345364.7000002861,9019,WL,B,12.0
2,43.450000047683716,learn,16549.999952316284,Wed Aug 20 2025 16:56:44 GMT-0400 (Eastern Daylight Time),355314.80000019073,A,flowe,I,e,69,2,9950.099999904633,345364.7000002861,9019,WL,B,12.0
2,43.532999992370605,learn,16467.000007629395,Wed Aug 20 2025 16:56:44 GMT-0400 (Eastern Daylight Time),355397.90000009537,A,flower,I,r,59,2,10033.199999809265,345364.7000002861,9019,WL,B,12.0
2,43.98300004005432,learn,16016.999959945679,Wed Aug 20 2025 16:56:44 GMT-0400 (Eastern Daylight Time),355847.59999990463,A,flowerenter,I,enter,430,2,10482.89999961853,345364.7000002861,9019,WL,B,12.0
2,60.01699995994568,learn,-16.99995994567871,Wed Aug 20 2025 16:56:44 GMT-0400 (Eastern Daylight Time),371881.5,A,None,I,None,16026,2,16033.5,355848.0,9019,WL,B,13.0
3,0.5499999523162842,learn,59450.000047683716,Wed Aug 20 2025 16:56:44 GMT-0400 (Eastern Daylight Time),442248.09999990463,A,p,I,p,531,2,549.5,441698.59999990463,9019,WL,B,1.0
3,1.1329998970031738,learn,58867.000102996826,Wed Aug 20 2025 16:56:44 GMT-0400 (Eastern Daylight Time),442831.80000019073,A,pi,I,i,573,2,1133.2000002861023,441698.59999990463,9019,WL,B,1.0
3,1.3999998569488525,learn,58600.00014305115,Wed Aug 20 2025 16:56:44 GMT-0400 (Eastern Daylight Time),443098.09999990463,A,pip,I,p,246,2,1399.5,441698.59999990463,9019,WL,B,1.0
3,1.75,learn,58250.0,Wed Aug 20 2025 16:56:44 GMT-0400 (Eastern Daylight Time),443448.30000019073,A,pipe,I,e,331,2,1749.7000002861023,441698.59999990463,9019,WL,B,1.0
3,2.932999849319458,learn,57067.00015068054,Wed Aug 20 2025 16:56:44 GMT-0400 (Eastern Daylight Time),444630.90000009537,A,pipeenter,I,enter,1162,2,2932.300000190735,441698.59999990463,9019,WL,B,1.0
3,3.632999897003174,learn,56367.000102996826,Wed Aug 20 2025 16:56:44 GMT-0400 (Eastern Daylight Time),445331.59999990463,A,s,I,s,690,2,700.1999998092651,444631.40000009537,9019,WL,B,2.0
3,3.7829999923706055,learn,56217.000007629395,Wed Aug 20 2025 16:56:44 GMT-0400 (Eastern Daylight Time),445481.5,A,sk,I,k,130,2,850.0999999046326,444631.40000009537,9019,WL,B,2.0
3,3.932999849319458,learn,56067.00015068054,Wed Aug 20 2025 16:56:44 GMT-0400 (Eastern Daylight Time),445631.80000019073,A,ski,I,i,140,2,1000.4000000953674,444631.40000009537,9019,WL,B,2.0
3,5.265999794006348,learn,54734.00020599365,Wed Aug 20 2025 16:56:44 GMT-0400 (Eastern Daylight Time),446964.80000019073,A,skin,I,n,1315,2,2333.4000000953674,444631.40000009537,9019,WL,B,2.0
3,5.882999897003174,learn,54117.000102996826,Wed Aug 20 2025 16:56:44 GMT-0400 (Eastern Daylight Time),447580.90000009537,A,skinenter,I,enter,592,2,2949.5,444631.40000009537,9019,WL,B,2.0
3,6.349999904632568,learn,53650.00009536743,Wed Aug 20 2025 16:56:44 GMT-0400 (Eastern Daylight Time),448047.90000009537,A,f,I,f,460,2,466.59999990463257,447581.30000019073,9019,WL,B,3.0
3,6.566999912261963,learn,53433.00008773804,Wed Aug 20 2025 16:56:44 GMT-0400 (Eastern Daylight Time),448264.90000009537,A,fi,I,i,189,2,683.5999999046326,447581.30000019073,9019,WL,B,3.0
3,6.699999809265137,learn,53300.00019073486,Wed Aug 20 2025 16:56:44 GMT-0400 (Eastern Daylight Time),448398.2000002861,A,fir,I,r,109,2,816.9000000953674,447581.30000019073,9019,WL,B,3.0
3,6.748999834060669,learn,53251.00016593933,Wed Aug 20 2025 16:56:44 GMT-0400 (Eastern Daylight Time),448447.80000019073,A,fire,I,e,30,2,866.5,447581.30000019073,9019,WL,B,3.0
3,7.450999975204468,learn,52549.00002479553,Wed Aug 20 2025 16:56:44 GMT-0400 (Eastern Daylight Time),449149.80000019073,A,fireenter,I,enter,676,2,1568.5,447581.30000019073,9019,WL,B,3.0
3,8.049999952316284,learn,51950.000047683716,Wed Aug 20 2025 16:56:44 GMT-0400 (Eastern Daylight Time),449748.2000002861,A,c,I,c,587,2,598.1000003814697,449150.09999990463,9019,WL,B,4.0
3,8.349999904632568,learn,51650.00009536743,Wed Aug 20 2025 16:56:44 GMT-0400 (Eastern Daylight Time),450048.2000002861,A,cl,I,l,274,2,898.1000003814697,449150.09999990463,9019,WL,B,4.0
3,8.632999897003174,learn,51367.000102996826,Wed Aug 20 2025 16:56:44 GMT-0400 (Eastern Daylight Time),450331.59999990463,A,clo,I,o,258,2,1181.5,449150.09999990463,9019,WL,B,4.0
3,8.965999841690063,learn,51034.00015830994,Wed Aug 20 2025 16:56:44 GMT-0400 (Eastern Daylight Time),450664.0,A,clos,I,s,312,2,1513.9000000953674,449150.09999990463,9019,WL,B,4.0
3,10.049999952316284,learn,49950.000047683716,Wed Aug 20 2025 16:56:44 GMT-0400 (Eastern Daylight Time),451748.30000019073,A,clo,I,backspace,1073,2,2598.2000002861023,449150.09999990463,9019,WL,B,4.0
3,10.149999856948853,learn,49850.00014305115,Wed Aug 20 2025 16:56:44 GMT-0400 (Eastern Daylight Time),451848.09999990463,A,cloc,I,c,81,2,2698.0,449150.09999990463,9019,WL,B,4.0
3,10.899999856948853,learn,49100.00014305115,Wed Aug 20 2025 16:56:44 GMT-0400 (Eastern Daylight Time),452598.2000002861,A,clock,I,k,733,2,3448.1000003814697,449150.09999990463,9019,WL,B,4.0
3,11.51799988746643,learn,48482.00011253357,Wed Aug 20 2025 16:56:44 GMT-0400 (Eastern Daylight Time),453216.30000019073,A,clockenter,I,enter,590,2,4066.2000002861023,449150.09999990463,9019,WL,B,4.0
3,12.099999904632568,learn,47900.00009536743,Wed Aug 20 2025 16:56:44 GMT-0400 (Eastern Daylight Time),453798.09999990463,A,s,I,s,569,2,581.3999996185303,453216.7000002861,9019,WL,B,5.0
3,12.299999952316284,learn,47700.000047683716,Wed Aug 20 2025 16:56:44 GMT-0400 (Eastern Daylight Time),453998.0,A,sh,I,h,176,2,781.2999997138977,453216.7000002861,9019,WL,B,5.0
3,12.91599988937378,learn,47084.00011062622,Wed Aug 20 2025 16:56:44 GMT-0400 (Eastern Daylight Time),454614.80000019073,A,sht,I,t,590,2,1398.0999999046326,453216.7000002861,9019,WL,B,5.0
3,13.132999897003174,learn,46867.000102996826,Wed Aug 20 2025 16:56:44 GMT-0400 (Eastern Daylight Time),454831.59999990463,A,sh,I,backspace,191,2,1614.8999996185303,453216.7000002861,9019,WL,B,5.0
3,13.282999992370605,learn,46717.000007629395,Wed Aug 20 2025 16:56:44 GMT-0400 (Eastern Daylight Time),454981.5,A,s,I,backspace,135,2,1764.7999997138977,453216.7000002861,9019,WL,B,5.0
3,13.565999984741211,learn,46434.00001525879,Wed Aug 20 2025 16:56:44 GMT-0400 (Eastern Daylight Time),455264.59999990463,A,st,I,t,270,2,2047.8999996185303,453216.7000002861,9019,WL,B,5.0
3,13.766999959945679,learn,46233.00004005432,Wed Aug 20 2025 16:56:44 GMT-0400 (Eastern Daylight Time),455465.09999990463,A,str,I,r,182,2,2248.3999996185303,453216.7000002861,9019,WL,B,5.0
3,13.932999849319458,learn,46067.00015068054,Wed Aug 20 2025 16:56:44 GMT-0400 (Eastern Daylight Time),455631.40000009537,A,stre,I,e,140,2,2414.699999809265,453216.7000002861,9019,WL,B,5.0
3,14.08299994468689,learn,45917.00005531311,Wed Aug 20 2025 16:56:44 GMT-0400 (Eastern Daylight Time),455781.59999990463,A,stree,I,e,134,2,2564.8999996185303,453216.7000002861,9019,WL,B,5.0
3,14.282999992370605,learn,45717.000007629395,Wed Aug 20 2025 16:56:44 GMT-0400 (Eastern Daylight Time),455981.40000009537,A,street,I,t,174,2,2764.699999809265,453216.7000002861,9019,WL,B,5.0
3,14.932999849319458,learn,45067.00015068054,Wed Aug 20 2025 16:56:44 GMT-0400 (Eastern Daylight Time),456631.0,A,streetenter,I,enter,631,2,3414.2999997138977,453216.7000002861,9019,WL,B,5.0
3,15.282999992370605,learn,44717.000007629395,Wed Aug 20 2025 16:56:44 GMT-0400 (Eastern Daylight Time),456981.5,A,g,I,g,338,2,350.09999990463257,456631.40000009537,9019,WL,B,6.0
3,15.515999794006348,learn,44484.00020599365,Wed Aug 20 2025 16:56:44 GMT-0400 (Eastern Daylight Time),457214.90000009537,A,gr,I,r,207,2,583.5,456631.40000009537,9019,WL,B,6.0
3,15.765999794006348,learn,44234.00020599365,Wed Aug 20 2025 16:56:44 GMT-0400 (Eastern Daylight Time),457464.90000009537,A,gra,I,a,230,2,833.5,456631.40000009537,9019,WL,B,6.0
3,15.982999801635742,learn,44017.00019836426,Wed Aug 20 2025 16:56:44 GMT-0400 (Eastern Daylight Time),457681.59999990463,A,gras,I,s,205,2,1050.1999998092651,456631.40000009537,9019,WL,B,6.0
3,16.299999952316284,learn,43700.000047683716,Wed Aug 20 2025 16:56:44 GMT-0400 (Eastern Daylight Time),457998.30000019073,A,grass,I,s,284,2,1366.9000000953674,456631.40000009537,9019,WL,B,6.0
3,17.032999992370605,learn,42967.000007629395,Wed Aug 20 2025 16:56:44 GMT-0400 (Eastern Daylight Time),458731.09999990463,A,grassenter,I,enter,710,2,2099.699999809265,456631.40000009537,9019,WL,B,6.0
3,17.782999992370605,learn,42217.000007629395,Wed Aug 20 2025 16:56:44 GMT-0400 (Eastern Daylight Time),459481.59999990463,A,a,I,a,734,2,750.1999998092651,458731.40000009537,9019,WL,B,7.0
3,17.965999841690063,learn,42034.00015830994,Wed Aug 20 2025 16:56:44 GMT-0400 (Eastern Daylight Time),459664.59999990463,A,ar,I,r,172,2,933.1999998092651,458731.40000009537,9019,WL,B,7.0
3,18.899999856948853,learn,41100.00014305115,Wed Aug 20 2025 16:56:44 GMT-0400 (Eastern Daylight Time),460598.2000002861,A,arm,I,m,908,2,1866.8000001907349,458731.40000009537,9019,WL,B,7.0
3,19.532999992370605,learn,40467.000007629395,Wed Aug 20 2025 16:56:44 GMT-0400 (Eastern Daylight Time),461231.0,A,armenter,I,enter,623,2,2499.5999999046326,458731.40000009537,9019,WL,B,7.0
3,20.282999992370605,learn,39717.000007629395,Wed Aug 20 2025 16:56:44 GMT-0400 (Eastern Daylight Time),461981.5,A,d,I,d,729,2,750.1999998092651,461231.30000019073,9019,WL,B,8.0
3,20.5,learn,39500.0,Wed Aug 20 2025 16:56:44 GMT-0400 (Eastern Daylight Time),462198.09999990463,A,do,I,o,201,2,966.7999997138977,461231.30000019073,9019,WL,B,8.0
3,20.649999856948853,learn,39350.00014305115,Wed Aug 20 2025 16:56:44 GMT-0400 (Eastern Daylight Time),462348.2000002861,A,doo,I,o,120,2,1116.9000000953674,461231.30000019073,9019,WL,B,8.0
3,20.91699981689453,learn,39083.00018310547,Wed Aug 20 2025 16:56:44 GMT-0400 (Eastern Daylight Time),462615.0,A,door,I,r,250,2,1383.6999998092651,461231.30000019073,9019,WL,B,8.0
3,21.515999794006348,learn,38484.00020599365,Wed Aug 20 2025 16:56:44 GMT-0400 (Eastern Daylight Time),463214.40000009537,A,doorenter,I,enter,574,2,1983.0999999046326,461231.30000019073,9019,WL,B,8.0
3,21.699999809265137,learn,38300.00019073486,Wed Aug 20 2025 16:56:44 GMT-0400 (Eastern Daylight Time),463398.09999990463,A,s,I,s,170,2,183.2999997138977,463214.80000019073,9019,WL,B,9.0
3,21.91599988937378,learn,38084.00011062622,Wed Aug 20 2025 16:56:44 GMT-0400 (Eastern Daylight Time),463614.90000009537,A,st,I,t,191,2,400.09999990463257,463214.80000019073,9019,WL,B,9.0
3,22.199999809265137,learn,37800.00019073486,Wed Aug 20 2025 16:56:44 GMT-0400 (Eastern Daylight Time),463898.2000002861,A,sta,I,a,262,2,683.4000000953674,463214.80000019073,9019,WL,B,9.0
3,22.399999856948853,learn,37600.00014305115,Wed Aug 20 2025 16:56:44 GMT-0400 (Eastern Daylight Time),464098.0,A,star,I,r,188,2,883.1999998092651,463214.80000019073,9019,WL,B,9.0
3,22.765999794006348,learn,37234.00020599365,Wed Aug 20 2025 16:56:44 GMT-0400 (Eastern Daylight Time),464464.30000019073,A,starenter,I,enter,355,2,1249.5,463214.80000019073,9019,WL,B,9.0
3,23.299999952316284,learn,36700.000047683716,Wed Aug 20 2025 16:56:44 GMT-0400 (Eastern Daylight Time),464998.2000002861,A,w,I,w,520,2,533.5,464464.7000002861,9019,WL,B,10.0
3,23.5,learn,36500.0,Wed Aug 20 2025 16:56:44 GMT-0400 (Eastern Daylight Time),465198.2000002861,A,wi,I,i,175,2,733.5,464464.7000002861,9019,WL,B,10.0
3,23.715999841690063,learn,36284.00015830994,Wed Aug 20 2025 16:56:44 GMT-0400 (Eastern Daylight Time),465414.90000009537,A,win,I,n,193,2,950.1999998092651,464464.7000002861,9019,WL,B,10.0
3,24.482999801635742,learn,35517.00019836426,Wed Aug 20 2025 16:56:44 GMT-0400 (Eastern Daylight Time),466181.59999990463,A,wind,I,d,742,2,1716.8999996185303,464464.7000002861,9019,WL,B,10.0
3,24.732999801635742,learn,35267.00019836426,Wed Aug 20 2025 16:56:44 GMT-0400 (Eastern Daylight Time),466431.90000009537,A,windo,I,o,240,2,1967.1999998092651,464464.7000002861,9019,WL,B,10.0
3,25.16599988937378,learn,34834.00011062622,Wed Aug 20 2025 16:56:44 GMT-0400 (Eastern Daylight Time),466864.59999990463,A,window,I,w,423,2,2399.8999996185303,464464.7000002861,9019,WL,B,10.0
3,26.049000024795532,learn,33950.99997520447,Wed Aug 20 2025 16:56:44 GMT-0400 (Eastern Daylight Time),467747.7000002861,A,windowenter,I,enter,869,2,3283.0,464464.7000002861,9019,WL,B,10.0
3,27.132999897003174,learn,32867.000102996826,Wed Aug 20 2025 16:56:44 GMT-0400 (Eastern Daylight Time),468831.5,A,w,I,w,1061,2,1083.4000000953674,467748.09999990463,9019,WL,B,11.0
3,27.399999856948853,learn,32600.000143051147,Wed Aug 20 2025 16:56:44 GMT-0400 (Eastern Daylight Time),469098.2000002861,A,wi,I,i,246,2,1350.1000003814697,467748.09999990463,9019,WL,B,11.0
3,27.632999897003174,learn,32367.000102996826,Wed Aug 20 2025 16:56:44 GMT-0400 (Eastern Daylight Time),469331.59999990463,A,wif,I,f,220,2,1583.5,467748.09999990463,9019,WL,B,11.0
3,27.732999801635742,learn,32267.000198364258,Wed Aug 20 2025 16:56:44 GMT-0400 (Eastern Daylight Time),469431.59999990463,A,wife,I,e,74,2,1683.5,467748.09999990463,9019,WL,B,11.0
3,28.515999794006348,learn,31484.000205993652,Wed Aug 20 2025 16:56:44 GMT-0400 (Eastern Daylight Time),470214.40000009537,A,wifeenter,I,enter,766,2,2466.300000190735,467748.09999990463,9019,WL,B,11.0
3,28.865999937057495,learn,31134.000062942505,Wed Aug 20 2025 16:56:44 GMT-0400 (Eastern Daylight Time),470564.90000009537,A,c,I,c,338,2,350.09999990463257,470214.80000019073,9019,WL,B,12.0
3,29.115999937057495,learn,30884.000062942505,Wed Aug 20 2025 16:56:44 GMT-0400 (Eastern Daylight Time),470814.90000009537,A,ci,I,i,224,2,600.0999999046326,470214.80000019073,9019,WL,B,12.0
3,29.699999809265137,learn,30300.000190734863,Wed Aug 20 2025 16:56:44 GMT-0400 (Eastern Daylight Time),471398.2000002861,A,cit,I,t,567,2,1183.4000000953674,470214.80000019073,9019,WL,B,12.0
3,29.765999794006348,learn,30234.000205993652,Wed Aug 20 2025 16:56:44 GMT-0400 (Eastern Daylight Time),471464.40000009537,A,city,I,y,40,2,1249.5999999046326,470214.80000019073,9019,WL,B,12.0
3,30.098999977111816,learn,29901.000022888184,Wed Aug 20 2025 16:56:44 GMT-0400 (Eastern Daylight Time),471797.7000002861,A,cityenter,I,enter,320,2,1582.9000000953674,470214.80000019073,9019,WL,B,12.0
3,30.81599998474121,learn,29184.00001525879,Wed Aug 20 2025 16:56:44 GMT-0400 (Eastern Daylight Time),472514.90000009537,A,c,I,c,708,2,716.6999998092651,471798.2000002861,9019,WL,B,13.0
3,30.949999809265137,learn,29050.000190734863,Wed Aug 20 2025 16:56:44 GMT-0400 (Eastern Daylight Time),472648.30000019073,A,ca,I,a,115,2,850.0999999046326,471798.2000002861,9019,WL,B,13.0
3,31.132999897003174,learn,28867.000102996826,Wed Aug 20 2025 16:56:44 GMT-0400 (Eastern Daylight Time),472831.5,A,cab,I,b,153,2,1033.2999997138977,471798.2000002861,9019,WL,B,13.0
3,31.56599998474121,learn,28434.00001525879,Wed Aug 20 2025 16:56:44 GMT-0400 (Eastern Daylight Time),473264.59999990463,A,cabi,I,i,422,2,1466.3999996185303,471798.2000002861,9019,WL,B,13.0
3,31.75,learn,28250.0,Wed Aug 20 2025 16:56:44 GMT-0400 (Eastern Daylight Time),473448.2000002861,A,cabin,I,n,166,2,1650.0,471798.2000002861,9019,WL,B,13.0
3,31.965999841690063,learn,28034.000158309937,Wed Aug 20 2025 16:56:44 GMT-0400 (Eastern Daylight Time),473664.30000019073,A,cabinenter,I,enter,204,2,1866.0999999046326,471798.2000002861,9019,WL,B,13.0
3,32.76599979400635,learn,27234.000205993652,Wed Aug 20 2025 16:56:44 GMT-0400 (Eastern Daylight Time),474464.7000002861,A,p,I,p,792,2,800.0,473664.7000002861,9019,WL,B,14.0
3,33.19999980926514,learn,26800.000190734863,Wed Aug 20 2025 16:56:44 GMT-0400 (Eastern Daylight Time),474898.2000002861,A,pu,I,u,419,2,1233.5,473664.7000002861,9019,WL,B,14.0
3,33.43299984931946,learn,26567.000150680542,Wed Aug 20 2025 16:56:44 GMT-0400 (Eastern Daylight Time),475131.5,A,pup,I,p,212,2,1466.7999997138977,473664.7000002861,9019,WL,B,14.0
3,33.98299980163574,learn,26017.000198364258,Wed Aug 20 2025 16:56:44 GMT-0400 (Eastern Daylight Time),475681.59999990463,A,pupi,I,i,531,2,2016.8999996185303,473664.7000002861,9019,WL,B,14.0
3,34.41599988937378,learn,25584.00011062622,Wed Aug 20 2025 16:56:44 GMT-0400 (Eastern Daylight Time),476114.80000019073,A,pupil,I,l,420,2,2450.0999999046326,473664.7000002861,9019,WL,B,14.0
3,36.115999937057495,learn,23884.000062942505,Wed Aug 20 2025 16:56:44 GMT-0400 (Eastern Daylight Time),477814.5,A,pupilenter,I,enter,1682,2,4149.799999713898,473664.7000002861,9019,WL,B,14.0
3,48.68299984931946,learn,11317.000150680542,Wed Aug 20 2025 16:56:44 GMT-0400 (Eastern Daylight Time),490381.30000019073,A,s,I,s,12547,2,12566.5,477814.80000019073,9019,WL,B,15.0
3,49.6489999294281,learn,10351.0000705719,Wed Aug 20 2025 16:56:44 GMT-0400 (Eastern Daylight Time),491347.90000009537,A,,I,backspace,950,2,13533.099999904633,477814.80000019073,9019,WL,B,15.0
3,49.93299984931946,learn,10067.000150680542,Wed Aug 20 2025 16:56:44 GMT-0400 (Eastern Daylight Time),491631.5,A,,I,backspace,262,2,13816.699999809265,477814.80000019073,9019,WL,B,15.0
3,50.18299984931946,learn,9817.000150680542,Wed Aug 20 2025 16:56:44 GMT-0400 (Eastern Daylight Time),491881.7000002861,A,,I,backspace,230,2,14066.900000095367,477814.80000019073,9019,WL,B,15.0
3,60.01699995994568,learn,-16.99995994567871,Wed Aug 20 2025 16:56:44 GMT-0400 (Eastern Daylight Time),501714.90000009537,A,None,I,None,9824,2,23900.099999904633,477814.80000019073,9019,WL,B,15.0
4,0.7170000076293945,learn,59282.999992370605,Wed Aug 20 2025 16:56:44 GMT-0400 (Eastern Daylight Time),571848.4000000954,A,p,I,p,699,2,716.5,571131.9000000954,9019,WL,B,1.0
4,0.9000000953674316,learn,59099.99990463257,Wed Aug 20 2025 16:56:44 GMT-0400 (Eastern Daylight Time),572031.5999999046,A,pi,I,i,157,2,899.6999998092651,571131.9000000954,9019,WL,B,1.0
4,1.0840001106262207,learn,58915.99988937378,Wed Aug 20 2025 16:56:44 GMT-0400 (Eastern Daylight Time),572214.9000000954,A,pip,I,p,158,2,1083.0,571131.9000000954,9019,WL,B,1.0
4,1.3500001430511475,learn,58649.99985694885,Wed Aug 20 2025 16:56:44 GMT-0400 (Eastern Daylight Time),572481.5999999046,A,pipe,I,e,255,2,1349.6999998092651,571131.9000000954,9019,WL,B,1.0
4,2.3500001430511475,learn,57649.99985694885,Wed Aug 20 2025 16:56:44 GMT-0400 (Eastern Daylight Time),573481.0999999046,A,pipeenter,I,enter,980,2,2349.199999809265,571131.9000000954,9019,WL,B,1.0
4,3.133000135421753,learn,56866.99986457825,Wed Aug 20 2025 16:56:44 GMT-0400 (Eastern Daylight Time),574264.9000000954,A,s,I,s,768,2,783.5,573481.4000000954,9019,WL,B,2.0
4,3.567000150680542,learn,56432.99984931946,Wed Aug 20 2025 16:56:44 GMT-0400 (Eastern Daylight Time),574698.3000001907,A,sk,I,k,411,2,1216.9000000953674,573481.4000000954,9019,WL,B,2.0
4,4.2170000076293945,learn,55782.999992370605,Wed Aug 20 2025 16:56:44 GMT-0400 (Eastern Daylight Time),575348.2000002861,A,ski,I,i,635,2,1866.8000001907349,573481.4000000954,9019,WL,B,2.0
4,4.434000015258789,learn,55565.99998474121,Wed Aug 20 2025 16:56:44 GMT-0400 (Eastern Daylight Time),575565.0,A,skin,I,n,193,2,2083.5999999046326,573481.4000000954,9019,WL,B,2.0
4,4.700000047683716,learn,55299.999952316284,Wed Aug 20 2025 16:56:44 GMT-0400 (Eastern Daylight Time),575831.0999999046,A,skinenter,I,enter,241,2,2349.699999809265,573481.4000000954,9019,WL,B,2.0
4,5.299999952316284,learn,54700.000047683716,Wed Aug 20 2025 16:56:44 GMT-0400 (Eastern Daylight Time),576431.5999999046,A,f,I,f,577,2,600.0999999046326,575831.5,9019,WL,B,3.0
4,5.584000110626221,learn,54415.99988937378,Wed Aug 20 2025 16:56:44 GMT-0400 (Eastern Daylight Time),576714.9000000954,A,fi,I,i,255,2,883.4000000953674,575831.5,9019,WL,B,3.0
4,5.700000047683716,learn,54299.999952316284,Wed Aug 20 2025 16:56:44 GMT-0400 (Eastern Daylight Time),576831.7000002861,A,fir,I,r,91,2,1000.2000002861023,575831.5,9019,WL,B,3.0
4,5.733999967575073,learn,54266.00003242493,Wed Aug 20 2025 16:56:44 GMT-0400 (Eastern Daylight Time),576865.7000002861,A,fire,I,e,14,2,1034.2000002861023,575831.5,9019,WL,B,3.0
4,5.883000135421753,learn,54116.99986457825,Wed Aug 20 2025 16:56:44 GMT-0400 (Eastern Daylight Time),577014.5,A,fireenter,I,enter,130,2,1183.0,575831.5,9019,WL,B,3.0
4,6.150000095367432,learn,53849.99990463257,Wed Aug 20 2025 16:56:44 GMT-0400 (Eastern Daylight Time),577281.5999999046,A,c,I,c,258,2,266.7999997138977,577014.8000001907,9019,WL,B,4.0
4,6.251000165939331,learn,53748.99983406067,Wed Aug 20 2025 16:56:44 GMT-0400 (Eastern Daylight Time),577382.3000001907,A,cl,I,l,81,2,367.5,577014.8000001907,9019,WL,B,4.0
4,6.434000015258789,learn,53565.99998474121,Wed Aug 20 2025 16:56:44 GMT-0400 (Eastern Daylight Time),577564.9000000954,A,clo,I,o,162,2,550.0999999046326,577014.8000001907,9019,WL,B,4.0
4,6.817000150680542,learn,53182.99984931946,Wed Aug 20 2025 16:56:44 GMT-0400 (Eastern Daylight Time),577948.3000001907,A,cloc,I,c,353,2,933.5,577014.8000001907,9019,WL,B,4.0
4,7.0,learn,53000.0,Wed Aug 20 2025 16:56:44 GMT-0400 (Eastern Daylight Time),578131.5999999046,A,clock,I,k,169,2,1116.7999997138977,577014.8000001907,9019,WL,B,4.0
4,7.633000135421753,learn,52366.99986457825,Wed Aug 20 2025 16:56:44 GMT-0400 (Eastern Daylight Time),578764.5,A,clockenter,I,enter,609,2,1749.6999998092651,577014.8000001907,9019,WL,B,4.0
4,8.33299994468689,learn,51667.00005531311,Wed Aug 20 2025 16:56:44 GMT-0400 (Eastern Daylight Time),579464.9000000954,A,s,I,s,684,2,700.0,578764.9000000954,9019,WL,B,5.0
4,8.600000143051147,learn,51399.99985694885,Wed Aug 20 2025 16:56:44 GMT-0400 (Eastern Daylight Time),579731.5999999046,A,st,I,t,252,2,966.6999998092651,578764.9000000954,9019,WL,B,5.0
4,8.91700005531311,learn,51082.99994468689,Wed Aug 20 2025 16:56:44 GMT-0400 (Eastern Daylight Time),580048.2000002861,A,str,I,r,305,2,1283.3000001907349,578764.9000000954,9019,WL,B,5.0
4,9.315999984741211,learn,50684.00001525879,Wed Aug 20 2025 16:56:44 GMT-0400 (Eastern Daylight Time),580447.8000001907,A,stre,I,e,391,2,1682.9000000953674,578764.9000000954,9019,WL,B,5.0
4,9.483999967575073,learn,50516.00003242493,Wed Aug 20 2025 16:56:44 GMT-0400 (Eastern Daylight Time),580615.0,A,stree,I,e,151,2,1850.0999999046326,578764.9000000954,9019,WL,B,5.0
4,9.700000047683716,learn,50299.999952316284,Wed Aug 20 2025 16:56:44 GMT-0400 (Eastern Daylight Time),580831.8000001907,A,street,I,t,204,2,2066.9000000953674,578764.9000000954,9019,WL,B,5.0
4,10.75,learn,49250.0,Wed Aug 20 2025 16:56:44 GMT-0400 (Eastern Daylight Time),581881.2000002861,A,streetenter,I,enter,1031,2,3116.300000190735,578764.9000000954,9019,WL,B,5.0
4,11.516999959945679,learn,48483.00004005432,Wed Aug 20 2025 16:56:44 GMT-0400 (Eastern Daylight Time),582648.2000002861,A,g,I,g,751,2,766.7000002861023,581881.5,9019,WL,B,6.0
4,11.717000007629395,learn,48282.999992370605,Wed Aug 20 2025 16:56:44 GMT-0400 (Eastern Daylight Time),582848.0999999046,A,gr,I,r,188,2,966.5999999046326,581881.5,9019,WL,B,6.0
4,11.950000047683716,learn,48049.999952316284,Wed Aug 20 2025 16:56:44 GMT-0400 (Eastern Daylight Time),583081.7000002861,A,gra,I,a,212,2,1200.2000002861023,581881.5,9019,WL,B,6.0
4,12.08400011062622,learn,47915.99988937378,Wed Aug 20 2025 16:56:44 GMT-0400 (Eastern Daylight Time),583215.0,A,gras,I,s,109,2,1333.5,581881.5,9019,WL,B,6.0
4,12.284000158309937,learn,47715.99984169006,Wed Aug 20 2025 16:56:44 GMT-0400 (Eastern Daylight Time),583415.0999999046,A,grass,I,s,174,2,1533.5999999046326,581881.5,9019,WL,B,6.0
4,12.633000135421753,learn,47366.99986457825,Wed Aug 20 2025 16:56:44 GMT-0400 (Eastern Daylight Time),583764.5,A,grassenter,I,enter,332,2,1883.0,581881.5,9019,WL,B,6.0
4,13.134000062942505,learn,46865.999937057495,Wed Aug 20 2025 16:56:44 GMT-0400 (Eastern Daylight Time),584265.0999999046,A,d,I,d,485,2,500.2999997138977,583764.8000001907,9019,WL,B,7.0
4,13.33299994468689,learn,46667.00005531311,Wed Aug 20 2025 16:56:44 GMT-0400 (Eastern Daylight Time),584464.8000001907,A,do,I,o,189,2,700.0,583764.8000001907,9019,WL,B,7.0
4,13.483000040054321,learn,46516.99995994568,Wed Aug 20 2025 16:56:44 GMT-0400 (Eastern Daylight Time),584614.8000001907,A,doo,I,o,133,2,850.0,583764.8000001907,9019,WL,B,7.0
4,13.717000007629395,learn,46282.999992370605,Wed Aug 20 2025 16:56:44 GMT-0400 (Eastern Daylight Time),584848.4000000954,A,door,I,r,208,2,1083.5999999046326,583764.8000001907,9019,WL,B,7.0
4,14.25,learn,45750.0,Wed Aug 20 2025 16:56:44 GMT-0400 (Eastern Daylight Time),585381.0999999046,A,doorenter,I,enter,516,2,1616.2999997138977,583764.8000001907,9019,WL,B,7.0
4,14.58299994468689,learn,45417.00005531311,Wed Aug 20 2025 16:56:44 GMT-0400 (Eastern Daylight Time),585715.0,A,w,I,w,323,2,333.59999990463257,585381.4000000954,9019,WL,B,8.0
4,15.483999967575073,learn,44516.00003242493,Wed Aug 20 2025 16:56:44 GMT-0400 (Eastern Daylight Time),586615.0,A,wi,I,i,880,2,1233.5999999046326,585381.4000000954,9019,WL,B,8.0
4,15.950000047683716,learn,44049.999952316284,Wed Aug 20 2025 16:56:44 GMT-0400 (Eastern Daylight Time),587081.7000002861,A,win,I,n,439,2,1700.3000001907349,585381.4000000954,9019,WL,B,8.0
4,16.233999967575073,learn,43766.00003242493,Wed Aug 20 2025 16:56:44 GMT-0400 (Eastern Daylight Time),587365.3000001907,A,wind,I,d,267,2,1983.9000000953674,585381.4000000954,9019,WL,B,8.0
4,16.41600012779236,learn,43583.99987220764,Wed Aug 20 2025 16:56:44 GMT-0400 (Eastern Daylight Time),587547.5999999046,A,windo,I,o,162,2,2166.199999809265,585381.4000000954,9019,WL,B,8.0
4,16.58299994468689,learn,43417.00005531311,Wed Aug 20 2025 16:56:44 GMT-0400 (Eastern Daylight Time),587714.3000001907,A,window,I,w,156,2,2332.9000000953674,585381.4000000954,9019,WL,B,8.0
4,17.700000047683716,learn,42299.999952316284,Wed Aug 20 2025 16:56:44 GMT-0400 (Eastern Daylight Time),588831.0,A,windowenter,I,enter,1094,2,3449.5999999046326,585381.4000000954,9019,WL,B,8.0
4,18.01699995994568,learn,41983.00004005432,Wed Aug 20 2025 16:56:44 GMT-0400 (Eastern Daylight Time),589148.2000002861,A,a,I,a,298,2,316.80000019073486,588831.4000000954,9019,WL,B,9.0
4,18.40000009536743,learn,41599.99990463257,Wed Aug 20 2025 16:56:44 GMT-0400 (Eastern Daylight Time),589531.0999999046,A,ar,I,r,362,2,699.6999998092651,588831.4000000954,9019,WL,B,9.0
4,18.91700005531311,learn,41082.99994468689,Wed Aug 20 2025 16:56:44 GMT-0400 (Eastern Daylight Time),590048.4000000954,A,arm,I,m,494,2,1217.0,588831.4000000954,9019,WL,B,9.0
4,19.683000087738037,learn,40316.99991226196,Wed Aug 20 2025 16:56:44 GMT-0400 (Eastern Daylight Time),590814.5,A,armenter,I,enter,740,2,1983.0999999046326,588831.4000000954,9019,WL,B,9.0
4,24.049999952316284,learn,35950.000047683716,Wed Aug 20 2025 16:56:44 GMT-0400 (Eastern Daylight Time),595181.7000002861,A,s,I,s,4347,2,4366.800000190735,590814.9000000954,9019,WL,B,10.0
4,24.26699995994568,learn,35733.00004005432,Wed Aug 20 2025 16:56:44 GMT-0400 (Eastern Daylight Time),595398.3000001907,A,st,I,t,198,2,4583.400000095367,590814.9000000954,9019,WL,B,10.0
4,24.66700005531311,learn,35332.99994468689,Wed Aug 20 2025 16:56:44 GMT-0400 (Eastern Daylight Time),595798.3000001907,A,sta,I,a,383,2,4983.400000095367,590814.9000000954,9019,WL,B,10.0
4,25.134000062942505,learn,34865.999937057495,Wed Aug 20 2025 16:56:44 GMT-0400 (Eastern Daylight Time),596265.0,A,star,I,r,447,2,5450.099999904633,590814.9000000954,9019,WL,B,10.0
4,26.032999992370605,learn,33967.000007629395,Wed Aug 20 2025 16:56:44 GMT-0400 (Eastern Daylight Time),597164.5,A,starenter,I,enter,868,2,6349.599999904633,590814.9000000954,9019,WL,B,10.0
4,26.91700005531311,learn,33082.99994468689,Wed Aug 20 2025 16:56:44 GMT-0400 (Eastern Daylight Time),598048.4000000954,A,w,I,w,860,2,883.5,597164.9000000954,9019,WL,B,11.0
4,27.100000143051147,learn,32899.99985694885,Wed Aug 20 2025 16:56:44 GMT-0400 (Eastern Daylight Time),598231.7000002861,A,wi,I,i,165,2,1066.8000001907349,597164.9000000954,9019,WL,B,11.0
4,27.317000150680542,learn,32682.999849319458,Wed Aug 20 2025 16:56:44 GMT-0400 (Eastern Daylight Time),598448.0999999046,A,wif,I,f,197,2,1283.1999998092651,597164.9000000954,9019,WL,B,11.0
4,27.467000007629395,learn,32532.999992370605,Wed Aug 20 2025 16:56:44 GMT-0400 (Eastern Daylight Time),598598.0999999046,A,wife,I,e,133,2,1433.1999998092651,597164.9000000954,9019,WL,B,11.0
4,27.683000087738037,learn,32316.999912261963,Wed Aug 20 2025 16:56:44 GMT-0400 (Eastern Daylight Time),598814.5,A,wifeenter,I,enter,191,2,1649.5999999046326,597164.9000000954,9019,WL,B,11.0
4,28.634000062942505,learn,31365.999937057495,Wed Aug 20 2025 16:56:44 GMT-0400 (Eastern Daylight Time),599765.0,A,c,I,c,938,2,950.2999997138977,598814.7000002861,9019,WL,B,12.0
4,28.967000007629395,learn,31032.999992370605,Wed Aug 20 2025 16:56:44 GMT-0400 (Eastern Daylight Time),600098.2000002861,A,ci,I,i,321,2,1283.5,598814.7000002861,9019,WL,B,12.0
4,29.117000102996826,learn,30882.999897003174,Wed Aug 20 2025 16:56:44 GMT-0400 (Eastern Daylight Time),600248.4000000954,A,cit,I,t,132,2,1433.6999998092651,598814.7000002861,9019,WL,B,12.0
4,29.233999967575073,learn,30766.000032424927,Wed Aug 20 2025 16:56:44 GMT-0400 (Eastern Daylight Time),600365.0,A,city,I,y,93,2,1550.2999997138977,598814.7000002861,9019,WL,B,12.0
4,29.5,learn,30500.0,Wed Aug 20 2025 16:56:44 GMT-0400 (Eastern Daylight Time),600631.2000002861,A,cityenter,I,enter,247,2,1816.5,598814.7000002861,9019,WL,B,12.0
4,29.76699995994568,learn,30233.00004005432,Wed Aug 20 2025 16:56:44 GMT-0400 (Eastern Daylight Time),600898.3000001907,A,c,I,c,257,2,266.80000019073486,600631.5,9019,WL,B,13.0
4,29.950000047683716,learn,30049.999952316284,Wed Aug 20 2025 16:56:44 GMT-0400 (Eastern Daylight Time),601081.7000002861,A,ca,I,a,162,2,450.2000002861023,600631.5,9019,WL,B,13.0
4,30.784000158309937,learn,29215.999841690063,Wed Aug 20 2025 16:56:44 GMT-0400 (Eastern Daylight Time),601914.9000000954,A,cab,I,b,812,2,1283.4000000953674,600631.5,9019,WL,B,13.0
4,31.600000143051147,learn,28399.999856948853,Wed Aug 20 2025 16:56:44 GMT-0400 (Eastern Daylight Time),602731.7000002861,A,cabi,I,i,795,2,2100.2000002861023,600631.5,9019,WL,B,13.0
4,33.26699995994568,learn,26733.00004005432,Wed Aug 20 2025 16:56:44 GMT-0400 (Eastern Daylight Time),604398.3000001907,A,cabin,I,n,1642,2,3766.800000190735,600631.5,9019,WL,B,13.0
4,33.76600003242493,learn,26233.999967575073,Wed Aug 20 2025 16:56:44 GMT-0400 (Eastern Daylight Time),604897.8000001907,A,cabinenter,I,enter,484,2,4266.300000190735,600631.5,9019,WL,B,13.0
4,34.83400011062622,learn,25165.99988937378,Wed Aug 20 2025 16:56:44 GMT-0400 (Eastern Daylight Time),605965.0,A,p,I,p,1048,2,1066.9000000953674,604898.0999999046,9019,WL,B,14.0
4,35.01699995994568,learn,24983.00004005432,Wed Aug 20 2025 16:56:44 GMT-0400 (Eastern Daylight Time),606148.2000002861,A,pu,I,u,165,2,1250.1000003814697,604898.0999999046,9019,WL,B,14.0
4,35.18400001525879,learn,24815.99998474121,Wed Aug 20 2025 16:56:44 GMT-0400 (Eastern Daylight Time),606315.0,A,pup,I,p,145,2,1416.9000000953674,604898.0999999046,9019,WL,B,14.0
4,35.549999952316284,learn,24450.000047683716,Wed Aug 20 2025 16:56:44 GMT-0400 (Eastern Daylight Time),606681.2000002861,A,pupi,I,i,339,2,1783.1000003814697,604898.0999999046,9019,WL,B,14.0
4,35.867000102996826,learn,24132.999897003174,Wed Aug 20 2025 16:56:44 GMT-0400 (Eastern Daylight Time),606998.3000001907,A,pupil,I,l,302,2,2100.2000002861023,604898.0999999046,9019,WL,B,14.0
4,36.299999952316284,learn,23700.000047683716,Wed Aug 20 2025 16:56:44 GMT-0400 (Eastern Daylight Time),607431.2000002861,A,pupilenter,I,enter,415,2,2533.1000003814697,604898.0999999046,9019,WL,B,14.0
4,36.90000009536743,learn,23099.99990463257,Wed Aug 20 2025 16:56:44 GMT-0400 (Eastern Daylight Time),608031.5999999046,A,w,I,w,577,2,600.0999999046326,607431.5,9019,WL,B,15.0
4,37.01699995994568,learn,22983.00004005432,Wed Aug 20 2025 16:56:44 GMT-0400 (Eastern Daylight Time),608148.3000001907,A,wi,I,i,101,2,716.8000001907349,607431.5,9019,WL,B,15.0
4,37.117000102996826,learn,22882.999897003174,Wed Aug 20 2025 16:56:44 GMT-0400 (Eastern Daylight Time),608248.2000002861,A,win,I,n,82,2,816.7000002861023,607431.5,9019,WL,B,15.0
4,37.23399996757507,learn,22766.000032424927,Wed Aug 20 2025 16:56:44 GMT-0400 (Eastern Daylight Time),608365.0,A,wind,I,d,93,2,933.5,607431.5,9019,WL,B,15.0
4,37.33299994468689,learn,22667.00005531311,Wed Aug 20 2025 16:56:44 GMT-0400 (Eastern Daylight Time),608464.8000001907,A,windo,I,o,79,2,1033.3000001907349,607431.5,9019,WL,B,15.0
4,37.450000047683716,learn,22549.999952316284,Wed Aug 20 2025 16:56:44 GMT-0400 (Eastern Daylight Time),608581.5999999046,A,window,I,w,93,2,1150.0999999046326,607431.5,9019,WL,B,15.0
4,38.13300013542175,learn,21866.999864578247,Wed Aug 20 2025 16:56:44 GMT-0400 (Eastern Daylight Time),609264.4000000954,A,windowenter,I,enter,664,2,1832.9000000953674,607431.5,9019,WL,B,15.0
5,0.5169999599456787,learn,60000.0,Wed Aug 20 2025 16:56:44 GMT-0400 (Eastern Daylight Time),677848.7000002861,A,p,I,p,499,2,516.8000001907349,677331.9000000954,9019,WL,B,1.0
5,0.7330000400543213,learn,60000.0,Wed Aug 20 2025 16:56:44 GMT-0400 (Eastern Daylight Time),678064.8000001907,A,pi,I,i,205,2,732.9000000953674,677331.9000000954,9019,WL,B,1.0
5,0.8840000629425049,learn,60000.0,Wed Aug 20 2025 16:56:44 GMT-0400 (Eastern Daylight Time),678215.0,A,pip,I,p,133,2,883.0999999046326,677331.9000000954,9019,WL,B,1.0
5,1.2339999675750732,learn,60000.0,Wed Aug 20 2025 16:56:44 GMT-0400 (Eastern Daylight Time),678565.0999999046,A,pipe,I,e,326,2,1233.1999998092651,677331.9000000954,9019,WL,B,1.0
5,1.7000000476837158,learn,60000.0,Wed Aug 20 2025 16:56:44 GMT-0400 (Eastern Daylight Time),679031.3000001907,A,pipeenter,I,enter,449,2,1699.4000000953674,677331.9000000954,9019,WL,B,1.0
5,2.0,learn,60000.0,Wed Aug 20 2025 16:56:44 GMT-0400 (Eastern Daylight Time),679331.7000002861,A,s,I,s,289,2,300.0,679031.7000002861,9019,WL,B,2.0
5,2.549999952316284,learn,60000.0,Wed Aug 20 2025 16:56:44 GMT-0400 (Eastern Daylight Time),679881.8000001907,A,sk,I,k,530,2,850.0999999046326,679031.7000002861,9019,WL,B,2.0
5,2.799999952316284,learn,60000.0,Wed Aug 20 2025 16:56:44 GMT-0400 (Eastern Daylight Time),680132.0,A,ski,I,i,237,2,1100.2999997138977,679031.7000002861,9019,WL,B,2.0
5,3.75,learn,60000.0,Wed Aug 20 2025 16:56:44 GMT-0400 (Eastern Daylight Time),681081.7000002861,A,skin,I,n,928,2,2050.0,679031.7000002861,9019,WL,B,2.0
5,4.233000040054321,learn,60000.0,Wed Aug 20 2025 16:56:44 GMT-0400 (Eastern Daylight Time),681564.5,A,skinenter,I,enter,459,2,2532.7999997138977,679031.7000002861,9019,WL,B,2.0
5,4.566999912261963,learn,60000.0,Wed Aug 20 2025 16:56:44 GMT-0400 (Eastern Daylight Time),681898.3000001907,A,f,I,f,315,2,333.40000009536743,681564.9000000954,9019,WL,B,3.0
5,4.834000110626221,learn,60000.0,Wed Aug 20 2025 16:56:44 GMT-0400 (Eastern Daylight Time),682165.0,A,fi,I,i,248,2,600.0999999046326,681564.9000000954,9019,WL,B,3.0
5,4.950000047683716,learn,60000.0,Wed Aug 20 2025 16:56:44 GMT-0400 (Eastern Daylight Time),682281.7000002861,A,fir,I,r,89,2,716.8000001907349,681564.9000000954,9019,WL,B,3.0
5,5.033999919891357,learn,60000.0,Wed Aug 20 2025 16:56:44 GMT-0400 (Eastern Daylight Time),682365.0,A,fire,I,e,59,2,800.0999999046326,681564.9000000954,9019,WL,B,3.0
5,5.16700005531311,learn,60000.0,Wed Aug 20 2025 16:56:44 GMT-0400 (Eastern Daylight Time),682498.0,A,fireenter,I,enter,121,2,933.0999999046326,681564.9000000954,9019,WL,B,3.0
5,5.334000110626221,learn,60000.0,Wed Aug 20 2025 16:56:44 GMT-0400 (Eastern Daylight Time),682665.0999999046,A,c,I,c,150,2,166.7999997138977,682498.3000001907,9019,WL,B,4.0
5,5.450000047683716,learn,60000.0,Wed Aug 20 2025 16:56:44 GMT-0400 (Eastern Daylight Time),682781.8000001907,A,cl,I,l,83,2,283.5,682498.3000001907,9019,WL,B,4.0
5,5.617000102996826,learn,60000.0,Wed Aug 20 2025 16:56:44 GMT-0400 (Eastern Daylight Time),682948.4000000954,A,clo,I,o,144,2,450.09999990463257,682498.3000001907,9019,WL,B,4.0
5,5.733999967575073,learn,60000.0,Wed Aug 20 2025 16:56:44 GMT-0400 (Eastern Daylight Time),683065.0,A,cloc,I,c,98,2,566.6999998092651,682498.3000001907,9019,WL,B,4.0
5,5.867000102996826,learn,60000.0,Wed Aug 20 2025 16:56:44 GMT-0400 (Eastern Daylight Time),683198.5,A,clock,I,k,101,2,700.1999998092651,682498.3000001907,9019,WL,B,4.0
5,6.566999912261963,learn,60000.0,Wed Aug 20 2025 16:56:44 GMT-0400 (Eastern Daylight Time),683897.9000000954,A,clockenter,I,enter,671,2,1399.5999999046326,682498.3000001907,9019,WL,B,4.0
5,7.066999912261963,learn,60000.0,Wed Aug 20 2025 16:56:44 GMT-0400 (Eastern Daylight Time),684398.4000000954,A,s,I,s,479,2,500.19999980926514,683898.2000002861,9019,WL,B,5.0
5,7.316999912261963,learn,60000.0,Wed Aug 20 2025 16:56:44 GMT-0400 (Eastern Daylight Time),684648.3000001907,A,st,I,t,230,2,750.0999999046326,683898.2000002861,9019,WL,B,5.0
5,7.5,learn,60000.0,Wed Aug 20 2025 16:56:44 GMT-0400 (Eastern Daylight Time),684831.5,A,str,I,r,151,2,933.2999997138977,683898.2000002861,9019,WL,B,5.0
5,7.58299994468689,learn,60000.0,Wed Aug 20 2025 16:56:44 GMT-0400 (Eastern Daylight Time),684914.9000000954,A,stre,I,e,70,2,1016.6999998092651,683898.2000002861,9019,WL,B,5.0
5,7.733999967575073,learn,60000.0,Wed Aug 20 2025 16:56:44 GMT-0400 (Eastern Daylight Time),685065.0999999046,A,stree,I,e,131,2,1166.8999996185303,683898.2000002861,9019,WL,B,5.0
5,7.900000095367432,learn,60000.0,Wed Aug 20 2025 16:56:44 GMT-0400 (Eastern Daylight Time),685231.8000001907,A,street,I,t,132,2,1333.5999999046326,683898.2000002861,9019,WL,B,5.0
5,8.099999904632568,learn,60000.0,Wed Aug 20 2025 16:56:44 GMT-0400 (Eastern Daylight Time),685431.2000002861,A,streetenter,I,enter,182,2,1533.0,683898.2000002861,9019,WL,B,5.0
5,8.599999904632568,learn,60000.0,Wed Aug 20 2025 16:56:44 GMT-0400 (Eastern Daylight Time),685931.7000002861,A,g,I,g,481,2,500.2000002861023,685431.5,9019,WL,B,6.0
5,8.783999919891357,learn,60000.0,Wed Aug 20 2025 16:56:44 GMT-0400 (Eastern Daylight Time),686115.0999999046,A,gr,I,r,169,2,683.5999999046326,685431.5,9019,WL,B,6.0
5,8.950000047683716,learn,60000.0,Wed Aug 20 2025 16:56:44 GMT-0400 (Eastern Daylight Time),686281.7000002861,A,gra,I,a,147,2,850.2000002861023,685431.5,9019,WL,B,6.0
5,9.08400011062622,learn,60000.0,Wed Aug 20 2025 16:56:44 GMT-0400 (Eastern Daylight Time),686415.0,A,gras,I,s,108,2,983.5,685431.5,9019,WL,B,6.0
5,9.266999959945679,learn,60000.0,Wed Aug 20 2025 16:56:44 GMT-0400 (Eastern Daylight Time),686598.0,A,grass,I,s,166,2,1166.5,685431.5,9019,WL,B,6.0
5,9.882999897003174,learn,60000.0,Wed Aug 20 2025 16:56:44 GMT-0400 (Eastern Daylight Time),687214.5999999046,A,grassenter,I,enter,594,2,1783.0999999046326,685431.5,9019,WL,B,6.0
5,10.717000007629395,learn,60000.0,Wed Aug 20 2025 16:56:44 GMT-0400 (Eastern Daylight Time),688048.5,A,d,I,d,826,2,833.5999999046326,687214.9000000954,9019,WL,B,7.0
5,10.91700005531311,learn,60000.0,Wed Aug 20 2025 16:56:44 GMT-0400 (Eastern Daylight Time),688248.3000001907,A,do,I,o,178,2,1033.4000000953674,687214.9000000954,9019,WL,B,7.0
5,11.08400011062622,learn,60000.0,Wed Aug 20 2025 16:56:44 GMT-0400 (Eastern Daylight Time),688415.0999999046,A,doo,I,o,142,2,1200.1999998092651,687214.9000000954,9019,WL,B,7.0
5,11.25,learn,60000.0,Wed Aug 20 2025 16:56:44 GMT-0400 (Eastern Daylight Time),688581.8000001907,A,door,I,r,151,2,1366.9000000953674,687214.9000000954,9019,WL,B,7.0
5,11.900000095367432,learn,60000.0,Wed Aug 20 2025 16:56:44 GMT-0400 (Eastern Daylight Time),689231.3000001907,A,doorenter,I,enter,621,2,2016.4000000953674,687214.9000000954,9019,WL,B,7.0
5,12.282999992370605,learn,60000.0,Wed Aug 20 2025 16:56:44 GMT-0400 (Eastern Daylight Time),689614.5999999046,A,a,I,a,362,2,383.0,689231.5999999046,9019,WL,B,8.0
5,12.533999919891357,learn,60000.0,Wed Aug 20 2025 16:56:44 GMT-0400 (Eastern Daylight Time),689865.2000002861,A,ar,I,r,235,2,633.6000003814697,689231.5999999046,9019,WL,B,8.0
5,13.033999919891357,learn,60000.0,Wed Aug 20 2025 16:56:44 GMT-0400 (Eastern Daylight Time),690365.0999999046,A,arm,I,m,475,2,1133.5,689231.5999999046,9019,WL,B,8.0
5,13.532999992370605,learn,60000.0,Wed Aug 20 2025 16:56:44 GMT-0400 (Eastern Daylight Time),690864.5,A,armenter,I,enter,488,2,1632.9000000953674,689231.5999999046,9019,WL,B,8.0
5,14.08400011062622,learn,60000.0,Wed Aug 20 2025 16:56:44 GMT-0400 (Eastern Daylight Time),691415.0999999046,A,w,I,w,536,2,550.2999997138977,690864.8000001907,9019,WL,B,9.0
5,14.533999919891357,learn,60000.0,Wed Aug 20 2025 16:56:44 GMT-0400 (Eastern Daylight Time),691865.0999999046,A,wi,I,i,431,2,1000.2999997138977,690864.8000001907,9019,WL,B,9.0
5,14.700000047683716,learn,60000.0,Wed Aug 20 2025 16:56:44 GMT-0400 (Eastern Daylight Time),692031.5999999046,A,win,I,n,138,2,1166.7999997138977,690864.8000001907,9019,WL,B,9.0
5,15.566999912261963,learn,60000.0,Wed Aug 20 2025 16:56:44 GMT-0400 (Eastern Daylight Time),692898.3000001907,A,wind,I,d,846,2,2033.5,690864.8000001907,9019,WL,B,9.0
5,15.884000062942505,learn,60000.0,Wed Aug 20 2025 16:56:44 GMT-0400 (Eastern Daylight Time),693215.0999999046,A,windo,I,o,290,2,2350.2999997138977,690864.8000001907,9019,WL,B,9.0
5,16.117000102996826,learn,60000.0,Wed Aug 20 2025 16:56:44 GMT-0400 (Eastern Daylight Time),693448.5,A,window,I,w,214,2,2583.699999809265,690864.8000001907,9019,WL,B,9.0
5,16.799999952316284,learn,60000.0,Wed Aug 20 2025 16:56:44 GMT-0400 (Eastern Daylight Time),694131.3000001907,A,windowenter,I,enter,662,2,3266.5,690864.8000001907,9019,WL,B,9.0
5,17.34999990463257,learn,60000.0,Wed Aug 20 2025 16:56:44 GMT-0400 (Eastern Daylight Time),694681.2000002861,A,c,I,c,533,2,549.6000003814697,694131.5999999046,9019,WL,B,10.0
5,17.500999927520752,learn,60000.0,Wed Aug 20 2025 16:56:44 GMT-0400 (Eastern Daylight Time),694832.0,A,ci,I,i,143,2,700.4000000953674,694131.5999999046,9019,WL,B,10.0
5,17.68400001525879,learn,60000.0,Wed Aug 20 2025 16:56:44 GMT-0400 (Eastern Daylight Time),695015.0999999046,A,cit,I,t,157,2,883.5,694131.5999999046,9019,WL,B,10.0
5,17.799999952316284,learn,60000.0,Wed Aug 20 2025 16:56:44 GMT-0400 (Eastern Daylight Time),695131.8000001907,A,city,I,y,94,2,1000.2000002861023,694131.5999999046,9019,WL,B,10.0
5,18.16700005531311,learn,60000.0,Wed Aug 20 2025 16:56:44 GMT-0400 (Eastern Daylight Time),695497.9000000954,A,cityenter,I,enter,345,2,1366.3000001907349,694131.5999999046,9019,WL,B,10.0
5,19.73300004005432,learn,60000.0,Wed Aug 20 2025 16:56:44 GMT-0400 (Eastern Daylight Time),697064.5999999046,A,l,I,l,1551,2,1566.3999996185303,695498.2000002861,9019,WL,B,11.0
5,20.367000102996826,learn,60000.0,Wed Aug 20 2025 16:56:44 GMT-0400 (Eastern Daylight Time),697698.7000002861,A,la,I,a,621,2,2200.5,695498.2000002861,9019,WL,B,11.0
5,20.75,learn,60000.0,Wed Aug 20 2025 16:56:44 GMT-0400 (Eastern Daylight Time),698081.7000002861,A,lak,I,k,374,2,2583.5,695498.2000002861,9019,WL,B,11.0
5,20.884000062942505,learn,60000.0,Wed Aug 20 2025 16:56:44 GMT-0400 (Eastern Daylight Time),698215.0,A,lake,I,e,116,2,2716.7999997138977,695498.2000002861,9019,WL,B,11.0
5,21.09999990463257,learn,60000.0,Wed Aug 20 2025 16:56:44 GMT-0400 (Eastern Daylight Time),698431.2000002861,A,lakeenter,I,enter,190,2,2933.0,695498.2000002861,9019,WL,B,11.0
5,21.283999919891357,learn,60000.0,Wed Aug 20 2025 16:56:44 GMT-0400 (Eastern Daylight Time),698615.0999999046,A,c,I,c,169,2,183.5,698431.5999999046,9019,WL,B,12.0
5,21.450000047683716,learn,60000.0,Wed Aug 20 2025 16:56:44 GMT-0400 (Eastern Daylight Time),698781.8000001907,A,ca,I,a,142,2,350.2000002861023,698431.5999999046,9019,WL,B,12.0
5,22.066999912261963,learn,60000.0,Wed Aug 20 2025 16:56:44 GMT-0400 (Eastern Daylight Time),699398.4000000954,A,cab,I,b,600,2,966.8000001907349,698431.5999999046,9019,WL,B,12.0
5,22.65000009536743,learn,60000.0,Wed Aug 20 2025 16:56:44 GMT-0400 (Eastern Daylight Time),699981.7000002861,A,cabi,I,i,558,2,1550.1000003814697,698431.5999999046,9019,WL,B,12.0
5,22.93400001525879,learn,60000.0,Wed Aug 20 2025 16:56:44 GMT-0400 (Eastern Daylight Time),700265.0999999046,A,cabin,I,n,262,2,1833.5,698431.5999999046,9019,WL,B,12.0
5,23.26699995994568,learn,60000.0,Wed Aug 20 2025 16:56:44 GMT-0400 (Eastern Daylight Time),700597.9000000954,A,cabinenter,I,enter,316,2,2166.300000190735,698431.5999999046,9019,WL,B,12.0
5,23.75,learn,60000.0,Wed Aug 20 2025 16:56:44 GMT-0400 (Eastern Daylight Time),701081.7000002861,A,w,I,w,467,2,483.5,700598.2000002861,9019,WL,B,13.0
5,23.91700005531311,learn,60000.0,Wed Aug 20 2025 16:56:44 GMT-0400 (Eastern Daylight Time),701248.4000000954,A,wi,I,i,139,2,650.1999998092651,700598.2000002861,9019,WL,B,13.0
5,24.783999919891357,learn,60000.0,Wed Aug 20 2025 16:56:44 GMT-0400 (Eastern Daylight Time),702115.0999999046,A,wif,I,f,852,2,1516.8999996185303,700598.2000002861,9019,WL,B,13.0
5,24.884000062942505,learn,60000.0,Wed Aug 20 2025 16:56:44 GMT-0400 (Eastern Daylight Time),702215.0999999046,A,wife,I,e,83,2,1616.8999996185303,700598.2000002861,9019,WL,B,13.0
5,25.049999952316284,learn,60000.0,Wed Aug 20 2025 16:56:44 GMT-0400 (Eastern Daylight Time),702381.3000001907,A,wifeenter,I,enter,142,2,1783.0999999046326,700598.2000002861,9019,WL,B,13.0
5,25.76699995994568,learn,60000.0,Wed Aug 20 2025 16:56:44 GMT-0400 (Eastern Daylight Time),703098.3000001907,A,p,I,p,699,2,716.7000002861023,702381.5999999046,9019,WL,B,14.0
5,25.967000007629395,learn,60000.0,Wed Aug 20 2025 16:56:44 GMT-0400 (Eastern Daylight Time),703298.4000000954,A,pu,I,u,189,2,916.8000001907349,702381.5999999046,9019,WL,B,14.0
5,26.15000009536743,learn,60000.0,Wed Aug 20 2025 16:56:44 GMT-0400 (Eastern Daylight Time),703481.7000002861,A,pup,I,p,154,2,1100.1000003814697,702381.5999999046,9019,WL,B,14.0
5,26.40000009536743,learn,60000.0,Wed Aug 20 2025 16:56:44 GMT-0400 (Eastern Daylight Time),703731.7000002861,A,pupi,I,i,236,2,1350.1000003814697,702381.5999999046,9019,WL,B,14.0
5,26.68400001525879,learn,60000.0,Wed Aug 20 2025 16:56:44 GMT-0400 (Eastern Daylight Time),704015.0999999046,A,pupil,I,l,259,2,1633.5,702381.5999999046,9019,WL,B,14.0
5,26.882999897003174,learn,60000.0,Wed Aug 20 2025 16:56:44 GMT-0400 (Eastern Daylight Time),704214.5999999046,A,pupilenter,I,enter,182,2,1833.0,702381.5999999046,9019,WL,B,14.0
5,27.049999952316284,learn,60000.0,Wed Aug 20 2025 16:56:44 GMT-0400 (Eastern Daylight Time),704381.7000002861,A,s,I,s,146,2,166.80000019073486,704214.9000000954,9019,WL,B,15.0
5,27.25,learn,60000.0,Wed Aug 20 2025 16:56:44 GMT-0400 (Eastern Daylight Time),704581.8000001907,A,st,I,t,177,2,366.90000009536743,704214.9000000954,9019,WL,B,15.0
5,27.450000047683716,learn,60000.0,Wed Aug 20 2025 16:56:44 GMT-0400 (Eastern Daylight Time),704781.7000002861,A,sta,I,a,168,2,566.8000001907349,704214.9000000954,9019,WL,B,15.0
5,27.617000102996826,learn,60000.0,Wed Aug 20 2025 16:56:44 GMT-0400 (Eastern Daylight Time),704948.4000000954,A,star,I,r,152,2,733.5,704214.9000000954,9019,WL,B,15.0
5,28.31599998474121,learn,60000.0,Wed Aug 20 2025 16:56:44 GMT-0400 (Eastern Daylight Time),705647.8000001907,A,starenter,I,enter,686,2,1432.9000000953674,704214.9000000954,9019,WL,B,15.0
6,0.8340001106262207,distr,59165.99988937378,Wed Aug 20 2025 16:56:44 GMT-0400 (Eastern Daylight Time),775965.3000001907,B,a,I,a,812,2,833.3000001907349,775132.0,9019,WL,B,1.0
6,1.0499999523162842,distr,58950.000047683716,Wed Aug 20 2025 16:56:44 GMT-0400 (Eastern Daylight Time),776181.8000001907,B,ar,I,r,201,2,1049.8000001907349,775132.0,9019,WL,B,1.0
6,2.0340001583099365,distr,57965.99984169006,Wed Aug 20 2025 16:56:44 GMT-0400 (Eastern Daylight Time),777165.2000002861,B,arm,I,m,960,2,2033.2000002861023,775132.0,9019,WL,B,1.0
6,2.317000150680542,distr,57682.99984931946,Wed Aug 20 2025 16:56:44 GMT-0400 (Eastern Daylight Time),777448.4000000954,B,army,I,y,262,2,2316.4000000953674,775132.0,9019,WL,B,1.0
6,3.0169999599456787,distr,56983.00004005432,Wed Aug 20 2025 16:56:44 GMT-0400 (Eastern Daylight Time),778148.0999999046,B,armyenter,I,enter,685,2,3016.0999999046326,775132.0,9019,WL,B,1.0
6,3.4670000076293945,distr,56532.999992370605,Wed Aug 20 2025 16:56:44 GMT-0400 (Eastern Daylight Time),778598.4000000954,B,b,I,b,437,2,450.0,778148.4000000954,9019,WL,B,2.0
6,3.684000015258789,distr,56315.99998474121,Wed Aug 20 2025 16:56:44 GMT-0400 (Eastern Daylight Time),778815.0999999046,B,bu,I,u,193,2,666.6999998092651,778148.4000000954,9019,WL,B,2.0
6,3.8500001430511475,distr,56149.99985694885,Wed Aug 20 2025 16:56:44 GMT-0400 (Eastern Daylight Time),778981.9000000954,B,bui,I,i,151,2,833.5,778148.4000000954,9019,WL,B,2.0
6,4.084000110626221,distr,55915.99988937378,Wed Aug 20 2025 16:56:44 GMT-0400 (Eastern Daylight Time),779215.0999999046,B,buil,I,l,198,2,1066.6999998092651,778148.4000000954,9019,WL,B,2.0
6,4.2170000076293945,distr,55782.999992370605,Wed Aug 20 2025 16:56:44 GMT-0400 (Eastern Daylight Time),779348.4000000954,B,build,I,d,119,2,1200.0,778148.4000000954,9019,WL,B,2.0
6,4.299999952316284,distr,55700.000047683716,Wed Aug 20 2025 16:56:44 GMT-0400 (Eastern Daylight Time),779431.8000001907,B,buildi,I,i,66,2,1283.4000000953674,778148.4000000954,9019,WL,B,2.0
6,4.434000015258789,distr,55565.99998474121,Wed Aug 20 2025 16:56:44 GMT-0400 (Eastern Daylight Time),779565.0999999046,B,buildin,I,n,100,2,1416.6999998092651,778148.4000000954,9019,WL,B,2.0
6,4.5,distr,55500.0,Wed Aug 20 2025 16:56:44 GMT-0400 (Eastern Daylight Time),779631.4000000954,B,building,I,g,57,2,1483.0,778148.4000000954,9019,WL,B,2.0
6,5.016999959945679,distr,54983.00004005432,Wed Aug 20 2025 16:56:44 GMT-0400 (Eastern Daylight Time),780148.0,B,buildingenter,I,enter,505,2,1999.5999999046326,778148.4000000954,9019,WL,B,2.0
6,5.301000118255615,distr,54698.999881744385,Wed Aug 20 2025 16:56:44 GMT-0400 (Eastern Daylight Time),780432.0,B,f,I,f,276,2,283.59999990463257,780148.4000000954,9019,WL,B,3.0
6,5.483000040054321,distr,54516.99995994568,Wed Aug 20 2025 16:56:44 GMT-0400 (Eastern Daylight Time),780614.9000000954,B,fr,I,r,168,2,466.5,780148.4000000954,9019,WL,B,3.0
6,5.617000102996826,distr,54382.999897003174,Wed Aug 20 2025 16:56:44 GMT-0400 (Eastern Daylight Time),780748.5,B,fri,I,i,104,2,600.0999999046326,780148.4000000954,9019,WL,B,3.0
6,5.700000047683716,distr,54299.999952316284,Wed Aug 20 2025 16:56:44 GMT-0400 (Eastern Daylight Time),780831.8000001907,B,frie,I,e,73,2,683.4000000953674,780148.4000000954,9019,WL,B,3.0
6,5.8500001430511475,distr,54149.99985694885,Wed Aug 20 2025 16:56:44 GMT-0400 (Eastern Daylight Time),780981.7000002861,B,frien,I,n,134,2,833.3000001907349,780148.4000000954,9019,WL,B,3.0
6,6.233999967575073,distr,53766.00003242493,Wed Aug 20 2025 16:56:44 GMT-0400 (Eastern Daylight Time),781365.2000002861,B,friend,I,d,369,2,1216.8000001907349,780148.4000000954,9019,WL,B,3.0
6,6.700000047683716,distr,53299.999952316284,Wed Aug 20 2025 16:56:44 GMT-0400 (Eastern Daylight Time),781831.3000001907,B,friendenter,I,enter,448,2,1682.9000000953674,780148.4000000954,9019,WL,B,3.0
6,6.950000047683716,distr,53049.999952316284,Wed Aug 20 2025 16:56:44 GMT-0400 (Eastern Daylight Time),782081.8000001907,B,s,I,s,241,2,250.0,781831.8000001907,9019,WL,B,4.0
6,7.16700005531311,distr,52832.99994468689,Wed Aug 20 2025 16:56:44 GMT-0400 (Eastern Daylight Time),782298.4000000954,B,st,I,t,196,2,466.59999990463257,781831.8000001907,9019,WL,B,4.0
6,7.5329999923706055,distr,52467.000007629395,Wed Aug 20 2025 16:56:44 GMT-0400 (Eastern Daylight Time),782664.7000002861,B,sto,I,o,348,2,832.9000000953674,781831.8000001907,9019,WL,B,4.0
6,7.66700005531311,distr,52332.99994468689,Wed Aug 20 2025 16:56:44 GMT-0400 (Eastern Daylight Time),782798.3000001907,B,stor,I,r,112,2,966.5,781831.8000001907,9019,WL,B,4.0
6,7.799999952316284,distr,52200.000047683716,Wed Aug 20 2025 16:56:44 GMT-0400 (Eastern Daylight Time),782931.9000000954,B,storm,I,m,118,2,1100.0999999046326,781831.8000001907,9019,WL,B,4.0
6,8.41700005531311,distr,51582.99994468689,Wed Aug 20 2025 16:56:44 GMT-0400 (Eastern Daylight Time),783548.0,B,stormenter,I,enter,593,2,1716.1999998092651,781831.8000001907,9019,WL,B,4.0
6,8.700000047683716,distr,51299.999952316284,Wed Aug 20 2025 16:56:44 GMT-0400 (Eastern Daylight Time),783831.9000000954,B,v,I,v,268,2,283.59999990463257,783548.3000001907,9019,WL,B,5.0
6,8.884000062942505,distr,51115.999937057495,Wed Aug 20 2025 16:56:44 GMT-0400 (Eastern Daylight Time),784015.0,B,vi,I,i,157,2,466.69999980926514,783548.3000001907,9019,WL,B,5.0
6,9.100000143051147,distr,50899.99985694885,Wed Aug 20 2025 16:56:44 GMT-0400 (Eastern Daylight Time),784231.8000001907,B,vil,I,l,198,2,683.5,783548.3000001907,9019,WL,B,5.0
6,9.233999967575073,distr,50766.00003242493,Wed Aug 20 2025 16:56:44 GMT-0400 (Eastern Daylight Time),784365.2000002861,B,vill,I,l,110,2,816.9000000953674,783548.3000001907,9019,WL,B,5.0
6,9.350000143051147,distr,50649.99985694885,Wed Aug 20 2025 16:56:44 GMT-0400 (Eastern Daylight Time),784481.7000002861,B,villa,I,a,102,2,933.4000000953674,783548.3000001907,9019,WL,B,5.0
6,9.600000143051147,distr,50399.99985694885,Wed Aug 20 2025 16:56:44 GMT-0400 (Eastern Daylight Time),784731.8000001907,B,villag,I,g,229,2,1183.5,783548.3000001907,9019,WL,B,5.0
6,9.83400011062622,distr,50165.99988937378,Wed Aug 20 2025 16:56:44 GMT-0400 (Eastern Daylight Time),784965.2000002861,B,village,I,e,216,2,1416.9000000953674,783548.3000001907,9019,WL,B,5.0
6,10.433000087738037,distr,49566.99991226196,Wed Aug 20 2025 16:56:44 GMT-0400 (Eastern Daylight Time),785564.7000002861,B,villageenter,I,enter,574,2,2016.4000000953674,783548.3000001907,9019,WL,B,5.0
6,11.483000040054321,distr,48516.99995994568,Wed Aug 20 2025 16:56:44 GMT-0400 (Eastern Daylight Time),786614.8000001907,B,b,I,b,1036,2,1049.9000000953674,785564.9000000954,9019,WL,B,6.0
6,11.650000095367432,distr,48349.99990463257,Wed Aug 20 2025 16:56:44 GMT-0400 (Eastern Daylight Time),786781.8000001907,B,ba,I,a,144,2,1216.9000000953674,785564.9000000954,9019,WL,B,6.0
6,11.799999952316284,distr,48200.000047683716,Wed Aug 20 2025 16:56:44 GMT-0400 (Eastern Daylight Time),786931.8000001907,B,bab,I,b,131,2,1366.9000000953674,785564.9000000954,9019,WL,B,6.0
6,12.067000150680542,distr,47932.99984931946,Wed Aug 20 2025 16:56:44 GMT-0400 (Eastern Daylight Time),787198.5,B,baby,I,y,242,2,1633.5999999046326,785564.9000000954,9019,WL,B,6.0
6,12.433000087738037,distr,47566.99991226196,Wed Aug 20 2025 16:56:44 GMT-0400 (Eastern Daylight Time),787564.7000002861,B,babyenter,I,enter,344,2,1999.8000001907349,785564.9000000954,9019,WL,B,6.0
6,12.983999967575073,distr,47016.00003242493,Wed Aug 20 2025 16:56:44 GMT-0400 (Eastern Daylight Time),788115.0999999046,B,o,I,o,540,2,550.0999999046326,787565.0,9019,WL,B,7.0
6,13.16700005531311,distr,46832.99994468689,Wed Aug 20 2025 16:56:44 GMT-0400 (Eastern Daylight Time),788298.4000000954,B,oc,I,c,161,2,733.4000000953674,787565.0,9019,WL,B,7.0
6,13.266999959945679,distr,46733.00004005432,Wed Aug 20 2025 16:56:44 GMT-0400 (Eastern Daylight Time),788398.5999999046,B,oce,I,e,68,2,833.5999999046326,787565.0,9019,WL,B,7.0
6,13.450000047683716,distr,46549.999952316284,Wed Aug 20 2025 16:56:44 GMT-0400 (Eastern Daylight Time),788581.8000001907,B,ocea,I,a,158,2,1016.8000001907349,787565.0,9019,WL,B,7.0
6,13.784000158309937,distr,46215.99984169006,Wed Aug 20 2025 16:56:44 GMT-0400 (Eastern Daylight Time),788915.2000002861,B,ocean,I,n,311,2,1350.2000002861023,787565.0,9019,WL,B,7.0
6,14.867000102996826,distr,45132.999897003174,Wed Aug 20 2025 16:56:44 GMT-0400 (Eastern Daylight Time),789997.9000000954,B,oceanenter,I,enter,1058,2,2432.9000000953674,787565.0,9019,WL,B,7.0
6,18.067000150680542,distr,41932.99984931946,Wed Aug 20 2025 16:56:44 GMT-0400 (Eastern Daylight Time),793198.3000001907,B,b,I,b,3179,2,3200.0999999046326,789998.2000002861,9019,WL,B,8.0
6,18.18400001525879,distr,41815.99998474121,Wed Aug 20 2025 16:56:44 GMT-0400 (Eastern Daylight Time),793315.2000002861,B,ba,I,a,102,2,3317.0,789998.2000002861,9019,WL,B,8.0
6,18.384000062942505,distr,41615.999937057495,Wed Aug 20 2025 16:56:44 GMT-0400 (Eastern Daylight Time),793515.0999999046,B,bar,I,r,177,2,3516.8999996185303,789998.2000002861,9019,WL,B,8.0
6,18.75,distr,41250.0,Wed Aug 20 2025 16:56:44 GMT-0400 (Eastern Daylight Time),793881.3000001907,B,barenter,I,enter,346,2,3883.0999999046326,789998.2000002861,9019,WL,B,8.0
6,19.25,distr,40750.0,Wed Aug 20 2025 16:56:44 GMT-0400 (Eastern Daylight Time),794381.7000002861,B,l,I,l,479,2,500.1000003814697,793881.5999999046,9019,WL,B,9.0
6,19.467000007629395,distr,40532.999992370605,Wed Aug 20 2025 16:56:44 GMT-0400 (Eastern Daylight Time),794598.4000000954,B,li,I,i,198,2,716.8000001907349,793881.5999999046,9019,WL,B,9.0
6,19.700000047683716,distr,40299.999952316284,Wed Aug 20 2025 16:56:44 GMT-0400 (Eastern Daylight Time),794831.4000000954,B,lip,I,p,208,2,949.8000001907349,793881.5999999046,9019,WL,B,9.0
6,20.25,distr,39750.0,Wed Aug 20 2025 16:56:44 GMT-0400 (Eastern Daylight Time),795381.3000001907,B,lipenter,I,enter,532,2,1499.7000002861023,793881.5999999046,9019,WL,B,9.0
6,20.41700005531311,distr,39582.99994468689,Wed Aug 20 2025 16:56:44 GMT-0400 (Eastern Daylight Time),795548.4000000954,B,s,I,s,149,2,166.80000019073486,795381.5999999046,9019,WL,B,10.0
6,21.117000102996826,distr,38882.999897003174,Wed Aug 20 2025 16:56:44 GMT-0400 (Eastern Daylight Time),796248.4000000954,B,st,I,t,682,2,866.8000001907349,795381.5999999046,9019,WL,B,10.0
6,21.384000062942505,distr,38615.999937057495,Wed Aug 20 2025 16:56:44 GMT-0400 (Eastern Daylight Time),796515.0999999046,B,ste,I,e,254,2,1133.5,795381.5999999046,9019,WL,B,10.0
6,21.600000143051147,distr,38399.99985694885,Wed Aug 20 2025 16:56:44 GMT-0400 (Eastern Daylight Time),796731.8000001907,B,stea,I,a,195,2,1350.2000002861023,795381.5999999046,9019,WL,B,10.0
6,21.75,distr,38250.0,Wed Aug 20 2025 16:56:44 GMT-0400 (Eastern Daylight Time),796881.7000002861,B,steam,I,m,137,2,1500.1000003814697,795381.5999999046,9019,WL,B,10.0
6,22.282999992370605,distr,37717.000007629395,Wed Aug 20 2025 16:56:44 GMT-0400 (Eastern Daylight Time),797414.7000002861,B,steamenter,I,enter,517,2,2033.1000003814697,795381.5999999046,9019,WL,B,10.0
6,22.483999967575073,distr,37516.00003242493,Wed Aug 20 2025 16:56:44 GMT-0400 (Eastern Daylight Time),797615.2000002861,B,d,I,d,178,2,200.30000019073486,797414.9000000954,9019,WL,B,11.0
6,22.65000009536743,distr,37349.99990463257,Wed Aug 20 2025 16:56:44 GMT-0400 (Eastern Daylight Time),797781.7000002861,B,dr,I,r,151,2,366.80000019073486,797414.9000000954,9019,WL,B,11.0
6,22.75,distr,37250.0,Wed Aug 20 2025 16:56:44 GMT-0400 (Eastern Daylight Time),797881.8000001907,B,dre,I,e,80,2,466.90000009536743,797414.9000000954,9019,WL,B,11.0
6,22.91700005531311,distr,37082.99994468689,Wed Aug 20 2025 16:56:44 GMT-0400 (Eastern Daylight Time),798048.2000002861,B,dres,I,s,147,2,633.3000001907349,797414.9000000954,9019,WL,B,11.0
6,23.08400011062622,distr,36915.99988937378,Wed Aug 20 2025 16:56:44 GMT-0400 (Eastern Daylight Time),798215.3000001907,B,dress,I,s,151,2,800.4000000953674,797414.9000000954,9019,WL,B,11.0
6,24.350000143051147,distr,35649.99985694885,Wed Aug 20 2025 16:56:44 GMT-0400 (Eastern Daylight Time),799481.3000001907,B,dressenter,I,enter,1243,2,2066.4000000953674,797414.9000000954,9019,WL,B,11.0
6,33.0,distr,27000.0,Wed Aug 20 2025 16:56:44 GMT-0400 (Eastern Daylight Time),808131.8000001907,B,r,I,r,8640,2,8650.099999904633,799481.7000002861,9019,WL,B,12.0
6,33.134000062942505,distr,26865.999937057495,Wed Aug 20 2025 16:56:44 GMT-0400 (Eastern Daylight Time),808265.2000002861,B,ro,I,o,114,2,8783.5,799481.7000002861,9019,WL,B,12.0
6,33.299999952316284,distr,26700.000047683716,Wed Aug 20 2025 16:56:44 GMT-0400 (Eastern Daylight Time),808431.8000001907,B,roc,I,c,142,2,8950.099999904633,799481.7000002861,9019,WL,B,12.0
6,33.367000102996826,distr,26632.999897003174,Wed Aug 20 2025 16:56:44 GMT-0400 (Eastern Daylight Time),808498.2000002861,B,rock,I,k,54,2,9016.5,799481.7000002861,9019,WL,B,12.0
6,34.83299994468689,distr,25167.00005531311,Wed Aug 20 2025 16:56:44 GMT-0400 (Eastern Daylight Time),809964.7000002861,B,rockenter,I,enter,1439,2,10483.0,799481.7000002861,9019,WL,B,12.0
6,60.01699995994568,distr,-16.99995994567871,Wed Aug 20 2025 16:56:44 GMT-0400 (Eastern Daylight Time),835148.5999999046,B,None,I,None,25177,2,25183.599999904633,809965.0,9019,WL,B,13.0
7,0.5509998798370361,immed,59449.000120162964,Wed Aug 20 2025 16:56:44 GMT-0400 (Eastern Daylight Time),848032.0999999046,A,s,I,s,541,2,550.1999998092651,847481.9000000954,9019,WL,B,1.0
7,0.9169998168945312,immed,59083.00018310547,Wed Aug 20 2025 16:56:44 GMT-0400 (Eastern Daylight Time),848398.0,A,st,I,t,339,2,916.0999999046326,847481.9000000954,9019,WL,B,1.0
7,1.0839998722076416,immed,58916.00012779236,Wed Aug 20 2025 16:56:44 GMT-0400 (Eastern Daylight Time),848565.2000002861,A,str,I,r,155,2,1083.3000001907349,847481.9000000954,9019,WL,B,1.0
7,1.1669998168945312,immed,58833.00018310547,Wed Aug 20 2025 16:56:44 GMT-0400 (Eastern Daylight Time),848648.2000002861,A,stre,I,e,55,2,1166.3000001907349,847481.9000000954,9019,WL,B,1.0
7,1.3499999046325684,immed,58650.00009536743,Wed Aug 20 2025 16:56:44 GMT-0400 (Eastern Daylight Time),848831.9000000954,A,stree,I,e,158,2,1350.0,847481.9000000954,9019,WL,B,1.0
7,1.4670000076293945,immed,58532.999992370605,Wed Aug 20 2025 16:56:44 GMT-0400 (Eastern Daylight Time),848948.5,A,street,I,t,103,2,1466.5999999046326,847481.9000000954,9019,WL,B,1.0
7,1.9499998092651367,immed,58050.00019073486,Wed Aug 20 2025 16:56:44 GMT-0400 (Eastern Daylight Time),849431.4000000954,A,streetenter,I,enter,457,2,1949.5,847481.9000000954,9019,WL,B,1.0
7,2.566999912261963,immed,57433.00008773804,Wed Aug 20 2025 16:56:44 GMT-0400 (Eastern Daylight Time),850048.3000001907,A,g,I,g,610,2,616.7000002861023,849431.5999999046,9019,WL,B,2.0
7,2.7669999599456787,immed,57233.00004005432,Wed Aug 20 2025 16:56:44 GMT-0400 (Eastern Daylight Time),850248.5,A,gr,I,r,183,2,816.9000000953674,849431.5999999046,9019,WL,B,2.0
7,2.934000015258789,immed,57065.99998474121,Wed Aug 20 2025 16:56:44 GMT-0400 (Eastern Daylight Time),850415.2000002861,A,gra,I,a,139,2,983.6000003814697,849431.5999999046,9019,WL,B,2.0
7,3.133999824523926,immed,56866.000175476074,Wed Aug 20 2025 16:56:44 GMT-0400 (Eastern Daylight Time),850615.2000002861,A,gras,I,s,176,2,1183.6000003814697,849431.5999999046,9019,WL,B,2.0
7,3.5169999599456787,immed,56483.00004005432,Wed Aug 20 2025 16:56:44 GMT-0400 (Eastern Daylight Time),850998.4000000954,A,grass,I,s,368,2,1566.8000001907349,849431.5999999046,9019,WL,B,2.0
7,4.0329999923706055,immed,55967.000007629395,Wed Aug 20 2025 16:56:44 GMT-0400 (Eastern Daylight Time),851514.7000002861,A,grassenter,I,enter,496,2,2083.1000003814697,849431.5999999046,9019,WL,B,2.0
7,4.7170000076293945,immed,55282.999992370605,Wed Aug 20 2025 16:56:44 GMT-0400 (Eastern Daylight Time),852198.4000000954,A,a,I,a,671,2,683.4000000953674,851515.0,9019,WL,B,3.0
7,5.7170000076293945,immed,54282.999992370605,Wed Aug 20 2025 16:56:44 GMT-0400 (Eastern Daylight Time),853198.5999999046,A,ar,I,r,975,2,1683.5999999046326,851515.0,9019,WL,B,3.0
7,6.184000015258789,immed,53815.99998474121,Wed Aug 20 2025 16:56:44 GMT-0400 (Eastern Daylight Time),853665.0,A,arn,I,n,453,2,2150.0,851515.0,9019,WL,B,3.0
7,7.299999952316284,immed,52700.000047683716,Wed Aug 20 2025 16:56:44 GMT-0400 (Eastern Daylight Time),854781.8000001907,A,ar,I,backspace,1093,2,3266.800000190735,851515.0,9019,WL,B,3.0
7,8.266999959945679,immed,51733.00004005432,Wed Aug 20 2025 16:56:44 GMT-0400 (Eastern Daylight Time),855748.4000000954,A,a,I,backspace,952,2,4233.400000095367,851515.0,9019,WL,B,3.0
7,9.883999824523926,immed,50116.000175476074,Wed Aug 20 2025 16:56:44 GMT-0400 (Eastern Daylight Time),857365.2000002861,A,ar,I,r,1602,2,5850.200000286102,851515.0,9019,WL,B,3.0
7,10.383999824523926,immed,49616.000175476074,Wed Aug 20 2025 16:56:44 GMT-0400 (Eastern Daylight Time),857865.2000002861,A,arm,I,m,481,2,6350.200000286102,851515.0,9019,WL,B,3.0
7,10.916999816894531,immed,49083.00018310547,Wed Aug 20 2025 16:56:44 GMT-0400 (Eastern Daylight Time),858397.9000000954,A,armenter,I,enter,506,2,6882.900000095367,851515.0,9019,WL,B,3.0
7,11.666999816894531,immed,48333.00018310547,Wed Aug 20 2025 16:56:44 GMT-0400 (Eastern Daylight Time),859148.5,A,d,I,d,732,2,750.1999998092651,858398.3000001907,9019,WL,B,4.0
7,12.083999872207642,immed,47916.00012779236,Wed Aug 20 2025 16:56:44 GMT-0400 (Eastern Daylight Time),859565.0999999046,A,do,I,o,392,2,1166.7999997138977,858398.3000001907,9019,WL,B,4.0
7,12.233999967575073,immed,47766.00003242493,Wed Aug 20 2025 16:56:44 GMT-0400 (Eastern Daylight Time),859715.2000002861,A,doo,I,o,129,2,1316.9000000953674,858398.3000001907,9019,WL,B,4.0
7,12.416999816894531,immed,47583.00018310547,Wed Aug 20 2025 16:56:44 GMT-0400 (Eastern Daylight Time),859898.5,A,door,I,r,154,2,1500.1999998092651,858398.3000001907,9019,WL,B,4.0
7,12.616999864578247,immed,47383.00013542175,Wed Aug 20 2025 16:56:44 GMT-0400 (Eastern Daylight Time),860098.0,A,doorenter,I,enter,188,2,1699.6999998092651,858398.3000001907,9019,WL,B,4.0
7,12.816999912261963,immed,47183.00008773804,Wed Aug 20 2025 16:56:44 GMT-0400 (Eastern Daylight Time),860298.5999999046,A,w,I,w,184,2,200.2999997138977,860098.3000001907,9019,WL,B,5.0
7,13.717000007629395,immed,46282.999992370605,Wed Aug 20 2025 16:56:44 GMT-0400 (Eastern Daylight Time),861198.5,A,wi,I,i,875,2,1100.1999998092651,860098.3000001907,9019,WL,B,5.0
7,13.816999912261963,immed,46183.00008773804,Wed Aug 20 2025 16:56:44 GMT-0400 (Eastern Daylight Time),861298.4000000954,A,win,I,n,88,2,1200.0999999046326,860098.3000001907,9019,WL,B,5.0
7,14.266999959945679,immed,45733.00004005432,Wed Aug 20 2025 16:56:44 GMT-0400 (Eastern Daylight Time),861748.5,A,wind,I,d,437,2,1650.1999998092651,860098.3000001907,9019,WL,B,5.0
7,14.399999856948853,immed,45600.00014305115,Wed Aug 20 2025 16:56:44 GMT-0400 (Eastern Daylight Time),861881.9000000954,A,windo,I,o,112,2,1783.5999999046326,860098.3000001907,9019,WL,B,5.0
7,14.550999879837036,immed,45449.000120162964,Wed Aug 20 2025 16:56:44 GMT-0400 (Eastern Daylight Time),862032.0999999046,A,window,I,w,123,2,1933.7999997138977,860098.3000001907,9019,WL,B,5.0
7,15.316999912261963,immed,44683.00008773804,Wed Aug 20 2025 16:56:44 GMT-0400 (Eastern Daylight Time),862798.0,A,windowenter,I,enter,733,2,2699.699999809265,860098.3000001907,9019,WL,B,5.0
7,16.58399987220764,immed,43416.00012779236,Wed Aug 20 2025 16:56:44 GMT-0400 (Eastern Daylight Time),864064.9000000954,A,w,I,w,1259,2,1266.5,862798.4000000954,9019,WL,B,6.0
7,16.699999809265137,immed,43300.00019073486,Wed Aug 20 2025 16:56:44 GMT-0400 (Eastern Daylight Time),864182.0,A,wi,I,i,99,2,1383.5999999046326,862798.4000000954,9019,WL,B,6.0
7,16.91699981689453,immed,43083.00018310547,Wed Aug 20 2025 16:56:44 GMT-0400 (Eastern Daylight Time),864398.4000000954,A,wif,I,f,192,2,1600.0,862798.4000000954,9019,WL,B,6.0
7,16.949999809265137,immed,43050.00019073486,Wed Aug 20 2025 16:56:44 GMT-0400 (Eastern Daylight Time),864431.4000000954,A,wife,I,e,16,2,1633.0,862798.4000000954,9019,WL,B,6.0
7,17.58299994468689,immed,42417.00005531311,Wed Aug 20 2025 16:56:44 GMT-0400 (Eastern Daylight Time),865064.7000002861,A,wifeenter,I,enter,616,2,2266.300000190735,862798.4000000954,9019,WL,B,6.0
7,18.133999824523926,immed,41866.000175476074,Wed Aug 20 2025 16:56:44 GMT-0400 (Eastern Daylight Time),865615.0,A,c,I,c,528,2,550.0,865065.0,9019,WL,B,7.0
7,18.41699981689453,immed,41583.00018310547,Wed Aug 20 2025 16:56:44 GMT-0400 (Eastern Daylight Time),865898.5,A,ci,I,i,264,2,833.5,865065.0,9019,WL,B,7.0
7,18.566999912261963,immed,41433.00008773804,Wed Aug 20 2025 16:56:44 GMT-0400 (Eastern Daylight Time),866048.4000000954,A,cit,I,t,139,2,983.4000000953674,865065.0,9019,WL,B,7.0
7,18.651000022888184,immed,41348.99997711182,Wed Aug 20 2025 16:56:44 GMT-0400 (Eastern Daylight Time),866132.0,A,city,I,y,61,2,1067.0,865065.0,9019,WL,B,7.0
7,18.882999897003174,immed,41117.000102996826,Wed Aug 20 2025 16:56:44 GMT-0400 (Eastern Daylight Time),866364.8000001907,A,cityenter,I,enter,210,2,1299.8000001907349,865065.0,9019,WL,B,7.0
7,19.01699995994568,immed,40983.00004005432,Wed Aug 20 2025 16:56:44 GMT-0400 (Eastern Daylight Time),866498.5,A,c,I,c,125,2,133.5,866365.0,9019,WL,B,8.0
7,19.149999856948853,immed,40850.00014305115,Wed Aug 20 2025 16:56:44 GMT-0400 (Eastern Daylight Time),866631.8000001907,A,ca,I,a,115,2,266.80000019073486,866365.0,9019,WL,B,8.0
7,19.25,immed,40750.0,Wed Aug 20 2025 16:56:44 GMT-0400 (Eastern Daylight Time),866731.8000001907,A,cab,I,b,71,2,366.80000019073486,866365.0,9019,WL,B,8.0
7,19.93400001525879,immed,40065.99998474121,Wed Aug 20 2025 16:56:44 GMT-0400 (Eastern Daylight Time),867415.0999999046,A,cabi,I,i,659,2,1050.0999999046326,866365.0,9019,WL,B,8.0
7,20.09999990463257,immed,39900.00009536743,Wed Aug 20 2025 16:56:44 GMT-0400 (Eastern Daylight Time),867582.0,A,cabin,I,n,143,2,1217.0,866365.0,9019,WL,B,8.0
7,21.26699995994568,immed,38733.00004005432,Wed Aug 20 2025 16:56:44 GMT-0400 (Eastern Daylight Time),868748.0999999046,A,cabinenter,I,enter,1143,2,2383.0999999046326,866365.0,9019,WL,B,8.0
7,22.217000007629395,immed,37782.999992370605,Wed Aug 20 2025 16:56:44 GMT-0400 (Eastern Daylight Time),869698.5,A,p,I,p,941,2,950.1999998092651,868748.3000001907,9019,WL,B,9.0
7,22.43400001525879,immed,37565.99998474121,Wed Aug 20 2025 16:56:44 GMT-0400 (Eastern Daylight Time),869915.2000002861,A,pu,I,u,195,2,1166.9000000953674,868748.3000001907,9019,WL,B,9.0
7,22.651000022888184,immed,37348.99997711182,Wed Aug 20 2025 16:56:44 GMT-0400 (Eastern Daylight Time),870132.0,A,pup,I,p,203,2,1383.6999998092651,868748.3000001907,9019,WL,B,9.0
7,22.949999809265137,immed,37050.00019073486,Wed Aug 20 2025 16:56:44 GMT-0400 (Eastern Daylight Time),870431.9000000954,A,pupi,I,i,267,2,1683.5999999046326,868748.3000001907,9019,WL,B,9.0
7,23.316999912261963,immed,36683.00008773804,Wed Aug 20 2025 16:56:44 GMT-0400 (Eastern Daylight Time),870798.0,A,pupil,I,l,339,2,2049.699999809265,868748.3000001907,9019,WL,B,9.0
7,25.116999864578247,immed,34883.00013542175,Wed Aug 20 2025 16:56:44 GMT-0400 (Eastern Daylight Time),872598.0999999046,A,pupilenter,I,enter,1787,2,3849.7999997138977,868748.3000001907,9019,WL,B,9.0
7,25.967000007629395,immed,34032.999992370605,Wed Aug 20 2025 16:56:44 GMT-0400 (Eastern Daylight Time),873448.5,A,s,I,s,836,2,850.0999999046326,872598.4000000954,9019,WL,B,10.0
7,26.133999824523926,immed,33866.000175476074,Wed Aug 20 2025 16:56:44 GMT-0400 (Eastern Daylight Time),873615.3000001907,A,sk,I,k,140,2,1016.9000000953674,872598.4000000954,9019,WL,B,10.0
7,26.283999919891357,immed,33716.00008010864,Wed Aug 20 2025 16:56:44 GMT-0400 (Eastern Daylight Time),873765.2000002861,A,ski,I,i,136,2,1166.8000001907349,872598.4000000954,9019,WL,B,10.0
7,26.66699981689453,immed,33333.00018310547,Wed Aug 20 2025 16:56:44 GMT-0400 (Eastern Daylight Time),874148.5,A,skin,I,n,368,2,1550.0999999046326,872598.4000000954,9019,WL,B,10.0
7,26.949999809265137,immed,33050.00019073486,Wed Aug 20 2025 16:56:44 GMT-0400 (Eastern Daylight Time),874431.4000000954,A,skinenter,I,enter,272,2,1833.0,872598.4000000954,9019,WL,B,10.0
7,27.149999856948853,immed,32850.00014305115,Wed Aug 20 2025 16:56:44 GMT-0400 (Eastern Daylight Time),874631.9000000954,A,s,I,s,187,2,200.19999980926514,874431.7000002861,9019,WL,B,11.0
7,27.366999864578247,immed,32633.000135421753,Wed Aug 20 2025 16:56:44 GMT-0400 (Eastern Daylight Time),874848.5,A,st,I,t,190,2,416.7999997138977,874431.7000002861,9019,WL,B,11.0
7,27.533999919891357,immed,32466.000080108643,Wed Aug 20 2025 16:56:44 GMT-0400 (Eastern Daylight Time),875015.3000001907,A,sta,I,a,150,2,583.5999999046326,874431.7000002861,9019,WL,B,11.0
7,27.750999927520752,immed,32249.000072479248,Wed Aug 20 2025 16:56:44 GMT-0400 (Eastern Daylight Time),875232.0,A,star,I,r,191,2,800.2999997138977,874431.7000002861,9019,WL,B,11.0
7,28.549999952316284,immed,31450.000047683716,Wed Aug 20 2025 16:56:44 GMT-0400 (Eastern Daylight Time),876031.4000000954,A,starenter,I,enter,781,2,1599.6999998092651,874431.7000002861,9019,WL,B,11.0
7,38.217000007629395,immed,21782.999992370605,Wed Aug 20 2025 16:56:44 GMT-0400 (Eastern Daylight Time),885698.5,A,l,I,l,9658,2,9666.799999713898,876031.7000002861,9019,WL,B,12.0
7,38.36699986457825,immed,21633.000135421753,Wed Aug 20 2025 16:56:44 GMT-0400 (Eastern Daylight Time),885848.5,A,la,I,a,131,2,9816.799999713898,876031.7000002861,9019,WL,B,12.0
7,38.5,immed,21500.0,Wed Aug 20 2025 16:56:44 GMT-0400 (Eastern Daylight Time),885981.9000000954,A,lak,I,k,110,2,9950.199999809265,876031.7000002861,9019,WL,B,12.0
7,38.633999824523926,immed,21366.000175476074,Wed Aug 20 2025 16:56:44 GMT-0400 (Eastern Daylight Time),886115.2000002861,A,lake,I,e,111,2,10083.5,876031.7000002861,9019,WL,B,12.0
7,39.31699991226196,immed,20683.000087738037,Wed Aug 20 2025 16:56:44 GMT-0400 (Eastern Daylight Time),886798.0,A,lakeenter,I,enter,658,2,10766.299999713898,876031.7000002861,9019,WL,B,12.0
7,60.01699995994568,immed,-16.99995994567871,Wed Aug 20 2025 16:56:44 GMT-0400 (Eastern Daylight Time),907498.5999999046,A,None,I,None,20694,2,20700.299999713898,886798.3000001907,9019,WL,B,13.0
