block_c,block_dur,condition,countdown,datetime,endtime,list,multichar_response,project,response,response_time,session_number,start_end,starttime,subject_id,task,task_vers,trial
,,,,Wed Mar 25 2026 10:28:46 GMT-0500 (Central Daylight Time),,,,O,space,566,1,,,7786,WL,C,
prac,,0,,Wed Mar 25 2026 10:28:46 GMT-0500 (Central Daylight Time),,NA,b,O,b,2518,1,,,7786,WL,C,1.0
prac,,0,,Wed Mar 25 2026 10:28:46 GMT-0500 (Central Daylight Time),,NA,bo,O,o,514,1,,,7786,WL,C,1.0
prac,,0,,Wed Mar 25 2026 10:28:46 GMT-0500 (Central Daylight Time),,NA,boo,O,o,258,1,,,7786,WL,C,1.0
prac,,0,,Wed Mar 25 2026 10:28:46 GMT-0500 (Central Daylight Time),,NA,boos,O,s,220,1,,,7786,WL,C,1.0
prac,,0,,Wed Mar 25 2026 10:28:46 GMT-0500 (Central Daylight Time),,NA,boost,O,t,741,1,,,7786,WL,C,1.0
prac,,0,,Wed Mar 25 2026 10:28:46 GMT-0500 (Central Daylight Time),,NA,boostenter,O,enter,3087,1,,,7786,WL,C,1.0
1,2.615999937057495,learn,57384.000062942505,Wed Mar 25 2026 10:28:46 GMT-0500 (Central Daylight Time),140965.0,A,c,O,c,2588,1,2615.4000000953674,138349.59999990463,7786,WL,C,1.0
1,2.9649999141693115,learn,57035.00008583069,Wed Mar 25 2026 10:28:46 GMT-0500 (Central Daylight Time),141314.29999995232,A,co,O,o,342,1,2964.7000000476837,138349.59999990463,7786,WL,C,1.0
1,3.3309998512268066,learn,56669.00014877319,Wed Mar 25 2026 10:28:46 GMT-0500 (Central Daylight Time),141680.09999990463,A,cor,O,r,355,1,3330.5,138349.59999990463,7786,WL,C,1.0
1,4.732999801635742,learn,55267.00019836426,Wed Mar 25 2026 10:28:46 GMT-0500 (Central Daylight Time),143081.90000009537,A,corn,O,n,1388,1,4732.300000190735,138349.59999990463,7786,WL,C,1.0
1,5.929999828338623,learn,54070.00017166138,Wed Mar 25 2026 10:28:46 GMT-0500 (Central Daylight Time),144279.29999995232,A,cornenter,O,enter,1176,1,5929.700000047684,138349.59999990463,7786,WL,C,1.0
1,7.0299999713897705,learn,52970.00002861023,Wed Mar 25 2026 10:28:46 GMT-0500 (Central Daylight Time),145379.20000004768,A,w,O,w,1086,1,1099.5,144279.70000004768,7786,WL,C,2.0
1,7.246999979019165,learn,52753.000020980835,Wed Mar 25 2026 10:28:46 GMT-0500 (Central Daylight Time),145596.20000004768,A,wh,O,h,209,1,1316.5,144279.70000004768,7786,WL,C,2.0
1,7.73199987411499,learn,52268.00012588501,Wed Mar 25 2026 10:28:46 GMT-0500 (Central Daylight Time),146081.59999990463,A,whe,O,e,474,1,1801.8999998569489,144279.70000004768,7786,WL,C,2.0
1,8.128999948501587,learn,51871.00005149841,Wed Mar 25 2026 10:28:46 GMT-0500 (Central Daylight Time),146478.70000004768,A,whea,O,a,385,1,2199.0,144279.70000004768,7786,WL,C,2.0
1,8.680999994277954,learn,51319.000005722046,Wed Mar 25 2026 10:28:46 GMT-0500 (Central Daylight Time),147030.5,A,wheat,O,t,535,1,2750.7999999523163,144279.70000004768,7786,WL,C,2.0
1,9.961999893188477,learn,50038.00010681152,Wed Mar 25 2026 10:28:46 GMT-0500 (Central Daylight Time),148311.09999990463,A,wheatt,O,t,1269,1,4031.399999856949,144279.70000004768,7786,WL,C,2.0
1,10.27999997138977,learn,49720.00002861023,Wed Mar 25 2026 10:28:46 GMT-0500 (Central Daylight Time),148629.20000004768,A,wheatto,O,o,304,1,4349.5,144279.70000004768,7786,WL,C,2.0
1,10.69599986076355,learn,49304.00013923645,Wed Mar 25 2026 10:28:46 GMT-0500 (Central Daylight Time),149045.29999995232,A,wheattow,O,w,401,1,4765.599999904633,144279.70000004768,7786,WL,C,2.0
1,10.92799997329712,learn,49072.00002670288,Wed Mar 25 2026 10:28:46 GMT-0500 (Central Daylight Time),149277.5,A,wheattowe,O,e,215,1,4997.799999952316,144279.70000004768,7786,WL,C,2.0
1,11.411999940872192,learn,48588.00005912781,Wed Mar 25 2026 10:28:46 GMT-0500 (Central Daylight Time),149761.70000004768,A,wheattower,O,r,462,1,5482.0,144279.70000004768,7786,WL,C,2.0
1,12.828999996185303,learn,47171.0000038147,Wed Mar 25 2026 10:28:46 GMT-0500 (Central Daylight Time),151178.5,A,wheattowerc,O,c,1394,1,6898.799999952316,144279.70000004768,7786,WL,C,2.0
1,16.210999965667725,learn,43789.000034332275,Wed Mar 25 2026 10:28:46 GMT-0500 (Central Daylight Time),154560.09999990463,A,wheattower,O,backspace,3370,1,10280.399999856949,144279.70000004768,7786,WL,C,2.0
1,16.41100001335144,learn,43588.99998664856,Wed Mar 25 2026 10:28:46 GMT-0500 (Central Daylight Time),154760.59999990463,A,wheattowe,O,backspace,188,1,10480.899999856949,144279.70000004768,7786,WL,C,2.0
1,16.610999822616577,learn,43389.00017738342,Wed Mar 25 2026 10:28:46 GMT-0500 (Central Daylight Time),154959.90000009537,A,wheattow,O,backspace,182,1,10680.200000047684,144279.70000004768,7786,WL,C,2.0
1,16.794999837875366,learn,43205.000162124634,Wed Mar 25 2026 10:28:46 GMT-0500 (Central Daylight Time),155143.90000009537,A,wheatto,O,backspace,164,1,10864.200000047684,144279.70000004768,7786,WL,C,2.0
1,17.393999814987183,learn,42606.00018501282,Wed Mar 25 2026 10:28:46 GMT-0500 (Central Daylight Time),155743.5,A,wheatt,O,backspace,579,1,11463.799999952316,144279.70000004768,7786,WL,C,2.0
1,17.76099991798401,learn,42239.00008201599,Wed Mar 25 2026 10:28:46 GMT-0500 (Central Daylight Time),156110.20000004768,A,wheat,O,backspace,361,1,11830.5,144279.70000004768,7786,WL,C,2.0
1,18.944000005722046,learn,41055.999994277954,Wed Mar 25 2026 10:28:46 GMT-0500 (Central Daylight Time),157292.70000004768,A,wheatenter,O,enter,1159,1,13013.0,144279.70000004768,7786,WL,C,2.0
1,20.574999809265137,learn,39425.00019073486,Wed Mar 25 2026 10:28:46 GMT-0500 (Central Daylight Time),158924.59999990463,A,t,O,t,1617,1,1631.5999999046326,157293.0,7786,WL,C,3.0
1,20.758999824523926,learn,39241.000175476074,Wed Mar 25 2026 10:28:46 GMT-0500 (Central Daylight Time),159108.09999990463,A,to,O,o,169,1,1815.0999999046326,157293.0,7786,WL,C,3.0
1,21.191999912261963,learn,38808.00008773804,Wed Mar 25 2026 10:28:46 GMT-0500 (Central Daylight Time),159541.40000009537,A,tow,O,w,413,1,2248.4000000953674,157293.0,7786,WL,C,3.0
1,21.526000022888184,learn,38473.99997711182,Wed Mar 25 2026 10:28:46 GMT-0500 (Central Daylight Time),159874.90000009537,A,towe,O,e,320,1,2581.9000000953674,157293.0,7786,WL,C,3.0
1,21.896999835968018,learn,38103.00016403198,Wed Mar 25 2026 10:28:46 GMT-0500 (Central Daylight Time),160246.29999995232,A,tower,O,r,352,1,2953.2999999523163,157293.0,7786,WL,C,3.0
1,22.763999938964844,learn,37236.000061035156,Wed Mar 25 2026 10:28:46 GMT-0500 (Central Daylight Time),161113.0,A,towerenter,O,enter,837,1,3820.0,157293.0,7786,WL,C,3.0
1,23.79099988937378,learn,36209.00011062622,Wed Mar 25 2026 10:28:46 GMT-0500 (Central Daylight Time),162140.0,A,b,O,b,1014,1,1026.7999999523163,161113.20000004768,7786,WL,C,4.0
1,24.14299988746643,learn,35857.00011253357,Wed Mar 25 2026 10:28:46 GMT-0500 (Central Daylight Time),162491.79999995232,A,bo,O,o,336,1,1378.5999999046326,161113.20000004768,7786,WL,C,4.0
1,24.97499990463257,learn,35025.00009536743,Wed Mar 25 2026 10:28:46 GMT-0500 (Central Daylight Time),163324.20000004768,A,boy,O,y,817,1,2211.0,161113.20000004768,7786,WL,C,4.0
1,26.074999809265137,learn,33925.00019073486,Wed Mar 25 2026 10:28:46 GMT-0500 (Central Daylight Time),164424.40000009537,A,boyenter,O,enter,1083,1,3311.2000000476837,161113.20000004768,7786,WL,C,4.0
1,27.256999969482422,learn,32743.000030517578,Wed Mar 25 2026 10:28:46 GMT-0500 (Central Daylight Time),165606.29999995232,A,c,O,c,1174,1,1181.7000000476837,164424.59999990463,7786,WL,C,5.0
1,27.957000017166138,learn,32042.999982833862,Wed Mar 25 2026 10:28:46 GMT-0500 (Central Daylight Time),166306.5,A,ca,O,a,693,1,1881.9000000953674,164424.59999990463,7786,WL,C,5.0
1,28.738999843597412,learn,31261.000156402588,Wed Mar 25 2026 10:28:46 GMT-0500 (Central Daylight Time),167088.5,A,cat,O,t,771,1,2663.9000000953674,164424.59999990463,7786,WL,C,5.0
1,28.924000024795532,learn,31075.999975204468,Wed Mar 25 2026 10:28:46 GMT-0500 (Central Daylight Time),167272.90000009537,A,catt,O,t,173,1,2848.300000190735,164424.59999990463,7786,WL,C,5.0
1,29.391000032424927,learn,30608.999967575073,Wed Mar 25 2026 10:28:46 GMT-0500 (Central Daylight Time),167739.79999995232,A,cattl,O,l,461,1,3315.2000000476837,164424.59999990463,7786,WL,C,5.0
1,29.888999938964844,learn,30111.000061035156,Wed Mar 25 2026 10:28:46 GMT-0500 (Central Daylight Time),168238.5,A,cattle,O,e,481,1,3813.9000000953674,164424.59999990463,7786,WL,C,5.0
1,31.35599994659424,learn,28644.00005340576,Wed Mar 25 2026 10:28:46 GMT-0500 (Central Daylight Time),169705.0,A,cattleenter,O,enter,1446,1,5280.400000095367,164424.59999990463,7786,WL,C,5.0
1,36.9210000038147,learn,23078.999996185303,Wed Mar 25 2026 10:28:46 GMT-0500 (Central Daylight Time),175269.90000009537,A,enter,O,enter,5549,1,5564.600000143051,169705.29999995232,7786,WL,C,6.0
1,37.7039999961853,learn,22296.000003814697,Wed Mar 25 2026 10:28:46 GMT-0500 (Central Daylight Time),176052.79999995232,A,enter,O,enter,769,1,782.5,175270.29999995232,7786,WL,C,7.0
1,38.28999996185303,learn,21710.000038146973,Wed Mar 25 2026 10:28:46 GMT-0500 (Central Daylight Time),176639.0,A,enter,O,enter,570,1,585.7999999523163,176053.20000004768,7786,WL,C,8.0
1,38.70199990272522,learn,21298.00009727478,Wed Mar 25 2026 10:28:46 GMT-0500 (Central Daylight Time),177052.09999990463,A,enter,O,enter,399,1,412.7999999523163,176639.29999995232,7786,WL,C,9.0
1,38.95199990272522,learn,21048.00009727478,Wed Mar 25 2026 10:28:46 GMT-0500 (Central Daylight Time),177302.0,A,enter,O,enter,245,1,249.5,177052.5,7786,WL,C,10.0
1,39.22000002861023,learn,20779.99997138977,Wed Mar 25 2026 10:28:46 GMT-0500 (Central Daylight Time),177569.70000004768,A,enter,O,enter,248,1,267.2999999523163,177302.40000009537,7786,WL,C,11.0
1,39.484999895095825,learn,20515.000104904175,Wed Mar 25 2026 10:28:46 GMT-0500 (Central Daylight Time),177835.5,A,enter,O,enter,262,1,265.5,177570.0,7786,WL,C,12.0
1,39.86999988555908,learn,20130.000114440918,Wed Mar 25 2026 10:28:46 GMT-0500 (Central Daylight Time),178219.79999995232,A,enter,O,enter,371,1,384.0,177835.79999995232,7786,WL,C,13.0
1,40.18499994277954,learn,19815.00005722046,Wed Mar 25 2026 10:28:46 GMT-0500 (Central Daylight Time),178535.5,A,enter,O,enter,308,1,315.40000009536743,178220.09999990463,7786,WL,C,14.0
1,40.70099997520447,learn,19299.000024795532,Wed Mar 25 2026 10:28:46 GMT-0500 (Central Daylight Time),179051.5,A,enter,O,enter,502,1,515.7000000476837,178535.79999995232,7786,WL,C,15.0
2,1.116999864578247,learn,58883.00013542175,Wed Mar 25 2026 10:28:46 GMT-0500 (Central Daylight Time),250096.59999990463,A,t,O,t,1105,1,1116.7999999523163,248979.79999995232,7786,WL,C,1.0
2,1.3829998970031738,learn,58617.000102996826,Wed Mar 25 2026 10:28:46 GMT-0500 (Central Daylight Time),250362.0,A,to,O,o,254,1,1382.2000000476837,248979.79999995232,7786,WL,C,1.0
2,1.816999912261963,learn,58183.00008773804,Wed Mar 25 2026 10:28:46 GMT-0500 (Central Daylight Time),250796.20000004768,A,tow,O,w,417,1,1816.4000000953674,248979.79999995232,7786,WL,C,1.0
2,2.133999824523926,learn,57866.000175476074,Wed Mar 25 2026 10:28:46 GMT-0500 (Central Daylight Time),251112.79999995232,A,towe,O,e,302,1,2133.0,248979.79999995232,7786,WL,C,1.0
2,2.7829999923706055,learn,57217.000007629395,Wed Mar 25 2026 10:28:46 GMT-0500 (Central Daylight Time),251762.0,A,tower,O,r,633,1,2782.2000000476837,248979.79999995232,7786,WL,C,1.0
2,4.697999954223633,learn,55302.00004577637,Wed Mar 25 2026 10:28:46 GMT-0500 (Central Daylight Time),253677.5,A,towerenter,O,enter,1906,1,4697.700000047684,248979.79999995232,7786,WL,C,1.0
2,5.7809998989105225,learn,54219.00010108948,Wed Mar 25 2026 10:28:46 GMT-0500 (Central Daylight Time),254760.5,A,w,O,w,1072,1,1082.7000000476837,253677.79999995232,7786,WL,C,2.0
2,6.115000009536743,learn,53884.99999046326,Wed Mar 25 2026 10:28:46 GMT-0500 (Central Daylight Time),255094.0,A,wh,O,h,326,1,1416.2000000476837,253677.79999995232,7786,WL,C,2.0
2,6.784999847412109,learn,53215.00015258789,Wed Mar 25 2026 10:28:46 GMT-0500 (Central Daylight Time),255764.0,A,whe,O,e,658,1,2086.2000000476837,253677.79999995232,7786,WL,C,2.0
2,7.398000001907349,learn,52601.99999809265,Wed Mar 25 2026 10:28:46 GMT-0500 (Central Daylight Time),256377.20000004768,A,whea,O,a,594,1,2699.4000000953674,253677.79999995232,7786,WL,C,2.0
2,7.946999788284302,learn,52053.0002117157,Wed Mar 25 2026 10:28:46 GMT-0500 (Central Daylight Time),256926.59999990463,A,wheat,O,t,531,1,3248.7999999523163,253677.79999995232,7786,WL,C,2.0
2,9.596999883651733,learn,50403.00011634827,Wed Mar 25 2026 10:28:46 GMT-0500 (Central Daylight Time),258576.40000009537,A,wheatenter,O,enter,1636,1,4898.600000143051,253677.79999995232,7786,WL,C,2.0
2,10.480999946594238,learn,49519.00005340576,Wed Mar 25 2026 10:28:46 GMT-0500 (Central Daylight Time),259459.90000009537,A,c,O,c,863,1,883.2000000476837,258576.70000004768,7786,WL,C,3.0
2,10.879999876022339,learn,49120.00012397766,Wed Mar 25 2026 10:28:46 GMT-0500 (Central Daylight Time),259859.09999990463,A,co,O,o,386,1,1282.3999998569489,258576.70000004768,7786,WL,C,3.0
2,11.462999820709229,learn,48537.00017929077,Wed Mar 25 2026 10:28:46 GMT-0500 (Central Daylight Time),260442.40000009537,A,cor,O,r,570,1,1865.7000000476837,258576.70000004768,7786,WL,C,3.0
2,12.145999908447266,learn,47854.000091552734,Wed Mar 25 2026 10:28:46 GMT-0500 (Central Daylight Time),261125.5,A,corn,O,n,657,1,2548.7999999523163,258576.70000004768,7786,WL,C,3.0
2,13.645999908447266,learn,46354.000091552734,Wed Mar 25 2026 10:28:46 GMT-0500 (Central Daylight Time),262625.0,A,cornenter,O,enter,1485,1,4048.2999999523163,258576.70000004768,7786,WL,C,3.0
2,14.878999948501587,learn,45121.00005149841,Wed Mar 25 2026 10:28:46 GMT-0500 (Central Daylight Time),263858.09999990463,A,q,O,q,1212,1,1232.7999999523163,262625.2999999523,7786,WL,C,4.0
2,15.161999940872192,learn,44838.00005912781,Wed Mar 25 2026 10:28:46 GMT-0500 (Central Daylight Time),264141.40000009537,A,qu,O,u,269,1,1516.1000001430511,262625.2999999523,7786,WL,C,4.0
2,16.57799983024597,learn,43422.00016975403,Wed Mar 25 2026 10:28:46 GMT-0500 (Central Daylight Time),265557.2999999523,A,que,O,e,1395,1,2932.0,262625.2999999523,7786,WL,C,4.0
2,16.994999885559082,learn,43005.00011444092,Wed Mar 25 2026 10:28:46 GMT-0500 (Central Daylight Time),265974.5,A,quee,O,e,406,1,3349.2000000476837,262625.2999999523,7786,WL,C,4.0
2,17.527999877929688,learn,42472.00012207031,Wed Mar 25 2026 10:28:46 GMT-0500 (Central Daylight Time),266507.0,A,queen,O,n,517,1,3881.7000000476837,262625.2999999523,7786,WL,C,4.0
2,19.0939998626709,learn,40906.0001373291,Wed Mar 25 2026 10:28:46 GMT-0500 (Central Daylight Time),268073.2999999523,A,queenenter,O,enter,1551,1,5448.0,262625.2999999523,7786,WL,C,4.0
2,20.143999814987183,learn,39856.00018501282,Wed Mar 25 2026 10:28:46 GMT-0500 (Central Daylight Time),269123.2000000477,A,b,O,b,1044,1,1049.7000000476837,268073.5,7786,WL,C,5.0
2,20.491999864578247,learn,39508.00013542175,Wed Mar 25 2026 10:28:46 GMT-0500 (Central Daylight Time),269471.59999990463,A,bo,O,o,339,1,1398.0999999046326,268073.5,7786,WL,C,5.0
2,20.97599983215332,learn,39024.00016784668,Wed Mar 25 2026 10:28:46 GMT-0500 (Central Daylight Time),269954.7999999523,A,boy,O,y,479,1,1881.2999999523163,268073.5,7786,WL,C,5.0
2,23.075999975204468,learn,36924.00002479553,Wed Mar 25 2026 10:28:46 GMT-0500 (Central Daylight Time),272055.09999990463,A,boyenter,O,enter,2084,1,3981.5999999046326,268073.5,7786,WL,C,5.0
2,24.5939998626709,learn,35406.0001373291,Wed Mar 25 2026 10:28:46 GMT-0500 (Central Daylight Time),273573.2999999523,A,n,O,n,1505,1,1517.8999998569489,272055.40000009537,7786,WL,C,6.0
2,25.042999982833862,learn,34957.00001716614,Wed Mar 25 2026 10:28:46 GMT-0500 (Central Daylight Time),274022.0,A,na,O,a,433,1,1966.5999999046326,272055.40000009537,7786,WL,C,6.0
2,25.32699990272522,learn,34673.00009727478,Wed Mar 25 2026 10:28:46 GMT-0500 (Central Daylight Time),274306.09999990463,A,nai,O,i,262,1,2250.699999809265,272055.40000009537,7786,WL,C,6.0
2,25.64199995994568,learn,34358.00004005432,Wed Mar 25 2026 10:28:46 GMT-0500 (Central Daylight Time),274621.5,A,nail,O,l,301,1,2566.0999999046326,272055.40000009537,7786,WL,C,6.0
2,26.3439998626709,learn,33656.0001373291,Wed Mar 25 2026 10:28:46 GMT-0500 (Central Daylight Time),275322.90000009537,A,nailenter,O,enter,694,1,3267.5,272055.40000009537,7786,WL,C,6.0
2,26.941999912261963,learn,33058.00008773804,Wed Mar 25 2026 10:28:46 GMT-0500 (Central Daylight Time),275920.7999999523,A,c,O,c,578,1,597.7000000476837,275323.09999990463,7786,WL,C,7.0
2,27.775999784469604,learn,32224.000215530396,Wed Mar 25 2026 10:28:46 GMT-0500 (Central Daylight Time),276755.09999990463,A,ca,O,a,831,1,1432.0,275323.09999990463,7786,WL,C,7.0
2,28.22499990463257,learn,31775.00009536743,Wed Mar 25 2026 10:28:46 GMT-0500 (Central Daylight Time),277204.0,A,can,O,n,442,1,1880.9000000953674,275323.09999990463,7786,WL,C,7.0
2,29.44099998474121,learn,30559.00001525879,Wed Mar 25 2026 10:28:46 GMT-0500 (Central Daylight Time),278420.09999990463,A,ca,O,backspace,1200,1,3097.0,275323.09999990463,7786,WL,C,7.0
2,29.872999906539917,learn,30127.000093460083,Wed Mar 25 2026 10:28:46 GMT-0500 (Central Daylight Time),278852.5,A,cam,O,m,416,1,3529.4000000953674,275323.09999990463,7786,WL,C,7.0
2,30.824999809265137,learn,29175.000190734863,Wed Mar 25 2026 10:28:46 GMT-0500 (Central Daylight Time),279804.09999990463,A,camp,O,p,947,1,4481.0,275323.09999990463,7786,WL,C,7.0
2,33.75699996948242,learn,26243.000030517578,Wed Mar 25 2026 10:28:46 GMT-0500 (Central Daylight Time),282736.0,A,campenter,O,enter,2913,1,7412.900000095367,275323.09999990463,7786,WL,C,7.0
2,34.8219997882843,learn,25178.0002117157,Wed Mar 25 2026 10:28:46 GMT-0500 (Central Daylight Time),283801.5,A,d,O,d,1055,1,1065.2000000476837,282736.2999999523,7786,WL,C,8.0
2,35.03999996185303,learn,24960.000038146973,Wed Mar 25 2026 10:28:46 GMT-0500 (Central Daylight Time),284018.7999999523,A,do,O,o,196,1,1282.5,282736.2999999523,7786,WL,C,8.0
2,35.25599980354309,learn,24744.00019645691,Wed Mar 25 2026 10:28:46 GMT-0500 (Central Daylight Time),284235.2999999523,A,doc,O,c,196,1,1499.0,282736.2999999523,7786,WL,C,8.0
2,35.70700001716614,learn,24292.999982833862,Wed Mar 25 2026 10:28:46 GMT-0500 (Central Daylight Time),284685.90000009537,A,doct,O,t,434,1,1949.6000001430511,282736.2999999523,7786,WL,C,8.0
2,35.95599985122681,learn,24044.000148773193,Wed Mar 25 2026 10:28:46 GMT-0500 (Central Daylight Time),284934.90000009537,A,docto,O,o,232,1,2198.600000143051,282736.2999999523,7786,WL,C,8.0
2,36.472999811172485,learn,23527.000188827515,Wed Mar 25 2026 10:28:46 GMT-0500 (Central Daylight Time),285451.7000000477,A,doctor,O,r,503,1,2715.4000000953674,282736.2999999523,7786,WL,C,8.0
2,39.3219997882843,learn,20678.0002117157,Wed Mar 25 2026 10:28:46 GMT-0500 (Central Daylight Time),288300.7999999523,A,doctorenter,O,enter,2827,1,5564.5,282736.2999999523,7786,WL,C,8.0
2,42.687999963760376,learn,17312.000036239624,Wed Mar 25 2026 10:28:46 GMT-0500 (Central Daylight Time),291666.7000000477,A,h,O,h,3360,1,3365.600000143051,288301.09999990463,7786,WL,C,9.0
2,43.269999980926514,learn,16730.000019073486,Wed Mar 25 2026 10:28:46 GMT-0500 (Central Daylight Time),292249.5,A,ho,O,o,572,1,3948.4000000953674,288301.09999990463,7786,WL,C,9.0
2,43.71999979019165,learn,16280.00020980835,Wed Mar 25 2026 10:28:46 GMT-0500 (Central Daylight Time),292699.59999990463,A,hon,O,n,428,1,4398.5,288301.09999990463,7786,WL,C,9.0
2,45.45299983024597,learn,14547.000169754028,Wed Mar 25 2026 10:28:46 GMT-0500 (Central Daylight Time),294432.5,A,ho,O,backspace,1715,1,6131.400000095367,288301.09999990463,7786,WL,C,9.0
2,45.73599982261658,learn,14264.000177383423,Wed Mar 25 2026 10:28:46 GMT-0500 (Central Daylight Time),294715.59999990463,A,h,O,backspace,269,1,6414.5,288301.09999990463,7786,WL,C,9.0
2,46.28600001335144,learn,13713.99998664856,Wed Mar 25 2026 10:28:46 GMT-0500 (Central Daylight Time),295264.7999999523,A,,O,backspace,537,1,6963.700000047684,288301.09999990463,7786,WL,C,9.0
2,47.65299987792969,learn,12347.000122070312,Wed Mar 25 2026 10:28:46 GMT-0500 (Central Daylight Time),296631.90000009537,A,n,O,n,1359,1,8330.800000190735,288301.09999990463,7786,WL,C,9.0
2,48.10099983215332,learn,11899.00016784668,Wed Mar 25 2026 10:28:46 GMT-0500 (Central Daylight Time),297081.2999999523,A,na,O,a,429,1,8780.200000047684,288301.09999990463,7786,WL,C,9.0
2,48.85099983215332,learn,11149.00016784668,Wed Mar 25 2026 10:28:46 GMT-0500 (Central Daylight Time),297830.90000009537,A,nai,O,i,732,1,9529.800000190735,288301.09999990463,7786,WL,C,9.0
2,49.400999784469604,learn,10599.000215530396,Wed Mar 25 2026 10:28:46 GMT-0500 (Central Daylight Time),298381.59999990463,A,nail,O,l,536,1,10080.5,288301.09999990463,7786,WL,C,9.0
2,50.81699991226196,learn,9183.000087738037,Wed Mar 25 2026 10:28:46 GMT-0500 (Central Daylight Time),299797.59999990463,A,nailenter,O,enter,1402,1,11496.5,288301.09999990463,7786,WL,C,9.0
2,52.01599979400635,learn,7984.000205993652,Wed Mar 25 2026 10:28:46 GMT-0500 (Central Daylight Time),300996.5,A,s,O,s,1184,1,1198.7000000476837,299797.7999999523,7786,WL,C,10.0
2,52.18400001525879,learn,7815.999984741211,Wed Mar 25 2026 10:28:46 GMT-0500 (Central Daylight Time),301163.90000009537,A,sh,O,h,162,1,1366.1000001430511,299797.7999999523,7786,WL,C,10.0
2,52.88199996948242,learn,7118.000030517578,Wed Mar 25 2026 10:28:46 GMT-0500 (Central Daylight Time),301862.5,A,sho,O,o,678,1,2064.7000000476837,299797.7999999523,7786,WL,C,10.0
2,53.14999985694885,learn,6850.0001430511475,Wed Mar 25 2026 10:28:46 GMT-0500 (Central Daylight Time),302129.7999999523,A,shor,O,r,245,1,2332.0,299797.7999999523,7786,WL,C,10.0
2,53.86699986457825,learn,6133.000135421753,Wed Mar 25 2026 10:28:46 GMT-0500 (Central Daylight Time),302847.2999999523,A,shore,O,e,701,1,3049.5,299797.7999999523,7786,WL,C,10.0
2,55.41599988937378,learn,4584.000110626221,Wed Mar 25 2026 10:28:46 GMT-0500 (Central Daylight Time),304396.09999990463,A,shoreenter,O,enter,1533,1,4598.299999952316,299797.7999999523,7786,WL,C,10.0
2,57.079999923706055,learn,2920.0000762939453,Wed Mar 25 2026 10:28:46 GMT-0500 (Central Daylight Time),306060.59999990463,A,enter,O,enter,1651,1,1664.2999999523163,304396.2999999523,7786,WL,C,11.0
2,57.43299984931946,learn,2567.000150680542,Wed Mar 25 2026 10:28:46 GMT-0500 (Central Daylight Time),306413.0,A,enter,O,enter,344,1,352.0,306061.0,7786,WL,C,12.0
2,57.848999977111816,learn,2151.0000228881836,Wed Mar 25 2026 10:28:46 GMT-0500 (Central Daylight Time),306829.09999990463,A,enter,O,enter,402,1,415.69999980926514,306413.40000009537,7786,WL,C,13.0
2,58.347999811172485,learn,1652.0001888275146,Wed Mar 25 2026 10:28:46 GMT-0500 (Central Daylight Time),307327.90000009537,A,enter,O,enter,488,1,498.5,306829.40000009537,7786,WL,C,14.0
2,58.71399998664856,learn,1286.0000133514404,Wed Mar 25 2026 10:28:46 GMT-0500 (Central Daylight Time),307694.2999999523,A,enter,O,enter,359,1,366.0,307328.2999999523,7786,WL,C,15.0
3,1.3320000171661377,learn,58667.99998283386,Wed Mar 25 2026 10:28:46 GMT-0500 (Central Daylight Time),382103.5,A,t,O,t,1321,1,1332.0,380771.5,7786,WL,C,1.0
3,1.682999849319458,learn,58317.00015068054,Wed Mar 25 2026 10:28:46 GMT-0500 (Central Daylight Time),382454.0,A,to,O,o,346,1,1682.5,380771.5,7786,WL,C,1.0
3,2.065999984741211,learn,57934.00001525879,Wed Mar 25 2026 10:28:46 GMT-0500 (Central Daylight Time),382837.09999990463,A,tow,O,w,363,1,2065.5999999046326,380771.5,7786,WL,C,1.0
3,2.431999921798706,learn,57568.000078201294,Wed Mar 25 2026 10:28:46 GMT-0500 (Central Daylight Time),383203.0,A,towe,O,e,351,1,2431.5,380771.5,7786,WL,C,1.0
3,2.881999969482422,learn,57118.00003051758,Wed Mar 25 2026 10:28:46 GMT-0500 (Central Daylight Time),383653.5,A,tower,O,r,443,1,2882.0,380771.5,7786,WL,C,1.0
3,4.181999921798706,learn,55818.000078201294,Wed Mar 25 2026 10:28:46 GMT-0500 (Central Daylight Time),384952.7000000477,A,towerenter,O,enter,1288,1,4181.200000047684,380771.5,7786,WL,C,1.0
3,5.580999851226807,learn,54419.00014877319,Wed Mar 25 2026 10:28:46 GMT-0500 (Central Daylight Time),386351.90000009537,A,w,O,w,1389,1,1398.9000000953674,384953.0,7786,WL,C,2.0
3,5.896999835968018,learn,54103.00016403198,Wed Mar 25 2026 10:28:46 GMT-0500 (Central Daylight Time),386668.59999990463,A,wh,O,h,301,1,1715.5999999046326,384953.0,7786,WL,C,2.0
3,6.297999858856201,learn,53702.0001411438,Wed Mar 25 2026 10:28:46 GMT-0500 (Central Daylight Time),387069.5,A,whe,O,e,384,1,2116.5,384953.0,7786,WL,C,2.0
3,6.947000026702881,learn,53052.99997329712,Wed Mar 25 2026 10:28:46 GMT-0500 (Central Daylight Time),387718.40000009537,A,whea,O,a,631,1,2765.4000000953674,384953.0,7786,WL,C,2.0
3,7.730999946594238,learn,52269.00005340576,Wed Mar 25 2026 10:28:46 GMT-0500 (Central Daylight Time),388502.0,A,wheat,O,t,773,1,3549.0,384953.0,7786,WL,C,2.0
3,8.830999851226807,learn,51169.00014877319,Wed Mar 25 2026 10:28:46 GMT-0500 (Central Daylight Time),389601.7999999523,A,wheatenter,O,enter,1078,1,4648.799999952316,384953.0,7786,WL,C,2.0
3,9.63100004196167,learn,50368.99995803833,Wed Mar 25 2026 10:28:46 GMT-0500 (Central Daylight Time),390402.2000000477,A,c,O,c,789,1,800.2000000476837,389602.0,7786,WL,C,3.0
3,10.013000011444092,learn,49986.99998855591,Wed Mar 25 2026 10:28:46 GMT-0500 (Central Daylight Time),390784.7000000477,A,co,O,o,364,1,1182.7000000476837,389602.0,7786,WL,C,3.0
3,10.52999997138977,learn,49470.00002861023,Wed Mar 25 2026 10:28:46 GMT-0500 (Central Daylight Time),391300.7000000477,A,cor,O,r,500,1,1698.7000000476837,389602.0,7786,WL,C,3.0
3,11.429999828338623,learn,48570.00017166138,Wed Mar 25 2026 10:28:46 GMT-0500 (Central Daylight Time),392201.0,A,corn,O,n,890,1,2599.0,389602.0,7786,WL,C,3.0
3,13.329999923706055,learn,46670.000076293945,Wed Mar 25 2026 10:28:46 GMT-0500 (Central Daylight Time),394101.0,A,cornenter,O,enter,1886,1,4499.0,389602.0,7786,WL,C,3.0
3,14.312000036239624,learn,45687.999963760376,Wed Mar 25 2026 10:28:46 GMT-0500 (Central Daylight Time),395083.2000000477,A,q,O,q,961,1,981.9000000953674,394101.2999999523,7786,WL,C,4.0
3,14.961999893188477,learn,45038.00010681152,Wed Mar 25 2026 10:28:46 GMT-0500 (Central Daylight Time),395732.7999999523,A,qu,O,u,640,1,1631.5,394101.2999999523,7786,WL,C,4.0
3,15.494999885559082,learn,44505.00011444092,Wed Mar 25 2026 10:28:46 GMT-0500 (Central Daylight Time),396266.5,A,que,O,e,510,1,2165.2000000476837,394101.2999999523,7786,WL,C,4.0
3,15.678999900817871,learn,44321.00009918213,Wed Mar 25 2026 10:28:46 GMT-0500 (Central Daylight Time),396449.7999999523,A,quee,O,e,170,1,2348.5,394101.2999999523,7786,WL,C,4.0
3,16.161999940872192,learn,43838.00005912781,Wed Mar 25 2026 10:28:46 GMT-0500 (Central Daylight Time),396932.90000009537,A,queen,O,n,475,1,2831.600000143051,394101.2999999523,7786,WL,C,4.0
3,17.776999950408936,learn,42223.000049591064,Wed Mar 25 2026 10:28:46 GMT-0500 (Central Daylight Time),398548.0,A,queenenter,O,enter,1606,1,4446.700000047684,394101.2999999523,7786,WL,C,4.0
3,19.161999940872192,learn,40838.00005912781,Wed Mar 25 2026 10:28:46 GMT-0500 (Central Daylight Time),399932.7000000477,A,c,O,c,1380,1,1384.6000001430511,398548.09999990463,7786,WL,C,5.0
3,19.793999910354614,learn,40206.000089645386,Wed Mar 25 2026 10:28:46 GMT-0500 (Central Daylight Time),400565.40000009537,A,ca,O,a,626,1,2017.3000001907349,398548.09999990463,7786,WL,C,5.0
3,20.16100001335144,learn,39838.99998664856,Wed Mar 25 2026 10:28:46 GMT-0500 (Central Daylight Time),400932.40000009537,A,can,O,n,360,1,2384.300000190735,398548.09999990463,7786,WL,C,5.0
3,21.66100001335144,learn,38338.99998664856,Wed Mar 25 2026 10:28:46 GMT-0500 (Central Daylight Time),402432.2999999523,A,ca,O,backspace,1490,1,3884.2000000476837,398548.09999990463,7786,WL,C,5.0
3,22.14400005340576,learn,37855.99994659424,Wed Mar 25 2026 10:28:46 GMT-0500 (Central Daylight Time),402914.7999999523,A,cam,O,m,470,1,4366.700000047684,398548.09999990463,7786,WL,C,5.0
3,23.008999824523926,learn,36991.000175476074,Wed Mar 25 2026 10:28:46 GMT-0500 (Central Daylight Time),403780.09999990463,A,camp,O,p,852,1,5232.0,398548.09999990463,7786,WL,C,5.0
3,24.008999824523926,learn,35991.000175476074,Wed Mar 25 2026 10:28:46 GMT-0500 (Central Daylight Time),404780.40000009537,A,campenter,O,enter,995,1,6232.300000190735,398548.09999990463,7786,WL,C,5.0
3,24.792999982833862,learn,35207.00001716614,Wed Mar 25 2026 10:28:46 GMT-0500 (Central Daylight Time),405564.2999999523,A,f,O,f,763,1,783.5,404780.7999999523,7786,WL,C,6.0
3,25.441999912261963,learn,34558.00008773804,Wed Mar 25 2026 10:28:46 GMT-0500 (Central Daylight Time),406213.2999999523,A,fl,O,l,640,1,1432.5,404780.7999999523,7786,WL,C,6.0
3,25.825999975204468,learn,34174.00002479553,Wed Mar 25 2026 10:28:46 GMT-0500 (Central Daylight Time),406596.7999999523,A,fla,O,a,370,1,1816.0,404780.7999999523,7786,WL,C,6.0
3,26.358999967575073,learn,33641.00003242493,Wed Mar 25 2026 10:28:46 GMT-0500 (Central Daylight Time),407130.0,A,flag,O,g,522,1,2349.2000000476837,404780.7999999523,7786,WL,C,6.0
3,27.323999881744385,learn,32676.000118255615,Wed Mar 25 2026 10:28:46 GMT-0500 (Central Daylight Time),408095.59999990463,A,flags,O,s,948,1,3314.7999999523163,404780.7999999523,7786,WL,C,6.0
3,27.490999937057495,learn,32509.000062942505,Wed Mar 25 2026 10:28:46 GMT-0500 (Central Daylight Time),408261.7999999523,A,flagsh,O,h,151,1,3481.0,404780.7999999523,7786,WL,C,6.0
3,28.19099998474121,learn,31809.00001525879,Wed Mar 25 2026 10:28:46 GMT-0500 (Central Daylight Time),408962.0,A,flagsho,O,o,678,1,4181.200000047684,404780.7999999523,7786,WL,C,6.0
3,28.44099998474121,learn,31559.00001525879,Wed Mar 25 2026 10:28:46 GMT-0500 (Central Daylight Time),409212.2999999523,A,flagshor,O,r,228,1,4431.5,404780.7999999523,7786,WL,C,6.0
3,28.842000007629395,learn,31157.999992370605,Wed Mar 25 2026 10:28:46 GMT-0500 (Central Daylight Time),409612.7999999523,A,flagshore,O,e,374,1,4832.0,404780.7999999523,7786,WL,C,6.0
3,29.973999977111816,learn,30026.000022888184,Wed Mar 25 2026 10:28:46 GMT-0500 (Central Daylight Time),410744.7000000477,A,flagshoreb,O,b,1112,1,5963.900000095367,404780.7999999523,7786,WL,C,6.0
3,30.4229998588562,learn,29577.0001411438,Wed Mar 25 2026 10:28:46 GMT-0500 (Central Daylight Time),411194.09999990463,A,flagshorebo,O,o,437,1,6413.299999952316,404780.7999999523,7786,WL,C,6.0
3,30.906999826431274,learn,29093.000173568726,Wed Mar 25 2026 10:28:46 GMT-0500 (Central Daylight Time),411678.40000009537,A,flagshoreboy,O,y,476,1,6897.600000143051,404780.7999999523,7786,WL,C,6.0
3,33.12299990653992,learn,26877.000093460083,Wed Mar 25 2026 10:28:46 GMT-0500 (Central Daylight Time),413894.40000009537,A,flagshorebo,O,backspace,2202,1,9113.600000143051,404780.7999999523,7786,WL,C,6.0
3,33.40599989891052,learn,26594.000101089478,Wed Mar 25 2026 10:28:46 GMT-0500 (Central Daylight Time),414177.2999999523,A,flagshoreb,O,backspace,271,1,9396.5,404780.7999999523,7786,WL,C,6.0
3,33.639999866485596,learn,26360.000133514404,Wed Mar 25 2026 10:28:46 GMT-0500 (Central Daylight Time),414411.2999999523,A,flagshore,O,backspace,214,1,9630.5,404780.7999999523,7786,WL,C,6.0
3,33.83899998664856,learn,26161.00001335144,Wed Mar 25 2026 10:28:46 GMT-0500 (Central Daylight Time),414610.2000000477,A,flagshor,O,backspace,187,1,9829.400000095367,404780.7999999523,7786,WL,C,6.0
3,34.04099988937378,learn,25959.00011062622,Wed Mar 25 2026 10:28:46 GMT-0500 (Central Daylight Time),414812.7000000477,A,flagsho,O,backspace,178,1,10031.900000095367,404780.7999999523,7786,WL,C,6.0
3,34.223000049591064,learn,25776.999950408936,Wed Mar 25 2026 10:28:46 GMT-0500 (Central Daylight Time),414994.5,A,flagsh,O,backspace,160,1,10213.700000047684,404780.7999999523,7786,WL,C,6.0
3,34.40599989891052,learn,25594.000101089478,Wed Mar 25 2026 10:28:46 GMT-0500 (Central Daylight Time),415176.7000000477,A,flags,O,backspace,169,1,10395.900000095367,404780.7999999523,7786,WL,C,6.0
3,34.72199988365173,learn,25278.000116348267,Wed Mar 25 2026 10:28:46 GMT-0500 (Central Daylight Time),415493.40000009537,A,flag,O,backspace,312,1,10712.600000143051,404780.7999999523,7786,WL,C,6.0
3,35.80499982833862,learn,24195.000171661377,Wed Mar 25 2026 10:28:46 GMT-0500 (Central Daylight Time),416576.5,A,flagenter,O,enter,1063,1,11795.700000047684,404780.7999999523,7786,WL,C,6.0
3,36.88800001144409,learn,23111.99998855591,Wed Mar 25 2026 10:28:46 GMT-0500 (Central Daylight Time),417660.5,A,s,O,s,1062,1,1083.7000000476837,416576.7999999523,7786,WL,C,7.0
3,37.103999853134155,learn,22896.000146865845,Wed Mar 25 2026 10:28:46 GMT-0500 (Central Daylight Time),417876.5,A,sh,O,h,208,1,1299.7000000476837,416576.7999999523,7786,WL,C,7.0
3,37.787999868392944,learn,22212.000131607056,Wed Mar 25 2026 10:28:46 GMT-0500 (Central Daylight Time),418559.7999999523,A,sho,O,o,677,1,1983.0,416576.7999999523,7786,WL,C,7.0
3,38.13699984550476,learn,21863.00015449524,Wed Mar 25 2026 10:28:46 GMT-0500 (Central Daylight Time),418908.7999999523,A,shor,O,r,333,1,2332.0,416576.7999999523,7786,WL,C,7.0
3,38.75499987602234,learn,21245.00012397766,Wed Mar 25 2026 10:28:46 GMT-0500 (Central Daylight Time),419526.7999999523,A,shore,O,e,613,1,2950.0,416576.7999999523,7786,WL,C,7.0
3,40.18599987030029,learn,19814.000129699707,Wed Mar 25 2026 10:28:46 GMT-0500 (Central Daylight Time),420958.40000009537,A,shoreenter,O,enter,1422,1,4381.600000143051,416576.7999999523,7786,WL,C,7.0
3,42.30299997329712,learn,17697.00002670288,Wed Mar 25 2026 10:28:46 GMT-0500 (Central Daylight Time),423075.2000000477,A,n,O,n,2105,1,2116.7000000476837,420958.5,7786,WL,C,8.0
3,42.819000005722046,learn,17180.999994277954,Wed Mar 25 2026 10:28:46 GMT-0500 (Central Daylight Time),423590.7000000477,A,na,O,a,511,1,2632.2000000476837,420958.5,7786,WL,C,8.0
3,43.382999897003174,learn,16617.000102996826,Wed Mar 25 2026 10:28:46 GMT-0500 (Central Daylight Time),424155.59999990463,A,nai,O,i,549,1,3197.0999999046326,420958.5,7786,WL,C,8.0
3,44.335999965667725,learn,15664.000034332275,Wed Mar 25 2026 10:28:46 GMT-0500 (Central Daylight Time),425108.2000000477,A,nail,O,l,940,1,4149.700000047684,420958.5,7786,WL,C,8.0
3,45.335999965667725,learn,14664.000034332275,Wed Mar 25 2026 10:28:46 GMT-0500 (Central Daylight Time),426108.0,A,nailenter,O,enter,995,1,5149.5,420958.5,7786,WL,C,8.0
3,46.08399987220764,learn,13916.000127792358,Wed Mar 25 2026 10:28:46 GMT-0500 (Central Daylight Time),426856.5,A,c,O,c,739,1,748.2999999523163,426108.2000000477,7786,WL,C,9.0
3,46.71799993515015,learn,13282.000064849854,Wed Mar 25 2026 10:28:46 GMT-0500 (Central Daylight Time),427490.0,A,ca,O,a,614,1,1381.7999999523163,426108.2000000477,7786,WL,C,9.0
3,47.23399996757507,learn,12766.000032424927,Wed Mar 25 2026 10:28:46 GMT-0500 (Central Daylight Time),428005.90000009537,A,cat,O,t,500,1,1897.7000000476837,426108.2000000477,7786,WL,C,9.0
3,47.401000022888184,learn,12598.999977111816,Wed Mar 25 2026 10:28:46 GMT-0500 (Central Daylight Time),428172.90000009537,A,catt,O,t,145,1,2064.7000000476837,426108.2000000477,7786,WL,C,9.0
3,47.717000007629395,learn,12282.999992370605,Wed Mar 25 2026 10:28:46 GMT-0500 (Central Daylight Time),428489.5,A,cattl,O,l,305,1,2381.2999999523163,426108.2000000477,7786,WL,C,9.0
3,48.08399987220764,learn,11916.000127792358,Wed Mar 25 2026 10:28:46 GMT-0500 (Central Daylight Time),428855.90000009537,A,cattle,O,e,357,1,2747.7000000476837,426108.2000000477,7786,WL,C,9.0
3,48.61699986457825,learn,11383.000135421753,Wed Mar 25 2026 10:28:46 GMT-0500 (Central Daylight Time),429389.59999990463,A,cattleenter,O,enter,517,1,3281.399999856949,426108.2000000477,7786,WL,C,9.0
3,53.23399996757507,learn,6766.000032424927,Wed Mar 25 2026 10:28:46 GMT-0500 (Central Daylight Time),434005.7000000477,A,d,O,d,4611,1,4615.900000095367,429389.7999999523,7786,WL,C,10.0
3,53.46499991416931,learn,6535.0000858306885,Wed Mar 25 2026 10:28:46 GMT-0500 (Central Daylight Time),434236.90000009537,A,do,O,o,213,1,4847.100000143051,429389.7999999523,7786,WL,C,10.0
3,53.681999921798706,learn,6318.000078201294,Wed Mar 25 2026 10:28:46 GMT-0500 (Central Daylight Time),434454.09999990463,A,doc,O,c,199,1,5064.299999952316,429389.7999999523,7786,WL,C,10.0
3,54.04900002479553,learn,5950.999975204468,Wed Mar 25 2026 10:28:46 GMT-0500 (Central Daylight Time),434820.90000009537,A,doct,O,t,352,1,5431.100000143051,429389.7999999523,7786,WL,C,10.0
3,54.33200001716614,learn,5667.999982833862,Wed Mar 25 2026 10:28:46 GMT-0500 (Central Daylight Time),435104.2000000477,A,docto,O,o,265,1,5714.400000095367,429389.7999999523,7786,WL,C,10.0
3,54.83200001716614,learn,5167.999982833862,Wed Mar 25 2026 10:28:46 GMT-0500 (Central Daylight Time),435603.7999999523,A,doctor,O,r,477,1,6214.0,429389.7999999523,7786,WL,C,10.0
3,55.86500000953674,learn,4134.999990463257,Wed Mar 25 2026 10:28:46 GMT-0500 (Central Daylight Time),436637.5,A,doctorenter,O,enter,1018,1,7247.700000047684,429389.7999999523,7786,WL,C,10.0
3,60.013999938964844,learn,-13.99993896484375,Wed Mar 25 2026 10:28:46 GMT-0500 (Central Daylight Time),440786.09999990463,A,None,O,None,4144,1,4148.399999856949,436637.7000000477,7786,WL,C,11.0
4,2.18500018119812,learn,57814.99981880188,Wed Mar 25 2026 10:28:46 GMT-0500 (Central Daylight Time),521046.2999999523,A,t,O,t,2160,1,2184.899999856949,518861.40000009537,7786,WL,C,1.0
4,2.5830001831054688,learn,57416.99981689453,Wed Mar 25 2026 10:28:46 GMT-0500 (Central Daylight Time),521443.7000000477,A,to,O,o,374,1,2582.2999999523163,518861.40000009537,7786,WL,C,1.0
4,3.065000057220459,learn,56934.99994277954,Wed Mar 25 2026 10:28:46 GMT-0500 (Central Daylight Time),521926.5,A,tow,O,w,472,1,3065.0999999046326,518861.40000009537,7786,WL,C,1.0
4,3.4650001525878906,learn,56534.99984741211,Wed Mar 25 2026 10:28:46 GMT-0500 (Central Daylight Time),522326.59999990463,A,towe,O,e,381,1,3465.199999809265,518861.40000009537,7786,WL,C,1.0
4,3.932000160217285,learn,56067.999839782715,Wed Mar 25 2026 10:28:46 GMT-0500 (Central Daylight Time),522793.2999999523,A,tower,O,r,456,1,3931.899999856949,518861.40000009537,7786,WL,C,1.0
4,4.781000137329102,learn,55218.9998626709,Wed Mar 25 2026 10:28:46 GMT-0500 (Central Daylight Time),523641.7000000477,A,towerenter,O,enter,828,1,4780.299999952316,518861.40000009537,7786,WL,C,1.0
4,5.832000017166138,learn,54167.99998283386,Wed Mar 25 2026 10:28:46 GMT-0500 (Central Daylight Time),524693.0,A,w,O,w,1038,1,1051.0,523642.0,7786,WL,C,2.0
4,6.231000185012817,learn,53768.99981498718,Wed Mar 25 2026 10:28:46 GMT-0500 (Central Daylight Time),525092.2000000477,A,wh,O,h,394,1,1450.2000000476837,523642.0,7786,WL,C,2.0
4,6.647000074386597,learn,53352.9999256134,Wed Mar 25 2026 10:28:46 GMT-0500 (Central Daylight Time),525508.0999999046,A,whe,O,e,400,1,1866.0999999046326,523642.0,7786,WL,C,2.0
4,7.264000177383423,learn,52735.99982261658,Wed Mar 25 2026 10:28:46 GMT-0500 (Central Daylight Time),526124.7000000477,A,whea,O,a,602,1,2482.7000000476837,523642.0,7786,WL,C,2.0
4,7.948000192642212,learn,52051.99980735779,Wed Mar 25 2026 10:28:46 GMT-0500 (Central Daylight Time),526808.7999999523,A,wheat,O,t,671,1,3166.7999999523163,523642.0,7786,WL,C,2.0
4,9.646000146865845,learn,50353.999853134155,Wed Mar 25 2026 10:28:46 GMT-0500 (Central Daylight Time),528507.2000000477,A,wheatenter,O,enter,1693,1,4865.200000047684,523642.0,7786,WL,C,2.0
4,10.61300015449524,learn,49386.99984550476,Wed Mar 25 2026 10:28:46 GMT-0500 (Central Daylight Time),529474.0,A,c,O,c,955,1,966.5999999046326,528507.4000000954,7786,WL,C,3.0
4,10.94700002670288,learn,49052.99997329712,Wed Mar 25 2026 10:28:46 GMT-0500 (Central Daylight Time),529807.7999999523,A,co,O,o,328,1,1300.3999998569489,528507.4000000954,7786,WL,C,3.0
4,11.497000217437744,learn,48502.999782562256,Wed Mar 25 2026 10:28:46 GMT-0500 (Central Daylight Time),530357.7000000477,A,cor,O,r,541,1,1850.2999999523163,528507.4000000954,7786,WL,C,3.0
4,11.865000009536743,learn,48134.99999046326,Wed Mar 25 2026 10:28:46 GMT-0500 (Central Daylight Time),530725.7999999523,A,corn,O,n,352,1,2218.399999856949,528507.4000000954,7786,WL,C,3.0
4,13.01200008392334,learn,46987.99991607666,Wed Mar 25 2026 10:28:46 GMT-0500 (Central Daylight Time),531872.7999999523,A,cornenter,O,enter,1127,1,3365.399999856949,528507.4000000954,7786,WL,C,3.0
4,13.879000186920166,learn,46120.999813079834,Wed Mar 25 2026 10:28:46 GMT-0500 (Central Daylight Time),532740.0999999046,A,c,O,c,863,1,867.0,531873.0999999046,7786,WL,C,4.0
4,14.564000129699707,learn,45435.99987030029,Wed Mar 25 2026 10:28:46 GMT-0500 (Central Daylight Time),533424.5999999046,A,ca,O,a,664,1,1551.5,531873.0999999046,7786,WL,C,4.0
4,15.111000061035156,learn,44888.999938964844,Wed Mar 25 2026 10:28:46 GMT-0500 (Central Daylight Time),533972.4000000954,A,cat,O,t,530,1,2099.300000190735,531873.0999999046,7786,WL,C,4.0
4,15.279000043869019,learn,44720.99995613098,Wed Mar 25 2026 10:28:46 GMT-0500 (Central Daylight Time),534140.0,A,catt,O,t,162,1,2266.9000000953674,531873.0999999046,7786,WL,C,4.0
4,15.644000053405762,learn,44355.99994659424,Wed Mar 25 2026 10:28:46 GMT-0500 (Central Daylight Time),534504.7000000477,A,cattl,O,l,353,1,2631.600000143051,531873.0999999046,7786,WL,C,4.0
4,16.09600019454956,learn,43903.99980545044,Wed Mar 25 2026 10:28:46 GMT-0500 (Central Daylight Time),534956.7999999523,A,cattle,O,e,447,1,3083.7000000476837,531873.0999999046,7786,WL,C,4.0
4,16.945000171661377,learn,43054.99982833862,Wed Mar 25 2026 10:28:46 GMT-0500 (Central Daylight Time),535805.7999999523,A,cattleenter,O,enter,833,1,3932.7000000476837,531873.0999999046,7786,WL,C,4.0
4,21.359000205993652,learn,38640.99979400635,Wed Mar 25 2026 10:28:46 GMT-0500 (Central Daylight Time),540221.0999999046,A,c,O,c,4409,1,4415.099999904633,535806.0,7786,WL,C,5.0
4,21.95800018310547,learn,38041.99981689453,Wed Mar 25 2026 10:28:46 GMT-0500 (Central Daylight Time),540820.0,A,ca,O,a,584,1,5014.0,535806.0,7786,WL,C,5.0
4,22.45800018310547,learn,37541.99981689453,Wed Mar 25 2026 10:28:46 GMT-0500 (Central Daylight Time),541320.2000000477,A,cat,O,t,491,1,5514.200000047684,535806.0,7786,WL,C,5.0
4,22.6560001373291,learn,37343.9998626709,Wed Mar 25 2026 10:28:46 GMT-0500 (Central Daylight Time),541518.2999999523,A,catt,O,t,181,1,5712.299999952316,535806.0,7786,WL,C,5.0
4,23.009000062942505,learn,36990.999937057495,Wed Mar 25 2026 10:28:46 GMT-0500 (Central Daylight Time),541871.4000000954,A,cattl,O,l,337,1,6065.400000095367,535806.0,7786,WL,C,5.0
4,23.37600016593933,learn,36623.99983406067,Wed Mar 25 2026 10:28:46 GMT-0500 (Central Daylight Time),542237.5,A,cattle,O,e,360,1,6431.5,535806.0,7786,WL,C,5.0
4,24.02500009536743,learn,35974.99990463257,Wed Mar 25 2026 10:28:46 GMT-0500 (Central Daylight Time),542887.2999999523,A,cattleenter,O,enter,634,1,7081.299999952316,535806.0,7786,WL,C,5.0
4,26.09000015258789,learn,33909.99984741211,Wed Mar 25 2026 10:28:46 GMT-0500 (Central Daylight Time),544952.0,A,q,O,q,2047,1,2064.4000000953674,542887.5999999046,7786,WL,C,6.0
4,26.407000064849854,learn,33592.99993515015,Wed Mar 25 2026 10:28:46 GMT-0500 (Central Daylight Time),545268.7000000477,A,qu,O,u,311,1,2381.100000143051,542887.5999999046,7786,WL,C,6.0
4,26.873000144958496,learn,33126.999855041504,Wed Mar 25 2026 10:28:46 GMT-0500 (Central Daylight Time),545734.7000000477,A,que,O,e,457,1,2847.100000143051,542887.5999999046,7786,WL,C,6.0
4,27.073000192642212,learn,32926.99980735779,Wed Mar 25 2026 10:28:46 GMT-0500 (Central Daylight Time),545934.9000000954,A,quee,O,e,184,1,3047.300000190735,542887.5999999046,7786,WL,C,6.0
4,27.456000089645386,learn,32543.999910354614,Wed Mar 25 2026 10:28:46 GMT-0500 (Central Daylight Time),546317.5999999046,A,queen,O,n,375,1,3430.0,542887.5999999046,7786,WL,C,6.0
4,28.67200016975403,learn,31327.99983024597,Wed Mar 25 2026 10:28:46 GMT-0500 (Central Daylight Time),547533.9000000954,A,queenenter,O,enter,1208,1,4646.300000190735,542887.5999999046,7786,WL,C,6.0
4,30.856000185012817,learn,29143.999814987183,Wed Mar 25 2026 10:28:46 GMT-0500 (Central Daylight Time),549718.0999999046,A,c,O,c,2179,1,2183.899999856949,547534.2000000477,7786,WL,C,7.0
4,31.6560001373291,learn,28343.9998626709,Wed Mar 25 2026 10:28:46 GMT-0500 (Central Daylight Time),550517.9000000954,A,ca,O,a,794,1,2983.7000000476837,547534.2000000477,7786,WL,C,7.0
4,32.07300019264221,learn,27926.999807357788,Wed Mar 25 2026 10:28:46 GMT-0500 (Central Daylight Time),550935.0999999046,A,can,O,n,394,1,3400.899999856949,547534.2000000477,7786,WL,C,7.0
4,33.206000089645386,learn,26793.999910354614,Wed Mar 25 2026 10:28:46 GMT-0500 (Central Daylight Time),552067.5,A,ca,O,backspace,1126,1,4533.299999952316,547534.2000000477,7786,WL,C,7.0
4,33.65500020980835,learn,26344.99979019165,Wed Mar 25 2026 10:28:46 GMT-0500 (Central Daylight Time),552516.5,A,cam,O,m,434,1,4982.299999952316,547534.2000000477,7786,WL,C,7.0
4,34.4210000038147,learn,25578.999996185303,Wed Mar 25 2026 10:28:46 GMT-0500 (Central Daylight Time),553282.5999999046,A,camp,O,p,753,1,5748.399999856949,547534.2000000477,7786,WL,C,7.0
4,35.80400013923645,learn,24195.99986076355,Wed Mar 25 2026 10:28:46 GMT-0500 (Central Daylight Time),554666.0999999046,A,campenter,O,enter,1371,1,7131.899999856949,547534.2000000477,7786,WL,C,7.0
4,36.82100009918213,learn,23178.99990081787,Wed Mar 25 2026 10:28:46 GMT-0500 (Central Daylight Time),555683.4000000954,A,h,O,h,1006,1,1017.1000001430511,554666.2999999523,7786,WL,C,8.0
4,37.5550000667572,learn,22444.999933242798,Wed Mar 25 2026 10:28:46 GMT-0500 (Central Daylight Time),556416.9000000954,A,ho,O,o,724,1,1750.6000001430511,554666.2999999523,7786,WL,C,8.0
4,38.986000061035156,learn,21013.999938964844,Wed Mar 25 2026 10:28:46 GMT-0500 (Central Daylight Time),557847.7999999523,A,hom,O,m,1414,1,3181.5,554666.2999999523,7786,WL,C,8.0
4,39.837000131607056,learn,20162.999868392944,Wed Mar 25 2026 10:28:46 GMT-0500 (Central Daylight Time),558698.5,A,home,O,e,830,1,4032.2000000476837,554666.2999999523,7786,WL,C,8.0
4,41.21900010108948,learn,18780.999898910522,Wed Mar 25 2026 10:28:46 GMT-0500 (Central Daylight Time),560081.4000000954,A,homen,O,n,1371,1,5415.100000143051,554666.2999999523,7786,WL,C,8.0
4,42.32000017166138,learn,17679.999828338623,Wed Mar 25 2026 10:28:46 GMT-0500 (Central Daylight Time),561181.7000000477,A,homena,O,a,1095,1,6515.400000095367,554666.2999999523,7786,WL,C,8.0
4,42.53600001335144,learn,17463.99998664856,Wed Mar 25 2026 10:28:46 GMT-0500 (Central Daylight Time),561398.4000000954,A,homenai,O,i,201,1,6732.100000143051,554666.2999999523,7786,WL,C,8.0
4,43.217000007629395,learn,16782.999992370605,Wed Mar 25 2026 10:28:46 GMT-0500 (Central Daylight Time),562079.2999999523,A,homenail,O,l,671,1,7413.0,554666.2999999523,7786,WL,C,8.0
4,44.23400020599365,learn,15765.999794006348,Wed Mar 25 2026 10:28:46 GMT-0500 (Central Daylight Time),563095.9000000954,A,homenailenter,O,enter,1007,1,8429.600000143051,554666.2999999523,7786,WL,C,8.0
4,46.25,learn,13750.0,Wed Mar 25 2026 10:28:46 GMT-0500 (Central Daylight Time),565111.9000000954,A,l,O,l,2007,1,2015.7000000476837,563096.2000000477,7786,WL,C,9.0
4,46.634000062942505,learn,13365.999937057495,Wed Mar 25 2026 10:28:46 GMT-0500 (Central Daylight Time),565495.5,A,le,O,e,378,1,2399.2999999523163,563096.2000000477,7786,WL,C,9.0
4,46.93400001525879,learn,13065.999984741211,Wed Mar 25 2026 10:28:46 GMT-0500 (Central Daylight Time),565796.2999999523,A,let,O,t,288,1,2700.0999999046326,563096.2000000477,7786,WL,C,9.0
4,47.08400011062622,learn,12915.99988937378,Wed Mar 25 2026 10:28:46 GMT-0500 (Central Daylight Time),565946.5,A,lett,O,t,130,1,2850.2999999523163,563096.2000000477,7786,WL,C,9.0
4,47.66600012779236,learn,12333.999872207642,Wed Mar 25 2026 10:28:46 GMT-0500 (Central Daylight Time),566528.0,A,lette,O,e,570,1,3431.7999999523163,563096.2000000477,7786,WL,C,9.0
4,47.985000133514404,learn,12014.999866485596,Wed Mar 25 2026 10:28:46 GMT-0500 (Central Daylight Time),566847.2000000477,A,letter,O,r,312,1,3751.0,563096.2000000477,7786,WL,C,9.0
4,48.48300004005432,learn,11516.999959945679,Wed Mar 25 2026 10:28:46 GMT-0500 (Central Daylight Time),567345.4000000954,A,letterenter,O,enter,478,1,4249.200000047684,563096.2000000477,7786,WL,C,9.0
4,53.18300008773804,learn,6816.999912261963,Wed Mar 25 2026 10:28:46 GMT-0500 (Central Daylight Time),572045.2000000477,A,b,O,b,4694,1,4699.5,567345.7000000477,7786,WL,C,10.0
4,53.616000175476074,learn,6383.999824523926,Wed Mar 25 2026 10:28:46 GMT-0500 (Central Daylight Time),572478.0,A,bo,O,o,416,1,5132.299999952316,567345.7000000477,7786,WL,C,10.0
4,54.080000162124634,learn,5919.999837875366,Wed Mar 25 2026 10:28:46 GMT-0500 (Central Daylight Time),572942.0999999046,A,boy,O,y,455,1,5596.399999856949,567345.7000000477,7786,WL,C,10.0
4,55.06400012969971,learn,4935.999870300293,Wed Mar 25 2026 10:28:46 GMT-0500 (Central Daylight Time),573926.5,A,boyenter,O,enter,978,1,6580.799999952316,567345.7000000477,7786,WL,C,10.0
4,56.015000104904175,learn,3984.999895095825,Wed Mar 25 2026 10:28:46 GMT-0500 (Central Daylight Time),574876.7999999523,A,b,O,b,938,1,950.0999999046326,573926.7000000477,7786,WL,C,11.0
4,56.21500015258789,learn,3784.9998474121094,Wed Mar 25 2026 10:28:46 GMT-0500 (Central Daylight Time),575077.2000000477,A,bo,O,o,186,1,1150.5,573926.7000000477,7786,WL,C,11.0
4,56.81500005722046,learn,3184.999942779541,Wed Mar 25 2026 10:28:46 GMT-0500 (Central Daylight Time),575677.2999999523,A,bod,O,d,595,1,1750.5999999046326,573926.7000000477,7786,WL,C,11.0
4,57.1470000743866,learn,2852.9999256134033,Wed Mar 25 2026 10:28:46 GMT-0500 (Central Daylight Time),576009.4000000954,A,body,O,y,320,1,2082.7000000476837,573926.7000000477,7786,WL,C,11.0
4,58.17900013923645,learn,1820.9998607635498,Wed Mar 25 2026 10:28:46 GMT-0500 (Central Daylight Time),577041.2999999523,A,bodyenter,O,enter,1020,1,3114.5999999046326,573926.7000000477,7786,WL,C,11.0
4,60.01300001144409,learn,-13.000011444091797,Wed Mar 25 2026 10:28:46 GMT-0500 (Central Daylight Time),578875.2000000477,A,None,O,None,1830,1,1833.7000000476837,577041.5,7786,WL,C,12.0
5,1.9839999675750732,learn,60000.0,Wed Mar 25 2026 10:28:46 GMT-0500 (Central Daylight Time),648320.5,A,t,O,t,1964,1,1983.7999999523163,646336.7000000477,7786,WL,C,1.0
5,2.4160001277923584,learn,60000.0,Wed Mar 25 2026 10:28:46 GMT-0500 (Central Daylight Time),648752.0,A,to,O,o,413,1,2415.2999999523163,646336.7000000477,7786,WL,C,1.0
5,2.9000000953674316,learn,60000.0,Wed Mar 25 2026 10:28:46 GMT-0500 (Central Daylight Time),649235.7000000477,A,tow,O,w,461,1,2899.0,646336.7000000477,7786,WL,C,1.0
5,3.3010001182556152,learn,60000.0,Wed Mar 25 2026 10:28:46 GMT-0500 (Central Daylight Time),649636.5999999046,A,towe,O,e,384,1,3299.899999856949,646336.7000000477,7786,WL,C,1.0
5,3.817000150680542,learn,60000.0,Wed Mar 25 2026 10:28:46 GMT-0500 (Central Daylight Time),650152.7999999523,A,tower,O,r,506,1,3816.0999999046326,646336.7000000477,7786,WL,C,1.0
5,4.6000001430511475,learn,60000.0,Wed Mar 25 2026 10:28:46 GMT-0500 (Central Daylight Time),650935.7999999523,A,towerenter,O,enter,766,1,4599.099999904633,646336.7000000477,7786,WL,C,1.0
5,5.732000112533569,learn,60000.0,Wed Mar 25 2026 10:28:46 GMT-0500 (Central Daylight Time),652068.2999999523,A,w,O,w,1117,1,1132.2999999523163,650936.0,7786,WL,C,2.0
5,6.065999984741211,learn,60000.0,Wed Mar 25 2026 10:28:46 GMT-0500 (Central Daylight Time),652401.7000000477,A,wh,O,h,315,1,1465.7000000476837,650936.0,7786,WL,C,2.0
5,6.381999969482422,learn,60000.0,Wed Mar 25 2026 10:28:46 GMT-0500 (Central Daylight Time),652718.2000000477,A,whe,O,e,299,1,1782.2000000476837,650936.0,7786,WL,C,2.0
5,6.914999961853027,learn,60000.0,Wed Mar 25 2026 10:28:46 GMT-0500 (Central Daylight Time),653251.2000000477,A,whea,O,a,526,1,2315.2000000476837,650936.0,7786,WL,C,2.0
5,7.5320000648498535,learn,60000.0,Wed Mar 25 2026 10:28:46 GMT-0500 (Central Daylight Time),653868.2999999523,A,wheat,O,t,603,1,2932.2999999523163,650936.0,7786,WL,C,2.0
5,8.131999969482422,learn,60000.0,Wed Mar 25 2026 10:28:46 GMT-0500 (Central Daylight Time),654467.5999999046,A,wheatenter,O,enter,584,1,3531.5999999046326,650936.0,7786,WL,C,2.0
5,9.414999961853027,learn,60000.0,Wed Mar 25 2026 10:28:46 GMT-0500 (Central Daylight Time),655750.7000000477,A,c,O,c,1262,1,1282.9000000953674,654467.7999999523,7786,WL,C,3.0
5,9.845999956130981,learn,60000.0,Wed Mar 25 2026 10:28:46 GMT-0500 (Central Daylight Time),656181.5,A,co,O,o,421,1,1713.7000000476837,654467.7999999523,7786,WL,C,3.0
5,10.430999994277954,learn,60000.0,Wed Mar 25 2026 10:28:46 GMT-0500 (Central Daylight Time),656767.2000000477,A,cor,O,r,567,1,2299.4000000953674,654467.7999999523,7786,WL,C,3.0
5,10.897000074386597,learn,60000.0,Wed Mar 25 2026 10:28:46 GMT-0500 (Central Daylight Time),657233.5,A,corn,O,n,446,1,2765.7000000476837,654467.7999999523,7786,WL,C,3.0
5,11.812000036239624,learn,60000.0,Wed Mar 25 2026 10:28:46 GMT-0500 (Central Daylight Time),658149.0,A,cornenter,O,enter,900,1,3681.2000000476837,654467.7999999523,7786,WL,C,3.0
5,12.764000177383423,learn,60000.0,Wed Mar 25 2026 10:28:46 GMT-0500 (Central Daylight Time),659100.5,A,c,O,c,946,1,951.2000000476837,658149.2999999523,7786,WL,C,4.0
5,13.42900013923645,learn,60000.0,Wed Mar 25 2026 10:28:46 GMT-0500 (Central Daylight Time),659766.2999999523,A,ca,O,a,648,1,1617.0,658149.2999999523,7786,WL,C,4.0
5,13.99399995803833,learn,60000.0,Wed Mar 25 2026 10:28:46 GMT-0500 (Central Daylight Time),660331.2000000477,A,cat,O,t,551,1,2181.9000000953674,658149.2999999523,7786,WL,C,4.0
5,14.162000179290771,learn,60000.0,Wed Mar 25 2026 10:28:46 GMT-0500 (Central Daylight Time),660499.2000000477,A,catt,O,t,146,1,2349.9000000953674,658149.2999999523,7786,WL,C,4.0
5,14.51200008392334,learn,60000.0,Wed Mar 25 2026 10:28:46 GMT-0500 (Central Daylight Time),660849.0,A,cattl,O,l,337,1,2699.7000000476837,658149.2999999523,7786,WL,C,4.0
5,14.830000162124634,learn,60000.0,Wed Mar 25 2026 10:28:46 GMT-0500 (Central Daylight Time),661166.5,A,cattle,O,e,311,1,3017.2000000476837,658149.2999999523,7786,WL,C,4.0
5,15.67799997329712,learn,60000.0,Wed Mar 25 2026 10:28:46 GMT-0500 (Central Daylight Time),662015.0999999046,A,cattleenter,O,enter,839,1,3865.7999999523163,658149.2999999523,7786,WL,C,4.0
5,16.9760000705719,learn,60000.0,Wed Mar 25 2026 10:28:46 GMT-0500 (Central Daylight Time),663313.0,A,q,O,q,1287,1,1297.5999999046326,662015.4000000954,7786,WL,C,5.0
5,17.460999965667725,learn,60000.0,Wed Mar 25 2026 10:28:46 GMT-0500 (Central Daylight Time),663798.0999999046,A,qu,O,u,472,1,1782.6999998092651,662015.4000000954,7786,WL,C,5.0
5,17.89300012588501,learn,60000.0,Wed Mar 25 2026 10:28:46 GMT-0500 (Central Daylight Time),664230.2000000477,A,que,O,e,424,1,2214.7999999523163,662015.4000000954,7786,WL,C,5.0
5,18.094000101089478,learn,60000.0,Wed Mar 25 2026 10:28:46 GMT-0500 (Central Daylight Time),664430.4000000954,A,quee,O,e,191,1,2415.0,662015.4000000954,7786,WL,C,5.0
5,18.444000005722046,learn,60000.0,Wed Mar 25 2026 10:28:46 GMT-0500 (Central Daylight Time),664781.2000000477,A,queen,O,n,336,1,2765.7999999523163,662015.4000000954,7786,WL,C,5.0
5,19.479000091552734,learn,60000.0,Wed Mar 25 2026 10:28:46 GMT-0500 (Central Daylight Time),665815.4000000954,A,queenenter,O,enter,1016,1,3800.0,662015.4000000954,7786,WL,C,5.0
5,21.210000038146973,learn,60000.0,Wed Mar 25 2026 10:28:46 GMT-0500 (Central Daylight Time),667546.7000000477,A,c,O,c,1720,1,1731.1000001430511,665815.5999999046,7786,WL,C,6.0
5,21.95900011062622,learn,60000.0,Wed Mar 25 2026 10:28:46 GMT-0500 (Central Daylight Time),668296.2999999523,A,ca,O,a,729,1,2480.7000000476837,665815.5999999046,7786,WL,C,6.0
5,22.759000062942505,learn,60000.0,Wed Mar 25 2026 10:28:46 GMT-0500 (Central Daylight Time),669095.9000000954,A,cam,O,m,789,1,3280.300000190735,665815.5999999046,7786,WL,C,6.0
5,23.69099998474121,learn,60000.0,Wed Mar 25 2026 10:28:46 GMT-0500 (Central Daylight Time),670028.2999999523,A,camp,O,p,917,1,4212.700000047684,665815.5999999046,7786,WL,C,6.0
5,24.776000022888184,learn,60000.0,Wed Mar 25 2026 10:28:46 GMT-0500 (Central Daylight Time),671112.4000000954,A,campenter,O,enter,1075,1,5296.800000190735,665815.5999999046,7786,WL,C,6.0
5,25.31000018119812,learn,60000.0,Wed Mar 25 2026 10:28:46 GMT-0500 (Central Daylight Time),671646.9000000954,A,s,O,s,530,1,534.2000000476837,671112.7000000477,7786,WL,C,7.0
5,25.592000007629395,learn,60000.0,Wed Mar 25 2026 10:28:46 GMT-0500 (Central Daylight Time),671928.4000000954,A,sh,O,h,262,1,815.7000000476837,671112.7000000477,7786,WL,C,7.0
5,26.442000150680542,learn,60000.0,Wed Mar 25 2026 10:28:46 GMT-0500 (Central Daylight Time),672778.5999999046,A,sho,O,o,838,1,1665.8999998569489,671112.7000000477,7786,WL,C,7.0
5,26.79100012779236,learn,60000.0,Wed Mar 25 2026 10:28:46 GMT-0500 (Central Daylight Time),673127.7999999523,A,shor,O,r,341,1,2015.0999999046326,671112.7000000477,7786,WL,C,7.0
5,27.108999967575073,learn,60000.0,Wed Mar 25 2026 10:28:46 GMT-0500 (Central Daylight Time),673445.4000000954,A,shore,O,e,312,1,2332.7000000476837,671112.7000000477,7786,WL,C,7.0
5,27.77500009536743,learn,60000.0,Wed Mar 25 2026 10:28:46 GMT-0500 (Central Daylight Time),674111.7999999523,A,shoreenter,O,enter,644,1,2999.0999999046326,671112.7000000477,7786,WL,C,7.0
5,28.341000080108643,learn,60000.0,Wed Mar 25 2026 10:28:46 GMT-0500 (Central Daylight Time),674678.0,A,b,O,b,551,1,565.9000000953674,674112.0999999046,7786,WL,C,8.0
5,28.625,learn,60000.0,Wed Mar 25 2026 10:28:46 GMT-0500 (Central Daylight Time),674961.9000000954,A,bo,O,o,263,1,849.8000001907349,674112.0999999046,7786,WL,C,8.0
5,29.69099998474121,learn,60000.0,Wed Mar 25 2026 10:28:46 GMT-0500 (Central Daylight Time),676027.7999999523,A,boy,O,y,1053,1,1915.7000000476837,674112.0999999046,7786,WL,C,8.0
5,33.63800001144409,learn,60000.0,Wed Mar 25 2026 10:28:46 GMT-0500 (Central Daylight Time),679975.0999999046,A,boyl,O,l,3930,1,5863.0,674112.0999999046,7786,WL,C,8.0
5,33.956000089645386,learn,60000.0,Wed Mar 25 2026 10:28:46 GMT-0500 (Central Daylight Time),680292.7000000477,A,boyle,O,e,312,1,6180.600000143051,674112.0999999046,7786,WL,C,8.0
5,34.28999996185303,learn,60000.0,Wed Mar 25 2026 10:28:46 GMT-0500 (Central Daylight Time),680627.0,A,boylet,O,t,324,1,6514.900000095367,674112.0999999046,7786,WL,C,8.0
5,34.4539999961853,learn,60000.0,Wed Mar 25 2026 10:28:46 GMT-0500 (Central Daylight Time),680791.2999999523,A,boylett,O,t,145,1,6679.200000047684,674112.0999999046,7786,WL,C,8.0
5,34.97099995613098,learn,60000.0,Wed Mar 25 2026 10:28:46 GMT-0500 (Central Daylight Time),681308.0,A,boylette,O,e,500,1,7195.900000095367,674112.0999999046,7786,WL,C,8.0
5,35.305999994277954,learn,60000.0,Wed Mar 25 2026 10:28:46 GMT-0500 (Central Daylight Time),681642.7000000477,A,boyletter,O,r,316,1,7530.600000143051,674112.0999999046,7786,WL,C,8.0
5,35.77300000190735,learn,60000.0,Wed Mar 25 2026 10:28:46 GMT-0500 (Central Daylight Time),682109.5999999046,A,boyletterenter,O,enter,451,1,7997.5,674112.0999999046,7786,WL,C,8.0
5,38.354000091552734,learn,60000.0,Wed Mar 25 2026 10:28:46 GMT-0500 (Central Daylight Time),684691.0999999046,A,h,O,h,2567,1,2581.199999809265,682109.9000000954,7786,WL,C,9.0
5,38.90499997138977,learn,60000.0,Wed Mar 25 2026 10:28:46 GMT-0500 (Central Daylight Time),685242.0999999046,A,ho,O,o,531,1,3132.199999809265,682109.9000000954,7786,WL,C,9.0
5,39.33800005912781,learn,60000.0,Wed Mar 25 2026 10:28:46 GMT-0500 (Central Daylight Time),685675.0999999046,A,hom,O,m,420,1,3565.199999809265,682109.9000000954,7786,WL,C,9.0
5,39.75399994850159,learn,60000.0,Wed Mar 25 2026 10:28:46 GMT-0500 (Central Daylight Time),686090.9000000954,A,home,O,e,405,1,3981.0,682109.9000000954,7786,WL,C,9.0
5,40.53700017929077,learn,60000.0,Wed Mar 25 2026 10:28:46 GMT-0500 (Central Daylight Time),686874.0,A,homeenter,O,enter,772,1,4764.099999904633,682109.9000000954,7786,WL,C,9.0
5,41.48699998855591,learn,60000.0,Wed Mar 25 2026 10:28:46 GMT-0500 (Central Daylight Time),687823.4000000954,A,d,O,d,945,1,949.2000000476837,686874.2000000477,7786,WL,C,10.0
5,41.80400013923645,learn,60000.0,Wed Mar 25 2026 10:28:46 GMT-0500 (Central Daylight Time),688140.7999999523,A,do,O,o,303,1,1266.5999999046326,686874.2000000477,7786,WL,C,10.0
5,42.12000012397766,learn,60000.0,Wed Mar 25 2026 10:28:46 GMT-0500 (Central Daylight Time),688456.9000000954,A,doc,O,c,296,1,1582.7000000476837,686874.2000000477,7786,WL,C,10.0
5,42.62100005149841,learn,60000.0,Wed Mar 25 2026 10:28:46 GMT-0500 (Central Daylight Time),688957.7999999523,A,doct,O,t,495,1,2083.5999999046326,686874.2000000477,7786,WL,C,10.0
5,42.98800015449524,learn,60000.0,Wed Mar 25 2026 10:28:46 GMT-0500 (Central Daylight Time),689324.4000000954,A,docto,O,o,361,1,2450.2000000476837,686874.2000000477,7786,WL,C,10.0
5,43.420000076293945,learn,60000.0,Wed Mar 25 2026 10:28:46 GMT-0500 (Central Daylight Time),689757.2999999523,A,doctor,O,r,417,1,2883.0999999046326,686874.2000000477,7786,WL,C,10.0
5,45.26800012588501,learn,60000.0,Wed Mar 25 2026 10:28:46 GMT-0500 (Central Daylight Time),691604.5,A,doctorenter,O,enter,1833,1,4730.299999952316,686874.2000000477,7786,WL,C,10.0
5,61.36300015449524,learn,60000.0,Wed Mar 25 2026 10:28:46 GMT-0500 (Central Daylight Time),707699.7000000477,A,b,O,b,16082,1,16095.0,691604.7000000477,7786,WL,C,11.0
6,1.433000087738037,distr,58566.99991226196,Wed Mar 25 2026 10:28:46 GMT-0500 (Central Daylight Time),775878.7999999523,B,m,O,m,1423,1,1432.5999999046326,774446.2000000477,7786,WL,C,1.0
6,2.197999954223633,distr,57802.00004577637,Wed Mar 25 2026 10:28:46 GMT-0500 (Central Daylight Time),776643.9000000954,B,mo,O,o,751,1,2197.7000000476837,774446.2000000477,7786,WL,C,1.0
6,2.9160001277923584,distr,57083.99987220764,Wed Mar 25 2026 10:28:46 GMT-0500 (Central Daylight Time),777362.2000000477,B,mon,O,n,699,1,2916.0,774446.2000000477,7786,WL,C,1.0
6,3.697999954223633,distr,56302.00004577637,Wed Mar 25 2026 10:28:46 GMT-0500 (Central Daylight Time),778144.7000000477,B,mone,O,e,772,1,3698.5,774446.2000000477,7786,WL,C,1.0
6,4.065000057220459,distr,55934.99994277954,Wed Mar 25 2026 10:28:46 GMT-0500 (Central Daylight Time),778511.7999999523,B,money,O,y,358,1,4065.5999999046326,774446.2000000477,7786,WL,C,1.0
6,5.081000089645386,distr,54918.999910354614,Wed Mar 25 2026 10:28:46 GMT-0500 (Central Daylight Time),779527.5999999046,B,moneyenter,O,enter,998,1,5081.399999856949,774446.2000000477,7786,WL,C,1.0
6,7.263999938964844,distr,52736.000061035156,Wed Mar 25 2026 10:28:46 GMT-0500 (Central Daylight Time),781711.0999999046,B,d,O,d,2179,1,2183.2999999523163,779527.7999999523,7786,WL,C,2.0
6,7.680000066757202,distr,52319.9999332428,Wed Mar 25 2026 10:28:46 GMT-0500 (Central Daylight Time),782126.4000000954,B,di,O,i,407,1,2598.600000143051,779527.7999999523,7786,WL,C,2.0
6,8.19700002670288,distr,51802.99997329712,Wed Mar 25 2026 10:28:46 GMT-0500 (Central Daylight Time),782643.5999999046,B,dia,O,a,502,1,3115.7999999523163,779527.7999999523,7786,WL,C,2.0
6,8.996000051498413,distr,51003.99994850159,Wed Mar 25 2026 10:28:46 GMT-0500 (Central Daylight Time),783442.9000000954,B,diam,O,m,788,1,3915.100000143051,779527.7999999523,7786,WL,C,2.0
6,9.779000043869019,distr,50220.99995613098,Wed Mar 25 2026 10:28:46 GMT-0500 (Central Daylight Time),784226.0,B,diamo,O,o,770,1,4698.200000047684,779527.7999999523,7786,WL,C,2.0
6,10.229000091552734,distr,49770.999908447266,Wed Mar 25 2026 10:28:46 GMT-0500 (Central Daylight Time),784675.5999999046,B,diamon,O,n,429,1,5147.799999952316,779527.7999999523,7786,WL,C,2.0
6,11.031000137329102,distr,48968.9998626709,Wed Mar 25 2026 10:28:46 GMT-0500 (Central Daylight Time),785477.2999999523,B,diamond,O,d,786,1,5949.5,779527.7999999523,7786,WL,C,2.0
6,12.180000066757202,distr,47819.9999332428,Wed Mar 25 2026 10:28:46 GMT-0500 (Central Daylight Time),786626.0999999046,B,diamondenter,O,enter,1128,1,7098.299999952316,779527.7999999523,7786,WL,C,2.0
6,12.845999956130981,distr,47154.00004386902,Wed Mar 25 2026 10:28:46 GMT-0500 (Central Daylight Time),787292.5,B,h,O,h,661,1,666.0999999046326,786626.4000000954,7786,WL,C,3.0
6,13.528000116348267,distr,46471.99988365173,Wed Mar 25 2026 10:28:46 GMT-0500 (Central Daylight Time),787975.0,B,ho,O,o,666,1,1348.5999999046326,786626.4000000954,7786,WL,C,3.0
6,13.944999933242798,distr,46055.0000667572,Wed Mar 25 2026 10:28:46 GMT-0500 (Central Daylight Time),788392.0,B,hot,O,t,399,1,1765.5999999046326,786626.4000000954,7786,WL,C,3.0
6,14.74399995803833,distr,45256.00004196167,Wed Mar 25 2026 10:28:46 GMT-0500 (Central Daylight Time),789190.5,B,hote,O,e,781,1,2564.0999999046326,786626.4000000954,7786,WL,C,3.0
6,15.479000091552734,distr,44520.999908447266,Wed Mar 25 2026 10:28:46 GMT-0500 (Central Daylight Time),789925.5,B,hotel,O,l,721,1,3299.0999999046326,786626.4000000954,7786,WL,C,3.0
6,17.061000108718872,distr,42938.99989128113,Wed Mar 25 2026 10:28:46 GMT-0500 (Central Daylight Time),791507.5,B,hotelenter,O,enter,1569,1,4881.099999904633,786626.4000000954,7786,WL,C,3.0
6,18.043999910354614,distr,41956.000089645386,Wed Mar 25 2026 10:28:46 GMT-0500 (Central Daylight Time),792490.2999999523,B,m,O,m,963,1,982.5999999046326,791507.7000000477,7786,WL,C,4.0
6,18.677000045776367,distr,41322.99995422363,Wed Mar 25 2026 10:28:46 GMT-0500 (Central Daylight Time),793123.9000000954,B,mo,O,o,620,1,1616.2000000476837,791507.7000000477,7786,WL,C,4.0
6,19.16000008583069,distr,40839.99991416931,Wed Mar 25 2026 10:28:46 GMT-0500 (Central Daylight Time),793606.2000000477,B,mot,O,t,467,1,2098.5,791507.7000000477,7786,WL,C,4.0
6,19.342999935150146,distr,40657.00006484985,Wed Mar 25 2026 10:28:46 GMT-0500 (Central Daylight Time),793789.7999999523,B,moth,O,h,178,1,2282.0999999046326,791507.7000000477,7786,WL,C,4.0
6,19.742000102996826,distr,40257.999897003174,Wed Mar 25 2026 10:28:46 GMT-0500 (Central Daylight Time),794188.9000000954,B,mothe,O,e,394,1,2681.2000000476837,791507.7000000477,7786,WL,C,4.0
6,20.14300012588501,distr,39856.99987411499,Wed Mar 25 2026 10:28:46 GMT-0500 (Central Daylight Time),794589.0999999046,B,mother,O,r,386,1,3081.399999856949,791507.7000000477,7786,WL,C,4.0
6,20.742000102996826,distr,39257.999897003174,Wed Mar 25 2026 10:28:46 GMT-0500 (Central Daylight Time),795188.7999999523,B,motherenter,O,enter,594,1,3681.0999999046326,791507.7000000477,7786,WL,C,4.0
6,22.259000062942505,distr,37740.999937057495,Wed Mar 25 2026 10:28:46 GMT-0500 (Central Daylight Time),796706.0,B,c,O,c,1498,1,1517.0,795189.0,7786,WL,C,5.0
6,22.625999927520752,distr,37374.00007247925,Wed Mar 25 2026 10:28:46 GMT-0500 (Central Daylight Time),797072.2000000477,B,ch,O,h,347,1,1883.2000000476837,795189.0,7786,WL,C,5.0
6,22.926000118255615,distr,37073.999881744385,Wed Mar 25 2026 10:28:46 GMT-0500 (Central Daylight Time),797372.7000000477,B,chr,O,r,276,1,2183.7000000476837,795189.0,7786,WL,C,5.0
6,23.210999965667725,distr,36789.000034332275,Wed Mar 25 2026 10:28:46 GMT-0500 (Central Daylight Time),797661.4000000954,B,chri,O,i,271,1,2472.4000000953674,795189.0,7786,WL,C,5.0
6,23.55900001525879,distr,36440.99998474121,Wed Mar 25 2026 10:28:46 GMT-0500 (Central Daylight Time),798005.7000000477,B,chris,O,s,326,1,2816.7000000476837,795189.0,7786,WL,C,5.0
6,24.240999937057495,distr,35759.000062942505,Wed Mar 25 2026 10:28:46 GMT-0500 (Central Daylight Time),798687.7000000477,B,christ,O,t,673,1,3498.7000000476837,795189.0,7786,WL,C,5.0
6,24.808000087738037,distr,35191.99991226196,Wed Mar 25 2026 10:28:46 GMT-0500 (Central Daylight Time),799254.9000000954,B,christm,O,m,551,1,4065.9000000953674,795189.0,7786,WL,C,5.0
6,25.258000135421753,distr,34741.99986457825,Wed Mar 25 2026 10:28:46 GMT-0500 (Central Daylight Time),799704.2999999523,B,christma,O,a,429,1,4515.299999952316,795189.0,7786,WL,C,5.0
6,25.941999912261963,distr,34058.00008773804,Wed Mar 25 2026 10:28:46 GMT-0500 (Central Daylight Time),800388.5999999046,B,christmas,O,s,678,1,5199.599999904633,795189.0,7786,WL,C,5.0
6,27.707000017166138,distr,32292.999982833862,Wed Mar 25 2026 10:28:46 GMT-0500 (Central Daylight Time),802153.4000000954,B,christmasenter,O,enter,1752,1,6964.400000095367,795189.0,7786,WL,C,5.0
6,28.740999937057495,distr,31259.000062942505,Wed Mar 25 2026 10:28:46 GMT-0500 (Central Daylight Time),803187.4000000954,B,s,O,s,1022,1,1033.7000000476837,802153.7000000477,7786,WL,C,6.0
6,29.074000120162964,distr,30925.999879837036,Wed Mar 25 2026 10:28:46 GMT-0500 (Central Daylight Time),803520.4000000954,B,sk,O,k,317,1,1366.7000000476837,802153.7000000477,7786,WL,C,6.0
6,29.574000120162964,distr,30425.999879837036,Wed Mar 25 2026 10:28:46 GMT-0500 (Central Daylight Time),804020.7000000477,B,sky,O,y,495,1,1867.0,802153.7000000477,7786,WL,C,6.0
6,30.740999937057495,distr,29259.000062942505,Wed Mar 25 2026 10:28:46 GMT-0500 (Central Daylight Time),805187.4000000954,B,skyenter,O,enter,1144,1,3033.7000000476837,802153.7000000477,7786,WL,C,6.0
6,34.48799991607666,distr,25512.00008392334,Wed Mar 25 2026 10:28:46 GMT-0500 (Central Daylight Time),808934.2999999523,B,enter,O,enter,3732,1,3746.7000000476837,805187.5999999046,7786,WL,C,7.0
6,34.704999923706055,distr,25295.000076293945,Wed Mar 25 2026 10:28:46 GMT-0500 (Central Daylight Time),809151.5,B,enter,O,enter,199,1,216.90000009536743,808934.5999999046,7786,WL,C,8.0
6,34.90499997138977,distr,25095.00002861023,Wed Mar 25 2026 10:28:46 GMT-0500 (Central Daylight Time),809351.4000000954,B,enter,O,enter,191,1,199.70000004768372,809151.7000000477,7786,WL,C,9.0
6,35.13800001144409,distr,24861.99998855591,Wed Mar 25 2026 10:28:46 GMT-0500 (Central Daylight Time),809584.2999999523,B,enter,O,enter,215,1,232.70000004768372,809351.5999999046,7786,WL,C,10.0
6,35.33800005912781,distr,24661.999940872192,Wed Mar 25 2026 10:28:46 GMT-0500 (Central Daylight Time),809784.5,B,enter,O,enter,189,1,199.90000009536743,809584.5999999046,7786,WL,C,11.0
6,35.555999994277954,distr,24444.000005722046,Wed Mar 25 2026 10:28:46 GMT-0500 (Central Daylight Time),810002.5,B,enter,O,enter,197,1,217.70000004768372,809784.7999999523,7786,WL,C,12.0
6,35.75500011444092,distr,24244.999885559082,Wed Mar 25 2026 10:28:46 GMT-0500 (Central Daylight Time),810202.0,B,enter,O,enter,188,1,199.20000004768372,810002.7999999523,7786,WL,C,13.0
6,36.00399994850159,distr,23996.000051498413,Wed Mar 25 2026 10:28:46 GMT-0500 (Central Daylight Time),810450.7000000477,B,enter,O,enter,229,1,248.40000009536743,810202.2999999523,7786,WL,C,14.0
6,36.23799991607666,distr,23762.00008392334,Wed Mar 25 2026 10:28:46 GMT-0500 (Central Daylight Time),810684.4000000954,B,enter,O,enter,227,1,233.40000009536743,810451.0,7786,WL,C,15.0
7,8.148000001907349,immed,51851.99999809265,Wed Mar 25 2026 10:28:46 GMT-0500 (Central Daylight Time),824798.2999999523,A,s,O,s,8141,1,8147.599999904633,816650.7000000477,7786,WL,C,1.0
7,8.396000146865845,immed,51603.999853134155,Wed Mar 25 2026 10:28:46 GMT-0500 (Central Daylight Time),825046.4000000954,A,sk,O,k,241,1,8395.700000047684,816650.7000000477,7786,WL,C,1.0
7,9.495000123977661,immed,50504.99987602234,Wed Mar 25 2026 10:28:46 GMT-0500 (Central Daylight Time),826145.7999999523,A,sky,O,y,1080,1,9495.099999904633,816650.7000000477,7786,WL,C,1.0
7,12.294000148773193,immed,47705.99985122681,Wed Mar 25 2026 10:28:46 GMT-0500 (Central Daylight Time),828944.7999999523,A,skyenter,O,enter,2790,1,12294.099999904633,816650.7000000477,7786,WL,C,1.0
7,14.67799997329712,immed,45322.00002670288,Wed Mar 25 2026 10:28:46 GMT-0500 (Central Daylight Time),831328.2000000477,A,m,O,m,2364,1,2383.2000000476837,828945.0,7786,WL,C,2.0
7,15.17799997329712,immed,44822.00002670288,Wed Mar 25 2026 10:28:46 GMT-0500 (Central Daylight Time),831828.2999999523,A,mo,O,o,491,1,2883.2999999523163,828945.0,7786,WL,C,2.0
7,15.577000141143799,immed,44422.9998588562,Wed Mar 25 2026 10:28:46 GMT-0500 (Central Daylight Time),832227.9000000954,A,mot,O,t,384,1,3282.9000000953674,828945.0,7786,WL,C,2.0
7,15.776999950408936,immed,44223.000049591064,Wed Mar 25 2026 10:28:46 GMT-0500 (Central Daylight Time),832427.5,A,moth,O,h,195,1,3482.5,828945.0,7786,WL,C,2.0
7,16.259000062942505,immed,43740.999937057495,Wed Mar 25 2026 10:28:46 GMT-0500 (Central Daylight Time),832910.0999999046,A,mothe,O,e,476,1,3965.0999999046326,828945.0,7786,WL,C,2.0
7,16.625999927520752,immed,43374.00007247925,Wed Mar 25 2026 10:28:46 GMT-0500 (Central Daylight Time),833276.4000000954,A,mother,O,r,360,1,4331.400000095367,828945.0,7786,WL,C,2.0
7,17.34500002861023,immed,42654.99997138977,Wed Mar 25 2026 10:28:46 GMT-0500 (Central Daylight Time),833995.2999999523,A,motherenter,O,enter,703,1,5050.299999952316,828945.0,7786,WL,C,2.0
7,18.526000022888184,immed,41473.99997711182,Wed Mar 25 2026 10:28:46 GMT-0500 (Central Daylight Time),835176.4000000954,A,d,O,d,1163,1,1180.8000001907349,833995.5999999046,7786,WL,C,3.0
7,18.759000062942505,immed,41240.999937057495,Wed Mar 25 2026 10:28:46 GMT-0500 (Central Daylight Time),835409.5,A,di,O,i,213,1,1413.9000000953674,833995.5999999046,7786,WL,C,3.0
7,19.30900001525879,immed,40690.99998474121,Wed Mar 25 2026 10:28:46 GMT-0500 (Central Daylight Time),835959.4000000954,A,dia,O,a,540,1,1963.8000001907349,833995.5999999046,7786,WL,C,3.0
7,19.610000133514404,immed,40389.999866485596,Wed Mar 25 2026 10:28:46 GMT-0500 (Central Daylight Time),836260.5,A,diam,O,m,285,1,2264.9000000953674,833995.5999999046,7786,WL,C,3.0
7,20.19099998474121,immed,39809.00001525879,Wed Mar 25 2026 10:28:46 GMT-0500 (Central Daylight Time),836841.9000000954,A,diamo,O,o,569,1,2846.300000190735,833995.5999999046,7786,WL,C,3.0
7,20.55900001525879,immed,39440.99998474121,Wed Mar 25 2026 10:28:46 GMT-0500 (Central Daylight Time),837210.4000000954,A,diamon,O,n,346,1,3214.800000190735,833995.5999999046,7786,WL,C,3.0
7,21.08999991416931,immed,38910.00008583069,Wed Mar 25 2026 10:28:46 GMT-0500 (Central Daylight Time),837741.7999999523,A,diamond,O,d,515,1,3746.2000000476837,833995.5999999046,7786,WL,C,3.0
7,22.890000104904175,immed,37109.999895095825,Wed Mar 25 2026 10:28:46 GMT-0500 (Central Daylight Time),839541.4000000954,A,diamondenter,O,enter,1781,1,5545.800000190735,833995.5999999046,7786,WL,C,3.0
7,23.707000017166138,immed,36292.99998283386,Wed Mar 25 2026 10:28:46 GMT-0500 (Central Daylight Time),840358.0,A,h,O,h,801,1,816.2999999523163,839541.7000000477,7786,WL,C,4.0
7,24.374000072479248,immed,35625.99992752075,Wed Mar 25 2026 10:28:46 GMT-0500 (Central Daylight Time),841025.2000000477,A,ho,O,o,648,1,1483.5,839541.7000000477,7786,WL,C,4.0
7,24.789999961853027,immed,35210.00003814697,Wed Mar 25 2026 10:28:46 GMT-0500 (Central Daylight Time),841441.0999999046,A,hot,O,t,394,1,1899.3999998569489,839541.7000000477,7786,WL,C,4.0
7,25.58899998664856,immed,34411.00001335144,Wed Mar 25 2026 10:28:46 GMT-0500 (Central Daylight Time),842240.5,A,hote,O,e,785,1,2698.7999999523163,839541.7000000477,7786,WL,C,4.0
7,26.15400004386902,immed,33845.99995613098,Wed Mar 25 2026 10:28:46 GMT-0500 (Central Daylight Time),842805.9000000954,A,hotel,O,l,558,1,3264.2000000476837,839541.7000000477,7786,WL,C,4.0
7,27.138000011444092,immed,32861.99998855591,Wed Mar 25 2026 10:28:46 GMT-0500 (Central Daylight Time),843789.5999999046,A,hotelenter,O,enter,967,1,4247.899999856949,839541.7000000477,7786,WL,C,4.0
7,27.954999923706055,immed,32045.000076293945,Wed Mar 25 2026 10:28:46 GMT-0500 (Central Daylight Time),844606.2999999523,A,m,O,m,801,1,816.3999998569489,843789.9000000954,7786,WL,C,5.0
7,28.305999994277954,immed,31694.000005722046,Wed Mar 25 2026 10:28:46 GMT-0500 (Central Daylight Time),844957.2000000477,A,mo,O,o,343,1,1167.2999999523163,843789.9000000954,7786,WL,C,5.0
7,28.65499997138977,immed,31345.00002861023,Wed Mar 25 2026 10:28:46 GMT-0500 (Central Daylight Time),845307.2000000477,A,mon,O,n,336,1,1517.2999999523163,843789.9000000954,7786,WL,C,5.0
7,29.15499997138977,immed,30845.00002861023,Wed Mar 25 2026 10:28:46 GMT-0500 (Central Daylight Time),845806.4000000954,A,mone,O,e,489,1,2016.5,843789.9000000954,7786,WL,C,5.0
7,29.48900008201599,immed,30510.99991798401,Wed Mar 25 2026 10:28:46 GMT-0500 (Central Daylight Time),846140.7000000477,A,money,O,y,320,1,2350.7999999523163,843789.9000000954,7786,WL,C,5.0
7,30.736999988555908,immed,29263.00001144409,Wed Mar 25 2026 10:28:46 GMT-0500 (Central Daylight Time),847388.5999999046,A,moneyenter,O,enter,1240,1,3598.699999809265,843789.9000000954,7786,WL,C,5.0
7,37.61899995803833,immed,22381.00004196167,Wed Mar 25 2026 10:28:46 GMT-0500 (Central Daylight Time),854270.2000000477,A,f,O,f,6861,1,6881.299999952316,847388.9000000954,7786,WL,C,6.0
7,37.901999950408936,immed,22098.000049591064,Wed Mar 25 2026 10:28:46 GMT-0500 (Central Daylight Time),854553.2999999523,A,fo,O,o,270,1,7164.399999856949,847388.9000000954,7786,WL,C,6.0
7,38.170000076293945,immed,21829.999923706055,Wed Mar 25 2026 10:28:46 GMT-0500 (Central Daylight Time),854821.7999999523,A,for,O,r,253,1,7432.899999856949,847388.9000000954,7786,WL,C,6.0
7,38.41799998283386,immed,21582.000017166138,Wed Mar 25 2026 10:28:46 GMT-0500 (Central Daylight Time),855069.2999999523,A,fore,O,e,239,1,7680.399999856949,847388.9000000954,7786,WL,C,6.0
7,38.80299997329712,immed,21197.00002670288,Wed Mar 25 2026 10:28:46 GMT-0500 (Central Daylight Time),855454.2000000477,A,fores,O,s,377,1,8065.299999952316,847388.9000000954,7786,WL,C,6.0
7,39.33500003814697,immed,20664.999961853027,Wed Mar 25 2026 10:28:46 GMT-0500 (Central Daylight Time),855986.9000000954,A,forest,O,t,510,1,8598.0,847388.9000000954,7786,WL,C,6.0
7,39.93499994277954,immed,20065.00005722046,Wed Mar 25 2026 10:28:46 GMT-0500 (Central Daylight Time),856586.5999999046,A,forestenter,O,enter,579,1,9197.699999809265,847388.9000000954,7786,WL,C,6.0
7,47.0,immed,13000.0,Wed Mar 25 2026 10:28:46 GMT-0500 (Central Daylight Time),863651.0999999046,A,b,O,b,7052,1,7064.199999809265,856586.9000000954,7786,WL,C,7.0
7,47.53399991989136,immed,12466.000080108643,Wed Mar 25 2026 10:28:46 GMT-0500 (Central Daylight Time),864185.2000000477,A,bu,O,u,515,1,7598.299999952316,856586.9000000954,7786,WL,C,7.0
7,47.88199996948242,immed,12118.000030517578,Wed Mar 25 2026 10:28:46 GMT-0500 (Central Daylight Time),864533.2999999523,A,but,O,t,333,1,7946.399999856949,856586.9000000954,7786,WL,C,7.0
7,48.032999992370605,immed,11967.000007629395,Wed Mar 25 2026 10:28:46 GMT-0500 (Central Daylight Time),864684.2999999523,A,butt,O,t,133,1,8097.399999856949,856586.9000000954,7786,WL,C,7.0
7,48.449000120162964,immed,11550.999879837036,Wed Mar 25 2026 10:28:46 GMT-0500 (Central Daylight Time),865100.7000000477,A,butte,O,e,402,1,8513.799999952316,856586.9000000954,7786,WL,C,7.0
7,48.801000118255615,immed,11198.999881744385,Wed Mar 25 2026 10:28:46 GMT-0500 (Central Daylight Time),865452.4000000954,A,butter,O,r,327,1,8865.5,856586.9000000954,7786,WL,C,7.0
7,49.23099994659424,immed,10769.000053405762,Wed Mar 25 2026 10:28:46 GMT-0500 (Central Daylight Time),865882.9000000954,A,butterenter,O,enter,409,1,9296.0,856586.9000000954,7786,WL,C,7.0
7,56.11199998855591,immed,3888.000011444092,Wed Mar 25 2026 10:28:46 GMT-0500 (Central Daylight Time),872763.7000000477,A,enter,O,enter,6875,1,6880.700000047684,865883.0,7786,WL,C,8.0
7,56.44600009918213,immed,3553.999900817871,Wed Mar 25 2026 10:28:46 GMT-0500 (Central Daylight Time),873097.5,A,enter,O,enter,313,1,333.40000009536743,872764.0999999046,7786,WL,C,9.0
7,56.7279999256134,immed,3272.0000743865967,Wed Mar 25 2026 10:28:46 GMT-0500 (Central Daylight Time),873379.4000000954,A,enter,O,enter,268,1,281.60000014305115,873097.7999999523,7786,WL,C,10.0
7,56.99600005149841,immed,3003.999948501587,Wed Mar 25 2026 10:28:46 GMT-0500 (Central Daylight Time),873648.0,A,enter,O,enter,259,1,268.2999999523163,873379.7000000477,7786,WL,C,11.0
7,57.34599995613098,immed,2654.0000438690186,Wed Mar 25 2026 10:28:46 GMT-0500 (Central Daylight Time),873997.5999999046,A,enter,O,enter,335,1,349.39999985694885,873648.2000000477,7786,WL,C,12.0
7,57.66199994087219,immed,2338.0000591278076,Wed Mar 25 2026 10:28:46 GMT-0500 (Central Daylight Time),874313.0999999046,A,enter,O,enter,305,1,315.0,873998.0999999046,7786,WL,C,13.0
7,58.02999997138977,immed,1970.0000286102295,Wed Mar 25 2026 10:28:46 GMT-0500 (Central Daylight Time),874681.4000000954,A,enter,O,enter,349,1,368.10000014305115,874313.2999999523,7786,WL,C,14.0
7,58.49600005149841,immed,1503.999948501587,Wed Mar 25 2026 10:28:46 GMT-0500 (Central Daylight Time),875147.5,A,enter,O,enter,453,1,465.7999999523163,874681.7000000477,7786,WL,C,15.0
