acc_sum,block,block_c,block_cond,con_img,correct,correct_response,datetime,endtime,face,jitter,line,project,response,response_time,row_sel,session_number,start_end,starttime,subject_id,task,task_vers,trial
0,prac,1,A,haborder.png,0,z,Tue Oct 21 2025 10:39:44 GMT-0500 (Central Daylight Time),37685.2000002861,CFD-WM-013-015-A.jpg,1900,solid,I,m,815,8,2,3499.1000003814697,34186.09999990463,8009,ATS,A,1
1,prac,1,A,haborder.png,1,z,Tue Oct 21 2025 10:39:44 GMT-0500 (Central Daylight Time),40800.7000002861,CFD-BM-005-010-A.jpg,1600,solid,I,z,720,2,2,6614.60000038147,34186.09999990463,8009,ATS,A,2
1,prac,1,A,haborder.png,0,m,Tue Oct 21 2025 10:39:44 GMT-0500 (Central Daylight Time),43399.800000190735,CFD-BM-029-026-HC.jpg,1500,solid,I,z,306,3,2,9213.700000286102,34186.09999990463,8009,ATS,A,3
2,prac,1,A,haborder.png,1,m,Tue Oct 21 2025 10:39:44 GMT-0500 (Central Daylight Time),46565.59999990463,CFD-BM-017-052-HC.jpg,1700,solid,I,m,675,1,2,12379.5,34186.09999990463,8009,ATS,A,4
3,prac,1,A,haborder.png,1,z,Tue Oct 21 2025 10:39:44 GMT-0500 (Central Daylight Time),49664.59999990463,CFD-WF-003-014-A.jpg,1600,solid,I,z,705,10,2,15478.5,34186.09999990463,8009,ATS,A,5
4,prac,1,A,haborder.png,1,z,Tue Oct 21 2025 10:39:44 GMT-0500 (Central Daylight Time),52363.800000190735,CFD-BF-039-039-A.jpg,1200,solid,I,z,701,6,2,18177.700000286102,34186.09999990463,8009,ATS,A,6
5,prac,1,A,haborder.png,1,m,Tue Oct 21 2025 10:39:44 GMT-0500 (Central Daylight Time),55546.2000002861,CFD-WM-006-013-HC.jpg,1700,solid,I,m,707,9,2,21360.10000038147,34186.09999990463,8009,ATS,A,7
6,prac,1,A,haborder.png,1,m,Tue Oct 21 2025 10:39:44 GMT-0500 (Central Daylight Time),58678.40000009537,CFD-WF-017-016-HC.jpg,1500,solid,I,m,848,11,2,24492.300000190735,34186.09999990463,8009,ATS,A,8
7,prac,1,A,haborder.png,1,z,Tue Oct 21 2025 10:39:44 GMT-0500 (Central Daylight Time),61694.2000002861,CFD-BF-023-013-A.jpg,1000,solid,I,z,1232,4,2,27508.10000038147,34186.09999990463,8009,ATS,A,9
8,prac,1,A,haborder.png,1,m,Tue Oct 21 2025 10:39:44 GMT-0500 (Central Daylight Time),65193.2000002861,CFD-BF-028-020-HC.jpg,2000,solid,I,m,703,5,2,31007.10000038147,34186.09999990463,8009,ATS,A,10
9,prac,1,A,haborder.png,1,m,Tue Oct 21 2025 10:39:44 GMT-0500 (Central Daylight Time),67958.90000009537,CFD-WM-004-005-HC.jpg,1400,solid,I,m,581,7,2,33772.800000190735,34186.09999990463,8009,ATS,A,11
10,prac,1,A,haborder.png,1,z,Tue Oct 21 2025 10:39:44 GMT-0500 (Central Daylight Time),70424.90000009537,CFD-WF-019-015-A.jpg,1000,solid,I,z,671,12,2,36238.800000190735,34186.09999990463,8009,ATS,A,12
1,prac,1,B,mfborder.png,1,z,Tue Oct 21 2025 10:39:44 GMT-0500 (Central Daylight Time),86753.0,CFD-BF-010-005-HC.jpg,1500,dash,I,z,729,3,2,3015.7999997138977,83737.2000002861,8009,ATS,A,1
2,prac,1,B,mfborder.png,1,z,Tue Oct 21 2025 10:39:44 GMT-0500 (Central Daylight Time),90485.0,CFD-WF-002-008-HC.jpg,1900,dash,I,z,1034,8,2,6747.799999713898,83737.2000002861,8009,ATS,A,2
3,prac,1,B,mfborder.png,1,m,Tue Oct 21 2025 10:39:44 GMT-0500 (Central Daylight Time),93451.0,CFD-WM-013-015-A.jpg,1700,dash,I,m,476,9,2,9713.799999713898,83737.2000002861,8009,ATS,A,3
4,prac,1,B,mfborder.png,1,z,Tue Oct 21 2025 10:39:44 GMT-0500 (Central Daylight Time),96266.7000002861,CFD-BF-023-013-A.jpg,1000,dash,I,z,1026,4,2,12529.5,83737.2000002861,8009,ATS,A,4
5,prac,1,B,mfborder.png,1,m,Tue Oct 21 2025 10:39:44 GMT-0500 (Central Daylight Time),99432.30000019073,CFD-WM-019-013-A.jpg,1200,dash,I,m,1179,6,2,15695.099999904633,83737.2000002861,8009,ATS,A,5
6,prac,1,B,mfborder.png,1,m,Tue Oct 21 2025 10:39:44 GMT-0500 (Central Daylight Time),102781.2000002861,CFD-BM-010-019-A.jpg,1600,dash,I,m,979,2,2,19044.0,83737.2000002861,8009,ATS,A,6
7,prac,1,B,mfborder.png,1,z,Tue Oct 21 2025 10:39:44 GMT-0500 (Central Daylight Time),105797.0,CFD-BF-028-020-HC.jpg,1400,dash,I,z,832,7,2,22059.799999713898,83737.2000002861,8009,ATS,A,7
8,prac,1,B,mfborder.png,1,m,Tue Oct 21 2025 10:39:44 GMT-0500 (Central Daylight Time),109046.2000002861,CFD-WM-006-013-HC.jpg,1600,dash,I,m,857,10,2,25309.0,83737.2000002861,8009,ATS,A,8
9,prac,1,B,mfborder.png,1,m,Tue Oct 21 2025 10:39:44 GMT-0500 (Central Daylight Time),112361.40000009537,CFD-BM-005-010-A.jpg,2000,dash,I,m,520,5,2,28624.199999809265,83737.2000002861,8009,ATS,A,9
10,prac,1,B,mfborder.png,1,z,Tue Oct 21 2025 10:39:44 GMT-0500 (Central Daylight Time),114794.0,CFD-WF-017-016-HC.jpg,1000,dash,I,z,644,12,2,31056.799999713898,83737.2000002861,8009,ATS,A,10
11,prac,1,B,mfborder.png,1,z,Tue Oct 21 2025 10:39:44 GMT-0500 (Central Daylight Time),117693.0,CFD-WF-003-014-A.jpg,1500,dash,I,z,600,11,2,33955.7999997139,83737.2000002861,8009,ATS,A,11
12,prac,1,B,mfborder.png,1,m,Tue Oct 21 2025 10:39:44 GMT-0500 (Central Daylight Time),121575.30000019073,CFD-BM-029-026-HC.jpg,1700,dash,I,m,1397,1,2,37838.09999990463,83737.2000002861,8009,ATS,A,12
1,test,1,A,haborder.png,1,m,Tue Oct 21 2025 10:39:44 GMT-0500 (Central Daylight Time),136637.30000019073,CFD-WM-006-013-HC.jpg,1700,solid,I,m,676,9,2,2399.300000190735,134238.0,8009,ATS,A,1
2,test,1,A,haborder.png,1,m,Tue Oct 21 2025 10:39:44 GMT-0500 (Central Daylight Time),139003.2000002861,CFD-WM-006-013-HC.jpg,1700,solid,I,m,644,9,2,4765.200000286102,134238.0,8009,ATS,A,2
3,test,1,A,haborder.png,1,m,Tue Oct 21 2025 10:39:44 GMT-0500 (Central Daylight Time),141485.59999990463,CFD-BM-017-052-HC.jpg,1700,solid,I,m,749,1,2,7247.599999904633,134238.0,8009,ATS,A,3
4,test,1,A,haborder.png,1,z,Tue Oct 21 2025 10:39:44 GMT-0500 (Central Daylight Time),143918.30000019073,CFD-WF-003-014-A.jpg,1600,solid,I,z,800,10,2,9680.300000190735,134238.0,8009,ATS,A,4
5,test,1,A,haborder.png,1,m,Tue Oct 21 2025 10:39:44 GMT-0500 (Central Daylight Time),146300.80000019073,CFD-WM-004-005-HC.jpg,1400,solid,I,m,959,7,2,12062.800000190735,134238.0,8009,ATS,A,5
6,test,1,A,haborder.png,1,z,Tue Oct 21 2025 10:39:44 GMT-0500 (Central Daylight Time),148833.40000009537,CFD-BM-005-010-A.jpg,1600,solid,I,z,905,2,2,14595.400000095367,134238.0,8009,ATS,A,6
7,test,1,A,haborder.png,1,z,Tue Oct 21 2025 10:39:44 GMT-0500 (Central Daylight Time),150750.40000009537,CFD-BF-039-039-A.jpg,1200,solid,I,z,684,6,2,16512.400000095367,134238.0,8009,ATS,A,7
8,test,1,A,haborder.png,1,z,Tue Oct 21 2025 10:39:44 GMT-0500 (Central Daylight Time),152365.80000019073,CFD-BF-023-013-A.jpg,1000,solid,I,z,584,4,2,18127.800000190735,134238.0,8009,ATS,A,8
9,test,1,A,haborder.png,1,z,Tue Oct 21 2025 10:39:44 GMT-0500 (Central Daylight Time),154698.2000002861,CFD-BM-005-010-A.jpg,1600,solid,I,z,712,2,2,20460.200000286102,134238.0,8009,ATS,A,9
10,test,1,A,haborder.png,1,z,Tue Oct 21 2025 10:39:44 GMT-0500 (Central Daylight Time),157114.2000002861,CFD-WM-013-015-A.jpg,1900,solid,I,z,496,8,2,22876.200000286102,134238.0,8009,ATS,A,10
11,test,1,A,haborder.png,1,z,Tue Oct 21 2025 10:39:44 GMT-0500 (Central Daylight Time),158980.09999990463,CFD-BF-039-039-A.jpg,1200,solid,I,z,643,6,2,24742.099999904633,134238.0,8009,ATS,A,11
12,test,1,A,haborder.png,1,m,Tue Oct 21 2025 10:39:44 GMT-0500 (Central Daylight Time),161296.2000002861,CFD-WF-017-016-HC.jpg,1500,solid,I,m,790,11,2,27058.200000286102,134238.0,8009,ATS,A,12
13,test,1,A,haborder.png,1,z,Tue Oct 21 2025 10:39:44 GMT-0500 (Central Daylight Time),164245.09999990463,CFD-WM-013-015-A.jpg,1900,solid,I,z,1017,8,2,30007.099999904633,134238.0,8009,ATS,A,13
14,test,1,A,haborder.png,1,m,Tue Oct 21 2025 10:39:44 GMT-0500 (Central Daylight Time),166694.40000009537,CFD-BM-029-026-HC.jpg,1500,solid,I,m,924,3,2,32456.400000095367,134238.0,8009,ATS,A,14
15,test,1,A,haborder.png,1,z,Tue Oct 21 2025 10:39:44 GMT-0500 (Central Daylight Time),168693.90000009537,CFD-BF-023-013-A.jpg,1000,solid,I,z,968,4,2,34455.90000009537,134238.0,8009,ATS,A,15
16,test,1,A,haborder.png,1,z,Tue Oct 21 2025 10:39:44 GMT-0500 (Central Daylight Time),171059.7000002861,CFD-WF-003-014-A.jpg,1600,solid,I,z,744,10,2,36821.7000002861,134238.0,8009,ATS,A,16
17,test,1,A,haborder.png,1,m,Tue Oct 21 2025 10:39:44 GMT-0500 (Central Daylight Time),173558.90000009537,CFD-BM-017-052-HC.jpg,1700,solid,I,m,750,1,2,39320.90000009537,134238.0,8009,ATS,A,17
18,test,1,A,haborder.png,1,m,Tue Oct 21 2025 10:39:44 GMT-0500 (Central Daylight Time),176124.80000019073,CFD-BF-028-020-HC.jpg,2000,solid,I,m,535,5,2,41886.800000190735,134238.0,8009,ATS,A,18
19,test,1,A,haborder.png,1,z,Tue Oct 21 2025 10:39:44 GMT-0500 (Central Daylight Time),177890.80000019073,CFD-WF-019-015-A.jpg,1000,solid,I,z,745,12,2,43652.800000190735,134238.0,8009,ATS,A,19
20,test,1,A,haborder.png,1,m,Tue Oct 21 2025 10:39:44 GMT-0500 (Central Daylight Time),180656.7000002861,CFD-BF-028-020-HC.jpg,2000,solid,I,m,748,5,2,46418.7000002861,134238.0,8009,ATS,A,20
21,test,1,A,haborder.png,1,m,Tue Oct 21 2025 10:39:44 GMT-0500 (Central Daylight Time),182722.59999990463,CFD-WF-017-016-HC.jpg,1500,solid,I,m,545,11,2,48484.59999990463,134238.0,8009,ATS,A,21
22,test,1,A,haborder.png,1,m,Tue Oct 21 2025 10:39:44 GMT-0500 (Central Daylight Time),184838.80000019073,CFD-WM-004-005-HC.jpg,1400,solid,I,m,699,7,2,50600.800000190735,134238.0,8009,ATS,A,22
23,test,1,A,haborder.png,1,m,Tue Oct 21 2025 10:39:44 GMT-0500 (Central Daylight Time),187704.59999990463,CFD-BM-029-026-HC.jpg,1500,solid,I,m,1339,3,2,53466.59999990463,134238.0,8009,ATS,A,23
24,test,1,A,haborder.png,1,z,Tue Oct 21 2025 10:39:44 GMT-0500 (Central Daylight Time),189420.7000002861,CFD-WF-019-015-A.jpg,1000,solid,I,z,693,12,2,55182.7000002861,134238.0,8009,ATS,A,24
1,test,1,B,mfborder.png,1,z,Tue Oct 21 2025 10:39:44 GMT-0500 (Central Daylight Time),199767.30000019073,CFD-WF-017-016-HC.jpg,1000,dash,I,z,565,12,2,1582.7000002861023,198184.59999990463,8009,ATS,A,1
2,test,1,B,mfborder.png,1,m,Tue Oct 21 2025 10:39:44 GMT-0500 (Central Daylight Time),202217.80000019073,CFD-WM-006-013-HC.jpg,1600,dash,I,m,830,10,2,4033.2000002861023,198184.59999990463,8009,ATS,A,2
3,test,1,B,mfborder.png,1,z,Tue Oct 21 2025 10:39:44 GMT-0500 (Central Daylight Time),203982.80000019073,CFD-BF-023-013-A.jpg,1000,dash,I,z,741,4,2,5798.200000286102,198184.59999990463,8009,ATS,A,3
4,test,1,B,mfborder.png,1,z,Tue Oct 21 2025 10:39:44 GMT-0500 (Central Daylight Time),206115.40000009537,CFD-BF-028-020-HC.jpg,1400,dash,I,z,704,7,2,7930.800000190735,198184.59999990463,8009,ATS,A,4
5,test,1,B,mfborder.png,1,m,Tue Oct 21 2025 10:39:44 GMT-0500 (Central Daylight Time),208847.7000002861,CFD-BM-010-019-A.jpg,1600,dash,I,m,1114,2,2,10663.10000038147,198184.59999990463,8009,ATS,A,5
6,test,1,B,mfborder.png,1,m,Tue Oct 21 2025 10:39:44 GMT-0500 (Central Daylight Time),211247.2000002861,CFD-BM-029-026-HC.jpg,1700,dash,I,m,674,1,2,13062.60000038147,198184.59999990463,8009,ATS,A,6
7,test,1,B,mfborder.png,1,z,Tue Oct 21 2025 10:39:44 GMT-0500 (Central Daylight Time),213346.5,CFD-WF-003-014-A.jpg,1500,dash,I,z,579,11,2,15161.900000095367,198184.59999990463,8009,ATS,A,7
8,test,1,B,mfborder.png,1,m,Tue Oct 21 2025 10:39:44 GMT-0500 (Central Daylight Time),215262.59999990463,CFD-WM-019-013-A.jpg,1200,dash,I,m,691,6,2,17078.0,198184.59999990463,8009,ATS,A,8
9,test,1,B,mfborder.png,1,m,Tue Oct 21 2025 10:39:44 GMT-0500 (Central Daylight Time),217361.80000019073,CFD-BM-010-019-A.jpg,1600,dash,I,m,471,2,2,19177.200000286102,198184.59999990463,8009,ATS,A,9
10,test,1,B,mfborder.png,1,m,Tue Oct 21 2025 10:39:44 GMT-0500 (Central Daylight Time),219494.5,CFD-WM-013-015-A.jpg,1700,dash,I,m,408,9,2,21309.900000095367,198184.59999990463,8009,ATS,A,10
11,test,1,B,mfborder.png,1,z,Tue Oct 21 2025 10:39:44 GMT-0500 (Central Daylight Time),221877.09999990463,CFD-WF-002-008-HC.jpg,1900,dash,I,z,459,8,2,23692.5,198184.59999990463,8009,ATS,A,11
12,test,1,B,mfborder.png,1,z,Tue Oct 21 2025 10:39:44 GMT-0500 (Central Daylight Time),223926.5,CFD-WF-003-014-A.jpg,1500,dash,I,z,517,11,2,25741.900000095367,198184.59999990463,8009,ATS,A,12
13,test,1,B,mfborder.png,1,z,Tue Oct 21 2025 10:39:44 GMT-0500 (Central Daylight Time),226009.2000002861,CFD-BF-010-005-HC.jpg,1500,dash,I,z,563,3,2,27824.60000038147,198184.59999990463,8009,ATS,A,13
14,test,1,B,mfborder.png,1,m,Tue Oct 21 2025 10:39:44 GMT-0500 (Central Daylight Time),228658.30000019073,CFD-BM-005-010-A.jpg,2000,dash,I,m,620,5,2,30473.700000286102,198184.59999990463,8009,ATS,A,14
15,test,1,B,mfborder.png,1,m,Tue Oct 21 2025 10:39:44 GMT-0500 (Central Daylight Time),230624.30000019073,CFD-WM-019-013-A.jpg,1200,dash,I,m,748,6,2,32439.700000286102,198184.59999990463,8009,ATS,A,15
16,test,1,B,mfborder.png,1,z,Tue Oct 21 2025 10:39:44 GMT-0500 (Central Daylight Time),232607.30000019073,CFD-BF-028-020-HC.jpg,1400,dash,I,z,565,7,2,34422.7000002861,198184.59999990463,8009,ATS,A,16
17,test,1,B,mfborder.png,1,m,Tue Oct 21 2025 10:39:44 GMT-0500 (Central Daylight Time),235023.09999990463,CFD-WM-006-013-HC.jpg,1600,dash,I,m,783,10,2,36838.5,198184.59999990463,8009,ATS,A,17
18,test,1,B,mfborder.png,1,m,Tue Oct 21 2025 10:39:44 GMT-0500 (Central Daylight Time),237572.30000019073,CFD-WM-013-015-A.jpg,1700,dash,I,m,826,9,2,39387.7000002861,198184.59999990463,8009,ATS,A,18
19,test,1,B,mfborder.png,1,z,Tue Oct 21 2025 10:39:44 GMT-0500 (Central Daylight Time),239271.7000002861,CFD-WF-017-016-HC.jpg,1000,dash,I,z,681,12,2,41087.10000038147,198184.59999990463,8009,ATS,A,19
20,test,1,B,mfborder.png,1,z,Tue Oct 21 2025 10:39:44 GMT-0500 (Central Daylight Time),241704.40000009537,CFD-WF-002-008-HC.jpg,1900,dash,I,z,506,8,2,43519.800000190735,198184.59999990463,8009,ATS,A,20
21,test,1,B,mfborder.png,1,m,Tue Oct 21 2025 10:39:44 GMT-0500 (Central Daylight Time),244170.2000002861,CFD-BM-005-010-A.jpg,2000,dash,I,m,445,5,2,45985.60000038147,198184.59999990463,8009,ATS,A,21
22,test,1,B,mfborder.png,1,z,Tue Oct 21 2025 10:39:44 GMT-0500 (Central Daylight Time),246236.2000002861,CFD-BF-023-013-A.jpg,1000,dash,I,z,1043,4,2,48051.60000038147,198184.59999990463,8009,ATS,A,22
23,test,1,B,mfborder.png,1,z,Tue Oct 21 2025 10:39:44 GMT-0500 (Central Daylight Time),248618.7000002861,CFD-BF-010-005-HC.jpg,1500,dash,I,z,853,3,2,50434.10000038147,198184.59999990463,8009,ATS,A,23
24,test,1,B,mfborder.png,1,m,Tue Oct 21 2025 10:39:44 GMT-0500 (Central Daylight Time),250967.90000009537,CFD-BM-029-026-HC.jpg,1700,dash,I,m,623,1,2,52783.300000190735,198184.59999990463,8009,ATS,A,24
0,prac,1,C,haborder.png,0,z,Tue Oct 21 2025 10:39:44 GMT-0500 (Central Daylight Time),281441.80000019073,CFD-WF-003-014-A.jpg,1600,dash,I,None,1516,9,2,3898.7000002861023,277543.09999990463,8009,ATS,A,1
1,prac,1,C,mfborder.png,1,m,Tue Oct 21 2025 10:39:44 GMT-0500 (Central Daylight Time),284390.90000009537,CFD-BM-005-010-A.jpg,1200,dash,I,m,956,5,2,6847.800000190735,277543.09999990463,8009,ATS,A,2
2,prac,1,C,haborder.png,1,z,Tue Oct 21 2025 10:39:44 GMT-0500 (Central Daylight Time),288406.30000019073,CFD-BF-023-013-A.jpg,1900,dash,I,z,1323,7,2,10863.200000286102,277543.09999990463,8009,ATS,A,3
3,prac,1,C,haborder.png,1,m,Tue Oct 21 2025 10:39:44 GMT-0500 (Central Daylight Time),290790.30000019073,CFD-WM-004-005-HC.jpg,1000,dash,I,m,606,11,2,13247.200000286102,277543.09999990463,8009,ATS,A,4
4,prac,1,C,mfborder.png,1,z,Tue Oct 21 2025 10:39:44 GMT-0500 (Central Daylight Time),293588.0,CFD-BF-028-020-HC.jpg,1000,dash,I,z,1009,3,2,16044.900000095367,277543.09999990463,8009,ATS,A,5
5,prac,1,C,haborder.png,1,m,Tue Oct 21 2025 10:39:44 GMT-0500 (Central Daylight Time),296520.59999990463,CFD-WM-004-005-HC.jpg,1400,solid,I,m,738,12,2,18977.5,277543.09999990463,8009,ATS,A,6
6,prac,1,C,mfborder.png,1,z,Tue Oct 21 2025 10:39:44 GMT-0500 (Central Daylight Time),299702.80000019073,CFD-WF-017-016-HC.jpg,1600,dash,I,z,797,1,2,22159.700000286102,277543.09999990463,8009,ATS,A,7
7,prac,1,C,mfborder.png,1,z,Tue Oct 21 2025 10:39:44 GMT-0500 (Central Daylight Time),302519.30000019073,CFD-WF-019-015-A.jpg,1500,solid,I,z,523,2,2,24976.200000286102,277543.09999990463,8009,ATS,A,8
7,prac,1,C,mfborder.png,0,m,Tue Oct 21 2025 10:39:44 GMT-0500 (Central Daylight Time),305750.90000009537,CFD-WM-013-015-A.jpg,1700,solid,I,z,746,6,2,28207.800000190735,277543.09999990463,8009,ATS,A,9
8,prac,1,C,haborder.png,1,m,Tue Oct 21 2025 10:39:44 GMT-0500 (Central Daylight Time),309533.2000002861,CFD-BM-029-026-HC.jpg,1500,solid,I,m,1500,10,2,31990.10000038147,277543.09999990463,8009,ATS,A,10
9,prac,1,C,mfborder.png,1,m,Tue Oct 21 2025 10:39:44 GMT-0500 (Central Daylight Time),313148.59999990463,CFD-BM-017-052-HC.jpg,2000,solid,I,m,825,4,2,35605.5,277543.09999990463,8009,ATS,A,11
10,prac,1,C,haborder.png,1,z,Tue Oct 21 2025 10:39:44 GMT-0500 (Central Daylight Time),316281.0,CFD-BF-039-039-A.jpg,1700,solid,I,z,645,8,2,38737.90000009537,277543.09999990463,8009,ATS,A,12
0,test,1,C,haborder.png,0,z,Tue Oct 21 2025 10:39:44 GMT-0500 (Central Daylight Time),325877.90000009537,CFD-BM-005-010-A.jpg,1900,solid,I,m,1125,8,2,3049.0,322828.90000009537,8009,ATS,A,1
1,test,1,C,mfborder.png,1,z,Tue Oct 21 2025 10:39:44 GMT-0500 (Central Daylight Time),328410.40000009537,CFD-WF-003-014-A.jpg,1500,dash,I,z,1004,3,2,5581.5,322828.90000009537,8009,ATS,A,2
2,test,1,C,haborder.png,1,m,Tue Oct 21 2025 10:39:44 GMT-0500 (Central Daylight Time),330676.2000002861,CFD-WF-017-016-HC.jpg,1000,solid,I,m,1235,12,2,7847.300000190735,322828.90000009537,8009,ATS,A,3
2,test,1,C,mfborder.png,0,z,Tue Oct 21 2025 10:39:44 GMT-0500 (Central Daylight Time),333908.7000002861,CFD-BF-010-005-HC.jpg,1700,dash,I,None,1516,1,2,11079.800000190735,322828.90000009537,8009,ATS,A,4
2,test,1,C,haborder.png,0,m,Tue Oct 21 2025 10:39:44 GMT-0500 (Central Daylight Time),336941.2000002861,CFD-WF-002-008-HC.jpg,1500,solid,I,None,1516,11,2,14112.300000190735,322828.90000009537,8009,ATS,A,5
3,test,1,C,haborder.png,1,m,Tue Oct 21 2025 10:39:44 GMT-0500 (Central Daylight Time),339040.30000019073,CFD-WF-002-008-HC.jpg,1500,solid,I,m,573,11,2,16211.400000095367,322828.90000009537,8009,ATS,A,6
4,test,1,C,mfborder.png,1,z,Tue Oct 21 2025 10:39:44 GMT-0500 (Central Daylight Time),341389.5,CFD-BF-023-013-A.jpg,1600,dash,I,z,725,2,2,18560.599999904633,322828.90000009537,8009,ATS,A,7
5,test,1,C,mfborder.png,1,z,Tue Oct 21 2025 10:39:44 GMT-0500 (Central Daylight Time),343872.09999990463,CFD-BF-023-013-A.jpg,1600,dash,I,z,864,2,2,21043.199999809265,322828.90000009537,8009,ATS,A,8
5,test,1,C,haborder.png,0,z,Tue Oct 21 2025 10:39:44 GMT-0500 (Central Daylight Time),347105.59999990463,CFD-BM-010-019-A.jpg,1700,solid,I,None,1517,9,2,24276.699999809265,322828.90000009537,8009,ATS,A,9
5,test,1,C,mfborder.png,0,z,Tue Oct 21 2025 10:39:44 GMT-0500 (Central Daylight Time),349920.2000002861,CFD-BF-010-005-HC.jpg,1700,dash,I,m,1097,1,2,27091.300000190735,322828.90000009537,8009,ATS,A,10
6,test,1,C,mfborder.png,1,m,Tue Oct 21 2025 10:39:44 GMT-0500 (Central Daylight Time),352986.0,CFD-WM-019-013-A.jpg,2000,dash,I,m,1038,5,2,30157.099999904633,322828.90000009537,8009,ATS,A,11
7,test,1,C,mfborder.png,1,m,Tue Oct 21 2025 10:39:44 GMT-0500 (Central Daylight Time),356234.90000009537,CFD-WM-019-013-A.jpg,2000,dash,I,m,1228,5,2,33406.0,322828.90000009537,8009,ATS,A,12
8,test,1,C,haborder.png,1,m,Tue Oct 21 2025 10:39:44 GMT-0500 (Central Daylight Time),358750.80000019073,CFD-BF-028-020-HC.jpg,1600,solid,I,m,892,10,2,35921.90000009537,322828.90000009537,8009,ATS,A,13
9,test,1,C,haborder.png,1,z,Tue Oct 21 2025 10:39:44 GMT-0500 (Central Daylight Time),361552.09999990463,CFD-BM-005-010-A.jpg,1900,solid,I,z,874,8,2,38723.199999809265,322828.90000009537,8009,ATS,A,14
10,test,1,C,mfborder.png,1,m,Tue Oct 21 2025 10:39:44 GMT-0500 (Central Daylight Time),363699.2000002861,CFD-WM-006-013-HC.jpg,1000,dash,I,m,1120,4,2,40870.300000190735,322828.90000009537,8009,ATS,A,15
11,test,1,C,haborder.png,1,z,Tue Oct 21 2025 10:39:44 GMT-0500 (Central Daylight Time),366065.2000002861,CFD-WM-013-015-A.jpg,1400,solid,I,z,938,7,2,43236.300000190735,322828.90000009537,8009,ATS,A,16
12,test,1,C,mfborder.png,1,m,Tue Oct 21 2025 10:39:44 GMT-0500 (Central Daylight Time),367781.30000019073,CFD-WM-006-013-HC.jpg,1000,dash,I,m,684,4,2,44952.40000009537,322828.90000009537,8009,ATS,A,17
13,test,1,C,haborder.png,1,m,Tue Oct 21 2025 10:39:44 GMT-0500 (Central Daylight Time),370430.5,CFD-BF-028-020-HC.jpg,1600,solid,I,m,1017,10,2,47601.59999990463,322828.90000009537,8009,ATS,A,18
14,test,1,C,mfborder.png,1,z,Tue Oct 21 2025 10:39:44 GMT-0500 (Central Daylight Time),372879.7000002861,CFD-WF-003-014-A.jpg,1500,dash,I,z,931,3,2,50050.800000190735,322828.90000009537,8009,ATS,A,19
15,test,1,C,haborder.png,1,z,Tue Oct 21 2025 10:39:44 GMT-0500 (Central Daylight Time),375695.5,CFD-BM-010-019-A.jpg,1700,solid,I,z,1090,9,2,52866.59999990463,322828.90000009537,8009,ATS,A,20
16,test,1,C,haborder.png,1,m,Tue Oct 21 2025 10:39:44 GMT-0500 (Central Daylight Time),377895.0,CFD-WF-017-016-HC.jpg,1000,solid,I,m,1183,12,2,55066.09999990463,322828.90000009537,8009,ATS,A,21
17,test,1,C,mfborder.png,1,m,Tue Oct 21 2025 10:39:44 GMT-0500 (Central Daylight Time),380377.40000009537,CFD-BM-029-026-HC.jpg,1200,dash,I,m,1256,6,2,57548.5,322828.90000009537,8009,ATS,A,22
18,test,1,C,mfborder.png,1,m,Tue Oct 21 2025 10:39:44 GMT-0500 (Central Daylight Time),382243.5,CFD-BM-029-026-HC.jpg,1200,dash,I,m,636,6,2,59414.59999990463,322828.90000009537,8009,ATS,A,23
19,test,1,C,haborder.png,1,z,Tue Oct 21 2025 10:39:44 GMT-0500 (Central Daylight Time),384442.80000019073,CFD-WM-013-015-A.jpg,1400,solid,I,z,770,7,2,61613.90000009537,322828.90000009537,8009,ATS,A,24
0,test,2,C,haborder.png,0,z,Tue Oct 21 2025 10:39:44 GMT-0500 (Central Daylight Time),391324.2000002861,CFD-BF-023-013-A.jpg,1400,solid,I,None,1516,7,2,2932.6000003814697,388391.59999990463,8009,ATS,A,1
1,test,2,C,haborder.png,1,z,Tue Oct 21 2025 10:39:44 GMT-0500 (Central Daylight Time),394406.7000002861,CFD-WF-003-014-A.jpg,1700,solid,I,z,1366,9,2,6015.10000038147,388391.59999990463,8009,ATS,A,2
2,test,2,C,haborder.png,1,m,Tue Oct 21 2025 10:39:44 GMT-0500 (Central Daylight Time),396638.7000002861,CFD-WM-004-005-HC.jpg,1500,solid,I,m,715,11,2,8247.10000038147,388391.59999990463,8009,ATS,A,3
3,test,2,C,haborder.png,1,m,Tue Oct 21 2025 10:39:44 GMT-0500 (Central Daylight Time),398971.59999990463,CFD-BM-029-026-HC.jpg,1600,solid,I,m,702,10,2,10580.0,388391.59999990463,8009,ATS,A,4
4,test,2,C,mfborder.png,1,z,Tue Oct 21 2025 10:39:44 GMT-0500 (Central Daylight Time),401470.7000002861,CFD-WF-019-015-A.jpg,1600,dash,I,z,867,2,2,13079.10000038147,388391.59999990463,8009,ATS,A,5
5,test,2,C,mfborder.png,1,m,Tue Oct 21 2025 10:39:44 GMT-0500 (Central Daylight Time),404636.30000019073,CFD-BM-005-010-A.jpg,2000,dash,I,m,1144,5,2,16244.700000286102,388391.59999990463,8009,ATS,A,6
5,test,2,C,mfborder.png,0,z,Tue Oct 21 2025 10:39:44 GMT-0500 (Central Daylight Time),407602.09999990463,CFD-BF-028-020-HC.jpg,1500,dash,I,m,1437,3,2,19210.5,388391.59999990463,8009,ATS,A,7
6,test,2,C,haborder.png,1,m,Tue Oct 21 2025 10:39:44 GMT-0500 (Central Daylight Time),410101.2000002861,CFD-BM-029-026-HC.jpg,1600,solid,I,m,876,10,2,21709.60000038147,388391.59999990463,8009,ATS,A,8
7,test,2,C,mfborder.png,1,z,Tue Oct 21 2025 10:39:44 GMT-0500 (Central Daylight Time),412250.59999990463,CFD-BF-028-020-HC.jpg,1500,dash,I,z,628,3,2,23859.0,388391.59999990463,8009,ATS,A,9
8,test,2,C,mfborder.png,1,m,Tue Oct 21 2025 10:39:44 GMT-0500 (Central Daylight Time),414250.0,CFD-WM-013-015-A.jpg,1200,dash,I,m,771,6,2,25858.400000095367,388391.59999990463,8009,ATS,A,10
9,test,2,C,haborder.png,1,m,Tue Oct 21 2025 10:39:44 GMT-0500 (Central Daylight Time),416182.7000002861,CFD-WM-004-005-HC.jpg,1000,solid,I,m,900,12,2,27791.10000038147,388391.59999990463,8009,ATS,A,11
10,test,2,C,haborder.png,1,z,Tue Oct 21 2025 10:39:44 GMT-0500 (Central Daylight Time),418415.5,CFD-BF-023-013-A.jpg,1400,solid,I,z,815,7,2,30023.900000095367,388391.59999990463,8009,ATS,A,12
11,test,2,C,mfborder.png,1,m,Tue Oct 21 2025 10:39:44 GMT-0500 (Central Daylight Time),420331.5,CFD-BM-017-052-HC.jpg,1000,dash,I,m,894,4,2,31939.900000095367,388391.59999990463,8009,ATS,A,13
12,test,2,C,mfborder.png,1,m,Tue Oct 21 2025 10:39:44 GMT-0500 (Central Daylight Time),422314.0,CFD-WM-013-015-A.jpg,1200,dash,I,m,762,6,2,33922.40000009537,388391.59999990463,8009,ATS,A,14
13,test,2,C,haborder.png,1,z,Tue Oct 21 2025 10:39:44 GMT-0500 (Central Daylight Time),425180.0,CFD-BF-039-039-A.jpg,1900,solid,I,z,944,8,2,36788.40000009537,388391.59999990463,8009,ATS,A,15
14,test,2,C,haborder.png,1,z,Tue Oct 21 2025 10:39:44 GMT-0500 (Central Daylight Time),427645.80000019073,CFD-WF-003-014-A.jpg,1700,solid,I,z,734,9,2,39254.2000002861,388391.59999990463,8009,ATS,A,16
15,test,2,C,mfborder.png,1,z,Tue Oct 21 2025 10:39:44 GMT-0500 (Central Daylight Time),430311.7000002861,CFD-WF-017-016-HC.jpg,1700,dash,I,z,940,1,2,41920.10000038147,388391.59999990463,8009,ATS,A,17
16,test,2,C,haborder.png,1,z,Tue Oct 21 2025 10:39:44 GMT-0500 (Central Daylight Time),433061.09999990463,CFD-BF-039-039-A.jpg,1900,solid,I,z,734,8,2,44669.5,388391.59999990463,8009,ATS,A,18
17,test,2,C,mfborder.png,1,z,Tue Oct 21 2025 10:39:44 GMT-0500 (Central Daylight Time),435659.90000009537,CFD-WF-017-016-HC.jpg,1700,dash,I,z,869,1,2,47268.300000190735,388391.59999990463,8009,ATS,A,19
18,test,2,C,haborder.png,1,m,Tue Oct 21 2025 10:39:44 GMT-0500 (Central Daylight Time),437692.80000019073,CFD-WM-004-005-HC.jpg,1000,solid,I,m,996,12,2,49301.2000002861,388391.59999990463,8009,ATS,A,20
18,test,2,C,mfborder.png,0,m,Tue Oct 21 2025 10:39:44 GMT-0500 (Central Daylight Time),440526.2000002861,CFD-BM-005-010-A.jpg,2000,dash,I,z,801,5,2,52134.60000038147,388391.59999990463,8009,ATS,A,21
19,test,2,C,haborder.png,1,m,Tue Oct 21 2025 10:39:44 GMT-0500 (Central Daylight Time),442874.30000019073,CFD-WM-004-005-HC.jpg,1500,solid,I,m,828,11,2,54482.7000002861,388391.59999990463,8009,ATS,A,22
20,test,2,C,mfborder.png,1,m,Tue Oct 21 2025 10:39:44 GMT-0500 (Central Daylight Time),445107.0,CFD-BM-017-052-HC.jpg,1000,dash,I,m,1203,4,2,56715.40000009537,388391.59999990463,8009,ATS,A,23
21,test,2,C,mfborder.png,1,z,Tue Oct 21 2025 10:39:44 GMT-0500 (Central Daylight Time),447756.30000019073,CFD-WF-019-015-A.jpg,1600,dash,I,z,1019,2,2,59364.7000002861,388391.59999990463,8009,ATS,A,24
1,test,3,C,mfborder.png,1,z,Tue Oct 21 2025 10:39:44 GMT-0500 (Central Daylight Time),451538.5,CFD-BF-010-005-HC.jpg,1700,dash,I,z,828,1,2,2549.199999809265,448989.30000019073,8009,ATS,A,1
2,test,3,C,mfborder.png,1,z,Tue Oct 21 2025 10:39:44 GMT-0500 (Central Daylight Time),453687.80000019073,CFD-WF-003-014-A.jpg,1500,dash,I,z,623,3,2,4698.5,448989.30000019073,8009,ATS,A,2
2,test,3,C,haborder.png,0,z,Tue Oct 21 2025 10:39:44 GMT-0500 (Central Daylight Time),456620.09999990463,CFD-WM-013-015-A.jpg,1400,solid,I,None,1516,7,2,7630.799999713898,448989.30000019073,8009,ATS,A,3
3,test,3,C,haborder.png,1,m,Tue Oct 21 2025 10:39:44 GMT-0500 (Central Daylight Time),459702.5,CFD-BF-028-020-HC.jpg,1600,solid,I,m,1449,10,2,10713.199999809265,448989.30000019073,8009,ATS,A,4
4,test,3,C,haborder.png,1,m,Tue Oct 21 2025 10:39:44 GMT-0500 (Central Daylight Time),461268.5,CFD-WF-017-016-HC.jpg,1000,solid,I,m,543,12,2,12279.199999809265,448989.30000019073,8009,ATS,A,5
5,test,3,C,haborder.png,1,m,Tue Oct 21 2025 10:39:44 GMT-0500 (Central Daylight Time),463351.09999990463,CFD-BF-028-020-HC.jpg,1600,solid,I,m,465,10,2,14361.799999713898,448989.30000019073,8009,ATS,A,6
6,test,3,C,haborder.png,1,m,Tue Oct 21 2025 10:39:44 GMT-0500 (Central Daylight Time),464950.90000009537,CFD-WF-017-016-HC.jpg,1000,solid,I,m,582,12,2,15961.599999904633,448989.30000019073,8009,ATS,A,7
6,test,3,C,haborder.png,0,z,Tue Oct 21 2025 10:39:44 GMT-0500 (Central Daylight Time),467050.2000002861,CFD-WM-013-015-A.jpg,1400,solid,I,m,679,7,2,18060.900000095367,448989.30000019073,8009,ATS,A,8
7,test,3,C,haborder.png,1,z,Tue Oct 21 2025 10:39:44 GMT-0500 (Central Daylight Time),469615.80000019073,CFD-BM-010-019-A.jpg,1700,solid,I,z,839,9,2,20626.5,448989.30000019073,8009,ATS,A,9
7,test,3,C,mfborder.png,0,m,Tue Oct 21 2025 10:39:44 GMT-0500 (Central Daylight Time),472498.40000009537,CFD-WM-019-013-A.jpg,2000,dash,I,z,862,5,2,23509.099999904633,448989.30000019073,8009,ATS,A,10
8,test,3,C,haborder.png,1,z,Tue Oct 21 2025 10:39:44 GMT-0500 (Central Daylight Time),474930.90000009537,CFD-BM-010-019-A.jpg,1700,solid,I,z,711,9,2,25941.599999904633,448989.30000019073,8009,ATS,A,11
8,test,3,C,mfborder.png,0,m,Tue Oct 21 2025 10:39:44 GMT-0500 (Central Daylight Time),476897.09999990463,CFD-BM-029-026-HC.jpg,1200,dash,I,z,746,6,2,27907.799999713898,448989.30000019073,8009,ATS,A,12
9,test,3,C,mfborder.png,1,z,Tue Oct 21 2025 10:39:44 GMT-0500 (Central Daylight Time),479995.90000009537,CFD-BF-023-013-A.jpg,1600,dash,I,z,1469,2,2,31006.599999904633,448989.30000019073,8009,ATS,A,13
10,test,3,C,haborder.png,1,m,Tue Oct 21 2025 10:39:44 GMT-0500 (Central Daylight Time),482445.5,CFD-WF-002-008-HC.jpg,1500,solid,I,m,918,11,2,33456.199999809265,448989.30000019073,8009,ATS,A,14
11,test,3,C,mfborder.png,1,z,Tue Oct 21 2025 10:39:44 GMT-0500 (Central Daylight Time),485127.80000019073,CFD-BF-023-013-A.jpg,1600,dash,I,z,1056,2,2,36138.5,448989.30000019073,8009,ATS,A,15
12,test,3,C,haborder.png,1,z,Tue Oct 21 2025 10:39:44 GMT-0500 (Central Daylight Time),488260.09999990463,CFD-BM-005-010-A.jpg,1900,solid,I,z,1202,8,2,39270.7999997139,448989.30000019073,8009,ATS,A,16
13,test,3,C,haborder.png,1,z,Tue Oct 21 2025 10:39:44 GMT-0500 (Central Daylight Time),490742.7000002861,CFD-BM-005-010-A.jpg,1900,solid,I,z,566,8,2,41753.40000009537,448989.30000019073,8009,ATS,A,17
14,test,3,C,mfborder.png,1,m,Tue Oct 21 2025 10:39:44 GMT-0500 (Central Daylight Time),492892.09999990463,CFD-WM-006-013-HC.jpg,1000,dash,I,m,1127,4,2,43902.7999997139,448989.30000019073,8009,ATS,A,18
15,test,3,C,mfborder.png,1,m,Tue Oct 21 2025 10:39:44 GMT-0500 (Central Daylight Time),495807.7000002861,CFD-WM-019-013-A.jpg,2000,dash,I,m,899,5,2,46818.40000009537,448989.30000019073,8009,ATS,A,19
15,test,3,C,mfborder.png,0,z,Tue Oct 21 2025 10:39:44 GMT-0500 (Central Daylight Time),498290.40000009537,CFD-BF-010-005-HC.jpg,1700,dash,I,m,762,1,2,49301.09999990463,448989.30000019073,8009,ATS,A,20
16,test,3,C,haborder.png,1,m,Tue Oct 21 2025 10:39:44 GMT-0500 (Central Daylight Time),500889.5,CFD-WF-002-008-HC.jpg,1500,solid,I,m,1071,11,2,51900.199999809265,448989.30000019073,8009,ATS,A,21
17,test,3,C,mfborder.png,1,m,Tue Oct 21 2025 10:39:44 GMT-0500 (Central Daylight Time),503438.59999990463,CFD-BM-029-026-HC.jpg,1200,dash,I,m,1332,6,2,54449.2999997139,448989.30000019073,8009,ATS,A,22
18,test,3,C,mfborder.png,1,m,Tue Oct 21 2025 10:39:44 GMT-0500 (Central Daylight Time),505138.09999990463,CFD-WM-006-013-HC.jpg,1000,dash,I,m,679,4,2,56148.7999997139,448989.30000019073,8009,ATS,A,23
19,test,3,C,mfborder.png,1,z,Tue Oct 21 2025 10:39:44 GMT-0500 (Central Daylight Time),508037.2000002861,CFD-WF-003-014-A.jpg,1500,dash,I,z,1375,3,2,59047.90000009537,448989.30000019073,8009,ATS,A,24
1,test,4,C,haborder.png,1,z,Tue Oct 21 2025 10:39:44 GMT-0500 (Central Daylight Time),511352.90000009537,CFD-BF-023-013-A.jpg,1400,solid,I,z,772,7,2,2199.4000000953674,509153.5,8009,ATS,A,1
2,test,4,C,mfborder.png,1,m,Tue Oct 21 2025 10:39:44 GMT-0500 (Central Daylight Time),513168.90000009537,CFD-BM-017-052-HC.jpg,1000,dash,I,m,789,4,2,4015.4000000953674,509153.5,8009,ATS,A,2
3,test,4,C,haborder.png,1,z,Tue Oct 21 2025 10:39:44 GMT-0500 (Central Daylight Time),515968.09999990463,CFD-BF-039-039-A.jpg,1900,solid,I,z,881,8,2,6814.599999904633,509153.5,8009,ATS,A,3
4,test,4,C,mfborder.png,1,z,Tue Oct 21 2025 10:39:44 GMT-0500 (Central Daylight Time),518933.80000019073,CFD-WF-017-016-HC.jpg,1700,dash,I,z,1242,1,2,9780.300000190735,509153.5,8009,ATS,A,4
5,test,4,C,haborder.png,1,z,Tue Oct 21 2025 10:39:44 GMT-0500 (Central Daylight Time),521049.7000002861,CFD-BF-023-013-A.jpg,1400,solid,I,z,696,7,2,11896.200000286102,509153.5,8009,ATS,A,5
6,test,4,C,haborder.png,1,m,Tue Oct 21 2025 10:39:44 GMT-0500 (Central Daylight Time),523582.30000019073,CFD-BM-029-026-HC.jpg,1600,solid,I,m,900,10,2,14428.800000190735,509153.5,8009,ATS,A,6
7,test,4,C,haborder.png,1,z,Tue Oct 21 2025 10:39:44 GMT-0500 (Central Daylight Time),526148.3000001907,CFD-WF-003-014-A.jpg,1700,solid,I,z,843,9,2,16994.800000190735,509153.5,8009,ATS,A,7
8,test,4,C,haborder.png,1,z,Tue Oct 21 2025 10:39:44 GMT-0500 (Central Daylight Time),528597.5,CFD-BF-039-039-A.jpg,1900,solid,I,z,525,8,2,19444.0,509153.5,8009,ATS,A,8
9,test,4,C,mfborder.png,1,m,Tue Oct 21 2025 10:39:44 GMT-0500 (Central Daylight Time),530463.7000002861,CFD-WM-013-015-A.jpg,1200,dash,I,m,641,6,2,21310.200000286102,509153.5,8009,ATS,A,9
9,test,4,C,mfborder.png,0,m,Tue Oct 21 2025 10:39:44 GMT-0500 (Central Daylight Time),533779.0999999046,CFD-BM-005-010-A.jpg,2000,dash,I,z,1294,5,2,24625.599999904633,509153.5,8009,ATS,A,10
10,test,4,C,mfborder.png,1,z,Tue Oct 21 2025 10:39:44 GMT-0500 (Central Daylight Time),536461.8000001907,CFD-WF-019-015-A.jpg,1600,dash,I,z,1051,2,2,27308.300000190735,509153.5,8009,ATS,A,11
11,test,4,C,mfborder.png,1,z,Tue Oct 21 2025 10:39:44 GMT-0500 (Central Daylight Time),538860.9000000954,CFD-WF-017-016-HC.jpg,1700,dash,I,z,668,1,2,29707.400000095367,509153.5,8009,ATS,A,12
11,test,4,C,mfborder.png,0,m,Tue Oct 21 2025 10:39:44 GMT-0500 (Central Daylight Time),541393.5,CFD-BM-017-052-HC.jpg,1000,dash,I,None,1515,4,2,32240.0,509153.5,8009,ATS,A,13
12,test,4,C,haborder.png,1,m,Tue Oct 21 2025 10:39:44 GMT-0500 (Central Daylight Time),544109.2000002861,CFD-WM-004-005-HC.jpg,1500,solid,I,m,1192,11,2,34955.7000002861,509153.5,8009,ATS,A,14
13,test,4,C,haborder.png,1,m,Tue Oct 21 2025 10:39:44 GMT-0500 (Central Daylight Time),545742.0999999046,CFD-WM-004-005-HC.jpg,1000,solid,I,m,608,12,2,36588.59999990463,509153.5,8009,ATS,A,15
14,test,4,C,haborder.png,1,m,Tue Oct 21 2025 10:39:44 GMT-0500 (Central Daylight Time),548024.5999999046,CFD-BM-029-026-HC.jpg,1600,solid,I,m,664,10,2,38871.09999990463,509153.5,8009,ATS,A,16
15,test,4,C,mfborder.png,1,z,Tue Oct 21 2025 10:39:44 GMT-0500 (Central Daylight Time),550425.0,CFD-BF-028-020-HC.jpg,1500,dash,I,z,868,3,2,41271.5,509153.5,8009,ATS,A,17
16,test,4,C,mfborder.png,1,m,Tue Oct 21 2025 10:39:44 GMT-0500 (Central Daylight Time),552689.8000001907,CFD-WM-013-015-A.jpg,1200,dash,I,m,1046,6,2,43536.300000190735,509153.5,8009,ATS,A,18
17,test,4,C,mfborder.png,1,z,Tue Oct 21 2025 10:39:44 GMT-0500 (Central Daylight Time),555039.0999999046,CFD-WF-019-015-A.jpg,1600,dash,I,z,725,2,2,45885.59999990463,509153.5,8009,ATS,A,19
18,test,4,C,haborder.png,1,m,Tue Oct 21 2025 10:39:44 GMT-0500 (Central Daylight Time),557421.7000002861,CFD-WM-004-005-HC.jpg,1500,solid,I,m,850,11,2,48268.2000002861,509153.5,8009,ATS,A,20
19,test,4,C,mfborder.png,1,z,Tue Oct 21 2025 10:39:44 GMT-0500 (Central Daylight Time),560104.3000001907,CFD-BF-028-020-HC.jpg,1500,dash,I,z,1164,3,2,50950.800000190735,509153.5,8009,ATS,A,21
20,test,4,C,haborder.png,1,m,Tue Oct 21 2025 10:39:44 GMT-0500 (Central Daylight Time),561936.9000000954,CFD-WM-004-005-HC.jpg,1000,solid,I,m,813,12,2,52783.40000009537,509153.5,8009,ATS,A,22
20,test,4,C,mfborder.png,0,m,Tue Oct 21 2025 10:39:44 GMT-0500 (Central Daylight Time),564836.0999999046,CFD-BM-005-010-A.jpg,2000,dash,I,z,869,5,2,55682.59999990463,509153.5,8009,ATS,A,23
21,test,4,C,haborder.png,1,z,Tue Oct 21 2025 10:39:44 GMT-0500 (Central Daylight Time),567385.2000002861,CFD-WF-003-014-A.jpg,1700,solid,I,z,822,9,2,58231.7000002861,509153.5,8009,ATS,A,24
