acc_sum,block,block_c,block_cond,con_img,correct,correct_response,datetime,endtime,face,jitter,line,project,response,response_time,row_sel,session_number,start_end,starttime,subject_id,task,task_vers,trial
1,prac,1,A,haborder.png,1,z,Tue Feb 10 2026 12:58:21 GMT-0600 (Central Standard Time),46595.19999998808,CFD-WM-036-018-A.jpg,1900,solid,I,z,753,8,3,3446.800000011921,43148.39999997616,8009,ATS,C,1
2,prac,1,A,haborder.png,1,z,Tue Feb 10 2026 12:58:21 GMT-0600 (Central Standard Time),49793.10000002384,CFD-BM-043-014-A.jpg,1600,solid,I,z,785,2,3,6644.700000047684,43148.39999997616,8009,ATS,C,2
3,prac,1,A,haborder.png,1,z,Tue Feb 10 2026 12:58:21 GMT-0600 (Central Standard Time),52227.80000001192,CFD-WF-023-013-A.jpg,1000,solid,I,z,661,12,3,9079.400000035763,43148.39999997616,8009,ATS,C,3
4,prac,1,A,haborder.png,1,m,Tue Feb 10 2026 12:58:21 GMT-0600 (Central Standard Time),55494.19999998808,CFD-BM-022-004-HC.jpg,1500,solid,I,m,992,3,3,12345.800000011921,43148.39999997616,8009,ATS,C,4
5,prac,1,A,haborder.png,1,m,Tue Feb 10 2026 12:58:21 GMT-0600 (Central Standard Time),58874.5,CFD-BM-034-035-HC.jpg,1700,solid,I,m,885,1,3,15726.100000023842,43148.39999997616,8009,ATS,C,5
6,prac,1,A,haborder.png,1,m,Tue Feb 10 2026 12:58:21 GMT-0600 (Central Standard Time),61595.89999997616,CFD-WM-028-005-HC.jpg,1400,solid,I,m,548,7,3,18447.5,43148.39999997616,8009,ATS,C,6
7,prac,1,A,haborder.png,1,z,Tue Feb 10 2026 12:58:21 GMT-0600 (Central Standard Time),64673.69999998808,CFD-WF-037-016-A.jpg,1600,solid,I,z,699,10,3,21525.30000001192,43148.39999997616,8009,ATS,C,7
8,prac,1,A,haborder.png,1,m,Tue Feb 10 2026 12:58:21 GMT-0600 (Central Standard Time),68238.80000001192,CFD-BF-019-004-HC.jpg,2000,solid,I,m,782,5,3,25090.400000035763,43148.39999997616,8009,ATS,C,8
9,prac,1,A,haborder.png,1,z,Tue Feb 10 2026 12:58:21 GMT-0600 (Central Standard Time),71187.19999998808,CFD-BF-002-018-A.jpg,1200,solid,I,z,959,6,3,28038.80000001192,43148.39999997616,8009,ATS,C,9
10,prac,1,A,haborder.png,1,m,Tue Feb 10 2026 12:58:21 GMT-0600 (Central Standard Time),74487.69999998808,CFD-WF-013-009-HC.jpg,1500,solid,I,m,1023,11,3,31339.30000001192,43148.39999997616,8009,ATS,C,10
11,prac,1,A,haborder.png,1,m,Tue Feb 10 2026 12:58:21 GMT-0600 (Central Standard Time),77868.5,CFD-WM-035-036-HC.jpg,1700,solid,I,m,893,9,3,34720.10000002384,43148.39999997616,8009,ATS,C,11
12,prac,1,A,haborder.png,1,z,Tue Feb 10 2026 12:58:21 GMT-0600 (Central Standard Time),80519.0,CFD-BF-031-020-A.jpg,1000,solid,I,z,858,4,3,37370.60000002384,43148.39999997616,8009,ATS,C,12
1,prac,1,B,mfborder.png,1,m,Tue Feb 10 2026 12:58:21 GMT-0600 (Central Standard Time),93647.69999998808,CFD-BM-021-026-A.jpg,1600,2,I,m,824,dash,3,3217.599999964237,90430.10000002384,8009,ATS,C,1
2,prac,1,B,mfborder.png,1,z,Tue Feb 10 2026 12:58:21 GMT-0600 (Central Standard Time),96163.60000002384,CFD-BF-031-020-A.jpg,1000,4,I,z,718,dash,3,5733.5,90430.10000002384,8009,ATS,C,2
3,prac,1,B,mfborder.png,1,m,Tue Feb 10 2026 12:58:21 GMT-0600 (Central Standard Time),98812.39999997616,CFD-WM-034-040-A.jpg,1200,6,I,m,653,dash,3,8382.299999952316,90430.10000002384,8009,ATS,C,3
4,prac,1,B,mfborder.png,1,z,Tue Feb 10 2026 12:58:21 GMT-0600 (Central Standard Time),101112.80000001192,CFD-WF-013-009-HC.jpg,1000,12,I,z,523,dash,3,10682.699999988079,90430.10000002384,8009,ATS,C,4
5,prac,1,B,mfborder.png,1,z,Tue Feb 10 2026 12:58:21 GMT-0600 (Central Standard Time),103894.89999997616,CFD-BF-019-004-HC.jpg,1400,7,I,z,600,dash,3,13464.799999952316,90430.10000002384,8009,ATS,C,5
5,prac,1,B,mfborder.png,0,z,Tue Feb 10 2026 12:58:21 GMT-0600 (Central Standard Time),107693.60000002384,CFD-WF-037-016-A.jpg,1500,11,I,None,1517,dash,3,17263.5,90430.10000002384,8009,ATS,C,6
6,prac,1,B,mfborder.png,1,m,Tue Feb 10 2026 12:58:21 GMT-0600 (Central Standard Time),110641.19999998808,CFD-BM-022-004-HC.jpg,1700,1,I,m,474,dash,3,20211.099999964237,90430.10000002384,8009,ATS,C,7
7,prac,1,B,mfborder.png,1,m,Tue Feb 10 2026 12:58:21 GMT-0600 (Central Standard Time),114025.0,CFD-WM-036-018-A.jpg,1700,9,I,m,905,dash,3,23594.899999976158,90430.10000002384,8009,ATS,C,8
8,prac,1,B,mfborder.png,1,z,Tue Feb 10 2026 12:58:21 GMT-0600 (Central Standard Time),116975.39999997616,CFD-BF-042-031-HC.jpg,1500,3,I,z,667,dash,3,26545.299999952316,90430.10000002384,8009,ATS,C,9
9,prac,1,B,mfborder.png,1,m,Tue Feb 10 2026 12:58:21 GMT-0600 (Central Standard Time),120354.80000001192,CFD-WM-035-036-HC.jpg,1600,10,I,m,986,dash,3,29924.69999998808,90430.10000002384,8009,ATS,C,10
10,prac,1,B,mfborder.png,1,z,Tue Feb 10 2026 12:58:21 GMT-0600 (Central Standard Time),123937.5,CFD-WF-001-010-HC.jpg,1900,8,I,z,887,dash,3,33507.39999997616,90430.10000002384,8009,ATS,C,11
11,prac,1,B,mfborder.png,1,m,Tue Feb 10 2026 12:58:21 GMT-0600 (Central Standard Time),127569.80000001192,CFD-BM-043-014-A.jpg,2000,5,I,m,846,dash,3,37139.69999998808,90430.10000002384,8009,ATS,C,12
1,test,1,A,haborder.png,1,z,Tue Feb 10 2026 12:58:21 GMT-0600 (Central Standard Time),139866.10000002384,CFD-BF-002-018-A.jpg,1200,solid,I,z,847,6,3,2068.300000011921,137797.80000001192,8009,ATS,C,1
2,test,1,A,haborder.png,1,z,Tue Feb 10 2026 12:58:21 GMT-0600 (Central Standard Time),142148.19999998808,CFD-WF-037-016-A.jpg,1600,solid,I,z,661,10,3,4350.399999976158,137797.80000001192,8009,ATS,C,2
3,test,1,A,haborder.png,1,z,Tue Feb 10 2026 12:58:21 GMT-0600 (Central Standard Time),143647.39999997616,CFD-BF-031-020-A.jpg,1000,solid,I,z,473,4,3,5849.599999964237,137797.80000001192,8009,ATS,C,3
4,test,1,A,haborder.png,1,z,Tue Feb 10 2026 12:58:21 GMT-0600 (Central Standard Time),145730.80000001192,CFD-BM-043-014-A.jpg,1600,solid,I,z,449,2,3,7933.0,137797.80000001192,8009,ATS,C,4
5,test,1,A,haborder.png,1,z,Tue Feb 10 2026 12:58:21 GMT-0600 (Central Standard Time),148151.0,CFD-WM-036-018-A.jpg,1900,solid,I,z,487,8,3,10353.199999988079,137797.80000001192,8009,ATS,C,5
6,test,1,A,haborder.png,1,z,Tue Feb 10 2026 12:58:21 GMT-0600 (Central Standard Time),150278.89999997616,CFD-BM-043-014-A.jpg,1600,solid,I,z,507,2,3,12481.099999964237,137797.80000001192,8009,ATS,C,6
7,test,1,A,haborder.png,1,m,Tue Feb 10 2026 12:58:21 GMT-0600 (Central Standard Time),152628.80000001192,CFD-BM-034-035-HC.jpg,1700,solid,I,m,620,1,3,14831.0,137797.80000001192,8009,ATS,C,7
8,test,1,A,haborder.png,1,m,Tue Feb 10 2026 12:58:21 GMT-0600 (Central Standard Time),154860.10000002384,CFD-BM-022-004-HC.jpg,1500,solid,I,m,711,3,3,17062.30000001192,137797.80000001192,8009,ATS,C,8
9,test,1,A,haborder.png,1,m,Tue Feb 10 2026 12:58:21 GMT-0600 (Central Standard Time),157126.89999997616,CFD-WM-035-036-HC.jpg,1700,solid,I,m,535,9,3,19329.099999964237,137797.80000001192,8009,ATS,C,9
10,test,1,A,haborder.png,1,m,Tue Feb 10 2026 12:58:21 GMT-0600 (Central Standard Time),159345.80000001192,CFD-WM-028-005-HC.jpg,1400,solid,I,m,785,7,3,21548.0,137797.80000001192,8009,ATS,C,10
11,test,1,A,haborder.png,1,z,Tue Feb 10 2026 12:58:21 GMT-0600 (Central Standard Time),160993.10000002384,CFD-BF-031-020-A.jpg,1000,solid,I,z,631,4,3,23195.30000001192,137797.80000001192,8009,ATS,C,11
12,test,1,A,haborder.png,1,z,Tue Feb 10 2026 12:58:21 GMT-0600 (Central Standard Time),162708.30000001192,CFD-WF-023-013-A.jpg,1000,solid,I,z,684,12,3,24910.5,137797.80000001192,8009,ATS,C,12
13,test,1,A,haborder.png,1,m,Tue Feb 10 2026 12:58:21 GMT-0600 (Central Standard Time),165458.39999997616,CFD-BF-019-004-HC.jpg,2000,solid,I,m,723,5,3,27660.599999964237,137797.80000001192,8009,ATS,C,13
14,test,1,A,haborder.png,1,z,Tue Feb 10 2026 12:58:21 GMT-0600 (Central Standard Time),167556.0,CFD-BF-002-018-A.jpg,1200,solid,I,z,876,6,3,29758.19999998808,137797.80000001192,8009,ATS,C,14
15,test,1,A,haborder.png,1,z,Tue Feb 10 2026 12:58:21 GMT-0600 (Central Standard Time),169840.89999997616,CFD-WF-037-016-A.jpg,1600,solid,I,z,650,10,3,32043.099999964237,137797.80000001192,8009,ATS,C,15
16,test,1,A,haborder.png,1,m,Tue Feb 10 2026 12:58:21 GMT-0600 (Central Standard Time),172122.10000002384,CFD-WF-013-009-HC.jpg,1500,solid,I,m,756,11,3,34324.30000001192,137797.80000001192,8009,ATS,C,16
17,test,1,A,haborder.png,1,m,Tue Feb 10 2026 12:58:21 GMT-0600 (Central Standard Time),174255.30000001192,CFD-WM-028-005-HC.jpg,1400,solid,I,m,703,7,3,36457.5,137797.80000001192,8009,ATS,C,17
18,test,1,A,haborder.png,1,m,Tue Feb 10 2026 12:58:21 GMT-0600 (Central Standard Time),176853.10000002384,CFD-BM-034-035-HC.jpg,1700,solid,I,m,867,1,3,39055.30000001192,137797.80000001192,8009,ATS,C,18
18,test,1,A,haborder.png,0,z,Tue Feb 10 2026 12:58:21 GMT-0600 (Central Standard Time),178470.10000002384,CFD-WF-023-013-A.jpg,1000,solid,I,m,585,12,3,40672.30000001192,137797.80000001192,8009,ATS,C,19
18,test,1,A,haborder.png,0,m,Tue Feb 10 2026 12:58:21 GMT-0600 (Central Standard Time),180985.60000002384,CFD-BF-019-004-HC.jpg,2000,solid,I,z,490,5,3,43187.80000001192,137797.80000001192,8009,ATS,C,20
19,test,1,A,haborder.png,1,z,Tue Feb 10 2026 12:58:21 GMT-0600 (Central Standard Time),183570.19999998808,CFD-WM-036-018-A.jpg,1900,solid,I,z,650,8,3,45772.39999997616,137797.80000001192,8009,ATS,C,21
20,test,1,A,haborder.png,1,m,Tue Feb 10 2026 12:58:21 GMT-0600 (Central Standard Time),185967.0,CFD-WM-035-036-HC.jpg,1700,solid,I,m,675,9,3,48169.19999998808,137797.80000001192,8009,ATS,C,22
21,test,1,A,haborder.png,1,m,Tue Feb 10 2026 12:58:21 GMT-0600 (Central Standard Time),188100.0,CFD-BM-022-004-HC.jpg,1500,solid,I,m,602,3,3,50302.19999998808,137797.80000001192,8009,ATS,C,23
22,test,1,A,haborder.png,1,m,Tue Feb 10 2026 12:58:21 GMT-0600 (Central Standard Time),190232.0,CFD-WF-013-009-HC.jpg,1500,solid,I,m,606,11,3,52434.19999998808,137797.80000001192,8009,ATS,C,24
1,test,1,B,mfborder.png,1,m,Tue Feb 10 2026 12:58:21 GMT-0600 (Central Standard Time),195098.89999997616,CFD-WM-035-036-HC.jpg,1600,dash,I,m,836,10,3,2465.699999988079,192633.19999998808,8009,ATS,C,1
2,test,1,B,mfborder.png,1,m,Tue Feb 10 2026 12:58:21 GMT-0600 (Central Standard Time),197379.69999998808,CFD-WM-036-018-A.jpg,1700,dash,I,m,552,9,3,4746.5,192633.19999998808,8009,ATS,C,2
3,test,1,B,mfborder.png,1,z,Tue Feb 10 2026 12:58:21 GMT-0600 (Central Standard Time),198962.89999997616,CFD-BF-031-020-A.jpg,1000,dash,I,z,553,4,3,6329.699999988079,192633.19999998808,8009,ATS,C,3
4,test,1,B,mfborder.png,1,z,Tue Feb 10 2026 12:58:21 GMT-0600 (Central Standard Time),200963.0,CFD-WF-037-016-A.jpg,1500,dash,I,z,482,11,3,8329.800000011921,192633.19999998808,8009,ATS,C,4
5,test,1,B,mfborder.png,1,z,Tue Feb 10 2026 12:58:21 GMT-0600 (Central Standard Time),203429.5,CFD-WF-001-010-HC.jpg,1900,dash,I,z,548,8,3,10796.300000011921,192633.19999998808,8009,ATS,C,5
6,test,1,B,mfborder.png,1,m,Tue Feb 10 2026 12:58:21 GMT-0600 (Central Standard Time),206127.39999997616,CFD-BM-043-014-A.jpg,2000,dash,I,m,665,5,3,13494.199999988079,192633.19999998808,8009,ATS,C,6
7,test,1,B,mfborder.png,1,z,Tue Feb 10 2026 12:58:21 GMT-0600 (Central Standard Time),208243.30000001192,CFD-BF-042-031-HC.jpg,1500,dash,I,z,586,3,3,15610.100000023842,192633.19999998808,8009,ATS,C,7
8,test,1,B,mfborder.png,1,z,Tue Feb 10 2026 12:58:21 GMT-0600 (Central Standard Time),209809.10000002384,CFD-BF-031-020-A.jpg,1000,dash,I,z,538,4,3,17175.900000035763,192633.19999998808,8009,ATS,C,8
9,test,1,B,mfborder.png,1,m,Tue Feb 10 2026 12:58:21 GMT-0600 (Central Standard Time),212108.60000002384,CFD-BM-022-004-HC.jpg,1700,dash,I,m,576,1,3,19475.400000035763,192633.19999998808,8009,ATS,C,9
10,test,1,B,mfborder.png,1,z,Tue Feb 10 2026 12:58:21 GMT-0600 (Central Standard Time),214641.89999997616,CFD-WF-001-010-HC.jpg,1900,dash,I,z,605,8,3,22008.69999998808,192633.19999998808,8009,ATS,C,10
11,test,1,B,mfborder.png,1,m,Tue Feb 10 2026 12:58:21 GMT-0600 (Central Standard Time),216491.10000002384,CFD-WM-034-040-A.jpg,1200,dash,I,m,625,6,3,23857.900000035763,192633.19999998808,8009,ATS,C,11
12,test,1,B,mfborder.png,1,m,Tue Feb 10 2026 12:58:21 GMT-0600 (Central Standard Time),218625.89999997616,CFD-BM-021-026-A.jpg,1600,dash,I,m,517,2,3,25992.69999998808,192633.19999998808,8009,ATS,C,12
13,test,1,B,mfborder.png,1,z,Tue Feb 10 2026 12:58:21 GMT-0600 (Central Standard Time),220773.5,CFD-BF-042-031-HC.jpg,1500,dash,I,z,619,3,3,28140.30000001192,192633.19999998808,8009,ATS,C,13
14,test,1,B,mfborder.png,1,z,Tue Feb 10 2026 12:58:21 GMT-0600 (Central Standard Time),222754.89999997616,CFD-WF-013-009-HC.jpg,1000,dash,I,z,961,12,3,30121.69999998808,192633.19999998808,8009,ATS,C,14
15,test,1,B,mfborder.png,1,z,Tue Feb 10 2026 12:58:21 GMT-0600 (Central Standard Time),224222.5,CFD-WF-013-009-HC.jpg,1000,dash,I,z,444,12,3,31589.30000001192,192633.19999998808,8009,ATS,C,15
16,test,1,B,mfborder.png,1,m,Tue Feb 10 2026 12:58:21 GMT-0600 (Central Standard Time),226569.69999998808,CFD-WM-036-018-A.jpg,1700,dash,I,m,628,9,3,33936.5,192633.19999998808,8009,ATS,C,16
17,test,1,B,mfborder.png,1,m,Tue Feb 10 2026 12:58:21 GMT-0600 (Central Standard Time),229004.19999998808,CFD-BM-022-004-HC.jpg,1700,dash,I,m,703,1,3,36371.0,192633.19999998808,8009,ATS,C,17
18,test,1,B,mfborder.png,1,m,Tue Feb 10 2026 12:58:21 GMT-0600 (Central Standard Time),231202.60000002384,CFD-BM-021-026-A.jpg,1600,dash,I,m,569,2,3,38569.40000003576,192633.19999998808,8009,ATS,C,18
19,test,1,B,mfborder.png,1,m,Tue Feb 10 2026 12:58:21 GMT-0600 (Central Standard Time),233069.60000002384,CFD-WM-034-040-A.jpg,1200,dash,I,m,637,6,3,40436.40000003576,192633.19999998808,8009,ATS,C,19
20,test,1,B,mfborder.png,1,z,Tue Feb 10 2026 12:58:21 GMT-0600 (Central Standard Time),235120.60000002384,CFD-BF-019-004-HC.jpg,1400,dash,I,z,623,7,3,42487.40000003576,192633.19999998808,8009,ATS,C,20
21,test,1,B,mfborder.png,1,m,Tue Feb 10 2026 12:58:21 GMT-0600 (Central Standard Time),237302.80000001192,CFD-WM-035-036-HC.jpg,1600,dash,I,m,552,10,3,44669.60000002384,192633.19999998808,8009,ATS,C,21
22,test,1,B,mfborder.png,1,z,Tue Feb 10 2026 12:58:21 GMT-0600 (Central Standard Time),239383.89999997616,CFD-WF-037-016-A.jpg,1500,dash,I,z,550,11,3,46750.69999998808,192633.19999998808,8009,ATS,C,22
23,test,1,B,mfborder.png,1,z,Tue Feb 10 2026 12:58:21 GMT-0600 (Central Standard Time),241383.19999998808,CFD-BF-019-004-HC.jpg,1400,dash,I,z,566,7,3,48750.0,192633.19999998808,8009,ATS,C,23
24,test,1,B,mfborder.png,1,m,Tue Feb 10 2026 12:58:21 GMT-0600 (Central Standard Time),244048.39999997616,CFD-BM-043-014-A.jpg,2000,dash,I,m,641,5,3,51415.19999998808,192633.19999998808,8009,ATS,C,24
0,prac,1,C,haborder.png,0,m,Tue Feb 10 2026 12:58:21 GMT-0600 (Central Standard Time),266908.1999999881,CFD-WM-028-005-HC.jpg,1400,solid,I,None,1515,5,3,3698.599999964237,263209.60000002384,8009,ATS,C,1
1,prac,1,C,haborder.png,1,m,Tue Feb 10 2026 12:58:21 GMT-0600 (Central Standard Time),269557.6999999881,CFD-WM-028-005-HC.jpg,1000,dash,I,m,858,5,3,6348.099999964237,263209.60000002384,8009,ATS,C,2
2,prac,1,C,mfborder.png,1,z,Tue Feb 10 2026 12:58:21 GMT-0600 (Central Standard Time),273023.89999997616,CFD-WF-013-009-HC.jpg,1600,dash,I,z,1074,5,3,9814.299999952316,263209.60000002384,8009,ATS,C,3
3,prac,1,C,mfborder.png,1,m,Tue Feb 10 2026 12:58:21 GMT-0600 (Central Standard Time),276622.0,CFD-BM-034-035-HC.jpg,2000,solid,I,m,808,5,3,13412.399999976158,263209.60000002384,8009,ATS,C,4
4,prac,1,C,haborder.png,1,z,Tue Feb 10 2026 12:58:21 GMT-0600 (Central Standard Time),280220.8000000119,CFD-WF-037-016-A.jpg,1600,dash,I,z,1201,5,3,17011.19999998808,263209.60000002384,8009,ATS,C,5
5,prac,1,C,haborder.png,1,m,Tue Feb 10 2026 12:58:21 GMT-0600 (Central Standard Time),283254.1999999881,CFD-BM-022-004-HC.jpg,1500,solid,I,m,750,5,3,20044.599999964237,263209.60000002384,8009,ATS,C,6
6,prac,1,C,mfborder.png,1,z,Tue Feb 10 2026 12:58:21 GMT-0600 (Central Standard Time),286452.5,CFD-WF-023-013-A.jpg,1500,solid,I,z,899,5,3,23242.899999976158,263209.60000002384,8009,ATS,C,7
7,prac,1,C,mfborder.png,1,z,Tue Feb 10 2026 12:58:21 GMT-0600 (Central Standard Time),288851.6999999881,CFD-BF-019-004-HC.jpg,1000,dash,I,z,601,5,3,25642.099999964237,263209.60000002384,8009,ATS,C,8
8,prac,1,C,mfborder.png,1,m,Tue Feb 10 2026 12:58:21 GMT-0600 (Central Standard Time),291583.6999999881,CFD-BM-043-014-A.jpg,1200,dash,I,m,748,5,3,28374.099999964237,263209.60000002384,8009,ATS,C,9
9,prac,1,C,haborder.png,1,z,Tue Feb 10 2026 12:58:21 GMT-0600 (Central Standard Time),294784.0,CFD-BF-002-018-A.jpg,1700,solid,I,z,708,5,3,31574.399999976158,263209.60000002384,8009,ATS,C,10
10,prac,1,C,mfborder.png,1,m,Tue Feb 10 2026 12:58:21 GMT-0600 (Central Standard Time),297917.1999999881,CFD-WM-036-018-A.jpg,1700,solid,I,m,637,5,3,34707.59999996424,263209.60000002384,8009,ATS,C,11
11,prac,1,C,haborder.png,1,z,Tue Feb 10 2026 12:58:21 GMT-0600 (Central Standard Time),301297.1999999881,CFD-BF-031-020-A.jpg,1900,dash,I,z,688,5,3,38087.59999996424,263209.60000002384,8009,ATS,C,12
0,test,1,C,mfborder.png,0,z,Tue Feb 10 2026 12:58:21 GMT-0600 (Central Standard Time),309246.89999997616,CFD-BF-031-020-A.jpg,1600,dash,I,None,1517,2,3,3134.599999964237,306112.3000000119,8009,ATS,C,1
0,test,1,C,mfborder.png,0,z,Tue Feb 10 2026 12:58:21 GMT-0600 (Central Standard Time),312276.60000002384,CFD-WF-037-016-A.jpg,1500,dash,I,None,1513,3,3,6164.300000011921,306112.3000000119,8009,ATS,C,2
0,test,1,C,haborder.png,0,m,Tue Feb 10 2026 12:58:21 GMT-0600 (Central Standard Time),314577.8000000119,CFD-WF-001-010-HC.jpg,1500,solid,I,z,783,11,3,8465.5,306112.3000000119,8009,ATS,C,3
0,test,1,C,haborder.png,0,z,Tue Feb 10 2026 12:58:21 GMT-0600 (Central Standard Time),317159.60000002384,CFD-BM-043-014-A.jpg,1900,solid,I,m,657,8,3,11047.300000011921,306112.3000000119,8009,ATS,C,4
0,test,1,C,haborder.png,0,m,Tue Feb 10 2026 12:58:21 GMT-0600 (Central Standard Time),319508.6999999881,CFD-BF-019-004-HC.jpg,1600,solid,I,z,718,10,3,13396.399999976158,306112.3000000119,8009,ATS,C,5
1,test,1,C,mfborder.png,1,m,Tue Feb 10 2026 12:58:21 GMT-0600 (Central Standard Time),321756.89999997616,CFD-BM-022-004-HC.jpg,1200,dash,I,m,1017,6,3,15644.599999964237,306112.3000000119,8009,ATS,C,6
2,test,1,C,mfborder.png,1,m,Tue Feb 10 2026 12:58:21 GMT-0600 (Central Standard Time),323757.89999997616,CFD-WM-035-036-HC.jpg,1000,dash,I,m,969,4,3,17645.599999964237,306112.3000000119,8009,ATS,C,7
3,test,1,C,mfborder.png,1,m,Tue Feb 10 2026 12:58:21 GMT-0600 (Central Standard Time),326390.5,CFD-WM-034-040-A.jpg,2000,dash,I,m,609,5,3,20278.19999998808,306112.3000000119,8009,ATS,C,8
3,test,1,C,haborder.png,0,m,Tue Feb 10 2026 12:58:21 GMT-0600 (Central Standard Time),328655.3000000119,CFD-WF-001-010-HC.jpg,1500,solid,I,z,743,11,3,22543.0,306112.3000000119,8009,ATS,C,9
4,test,1,C,haborder.png,1,z,Tue Feb 10 2026 12:58:21 GMT-0600 (Central Standard Time),331288.0,CFD-WM-036-018-A.jpg,1400,solid,I,z,1199,7,3,25175.69999998808,306112.3000000119,8009,ATS,C,10
5,test,1,C,haborder.png,1,z,Tue Feb 10 2026 12:58:21 GMT-0600 (Central Standard Time),334470.1999999881,CFD-BM-043-014-A.jpg,1900,solid,I,z,1259,8,3,28357.899999976158,306112.3000000119,8009,ATS,C,11
6,test,1,C,haborder.png,1,z,Tue Feb 10 2026 12:58:21 GMT-0600 (Central Standard Time),336835.6999999881,CFD-BM-021-026-A.jpg,1700,solid,I,z,637,9,3,30723.399999976158,306112.3000000119,8009,ATS,C,12
7,test,1,C,haborder.png,1,z,Tue Feb 10 2026 12:58:21 GMT-0600 (Central Standard Time),338969.10000002384,CFD-BM-021-026-A.jpg,1700,solid,I,z,416,9,3,32856.80000001192,306112.3000000119,8009,ATS,C,13
8,test,1,C,haborder.png,1,m,Tue Feb 10 2026 12:58:21 GMT-0600 (Central Standard Time),341317.89999997616,CFD-WF-013-009-HC.jpg,1000,solid,I,m,1316,12,3,35205.59999996424,306112.3000000119,8009,ATS,C,14
9,test,1,C,mfborder.png,1,z,Tue Feb 10 2026 12:58:21 GMT-0600 (Central Standard Time),344218.39999997616,CFD-WF-037-016-A.jpg,1500,dash,I,z,1383,3,3,38106.09999996424,306112.3000000119,8009,ATS,C,15
10,test,1,C,mfborder.png,1,m,Tue Feb 10 2026 12:58:21 GMT-0600 (Central Standard Time),346332.89999997616,CFD-BM-022-004-HC.jpg,1200,dash,I,m,886,6,3,40220.59999996424,306112.3000000119,8009,ATS,C,16
11,test,1,C,mfborder.png,1,m,Tue Feb 10 2026 12:58:21 GMT-0600 (Central Standard Time),349016.3000000119,CFD-WM-034-040-A.jpg,2000,dash,I,m,668,5,3,42904.0,306112.3000000119,8009,ATS,C,17
12,test,1,C,mfborder.png,1,z,Tue Feb 10 2026 12:58:21 GMT-0600 (Central Standard Time),351964.1999999881,CFD-BF-042-031-HC.jpg,1700,dash,I,z,1219,1,3,45851.89999997616,306112.3000000119,8009,ATS,C,18
13,test,1,C,haborder.png,1,m,Tue Feb 10 2026 12:58:21 GMT-0600 (Central Standard Time),354714.1999999881,CFD-BF-019-004-HC.jpg,1600,solid,I,m,1122,10,3,48601.89999997616,306112.3000000119,8009,ATS,C,19
14,test,1,C,haborder.png,1,m,Tue Feb 10 2026 12:58:21 GMT-0600 (Central Standard Time),356346.5,CFD-WF-013-009-HC.jpg,1000,solid,I,m,606,12,3,50234.19999998808,306112.3000000119,8009,ATS,C,20
14,test,1,C,mfborder.png,0,m,Tue Feb 10 2026 12:58:21 GMT-0600 (Central Standard Time),358178.8000000119,CFD-WM-035-036-HC.jpg,1000,dash,I,z,804,4,3,52066.5,306112.3000000119,8009,ATS,C,21
15,test,1,C,haborder.png,1,z,Tue Feb 10 2026 12:58:21 GMT-0600 (Central Standard Time),361013.3000000119,CFD-WM-036-018-A.jpg,1400,solid,I,z,1404,7,3,54901.0,306112.3000000119,8009,ATS,C,22
16,test,1,C,mfborder.png,1,z,Tue Feb 10 2026 12:58:21 GMT-0600 (Central Standard Time),363777.5,CFD-BF-042-031-HC.jpg,1700,dash,I,z,1048,1,3,57665.19999998808,306112.3000000119,8009,ATS,C,23
17,test,1,C,mfborder.png,1,z,Tue Feb 10 2026 12:58:21 GMT-0600 (Central Standard Time),366276.3000000119,CFD-BF-031-020-A.jpg,1600,dash,I,z,869,2,3,60164.0,306112.3000000119,8009,ATS,C,24
1,test,2,C,haborder.png,1,z,Tue Feb 10 2026 12:58:21 GMT-0600 (Central Standard Time),373591.1999999881,CFD-BF-002-018-A.jpg,1900,solid,I,z,1235,8,3,3165.699999988079,370425.5,8009,ATS,C,1
2,test,2,C,mfborder.png,1,z,Tue Feb 10 2026 12:58:21 GMT-0600 (Central Standard Time),376539.60000002384,CFD-BF-019-004-HC.jpg,1500,dash,I,z,1421,3,3,6114.100000023842,370425.5,8009,ATS,C,2
3,test,2,C,haborder.png,1,z,Tue Feb 10 2026 12:58:21 GMT-0600 (Central Standard Time),379372.8000000119,CFD-BF-002-018-A.jpg,1900,solid,I,z,903,8,3,8947.300000011921,370425.5,8009,ATS,C,3
4,test,2,C,haborder.png,1,m,Tue Feb 10 2026 12:58:21 GMT-0600 (Central Standard Time),382271.3000000119,CFD-BM-022-004-HC.jpg,1600,solid,I,m,1267,10,3,11845.800000011921,370425.5,8009,ATS,C,4
5,test,2,C,haborder.png,1,m,Tue Feb 10 2026 12:58:21 GMT-0600 (Central Standard Time),384353.6999999881,CFD-WM-028-005-HC.jpg,1500,solid,I,m,563,11,3,13928.199999988079,370425.5,8009,ATS,C,5
6,test,2,C,mfborder.png,1,z,Tue Feb 10 2026 12:58:21 GMT-0600 (Central Standard Time),386820.0,CFD-WF-013-009-HC.jpg,1700,dash,I,z,744,1,3,16394.5,370425.5,8009,ATS,C,6
7,test,2,C,haborder.png,1,z,Tue Feb 10 2026 12:58:21 GMT-0600 (Central Standard Time),389519.10000002384,CFD-WF-037-016-A.jpg,1700,solid,I,z,968,9,3,19093.600000023842,370425.5,8009,ATS,C,7
8,test,2,C,mfborder.png,1,m,Tue Feb 10 2026 12:58:21 GMT-0600 (Central Standard Time),391235.0,CFD-BM-034-035-HC.jpg,1000,dash,I,m,695,4,3,20809.5,370425.5,8009,ATS,C,8
9,test,2,C,mfborder.png,1,m,Tue Feb 10 2026 12:58:21 GMT-0600 (Central Standard Time),393101.1999999881,CFD-WM-036-018-A.jpg,1200,dash,I,m,633,6,3,22675.69999998808,370425.5,8009,ATS,C,9
9,test,2,C,haborder.png,0,m,Tue Feb 10 2026 12:58:21 GMT-0600 (Central Standard Time),395634.5,CFD-WM-028-005-HC.jpg,1000,solid,I,None,1515,12,3,25209.0,370425.5,8009,ATS,C,10
10,test,2,C,haborder.png,1,m,Tue Feb 10 2026 12:58:21 GMT-0600 (Central Standard Time),398467.3000000119,CFD-WM-028-005-HC.jpg,1500,solid,I,m,1301,11,3,28041.80000001192,370425.5,8009,ATS,C,11
11,test,2,C,mfborder.png,1,m,Tue Feb 10 2026 12:58:21 GMT-0600 (Central Standard Time),401015.8000000119,CFD-WM-036-018-A.jpg,1200,dash,I,m,1317,6,3,30590.30000001192,370425.5,8009,ATS,C,12
11,test,2,C,haborder.png,0,m,Tue Feb 10 2026 12:58:21 GMT-0600 (Central Standard Time),404148.1999999881,CFD-BM-022-004-HC.jpg,1600,solid,I,None,1516,10,3,33722.69999998808,370425.5,8009,ATS,C,13
12,test,2,C,mfborder.png,1,z,Tue Feb 10 2026 12:58:21 GMT-0600 (Central Standard Time),406897.39999997616,CFD-WF-023-013-A.jpg,1600,dash,I,z,1123,2,3,36471.89999997616,370425.5,8009,ATS,C,14
13,test,2,C,haborder.png,1,z,Tue Feb 10 2026 12:58:21 GMT-0600 (Central Standard Time),409480.60000002384,CFD-BF-031-020-A.jpg,1400,solid,I,z,1150,7,3,39055.10000002384,370425.5,8009,ATS,C,15
14,test,2,C,mfborder.png,1,z,Tue Feb 10 2026 12:58:21 GMT-0600 (Central Standard Time),411944.5,CFD-WF-013-009-HC.jpg,1700,dash,I,z,739,1,3,41519.0,370425.5,8009,ATS,C,16
15,test,2,C,mfborder.png,1,m,Tue Feb 10 2026 12:58:21 GMT-0600 (Central Standard Time),413826.8000000119,CFD-BM-034-035-HC.jpg,1000,dash,I,m,859,4,3,43401.30000001192,370425.5,8009,ATS,C,17
16,test,2,C,haborder.png,1,m,Tue Feb 10 2026 12:58:21 GMT-0600 (Central Standard Time),416028.10000002384,CFD-WM-028-005-HC.jpg,1000,solid,I,m,1179,12,3,45602.60000002384,370425.5,8009,ATS,C,18
17,test,2,C,mfborder.png,1,z,Tue Feb 10 2026 12:58:21 GMT-0600 (Central Standard Time),418426.3000000119,CFD-WF-023-013-A.jpg,1600,dash,I,z,765,2,3,48000.80000001192,370425.5,8009,ATS,C,19
18,test,2,C,mfborder.png,1,z,Tue Feb 10 2026 12:58:21 GMT-0600 (Central Standard Time),420777.8000000119,CFD-BF-019-004-HC.jpg,1500,dash,I,z,832,3,3,50352.30000001192,370425.5,8009,ATS,C,20
19,test,2,C,haborder.png,1,z,Tue Feb 10 2026 12:58:21 GMT-0600 (Central Standard Time),423409.60000002384,CFD-WF-037-016-A.jpg,1700,solid,I,z,916,9,3,52984.10000002384,370425.5,8009,ATS,C,21
20,test,2,C,mfborder.png,1,m,Tue Feb 10 2026 12:58:21 GMT-0600 (Central Standard Time),426207.1999999881,CFD-BM-043-014-A.jpg,2000,dash,I,m,768,5,3,55781.69999998808,370425.5,8009,ATS,C,22
21,test,2,C,mfborder.png,1,m,Tue Feb 10 2026 12:58:21 GMT-0600 (Central Standard Time),428756.10000002384,CFD-BM-043-014-A.jpg,2000,dash,I,m,519,5,3,58330.60000002384,370425.5,8009,ATS,C,23
22,test,2,C,haborder.png,1,z,Tue Feb 10 2026 12:58:21 GMT-0600 (Central Standard Time),431006.0,CFD-BF-031-020-A.jpg,1400,solid,I,z,826,7,3,60580.5,370425.5,8009,ATS,C,24
1,test,3,C,mfborder.png,1,m,Tue Feb 10 2026 12:58:21 GMT-0600 (Central Standard Time),436837.0,CFD-WM-034-040-A.jpg,2000,dash,I,m,1011,5,3,3030.699999988079,433806.3000000119,8009,ATS,C,1
2,test,3,C,mfborder.png,1,z,Tue Feb 10 2026 12:58:21 GMT-0600 (Central Standard Time),439236.60000002384,CFD-BF-042-031-HC.jpg,1700,dash,I,z,678,1,3,5430.300000011921,433806.3000000119,8009,ATS,C,2
3,test,3,C,mfborder.png,1,m,Tue Feb 10 2026 12:58:21 GMT-0600 (Central Standard Time),441136.3000000119,CFD-WM-035-036-HC.jpg,1000,dash,I,m,884,4,3,7330.0,433806.3000000119,8009,ATS,C,3
3,test,3,C,haborder.png,0,z,Tue Feb 10 2026 12:58:21 GMT-0600 (Central Standard Time),444068.89999997616,CFD-WM-036-018-A.jpg,1400,solid,I,None,1516,7,3,10262.599999964237,433806.3000000119,8009,ATS,C,4
4,test,3,C,mfborder.png,1,m,Tue Feb 10 2026 12:58:21 GMT-0600 (Central Standard Time),445785.10000002384,CFD-WM-035-036-HC.jpg,1000,dash,I,m,699,4,3,11978.800000011921,433806.3000000119,8009,ATS,C,5
5,test,3,C,haborder.png,1,z,Tue Feb 10 2026 12:58:21 GMT-0600 (Central Standard Time),448650.5,CFD-BM-021-026-A.jpg,1700,solid,I,z,1132,9,3,14844.199999988079,433806.3000000119,8009,ATS,C,6
6,test,3,C,haborder.png,1,m,Tue Feb 10 2026 12:58:21 GMT-0600 (Central Standard Time),451217.89999997616,CFD-WF-001-010-HC.jpg,1500,solid,I,m,1049,11,3,17411.599999964237,433806.3000000119,8009,ATS,C,7
7,test,3,C,mfborder.png,1,z,Tue Feb 10 2026 12:58:21 GMT-0600 (Central Standard Time),453582.10000002384,CFD-WF-037-016-A.jpg,1500,dash,I,z,844,3,3,19775.80000001192,433806.3000000119,8009,ATS,C,8
7,test,3,C,haborder.png,0,z,Tue Feb 10 2026 12:58:21 GMT-0600 (Central Standard Time),457014.3000000119,CFD-BM-043-014-A.jpg,1900,solid,I,None,1515,8,3,23208.0,433806.3000000119,8009,ATS,C,9
7,test,3,C,mfborder.png,0,m,Tue Feb 10 2026 12:58:21 GMT-0600 (Central Standard Time),459748.3000000119,CFD-BM-022-004-HC.jpg,1200,dash,I,None,1517,6,3,25942.0,433806.3000000119,8009,ATS,C,10
8,test,3,C,haborder.png,1,m,Tue Feb 10 2026 12:58:21 GMT-0600 (Central Standard Time),462553.1999999881,CFD-WF-001-010-HC.jpg,1500,solid,I,m,1271,11,3,28746.899999976158,433806.3000000119,8009,ATS,C,11
8,test,3,C,mfborder.png,0,z,Tue Feb 10 2026 12:58:21 GMT-0600 (Central Standard Time),465078.60000002384,CFD-BF-042-031-HC.jpg,1700,dash,I,m,800,1,3,31272.30000001192,433806.3000000119,8009,ATS,C,12
9,test,3,C,haborder.png,1,z,Tue Feb 10 2026 12:58:21 GMT-0600 (Central Standard Time),468127.6999999881,CFD-BM-021-026-A.jpg,1700,solid,I,z,1317,9,3,34321.39999997616,433806.3000000119,8009,ATS,C,13
10,test,3,C,mfborder.png,1,z,Tue Feb 10 2026 12:58:21 GMT-0600 (Central Standard Time),471191.89999997616,CFD-BF-031-020-A.jpg,1600,dash,I,z,1439,2,3,37385.59999996424,433806.3000000119,8009,ATS,C,14
10,test,3,C,haborder.png,0,z,Tue Feb 10 2026 12:58:21 GMT-0600 (Central Standard Time),474459.0,CFD-BM-043-014-A.jpg,1900,solid,I,m,1347,8,3,40652.69999998808,433806.3000000119,8009,ATS,C,15
11,test,3,C,mfborder.png,1,z,Tue Feb 10 2026 12:58:21 GMT-0600 (Central Standard Time),476809.39999997616,CFD-WF-037-016-A.jpg,1500,dash,I,z,821,3,3,43003.09999996424,433806.3000000119,8009,ATS,C,16
12,test,3,C,haborder.png,1,z,Tue Feb 10 2026 12:58:21 GMT-0600 (Central Standard Time),479507.10000002384,CFD-WM-036-018-A.jpg,1400,solid,I,z,1279,7,3,45700.80000001192,433806.3000000119,8009,ATS,C,17
13,test,3,C,mfborder.png,1,z,Tue Feb 10 2026 12:58:21 GMT-0600 (Central Standard Time),482039.8000000119,CFD-BF-031-020-A.jpg,1600,dash,I,z,907,2,3,48233.5,433806.3000000119,8009,ATS,C,18
13,test,3,C,mfborder.png,0,m,Tue Feb 10 2026 12:58:21 GMT-0600 (Central Standard Time),485572.60000002384,CFD-WM-034-040-A.jpg,2000,dash,I,None,1516,5,3,51766.30000001192,433806.3000000119,8009,ATS,C,19
13,test,3,C,mfborder.png,0,m,Tue Feb 10 2026 12:58:21 GMT-0600 (Central Standard Time),488304.8000000119,CFD-BM-022-004-HC.jpg,1200,dash,I,None,1516,6,3,54498.5,433806.3000000119,8009,ATS,C,20
14,test,3,C,haborder.png,1,m,Tue Feb 10 2026 12:58:21 GMT-0600 (Central Standard Time),491403.3000000119,CFD-BF-019-004-HC.jpg,1600,solid,I,m,1479,10,3,57597.0,433806.3000000119,8009,ATS,C,21
15,test,3,C,haborder.png,1,m,Tue Feb 10 2026 12:58:21 GMT-0600 (Central Standard Time),493386.8000000119,CFD-WF-013-009-HC.jpg,1000,solid,I,m,965,12,3,59580.5,433806.3000000119,8009,ATS,C,22
16,test,3,C,haborder.png,1,m,Tue Feb 10 2026 12:58:21 GMT-0600 (Central Standard Time),494802.1999999881,CFD-WF-013-009-HC.jpg,1000,solid,I,m,396,12,3,60995.89999997616,433806.3000000119,8009,ATS,C,23
17,test,3,C,haborder.png,1,m,Tue Feb 10 2026 12:58:21 GMT-0600 (Central Standard Time),497151.1999999881,CFD-BF-019-004-HC.jpg,1600,solid,I,m,721,10,3,63344.89999997616,433806.3000000119,8009,ATS,C,24
1,test,4,C,haborder.png,1,m,Tue Feb 10 2026 12:58:21 GMT-0600 (Central Standard Time),501266.10000002384,CFD-WM-028-005-HC.jpg,1500,solid,I,m,802,11,3,2333.300000011921,498932.8000000119,8009,ATS,C,1
2,test,4,C,mfborder.png,1,m,Tue Feb 10 2026 12:58:21 GMT-0600 (Central Standard Time),504349.6999999881,CFD-BM-043-014-A.jpg,2000,dash,I,m,1060,5,3,5416.899999976158,498932.8000000119,8009,ATS,C,2
3,test,4,C,haborder.png,1,z,Tue Feb 10 2026 12:58:21 GMT-0600 (Central Standard Time),507151.89999997616,CFD-WF-037-016-A.jpg,1700,solid,I,z,1068,9,3,8219.099999964237,498932.8000000119,8009,ATS,C,3
4,test,4,C,haborder.png,1,m,Tue Feb 10 2026 12:58:21 GMT-0600 (Central Standard Time),509147.39999997616,CFD-WM-028-005-HC.jpg,1000,solid,I,m,977,12,3,10214.599999964237,498932.8000000119,8009,ATS,C,4
5,test,4,C,haborder.png,1,m,Tue Feb 10 2026 12:58:21 GMT-0600 (Central Standard Time),511233.8000000119,CFD-WM-028-005-HC.jpg,1000,solid,I,m,1067,12,3,12301.0,498932.8000000119,8009,ATS,C,5
5,test,4,C,mfborder.png,0,m,Tue Feb 10 2026 12:58:21 GMT-0600 (Central Standard Time),513630.5,CFD-WM-036-018-A.jpg,1200,dash,I,z,1177,6,3,14697.699999988079,498932.8000000119,8009,ATS,C,6
5,test,4,C,mfborder.png,0,z,Tue Feb 10 2026 12:58:21 GMT-0600 (Central Standard Time),516863.3000000119,CFD-WF-013-009-HC.jpg,1700,dash,I,None,1515,1,3,17930.5,498932.8000000119,8009,ATS,C,7
6,test,4,C,mfborder.png,1,z,Tue Feb 10 2026 12:58:21 GMT-0600 (Central Standard Time),519177.3000000119,CFD-WF-013-009-HC.jpg,1700,dash,I,z,589,1,3,20244.5,498932.8000000119,8009,ATS,C,8
7,test,4,C,mfborder.png,1,m,Tue Feb 10 2026 12:58:21 GMT-0600 (Central Standard Time),521080.5,CFD-BM-034-035-HC.jpg,1000,dash,I,m,886,4,3,22147.69999998808,498932.8000000119,8009,ATS,C,9
8,test,4,C,haborder.png,1,m,Tue Feb 10 2026 12:58:21 GMT-0600 (Central Standard Time),523593.1999999881,CFD-BM-022-004-HC.jpg,1600,solid,I,m,890,10,3,24660.399999976158,498932.8000000119,8009,ATS,C,10
9,test,4,C,mfborder.png,1,z,Tue Feb 10 2026 12:58:21 GMT-0600 (Central Standard Time),525975.6999999881,CFD-WF-023-013-A.jpg,1600,dash,I,z,757,2,3,27042.899999976158,498932.8000000119,8009,ATS,C,11
10,test,4,C,mfborder.png,1,m,Tue Feb 10 2026 12:58:21 GMT-0600 (Central Standard Time),528792.3000000119,CFD-BM-043-014-A.jpg,2000,dash,I,m,791,5,3,29859.5,498932.8000000119,8009,ATS,C,12
11,test,4,C,haborder.png,1,z,Tue Feb 10 2026 12:58:21 GMT-0600 (Central Standard Time),531807.8000000119,CFD-BF-002-018-A.jpg,1900,solid,I,z,1083,8,3,32875.0,498932.8000000119,8009,ATS,C,13
12,test,4,C,haborder.png,1,m,Tue Feb 10 2026 12:58:21 GMT-0600 (Central Standard Time),534623.3000000119,CFD-WM-028-005-HC.jpg,1500,solid,I,m,1280,11,3,35690.5,498932.8000000119,8009,ATS,C,14
12,test,4,C,mfborder.png,0,m,Tue Feb 10 2026 12:58:21 GMT-0600 (Central Standard Time),536689.1999999881,CFD-WM-036-018-A.jpg,1200,dash,I,z,850,6,3,37756.39999997616,498932.8000000119,8009,ATS,C,15
12,test,4,C,mfborder.png,0,z,Tue Feb 10 2026 12:58:21 GMT-0600 (Central Standard Time),539721.8999999762,CFD-BF-019-004-HC.jpg,1500,dash,I,None,1516,3,3,40789.09999996424,498932.8000000119,8009,ATS,C,16
13,test,4,C,haborder.png,1,z,Tue Feb 10 2026 12:58:21 GMT-0600 (Central Standard Time),542653.8000000119,CFD-WF-037-016-A.jpg,1700,solid,I,z,1200,9,3,43721.0,498932.8000000119,8009,ATS,C,17
13,test,4,C,mfborder.png,0,z,Tue Feb 10 2026 12:58:21 GMT-0600 (Central Standard Time),545785.8999999762,CFD-WF-023-013-A.jpg,1600,dash,I,None,1515,2,3,46853.09999996424,498932.8000000119,8009,ATS,C,18
13,test,4,C,mfborder.png,0,z,Tue Feb 10 2026 12:58:21 GMT-0600 (Central Standard Time),548122.1000000238,CFD-BF-019-004-HC.jpg,1500,dash,I,m,809,3,3,49189.30000001192,498932.8000000119,8009,ATS,C,19
14,test,4,C,haborder.png,1,z,Tue Feb 10 2026 12:58:21 GMT-0600 (Central Standard Time),550369.8999999762,CFD-BF-031-020-A.jpg,1400,solid,I,z,833,7,3,51437.09999996424,498932.8000000119,8009,ATS,C,20
15,test,4,C,haborder.png,1,z,Tue Feb 10 2026 12:58:21 GMT-0600 (Central Standard Time),553466.6000000238,CFD-BF-002-018-A.jpg,1900,solid,I,z,1171,8,3,54533.80000001192,498932.8000000119,8009,ATS,C,21
16,test,4,C,mfborder.png,1,m,Tue Feb 10 2026 12:58:21 GMT-0600 (Central Standard Time),555199.5,CFD-BM-034-035-HC.jpg,1000,dash,I,m,700,4,3,56266.69999998808,498932.8000000119,8009,ATS,C,22
17,test,4,C,haborder.png,1,z,Tue Feb 10 2026 12:58:21 GMT-0600 (Central Standard Time),557681.8999999762,CFD-BF-031-020-A.jpg,1400,solid,I,z,1062,7,3,58749.09999996424,498932.8000000119,8009,ATS,C,23
18,test,4,C,haborder.png,1,m,Tue Feb 10 2026 12:58:21 GMT-0600 (Central Standard Time),560314.8999999762,CFD-BM-022-004-HC.jpg,1600,solid,I,m,1016,10,3,61382.09999996424,498932.8000000119,8009,ATS,C,24
