acc_sum,block,block_c,change,condition,correct,correct_response,datetime,endtime,face,project,response,response_time,row_sel,session_number,start_end,starttime,subject_id,task,task_vers,trial
0,prac,1,,1-Back,,,Tue Jun 02 2026 12:08:01 GMT-0400 (Eastern Daylight Time),,005_o_f_d_a.png,I,space,8131,1,1,,,9086,VNB,B,0
0,prac,1,0.0,1-Back,0.0,m,Tue Jun 02 2026 12:08:01 GMT-0400 (Eastern Daylight Time),175991.2000000002,020_y_f_n_a.png,I,None,2005,2,1,2891.0,173100.2000000002,9086,VNB,B,1
1,prac,1,0.0,1-Back,1.0,m,Tue Jun 02 2026 12:08:01 GMT-0400 (Eastern Daylight Time),178341.40000000037,007_m_m_h_a.png,I,m,1418,3,1,2334.7999999998137,176006.60000000056,9086,VNB,B,2
2,prac,1,0.0,1-Back,1.0,m,Tue Jun 02 2026 12:08:01 GMT-0400 (Eastern Daylight Time),180924.60000000056,016_y_m_d_a.png,I,m,1650,4,1,2569.600000000559,178355.0,9086,VNB,B,3
3,prac,1,0.0,1-Back,1.0,m,Tue Jun 02 2026 12:08:01 GMT-0400 (Eastern Daylight Time),183241.30000000075,005_o_f_n_a.png,I,m,1399,5,1,2307.800000000745,180933.5,9086,VNB,B,4
3,prac,1,1.0,1-Back,0.0,z,Tue Jun 02 2026 12:08:01 GMT-0400 (Eastern Daylight Time),185357.90000000037,016_y_m_n_a.png,I,m,1196,6,1,2108.5999999996275,183249.30000000075,9086,VNB,B,5
4,prac,1,0.0,1-Back,1.0,m,Tue Jun 02 2026 12:08:01 GMT-0400 (Eastern Daylight Time),187674.60000000056,004_o_m_h_a.png,I,m,1397,7,1,2300.0,185374.60000000056,9086,VNB,B,6
5,prac,1,0.0,1-Back,1.0,m,Tue Jun 02 2026 12:08:01 GMT-0400 (Eastern Daylight Time),189974.60000000056,011_m_f_d_a.png,I,m,1378,8,1,2292.2999999998137,187682.30000000075,9086,VNB,B,7
5,prac,1,1.0,1-Back,0.0,z,Tue Jun 02 2026 12:08:01 GMT-0400 (Eastern Daylight Time),192874.40000000037,020_y_f_d_a.png,I,None,2008,9,1,2892.2999999998137,189982.10000000056,9086,VNB,B,8
6,prac,1,0.0,1-Back,1.0,m,Tue Jun 02 2026 12:08:01 GMT-0400 (Eastern Daylight Time),194907.90000000037,007_m_m_n_a.png,I,m,1111,10,1,2024.2000000001863,192883.7000000002,9086,VNB,B,9
7,prac,1,0.0,1-Back,1.0,m,Tue Jun 02 2026 12:08:01 GMT-0400 (Eastern Daylight Time),196741.30000000075,005_o_f_h_a.png,I,m,908,11,1,1819.6000000005588,194921.7000000002,9086,VNB,B,10
8,prac,1,0.0,1-Back,1.0,m,Tue Jun 02 2026 12:08:01 GMT-0400 (Eastern Daylight Time),198658.10000000056,016_y_m_d_a.png,I,m,997,12,1,1906.7000000001863,196751.40000000037,9086,VNB,B,11
0,test,1,0.0,1-Back,,,Tue Jun 02 2026 12:08:01 GMT-0400 (Eastern Daylight Time),198658.10000000056,020_y_f_d_a.png,I,space,11731,1,1,1906.7000000001863,196751.40000000037,9086,VNB,B,0
1,test,1,0.0,1-Back,1.0,m,Tue Jun 02 2026 12:08:01 GMT-0400 (Eastern Daylight Time),222891.2000000002,011_m_f_n_a.png,I,m,1173,2,1,2193.7000000001863,220697.5,9086,VNB,B,1
2,test,1,0.0,1-Back,1.0,m,Tue Jun 02 2026 12:08:01 GMT-0400 (Eastern Daylight Time),224891.0,004_o_m_h_a.png,I,m,972,3,1,1987.0999999996275,222903.90000000037,9086,VNB,B,2
3,test,1,1.0,1-Back,1.0,z,Tue Jun 02 2026 12:08:01 GMT-0400 (Eastern Daylight Time),226890.90000000037,007_m_m_h_a.png,I,z,981,4,1,1993.0,224897.90000000037,9086,VNB,B,3
4,test,1,0.0,1-Back,1.0,m,Tue Jun 02 2026 12:08:01 GMT-0400 (Eastern Daylight Time),228974.5,005_o_f_n_a.png,I,m,1061,5,1,2078.5999999996275,226895.90000000037,9086,VNB,B,4
5,test,1,0.0,1-Back,1.0,m,Tue Jun 02 2026 12:08:01 GMT-0400 (Eastern Daylight Time),231774.40000000037,016_y_m_d_a.png,I,m,1769,6,1,2794.2000000001863,228980.2000000002,9086,VNB,B,5
6,test,1,1.0,1-Back,1.0,z,Tue Jun 02 2026 12:08:01 GMT-0400 (Eastern Daylight Time),234007.90000000037,011_m_f_d_a.png,I,z,1209,7,1,2225.7999999998137,231782.10000000056,9086,VNB,B,6
7,test,1,0.0,1-Back,1.0,m,Tue Jun 02 2026 12:08:01 GMT-0400 (Eastern Daylight Time),236091.10000000056,020_y_f_h_a.png,I,m,1056,8,1,2075.7999999998137,234015.30000000075,9086,VNB,B,7
8,test,1,0.0,1-Back,1.0,m,Tue Jun 02 2026 12:08:01 GMT-0400 (Eastern Daylight Time),238058.60000000056,004_o_m_n_a.png,I,m,949,9,1,1959.2999999998137,236099.30000000075,9086,VNB,B,8
9,test,1,0.0,1-Back,1.0,m,Tue Jun 02 2026 12:08:01 GMT-0400 (Eastern Daylight Time),240107.80000000075,016_y_m_h_a.png,I,m,1022,10,1,2041.5,238066.30000000075,9086,VNB,B,9
10,test,1,0.0,1-Back,1.0,m,Tue Jun 02 2026 12:08:01 GMT-0400 (Eastern Daylight Time),242257.60000000056,004_o_m_d_a.png,I,m,1131,11,1,2142.9000000003725,240114.7000000002,9086,VNB,B,10
11,test,1,1.0,1-Back,1.0,z,Tue Jun 02 2026 12:08:01 GMT-0400 (Eastern Daylight Time),244241.30000000075,005_o_f_d_a.png,I,z,966,12,1,1977.300000000745,242264.0,9086,VNB,B,11
12,test,1,0.0,1-Back,1.0,m,Tue Jun 02 2026 12:08:01 GMT-0400 (Eastern Daylight Time),246107.80000000075,007_m_m_n_a.png,I,m,847,13,1,1860.9000000003725,244246.90000000037,9086,VNB,B,12
13,test,1,1.0,1-Back,1.0,z,Tue Jun 02 2026 12:08:01 GMT-0400 (Eastern Daylight Time),248407.7000000002,020_y_f_n_a.png,I,z,1267,14,1,2291.7000000001863,246116.0,9086,VNB,B,13
14,test,1,0.0,1-Back,1.0,m,Tue Jun 02 2026 12:08:01 GMT-0400 (Eastern Daylight Time),250574.5,011_m_f_h_a.png,I,m,1143,15,1,2160.399999999441,248414.10000000056,9086,VNB,B,14
14,test,1,0.0,1-Back,0.0,m,Tue Jun 02 2026 12:08:01 GMT-0400 (Eastern Daylight Time),252407.7000000002,007_m_m_d_a.png,I,z,801,16,1,1824.7000000001863,250583.0,9086,VNB,B,15
14,test,1,0.0,1-Back,0.0,m,Tue Jun 02 2026 12:08:01 GMT-0400 (Eastern Daylight Time),255441.30000000075,016_y_m_n_a.png,I,None,2016,17,1,3026.7000000001863,252414.60000000056,9086,VNB,B,16
15,test,1,0.0,1-Back,1.0,m,Tue Jun 02 2026 12:08:01 GMT-0400 (Eastern Daylight Time),257641.0,005_o_f_h_a.png,I,m,1175,18,1,2193.399999999441,255447.60000000056,9086,VNB,B,17
0,test,2,0.0,1-Back,,,Tue Jun 02 2026 12:08:01 GMT-0400 (Eastern Daylight Time),257641.0,016_y_m_n_a.png,I,space,1599,1,1,2193.399999999441,255447.60000000056,9086,VNB,B,0
1,test,2,0.0,1-Back,1.0,m,Tue Jun 02 2026 12:08:01 GMT-0400 (Eastern Daylight Time),263041.5,020_y_f_h_a.png,I,m,766,2,1,1775.8999999994412,261265.60000000056,9086,VNB,B,1
2,test,2,1.0,1-Back,1.0,m,Tue Jun 02 2026 12:08:01 GMT-0400 (Eastern Daylight Time),264874.60000000056,004_o_m_n_a.png,I,m,806,3,1,1828.2000000001863,263046.4000000004,9086,VNB,B,2
3,test,2,0.0,1-Back,1.0,m,Tue Jun 02 2026 12:08:01 GMT-0400 (Eastern Daylight Time),267174.4000000004,011_m_f_d_a.png,I,m,1276,4,1,2291.5,264882.9000000004,9086,VNB,B,3
4,test,2,0.0,1-Back,1.0,z,Tue Jun 02 2026 12:08:01 GMT-0400 (Eastern Daylight Time),269325.0,007_m_m_d_a.png,I,z,1128,5,1,2144.0999999996275,267180.9000000004,9086,VNB,B,4
5,test,2,0.0,1-Back,1.0,m,Tue Jun 02 2026 12:08:01 GMT-0400 (Eastern Daylight Time),271157.80000000075,016_y_m_h_a.png,I,m,811,6,1,1826.300000000745,269331.5,9086,VNB,B,5
6,test,2,1.0,1-Back,1.0,z,Tue Jun 02 2026 12:08:01 GMT-0400 (Eastern Daylight Time),273191.2000000002,005_o_f_h_a.png,I,z,1010,7,1,2026.8999999994412,271164.30000000075,9086,VNB,B,6
7,test,2,0.0,1-Back,1.0,m,Tue Jun 02 2026 12:08:01 GMT-0400 (Eastern Daylight Time),275174.60000000056,011_m_f_n_a.png,I,m,960,8,1,1974.7999999998137,273199.80000000075,9086,VNB,B,7
7,test,2,0.0,1-Back,0.0,m,Tue Jun 02 2026 12:08:01 GMT-0400 (Eastern Daylight Time),278007.80000000075,020_y_f_d_a.png,I,z,1809,9,1,2827.0,275180.80000000075,9086,VNB,B,8
8,test,2,0.0,1-Back,1.0,m,Tue Jun 02 2026 12:08:01 GMT-0400 (Eastern Daylight Time),280474.2000000002,007_m_m_n_a.png,I,m,1448,10,1,2460.2999999998137,278013.9000000004,9086,VNB,B,9
9,test,2,1.0,1-Back,1.0,m,Tue Jun 02 2026 12:08:01 GMT-0400 (Eastern Daylight Time),282474.2000000002,011_m_f_h_a.png,I,m,981,11,1,1992.8999999994412,280481.30000000075,9086,VNB,B,10
10,test,2,0.0,1-Back,1.0,z,Tue Jun 02 2026 12:08:01 GMT-0400 (Eastern Daylight Time),284840.60000000056,004_o_m_h_a.png,I,z,1333,12,1,2359.4000000003725,282481.2000000002,9086,VNB,B,11
11,test,2,0.0,1-Back,1.0,m,Tue Jun 02 2026 12:08:01 GMT-0400 (Eastern Daylight Time),287024.4000000004,016_y_m_d_a.png,I,m,1165,13,1,2180.5,284843.9000000004,9086,VNB,B,12
12,test,2,0.0,1-Back,1.0,m,Tue Jun 02 2026 12:08:01 GMT-0400 (Eastern Daylight Time),289441.2000000002,005_o_f_n_a.png,I,m,1383,14,1,2412.399999999441,287028.80000000075,9086,VNB,B,13
12,test,2,0.0,1-Back,0.0,z,Tue Jun 02 2026 12:08:01 GMT-0400 (Eastern Daylight Time),292324.5,020_y_f_n_a.png,I,m,1854,15,1,2876.199999999255,289448.30000000075,9086,VNB,B,14
13,test,2,1.0,1-Back,1.0,m,Tue Jun 02 2026 12:08:01 GMT-0400 (Eastern Daylight Time),294407.9000000004,007_m_m_h_a.png,I,m,1050,16,1,2076.4000000003725,292331.5,9086,VNB,B,15
14,test,2,0.0,1-Back,1.0,m,Tue Jun 02 2026 12:08:01 GMT-0400 (Eastern Daylight Time),297207.80000000075,005_o_f_d_a.png,I,m,1768,17,1,2793.300000000745,294414.5,9086,VNB,B,16
15,test,2,1.0,1-Back,1.0,z,Tue Jun 02 2026 12:08:01 GMT-0400 (Eastern Daylight Time),299459.4000000004,004_o_m_d_a.png,I,z,1231,18,1,2244.7999999998137,297214.60000000056,9086,VNB,B,17
0,test,3,1.0,1-Back,,,Tue Jun 02 2026 12:08:01 GMT-0400 (Eastern Daylight Time),299459.4000000004,005_o_f_h_a.png,I,space,1597,1,1,2244.7999999998137,297214.60000000056,9086,VNB,B,0
1,test,3,0.0,1-Back,1.0,m,Tue Jun 02 2026 12:08:01 GMT-0400 (Eastern Daylight Time),305241.10000000056,011_m_f_d_a.png,I,m,1016,2,1,2026.7999999998137,303214.30000000075,9086,VNB,B,1
2,test,3,1.0,1-Back,1.0,m,Tue Jun 02 2026 12:08:01 GMT-0400 (Eastern Daylight Time),307357.9000000004,007_m_m_n_a.png,I,m,1086,3,1,2110.0999999996275,305247.80000000075,9086,VNB,B,2
3,test,3,0.0,1-Back,1.0,z,Tue Jun 02 2026 12:08:01 GMT-0400 (Eastern Daylight Time),309257.80000000075,005_o_f_n_a.png,I,z,873,4,1,1891.0,307366.80000000075,9086,VNB,B,3
4,test,3,1.0,1-Back,1.0,m,Tue Jun 02 2026 12:08:01 GMT-0400 (Eastern Daylight Time),311957.80000000075,004_o_m_d_a.png,I,m,1678,5,1,2691.4000000003725,309266.4000000004,9086,VNB,B,4
5,test,3,0.0,1-Back,1.0,m,Tue Jun 02 2026 12:08:01 GMT-0400 (Eastern Daylight Time),313941.10000000056,020_y_f_h_a.png,I,m,961,6,1,1976.6000000005588,311964.5,9086,VNB,B,5
6,test,3,0.0,1-Back,1.0,z,Tue Jun 02 2026 12:08:01 GMT-0400 (Eastern Daylight Time),315857.60000000056,016_y_m_h_a.png,I,z,898,7,1,1910.6000000005588,313947.0,9086,VNB,B,6
7,test,3,0.0,1-Back,1.0,m,Tue Jun 02 2026 12:08:01 GMT-0400 (Eastern Daylight Time),317974.4000000004,011_m_f_n_a.png,I,m,1094,8,1,2109.7999999998137,315864.60000000056,9086,VNB,B,7
8,test,3,0.0,1-Back,1.0,m,Tue Jun 02 2026 12:08:01 GMT-0400 (Eastern Daylight Time),320157.9000000004,020_y_f_d_a.png,I,m,1152,9,1,2175.0,317982.9000000004,9086,VNB,B,8
9,test,3,1.0,1-Back,1.0,m,Tue Jun 02 2026 12:08:01 GMT-0400 (Eastern Daylight Time),322141.10000000056,004_o_m_n_a.png,I,m,953,10,1,1974.7000000001863,320166.4000000004,9086,VNB,B,9
10,test,3,0.0,1-Back,1.0,m,Tue Jun 02 2026 12:08:01 GMT-0400 (Eastern Daylight Time),323957.80000000075,007_m_m_h_a.png,I,m,794,11,1,1808.2000000001863,322149.60000000056,9086,VNB,B,10
11,test,3,0.0,1-Back,1.0,z,Tue Jun 02 2026 12:08:01 GMT-0400 (Eastern Daylight Time),325674.30000000075,011_m_f_h_a.png,I,z,697,12,1,1709.0,323965.30000000075,9086,VNB,B,11
12,test,3,1.0,1-Back,1.0,m,Tue Jun 02 2026 12:08:01 GMT-0400 (Eastern Daylight Time),327624.5,005_o_f_d_a.png,I,m,924,13,1,1942.0,325682.5,9086,VNB,B,12
13,test,3,0.0,1-Back,1.0,z,Tue Jun 02 2026 12:08:01 GMT-0400 (Eastern Daylight Time),329674.2000000002,007_m_m_d_a.png,I,z,1022,14,1,2043.0,327631.2000000002,9086,VNB,B,13
14,test,3,0.0,1-Back,1.0,m,Tue Jun 02 2026 12:08:01 GMT-0400 (Eastern Daylight Time),331757.80000000075,016_y_m_n_a.png,I,m,1059,15,1,2079.600000000559,329678.2000000002,9086,VNB,B,14
15,test,3,1.0,1-Back,1.0,m,Tue Jun 02 2026 12:08:01 GMT-0400 (Eastern Daylight Time),333857.60000000056,004_o_m_h_a.png,I,m,1081,16,1,2091.600000000559,331766.0,9086,VNB,B,15
16,test,3,0.0,1-Back,1.0,m,Tue Jun 02 2026 12:08:01 GMT-0400 (Eastern Daylight Time),335774.60000000056,016_y_m_d_a.png,I,m,893,17,1,1911.5,333863.10000000056,9086,VNB,B,16
17,test,3,1.0,1-Back,1.0,m,Tue Jun 02 2026 12:08:01 GMT-0400 (Eastern Daylight Time),337641.10000000056,020_y_f_n_a.png,I,m,849,18,1,1859.7999999998137,335781.30000000075,9086,VNB,B,17
0,test,4,1.0,1-Back,,,Tue Jun 02 2026 12:08:01 GMT-0400 (Eastern Daylight Time),337641.10000000056,007_m_m_d_a.png,I,space,1510,1,1,1859.7999999998137,335781.30000000075,9086,VNB,B,0
1,test,4,0.0,1-Back,1.0,z,Tue Jun 02 2026 12:08:01 GMT-0400 (Eastern Daylight Time),343274.30000000075,004_o_m_d_a.png,I,z,1081,2,1,2091.600000000559,341182.7000000002,9086,VNB,B,1
2,test,4,0.0,1-Back,1.0,m,Tue Jun 02 2026 12:08:01 GMT-0400 (Eastern Daylight Time),345107.80000000075,016_y_m_h_a.png,I,m,812,3,1,1828.5,343279.30000000075,9086,VNB,B,2
3,test,4,0.0,1-Back,1.0,m,Tue Jun 02 2026 12:08:01 GMT-0400 (Eastern Daylight Time),346941.0,011_m_f_n_a.png,I,m,811,4,1,1824.699999999255,345116.30000000075,9086,VNB,B,3
4,test,4,1.0,1-Back,1.0,m,Tue Jun 02 2026 12:08:01 GMT-0400 (Eastern Daylight Time),348757.9000000004,005_o_f_h_a.png,I,m,794,5,1,1809.7999999998137,346948.10000000056,9086,VNB,B,4
5,test,4,0.0,1-Back,1.0,m,Tue Jun 02 2026 12:08:01 GMT-0400 (Eastern Daylight Time),350991.10000000056,007_m_m_n_a.png,I,m,1209,6,1,2227.4000000003725,348763.7000000002,9086,VNB,B,5
6,test,4,0.0,1-Back,1.0,m,Tue Jun 02 2026 12:08:01 GMT-0400 (Eastern Daylight Time),352857.60000000056,016_y_m_d_a.png,I,m,848,7,1,1859.7000000001863,350997.9000000004,9086,VNB,B,6
7,test,4,1.0,1-Back,1.0,z,Tue Jun 02 2026 12:08:01 GMT-0400 (Eastern Daylight Time),354757.9000000004,020_y_f_d_a.png,I,z,878,8,1,1892.2000000001863,352865.7000000002,9086,VNB,B,7
8,test,4,0.0,1-Back,1.0,m,Tue Jun 02 2026 12:08:01 GMT-0400 (Eastern Daylight Time),356624.60000000056,011_m_f_h_a.png,I,m,841,9,1,1860.1000000005588,354764.5,9086,VNB,B,8
9,test,4,0.0,1-Back,1.0,z,Tue Jun 02 2026 12:08:01 GMT-0400 (Eastern Daylight Time),358624.5,004_o_m_h_a.png,I,z,974,10,1,1993.5,356631.0,9086,VNB,B,9
10,test,4,1.0,1-Back,1.0,m,Tue Jun 02 2026 12:08:01 GMT-0400 (Eastern Daylight Time),360524.5,005_o_f_n_a.png,I,m,878,11,1,1893.0,358631.5,9086,VNB,B,10
11,test,4,0.0,1-Back,1.0,m,Tue Jun 02 2026 12:08:01 GMT-0400 (Eastern Daylight Time),363141.10000000056,011_m_f_d_a.png,I,m,1586,12,1,2608.600000000559,360532.5,9086,VNB,B,11
12,test,4,0.0,1-Back,1.0,m,Tue Jun 02 2026 12:08:01 GMT-0400 (Eastern Daylight Time),366041.30000000075,020_y_f_n_a.png,I,m,1875,13,1,2894.100000000559,363147.2000000002,9086,VNB,B,12
13,test,4,0.0,1-Back,1.0,m,Tue Jun 02 2026 12:08:01 GMT-0400 (Eastern Daylight Time),368141.0,005_o_f_d_a.png,I,m,1070,14,1,2094.0999999996275,366046.9000000004,9086,VNB,B,13
14,test,4,0.0,1-Back,1.0,m,Tue Jun 02 2026 12:08:01 GMT-0400 (Eastern Daylight Time),370174.5,020_y_f_h_a.png,I,m,1002,15,1,2026.7999999998137,368147.7000000002,9086,VNB,B,14
15,test,4,1.0,1-Back,1.0,z,Tue Jun 02 2026 12:08:01 GMT-0400 (Eastern Daylight Time),372024.4000000004,007_m_m_h_a.png,I,z,824,16,1,1844.2000000001863,370180.2000000002,9086,VNB,B,15
16,test,4,0.0,1-Back,1.0,m,Tue Jun 02 2026 12:08:01 GMT-0400 (Eastern Daylight Time),373941.30000000075,004_o_m_n_a.png,I,m,886,17,1,1910.0,372031.30000000075,9086,VNB,B,16
17,test,4,1.0,1-Back,1.0,z,Tue Jun 02 2026 12:08:01 GMT-0400 (Eastern Daylight Time),375941.10000000056,016_y_m_n_a.png,I,z,970,18,1,1992.7999999998137,373948.30000000075,9086,VNB,B,17
0,test,5,1.0,1-Back,,,Tue Jun 02 2026 12:08:01 GMT-0400 (Eastern Daylight Time),375941.10000000056,004_o_m_n_a.png,I,space,1155,1,1,1992.7999999998137,373948.30000000075,9086,VNB,B,0
1,test,5,1.0,1-Back,1.0,m,Tue Jun 02 2026 12:08:01 GMT-0400 (Eastern Daylight Time),380841.10000000056,005_o_f_h_a.png,I,m,690,2,1,1711.1000000005588,379130.0,9086,VNB,B,1
2,test,5,0.0,1-Back,1.0,m,Tue Jun 02 2026 12:08:01 GMT-0400 (Eastern Daylight Time),382624.4000000004,016_y_m_d_a.png,I,m,749,3,1,1774.4000000003725,380850.0,9086,VNB,B,2
3,test,5,0.0,1-Back,1.0,z,Tue Jun 02 2026 12:08:01 GMT-0400 (Eastern Daylight Time),384374.5,004_o_m_d_a.png,I,z,726,4,1,1741.699999999255,382632.80000000075,9086,VNB,B,3
4,test,5,0.0,1-Back,1.0,m,Tue Jun 02 2026 12:08:01 GMT-0400 (Eastern Daylight Time),386257.7000000002,011_m_f_h_a.png,I,m,864,5,1,1876.7000000001863,384381.0,9086,VNB,B,4
5,test,5,0.0,1-Back,1.0,m,Tue Jun 02 2026 12:08:01 GMT-0400 (Eastern Daylight Time),387974.5,020_y_f_n_a.png,I,m,686,6,1,1710.0999999996275,386264.4000000004,9086,VNB,B,5
6,test,5,1.0,1-Back,1.0,z,Tue Jun 02 2026 12:08:01 GMT-0400 (Eastern Daylight Time),389657.60000000056,005_o_f_n_a.png,I,z,664,7,1,1676.7999999998137,387980.80000000075,9086,VNB,B,6
7,test,5,0.0,1-Back,1.0,m,Tue Jun 02 2026 12:08:01 GMT-0400 (Eastern Daylight Time),391807.7000000002,011_m_f_d_a.png,I,m,1125,8,1,2142.5999999996275,389665.10000000056,9086,VNB,B,7
8,test,5,0.0,1-Back,1.0,m,Tue Jun 02 2026 12:08:01 GMT-0400 (Eastern Daylight Time),393807.7000000002,016_y_m_h_a.png,I,m,975,9,1,1993.7000000001863,391814.0,9086,VNB,B,8
9,test,5,0.0,1-Back,1.0,m,Tue Jun 02 2026 12:08:01 GMT-0400 (Eastern Daylight Time),395740.9000000004,020_y_f_d_a.png,I,m,903,10,1,1926.5,393814.4000000004,9086,VNB,B,9
10,test,5,0.0,1-Back,1.0,m,Tue Jun 02 2026 12:08:01 GMT-0400 (Eastern Daylight Time),398291.2000000002,007_m_m_n_a.png,I,m,1523,11,1,2544.2000000001863,395747.0,9086,VNB,B,10
11,test,5,1.0,1-Back,1.0,z,Tue Jun 02 2026 12:08:01 GMT-0400 (Eastern Daylight Time),401191.30000000075,011_m_f_n_a.png,I,z,1868,12,1,2894.5,398296.80000000075,9086,VNB,B,11
12,test,5,0.0,1-Back,1.0,m,Tue Jun 02 2026 12:08:01 GMT-0400 (Eastern Daylight Time),403157.80000000075,004_o_m_h_a.png,I,m,935,13,1,1959.5,401198.30000000075,9086,VNB,B,12
13,test,5,0.0,1-Back,1.0,z,Tue Jun 02 2026 12:08:01 GMT-0400 (Eastern Daylight Time),405857.80000000075,007_m_m_h_a.png,I,z,1673,14,1,2694.300000000745,403163.5,9086,VNB,B,13
14,test,5,1.0,1-Back,1.0,m,Tue Jun 02 2026 12:08:01 GMT-0400 (Eastern Daylight Time),407657.80000000075,005_o_f_d_a.png,I,m,773,15,1,1793.5,405864.30000000075,9086,VNB,B,14
15,test,5,0.0,1-Back,1.0,m,Tue Jun 02 2026 12:08:01 GMT-0400 (Eastern Daylight Time),410207.80000000075,016_y_m_n_a.png,I,m,1517,16,1,2544.2000000001863,407663.60000000056,9086,VNB,B,15
16,test,5,0.0,1-Back,1.0,m,Tue Jun 02 2026 12:08:01 GMT-0400 (Eastern Daylight Time),412091.30000000075,020_y_f_h_a.png,I,m,855,17,1,1876.300000000745,410215.0,9086,VNB,B,16
17,test,5,0.0,1-Back,1.0,m,Tue Jun 02 2026 12:08:01 GMT-0400 (Eastern Daylight Time),414374.5,007_m_m_d_a.png,I,m,1259,18,1,2277.0,412097.5,9086,VNB,B,17
0,prac,1,0.0,2-Back,,,Tue Jun 02 2026 12:08:01 GMT-0400 (Eastern Daylight Time),414374.5,011_m_f_n_a.png,I,space,14606,1,1,2277.0,412097.5,9086,VNB,B,0
0,prac,1,0.0,2-Back,,,Tue Jun 02 2026 12:08:01 GMT-0400 (Eastern Daylight Time),414374.5,005_o_f_h_a.png,I,space,14606,2,1,2277.0,412097.5,9086,VNB,B,0
1,prac,1,0.0,2-Back,1.0,m,Tue Jun 02 2026 12:08:01 GMT-0400 (Eastern Daylight Time),524291.3000000007,004_o_m_d_a.png,I,m,1605,3,1,2491.4000000003725,521799.9000000004,9086,VNB,B,1
2,prac,1,1.0,2-Back,1.0,z,Tue Jun 02 2026 12:08:01 GMT-0400 (Eastern Daylight Time),526674.6000000006,007_m_m_h_a.png,I,z,1456,4,1,2375.7000000001863,524298.9000000004,9086,VNB,B,2
3,prac,1,0.0,2-Back,1.0,m,Tue Jun 02 2026 12:08:01 GMT-0400 (Eastern Daylight Time),529407.9000000004,020_y_f_n_a.png,I,m,1833,5,1,2724.7000000001863,526683.2000000002,9086,VNB,B,3
4,prac,1,1.0,2-Back,1.0,z,Tue Jun 02 2026 12:08:01 GMT-0400 (Eastern Daylight Time),532208.0,004_o_m_h_a.png,I,z,1903,6,1,2787.0999999996275,529420.9000000004,9086,VNB,B,4
5,prac,1,1.0,2-Back,1.0,z,Tue Jun 02 2026 12:08:01 GMT-0400 (Eastern Daylight Time),534641.3000000007,016_y_m_n_a.png,I,z,1508,7,1,2424.600000000559,532216.7000000002,9086,VNB,B,5
6,prac,1,0.0,2-Back,1.0,m,Tue Jun 02 2026 12:08:01 GMT-0400 (Eastern Daylight Time),537491.3000000007,011_m_f_d_a.png,I,m,1939,8,1,2841.5,534649.8000000007,9086,VNB,B,6
6,prac,1,0.0,2-Back,0.0,m,Tue Jun 02 2026 12:08:01 GMT-0400 (Eastern Daylight Time),540407.9000000004,005_o_f_d_a.png,I,None,2011,9,1,2909.4000000003725,537498.5,9086,VNB,B,7
7,prac,1,0.0,2-Back,1.0,m,Tue Jun 02 2026 12:08:01 GMT-0400 (Eastern Daylight Time),541308.0,007_m_m_h_a.png,I,m,120,10,1,891.8999999994412,540416.1000000006,9086,VNB,B,8
7,prac,1,1.0,2-Back,0.0,z,Tue Jun 02 2026 12:08:01 GMT-0400 (Eastern Daylight Time),543874.5,020_y_f_d_a.png,I,m,1661,11,1,2559.199999999255,541315.3000000007,9086,VNB,B,9
8,prac,1,0.0,2-Back,1.0,m,Tue Jun 02 2026 12:08:01 GMT-0400 (Eastern Daylight Time),546424.6000000006,004_o_m_n_a.png,I,m,1647,12,1,2538.4000000003725,543886.2000000002,9086,VNB,B,10
0,test,1,0.0,2-Back,,,Tue Jun 02 2026 12:08:01 GMT-0400 (Eastern Daylight Time),546424.6000000006,016_y_m_h_a.png,I,space,15463,1,1,2538.4000000003725,543886.2000000002,9086,VNB,B,0
0,test,1,0.0,2-Back,,,Tue Jun 02 2026 12:08:01 GMT-0400 (Eastern Daylight Time),546424.6000000006,005_o_f_n_a.png,I,space,15463,2,1,2538.4000000003725,543886.2000000002,9086,VNB,B,0
0,test,1,0.0,2-Back,0.0,z,Tue Jun 02 2026 12:08:01 GMT-0400 (Eastern Daylight Time),575241.1000000006,004_o_m_h_a.png,I,m,782,3,1,1793.7999999998137,573447.3000000007,9086,VNB,B,1
0,test,1,0.0,2-Back,0.0,m,Tue Jun 02 2026 12:08:01 GMT-0400 (Eastern Daylight Time),578274.6000000006,011_m_f_d_a.png,I,None,2016,4,1,3025.4000000003725,575249.2000000002,9086,VNB,B,2
0,test,1,1.0,2-Back,0.0,m,Tue Jun 02 2026 12:08:01 GMT-0400 (Eastern Daylight Time),580774.5,016_y_m_n_a.png,I,z,1468,5,1,2493.5999999996275,578280.9000000004,9086,VNB,B,3
0,test,1,0.0,2-Back,0.0,z,Tue Jun 02 2026 12:08:01 GMT-0400 (Eastern Daylight Time),583807.9000000004,020_y_f_d_a.png,I,None,2016,6,1,3025.7999999998137,580782.1000000006,9086,VNB,B,4
1,test,1,0.0,2-Back,1.0,m,Tue Jun 02 2026 12:08:01 GMT-0400 (Eastern Daylight Time),585941.1000000006,007_m_m_h_a.png,I,m,1103,7,1,2124.9000000003725,583816.2000000002,9086,VNB,B,5
1,test,1,1.0,2-Back,0.0,m,Tue Jun 02 2026 12:08:01 GMT-0400 (Eastern Daylight Time),588191.7000000002,020_y_f_n_a.png,I,z,1217,8,1,2244.0,585947.7000000002,9086,VNB,B,6
1,test,1,0.0,2-Back,0.0,z,Tue Jun 02 2026 12:08:01 GMT-0400 (Eastern Daylight Time),590791.2000000002,005_o_f_h_a.png,I,m,1567,9,1,2596.2999999998137,588194.9000000004,9086,VNB,B,7
1,test,1,0.0,2-Back,0.0,m,Tue Jun 02 2026 12:08:01 GMT-0400 (Eastern Daylight Time),593824.5,004_o_m_d_a.png,I,None,2016,10,1,3026.699999999255,590797.8000000007,9086,VNB,B,8
1,test,1,1.0,2-Back,0.0,m,Tue Jun 02 2026 12:08:01 GMT-0400 (Eastern Daylight Time),596557.8000000007,007_m_m_d_a.png,I,z,1710,11,1,2727.4000000003725,593830.4000000004,9086,VNB,B,9
1,test,1,0.0,2-Back,0.0,m,Tue Jun 02 2026 12:08:01 GMT-0400 (Eastern Daylight Time),599641.4000000004,011_m_f_n_a.png,I,None,2066,12,1,3077.2000000001863,596564.2000000002,9086,VNB,B,10
2,test,1,0.0,2-Back,1.0,m,Tue Jun 02 2026 12:08:01 GMT-0400 (Eastern Daylight Time),602091.1000000006,020_y_f_h_a.png,I,m,1430,13,1,2444.4000000003725,599646.7000000002,9086,VNB,B,11
3,test,1,0.0,2-Back,1.0,z,Tue Jun 02 2026 12:08:01 GMT-0400 (Eastern Daylight Time),604674.3000000007,007_m_m_n_a.png,I,z,1564,14,1,2576.300000000745,602098.0,9086,VNB,B,12
3,test,1,0.0,2-Back,0.0,m,Tue Jun 02 2026 12:08:01 GMT-0400 (Eastern Daylight Time),607341.2000000002,016_y_m_d_a.png,I,z,1644,15,1,2660.5,604680.7000000002,9086,VNB,B,13
3,test,1,1.0,2-Back,0.0,m,Tue Jun 02 2026 12:08:01 GMT-0400 (Eastern Daylight Time),610341.3000000007,011_m_f_h_a.png,I,z,1970,16,1,2992.100000000559,607349.2000000002,9086,VNB,B,14
4,test,1,0.0,2-Back,1.0,z,Tue Jun 02 2026 12:08:01 GMT-0400 (Eastern Daylight Time),613057.9000000004,005_o_f_d_a.png,I,z,1690,17,1,2708.5999999996275,610349.3000000007,9086,VNB,B,15
5,test,1,0.0,2-Back,1.0,m,Tue Jun 02 2026 12:08:01 GMT-0400 (Eastern Daylight Time),615707.8000000007,004_o_m_n_a.png,I,m,1629,18,1,2643.0,613064.8000000007,9086,VNB,B,16
0,test,2,0.0,2-Back,,,Tue Jun 02 2026 12:08:01 GMT-0400 (Eastern Daylight Time),615707.8000000007,007_m_m_h_a.png,I,space,2427,1,1,2643.0,613064.8000000007,9086,VNB,B,0
0,test,2,0.0,2-Back,,,Tue Jun 02 2026 12:08:01 GMT-0400 (Eastern Daylight Time),615707.8000000007,020_y_f_n_a.png,I,space,2427,2,1,2643.0,613064.8000000007,9086,VNB,B,0
0,test,2,1.0,2-Back,0.0,z,Tue Jun 02 2026 12:08:01 GMT-0400 (Eastern Daylight Time),625157.7000000002,005_o_f_h_a.png,I,m,685,3,1,1707.3999999994412,623450.3000000007,9086,VNB,B,1
0,test,2,0.0,2-Back,0.0,m,Tue Jun 02 2026 12:08:01 GMT-0400 (Eastern Daylight Time),628191.2000000002,004_o_m_d_a.png,I,None,2016,4,1,3030.2999999998137,625160.9000000004,9086,VNB,B,2
0,test,2,0.0,2-Back,0.0,m,Tue Jun 02 2026 12:08:01 GMT-0400 (Eastern Daylight Time),630724.2000000002,011_m_f_d_a.png,I,z,1504,5,1,2523.5999999996275,628200.6000000006,9086,VNB,B,3
1,test,2,0.0,2-Back,1.0,m,Tue Jun 02 2026 12:08:01 GMT-0400 (Eastern Daylight Time),633307.7000000002,016_y_m_h_a.png,I,m,1563,6,1,2580.399999999441,630727.3000000007,9086,VNB,B,4
1,test,2,0.0,2-Back,0.0,m,Tue Jun 02 2026 12:08:01 GMT-0400 (Eastern Daylight Time),636341.2000000002,005_o_f_n_a.png,I,None,2016,7,1,3025.7000000001863,633315.5,9086,VNB,B,5
2,test,2,1.0,2-Back,1.0,z,Tue Jun 02 2026 12:08:01 GMT-0400 (Eastern Daylight Time),638691.1000000006,004_o_m_h_a.png,I,z,1330,8,1,2343.2999999998137,636347.8000000007,9086,VNB,B,6
2,test,2,0.0,2-Back,0.0,m,Tue Jun 02 2026 12:08:01 GMT-0400 (Eastern Daylight Time),641541.2000000002,020_y_f_d_a.png,I,z,1820,9,1,2841.899999999441,638699.3000000007,9086,VNB,B,7
3,test,2,0.0,2-Back,1.0,m,Tue Jun 02 2026 12:08:01 GMT-0400 (Eastern Daylight Time),643841.0,016_y_m_d_a.png,I,m,1282,10,1,2292.7999999998137,641548.2000000002,9086,VNB,B,8
4,test,2,0.0,2-Back,1.0,m,Tue Jun 02 2026 12:08:01 GMT-0400 (Eastern Daylight Time),646074.5,007_m_m_n_a.png,I,m,1206,11,1,2227.7999999998137,643846.7000000002,9086,VNB,B,9
4,test,2,0.0,2-Back,0.0,m,Tue Jun 02 2026 12:08:01 GMT-0400 (Eastern Daylight Time),649108.0,011_m_f_h_a.png,I,None,2016,12,1,3028.699999999255,646079.3000000007,9086,VNB,B,10
4,test,2,1.0,2-Back,0.0,z,Tue Jun 02 2026 12:08:01 GMT-0400 (Eastern Daylight Time),652057.7000000002,004_o_m_n_a.png,I,m,1931,13,1,2943.5,649114.2000000002,9086,VNB,B,11
4,test,2,0.0,2-Back,0.0,m,Tue Jun 02 2026 12:08:01 GMT-0400 (Eastern Daylight Time),654791.3000000007,005_o_f_d_a.png,I,z,1700,14,1,2727.300000000745,652064.0,9086,VNB,B,12
4,test,2,0.0,2-Back,0.0,m,Tue Jun 02 2026 12:08:01 GMT-0400 (Eastern Daylight Time),657424.6000000006,020_y_f_h_a.png,I,z,1600,15,1,2626.2000000001863,654798.4000000004,9086,VNB,B,13
5,test,2,0.0,2-Back,1.0,z,Tue Jun 02 2026 12:08:01 GMT-0400 (Eastern Daylight Time),660358.0,007_m_m_d_a.png,I,z,1902,16,1,2927.5,657430.5,9086,VNB,B,14
5,test,2,0.0,2-Back,0.0,m,Tue Jun 02 2026 12:08:01 GMT-0400 (Eastern Daylight Time),662891.3000000007,016_y_m_n_a.png,I,z,1504,17,1,2527.0,660364.3000000007,9086,VNB,B,15
6,test,2,1.0,2-Back,1.0,m,Tue Jun 02 2026 12:08:01 GMT-0400 (Eastern Daylight Time),665541.1000000006,011_m_f_n_a.png,I,m,1620,18,1,2642.7000000001863,662898.4000000004,9086,VNB,B,16
0,test,3,1.0,2-Back,,,Tue Jun 02 2026 12:08:01 GMT-0400 (Eastern Daylight Time),665541.1000000006,004_o_m_n_a.png,I,space,2362,1,1,2642.7000000001863,662898.4000000004,9086,VNB,B,0
0,test,3,1.0,2-Back,,,Tue Jun 02 2026 12:08:01 GMT-0400 (Eastern Daylight Time),665541.1000000006,005_o_f_d_a.png,I,space,2362,2,1,2642.7000000001863,662898.4000000004,9086,VNB,B,0
1,test,3,0.0,2-Back,1.0,m,Tue Jun 02 2026 12:08:01 GMT-0400 (Eastern Daylight Time),674974.5,020_y_f_h_a.png,I,m,985,3,1,2011.5999999996275,672962.9000000004,9086,VNB,B,1
2,test,3,0.0,2-Back,1.0,z,Tue Jun 02 2026 12:08:01 GMT-0400 (Eastern Daylight Time),677440.9000000004,011_m_f_d_a.png,I,z,1448,4,1,2459.7000000001863,674981.2000000002,9086,VNB,B,2
3,test,3,1.0,2-Back,1.0,m,Tue Jun 02 2026 12:08:01 GMT-0400 (Eastern Daylight Time),680107.8000000007,016_y_m_n_a.png,I,m,1638,5,1,2661.300000000745,677446.5,9086,VNB,B,3
3,test,3,0.0,2-Back,0.0,m,Tue Jun 02 2026 12:08:01 GMT-0400 (Eastern Daylight Time),682474.5,004_o_m_h_a.png,I,z,1347,6,1,2360.199999999255,680114.3000000007,9086,VNB,B,4
4,test,3,0.0,2-Back,1.0,z,Tue Jun 02 2026 12:08:01 GMT-0400 (Eastern Daylight Time),684757.8000000007,020_y_f_n_a.png,I,z,1252,7,1,2275.0,682482.8000000007,9086,VNB,B,5
5,test,3,1.0,2-Back,1.0,m,Tue Jun 02 2026 12:08:01 GMT-0400 (Eastern Daylight Time),687707.9000000004,007_m_m_d_a.png,I,m,1930,8,1,2943.7000000001863,684764.2000000002,9086,VNB,B,6
6,test,3,0.0,2-Back,1.0,m,Tue Jun 02 2026 12:08:01 GMT-0400 (Eastern Daylight Time),690441.3000000007,016_y_m_d_a.png,I,m,1706,9,1,2727.800000000745,687713.5,9086,VNB,B,7
7,test,3,0.0,2-Back,1.0,m,Tue Jun 02 2026 12:08:01 GMT-0400 (Eastern Daylight Time),693224.4000000004,005_o_f_h_a.png,I,m,1758,10,1,2774.5,690449.9000000004,9086,VNB,B,8
8,test,3,1.0,2-Back,1.0,m,Tue Jun 02 2026 12:08:01 GMT-0400 (Eastern Daylight Time),695957.8000000007,011_m_f_n_a.png,I,m,1710,11,1,2727.4000000003725,693230.4000000004,9086,VNB,B,9
9,test,3,1.0,2-Back,1.0,z,Tue Jun 02 2026 12:08:01 GMT-0400 (Eastern Daylight Time),698391.1000000006,007_m_m_h_a.png,I,z,1409,12,1,2427.5,695963.6000000006,9086,VNB,B,10
10,test,3,0.0,2-Back,1.0,m,Tue Jun 02 2026 12:08:01 GMT-0400 (Eastern Daylight Time),700974.5,020_y_f_d_a.png,I,m,1560,13,1,2577.7999999998137,698396.7000000002,9086,VNB,B,11
10,test,3,0.0,2-Back,0.0,m,Tue Jun 02 2026 12:08:01 GMT-0400 (Eastern Daylight Time),704007.9000000004,005_o_f_n_a.png,I,None,2017,14,1,3027.0,700980.9000000004,9086,VNB,B,12
10,test,3,0.0,2-Back,0.0,z,Tue Jun 02 2026 12:08:01 GMT-0400 (Eastern Daylight Time),706857.6000000006,004_o_m_d_a.png,I,m,1791,15,1,2841.7000000001863,704015.9000000004,9086,VNB,B,13
10,test,3,1.0,2-Back,0.0,m,Tue Jun 02 2026 12:08:01 GMT-0400 (Eastern Daylight Time),709224.4000000004,011_m_f_h_a.png,I,z,1341,16,1,2358.7999999998137,706865.6000000006,9086,VNB,B,14
11,test,3,0.0,2-Back,1.0,m,Tue Jun 02 2026 12:08:01 GMT-0400 (Eastern Daylight Time),711507.8000000007,007_m_m_n_a.png,I,m,1262,17,1,2275.100000000559,709232.7000000002,9086,VNB,B,15
12,test,3,0.0,2-Back,1.0,z,Tue Jun 02 2026 12:08:01 GMT-0400 (Eastern Daylight Time),713691.2000000002,016_y_m_h_a.png,I,z,1163,18,1,2176.399999999441,711514.8000000007,9086,VNB,B,16
0,test,4,0.0,2-Back,,,Tue Jun 02 2026 12:08:01 GMT-0400 (Eastern Daylight Time),713691.2000000002,011_m_f_n_a.png,I,space,1412,1,1,2176.399999999441,711514.8000000007,9086,VNB,B,0
0,test,4,0.0,2-Back,,,Tue Jun 02 2026 12:08:01 GMT-0400 (Eastern Daylight Time),713691.2000000002,004_o_m_n_a.png,I,space,1412,2,1,2176.399999999441,711514.8000000007,9086,VNB,B,0
0,test,4,1.0,2-Back,0.0,m,Tue Jun 02 2026 12:08:01 GMT-0400 (Eastern Daylight Time),723424.5,016_y_m_h_a.png,I,None,2015,3,1,3027.7999999998137,720396.7000000002,9086,VNB,B,1
1,test,4,1.0,2-Back,1.0,m,Tue Jun 02 2026 12:08:01 GMT-0400 (Eastern Daylight Time),725691.3000000007,005_o_f_d_a.png,I,m,1238,4,1,2260.4000000003725,723430.9000000004,9086,VNB,B,2
2,test,4,0.0,2-Back,1.0,z,Tue Jun 02 2026 12:08:01 GMT-0400 (Eastern Daylight Time),727824.5,004_o_m_h_a.png,I,z,1100,5,1,2126.0,725698.5,9086,VNB,B,3
3,test,4,0.0,2-Back,1.0,m,Tue Jun 02 2026 12:08:01 GMT-0400 (Eastern Daylight Time),730024.5,007_m_m_n_a.png,I,m,1174,6,1,2192.699999999255,727831.8000000007,9086,VNB,B,4
4,test,4,0.0,2-Back,1.0,m,Tue Jun 02 2026 12:08:01 GMT-0400 (Eastern Daylight Time),732857.9000000004,011_m_f_d_a.png,I,m,1805,7,1,2825.5999999996275,730032.3000000007,9086,VNB,B,5
5,test,4,0.0,2-Back,1.0,z,Tue Jun 02 2026 12:08:01 GMT-0400 (Eastern Daylight Time),735191.3000000007,020_y_f_n_a.png,I,z,1309,8,1,2327.800000000745,732863.5,9086,VNB,B,6
6,test,4,1.0,2-Back,1.0,m,Tue Jun 02 2026 12:08:01 GMT-0400 (Eastern Daylight Time),737224.7000000002,005_o_f_h_a.png,I,m,1017,9,1,2027.5999999996275,735197.1000000006,9086,VNB,B,7
6,test,4,0.0,2-Back,0.0,m,Tue Jun 02 2026 12:08:01 GMT-0400 (Eastern Daylight Time),739841.3000000007,007_m_m_h_a.png,I,z,1590,10,1,2609.0,737232.3000000007,9086,VNB,B,8
7,test,4,0.0,2-Back,1.0,m,Tue Jun 02 2026 12:08:01 GMT-0400 (Eastern Daylight Time),742507.9000000004,020_y_f_d_a.png,I,m,1638,11,1,2659.9000000003725,739848.0,9086,VNB,B,9
7,test,4,0.0,2-Back,0.0,m,Tue Jun 02 2026 12:08:01 GMT-0400 (Eastern Daylight Time),745107.9000000004,016_y_m_n_a.png,I,z,1578,12,1,2594.0999999996275,742513.8000000007,9086,VNB,B,10
8,test,4,0.0,2-Back,1.0,z,Tue Jun 02 2026 12:08:01 GMT-0400 (Eastern Daylight Time),747574.4000000004,004_o_m_d_a.png,I,z,1435,13,1,2458.5999999996275,745115.8000000007,9086,VNB,B,11
8,test,4,1.0,2-Back,0.0,m,Tue Jun 02 2026 12:08:01 GMT-0400 (Eastern Daylight Time),750607.8000000007,011_m_f_h_a.png,I,None,2016,14,1,3026.800000000745,747581.0,9086,VNB,B,12
8,test,4,1.0,2-Back,0.0,m,Tue Jun 02 2026 12:08:01 GMT-0400 (Eastern Daylight Time),753157.8000000007,020_y_f_h_a.png,I,z,1519,15,1,2543.9000000003725,750613.9000000004,9086,VNB,B,13
9,test,4,0.0,2-Back,1.0,m,Tue Jun 02 2026 12:08:01 GMT-0400 (Eastern Daylight Time),755724.5,005_o_f_n_a.png,I,m,1537,16,1,2560.0,753164.5,9086,VNB,B,14
10,test,4,0.0,2-Back,1.0,m,Tue Jun 02 2026 12:08:01 GMT-0400 (Eastern Daylight Time),757941.3000000007,016_y_m_d_a.png,I,m,1194,17,1,2210.600000000559,755730.7000000002,9086,VNB,B,15
11,test,4,1.0,2-Back,1.0,m,Tue Jun 02 2026 12:08:01 GMT-0400 (Eastern Daylight Time),760457.7000000002,007_m_m_d_a.png,I,m,1497,18,1,2507.5999999996275,757950.1000000006,9086,VNB,B,16
0,test,5,1.0,2-Back,,,Tue Jun 02 2026 12:08:01 GMT-0400 (Eastern Daylight Time),760457.7000000002,020_y_f_d_a.png,I,space,1517,1,1,2507.5999999996275,757950.1000000006,9086,VNB,B,0
0,test,5,1.0,2-Back,,,Tue Jun 02 2026 12:08:01 GMT-0400 (Eastern Daylight Time),760457.7000000002,005_o_f_h_a.png,I,space,1517,2,1,2507.5999999996275,757950.1000000006,9086,VNB,B,0
1,test,5,1.0,2-Back,1.0,z,Tue Jun 02 2026 12:08:01 GMT-0400 (Eastern Daylight Time),769624.7000000002,004_o_m_d_a.png,I,z,1283,3,1,2311.5,767313.2000000002,9086,VNB,B,1
2,test,5,1.0,2-Back,1.0,m,Tue Jun 02 2026 12:08:01 GMT-0400 (Eastern Daylight Time),771707.9000000004,011_m_f_n_a.png,I,m,1054,4,1,2076.7999999998137,769631.1000000006,9086,VNB,B,2
3,test,5,0.0,2-Back,1.0,m,Tue Jun 02 2026 12:08:01 GMT-0400 (Eastern Daylight Time),774107.8000000007,007_m_m_h_a.png,I,m,1371,5,1,2393.4000000003725,771714.4000000004,9086,VNB,B,3
4,test,5,0.0,2-Back,1.0,z,Tue Jun 02 2026 12:08:01 GMT-0400 (Eastern Daylight Time),776124.9000000004,020_y_f_n_a.png,I,z,995,6,1,2010.2000000001863,774114.7000000002,9086,VNB,B,4
4,test,5,0.0,2-Back,0.0,m,Tue Jun 02 2026 12:08:01 GMT-0400 (Eastern Daylight Time),778707.6000000006,005_o_f_d_a.png,I,z,1553,7,1,2574.7999999998137,776132.8000000007,9086,VNB,B,5
4,test,5,0.0,2-Back,0.0,m,Tue Jun 02 2026 12:08:01 GMT-0400 (Eastern Daylight Time),780874.3000000007,004_o_m_h_a.png,I,z,1147,8,1,2161.100000000559,778713.2000000002,9086,VNB,B,6
5,test,5,1.0,2-Back,1.0,z,Tue Jun 02 2026 12:08:01 GMT-0400 (Eastern Daylight Time),783241.0,011_m_f_d_a.png,I,z,1348,9,1,2359.2999999998137,780881.7000000002,9086,VNB,B,7
6,test,5,0.0,2-Back,1.0,m,Tue Jun 02 2026 12:08:01 GMT-0400 (Eastern Daylight Time),786208.0,016_y_m_n_a.png,I,m,1934,10,1,2961.0,783247.0,9086,VNB,B,8
7,test,5,0.0,2-Back,1.0,m,Tue Jun 02 2026 12:08:01 GMT-0400 (Eastern Daylight Time),788974.4000000004,007_m_m_n_a.png,I,m,1743,11,1,2758.7999999998137,786215.6000000006,9086,VNB,B,9
8,test,5,0.0,2-Back,1.0,m,Tue Jun 02 2026 12:08:01 GMT-0400 (Eastern Daylight Time),791824.9000000004,020_y_f_h_a.png,I,m,1832,12,1,2844.0,788980.9000000004,9086,VNB,B,10
9,test,5,0.0,2-Back,1.0,m,Tue Jun 02 2026 12:08:01 GMT-0400 (Eastern Daylight Time),794090.7000000002,016_y_m_d_a.png,I,m,1246,13,1,2259.5999999996275,791831.1000000006,9086,VNB,B,11
10,test,5,1.0,2-Back,1.0,z,Tue Jun 02 2026 12:08:01 GMT-0400 (Eastern Daylight Time),796057.6000000006,011_m_f_h_a.png,I,z,948,14,1,1963.7000000001863,794093.9000000004,9086,VNB,B,12
11,test,5,0.0,2-Back,1.0,m,Tue Jun 02 2026 12:08:01 GMT-0400 (Eastern Daylight Time),798941.2000000002,004_o_m_n_a.png,I,m,1861,15,1,2876.5999999996275,796064.6000000006,9086,VNB,B,13
11,test,5,0.0,2-Back,0.0,m,Tue Jun 02 2026 12:08:01 GMT-0400 (Eastern Daylight Time),801258.0,007_m_m_d_a.png,I,z,1289,16,1,2308.199999999255,798949.8000000007,9086,VNB,B,14
12,test,5,0.0,2-Back,1.0,z,Tue Jun 02 2026 12:08:01 GMT-0400 (Eastern Daylight Time),803291.3000000007,005_o_f_n_a.png,I,z,1005,17,1,2026.4000000003725,801264.9000000004,9086,VNB,B,15
13,test,5,1.0,2-Back,1.0,m,Tue Jun 02 2026 12:08:01 GMT-0400 (Eastern Daylight Time),805507.9000000004,016_y_m_h_a.png,I,m,1196,18,1,2210.0,803297.9000000004,9086,VNB,B,16
