acc_sum,block,block_c,change,condition,correct,correct_response,datetime,endtime,face,project,response,response_time,row_sel,session_number,start_end,starttime,subject_id,task,task_vers,trial
0,prac,1,,1-Back,,,Wed May 13 2026 11:40:24 GMT-0400 (Eastern Daylight Time),,050_m_f_n_a.png,I,space,15297,1,1,,,9081,NNB,A,0
1,prac,1,0.0,1-Back,1.0,m,Wed May 13 2026 11:40:24 GMT-0400 (Eastern Daylight Time),116895.70000000019,063_y_f_n_a.png,I,m,1848,2,1,2736.5,114159.20000000019,9081,NNB,A,1
2,prac,1,1.0,1-Back,1.0,z,Wed May 13 2026 11:40:24 GMT-0400 (Eastern Daylight Time),118845.3999999999,063_y_f_n_a.png,I,z,1157,3,1,1940.5,116904.8999999999,9081,NNB,A,2
3,prac,1,0.0,1-Back,1.0,m,Wed May 13 2026 11:40:24 GMT-0400 (Eastern Daylight Time),120712.29999999981,053_o_m_n_a.png,I,m,971,4,1,1857.3999999999069,118854.8999999999,9081,NNB,A,3
4,prac,1,0.0,1-Back,1.0,m,Wed May 13 2026 11:40:24 GMT-0400 (Eastern Daylight Time),122278.79999999981,058_m_m_n_a.png,I,m,724,5,1,1553.6999999997206,120725.1000000001,9081,NNB,A,4
5,prac,1,1.0,1-Back,1.0,z,Wed May 13 2026 11:40:24 GMT-0400 (Eastern Daylight Time),123945.5,058_m_m_n_a.png,I,z,875,6,1,1656.0,122289.5,9081,NNB,A,5
6,prac,1,0.0,1-Back,1.0,m,Wed May 13 2026 11:40:24 GMT-0400 (Eastern Daylight Time),125811.8999999999,047_o_f_n_a.png,I,m,1083,7,1,1857.3999999999069,123954.5,9081,NNB,A,6
7,prac,1,0.0,1-Back,1.0,m,Wed May 13 2026 11:40:24 GMT-0400 (Eastern Daylight Time),127212.20000000019,045_m_m_n_a.png,I,m,576,8,1,1392.1000000000931,125820.1000000001,9081,NNB,A,7
8,prac,1,0.0,1-Back,1.0,m,Wed May 13 2026 11:40:24 GMT-0400 (Eastern Daylight Time),128612.20000000019,050_m_f_n_a.png,I,m,615,9,1,1389.7000000001863,127222.5,9081,NNB,A,8
9,prac,1,1.0,1-Back,1.0,z,Wed May 13 2026 11:40:24 GMT-0400 (Eastern Daylight Time),130362.20000000019,050_m_f_n_a.png,I,z,967,10,1,1739.7000000001863,128622.5,9081,NNB,A,9
10,prac,1,0.0,1-Back,1.0,m,Wed May 13 2026 11:40:24 GMT-0400 (Eastern Daylight Time),132262.2000000002,053_o_m_n_a.png,I,m,1114,11,1,1890.8000000002794,130371.3999999999,9081,NNB,A,10
11,prac,1,0.0,1-Back,1.0,m,Wed May 13 2026 11:40:24 GMT-0400 (Eastern Daylight Time),133795.3999999999,010_y_f_n_a.png,I,m,550,12,1,1501.0,132294.3999999999,9081,NNB,A,11
0,test,1,0.0,1-Back,,,Wed May 13 2026 11:40:24 GMT-0400 (Eastern Daylight Time),133795.3999999999,063_y_f_n_a.png,I,space,13697,1,1,1501.0,132294.3999999999,9081,NNB,A,0
1,test,1,0.0,1-Back,1.0,m,Wed May 13 2026 11:40:24 GMT-0400 (Eastern Daylight Time),158879.2000000002,043_m_f_n_a.png,I,m,1715,2,1,2725.600000000093,156153.6000000001,9081,NNB,A,1
2,test,1,0.0,1-Back,1.0,m,Wed May 13 2026 11:40:24 GMT-0400 (Eastern Daylight Time),160578.6000000001,010_y_f_n_a.png,I,m,678,3,1,1693.6000000000931,158885.0,9081,NNB,A,2
3,test,1,1.0,1-Back,1.0,z,Wed May 13 2026 11:40:24 GMT-0400 (Eastern Daylight Time),162128.7000000002,010_y_f_n_a.png,I,z,530,4,1,1544.0,160584.7000000002,9081,NNB,A,3
4,test,1,0.0,1-Back,1.0,m,Wed May 13 2026 11:40:24 GMT-0400 (Eastern Daylight Time),163928.7000000002,043_m_f_n_a.png,I,m,772,5,1,1794.1000000000931,162134.6000000001,9081,NNB,A,4
5,test,1,0.0,1-Back,1.0,m,Wed May 13 2026 11:40:24 GMT-0400 (Eastern Daylight Time),165478.7999999998,053_o_m_n_a.png,I,m,516,6,1,1544.3999999999069,163934.3999999999,9081,NNB,A,5
6,test,1,1.0,1-Back,1.0,z,Wed May 13 2026 11:40:24 GMT-0400 (Eastern Daylight Time),167012.1000000001,053_o_m_n_a.png,I,z,510,7,1,1525.3000000002794,165486.7999999998,9081,NNB,A,6
7,test,1,0.0,1-Back,1.0,m,Wed May 13 2026 11:40:24 GMT-0400 (Eastern Daylight Time),169145.5,058_m_m_n_a.png,I,m,1113,8,1,2125.2000000001863,167020.2999999998,9081,NNB,A,7
8,test,1,0.0,1-Back,1.0,m,Wed May 13 2026 11:40:24 GMT-0400 (Eastern Daylight Time),170795.3999999999,047_o_f_n_a.png,I,m,627,9,1,1641.3999999999069,169154.0,9081,NNB,A,8
9,test,1,0.0,1-Back,1.0,m,Wed May 13 2026 11:40:24 GMT-0400 (Eastern Daylight Time),172812.0,058_m_m_n_a.png,I,m,993,10,1,2009.1000000000931,170802.8999999999,9081,NNB,A,9
10,test,1,0.0,1-Back,1.0,m,Wed May 13 2026 11:40:24 GMT-0400 (Eastern Daylight Time),174678.7999999998,041_y_m_n_a.png,I,m,833,11,1,1860.0,172818.7999999998,9081,NNB,A,10
11,test,1,1.0,1-Back,1.0,z,Wed May 13 2026 11:40:24 GMT-0400 (Eastern Daylight Time),176278.7999999998,041_y_m_n_a.png,I,z,574,12,1,1592.0,174686.7999999998,9081,NNB,A,11
12,test,1,0.0,1-Back,1.0,m,Wed May 13 2026 11:40:24 GMT-0400 (Eastern Daylight Time),178178.7000000002,044_o_f_n_a.png,I,m,878,13,1,1891.6000000000931,176287.1000000001,9081,NNB,A,12
13,test,1,1.0,1-Back,1.0,z,Wed May 13 2026 11:40:24 GMT-0400 (Eastern Daylight Time),179712.2000000002,044_o_f_n_a.png,I,z,514,14,1,1525.6000000000931,178186.6000000001,9081,NNB,A,13
14,test,1,0.0,1-Back,1.0,m,Wed May 13 2026 11:40:24 GMT-0400 (Eastern Daylight Time),181812.1000000001,008_y_m_n_a.png,I,m,1069,15,1,2093.5,179718.6000000001,9081,NNB,A,14
15,test,1,0.0,1-Back,1.0,m,Wed May 13 2026 11:40:24 GMT-0400 (Eastern Daylight Time),183428.5,050_m_f_n_a.png,I,m,593,16,1,1610.5,181818.0,9081,NNB,A,15
16,test,1,0.0,1-Back,1.0,m,Wed May 13 2026 11:40:24 GMT-0400 (Eastern Daylight Time),185028.7000000002,046_o_m_n_a.png,I,m,576,17,1,1595.8000000002794,183432.8999999999,9081,NNB,A,16
17,test,1,0.0,1-Back,1.0,m,Wed May 13 2026 11:40:24 GMT-0400 (Eastern Daylight Time),187028.7000000002,050_m_f_n_a.png,I,m,968,18,1,1991.1000000000931,185037.6000000001,9081,NNB,A,17
0,test,2,0.0,1-Back,,,Wed May 13 2026 11:40:24 GMT-0400 (Eastern Daylight Time),187028.7000000002,058_m_m_n_a.png,I,space,4128,1,1,1991.1000000000931,185037.6000000001,9081,NNB,A,0
1,test,2,0.0,1-Back,1.0,m,Wed May 13 2026 11:40:24 GMT-0400 (Eastern Daylight Time),195645.5,043_m_f_n_a.png,I,m,1434,2,1,2459.5,193186.0,9081,NNB,A,1
2,test,2,1.0,1-Back,1.0,z,Wed May 13 2026 11:40:24 GMT-0400 (Eastern Daylight Time),197112.0,043_m_f_n_a.png,I,z,447,3,1,1458.2999999998137,195653.7000000002,9081,NNB,A,2
3,test,2,0.0,1-Back,1.0,m,Wed May 13 2026 11:40:24 GMT-0400 (Eastern Daylight Time),198878.7999999998,058_m_m_n_a.png,I,m,734,4,1,1761.7999999998137,197117.0,9081,NNB,A,3
4,test,2,0.0,1-Back,1.0,m,Wed May 13 2026 11:40:24 GMT-0400 (Eastern Daylight Time),200612.1000000001,041_y_m_n_a.png,I,m,710,5,1,1724.7000000001863,198887.3999999999,9081,NNB,A,4
5,test,2,0.0,1-Back,1.0,m,Wed May 13 2026 11:40:24 GMT-0400 (Eastern Daylight Time),202612.2000000002,063_y_f_n_a.png,I,m,969,6,1,1993.1000000000931,200619.1000000001,9081,NNB,A,5
6,test,2,1.0,1-Back,1.0,z,Wed May 13 2026 11:40:24 GMT-0400 (Eastern Daylight Time),204112.1000000001,063_y_f_n_a.png,I,z,473,7,1,1493.1000000000931,202619.0,9081,NNB,A,6
7,test,2,0.0,1-Back,1.0,m,Wed May 13 2026 11:40:24 GMT-0400 (Eastern Daylight Time),205545.5,041_y_m_n_a.png,I,m,405,8,1,1424.8999999999069,204120.6000000001,9081,NNB,A,7
8,test,2,0.0,1-Back,1.0,m,Wed May 13 2026 11:40:24 GMT-0400 (Eastern Daylight Time),206978.7999999998,044_o_f_n_a.png,I,m,403,9,1,1426.1999999997206,205552.6000000001,9081,NNB,A,8
9,test,2,0.0,1-Back,1.0,m,Wed May 13 2026 11:40:24 GMT-0400 (Eastern Daylight Time),208512.1000000001,045_m_m_n_a.png,I,m,514,10,1,1524.8999999999069,206987.2000000002,9081,NNB,A,9
10,test,2,1.0,1-Back,1.0,z,Wed May 13 2026 11:40:24 GMT-0400 (Eastern Daylight Time),210195.6000000001,045_m_m_n_a.png,I,z,653,11,1,1678.3999999999069,208517.2000000002,9081,NNB,A,10
11,test,2,0.0,1-Back,1.0,m,Wed May 13 2026 11:40:24 GMT-0400 (Eastern Daylight Time),212078.7999999998,044_o_f_n_a.png,I,m,857,12,1,1877.0,210201.7999999998,9081,NNB,A,11
12,test,2,0.0,1-Back,1.0,m,Wed May 13 2026 11:40:24 GMT-0400 (Eastern Daylight Time),213545.5,047_o_f_n_a.png,I,m,446,13,1,1460.2000000001863,212085.2999999998,9081,NNB,A,12
13,test,2,0.0,1-Back,1.0,m,Wed May 13 2026 11:40:24 GMT-0400 (Eastern Daylight Time),215128.8999999999,053_o_m_n_a.png,I,m,555,14,1,1575.2999999998137,213553.6000000001,9081,NNB,A,13
14,test,2,0.0,1-Back,1.0,m,Wed May 13 2026 11:40:24 GMT-0400 (Eastern Daylight Time),216612.2999999998,046_o_m_n_a.png,I,m,460,15,1,1477.0,215135.2999999998,9081,NNB,A,14
15,test,2,1.0,1-Back,1.0,z,Wed May 13 2026 11:40:24 GMT-0400 (Eastern Daylight Time),218378.7999999998,046_o_m_n_a.png,I,z,736,16,1,1758.5999999996275,216620.2000000002,9081,NNB,A,15
16,test,2,0.0,1-Back,1.0,m,Wed May 13 2026 11:40:24 GMT-0400 (Eastern Daylight Time),220295.5,008_y_m_n_a.png,I,m,890,17,1,1910.5,218385.0,9081,NNB,A,16
17,test,2,1.0,1-Back,1.0,z,Wed May 13 2026 11:40:24 GMT-0400 (Eastern Daylight Time),221778.7999999998,008_y_m_n_a.png,I,z,461,18,1,1476.5999999996275,220302.2000000002,9081,NNB,A,17
0,test,3,1.0,1-Back,,,Wed May 13 2026 11:40:24 GMT-0400 (Eastern Daylight Time),221778.7999999998,010_y_f_n_a.png,I,space,1362,1,1,1476.5999999996275,220302.2000000002,9081,NNB,A,0
1,test,3,0.0,1-Back,1.0,m,Wed May 13 2026 11:40:24 GMT-0400 (Eastern Daylight Time),227195.3999999999,046_o_m_n_a.png,I,m,927,2,1,1943.5,225251.8999999999,9081,NNB,A,1
2,test,3,1.0,1-Back,1.0,z,Wed May 13 2026 11:40:24 GMT-0400 (Eastern Daylight Time),228812.2999999998,046_o_m_n_a.png,I,z,593,3,1,1613.7999999998137,227198.5,9081,NNB,A,2
3,test,3,0.0,1-Back,1.0,m,Wed May 13 2026 11:40:24 GMT-0400 (Eastern Daylight Time),230462.2000000002,050_m_f_n_a.png,I,m,625,4,1,1643.7000000001863,228818.5,9081,NNB,A,3
4,test,3,1.0,1-Back,1.0,z,Wed May 13 2026 11:40:24 GMT-0400 (Eastern Daylight Time),231962.2999999998,050_m_f_n_a.png,I,z,479,5,1,1494.1999999997206,230468.1000000001,9081,NNB,A,4
5,test,3,0.0,1-Back,1.0,m,Wed May 13 2026 11:40:24 GMT-0400 (Eastern Daylight Time),233728.7000000002,044_o_f_n_a.png,I,m,746,6,1,1759.6000000000931,231969.1000000001,9081,NNB,A,5
6,test,3,0.0,1-Back,1.0,m,Wed May 13 2026 11:40:24 GMT-0400 (Eastern Daylight Time),235562.2999999998,041_y_m_n_a.png,I,m,804,7,1,1825.5,233736.7999999998,9081,NNB,A,6
7,test,3,0.0,1-Back,1.0,m,Wed May 13 2026 11:40:24 GMT-0400 (Eastern Daylight Time),237062.2000000002,044_o_f_n_a.png,I,m,474,8,1,1492.3000000002794,235569.8999999999,9081,NNB,A,7
8,test,3,0.0,1-Back,1.0,m,Wed May 13 2026 11:40:24 GMT-0400 (Eastern Daylight Time),238595.6000000001,008_y_m_n_a.png,I,m,511,9,1,1526.3999999999069,237069.2000000002,9081,NNB,A,8
9,test,3,1.0,1-Back,1.0,z,Wed May 13 2026 11:40:24 GMT-0400 (Eastern Daylight Time),240028.8999999999,008_y_m_n_a.png,I,z,401,10,1,1428.2999999998137,238600.6000000001,9081,NNB,A,9
10,test,3,0.0,1-Back,1.0,m,Wed May 13 2026 11:40:24 GMT-0400 (Eastern Daylight Time),241578.8999999999,043_m_f_n_a.png,I,m,520,11,1,1543.6999999997206,240035.2000000002,9081,NNB,A,10
11,test,3,0.0,1-Back,1.0,m,Wed May 13 2026 11:40:24 GMT-0400 (Eastern Daylight Time),243012.2999999998,063_y_f_n_a.png,I,m,402,12,1,1426.5,241585.7999999998,9081,NNB,A,11
12,test,3,1.0,1-Back,1.0,z,Wed May 13 2026 11:40:24 GMT-0400 (Eastern Daylight Time),244595.6000000001,063_y_f_n_a.png,I,z,552,13,1,1575.5,243020.1000000001,9081,NNB,A,12
13,test,3,0.0,1-Back,1.0,m,Wed May 13 2026 11:40:24 GMT-0400 (Eastern Daylight Time),246312.2999999998,043_m_f_n_a.png,I,m,688,14,1,1710.5999999996275,244601.7000000002,9081,NNB,A,13
14,test,3,0.0,1-Back,1.0,m,Wed May 13 2026 11:40:24 GMT-0400 (Eastern Daylight Time),247728.7999999998,058_m_m_n_a.png,I,m,389,15,1,1409.0,246319.7999999998,9081,NNB,A,14
15,test,3,1.0,1-Back,1.0,z,Wed May 13 2026 11:40:24 GMT-0400 (Eastern Daylight Time),249462.2000000002,058_m_m_n_a.png,I,z,708,16,1,1727.7000000001863,247734.5,9081,NNB,A,15
16,test,3,0.0,1-Back,1.0,m,Wed May 13 2026 11:40:24 GMT-0400 (Eastern Daylight Time),251062.3999999999,047_o_f_n_a.png,I,m,575,17,1,1592.0,249470.3999999999,9081,NNB,A,16
17,test,3,1.0,1-Back,1.0,z,Wed May 13 2026 11:40:24 GMT-0400 (Eastern Daylight Time),252629.1000000001,047_o_f_n_a.png,I,z,542,18,1,1562.1000000000931,251067.0,9081,NNB,A,17
0,test,4,1.0,1-Back,,,Wed May 13 2026 11:40:24 GMT-0400 (Eastern Daylight Time),252629.1000000001,050_m_f_n_a.png,I,space,1304,1,1,1562.1000000000931,251067.0,9081,NNB,A,0
1,test,4,0.0,1-Back,1.0,m,Wed May 13 2026 11:40:24 GMT-0400 (Eastern Daylight Time),258178.8999999999,046_o_m_n_a.png,I,m,1186,2,1,2209.899999999907,255969.0,9081,NNB,A,1
2,test,4,0.0,1-Back,1.0,m,Wed May 13 2026 11:40:24 GMT-0400 (Eastern Daylight Time),259862.2000000002,050_m_f_n_a.png,I,m,658,3,1,1677.5,258184.7000000002,9081,NNB,A,2
3,test,4,0.0,1-Back,1.0,m,Wed May 13 2026 11:40:24 GMT-0400 (Eastern Daylight Time),261479.2000000002,044_o_f_n_a.png,I,m,599,4,1,1611.4000000003725,259867.7999999998,9081,NNB,A,3
4,test,4,1.0,1-Back,1.0,z,Wed May 13 2026 11:40:24 GMT-0400 (Eastern Daylight Time),263062.3999999999,044_o_f_n_a.png,I,z,559,5,1,1576.1999999997206,261486.2000000002,9081,NNB,A,4
5,test,4,0.0,1-Back,1.0,m,Wed May 13 2026 11:40:24 GMT-0400 (Eastern Daylight Time),264828.8999999999,063_y_f_n_a.png,I,m,734,6,1,1759.7999999998137,263069.1000000001,9081,NNB,A,5
6,test,4,0.0,1-Back,1.0,m,Wed May 13 2026 11:40:24 GMT-0400 (Eastern Daylight Time),266362.3999999999,041_y_m_n_a.png,I,m,512,7,1,1527.1000000000931,264835.2999999998,9081,NNB,A,6
7,test,4,1.0,1-Back,1.0,z,Wed May 13 2026 11:40:24 GMT-0400 (Eastern Daylight Time),267928.8999999999,041_y_m_n_a.png,I,z,538,8,1,1559.6999999997206,266369.2000000002,9081,NNB,A,7
8,test,4,0.0,1-Back,1.0,m,Wed May 13 2026 11:40:24 GMT-0400 (Eastern Daylight Time),269695.6000000001,063_y_f_n_a.png,I,m,740,9,1,1760.3000000002794,267935.2999999998,9081,NNB,A,8
9,test,4,0.0,1-Back,1.0,m,Wed May 13 2026 11:40:24 GMT-0400 (Eastern Daylight Time),271345.6000000001,045_m_m_n_a.png,I,m,621,10,1,1644.0,269701.6000000001,9081,NNB,A,9
10,test,4,1.0,1-Back,1.0,z,Wed May 13 2026 11:40:24 GMT-0400 (Eastern Daylight Time),272879.0,045_m_m_n_a.png,I,z,515,11,1,1525.2999999998137,271353.7000000002,9081,NNB,A,10
11,test,4,0.0,1-Back,1.0,m,Wed May 13 2026 11:40:24 GMT-0400 (Eastern Daylight Time),274429.7000000002,047_o_f_n_a.png,I,m,533,12,1,1544.8000000002794,272884.8999999999,9081,NNB,A,11
12,test,4,0.0,1-Back,1.0,m,Wed May 13 2026 11:40:24 GMT-0400 (Eastern Daylight Time),275945.6000000001,053_o_m_n_a.png,I,m,496,13,1,1512.1000000000931,274433.5,9081,NNB,A,12
13,test,4,0.0,1-Back,1.0,m,Wed May 13 2026 11:40:24 GMT-0400 (Eastern Daylight Time),277962.2999999998,047_o_f_n_a.png,I,m,987,14,1,2010.0,275952.2999999998,9081,NNB,A,13
14,test,4,0.0,1-Back,1.0,m,Wed May 13 2026 11:40:24 GMT-0400 (Eastern Daylight Time),279545.6000000001,010_y_f_n_a.png,I,m,563,15,1,1576.5,277969.1000000001,9081,NNB,A,14
15,test,4,1.0,1-Back,1.0,z,Wed May 13 2026 11:40:24 GMT-0400 (Eastern Daylight Time),281112.1000000001,010_y_f_n_a.png,I,z,547,16,1,1558.3999999999069,279553.7000000002,9081,NNB,A,15
16,test,4,0.0,1-Back,1.0,m,Wed May 13 2026 11:40:24 GMT-0400 (Eastern Daylight Time),282628.8999999999,043_m_f_n_a.png,I,m,492,17,1,1509.7999999998137,281119.1000000001,9081,NNB,A,16
17,test,4,1.0,1-Back,1.0,z,Wed May 13 2026 11:40:24 GMT-0400 (Eastern Daylight Time),284095.5,043_m_f_n_a.png,I,z,448,18,1,1460.0,282635.5,9081,NNB,A,17
0,test,5,1.0,1-Back,,,Wed May 13 2026 11:40:24 GMT-0400 (Eastern Daylight Time),284095.5,053_o_m_n_a.png,I,space,1206,1,1,1460.0,282635.5,9081,NNB,A,0
1,test,5,1.0,1-Back,1.0,z,Wed May 13 2026 11:40:24 GMT-0400 (Eastern Daylight Time),288895.7000000002,053_o_m_n_a.png,I,z,540,2,1,1560.1000000000931,287335.6000000001,9081,NNB,A,1
2,test,5,0.0,1-Back,1.0,m,Wed May 13 2026 11:40:24 GMT-0400 (Eastern Daylight Time),290429.0,063_y_f_n_a.png,I,m,509,3,1,1527.6000000000931,288901.3999999999,9081,NNB,A,2
3,test,5,0.0,1-Back,1.0,m,Wed May 13 2026 11:40:24 GMT-0400 (Eastern Daylight Time),291862.7999999998,041_y_m_n_a.png,I,m,416,4,1,1425.3999999999069,290437.3999999999,9081,NNB,A,3
4,test,5,0.0,1-Back,1.0,m,Wed May 13 2026 11:40:24 GMT-0400 (Eastern Daylight Time),293278.8999999999,063_y_f_n_a.png,I,m,398,5,1,1410.6000000000931,291868.2999999998,9081,NNB,A,4
5,test,5,0.0,1-Back,1.0,m,Wed May 13 2026 11:40:24 GMT-0400 (Eastern Daylight Time),294795.7000000002,058_m_m_n_a.png,I,m,486,6,1,1510.5,293285.2000000002,9081,NNB,A,5
6,test,5,1.0,1-Back,1.0,z,Wed May 13 2026 11:40:24 GMT-0400 (Eastern Daylight Time),296379.0,058_m_m_n_a.png,I,z,554,7,1,1576.6000000000931,294802.3999999999,9081,NNB,A,6
7,test,5,0.0,1-Back,1.0,m,Wed May 13 2026 11:40:24 GMT-0400 (Eastern Daylight Time),298128.8999999999,010_y_f_n_a.png,I,m,729,8,1,1742.5,296386.3999999999,9081,NNB,A,7
8,test,5,0.0,1-Back,1.0,m,Wed May 13 2026 11:40:24 GMT-0400 (Eastern Daylight Time),299745.7000000002,008_y_m_n_a.png,I,m,596,9,1,1610.5,298135.2000000002,9081,NNB,A,8
9,test,5,0.0,1-Back,1.0,m,Wed May 13 2026 11:40:24 GMT-0400 (Eastern Daylight Time),301178.8999999999,010_y_f_n_a.png,I,m,403,10,1,1427.3999999999069,299751.5,9081,NNB,A,9
10,test,5,0.0,1-Back,1.0,m,Wed May 13 2026 11:40:24 GMT-0400 (Eastern Daylight Time),302695.7000000002,047_o_f_n_a.png,I,m,490,11,1,1510.1000000000931,301185.6000000001,9081,NNB,A,10
11,test,5,1.0,1-Back,1.0,z,Wed May 13 2026 11:40:24 GMT-0400 (Eastern Daylight Time),304195.6000000001,047_o_f_n_a.png,I,z,469,12,1,1491.3000000002794,302704.2999999998,9081,NNB,A,11
12,test,5,0.0,1-Back,1.0,m,Wed May 13 2026 11:40:24 GMT-0400 (Eastern Daylight Time),305762.3999999999,046_o_m_n_a.png,I,m,545,13,1,1560.5,304201.8999999999,9081,NNB,A,12
13,test,5,0.0,1-Back,1.0,m,Wed May 13 2026 11:40:24 GMT-0400 (Eastern Daylight Time),307229.1000000001,050_m_f_n_a.png,I,m,435,14,1,1460.1000000000931,305769.0,9081,NNB,A,13
14,test,5,1.0,1-Back,1.0,z,Wed May 13 2026 11:40:24 GMT-0400 (Eastern Daylight Time),308778.8999999999,050_m_f_n_a.png,I,z,528,15,1,1543.1999999997206,307235.7000000002,9081,NNB,A,14
15,test,5,0.0,1-Back,1.0,m,Wed May 13 2026 11:40:24 GMT-0400 (Eastern Daylight Time),310212.5,046_o_m_n_a.png,I,m,410,16,1,1427.2999999998137,308785.2000000002,9081,NNB,A,15
16,test,5,0.0,1-Back,1.0,m,Wed May 13 2026 11:40:24 GMT-0400 (Eastern Daylight Time),311795.7000000002,043_m_f_n_a.png,I,m,561,17,1,1575.4000000003725,310220.2999999998,9081,NNB,A,16
17,test,5,0.0,1-Back,1.0,m,Wed May 13 2026 11:40:24 GMT-0400 (Eastern Daylight Time),313345.7000000002,045_m_m_n_a.png,I,m,521,18,1,1542.4000000003725,311803.2999999998,9081,NNB,A,17
0,prac,1,0.0,2-Back,,,Wed May 13 2026 11:40:24 GMT-0400 (Eastern Daylight Time),313345.7000000002,008_y_m_n_a.png,I,space,23066,1,1,1542.4000000003725,311803.2999999998,9081,NNB,A,0
0,prac,1,0.0,2-Back,,,Wed May 13 2026 11:40:24 GMT-0400 (Eastern Daylight Time),313345.7000000002,043_m_f_n_a.png,I,space,23066,2,1,1542.4000000003725,311803.2999999998,9081,NNB,A,0
1,prac,1,1.0,2-Back,1.0,m,Wed May 13 2026 11:40:24 GMT-0400 (Eastern Daylight Time),434563.0,046_o_m_n_a.png,I,m,1795,3,1,2606.100000000093,431956.8999999999,9081,NNB,A,1
2,prac,1,0.0,2-Back,1.0,m,Wed May 13 2026 11:40:24 GMT-0400 (Eastern Daylight Time),436546.0,047_o_f_n_a.png,I,m,1100,4,1,1973.2000000001863,434572.7999999998,9081,NNB,A,2
3,prac,1,0.0,2-Back,1.0,z,Wed May 13 2026 11:40:24 GMT-0400 (Eastern Daylight Time),438446.2000000002,046_o_m_n_a.png,I,z,1114,5,1,1890.0,436556.2000000002,9081,NNB,A,3
4,prac,1,1.0,2-Back,1.0,z,Wed May 13 2026 11:40:24 GMT-0400 (Eastern Daylight Time),440579.5,047_o_f_n_a.png,I,z,1343,6,1,2124.399999999907,438455.1000000001,9081,NNB,A,4
5,prac,1,0.0,2-Back,1.0,m,Wed May 13 2026 11:40:24 GMT-0400 (Eastern Daylight Time),442829.6000000001,045_m_m_n_a.png,I,m,1429,7,1,2240.899999999907,440588.7000000002,9081,NNB,A,5
6,prac,1,0.0,2-Back,1.0,m,Wed May 13 2026 11:40:24 GMT-0400 (Eastern Daylight Time),445229.6000000001,053_o_m_n_a.png,I,m,1563,8,1,2389.600000000093,442840.0,9081,NNB,A,6
7,prac,1,0.0,2-Back,1.0,m,Wed May 13 2026 11:40:24 GMT-0400 (Eastern Daylight Time),447296.0,010_y_f_n_a.png,I,m,1205,9,1,2057.600000000093,445238.3999999999,9081,NNB,A,7
8,prac,1,1.0,2-Back,1.0,z,Wed May 13 2026 11:40:24 GMT-0400 (Eastern Daylight Time),449279.5,053_o_m_n_a.png,I,z,1206,10,1,1975.0,447304.5,9081,NNB,A,8
8,prac,1,0.0,2-Back,0.0,m,Wed May 13 2026 11:40:24 GMT-0400 (Eastern Daylight Time),452112.7000000002,063_y_f_n_a.png,I,None,2005,11,1,2823.600000000093,449289.1000000001,9081,NNB,A,9
9,prac,1,0.0,2-Back,1.0,m,Wed May 13 2026 11:40:24 GMT-0400 (Eastern Daylight Time),454529.6000000001,045_m_m_n_a.png,I,m,1636,12,1,2407.600000000093,452122.0,9081,NNB,A,10
0,test,1,0.0,2-Back,,,Wed May 13 2026 11:40:24 GMT-0400 (Eastern Daylight Time),454529.6000000001,041_y_m_n_a.png,I,space,14915,1,1,2407.600000000093,452122.0,9081,NNB,A,0
0,test,1,0.0,2-Back,,,Wed May 13 2026 11:40:24 GMT-0400 (Eastern Daylight Time),454529.6000000001,041_y_m_n_a.png,I,space,14915,2,1,2407.600000000093,452122.0,9081,NNB,A,0
1,test,1,0.0,2-Back,1.0,m,Wed May 13 2026 11:40:24 GMT-0400 (Eastern Daylight Time),488796.0,047_o_f_n_a.png,I,m,1677,3,1,2693.7999999998137,486102.2000000002,9081,NNB,A,1
2,test,1,0.0,2-Back,1.0,m,Wed May 13 2026 11:40:24 GMT-0400 (Eastern Daylight Time),490679.2999999998,058_m_m_n_a.png,I,m,866,4,1,1877.7999999998137,488801.5,9081,NNB,A,2
3,test,1,1.0,2-Back,1.0,z,Wed May 13 2026 11:40:24 GMT-0400 (Eastern Daylight Time),492962.3999999999,047_o_f_n_a.png,I,z,1253,5,1,2277.600000000093,490684.7999999998,9081,NNB,A,3
4,test,1,0.0,2-Back,1.0,m,Wed May 13 2026 11:40:24 GMT-0400 (Eastern Daylight Time),495179.3999999999,063_y_f_n_a.png,I,m,1186,6,1,2210.2999999998137,492969.1000000001,9081,NNB,A,4
5,test,1,0.0,2-Back,1.0,m,Wed May 13 2026 11:40:24 GMT-0400 (Eastern Daylight Time),497096.1000000001,058_m_m_n_a.png,I,m,897,7,1,1910.6000000000931,495185.5,9081,NNB,A,5
6,test,1,1.0,2-Back,1.0,z,Wed May 13 2026 11:40:24 GMT-0400 (Eastern Daylight Time),499179.5,063_y_f_n_a.png,I,z,1053,8,1,2077.0,497102.5,9081,NNB,A,6
7,test,1,0.0,2-Back,1.0,m,Wed May 13 2026 11:40:24 GMT-0400 (Eastern Daylight Time),501462.7999999998,008_y_m_n_a.png,I,m,1257,9,1,2276.5,499186.2999999998,9081,NNB,A,7
8,test,1,0.0,2-Back,1.0,m,Wed May 13 2026 11:40:24 GMT-0400 (Eastern Daylight Time),503312.8999999999,044_o_f_n_a.png,I,m,831,10,1,1842.6000000000931,501470.2999999998,9081,NNB,A,8
9,test,1,1.0,2-Back,1.0,z,Wed May 13 2026 11:40:24 GMT-0400 (Eastern Daylight Time),505112.6000000001,008_y_m_n_a.png,I,z,781,11,1,1791.0,503321.6000000001,9081,NNB,A,9
10,test,1,0.0,2-Back,1.0,m,Wed May 13 2026 11:40:24 GMT-0400 (Eastern Daylight Time),507429.5,043_m_f_n_a.png,I,m,1292,12,1,2309.0,505120.5,9081,NNB,A,10
11,test,1,0.0,2-Back,1.0,m,Wed May 13 2026 11:40:24 GMT-0400 (Eastern Daylight Time),509679.5,043_m_f_n_a.png,I,m,1223,13,1,2245.2000000001863,507434.2999999998,9081,NNB,A,11
12,test,1,0.0,2-Back,1.0,m,Wed May 13 2026 11:40:24 GMT-0400 (Eastern Daylight Time),511879.2999999998,046_o_m_n_a.png,I,m,1182,14,1,2191.5999999996275,509687.7000000002,9081,NNB,A,12
13,test,1,0.0,2-Back,1.0,m,Wed May 13 2026 11:40:24 GMT-0400 (Eastern Daylight Time),514029.5,044_o_f_n_a.png,I,m,1126,15,1,2143.2999999998137,511886.2000000002,9081,NNB,A,13
14,test,1,1.0,2-Back,1.0,z,Wed May 13 2026 11:40:24 GMT-0400 (Eastern Daylight Time),515979.6000000001,046_o_m_n_a.png,I,z,919,16,1,1944.0,514035.6000000001,9081,NNB,A,14
15,test,1,0.0,2-Back,1.0,m,Wed May 13 2026 11:40:24 GMT-0400 (Eastern Daylight Time),518046.2000000002,050_m_f_n_a.png,I,m,1033,17,1,2061.0,515985.2000000002,9081,NNB,A,15
16,test,1,0.0,2-Back,1.0,m,Wed May 13 2026 11:40:24 GMT-0400 (Eastern Daylight Time),519912.7999999998,045_m_m_n_a.png,I,m,848,18,1,1861.1999999997206,518051.6000000001,9081,NNB,A,16
0,test,2,0.0,2-Back,,,Wed May 13 2026 11:40:24 GMT-0400 (Eastern Daylight Time),519912.7999999998,045_m_m_n_a.png,I,space,1484,1,1,1861.1999999997206,518051.6000000001,9081,NNB,A,0
0,test,2,0.0,2-Back,,,Wed May 13 2026 11:40:24 GMT-0400 (Eastern Daylight Time),519912.7999999998,010_y_f_n_a.png,I,space,1484,2,1,1861.1999999997206,518051.6000000001,9081,NNB,A,0
1,test,2,1.0,2-Back,1.0,z,Wed May 13 2026 11:40:24 GMT-0400 (Eastern Daylight Time),528479.5,045_m_m_n_a.png,I,z,908,3,1,1926.7000000001863,526552.7999999998,9081,NNB,A,1
2,test,2,0.0,2-Back,1.0,m,Wed May 13 2026 11:40:24 GMT-0400 (Eastern Daylight Time),530396.1000000001,050_m_f_n_a.png,I,m,894,4,1,1909.8000000002794,528486.2999999998,9081,NNB,A,2
2,test,2,0.0,2-Back,0.0,m,Wed May 13 2026 11:40:24 GMT-0400 (Eastern Daylight Time),533296.2000000002,010_y_f_n_a.png,I,z,1872,5,1,2894.4000000003725,530401.7999999998,9081,NNB,A,3
3,test,2,0.0,2-Back,1.0,m,Wed May 13 2026 11:40:24 GMT-0400 (Eastern Daylight Time),535296.1000000001,046_o_m_n_a.png,I,m,982,6,1,1992.3000000002794,533303.7999999998,9081,NNB,A,4
4,test,2,0.0,2-Back,1.0,m,Wed May 13 2026 11:40:24 GMT-0400 (Eastern Daylight Time),537079.5,063_y_f_n_a.png,I,m,766,7,1,1775.5,535304.0,9081,NNB,A,5
5,test,2,1.0,2-Back,1.0,z,Wed May 13 2026 11:40:24 GMT-0400 (Eastern Daylight Time),539096.1000000001,046_o_m_n_a.png,I,z,998,8,1,2008.8999999999069,537087.2000000002,9081,NNB,A,6
6,test,2,0.0,2-Back,1.0,m,Wed May 13 2026 11:40:24 GMT-0400 (Eastern Daylight Time),540846.8999999999,008_y_m_n_a.png,I,m,717,9,1,1745.7999999998137,539101.1000000001,9081,NNB,A,7
7,test,2,0.0,2-Back,1.0,m,Wed May 13 2026 11:40:24 GMT-0400 (Eastern Daylight Time),542863.0,008_y_m_n_a.png,I,m,991,10,1,2008.6000000000931,540854.3999999999,9081,NNB,A,8
8,test,2,0.0,2-Back,1.0,m,Wed May 13 2026 11:40:24 GMT-0400 (Eastern Daylight Time),545046.2000000002,043_m_f_n_a.png,I,m,1158,11,1,2175.4000000003725,542870.7999999998,9081,NNB,A,9
9,test,2,0.0,2-Back,1.0,m,Wed May 13 2026 11:40:24 GMT-0400 (Eastern Daylight Time),546962.8999999999,010_y_f_n_a.png,I,m,887,12,1,1909.7999999998137,545053.1000000001,9081,NNB,A,10
9,test,2,1.0,2-Back,0.0,z,Wed May 13 2026 11:40:24 GMT-0400 (Eastern Daylight Time),549996.5,043_m_f_n_a.png,I,None,2016,13,1,3027.100000000093,546969.3999999999,9081,NNB,A,11
10,test,2,0.0,2-Back,1.0,m,Wed May 13 2026 11:40:24 GMT-0400 (Eastern Daylight Time),552046.2000000002,053_o_m_n_a.png,I,m,1017,14,1,2043.4000000003725,550002.7999999998,9081,NNB,A,12
11,test,2,0.0,2-Back,1.0,m,Wed May 13 2026 11:40:24 GMT-0400 (Eastern Daylight Time),553879.2000000002,053_o_m_n_a.png,I,m,815,15,1,1826.7000000001863,552052.5,9081,NNB,A,13
12,test,2,0.0,2-Back,1.0,m,Wed May 13 2026 11:40:24 GMT-0400 (Eastern Daylight Time),555662.8999999999,044_o_f_n_a.png,I,m,757,16,1,1778.1999999997206,553884.7000000002,9081,NNB,A,14
13,test,2,0.0,2-Back,1.0,m,Wed May 13 2026 11:40:24 GMT-0400 (Eastern Daylight Time),557496.3999999999,058_m_m_n_a.png,I,m,807,17,1,1827.8999999999069,555668.5,9081,NNB,A,15
13,test,2,1.0,2-Back,0.0,z,Wed May 13 2026 11:40:24 GMT-0400 (Eastern Daylight Time),560262.8999999999,044_o_f_n_a.png,I,m,1741,18,1,2761.5,557501.3999999999,9081,NNB,A,16
0,test,3,1.0,2-Back,,,Wed May 13 2026 11:40:24 GMT-0400 (Eastern Daylight Time),560262.8999999999,041_y_m_n_a.png,I,space,1190,1,1,2761.5,557501.3999999999,9081,NNB,A,0
0,test,3,1.0,2-Back,,,Wed May 13 2026 11:40:24 GMT-0400 (Eastern Daylight Time),560262.8999999999,041_y_m_n_a.png,I,space,1190,2,1,2761.5,557501.3999999999,9081,NNB,A,0
1,test,3,0.0,2-Back,1.0,m,Wed May 13 2026 11:40:24 GMT-0400 (Eastern Daylight Time),568946.2000000002,044_o_f_n_a.png,I,m,1329,3,1,2343.100000000093,566603.1000000001,9081,NNB,A,1
2,test,3,0.0,2-Back,1.0,m,Wed May 13 2026 11:40:24 GMT-0400 (Eastern Daylight Time),570629.7999999998,045_m_m_n_a.png,I,m,659,4,1,1677.1999999997206,568952.6000000001,9081,NNB,A,2
3,test,3,1.0,2-Back,1.0,z,Wed May 13 2026 11:40:24 GMT-0400 (Eastern Daylight Time),572545.8999999999,044_o_f_n_a.png,I,z,887,5,1,1909.5,570636.3999999999,9081,NNB,A,3
4,test,3,0.0,2-Back,1.0,m,Wed May 13 2026 11:40:24 GMT-0400 (Eastern Daylight Time),574396.5,008_y_m_n_a.png,I,m,818,6,1,1846.7999999998137,572549.7000000002,9081,NNB,A,4
5,test,3,0.0,2-Back,1.0,m,Wed May 13 2026 11:40:24 GMT-0400 (Eastern Daylight Time),576996.3999999999,045_m_m_n_a.png,I,m,1579,7,1,2593.0,574403.3999999999,9081,NNB,A,5
6,test,3,1.0,2-Back,1.0,z,Wed May 13 2026 11:40:24 GMT-0400 (Eastern Daylight Time),578979.7000000002,008_y_m_n_a.png,I,z,961,8,1,1976.0,577003.7000000002,9081,NNB,A,6
7,test,3,0.0,2-Back,1.0,m,Wed May 13 2026 11:40:24 GMT-0400 (Eastern Daylight Time),580729.7000000002,010_y_f_n_a.png,I,m,730,9,1,1742.6000000000931,578987.1000000001,9081,NNB,A,7
8,test,3,0.0,2-Back,1.0,m,Wed May 13 2026 11:40:24 GMT-0400 (Eastern Daylight Time),582429.7000000002,058_m_m_n_a.png,I,m,667,10,1,1693.3000000002794,580736.3999999999,9081,NNB,A,8
9,test,3,1.0,2-Back,1.0,z,Wed May 13 2026 11:40:24 GMT-0400 (Eastern Daylight Time),584062.7999999998,010_y_f_n_a.png,I,z,600,11,1,1627.0999999996275,582435.7000000002,9081,NNB,A,9
10,test,3,1.0,2-Back,1.0,z,Wed May 13 2026 11:40:24 GMT-0400 (Eastern Daylight Time),586562.5,058_m_m_n_a.png,I,z,1478,12,1,2493.899999999907,584068.6000000001,9081,NNB,A,10
11,test,3,0.0,2-Back,1.0,m,Wed May 13 2026 11:40:24 GMT-0400 (Eastern Daylight Time),588312.7999999998,044_o_f_n_a.png,I,m,730,13,1,1744.3999999999069,586568.3999999999,9081,NNB,A,11
12,test,3,0.0,2-Back,1.0,m,Wed May 13 2026 11:40:24 GMT-0400 (Eastern Daylight Time),590012.7000000002,050_m_f_n_a.png,I,m,677,14,1,1695.7000000001863,588317.0,9081,NNB,A,12
13,test,3,0.0,2-Back,1.0,m,Wed May 13 2026 11:40:24 GMT-0400 (Eastern Daylight Time),591813.1000000001,046_o_m_n_a.png,I,m,777,15,1,1793.0,590020.1000000001,9081,NNB,A,13
14,test,3,1.0,2-Back,1.0,z,Wed May 13 2026 11:40:24 GMT-0400 (Eastern Daylight Time),593713.0,050_m_f_n_a.png,I,z,873,16,1,1892.7999999998137,591820.2000000002,9081,NNB,A,14
15,test,3,0.0,2-Back,1.0,m,Wed May 13 2026 11:40:24 GMT-0400 (Eastern Daylight Time),595846.1000000001,047_o_f_n_a.png,I,m,1101,17,1,2127.0,593719.1000000001,9081,NNB,A,15
16,test,3,0.0,2-Back,1.0,m,Wed May 13 2026 11:40:24 GMT-0400 (Eastern Daylight Time),597746.2999999998,047_o_f_n_a.png,I,m,880,18,1,1897.1999999997206,595849.1000000001,9081,NNB,A,16
0,test,4,0.0,2-Back,,,Wed May 13 2026 11:40:24 GMT-0400 (Eastern Daylight Time),597746.2999999998,053_o_m_n_a.png,I,space,1419,1,1,1897.1999999997206,595849.1000000001,9081,NNB,A,0
0,test,4,0.0,2-Back,,,Wed May 13 2026 11:40:24 GMT-0400 (Eastern Daylight Time),597746.2999999998,063_y_f_n_a.png,I,space,1419,2,1,1897.1999999997206,595849.1000000001,9081,NNB,A,0
1,test,4,1.0,2-Back,1.0,z,Wed May 13 2026 11:40:24 GMT-0400 (Eastern Daylight Time),606546.5,053_o_m_n_a.png,I,z,1121,3,1,2143.2000000001863,604403.2999999998,9081,NNB,A,1
2,test,4,1.0,2-Back,1.0,z,Wed May 13 2026 11:40:24 GMT-0400 (Eastern Daylight Time),608313.0,063_y_f_n_a.png,I,z,746,4,1,1760.0,606553.0,9081,NNB,A,2
3,test,4,0.0,2-Back,1.0,m,Wed May 13 2026 11:40:24 GMT-0400 (Eastern Daylight Time),610146.2999999998,044_o_f_n_a.png,I,m,813,5,1,1825.5,608320.7999999998,9081,NNB,A,3
4,test,4,0.0,2-Back,1.0,m,Wed May 13 2026 11:40:24 GMT-0400 (Eastern Daylight Time),612013.0,044_o_f_n_a.png,I,m,834,6,1,1860.1000000000931,610152.8999999999,9081,NNB,A,4
5,test,4,0.0,2-Back,1.0,m,Wed May 13 2026 11:40:24 GMT-0400 (Eastern Daylight Time),613929.7999999998,043_m_f_n_a.png,I,m,889,7,1,1909.8999999999069,612019.8999999999,9081,NNB,A,5
6,test,4,0.0,2-Back,1.0,m,Wed May 13 2026 11:40:24 GMT-0400 (Eastern Daylight Time),615663.2999999998,008_y_m_n_a.png,I,m,716,8,1,1726.2999999998137,613937.0,9081,NNB,A,6
7,test,4,1.0,2-Back,1.0,z,Wed May 13 2026 11:40:24 GMT-0400 (Eastern Daylight Time),617263.2000000002,043_m_f_n_a.png,I,z,567,9,1,1594.3000000002794,615668.8999999999,9081,NNB,A,7
8,test,4,0.0,2-Back,1.0,m,Wed May 13 2026 11:40:24 GMT-0400 (Eastern Daylight Time),619429.7999999998,058_m_m_n_a.png,I,m,1143,10,1,2161.0,617268.7999999998,9081,NNB,A,8
9,test,4,0.0,2-Back,1.0,m,Wed May 13 2026 11:40:24 GMT-0400 (Eastern Daylight Time),621663.2000000002,008_y_m_n_a.png,I,m,1200,11,1,2225.4000000003725,619437.7999999998,9081,NNB,A,9
10,test,4,0.0,2-Back,1.0,m,Wed May 13 2026 11:40:24 GMT-0400 (Eastern Daylight Time),623663.1000000001,047_o_f_n_a.png,I,m,967,12,1,1992.8999999999069,621670.2000000002,9081,NNB,A,10
11,test,4,0.0,2-Back,1.0,m,Wed May 13 2026 11:40:24 GMT-0400 (Eastern Daylight Time),625512.8999999999,041_y_m_n_a.png,I,m,830,13,1,1843.1999999997206,623669.7000000002,9081,NNB,A,11
12,test,4,1.0,2-Back,1.0,z,Wed May 13 2026 11:40:24 GMT-0400 (Eastern Daylight Time),627362.7000000002,047_o_f_n_a.png,I,z,828,14,1,1846.6000000000931,625516.1000000001,9081,NNB,A,12
13,test,4,1.0,2-Back,1.0,z,Wed May 13 2026 11:40:24 GMT-0400 (Eastern Daylight Time),629363.0,041_y_m_n_a.png,I,z,970,15,1,1997.1000000000931,627365.8999999999,9081,NNB,A,13
14,test,4,0.0,2-Back,1.0,m,Wed May 13 2026 11:40:24 GMT-0400 (Eastern Daylight Time),631213.2000000002,045_m_m_n_a.png,I,m,827,16,1,1842.9000000003725,629370.2999999998,9081,NNB,A,14
15,test,4,0.0,2-Back,1.0,m,Wed May 13 2026 11:40:24 GMT-0400 (Eastern Daylight Time),633046.2999999998,050_m_f_n_a.png,I,m,809,17,1,1826.5,631219.7999999998,9081,NNB,A,15
16,test,4,1.0,2-Back,1.0,z,Wed May 13 2026 11:40:24 GMT-0400 (Eastern Daylight Time),634679.7999999998,045_m_m_n_a.png,I,z,607,18,1,1627.8999999999069,633051.8999999999,9081,NNB,A,16
0,test,5,1.0,2-Back,,,Wed May 13 2026 11:40:24 GMT-0400 (Eastern Daylight Time),634679.7999999998,041_y_m_n_a.png,I,space,1422,1,1,1627.8999999999069,633051.8999999999,9081,NNB,A,0
0,test,5,1.0,2-Back,,,Wed May 13 2026 11:40:24 GMT-0400 (Eastern Daylight Time),634679.7999999998,050_m_f_n_a.png,I,space,1422,2,1,1627.8999999999069,633051.8999999999,9081,NNB,A,0
1,test,5,1.0,2-Back,1.0,z,Wed May 13 2026 11:40:24 GMT-0400 (Eastern Daylight Time),643812.7000000002,041_y_m_n_a.png,I,z,1626,3,1,2642.9000000003725,641169.7999999998,9081,NNB,A,1
2,test,5,1.0,2-Back,1.0,z,Wed May 13 2026 11:40:24 GMT-0400 (Eastern Daylight Time),645763.1000000001,050_m_f_n_a.png,I,z,921,4,1,1946.6000000000931,643816.5,9081,NNB,A,2
3,test,5,0.0,2-Back,1.0,m,Wed May 13 2026 11:40:24 GMT-0400 (Eastern Daylight Time),647446.5,047_o_f_n_a.png,I,m,659,5,1,1676.6000000000931,645769.8999999999,9081,NNB,A,3
4,test,5,0.0,2-Back,1.0,m,Wed May 13 2026 11:40:24 GMT-0400 (Eastern Daylight Time),649279.6000000001,041_y_m_n_a.png,I,m,807,6,1,1826.3999999999069,647453.2000000002,9081,NNB,A,4
5,test,5,0.0,2-Back,1.0,m,Wed May 13 2026 11:40:24 GMT-0400 (Eastern Daylight Time),651796.6000000001,010_y_f_n_a.png,I,m,1493,7,1,2514.100000000093,649282.5,9081,NNB,A,5
5,test,5,0.0,2-Back,0.0,m,Wed May 13 2026 11:40:24 GMT-0400 (Eastern Daylight Time),653746.2000000002,047_o_f_n_a.png,I,z,920,8,1,1943.7000000001863,651802.5,9081,NNB,A,6
6,test,5,1.0,2-Back,1.0,z,Wed May 13 2026 11:40:24 GMT-0400 (Eastern Daylight Time),655646.5,010_y_f_n_a.png,I,z,875,9,1,1897.3999999999069,653749.1000000001,9081,NNB,A,7
7,test,5,0.0,2-Back,1.0,m,Wed May 13 2026 11:40:24 GMT-0400 (Eastern Daylight Time),657213.0,046_o_m_n_a.png,I,m,543,10,1,1560.0,655653.0,9081,NNB,A,8
8,test,5,0.0,2-Back,1.0,m,Wed May 13 2026 11:40:24 GMT-0400 (Eastern Daylight Time),658879.7000000002,043_m_f_n_a.png,I,m,641,11,1,1659.9000000003725,657219.7999999998,9081,NNB,A,9
9,test,5,0.0,2-Back,1.0,m,Wed May 13 2026 11:40:24 GMT-0400 (Eastern Daylight Time),660746.5,058_m_m_n_a.png,I,m,845,12,1,1860.2000000001863,658886.2999999998,9081,NNB,A,10
10,test,5,0.0,2-Back,1.0,m,Wed May 13 2026 11:40:24 GMT-0400 (Eastern Daylight Time),663263.0,046_o_m_n_a.png,I,m,1483,13,1,2508.7000000001863,660754.2999999998,9081,NNB,A,11
11,test,5,1.0,2-Back,1.0,z,Wed May 13 2026 11:40:24 GMT-0400 (Eastern Daylight Time),665379.6000000001,058_m_m_n_a.png,I,z,1094,14,1,2109.600000000093,663270.0,9081,NNB,A,12
12,test,5,0.0,2-Back,1.0,m,Wed May 13 2026 11:40:24 GMT-0400 (Eastern Daylight Time),667196.6000000001,063_y_f_n_a.png,I,m,794,15,1,1812.6000000000931,665384.0,9081,NNB,A,13
13,test,5,0.0,2-Back,1.0,m,Wed May 13 2026 11:40:24 GMT-0400 (Eastern Daylight Time),669596.6000000001,053_o_m_n_a.png,I,m,1376,16,1,2393.100000000093,667203.5,9081,NNB,A,14
14,test,5,0.0,2-Back,1.0,m,Wed May 13 2026 11:40:24 GMT-0400 (Eastern Daylight Time),671529.8999999999,043_m_f_n_a.png,I,m,905,17,1,1925.7999999998137,669604.1000000001,9081,NNB,A,15
15,test,5,1.0,2-Back,1.0,z,Wed May 13 2026 11:40:24 GMT-0400 (Eastern Daylight Time),673246.5,053_o_m_n_a.png,I,z,692,18,1,1709.7999999998137,671536.7000000002,9081,NNB,A,16
