acc_sum,block,block_c,condition,correct,correct_response,datetime,endtime,flanker,jitter,project,response,response_test_buffer_response,response_test_target_response,response_time,response_time_test_buffer_response,response_time_test_target_response,row_sel,session_number,start_end,starttime,subject_id,target,task,task_vers,time_test_buffer,time_test_buffer_response,time_test_constants,time_test_flanker,time_test_jitter,time_test_logger,time_test_target,time_test_target_response,time_test_variables,trial
1,prac,1,inc,1,m,Tue Feb 24 2026 10:41:34 GMT-0600 (Central Standard Time),110309.59999999404,elated,900,O,m,,,719,,,6,1,2928.2999999970198,107381.29999999702,7759,napkin,AF,B,,,,,,,,,,1
1,prac,1,con,0,z,Tue Feb 24 2026 10:41:34 GMT-0600 (Central Standard Time),112874.40000000596,brutal,800,O,m,,,481,,,13,1,2558.5,110315.90000000596,7759,brutal,AF,B,,,,,,,,,,2
2,prac,1,inc,1,z,Tue Feb 24 2026 10:41:34 GMT-0600 (Central Standard Time),115772.29999999702,film,900,O,z,,,709,,,14,1,2892.7000000029802,112879.59999999404,7759,hate,AF,B,,,,,,,,,,3
3,prac,1,inc,1,z,Tue Feb 24 2026 10:41:34 GMT-0600 (Central Standard Time),118621.40000000596,rock,900,O,z,,,632,,,10,1,2845.6000000089407,115775.79999999702,7759,kind,AF,B,,,,,,,,,,4
4,prac,1,inc,1,m,Tue Feb 24 2026 10:41:34 GMT-0600 (Central Standard Time),121470.40000000596,hate,1100,O,m,,,443,,,4,1,2846.0,118624.40000000596,7759,film,AF,B,,,,,,,,,,5
5,prac,1,con,1,z,Tue Feb 24 2026 10:41:34 GMT-0600 (Central Standard Time),124339.09999999404,love,1000,O,z,,,580,,,11,1,2859.0999999940395,121480.0,7759,love,AF,B,,,,,,,,,,6
6,prac,1,inc,1,m,Tue Feb 24 2026 10:41:34 GMT-0600 (Central Standard Time),127037.0,kind,900,O,m,,,494,,,2,1,2690.5999999940395,124346.40000000596,7759,rock,AF,B,,,,,,,,,,7
7,prac,1,con,1,z,Tue Feb 24 2026 10:41:34 GMT-0600 (Central Standard Time),129753.20000000298,elated,800,O,z,,,623,,,9,1,2711.5,127041.70000000298,7759,elated,AF,B,,,,,,,,,,8
8,prac,1,con,1,z,Tue Feb 24 2026 10:41:34 GMT-0600 (Central Standard Time),132651.40000000596,rage,1000,O,z,,,596,,,15,1,2892.9000000059605,129758.5,7759,rage,AF,B,,,,,,,,,,9
9,prac,1,con,1,m,Tue Feb 24 2026 10:41:34 GMT-0600 (Central Standard Time),135368.70000000298,remote,1000,O,m,,,408,,,7,1,2712.9000000059605,132655.79999999702,7759,remote,AF,B,,,,,,,,,,10
10,prac,1,con,1,m,Tue Feb 24 2026 10:41:34 GMT-0600 (Central Standard Time),137932.5,step,800,O,m,,,461,,,1,1,2558.2999999970198,135374.20000000298,7759,step,AF,B,,,,,,,,,,11
11,prac,1,con,1,m,Tue Feb 24 2026 10:41:34 GMT-0600 (Central Standard Time),140516.70000000298,jacket,800,O,m,,,480,,,5,1,2579.5,137937.20000000298,7759,jacket,AF,B,,,,,,,,,,12
12,prac,1,inc,1,m,Tue Feb 24 2026 10:41:34 GMT-0600 (Central Standard Time),143548.5,brutal,1100,O,m,,,622,,,8,1,3025.7000000029802,140522.79999999702,7759,window,AF,B,,,,,,,,,,13
13,prac,1,con,1,m,Tue Feb 24 2026 10:41:34 GMT-0600 (Central Standard Time),146414.5,bell,1000,O,m,,,576,,,3,1,2862.0,143552.5,7759,bell,AF,B,,,,,,,,,,14
14,prac,1,inc,1,z,Tue Feb 24 2026 10:41:34 GMT-0600 (Central Standard Time),149329.40000000596,window,1100,O,z,,,507,,,16,1,2908.6000000089407,146420.79999999702,7759,temper,AF,B,,,,,,,,,,15
15,prac,1,inc,1,z,Tue Feb 24 2026 10:41:34 GMT-0600 (Central Standard Time),152361.70000000298,napkin,1100,O,z,,,630,,,12,1,3027.0,149334.70000000298,7759,friend,AF,B,,,,,,,,,,16
1,test,1,con,1,z,Tue Feb 24 2026 10:41:34 GMT-0600 (Central Standard Time),163324.79999999702,rage,1000,O,z,z,None,621,421.0,200.0,51,1,2160.2000000029802,161164.59999999404,7759,rage,AF,B,161314,161314,159586,160596,159586,161746,161114,161114,161746,1
2,test,1,con,1,z,Tue Feb 24 2026 10:41:34 GMT-0600 (Central Standard Time),165359.0,rage,1100,O,z,z,None,395,179.0,216.0,52,1,2027.5999999940395,163331.40000000596,7759,rage,AF,B,163596,163596,161752,162863,161753,163780,163380,163380,163780,2
3,test,1,inc,1,m,Tue Feb 24 2026 10:41:34 GMT-0600 (Central Standard Time),167373.90000000596,brutal,900,O,m,m,None,570,371.0,199.0,118,1,2009.7000000029802,165364.20000000298,7759,remote,AF,B,165412,165412,163785,164695,163786,165795,165212,165212,165795,3
4,test,1,inc,1,z,Tue Feb 24 2026 10:41:34 GMT-0600 (Central Standard Time),169372.90000000596,remote,1000,O,z,z,None,463,263.0,200.0,39,1,1993.0,167379.90000000596,7759,brutal,AF,B,167528,167528,165801,166812,165801,167794,167328,167328,167794,4
5,test,1,inc,1,m,Tue Feb 24 2026 10:41:34 GMT-0600 (Central Standard Time),171338.70000000298,temper,1000,O,m,m,None,429,215.0,214.0,103,1,1958.7999999970198,169379.90000000596,7759,jacket,AF,B,169544,169544,167801,168810,167801,169760,169329,169329,169760,5
6,test,1,con,1,z,Tue Feb 24 2026 10:41:34 GMT-0600 (Central Standard Time),173355.09999999404,hate,1000,O,z,z,None,481,282.0,199.0,43,1,2008.5999999940395,171346.5,7759,hate,AF,B,171493,171493,169767,170777,169768,171776,171293,171293,171776,6
7,test,1,inc,1,z,Tue Feb 24 2026 10:41:34 GMT-0600 (Central Standard Time),175287.5,step,800,O,z,z,None,584,385.0,199.0,53,1,1926.2999999970198,173361.20000000298,7759,rage,AF,B,173309,173309,171782,172593,171782,173709,173110,173110,173709,7
8,test,1,con,1,m,Tue Feb 24 2026 10:41:34 GMT-0600 (Central Standard Time),177203.09999999404,bell,900,O,m,m,None,496,296.0,200.0,82,1,1910.3999999910593,175292.70000000298,7759,bell,AF,B,175326,175326,173714,174624,173714,175624,175125,175125,175624,8
8,test,1,inc,0,z,Tue Feb 24 2026 10:41:34 GMT-0600 (Central Standard Time),179486.90000000596,window,1100,O,m,m,None,637,437.0,200.0,40,1,2277.4000000059605,177209.5,7759,brutal,AF,B,177458,177458,175631,176741,175631,177908,177258,177258,177908,9
9,test,1,inc,1,z,Tue Feb 24 2026 10:41:34 GMT-0600 (Central Standard Time),181469.59999999404,napkin,900,O,z,z,None,537,337.0,200.0,6,1,1978.7999999970198,179490.79999999702,7759,elated,AF,B,179541,179541,177912,178824,177912,179891,179341,179341,179891,10
10,test,1,con,1,m,Tue Feb 24 2026 10:41:34 GMT-0600 (Central Standard Time),183769.90000000596,film,1100,O,m,m,None,665,451.0,214.0,92,1,2293.7000000029802,181476.20000000298,7759,film,AF,B,181740,181740,179897,181007,179897,182191,181525,181525,182191,11
11,test,1,con,1,m,Tue Feb 24 2026 10:41:34 GMT-0600 (Central Standard Time),185717.5,jacket,1000,O,m,m,None,427,213.0,214.0,99,1,1942.5999999940395,183774.90000000596,7759,jacket,AF,B,183922,183922,182196,183206,182196,184139,183708,183708,184139,12
12,test,1,inc,1,z,Tue Feb 24 2026 10:41:34 GMT-0600 (Central Standard Time),187619.09999999404,rock,900,O,z,z,None,467,268.0,199.0,22,1,1897.7999999970198,185721.29999999702,7759,love,AF,B,185772,185772,184142,185056,184143,186040,185573,185573,186040,13
13,test,1,inc,1,z,Tue Feb 24 2026 10:41:34 GMT-0600 (Central Standard Time),189800.5,napkin,900,O,z,z,None,743,542.0,201.0,38,1,2176.9000000059605,187623.59999999404,7759,brutal,AF,B,187673,187673,186045,186956,186045,188222,187472,187472,188222,14
14,test,1,inc,1,m,Tue Feb 24 2026 10:41:34 GMT-0600 (Central Standard Time),191782.5,love,1000,O,m,m,None,445,243.0,202.0,95,1,1978.5999999940395,189803.90000000596,7759,film,AF,B,189956,189956,188225,189238,188225,190204,189754,189754,190203,15
15,test,1,con,1,z,Tue Feb 24 2026 10:41:34 GMT-0600 (Central Standard Time),193931.20000000298,temper,1000,O,z,z,None,598,398.0,200.0,59,1,2144.7000000029802,191786.5,7759,temper,AF,B,191936,191937,190208,191220,190208,192352,191736,191736,192352,16
16,test,1,inc,1,z,Tue Feb 24 2026 10:41:34 GMT-0600 (Central Standard Time),195781.59999999404,napkin,900,O,z,z,None,410,194.0,216.0,62,1,1845.699999988079,193935.90000000596,7759,temper,AF,B,194005,194005,192357,193271,192357,194203,193789,193789,194203,17
17,test,1,con,1,z,Tue Feb 24 2026 10:41:34 GMT-0600 (Central Standard Time),197547.59999999404,elated,800,O,z,z,None,423,223.0,200.0,1,1,1760.5,195787.09999999404,7759,elated,AF,B,195736,195736,194208,195019,194208,195969,195535,195535,195969,18
18,test,1,inc,1,m,Tue Feb 24 2026 10:41:34 GMT-0600 (Central Standard Time),199530.90000000596,kind,900,O,m,m,None,549,348.0,201.0,86,1,1979.0,197551.90000000596,7759,bell,AF,B,197603,197603,195973,196886,195974,197952,197401,197401,197952,19
19,test,1,inc,1,z,Tue Feb 24 2026 10:41:34 GMT-0600 (Central Standard Time),201395.29999999702,jacket,800,O,z,z,None,531,327.0,204.0,37,1,1859.3999999910593,199535.90000000596,7759,brutal,AF,B,199488,199488,197957,198768,197957,199816,199284,199284,199816,20
20,test,1,con,1,z,Tue Feb 24 2026 10:41:34 GMT-0600 (Central Standard Time),203362.29999999702,rage,800,O,z,z,None,622,407.0,215.0,49,1,1962.0999999940395,201400.20000000298,7759,rage,AF,B,201368,201368,199821,200634,199822,201783,201152,201152,201783,21
21,test,1,con,1,z,Tue Feb 24 2026 10:41:34 GMT-0600 (Central Standard Time),205344.5,kind,1000,O,z,z,None,442,241.0,201.0,11,1,1977.4000000059605,203367.09999999404,7759,kind,AF,B,203517,203518,201788,202800,201788,203766,203316,203316,203766,22
22,test,1,con,1,z,Tue Feb 24 2026 10:41:34 GMT-0600 (Central Standard Time),207378.20000000298,elated,1100,O,z,z,None,398,199.0,199.0,4,1,2029.2000000029802,205349.0,7759,elated,AF,B,205600,205600,203770,204885,203770,205799,205400,205400,205799,23
23,test,1,con,1,z,Tue Feb 24 2026 10:41:34 GMT-0600 (Central Standard Time),209610.09999999404,temper,1100,O,z,z,None,591,391.0,200.0,60,1,2228.7999999970198,207381.29999999702,7759,temper,AF,B,207632,207632,205802,206917,205802,208031,207432,207432,208031,24
23,test,1,con,0,m,Tue Feb 24 2026 10:41:34 GMT-0600 (Central Standard Time),211560.09999999404,bell,1000,O,z,z,None,411,210.0,201.0,83,1,1945.0999999940395,209615.0,7759,bell,AF,B,209765,209765,208036,209048,208036,209981,209564,209564,209981,25
24,test,1,inc,1,z,Tue Feb 24 2026 10:41:34 GMT-0600 (Central Standard Time),213642.20000000298,rock,900,O,z,z,None,641,440.0,201.0,54,1,2078.1000000089407,211564.09999999404,7759,rage,AF,B,211615,211615,209985,210897,209985,212063,211414,211414,212063,26
25,test,1,inc,1,m,Tue Feb 24 2026 10:41:34 GMT-0600 (Central Standard Time),215724.29999999702,temper,1000,O,m,m,None,537,322.0,215.0,127,1,2078.7999999970198,213645.5,7759,window,AF,B,213812,213812,212067,213082,212067,214145,213597,213597,214145,27
26,test,1,con,1,m,Tue Feb 24 2026 10:41:34 GMT-0600 (Central Standard Time),217691.5,rock,900,O,m,m,None,533,333.0,200.0,74,1,1963.2000000029802,215728.29999999702,7759,rock,AF,B,215779,215779,214149,215064,214150,216113,215579,215579,216112,28
27,test,1,inc,1,m,Tue Feb 24 2026 10:41:34 GMT-0600 (Central Standard Time),219907.40000000596,friend,1100,O,m,m,None,582,382.0,200.0,128,1,2212.800000011921,217694.59999999404,7759,window,AF,B,217946,217946,216116,217230,216116,218328,217745,217745,218328,29
28,test,1,con,1,z,Tue Feb 24 2026 10:41:34 GMT-0600 (Central Standard Time),221890.0,temper,900,O,z,z,None,557,357.0,200.0,58,1,1978.9000000059605,219911.09999999404,7759,temper,AF,B,219946,219946,218332,219244,218332,220311,219745,219745,220311,30
29,test,1,con,1,z,Tue Feb 24 2026 10:41:34 GMT-0600 (Central Standard Time),223689.20000000298,love,900,O,z,z,None,359,159.0,200.0,18,1,1794.9000000059605,221894.29999999702,7759,love,AF,B,221944,221944,220315,221228,220316,222110,221744,221744,222110,31
30,test,1,inc,1,z,Tue Feb 24 2026 10:41:34 GMT-0600 (Central Standard Time),225571.40000000596,jacket,800,O,z,z,None,533,332.0,201.0,61,1,1877.6000000089407,223693.79999999702,7759,temper,AF,B,223644,223644,222115,222928,222115,223992,223443,223443,223992,32
31,test,1,inc,1,z,Tue Feb 24 2026 10:41:34 GMT-0600 (Central Standard Time),227704.40000000596,film,1100,O,z,z,None,493,293.0,200.0,24,1,2129.7000000029802,225574.70000000298,7759,love,AF,B,225826,225826,223996,225110,223996,226125,225626,225626,226125,33
32,test,1,con,1,m,Tue Feb 24 2026 10:41:34 GMT-0600 (Central Standard Time),229620.70000000298,rock,800,O,m,m,None,571,372.0,199.0,73,1,1911.7000000029802,227709.0,7759,rock,AF,B,227659,227659,226130,226943,226130,228042,227459,227459,228042,34
33,test,1,con,1,z,Tue Feb 24 2026 10:41:34 GMT-0600 (Central Standard Time),231636.09999999404,hate,1100,O,z,z,None,370,171.0,199.0,44,1,2012.3999999910593,229623.70000000298,7759,hate,AF,B,229875,229875,228045,229158,228045,230057,229675,229675,230057,35
34,test,1,con,1,z,Tue Feb 24 2026 10:41:34 GMT-0600 (Central Standard Time),233686.29999999702,kind,1100,O,z,z,None,412,197.0,215.0,12,1,2047.2000000029802,231639.09999999404,7759,kind,AF,B,231907,231907,230060,231175,230060,232107,231692,231692,232107,36
35,test,1,inc,1,m,Tue Feb 24 2026 10:41:34 GMT-0600 (Central Standard Time),235768.70000000298,friend,1100,O,m,m,None,443,244.0,199.0,104,1,2079.0,233689.70000000298,7759,jacket,AF,B,233939,233939,232111,233223,232111,234190,233740,233740,234190,37
36,test,1,inc,1,m,Tue Feb 24 2026 10:41:34 GMT-0600 (Central Standard Time),237734.5,brutal,900,O,m,m,None,518,319.0,199.0,102,1,1961.2000000029802,235773.29999999702,7759,jacket,AF,B,235824,235824,234194,235108,234194,236156,235624,235624,236156,38
37,test,1,con,1,z,Tue Feb 24 2026 10:41:34 GMT-0600 (Central Standard Time),239484.0,friend,800,O,z,z,None,404,205.0,199.0,25,1,1745.9000000059605,237738.09999999404,7759,friend,AF,B,237689,237689,236159,236973,236159,237905,237489,237489,237905,39
38,test,1,con,1,m,Tue Feb 24 2026 10:41:34 GMT-0600 (Central Standard Time),241466.29999999702,step,1100,O,m,m,None,340,141.0,199.0,68,1,1978.5,239487.79999999702,7759,step,AF,B,239738,239738,237909,239023,237909,239887,239539,239539,239887,40
39,test,1,con,1,m,Tue Feb 24 2026 10:41:34 GMT-0600 (Central Standard Time),243500.09999999404,bell,1100,O,m,m,None,398,199.0,199.0,84,1,2029.3999999910593,241470.70000000298,7759,bell,AF,B,241721,241721,239892,241005,239892,241921,241521,241521,241921,41
40,test,1,inc,1,z,Tue Feb 24 2026 10:41:34 GMT-0600 (Central Standard Time),245631.79999999702,bell,1000,O,z,z,None,584,385.0,199.0,15,1,2127.7000000029802,243504.09999999404,7759,kind,AF,B,243654,243654,241925,242938,241925,244053,243454,243455,244053,42
41,test,1,inc,1,m,Tue Feb 24 2026 10:41:34 GMT-0600 (Central Standard Time),247714.59999999404,love,1000,O,m,m,None,540,341.0,199.0,79,1,2079.2999999970198,245635.29999999702,7759,rock,AF,B,245787,245787,244056,245070,244056,246136,245587,245587,246136,43
42,test,1,con,1,z,Tue Feb 24 2026 10:41:34 GMT-0600 (Central Standard Time),249748.09999999404,friend,1100,O,z,z,None,398,198.0,200.0,28,1,2028.8999999910593,247719.20000000298,7759,friend,AF,B,247969,247969,246140,247253,246141,248169,247769,247769,248169,44
43,test,1,inc,1,z,Tue Feb 24 2026 10:41:34 GMT-0600 (Central Standard Time),251848.09999999404,window,1100,O,z,z,None,451,236.0,215.0,32,1,2093.3999999910593,249754.70000000298,7759,friend,AF,B,250019,250019,248176,249286,248176,250269,249803,249803,250269,45
44,test,1,inc,1,m,Tue Feb 24 2026 10:41:34 GMT-0600 (Central Standard Time),253945.90000000596,friend,1100,O,m,m,None,449,234.0,215.0,120,1,2093.5,251852.40000000596,7759,remote,AF,B,252117,252117,250273,251384,250274,252367,251902,251902,252367,46
45,test,1,inc,1,m,Tue Feb 24 2026 10:41:34 GMT-0600 (Central Standard Time),256112.70000000298,hate,1100,O,m,m,None,527,327.0,200.0,88,1,2162.4000000059605,253950.29999999702,7759,bell,AF,B,254200,254200,252371,253485,252372,254534,254000,254000,254534,47
45,test,1,inc,0,m,Tue Feb 24 2026 10:41:34 GMT-0600 (Central Standard Time),257827.59999999404,rage,800,O,z,z,None,367,167.0,200.0,77,1,1711.3999999910593,256116.20000000298,7759,rock,AF,B,256066,256066,254537,255350,254538,256249,255866,255866,256249,48
45,test,1,con,0,m,Tue Feb 24 2026 10:41:34 GMT-0600 (Central Standard Time),260093.79999999702,napkin,900,O,z,z,None,818,619.0,199.0,106,1,2260.7000000029802,257833.09999999404,7759,napkin,AF,B,257883,257883,256254,257167,256254,258515,257684,257684,258515,49
46,test,1,con,1,z,Tue Feb 24 2026 10:41:34 GMT-0600 (Central Standard Time),261794.20000000298,love,800,O,z,z,None,357,158.0,199.0,17,1,1695.5,260098.70000000298,7759,love,AF,B,260049,260049,258520,259335,258520,260215,259849,259849,260215,50
47,test,1,con,1,m,Tue Feb 24 2026 10:41:34 GMT-0600 (Central Standard Time),263809.40000000596,remote,1100,O,m,m,None,389,173.0,216.0,116,1,2011.2000000029802,261798.20000000298,7759,remote,AF,B,262050,262050,260219,261330,260220,262230,261833,261833,262230,51
48,test,1,con,1,m,Tue Feb 24 2026 10:41:34 GMT-0600 (Central Standard Time),265726.40000000596,remote,900,O,m,m,None,470,270.0,200.0,114,1,1914.6000000089407,263811.799999997,7759,remote,AF,B,263864,263864,262233,263149,262233,264148,263664,263664,264147,52
49,test,1,con,1,z,Tue Feb 24 2026 10:41:34 GMT-0600 (Central Standard Time),267592.59999999404,kind,900,O,z,z,None,428,228.0,200.0,10,1,1862.5,265730.09999999404,7759,kind,AF,B,265780,265780,264151,265063,264151,266014,265579,265579,266014,53
50,test,1,con,1,m,Tue Feb 24 2026 10:41:34 GMT-0600 (Central Standard Time),269357.90000000596,step,800,O,m,m,None,428,229.0,199.0,65,1,1762.6000000089407,267595.299999997,7759,step,AF,B,267546,267546,266016,266830,266017,267779,267346,267346,267779,54
51,test,1,con,1,m,Tue Feb 24 2026 10:41:34 GMT-0600 (Central Standard Time),271357.40000000596,step,900,O,m,m,None,551,347.0,204.0,66,1,1993.800000011921,269363.59999999404,7759,step,AF,B,269416,269416,267785,268696,267785,269778,269211,269211,269778,55
52,test,1,con,1,m,Tue Feb 24 2026 10:41:34 GMT-0600 (Central Standard Time),273074.40000000596,jacket,800,O,m,m,None,365,150.0,215.0,97,1,1711.2000000029802,271363.200000003,7759,jacket,AF,B,271328,271328,269784,270596,269785,271495,271113,271113,271495,56
53,test,1,inc,1,m,Tue Feb 24 2026 10:41:34 GMT-0600 (Central Standard Time),275022.90000000596,kind,900,O,m,m,None,506,307.0,199.0,78,1,1943.9000000059605,273079.0,7759,rock,AF,B,273128,273128,271500,272411,271500,273444,272928,272928,273444,57
54,test,1,inc,1,z,Tue Feb 24 2026 10:41:34 GMT-0600 (Central Standard Time),276922.0,step,800,O,z,z,None,574,375.0,199.0,13,1,1894.2000000029802,275027.799999997,7759,kind,AF,B,274960,274960,273449,274260,273449,275343,274761,274761,275343,58
55,test,1,con,1,m,Tue Feb 24 2026 10:41:34 GMT-0600 (Central Standard Time),278821.0,remote,1000,O,m,m,None,368,154.0,214.0,115,1,1895.5,276925.5,7759,remote,AF,B,277076,277077,275347,276361,275347,277242,276862,276862,277242,59
56,test,1,con,1,m,Tue Feb 24 2026 10:41:34 GMT-0600 (Central Standard Time),280737.09999999404,step,1000,O,m,m,None,374,175.0,199.0,67,1,1909.0999999940395,278828.0,7759,step,AF,B,278976,278976,277249,278260,277249,279158,278776,278776,279158,60
57,test,1,con,1,m,Tue Feb 24 2026 10:41:34 GMT-0600 (Central Standard Time),282754.59999999404,jacket,1100,O,m,m,None,367,166.0,201.0,100,1,2012.699999988079,280741.90000000596,7759,jacket,AF,B,280993,280994,279163,280276,279163,281176,280792,280792,281176,61
57,test,1,inc,0,m,Tue Feb 24 2026 10:41:34 GMT-0600 (Central Standard Time),284786.700000003,brutal,900,O,z,z,None,598,399.0,199.0,126,1,2027.2999999970198,282759.40000000596,7759,window,AF,B,282808,282808,281180,282092,281181,283208,282608,282608,283208,62
58,test,1,inc,1,z,Tue Feb 24 2026 10:41:34 GMT-0600 (Central Standard Time),287354.59999999404,remote,1000,O,z,z,None,1026,827.0,199.0,63,1,2562.699999988079,284791.90000000596,7759,temper,AF,B,284940,284940,283213,284224,283213,285776,284741,284741,285776,63
59,test,1,inc,1,z,Tue Feb 24 2026 10:41:34 GMT-0600 (Central Standard Time),289717.799999997,film,1100,O,z,z,None,720,520.0,200.0,48,1,2358.0999999940395,287359.700000003,7759,hate,AF,B,287608,287608,285781,286889,285781,288139,287407,287407,288139,64
60,test,1,inc,1,z,Tue Feb 24 2026 10:41:34 GMT-0600 (Central Standard Time),291917.700000003,window,1100,O,z,z,None,554,354.0,200.0,64,1,2194.2000000029802,289723.5,7759,temper,AF,B,289973,289973,288145,289258,288145,290339,289773,289773,290339,65
61,test,1,con,1,z,Tue Feb 24 2026 10:41:34 GMT-0600 (Central Standard Time),293966.5,love,1100,O,z,z,None,411,212.0,199.0,20,1,2041.5999999940395,291924.90000000596,7759,love,AF,B,292171,292171,290346,291457,290346,292388,291972,291972,292388,66
62,test,1,inc,1,z,Tue Feb 24 2026 10:41:34 GMT-0600 (Central Standard Time),296216.5,film,1100,O,z,z,None,616,402.0,214.0,56,1,2246.2000000029802,293970.299999997,7759,rage,AF,B,294221,294221,292391,293504,292392,294638,294007,294007,294638,67
63,test,1,con,1,z,Tue Feb 24 2026 10:41:34 GMT-0600 (Central Standard Time),298031.799999997,hate,900,O,z,z,None,368,168.0,200.0,42,1,1810.7000000029802,296221.09999999404,7759,hate,AF,B,296270,296270,294642,295555,294642,296453,296070,296070,296453,68
64,test,1,con,1,m,Tue Feb 24 2026 10:41:34 GMT-0600 (Central Standard Time),299864.90000000596,window,900,O,m,m,None,393,193.0,200.0,122,1,1826.800000011921,298038.09999999404,7759,window,AF,B,298086,298086,296459,297370,296459,298286,297886,297886,298286,69
65,test,1,inc,1,m,Tue Feb 24 2026 10:41:34 GMT-0600 (Central Standard Time),301746.90000000596,elated,800,O,m,m,None,539,339.0,200.0,101,1,1877.1000000089407,299869.799999997,7759,jacket,AF,B,299820,299820,298291,299102,298291,300168,299620,299620,300168,70
66,test,1,con,1,m,Tue Feb 24 2026 10:41:34 GMT-0600 (Central Standard Time),303662.799999997,rock,1000,O,m,m,None,377,176.0,201.0,75,1,1910.0,301752.799999997,7759,rock,AF,B,301903,301903,300174,301187,300174,302084,301702,301702,302084,71
67,test,1,con,1,m,Tue Feb 24 2026 10:41:34 GMT-0600 (Central Standard Time),305696.59999999404,window,1100,O,m,m,None,392,193.0,199.0,124,1,2029.199999988079,303667.40000000596,7759,window,AF,B,303918,303918,302088,303204,302089,304118,303718,303718,304118,72
68,test,1,inc,1,m,Tue Feb 24 2026 10:41:34 GMT-0600 (Central Standard Time),307863.299999997,hate,1100,O,m,m,None,527,328.0,199.0,72,1,2163.2000000029802,305700.09999999404,7759,step,AF,B,305950,305950,304121,305234,304121,306284,305751,305751,306284,73
69,test,1,con,1,m,Tue Feb 24 2026 10:41:34 GMT-0600 (Central Standard Time),309695.700000003,jacket,900,O,m,m,None,384,185.0,199.0,98,1,1829.6000000089407,307866.09999999404,7759,jacket,AF,B,307917,307917,306287,307201,306287,308117,307717,307717,308117,74
70,test,1,inc,1,z,Tue Feb 24 2026 10:41:34 GMT-0600 (Central Standard Time),311627.59999999404,rock,900,O,z,z,None,488,273.0,215.0,46,1,1927.199999988079,309700.40000000596,7759,hate,AF,B,309766,309766,308121,309033,308122,310049,309550,309550,310049,75
70,test,1,inc,0,z,Tue Feb 24 2026 10:41:34 GMT-0600 (Central Standard Time),313676.299999997,film,1100,O,m,m,None,404,204.0,200.0,16,1,2044.7999999970198,311631.5,7759,kind,AF,B,311883,311883,310053,311166,310053,312097,311682,311682,312097,76
71,test,1,con,1,z,Tue Feb 24 2026 10:41:34 GMT-0600 (Central Standard Time),315660.799999997,kind,800,O,z,z,None,640,440.0,200.0,9,1,1980.7999999970198,313680.0,7759,kind,AF,B,313631,313631,312101,312915,312101,314082,313431,313431,314082,77
71,test,1,con,0,z,Tue Feb 24 2026 10:41:34 GMT-0600 (Central Standard Time),317576.40000000596,brutal,1000,O,m,m,None,369,169.0,200.0,35,1,1911.5,315664.90000000596,7759,brutal,AF,B,315814,315814,314086,315098,314086,315998,315614,315614,315997,78
72,test,1,con,1,z,Tue Feb 24 2026 10:41:34 GMT-0600 (Central Standard Time),319308.200000003,hate,800,O,z,z,None,388,185.0,203.0,41,1,1727.5,317580.700000003,7759,hate,AF,B,317533,317533,316002,316814,316002,317729,317329,317329,317729,79
73,test,1,con,1,m,Tue Feb 24 2026 10:41:34 GMT-0600 (Central Standard Time),321057.799999997,remote,800,O,m,m,None,407,207.0,200.0,113,1,1746.0999999940395,319311.700000003,7759,remote,AF,B,319264,319264,317733,318546,317733,319479,319064,319064,319479,80
74,test,1,con,1,m,Tue Feb 24 2026 10:41:34 GMT-0600 (Central Standard Time),322807.799999997,window,800,O,m,m,None,408,195.0,213.0,121,1,1746.3999999910593,321061.40000000596,7759,window,AF,B,321029,321029,319482,320297,319483,321229,320816,320816,321229,81
75,test,1,inc,1,z,Tue Feb 24 2026 10:41:34 GMT-0600 (Central Standard Time),324890.200000003,bell,1000,O,z,z,None,548,349.0,199.0,23,1,2078.9000000059605,322811.299999997,7759,love,AF,B,322962,322962,321232,322244,321233,323311,322762,322762,323311,82
76,test,1,inc,1,m,Tue Feb 24 2026 10:41:34 GMT-0600 (Central Standard Time),326722.90000000596,elated,800,O,m,m,None,489,289.0,200.0,125,1,1827.5,324895.40000000596,7759,window,AF,B,324846,324846,323316,324128,323317,325144,324645,324645,325144,83
77,test,1,con,1,z,Tue Feb 24 2026 10:41:34 GMT-0600 (Central Standard Time),328540.5,rage,900,O,z,z,None,399,185.0,214.0,50,1,1814.9000000059605,326725.59999999404,7759,rage,AF,B,326776,326776,325147,326061,325147,326962,326562,326562,326962,84
78,test,1,inc,1,z,Tue Feb 24 2026 10:41:34 GMT-0600 (Central Standard Time),330605.299999997,remote,1000,O,z,z,None,537,323.0,214.0,7,1,2061.5999999940395,328543.700000003,7759,elated,AF,B,328693,328693,326965,327977,326965,329026,328479,328479,329026,85
79,test,1,con,1,m,Tue Feb 24 2026 10:41:34 GMT-0600 (Central Standard Time),332454.200000003,film,900,O,m,m,None,404,203.0,201.0,90,1,1844.7999999970198,330609.40000000596,7759,film,AF,B,330660,330660,329030,329944,329031,330875,330459,330459,330875,86
80,test,1,con,1,z,Tue Feb 24 2026 10:41:34 GMT-0600 (Central Standard Time),334389.700000003,friend,1000,O,z,z,None,413,198.0,215.0,27,1,1932.7000000029802,332457.0,7759,friend,AF,B,332609,332609,330878,331892,330878,332811,332394,332394,332811,87
81,test,1,con,1,m,Tue Feb 24 2026 10:41:34 GMT-0600 (Central Standard Time),336170.200000003,napkin,800,O,m,m,None,448,247.0,201.0,105,1,1776.1000000089407,334394.09999999404,7759,napkin,AF,B,334344,334344,332815,333625,332815,334591,334142,334142,334591,88
82,test,1,con,1,m,Tue Feb 24 2026 10:41:34 GMT-0600 (Central Standard Time),338252.700000003,napkin,1100,O,m,m,None,446,246.0,200.0,108,1,2079.7000000029802,336173.0,7759,napkin,AF,B,336425,336425,334594,335708,334594,336674,336225,336225,336674,89
83,test,1,inc,1,z,Tue Feb 24 2026 10:41:34 GMT-0600 (Central Standard Time),340136.09999999404,napkin,900,O,z,z,None,457,256.0,201.0,30,1,1877.3999999910593,338258.700000003,7759,friend,AF,B,338294,338294,336680,337590,336680,338557,338092,338092,338557,90
84,test,1,con,1,m,Tue Feb 24 2026 10:41:34 GMT-0600 (Central Standard Time),342284.700000003,film,1000,O,m,m,None,603,404.0,199.0,91,1,2144.2000000029802,340140.5,7759,film,AF,B,340291,340291,338562,339573,338562,340706,340091,340091,340706,91
85,test,1,inc,1,m,Tue Feb 24 2026 10:41:34 GMT-0600 (Central Standard Time),344117.5,rage,800,O,m,m,None,504,305.0,199.0,69,1,1828.5,342289.0,7759,step,AF,B,342221,342221,340710,341521,340710,342539,342022,342022,342539,92
86,test,1,inc,1,m,Tue Feb 24 2026 10:41:34 GMT-0600 (Central Standard Time),346166.09999999404,friend,1100,O,m,m,None,412,211.0,201.0,112,1,2044.199999988079,344121.90000000596,7759,napkin,AF,B,344372,344372,342543,343655,342543,344587,344171,344171,344587,93
87,test,1,inc,1,z,Tue Feb 24 2026 10:41:34 GMT-0600 (Central Standard Time),348033.299999997,jacket,800,O,z,z,None,547,347.0,200.0,29,1,1864.0999999940395,346169.200000003,7759,friend,AF,B,346107,346107,344590,345404,344590,346454,345906,345907,346454,94
88,test,1,inc,1,m,Tue Feb 24 2026 10:41:34 GMT-0600 (Central Standard Time),350000.40000000596,brutal,900,O,m,m,None,518,317.0,201.0,110,1,1964.300000011921,348036.09999999404,7759,napkin,AF,B,348088,348089,346457,347370,346457,348421,347887,347887,348421,95
89,test,1,inc,1,m,Tue Feb 24 2026 10:41:34 GMT-0600 (Central Standard Time),352014.299999997,love,1000,O,m,m,None,494,295.0,199.0,71,1,2009.0999999940395,350005.200000003,7759,step,AF,B,350137,350137,348426,349436,348426,350435,349938,349938,350435,96
90,test,1,con,1,z,Tue Feb 24 2026 10:41:34 GMT-0600 (Central Standard Time),353864.5,temper,800,O,z,z,None,518,319.0,199.0,57,1,1844.7999999970198,352019.700000003,7759,temper,AF,B,351954,351954,350441,351253,350441,352286,351754,351754,352286,97
91,test,1,inc,1,z,Tue Feb 24 2026 10:41:34 GMT-0600 (Central Standard Time),355964.40000000596,window,1100,O,z,z,None,465,265.0,200.0,8,1,2095.5,353868.90000000596,7759,elated,AF,B,354120,354120,352290,353402,352290,354385,353919,353919,354385,98
92,test,1,inc,1,m,Tue Feb 24 2026 10:41:34 GMT-0600 (Central Standard Time),357996.5,temper,1000,O,m,m,None,487,288.0,199.0,119,1,2029.2000000029802,355967.299999997,7759,remote,AF,B,356118,356118,354388,355402,354389,356418,355918,355918,356418,99
93,test,1,con,1,z,Tue Feb 24 2026 10:41:34 GMT-0600 (Central Standard Time),359828.299999997,friend,900,O,z,z,None,388,187.0,201.0,26,1,1828.2999999970198,358000.0,7759,friend,AF,B,358051,358051,356421,357335,356421,358249,357850,357850,358249,100
94,test,1,inc,1,m,Tue Feb 24 2026 10:41:34 GMT-0600 (Central Standard Time),361717.0,elated,800,O,m,m,None,544,344.0,200.0,109,1,1884.5999999940395,359832.40000000596,7759,napkin,AF,B,359783,359783,358253,359068,358254,360138,359583,359583,360138,101
95,test,1,con,1,z,Tue Feb 24 2026 10:41:34 GMT-0600 (Central Standard Time),363544.59999999404,brutal,900,O,z,z,None,391,177.0,214.0,34,1,1824.699999988079,361719.90000000596,7759,brutal,AF,B,361782,361782,360141,361049,360141,361966,361568,361568,361966,102
96,test,1,inc,1,m,Tue Feb 24 2026 10:41:34 GMT-0600 (Central Standard Time),365560.799999997,love,1000,O,m,m,None,467,252.0,215.0,87,1,2012.3999999910593,363548.40000000596,7759,bell,AF,B,363715,363715,361969,362983,361970,363982,363500,363500,363982,103
97,test,1,inc,1,z,Tue Feb 24 2026 10:41:34 GMT-0600 (Central Standard Time),367310.0,step,800,O,z,z,None,420,205.0,215.0,45,1,1743.7000000029802,365566.299999997,7759,hate,AF,B,365514,365514,363987,364789,363987,365731,365299,365299,365731,104
98,test,1,inc,1,m,Tue Feb 24 2026 10:41:34 GMT-0600 (Central Standard Time),369209.59999999404,kind,900,O,m,m,None,448,234.0,214.0,70,1,1896.699999988079,367312.90000000596,7759,step,AF,B,367381,367381,365734,366649,365734,367631,367167,367167,367631,105
99,test,1,inc,1,m,Tue Feb 24 2026 10:41:34 GMT-0600 (Central Standard Time),371075.799999997,kind,900,O,m,m,None,432,232.0,200.0,94,1,1861.7000000029802,369214.09999999404,7759,film,AF,B,369265,369265,367635,368547,367635,369497,369065,369065,369497,106
100,test,1,con,1,m,Tue Feb 24 2026 10:41:34 GMT-0600 (Central Standard Time),373108.5,rock,1100,O,m,m,None,387,187.0,200.0,76,1,2029.7000000029802,371078.799999997,7759,rock,AF,B,371331,371331,369500,370615,369500,371530,371131,371131,371530,107
101,test,1,inc,1,m,Tue Feb 24 2026 10:41:34 GMT-0600 (Central Standard Time),375224.90000000596,rage,800,O,m,m,None,766,567.0,199.0,93,1,2112.2000000029802,373112.700000003,7759,film,AF,B,373063,373063,371534,372347,371534,373646,372863,372863,373646,108
102,test,1,inc,1,m,Tue Feb 24 2026 10:41:34 GMT-0600 (Central Standard Time),377525.299999997,hate,1100,O,m,m,None,667,464.0,203.0,80,1,2296.2999999970198,375229.0,7759,rock,AF,B,375482,375482,373650,374761,373650,375946,375278,375278,375946,109
103,test,1,con,1,z,Tue Feb 24 2026 10:41:34 GMT-0600 (Central Standard Time),379572.40000000596,brutal,1100,O,z,z,None,405,190.0,215.0,36,1,2041.0,377531.40000000596,7759,brutal,AF,B,377793,377793,375952,377060,375953,377993,377578,377578,377993,110
104,test,1,inc,1,m,Tue Feb 24 2026 10:41:34 GMT-0600 (Central Standard Time),381555.299999997,temper,1000,O,m,m,None,447,248.0,199.0,111,1,1978.7000000029802,379576.59999999404,7759,napkin,AF,B,379727,379727,377998,379011,377998,379976,379528,379528,379976,111
105,test,1,con,1,m,Tue Feb 24 2026 10:41:34 GMT-0600 (Central Standard Time),383522.799999997,bell,800,O,m,m,None,614,401.0,213.0,81,1,1963.5999999940395,381559.200000003,7759,bell,AF,B,381525,381525,379980,380795,379980,381944,381312,381312,381944,112
106,test,1,inc,1,m,Tue Feb 24 2026 10:41:34 GMT-0600 (Central Standard Time),385354.5,rage,800,O,m,m,None,481,266.0,215.0,85,1,1827.5,383527.0,7759,bell,AF,B,383493,383493,381948,382760,381948,383776,383277,383277,383776,113
107,test,1,inc,1,z,Tue Feb 24 2026 10:41:34 GMT-0600 (Central Standard Time),387338.0,jacket,800,O,z,z,None,650,450.0,200.0,5,1,1976.4000000059605,385361.59999999404,7759,elated,AF,B,385293,385293,383783,384590,383783,385759,385092,385092,385759,114
107,test,1,inc,0,z,Tue Feb 24 2026 10:41:34 GMT-0600 (Central Standard Time),389103.0,step,800,O,m,m,None,428,227.0,201.0,21,1,1760.0999999940395,387342.90000000596,7759,love,AF,B,387292,387292,385764,386575,385764,387524,387091,387091,387524,115
108,test,1,inc,1,z,Tue Feb 24 2026 10:41:34 GMT-0600 (Central Standard Time),391202.59999999404,remote,1000,O,z,z,None,566,366.0,200.0,31,1,2091.5999999940395,389111.0,7759,friend,AF,B,389257,389257,387532,388541,387532,389624,389057,389057,389624,116
109,test,1,con,1,m,Tue Feb 24 2026 10:41:34 GMT-0600 (Central Standard Time),393085.200000003,window,1000,O,m,m,None,346,146.0,200.0,123,1,1875.7999999970198,391209.40000000596,7759,window,AF,B,391357,391357,389630,390640,389631,391506,391156,391156,391506,117
110,test,1,con,1,m,Tue Feb 24 2026 10:41:34 GMT-0600 (Central Standard Time),395018.299999997,napkin,1000,O,m,m,None,406,192.0,214.0,107,1,1926.3999999910593,393091.90000000596,7759,napkin,AF,B,393239,393239,391513,392522,391513,393439,393025,393025,393439,118
111,test,1,con,1,m,Tue Feb 24 2026 10:41:34 GMT-0600 (Central Standard Time),396750.200000003,film,800,O,m,m,None,386,186.0,200.0,89,1,1726.7999999970198,395023.40000000596,7759,film,AF,B,394972,394972,393444,394256,393445,395171,394772,394772,395171,119
112,test,1,con,1,z,Tue Feb 24 2026 10:41:34 GMT-0600 (Central Standard Time),398483.40000000596,brutal,800,O,z,z,None,390,190.0,200.0,33,1,1730.5,396752.90000000596,7759,brutal,AF,B,396705,396705,395174,395991,395174,396905,396505,396505,396904,120
113,test,1,inc,1,z,Tue Feb 24 2026 10:41:34 GMT-0600 (Central Standard Time),400583.09999999404,bell,1000,O,z,z,None,561,361.0,200.0,47,1,2090.8999999910593,398492.200000003,7759,hate,AF,B,398638,398638,396913,397922,396914,399004,398438,398438,399004,121
113,test,1,inc,0,z,Tue Feb 24 2026 10:41:34 GMT-0600 (Central Standard Time),402581.90000000596,rock,900,O,m,m,None,553,354.0,199.0,14,1,1995.1000000089407,400586.799999997,7759,kind,AF,B,400637,400637,399008,399922,399008,401003,400437,400437,401003,122
114,test,1,con,1,z,Tue Feb 24 2026 10:41:34 GMT-0600 (Central Standard Time),404598.200000003,elated,1000,O,z,z,None,477,263.0,214.0,3,1,2009.2999999970198,402588.90000000596,7759,elated,AF,B,402753,402753,401010,402020,401010,403019,402539,402539,403019,123
115,test,1,inc,1,m,Tue Feb 24 2026 10:41:34 GMT-0600 (Central Standard Time),406666.5,hate,1100,O,m,m,None,426,226.0,200.0,96,1,2062.4000000059605,404604.09999999404,7759,film,AF,B,404853,404853,403025,404136,403025,405088,404652,404652,405086,124
116,test,1,inc,1,z,Tue Feb 24 2026 10:41:34 GMT-0600 (Central Standard Time),408830.799999997,bell,1000,O,z,z,None,620,421.0,199.0,55,1,2160.0999999940395,406670.700000003,7759,rage,AF,B,406818,406818,405092,406103,405092,407252,406618,406619,407252,125
117,test,1,con,1,z,Tue Feb 24 2026 10:41:34 GMT-0600 (Central Standard Time),410829.299999997,elated,900,O,z,z,None,553,354.0,199.0,2,1,1992.5,408836.799999997,7759,elated,AF,B,408885,408885,407258,408169,407258,409250,408685,408685,409250,126
118,test,1,inc,1,m,Tue Feb 24 2026 10:41:34 GMT-0600 (Central Standard Time),412679.5,elated,800,O,m,m,None,510,295.0,215.0,117,1,1844.5,410835.0,7759,remote,AF,B,410800,410800,409256,410067,409256,411101,410585,410585,411101,127
119,test,1,con,1,z,Tue Feb 24 2026 10:41:34 GMT-0600 (Central Standard Time),414761.700000003,love,1000,O,z,z,None,542,340.0,202.0,19,1,2077.6000000089407,412684.09999999404,7759,love,AF,B,412835,412835,411105,412117,411105,413183,412633,412633,413183,128
