acc_sum,block,block_c,change,condition,correct,correct_response,datetime,endtime,face,project,response,response_time,row_sel,session_number,start_end,starttime,subject_id,task,task_vers,trial
0,prac,1,,1-Back,,,Mon Aug 25 2025 16:20:56 GMT-0500 (Central Daylight Time),,097_m_f_n_a.png,I,space,2819,1,1,,,8063,NNB,B,0
1,prac,1,0.0,1-Back,1,m,Mon Aug 25 2025 16:20:56 GMT-0500 (Central Daylight Time),104465.70000004768,152_y_f_n_a.png,I,m,1614,2,1,2455.7999999523163,102009.90000009537,8063,NNB,B,1
2,prac,1,1.0,1-Back,1,z,Mon Aug 25 2025 16:20:56 GMT-0500 (Central Daylight Time),106731.79999995232,152_y_f_n_a.png,I,z,1480,3,1,2257.5999999046326,104474.20000004768,8063,NNB,B,2
3,prac,1,0.0,1-Back,1,m,Mon Aug 25 2025 16:20:56 GMT-0500 (Central Daylight Time),108530.90000009537,176_o_m_n_a.png,I,m,938,4,1,1791.5,106739.40000009537,8063,NNB,B,3
4,prac,1,0.0,1-Back,1,m,Mon Aug 25 2025 16:20:56 GMT-0500 (Central Daylight Time),110629.90000009537,126_m_m_n_a.png,I,m,1310,5,1,2089.4000000953674,108540.5,8063,NNB,B,4
5,prac,1,1.0,1-Back,1,z,Mon Aug 25 2025 16:20:56 GMT-0500 (Central Daylight Time),112612.5,126_m_m_n_a.png,I,z,1204,6,1,1973.9000000953674,110638.59999990463,8063,NNB,B,5
6,prac,1,0.0,1-Back,1,m,Mon Aug 25 2025 16:20:56 GMT-0500 (Central Daylight Time),114496.0,086_o_f_n_a.png,I,m,1106,7,1,1879.0999999046326,112616.90000009537,8063,NNB,B,6
7,prac,1,0.0,1-Back,1,m,Mon Aug 25 2025 16:20:56 GMT-0500 (Central Daylight Time),116513.09999990463,178_m_m_n_a.png,I,m,1181,8,1,2008.1999998092651,114504.90000009537,8063,NNB,B,7
8,prac,1,0.0,1-Back,1,m,Mon Aug 25 2025 16:20:56 GMT-0500 (Central Daylight Time),118279.09999990463,097_m_f_n_a.png,I,m,1004,9,1,1759.7999999523163,116519.29999995232,8063,NNB,B,8
9,prac,1,1.0,1-Back,1,z,Mon Aug 25 2025 16:20:56 GMT-0500 (Central Daylight Time),119959.40000009537,097_m_f_n_a.png,I,z,892,10,1,1673.1000001430511,118286.29999995232,8063,NNB,B,9
10,prac,1,0.0,1-Back,1,m,Mon Aug 25 2025 16:20:56 GMT-0500 (Central Daylight Time),121741.59999990463,176_o_m_n_a.png,I,m,1002,11,1,1772.7999999523163,119968.79999995232,8063,NNB,B,10
11,prac,1,0.0,1-Back,1,m,Mon Aug 25 2025 16:20:56 GMT-0500 (Central Daylight Time),123626.20000004768,173_y_f_n_a.png,I,m,1025,12,1,1874.4000000953674,121751.79999995232,8063,NNB,B,11
0,test,1,0.0,1-Back,,,Mon Aug 25 2025 16:20:56 GMT-0500 (Central Daylight Time),123626.20000004768,152_y_f_n_a.png,I,space,4407,1,1,1874.4000000953674,121751.79999995232,8063,NNB,B,0
1,test,1,0.0,1-Back,1,m,Mon Aug 25 2025 16:20:56 GMT-0500 (Central Daylight Time),136055.70000004768,029_m_f_n_a.png,I,m,1062,2,1,2076.4000000953674,133979.29999995232,8063,NNB,B,1
2,test,1,0.0,1-Back,1,m,Mon Aug 25 2025 16:20:56 GMT-0500 (Central Daylight Time),137806.20000004768,173_y_f_n_a.png,I,m,735,3,1,1744.4000000953674,136061.79999995232,8063,NNB,B,2
3,test,1,1.0,1-Back,1,z,Mon Aug 25 2025 16:20:56 GMT-0500 (Central Daylight Time),139421.40000009537,173_y_f_n_a.png,I,z,589,4,1,1608.9000000953674,137812.5,8063,NNB,B,3
4,test,1,0.0,1-Back,1,m,Mon Aug 25 2025 16:20:56 GMT-0500 (Central Daylight Time),141038.79999995232,029_m_f_n_a.png,I,m,600,5,1,1609.7000000476837,139429.09999990463,8063,NNB,B,4
5,test,1,0.0,1-Back,1,m,Mon Aug 25 2025 16:20:56 GMT-0500 (Central Daylight Time),142953.70000004768,176_o_m_n_a.png,I,m,885,6,1,1907.7999999523163,141045.90000009537,8063,NNB,B,5
6,test,1,1.0,1-Back,1,z,Mon Aug 25 2025 16:20:56 GMT-0500 (Central Daylight Time),144720.09999990463,176_o_m_n_a.png,I,z,736,7,1,1759.7999999523163,142960.29999995232,8063,NNB,B,6
7,test,1,0.0,1-Back,1,m,Mon Aug 25 2025 16:20:56 GMT-0500 (Central Daylight Time),146536.29999995232,126_m_m_n_a.png,I,m,793,8,1,1808.5,144727.79999995232,8063,NNB,B,7
8,test,1,0.0,1-Back,1,m,Mon Aug 25 2025 16:20:56 GMT-0500 (Central Daylight Time),148434.90000009537,086_o_f_n_a.png,I,m,866,9,1,1890.9000000953674,146544.0,8063,NNB,B,8
9,test,1,0.0,1-Back,1,m,Mon Aug 25 2025 16:20:56 GMT-0500 (Central Daylight Time),150418.40000009537,126_m_m_n_a.png,I,m,958,10,1,1975.9000000953674,148442.5,8063,NNB,B,9
10,test,1,0.0,1-Back,1,m,Mon Aug 25 2025 16:20:56 GMT-0500 (Central Daylight Time),152334.20000004768,153_y_m_n_a.png,I,m,886,11,1,1907.2000000476837,150427.0,8063,NNB,B,10
11,test,1,1.0,1-Back,1,z,Mon Aug 25 2025 16:20:56 GMT-0500 (Central Daylight Time),154067.20000004768,153_y_m_n_a.png,I,z,700,12,1,1724.9000000953674,152342.29999995232,8063,NNB,B,11
12,test,1,0.0,1-Back,1,m,Mon Aug 25 2025 16:20:56 GMT-0500 (Central Daylight Time),155800.5,110_o_f_n_a.png,I,m,714,13,1,1726.4000000953674,154074.09999990463,8063,NNB,B,12
13,test,1,1.0,1-Back,1,z,Mon Aug 25 2025 16:20:56 GMT-0500 (Central Daylight Time),157501.09999990463,110_o_f_n_a.png,I,z,684,14,1,1693.1999998092651,155807.90000009537,8063,NNB,B,13
14,test,1,0.0,1-Back,1,m,Mon Aug 25 2025 16:20:56 GMT-0500 (Central Daylight Time),159399.0,013_y_m_n_a.png,I,m,872,15,1,1891.9000000953674,157507.09999990463,8063,NNB,B,14
15,test,1,0.0,1-Back,1,m,Mon Aug 25 2025 16:20:56 GMT-0500 (Central Daylight Time),161399.59999990463,097_m_f_n_a.png,I,m,966,16,1,1995.8999998569489,159403.70000004768,8063,NNB,B,15
16,test,1,0.0,1-Back,1,m,Mon Aug 25 2025 16:20:56 GMT-0500 (Central Daylight Time),163197.59999990463,065_o_m_n_a.png,I,m,782,17,1,1789.5999999046326,161408.0,8063,NNB,B,16
17,test,1,0.0,1-Back,1,m,Mon Aug 25 2025 16:20:56 GMT-0500 (Central Daylight Time),165014.70000004768,097_m_f_n_a.png,I,m,791,18,1,1808.1000001430511,163206.59999990463,8063,NNB,B,17
0,test,2,0.0,1-Back,,,Mon Aug 25 2025 16:20:56 GMT-0500 (Central Daylight Time),165014.70000004768,126_m_m_n_a.png,I,space,892,1,1,1808.1000001430511,163206.59999990463,8063,NNB,B,0
1,test,2,0.0,1-Back,1,m,Mon Aug 25 2025 16:20:56 GMT-0500 (Central Daylight Time),169710.40000009537,029_m_f_n_a.png,I,m,760,2,1,1770.7000000476837,167939.70000004768,8063,NNB,B,1
2,test,2,1.0,1-Back,1,z,Mon Aug 25 2025 16:20:56 GMT-0500 (Central Daylight Time),171595.90000009537,029_m_f_n_a.png,I,z,850,3,1,1883.1000001430511,169712.79999995232,8063,NNB,B,2
3,test,2,0.0,1-Back,1,m,Mon Aug 25 2025 16:20:56 GMT-0500 (Central Daylight Time),173313.79999995232,126_m_m_n_a.png,I,m,687,4,1,1708.8999998569489,171604.90000009537,8063,NNB,B,3
4,test,2,0.0,1-Back,1,m,Mon Aug 25 2025 16:20:56 GMT-0500 (Central Daylight Time),175445.40000009537,153_y_m_n_a.png,I,m,1100,5,1,2123.100000143051,173322.29999995232,8063,NNB,B,4
5,test,2,0.0,1-Back,1,m,Mon Aug 25 2025 16:20:56 GMT-0500 (Central Daylight Time),177327.09999990463,152_y_f_n_a.png,I,m,851,6,1,1872.3999998569489,175454.70000004768,8063,NNB,B,5
6,test,2,1.0,1-Back,1,z,Mon Aug 25 2025 16:20:56 GMT-0500 (Central Daylight Time),179025.70000004768,152_y_f_n_a.png,I,z,677,7,1,1689.9000000953674,177335.79999995232,8063,NNB,B,6
7,test,2,0.0,1-Back,1,m,Mon Aug 25 2025 16:20:56 GMT-0500 (Central Daylight Time),180791.09999990463,153_y_m_n_a.png,I,m,745,8,1,1758.0,179033.09999990463,8063,NNB,B,7
8,test,2,0.0,1-Back,1,m,Mon Aug 25 2025 16:20:56 GMT-0500 (Central Daylight Time),182559.0,110_o_f_n_a.png,I,m,739,9,1,1762.9000000953674,180796.09999990463,8063,NNB,B,8
9,test,2,0.0,1-Back,1,m,Mon Aug 25 2025 16:20:56 GMT-0500 (Central Daylight Time),184423.70000004768,178_m_m_n_a.png,I,m,836,10,1,1857.6000001430511,182566.09999990463,8063,NNB,B,9
10,test,2,1.0,1-Back,1,z,Mon Aug 25 2025 16:20:56 GMT-0500 (Central Daylight Time),186124.20000004768,178_m_m_n_a.png,I,z,676,11,1,1691.7999999523163,184432.40000009537,8063,NNB,B,10
11,test,2,0.0,1-Back,1,m,Mon Aug 25 2025 16:20:56 GMT-0500 (Central Daylight Time),187989.29999995232,110_o_f_n_a.png,I,m,838,12,1,1856.0999999046326,186133.20000004768,8063,NNB,B,11
11,test,2,0.0,1-Back,0,m,Mon Aug 25 2025 16:20:56 GMT-0500 (Central Daylight Time),190689.59999990463,086_o_f_n_a.png,I,z,1677,13,1,2692.5999999046326,187997.0,8063,NNB,B,12
12,test,2,0.0,1-Back,1,m,Mon Aug 25 2025 16:20:56 GMT-0500 (Central Daylight Time),192571.29999995232,176_o_m_n_a.png,I,m,851,14,1,1875.5,190695.79999995232,8063,NNB,B,13
12,test,2,0.0,1-Back,0,m,Mon Aug 25 2025 16:20:56 GMT-0500 (Central Daylight Time),195169.70000004768,065_o_m_n_a.png,I,z,1565,15,1,2590.2000000476837,192579.5,8063,NNB,B,14
13,test,2,1.0,1-Back,1,z,Mon Aug 25 2025 16:20:56 GMT-0500 (Central Daylight Time),197270.29999995232,065_o_m_n_a.png,I,z,1068,16,1,2097.7000000476837,195172.59999990463,8063,NNB,B,15
14,test,2,0.0,1-Back,1,m,Mon Aug 25 2025 16:20:56 GMT-0500 (Central Daylight Time),198986.79999995232,013_y_m_n_a.png,I,m,686,17,1,1709.2000000476837,197277.59999990463,8063,NNB,B,16
15,test,2,1.0,1-Back,1,z,Mon Aug 25 2025 16:20:56 GMT-0500 (Central Daylight Time),201134.29999995232,013_y_m_n_a.png,I,z,1129,18,1,2138.7000000476837,198995.59999990463,8063,NNB,B,17
0,test,3,1.0,1-Back,,,Mon Aug 25 2025 16:20:56 GMT-0500 (Central Daylight Time),201134.29999995232,173_y_f_n_a.png,I,space,975,1,1,2138.7000000476837,198995.59999990463,8063,NNB,B,0
1,test,3,0.0,1-Back,1,m,Mon Aug 25 2025 16:20:56 GMT-0500 (Central Daylight Time),205967.5,065_o_m_n_a.png,I,m,736,1,1,1758.9000000953674,204208.59999990463,8063,NNB,B,1
2,test,3,1.0,1-Back,1,z,Mon Aug 25 2025 16:20:56 GMT-0500 (Central Daylight Time),207750.70000004768,065_o_m_n_a.png,I,z,751,1,1,1777.5,205973.20000004768,8063,NNB,B,2
3,test,3,0.0,1-Back,1,m,Mon Aug 25 2025 16:20:56 GMT-0500 (Central Daylight Time),209316.70000004768,097_m_f_n_a.png,I,m,543,1,1,1558.7999999523163,207757.90000009537,8063,NNB,B,3
4,test,3,1.0,1-Back,1,z,Mon Aug 25 2025 16:20:56 GMT-0500 (Central Daylight Time),211115.29999995232,097_m_f_n_a.png,I,z,774,1,1,1792.2000000476837,209323.09999990463,8063,NNB,B,4
5,test,3,0.0,1-Back,1,m,Mon Aug 25 2025 16:20:56 GMT-0500 (Central Daylight Time),212815.29999995232,110_o_f_n_a.png,I,m,667,1,1,1692.8999998569489,211122.40000009537,8063,NNB,B,5
6,test,3,0.0,1-Back,1,m,Mon Aug 25 2025 16:20:56 GMT-0500 (Central Daylight Time),214546.90000009537,153_y_m_n_a.png,I,m,717,1,1,1723.4000000953674,212823.5,8063,NNB,B,6
6,test,3,0.0,1-Back,0,m,Mon Aug 25 2025 16:20:56 GMT-0500 (Central Daylight Time),216313.09999990463,110_o_f_n_a.png,I,z,734,1,1,1763.5,214549.59999990463,8063,NNB,B,7
7,test,3,0.0,1-Back,1,m,Mon Aug 25 2025 16:20:56 GMT-0500 (Central Daylight Time),218129.20000004768,013_y_m_n_a.png,I,m,785,1,1,1807.7999999523163,216321.40000009537,8063,NNB,B,8
8,test,3,1.0,1-Back,1,z,Mon Aug 25 2025 16:20:56 GMT-0500 (Central Daylight Time),220413.0,013_y_m_n_a.png,I,z,1257,1,1,2273.2999999523163,218139.70000004768,8063,NNB,B,9
9,test,3,0.0,1-Back,1,m,Mon Aug 25 2025 16:20:56 GMT-0500 (Central Daylight Time),222095.29999995232,029_m_f_n_a.png,I,m,656,1,1,1675.7999999523163,220419.5,8063,NNB,B,10
10,test,3,0.0,1-Back,1,m,Mon Aug 25 2025 16:20:56 GMT-0500 (Central Daylight Time),224010.90000009537,152_y_f_n_a.png,I,m,884,1,1,1909.1000001430511,222101.79999995232,8063,NNB,B,11
11,test,3,1.0,1-Back,1,z,Mon Aug 25 2025 16:20:56 GMT-0500 (Central Daylight Time),225710.20000004768,152_y_f_n_a.png,I,z,679,1,1,1691.5,224018.70000004768,8063,NNB,B,12
12,test,3,0.0,1-Back,1,m,Mon Aug 25 2025 16:20:56 GMT-0500 (Central Daylight Time),227643.79999995232,029_m_f_n_a.png,I,m,907,1,1,1924.7999999523163,225719.0,8063,NNB,B,13
13,test,3,0.0,1-Back,1,m,Mon Aug 25 2025 16:20:56 GMT-0500 (Central Daylight Time),229492.09999990463,126_m_m_n_a.png,I,m,823,1,1,1843.0,227649.09999990463,8063,NNB,B,14
14,test,3,1.0,1-Back,1,z,Mon Aug 25 2025 16:20:56 GMT-0500 (Central Daylight Time),231475.0,126_m_m_n_a.png,I,z,951,1,1,1973.9000000953674,229501.09999990463,8063,NNB,B,15
15,test,3,0.0,1-Back,1,m,Mon Aug 25 2025 16:20:56 GMT-0500 (Central Daylight Time),233324.5,086_o_f_n_a.png,I,m,829,1,1,1839.5,231485.0,8063,NNB,B,16
16,test,3,1.0,1-Back,1,z,Mon Aug 25 2025 16:20:56 GMT-0500 (Central Daylight Time),235157.29999995232,086_o_f_n_a.png,I,z,801,1,1,1828.0,233329.29999995232,8063,NNB,B,17
0,test,4,1.0,1-Back,,,Mon Aug 25 2025 16:20:56 GMT-0500 (Central Daylight Time),235157.29999995232,097_m_f_n_a.png,I,space,956,1,1,1828.0,233329.29999995232,8063,NNB,B,0
1,test,4,0.0,1-Back,1,m,Mon Aug 25 2025 16:20:56 GMT-0500 (Central Daylight Time),239905.29999995232,065_o_m_n_a.png,I,m,676,2,1,1692.0,238213.29999995232,8063,NNB,B,1
2,test,4,0.0,1-Back,1,m,Mon Aug 25 2025 16:20:56 GMT-0500 (Central Daylight Time),242139.5,097_m_f_n_a.png,I,m,1200,3,1,2225.7999999523163,239913.70000004768,8063,NNB,B,2
3,test,4,0.0,1-Back,1,m,Mon Aug 25 2025 16:20:56 GMT-0500 (Central Daylight Time),244038.79999995232,110_o_f_n_a.png,I,m,872,4,1,1889.7999999523163,242149.0,8063,NNB,B,3
4,test,4,1.0,1-Back,1,z,Mon Aug 25 2025 16:20:56 GMT-0500 (Central Daylight Time),245720.40000009537,110_o_f_n_a.png,I,z,660,5,1,1673.7000000476837,244046.70000004768,8063,NNB,B,4
5,test,4,0.0,1-Back,1,m,Mon Aug 25 2025 16:20:56 GMT-0500 (Central Daylight Time),247437.09999990463,152_y_f_n_a.png,I,m,691,6,1,1711.0,245726.09999990463,8063,NNB,B,5
6,test,4,0.0,1-Back,1,m,Mon Aug 25 2025 16:20:56 GMT-0500 (Central Daylight Time),249270.59999990463,153_y_m_n_a.png,I,m,815,7,1,1827.5,247443.09999990463,8063,NNB,B,6
7,test,4,1.0,1-Back,1,z,Mon Aug 25 2025 16:20:56 GMT-0500 (Central Daylight Time),250902.70000004768,153_y_m_n_a.png,I,z,614,8,1,1626.4000000953674,249276.29999995232,8063,NNB,B,7
8,test,4,0.0,1-Back,1,m,Mon Aug 25 2025 16:20:56 GMT-0500 (Central Daylight Time),252785.20000004768,152_y_f_n_a.png,I,m,860,9,1,1874.7999999523163,250910.40000009537,8063,NNB,B,8
9,test,4,0.0,1-Back,1,m,Mon Aug 25 2025 16:20:56 GMT-0500 (Central Daylight Time),254867.20000004768,178_m_m_n_a.png,I,m,1057,10,1,2073.7000000476837,252793.5,8063,NNB,B,9
10,test,4,1.0,1-Back,1,z,Mon Aug 25 2025 16:20:56 GMT-0500 (Central Daylight Time),256651.29999995232,178_m_m_n_a.png,I,z,751,11,1,1778.2999999523163,254873.0,8063,NNB,B,10
11,test,4,0.0,1-Back,1,m,Mon Aug 25 2025 16:20:56 GMT-0500 (Central Daylight Time),258469.29999995232,086_o_f_n_a.png,I,m,792,12,1,1809.5999999046326,256659.70000004768,8063,NNB,B,11
12,test,4,0.0,1-Back,1,m,Mon Aug 25 2025 16:20:56 GMT-0500 (Central Daylight Time),260317.20000004768,176_o_m_n_a.png,I,m,817,13,1,1843.1000001430511,258474.09999990463,8063,NNB,B,12
13,test,4,0.0,1-Back,1,m,Mon Aug 25 2025 16:20:56 GMT-0500 (Central Daylight Time),262215.40000009537,086_o_f_n_a.png,I,m,878,14,1,1890.1000001430511,260325.29999995232,8063,NNB,B,13
14,test,4,0.0,1-Back,1,m,Mon Aug 25 2025 16:20:56 GMT-0500 (Central Daylight Time),263915.90000009537,173_y_f_n_a.png,I,m,666,15,1,1695.2000000476837,262220.7000000477,8063,NNB,B,14
15,test,4,1.0,1-Back,1,z,Mon Aug 25 2025 16:20:56 GMT-0500 (Central Daylight Time),265580.7999999523,173_y_f_n_a.png,I,z,637,16,1,1658.2000000476837,263922.59999990463,8063,NNB,B,15
16,test,4,0.0,1-Back,1,m,Mon Aug 25 2025 16:20:56 GMT-0500 (Central Daylight Time),267413.0,029_m_f_n_a.png,I,m,811,17,1,1824.7999999523163,265588.2000000477,8063,NNB,B,16
16,test,4,1.0,1-Back,0,z,Mon Aug 25 2025 16:20:56 GMT-0500 (Central Daylight Time),269281.09999990463,029_m_f_n_a.png,I,m,845,18,1,1862.1999998092651,267418.90000009537,8063,NNB,B,17
0,test,5,1.0,1-Back,,,Mon Aug 25 2025 16:20:56 GMT-0500 (Central Daylight Time),269281.09999990463,176_o_m_n_a.png,I,space,883,1,1,1862.1999998092651,267418.90000009537,8063,NNB,B,0
1,test,5,1.0,1-Back,1,z,Mon Aug 25 2025 16:20:56 GMT-0500 (Central Daylight Time),274162.0,176_o_m_n_a.png,I,z,932,2,1,1960.0999999046326,272201.90000009537,8063,NNB,B,1
2,test,5,0.0,1-Back,1,m,Mon Aug 25 2025 16:20:56 GMT-0500 (Central Daylight Time),275745.2000000477,152_y_f_n_a.png,I,m,560,3,1,1576.1000001430511,274169.09999990463,8063,NNB,B,2
3,test,5,0.0,1-Back,1,m,Mon Aug 25 2025 16:20:56 GMT-0500 (Central Daylight Time),277528.2999999523,153_y_m_n_a.png,I,m,761,4,1,1775.2000000476837,275753.09999990463,8063,NNB,B,3
4,test,5,0.0,1-Back,1,m,Mon Aug 25 2025 16:20:56 GMT-0500 (Central Daylight Time),279160.7000000477,152_y_f_n_a.png,I,m,610,5,1,1624.2000000476837,277536.5,8063,NNB,B,4
5,test,5,0.0,1-Back,1,m,Mon Aug 25 2025 16:20:56 GMT-0500 (Central Daylight Time),280928.2000000477,126_m_m_n_a.png,I,m,739,6,1,1758.7999999523163,279169.40000009537,8063,NNB,B,5
6,test,5,1.0,1-Back,1,z,Mon Aug 25 2025 16:20:56 GMT-0500 (Central Daylight Time),282493.7999999523,126_m_m_n_a.png,I,z,549,7,1,1558.2999999523163,280935.5,8063,NNB,B,6
7,test,5,0.0,1-Back,1,m,Mon Aug 25 2025 16:20:56 GMT-0500 (Central Daylight Time),284342.0,173_y_f_n_a.png,I,m,822,8,1,1839.7999999523163,282502.2000000477,8063,NNB,B,7
8,test,5,0.0,1-Back,1,m,Mon Aug 25 2025 16:20:56 GMT-0500 (Central Daylight Time),286110.0,013_y_m_n_a.png,I,m,751,9,1,1760.4000000953674,284349.59999990463,8063,NNB,B,8
9,test,5,0.0,1-Back,1,m,Mon Aug 25 2025 16:20:56 GMT-0500 (Central Daylight Time),288444.0,173_y_f_n_a.png,I,m,1310,10,1,2327.9000000953674,286116.09999990463,8063,NNB,B,9
10,test,5,0.0,1-Back,1,m,Mon Aug 25 2025 16:20:56 GMT-0500 (Central Daylight Time),290224.09999990463,086_o_f_n_a.png,I,m,753,11,1,1772.1999998092651,288451.90000009537,8063,NNB,B,10
11,test,5,1.0,1-Back,1,z,Mon Aug 25 2025 16:20:56 GMT-0500 (Central Daylight Time),292091.40000009537,086_o_f_n_a.png,I,z,841,12,1,1859.7000000476837,290231.7000000477,8063,NNB,B,11
12,test,5,0.0,1-Back,1,m,Mon Aug 25 2025 16:20:56 GMT-0500 (Central Daylight Time),293670.7000000477,065_o_m_n_a.png,I,m,553,13,1,1572.5,292098.2000000477,8063,NNB,B,12
13,test,5,0.0,1-Back,1,m,Mon Aug 25 2025 16:20:56 GMT-0500 (Central Daylight Time),295321.0,097_m_f_n_a.png,I,m,627,14,1,1647.0,293674.0,8063,NNB,B,13
14,test,5,1.0,1-Back,1,z,Mon Aug 25 2025 16:20:56 GMT-0500 (Central Daylight Time),297104.40000009537,097_m_f_n_a.png,I,z,759,15,1,1775.4000000953674,295329.0,8063,NNB,B,14
15,test,5,0.0,1-Back,1,m,Mon Aug 25 2025 16:20:56 GMT-0500 (Central Daylight Time),298987.90000009537,065_o_m_n_a.png,I,m,851,16,1,1875.2000000476837,297112.7000000477,8063,NNB,B,15
16,test,5,0.0,1-Back,1,m,Mon Aug 25 2025 16:20:56 GMT-0500 (Central Daylight Time),300837.5,029_m_f_n_a.png,I,m,832,17,1,1845.2000000476837,298992.2999999523,8063,NNB,B,16
17,test,5,0.0,1-Back,1,m,Mon Aug 25 2025 16:20:56 GMT-0500 (Central Daylight Time),302519.7000000477,178_m_m_n_a.png,I,m,653,18,1,1674.7999999523163,300844.90000009537,8063,NNB,B,17
0,prac,1,0.0,2-Back,,,Mon Aug 25 2025 16:20:56 GMT-0500 (Central Daylight Time),302519.7000000477,013_y_m_n_a.png,I,space,2374,1,1,1674.7999999523163,300844.90000009537,8063,NNB,B,0
0,prac,1,0.0,2-Back,,,Mon Aug 25 2025 16:20:56 GMT-0500 (Central Daylight Time),302519.7000000477,029_m_f_n_a.png,I,space,2374,2,1,1674.7999999523163,300844.90000009537,8063,NNB,B,0
1,prac,1,1.0,2-Back,1,m,Mon Aug 25 2025 16:20:56 GMT-0500 (Central Daylight Time),393274.2000000477,065_o_m_n_a.png,I,m,1575,3,1,2424.2999999523163,390849.90000009537,8063,NNB,B,1
2,prac,1,0.0,2-Back,1,m,Mon Aug 25 2025 16:20:56 GMT-0500 (Central Daylight Time),395092.90000009537,086_o_f_n_a.png,I,m,945,4,1,1809.4000000953674,393283.5,8063,NNB,B,2
3,prac,1,0.0,2-Back,1,z,Mon Aug 25 2025 16:20:56 GMT-0500 (Central Daylight Time),396622.59999990463,065_o_m_n_a.png,I,z,752,5,1,1522.0999999046326,395100.5,8063,NNB,B,3
4,prac,1,1.0,2-Back,1,z,Mon Aug 25 2025 16:20:56 GMT-0500 (Central Daylight Time),398322.59999990463,086_o_f_n_a.png,I,z,910,6,1,1691.5,396631.09999990463,8063,NNB,B,4
4,prac,1,0.0,2-Back,0,m,Mon Aug 25 2025 16:20:56 GMT-0500 (Central Daylight Time),400854.7000000477,178_m_m_n_a.png,I,z,1676,7,1,2525.2000000476837,398329.5,8063,NNB,B,5
5,prac,1,0.0,2-Back,1,m,Mon Aug 25 2025 16:20:56 GMT-0500 (Central Daylight Time),402790.09999990463,176_o_m_n_a.png,I,m,1103,8,1,1927.1999998092651,400862.90000009537,8063,NNB,B,6
6,prac,1,0.0,2-Back,1,m,Mon Aug 25 2025 16:20:56 GMT-0500 (Central Daylight Time),404986.5,173_y_f_n_a.png,I,m,1344,9,1,2187.7000000476837,402798.7999999523,8063,NNB,B,7
6,prac,1,1.0,2-Back,0,z,Mon Aug 25 2025 16:20:56 GMT-0500 (Central Daylight Time),406754.90000009537,176_o_m_n_a.png,I,m,992,10,1,1759.8000001907349,404995.09999990463,8063,NNB,B,8
7,prac,1,0.0,2-Back,1,m,Mon Aug 25 2025 16:20:56 GMT-0500 (Central Daylight Time),409186.0,152_y_f_n_a.png,I,m,1577,11,1,2421.2000000476837,406764.7999999523,8063,NNB,B,9
8,prac,1,0.0,2-Back,1,m,Mon Aug 25 2025 16:20:56 GMT-0500 (Central Daylight Time),410918.7999999523,178_m_m_n_a.png,I,m,952,12,1,1724.5,409194.2999999523,8063,NNB,B,10
0,test,1,0.0,2-Back,,,Mon Aug 25 2025 16:20:56 GMT-0500 (Central Daylight Time),410918.7999999523,153_y_m_n_a.png,I,space,4283,1,1,1724.5,409194.2999999523,8063,NNB,B,0
0,test,1,0.0,2-Back,,,Mon Aug 25 2025 16:20:56 GMT-0500 (Central Daylight Time),410918.7999999523,153_y_m_n_a.png,I,space,4283,2,1,1724.5,409194.2999999523,8063,NNB,B,0
1,test,1,0.0,2-Back,1,m,Mon Aug 25 2025 16:20:56 GMT-0500 (Central Daylight Time),427979.90000009537,086_o_f_n_a.png,I,m,851,3,1,1875.9000000953674,426104.0,8063,NNB,B,1
2,test,1,0.0,2-Back,1,m,Mon Aug 25 2025 16:20:56 GMT-0500 (Central Daylight Time),429862.59999990463,126_m_m_n_a.png,I,m,849,4,1,1875.6999998092651,427986.90000009537,8063,NNB,B,2
3,test,1,1.0,2-Back,1,z,Mon Aug 25 2025 16:20:56 GMT-0500 (Central Daylight Time),431712.0,086_o_f_n_a.png,I,z,821,5,1,1840.7999999523163,429871.2000000477,8063,NNB,B,3
4,test,1,0.0,2-Back,1,m,Mon Aug 25 2025 16:20:56 GMT-0500 (Central Daylight Time),433744.40000009537,152_y_f_n_a.png,I,m,1001,6,1,2026.6000001430511,431717.7999999523,8063,NNB,B,4
5,test,1,0.0,2-Back,1,m,Mon Aug 25 2025 16:20:56 GMT-0500 (Central Daylight Time),436677.09999990463,126_m_m_n_a.png,I,m,1916,7,1,2924.7999999523163,433752.2999999523,8063,NNB,B,5
6,test,1,1.0,2-Back,1,z,Mon Aug 25 2025 16:20:56 GMT-0500 (Central Daylight Time),438741.7999999523,152_y_f_n_a.png,I,z,1044,8,1,2058.7999999523163,436683.0,8063,NNB,B,6
7,test,1,0.0,2-Back,1,m,Mon Aug 25 2025 16:20:56 GMT-0500 (Central Daylight Time),441008.5,013_y_m_n_a.png,I,m,1235,9,1,2262.2000000476837,438746.2999999523,8063,NNB,B,7
8,test,1,0.0,2-Back,1,m,Mon Aug 25 2025 16:20:56 GMT-0500 (Central Daylight Time),442942.59999990463,110_o_f_n_a.png,I,m,916,10,1,1927.7999999523163,441014.7999999523,8063,NNB,B,8
8,test,1,1.0,2-Back,0,z,Mon Aug 25 2025 16:20:56 GMT-0500 (Central Daylight Time),445307.90000009537,013_y_m_n_a.png,I,m,1342,11,1,2358.5,442949.40000009537,8063,NNB,B,9
9,test,1,0.0,2-Back,1,m,Mon Aug 25 2025 16:20:56 GMT-0500 (Central Daylight Time),447708.2000000477,029_m_f_n_a.png,I,m,1376,12,1,2393.2000000476837,445315.0,8063,NNB,B,10
9,test,1,0.0,2-Back,0,m,Mon Aug 25 2025 16:20:56 GMT-0500 (Central Daylight Time),449906.2999999523,029_m_f_n_a.png,I,z,1176,13,1,2192.7000000476837,447713.59999990463,8063,NNB,B,11
10,test,1,0.0,2-Back,1,m,Mon Aug 25 2025 16:20:56 GMT-0500 (Central Daylight Time),452538.2999999523,065_o_m_n_a.png,I,m,1608,14,1,2624.899999856949,449913.40000009537,8063,NNB,B,12
11,test,1,0.0,2-Back,1,m,Mon Aug 25 2025 16:20:56 GMT-0500 (Central Daylight Time),454621.2999999523,110_o_f_n_a.png,I,m,1056,15,1,2076.899999856949,452544.40000009537,8063,NNB,B,13
11,test,1,1.0,2-Back,0,z,Mon Aug 25 2025 16:20:56 GMT-0500 (Central Daylight Time),457653.2000000477,065_o_m_n_a.png,I,None,2015,16,1,3022.5,454630.7000000477,8063,NNB,B,14
12,test,1,0.0,2-Back,1,m,Mon Aug 25 2025 16:20:56 GMT-0500 (Central Daylight Time),459652.59999990463,097_m_f_n_a.png,I,m,973,17,1,1983.8999998569489,457668.7000000477,8063,NNB,B,15
13,test,1,0.0,2-Back,1,m,Mon Aug 25 2025 16:20:56 GMT-0500 (Central Daylight Time),461818.0,178_m_m_n_a.png,I,m,1135,18,1,2156.5999999046326,459661.40000009537,8063,NNB,B,16
0,test,2,0.0,2-Back,,,Mon Aug 25 2025 16:20:56 GMT-0500 (Central Daylight Time),461818.0,178_m_m_n_a.png,I,space,944,1,1,2156.5999999046326,459661.40000009537,8063,NNB,B,0
0,test,2,0.0,2-Back,,,Mon Aug 25 2025 16:20:56 GMT-0500 (Central Daylight Time),461818.0,173_y_f_n_a.png,I,space,944,2,1,2156.5999999046326,459661.40000009537,8063,NNB,B,0
1,test,2,1.0,2-Back,1,z,Mon Aug 25 2025 16:20:56 GMT-0500 (Central Daylight Time),469965.2999999523,178_m_m_n_a.png,I,z,1054,3,1,2076.899999856949,467888.40000009537,8063,NNB,B,1
2,test,2,0.0,2-Back,1,m,Mon Aug 25 2025 16:20:56 GMT-0500 (Central Daylight Time),471765.7000000477,097_m_f_n_a.png,I,m,768,4,1,1797.9000000953674,469967.7999999523,8063,NNB,B,2
3,test,2,0.0,2-Back,1,m,Mon Aug 25 2025 16:20:56 GMT-0500 (Central Daylight Time),474331.0,173_y_f_n_a.png,I,m,1535,5,1,2559.2000000476837,471771.7999999523,8063,NNB,B,3
4,test,2,0.0,2-Back,1,m,Mon Aug 25 2025 16:20:56 GMT-0500 (Central Daylight Time),476246.40000009537,065_o_m_n_a.png,I,m,886,6,1,1906.2000000476837,474340.2000000477,8063,NNB,B,4
5,test,2,0.0,2-Back,1,m,Mon Aug 25 2025 16:20:56 GMT-0500 (Central Daylight Time),478397.2000000477,152_y_f_n_a.png,I,m,1131,7,1,2144.2000000476837,476253.0,8063,NNB,B,5
6,test,2,1.0,2-Back,1,z,Mon Aug 25 2025 16:20:56 GMT-0500 (Central Daylight Time),480795.5,065_o_m_n_a.png,I,z,1368,8,1,2389.7999999523163,478405.7000000477,8063,NNB,B,6
7,test,2,0.0,2-Back,1,m,Mon Aug 25 2025 16:20:56 GMT-0500 (Central Daylight Time),482762.7000000477,013_y_m_n_a.png,I,m,935,9,1,1957.7000000476837,480805.0,8063,NNB,B,7
7,test,2,0.0,2-Back,0,m,Mon Aug 25 2025 16:20:56 GMT-0500 (Central Daylight Time),485795.5,013_y_m_n_a.png,I,None,2016,10,1,3025.2999999523163,482770.2000000477,8063,NNB,B,8
7,test,2,0.0,2-Back,0,m,Mon Aug 25 2025 16:20:56 GMT-0500 (Central Daylight Time),487561.09999990463,029_m_f_n_a.png,I,z,737,11,1,1759.2999999523163,485801.7999999523,8063,NNB,B,9
8,test,2,0.0,2-Back,1,m,Mon Aug 25 2025 16:20:56 GMT-0500 (Central Daylight Time),490143.7999999523,173_y_f_n_a.png,I,m,1561,12,1,2576.0,487567.7999999523,8063,NNB,B,10
9,test,2,1.0,2-Back,1,z,Mon Aug 25 2025 16:20:56 GMT-0500 (Central Daylight Time),492342.5,029_m_f_n_a.png,I,z,1179,13,1,2191.7000000476837,490150.7999999523,8063,NNB,B,11
10,test,2,0.0,2-Back,1,m,Mon Aug 25 2025 16:20:56 GMT-0500 (Central Daylight Time),494525.0,176_o_m_n_a.png,I,m,1166,14,1,2176.0999999046326,492348.90000009537,8063,NNB,B,12
11,test,2,0.0,2-Back,1,m,Mon Aug 25 2025 16:20:56 GMT-0500 (Central Daylight Time),496875.09999990463,176_o_m_n_a.png,I,m,1318,15,1,2346.399999856949,494528.7000000477,8063,NNB,B,13
12,test,2,0.0,2-Back,1,m,Mon Aug 25 2025 16:20:56 GMT-0500 (Central Daylight Time),498890.7000000477,110_o_f_n_a.png,I,m,994,16,1,2007.9000000953674,496882.7999999523,8063,NNB,B,14
13,test,2,0.0,2-Back,1,m,Mon Aug 25 2025 16:20:56 GMT-0500 (Central Daylight Time),500889.7000000477,126_m_m_n_a.png,I,m,967,17,1,1991.2999999523163,498898.40000009537,8063,NNB,B,15
14,test,2,1.0,2-Back,1,z,Mon Aug 25 2025 16:20:56 GMT-0500 (Central Daylight Time),503223.7000000477,110_o_f_n_a.png,I,z,1300,18,1,2327.5,500896.2000000477,8063,NNB,B,16
0,test,3,1.0,2-Back,,,Mon Aug 25 2025 16:20:56 GMT-0500 (Central Daylight Time),503223.7000000477,153_y_m_n_a.png,I,space,1404,1,1,2327.5,500896.2000000477,8063,NNB,B,0
0,test,3,1.0,2-Back,,,Mon Aug 25 2025 16:20:56 GMT-0500 (Central Daylight Time),503223.7000000477,153_y_m_n_a.png,I,space,1404,2,1,2327.5,500896.2000000477,8063,NNB,B,0
1,test,3,0.0,2-Back,1,m,Mon Aug 25 2025 16:20:56 GMT-0500 (Central Daylight Time),511703.09999990463,110_o_f_n_a.png,I,m,920,3,1,1941.1999998092651,509761.90000009537,8063,NNB,B,1
2,test,3,0.0,2-Back,1,m,Mon Aug 25 2025 16:20:56 GMT-0500 (Central Daylight Time),513686.7999999523,178_m_m_n_a.png,I,m,954,4,1,1976.3999998569489,511710.40000009537,8063,NNB,B,2
3,test,3,1.0,2-Back,1,z,Mon Aug 25 2025 16:20:56 GMT-0500 (Central Daylight Time),515752.59999990463,110_o_f_n_a.png,I,z,1037,5,1,2059.399999856949,513693.2000000477,8063,NNB,B,3
4,test,3,0.0,2-Back,1,m,Mon Aug 25 2025 16:20:56 GMT-0500 (Central Daylight Time),517619.0,013_y_m_n_a.png,I,m,834,6,1,1859.4000000953674,515759.59999990463,8063,NNB,B,4
4,test,3,0.0,2-Back,0,m,Mon Aug 25 2025 16:20:56 GMT-0500 (Central Daylight Time),519817.7999999523,178_m_m_n_a.png,I,z,1175,7,1,2190.5,517627.2999999523,8063,NNB,B,5
4,test,3,1.0,2-Back,0,z,Mon Aug 25 2025 16:20:56 GMT-0500 (Central Daylight Time),521766.7000000477,013_y_m_n_a.png,I,m,922,8,1,1941.2999999523163,519825.40000009537,8063,NNB,B,6
5,test,3,0.0,2-Back,1,m,Mon Aug 25 2025 16:20:56 GMT-0500 (Central Daylight Time),523849.2999999523,173_y_f_n_a.png,I,m,1060,9,1,2074.899999856949,521774.40000009537,8063,NNB,B,7
6,test,3,0.0,2-Back,1,m,Mon Aug 25 2025 16:20:56 GMT-0500 (Central Daylight Time),525699.5,126_m_m_n_a.png,I,m,817,10,1,1840.9000000953674,523858.59999990463,8063,NNB,B,8
6,test,3,1.0,2-Back,0,z,Mon Aug 25 2025 16:20:56 GMT-0500 (Central Daylight Time),527382.0999999046,173_y_f_n_a.png,I,m,665,11,1,1676.3999998569489,525705.7000000477,8063,NNB,B,9
7,test,3,1.0,2-Back,1,z,Mon Aug 25 2025 16:20:56 GMT-0500 (Central Daylight Time),529330.7000000477,126_m_m_n_a.png,I,z,926,12,1,1942.1000001430511,527388.5999999046,8063,NNB,B,10
8,test,3,0.0,2-Back,1,m,Mon Aug 25 2025 16:20:56 GMT-0500 (Central Daylight Time),531382.2000000477,110_o_f_n_a.png,I,m,1034,13,1,2044.5,529337.7000000477,8063,NNB,B,11
9,test,3,0.0,2-Back,1,m,Mon Aug 25 2025 16:20:56 GMT-0500 (Central Daylight Time),533262.5,097_m_f_n_a.png,I,m,865,14,1,1874.2999999523163,531388.2000000477,8063,NNB,B,12
10,test,3,0.0,2-Back,1,m,Mon Aug 25 2025 16:20:56 GMT-0500 (Central Daylight Time),535363.2000000477,065_o_m_n_a.png,I,m,1084,15,1,2092.7000000476837,533270.5,8063,NNB,B,13
11,test,3,1.0,2-Back,1,z,Mon Aug 25 2025 16:20:56 GMT-0500 (Central Daylight Time),537327.2999999523,097_m_f_n_a.png,I,z,946,16,1,1958.0999999046326,535369.2000000477,8063,NNB,B,14
12,test,3,0.0,2-Back,1,m,Mon Aug 25 2025 16:20:56 GMT-0500 (Central Daylight Time),539260.9000000954,086_o_f_n_a.png,I,m,908,17,1,1925.5,537335.4000000954,8063,NNB,B,15
13,test,3,0.0,2-Back,1,m,Mon Aug 25 2025 16:20:56 GMT-0500 (Central Daylight Time),541944.2999999523,086_o_f_n_a.png,I,m,1662,18,1,2676.0999999046326,539268.2000000477,8063,NNB,B,16
0,test,4,0.0,2-Back,,,Mon Aug 25 2025 16:20:56 GMT-0500 (Central Daylight Time),541944.2999999523,176_o_m_n_a.png,I,space,995,1,1,2676.0999999046326,539268.2000000477,8063,NNB,B,0
0,test,4,0.0,2-Back,,,Mon Aug 25 2025 16:20:56 GMT-0500 (Central Daylight Time),541944.2999999523,152_y_f_n_a.png,I,space,995,2,1,2676.0999999046326,539268.2000000477,8063,NNB,B,0
1,test,4,1.0,2-Back,1,z,Mon Aug 25 2025 16:20:56 GMT-0500 (Central Daylight Time),550024.2000000477,176_o_m_n_a.png,I,z,852,3,1,1873.7000000476837,548150.5,8063,NNB,B,1
2,test,4,1.0,2-Back,1,z,Mon Aug 25 2025 16:20:56 GMT-0500 (Central Daylight Time),551955.4000000954,152_y_f_n_a.png,I,z,914,4,1,1924.4000000953674,550031.0,8063,NNB,B,2
3,test,4,0.0,2-Back,1,m,Mon Aug 25 2025 16:20:56 GMT-0500 (Central Daylight Time),553739.2999999523,110_o_f_n_a.png,I,m,758,5,1,1779.8999998569489,551959.4000000954,8063,NNB,B,3
4,test,4,0.0,2-Back,1,m,Mon Aug 25 2025 16:20:56 GMT-0500 (Central Daylight Time),556372.5999999046,110_o_f_n_a.png,I,m,1601,6,1,2626.5,553746.0999999046,8063,NNB,B,4
4,test,4,0.0,2-Back,0,m,Mon Aug 25 2025 16:20:56 GMT-0500 (Central Daylight Time),558354.5999999046,029_m_f_n_a.png,I,z,949,7,1,1974.5999999046326,556380.0,8063,NNB,B,5
5,test,4,0.0,2-Back,1,m,Mon Aug 25 2025 16:20:56 GMT-0500 (Central Daylight Time),560170.4000000954,013_y_m_n_a.png,I,m,783,8,1,1807.8000001907349,558362.5999999046,8063,NNB,B,6
5,test,4,1.0,2-Back,0,z,Mon Aug 25 2025 16:20:56 GMT-0500 (Central Daylight Time),562136.5999999046,029_m_f_n_a.png,I,m,937,9,1,1963.3999998569489,560173.2000000477,8063,NNB,B,7
6,test,4,0.0,2-Back,1,m,Mon Aug 25 2025 16:20:56 GMT-0500 (Central Daylight Time),563987.2999999523,126_m_m_n_a.png,I,m,817,10,1,1844.7000000476837,562142.5999999046,8063,NNB,B,8
7,test,4,0.0,2-Back,1,m,Mon Aug 25 2025 16:20:56 GMT-0500 (Central Daylight Time),565870.7999999523,013_y_m_n_a.png,I,m,857,11,1,1875.0,563995.7999999523,8063,NNB,B,9
8,test,4,0.0,2-Back,1,m,Mon Aug 25 2025 16:20:56 GMT-0500 (Central Daylight Time),568036.0,086_o_f_n_a.png,I,m,1150,12,1,2158.5999999046326,565877.4000000954,8063,NNB,B,10
9,test,4,0.0,2-Back,1,m,Mon Aug 25 2025 16:20:56 GMT-0500 (Central Daylight Time),569885.0,153_y_m_n_a.png,I,m,817,13,1,1841.5,568043.5,8063,NNB,B,11
10,test,4,1.0,2-Back,1,z,Mon Aug 25 2025 16:20:56 GMT-0500 (Central Daylight Time),571918.2000000477,086_o_f_n_a.png,I,z,1015,14,1,2024.6000001430511,569893.5999999046,8063,NNB,B,12
10,test,4,1.0,2-Back,0,z,Mon Aug 25 2025 16:20:56 GMT-0500 (Central Daylight Time),574115.5,153_y_m_n_a.png,I,m,1165,15,1,2191.2000000476837,571924.2999999523,8063,NNB,B,13
11,test,4,0.0,2-Back,1,m,Mon Aug 25 2025 16:20:56 GMT-0500 (Central Daylight Time),576099.5,178_m_m_n_a.png,I,m,958,16,1,1977.0,574122.5,8063,NNB,B,14
12,test,4,0.0,2-Back,1,m,Mon Aug 25 2025 16:20:56 GMT-0500 (Central Daylight Time),577997.5999999046,097_m_f_n_a.png,I,m,871,17,1,1892.6999998092651,576104.9000000954,8063,NNB,B,15
12,test,4,1.0,2-Back,0,z,Mon Aug 25 2025 16:20:56 GMT-0500 (Central Daylight Time),580663.4000000954,178_m_m_n_a.png,I,m,1636,18,1,2659.2000000476837,578004.2000000477,8063,NNB,B,16
0,test,5,1.0,2-Back,,,Mon Aug 25 2025 16:20:56 GMT-0500 (Central Daylight Time),580663.4000000954,153_y_m_n_a.png,I,space,834,1,1,2659.2000000476837,578004.2000000477,8063,NNB,B,0
0,test,5,1.0,2-Back,,,Mon Aug 25 2025 16:20:56 GMT-0500 (Central Daylight Time),580663.4000000954,097_m_f_n_a.png,I,space,834,2,1,2659.2000000476837,578004.2000000477,8063,NNB,B,0
1,test,5,1.0,2-Back,1,z,Mon Aug 25 2025 16:20:56 GMT-0500 (Central Daylight Time),588495.2999999523,153_y_m_n_a.png,I,z,905,3,1,1924.0,586571.2999999523,8063,NNB,B,1
2,test,5,1.0,2-Back,1,z,Mon Aug 25 2025 16:20:56 GMT-0500 (Central Daylight Time),590427.2999999523,097_m_f_n_a.png,I,z,901,4,1,1921.5,588505.7999999523,8063,NNB,B,2
3,test,5,0.0,2-Back,1,m,Mon Aug 25 2025 16:20:56 GMT-0500 (Central Daylight Time),592343.0,086_o_f_n_a.png,I,m,894,5,1,1906.4000000953674,590436.5999999046,8063,NNB,B,3
3,test,5,0.0,2-Back,0,m,Mon Aug 25 2025 16:20:56 GMT-0500 (Central Daylight Time),594760.0,153_y_m_n_a.png,I,z,1387,6,1,2410.4000000953674,592349.5999999046,8063,NNB,B,4
4,test,5,0.0,2-Back,1,m,Mon Aug 25 2025 16:20:56 GMT-0500 (Central Daylight Time),596776.9000000954,173_y_f_n_a.png,I,m,986,7,1,2008.4000000953674,594768.5,8063,NNB,B,5
5,test,5,0.0,2-Back,1,m,Mon Aug 25 2025 16:20:56 GMT-0500 (Central Daylight Time),599274.2000000477,086_o_f_n_a.png,I,m,1474,8,1,2491.600000143051,596782.5999999046,8063,NNB,B,6
5,test,5,1.0,2-Back,0,z,Mon Aug 25 2025 16:20:56 GMT-0500 (Central Daylight Time),601290.2000000477,173_y_f_n_a.png,I,m,985,9,1,2009.5,599280.7000000477,8063,NNB,B,7
6,test,5,0.0,2-Back,1,m,Mon Aug 25 2025 16:20:56 GMT-0500 (Central Daylight Time),603256.4000000954,065_o_m_n_a.png,I,m,944,10,1,1958.9000000953674,601297.5,8063,NNB,B,8
7,test,5,0.0,2-Back,1,m,Mon Aug 25 2025 16:20:56 GMT-0500 (Central Daylight Time),605074.2999999523,029_m_f_n_a.png,I,m,786,11,1,1810.5999999046326,603263.7000000477,8063,NNB,B,9
7,test,5,0.0,2-Back,0,m,Mon Aug 25 2025 16:20:56 GMT-0500 (Central Daylight Time),607122.5999999046,126_m_m_n_a.png,I,z,1019,12,1,2040.6999998092651,605081.9000000954,8063,NNB,B,10
7,test,5,0.0,2-Back,0,m,Mon Aug 25 2025 16:20:56 GMT-0500 (Central Daylight Time),609222.5,065_o_m_n_a.png,I,z,1071,13,1,2092.7000000476837,607129.7999999523,8063,NNB,B,11
8,test,5,1.0,2-Back,1,z,Mon Aug 25 2025 16:20:56 GMT-0500 (Central Daylight Time),611553.0,126_m_m_n_a.png,I,z,1299,14,1,2323.2000000476837,609229.7999999523,8063,NNB,B,12
9,test,5,0.0,2-Back,1,m,Mon Aug 25 2025 16:20:56 GMT-0500 (Central Daylight Time),613570.7999999523,152_y_f_n_a.png,I,m,991,15,1,2013.3999998569489,611557.4000000954,8063,NNB,B,13
10,test,5,0.0,2-Back,1,m,Mon Aug 25 2025 16:20:56 GMT-0500 (Central Daylight Time),615403.9000000954,176_o_m_n_a.png,I,m,810,16,1,1827.9000000953674,613576.0,8063,NNB,B,14
11,test,5,0.0,2-Back,1,m,Mon Aug 25 2025 16:20:56 GMT-0500 (Central Daylight Time),617520.7999999523,029_m_f_n_a.png,I,m,1083,17,1,2108.899999856949,615411.9000000954,8063,NNB,B,15
12,test,5,1.0,2-Back,1,z,Mon Aug 25 2025 16:20:56 GMT-0500 (Central Daylight Time),619618.2999999523,176_o_m_n_a.png,I,z,1076,18,1,2092.7999999523163,617525.5,8063,NNB,B,16
