acc_sum,block,block_c,block_cond,con_img,correct,correct_response,datetime,endtime,face,jitter,line,project,response,response_time,row_sel,session_number,start_end,starttime,subject_id,task,task_vers,trial
1,prac,1,A,haborder.png,1,m,Fri May 16 2025 18:06:54 GMT-0500 (Central Daylight Time),51102.5,CFD-WM-012-007-HC.jpg,1700,solid,O,m,1005,9,1,3500.0,47602.5,7141,ATS,B,1
2,prac,1,A,haborder.png,1,z,Fri May 16 2025 18:06:54 GMT-0500 (Central Daylight Time),54318.699999999255,CFD-WF-026-008-A.jpg,1600,solid,O,z,848,10,1,6716.199999999255,47602.5,7141,ATS,B,2
3,prac,1,A,haborder.png,1,m,Fri May 16 2025 18:06:54 GMT-0500 (Central Daylight Time),57614.79999999888,CFD-BM-015-017-HC.jpg,1700,solid,O,m,802,1,1,10012.299999998882,47602.5,7141,ATS,B,3
4,prac,1,A,haborder.png,1,z,Fri May 16 2025 18:06:54 GMT-0500 (Central Daylight Time),60332.699999999255,CFD-WF-013-015-A.jpg,1000,solid,O,z,922,12,1,12730.199999999255,47602.5,7141,ATS,B,4
5,prac,1,A,haborder.png,1,m,Fri May 16 2025 18:06:54 GMT-0500 (Central Daylight Time),63081.5,CFD-WM-011-006-HC.jpg,1400,solid,O,m,559,7,1,15479.0,47602.5,7141,ATS,B,5
6,prac,1,A,haborder.png,1,z,Fri May 16 2025 18:06:54 GMT-0500 (Central Daylight Time),66113.79999999888,CFD-BF-050-012-A.jpg,1200,solid,O,z,1041,6,1,18511.299999998882,47602.5,7141,ATS,B,6
7,prac,1,A,haborder.png,1,m,Fri May 16 2025 18:06:54 GMT-0500 (Central Daylight Time),69595.69999999925,CFD-BF-035-007-HC.jpg,2000,solid,O,m,691,5,1,21993.199999999255,47602.5,7141,ATS,B,7
8,prac,1,A,haborder.png,1,z,Fri May 16 2025 18:06:54 GMT-0500 (Central Daylight Time),73211.69999999925,CFD-WM-009-009-A.jpg,1900,solid,O,z,934,8,1,25609.199999999255,47602.5,7141,ATS,B,8
9,prac,1,A,haborder.png,1,z,Fri May 16 2025 18:06:54 GMT-0500 (Central Daylight Time),76243.29999999888,CFD-BF-051-043-A.jpg,1000,solid,O,z,1248,4,1,28640.799999998882,47602.5,7141,ATS,B,9
10,prac,1,A,haborder.png,1,m,Fri May 16 2025 18:06:54 GMT-0500 (Central Daylight Time),79292.69999999925,CFD-WF-011-006-HC.jpg,1500,solid,O,m,756,11,1,31690.199999999255,47602.5,7141,ATS,B,10
11,prac,1,A,haborder.png,1,m,Fri May 16 2025 18:06:54 GMT-0500 (Central Daylight Time),82224.69999999925,CFD-BM-020-024-HC.jpg,1500,solid,O,m,644,3,1,34622.199999999255,47602.5,7141,ATS,B,11
12,prac,1,A,haborder.png,1,z,Fri May 16 2025 18:06:54 GMT-0500 (Central Daylight Time),85375.19999999925,CFD-BM-037-041-A.jpg,1600,solid,O,z,755,2,1,37772.699999999255,47602.5,7141,ATS,B,12
1,prac,1,B,mfborder.png,1,m,Fri May 16 2025 18:06:54 GMT-0500 (Central Daylight Time),100471.19999999925,CFD-BM-041-048-A.jpg,1600,dash,O,m,1383,2,1,3784.800000000745,96686.39999999851,7141,ATS,B,1
2,prac,1,B,mfborder.png,1,m,Fri May 16 2025 18:06:54 GMT-0500 (Central Daylight Time),103735.79999999888,CFD-WM-009-009-A.jpg,1700,dash,O,m,772,9,1,7049.4000000003725,96686.39999999851,7141,ATS,B,2
3,prac,1,B,mfborder.png,1,z,Fri May 16 2025 18:06:54 GMT-0500 (Central Daylight Time),107118.09999999963,CFD-BF-027-013-HC.jpg,1500,dash,O,z,1103,3,1,10431.700000001118,96686.39999999851,7141,ATS,B,3
4,prac,1,B,mfborder.png,1,m,Fri May 16 2025 18:06:54 GMT-0500 (Central Daylight Time),110267.19999999925,CFD-BM-020-024-HC.jpg,1700,dash,O,m,664,1,1,13580.800000000745,96686.39999999851,7141,ATS,B,4
5,prac,1,B,mfborder.png,1,z,Fri May 16 2025 18:06:54 GMT-0500 (Central Daylight Time),113349.09999999963,CFD-WF-011-006-HC.jpg,1000,dash,O,z,1298,12,1,16662.700000001118,96686.39999999851,7141,ATS,B,5
6,prac,1,B,mfborder.png,1,z,Fri May 16 2025 18:06:54 GMT-0500 (Central Daylight Time),116329.5,CFD-WF-026-008-A.jpg,1500,dash,O,z,697,11,1,19643.10000000149,96686.39999999851,7141,ATS,B,6
7,prac,1,B,mfborder.png,1,m,Fri May 16 2025 18:06:54 GMT-0500 (Central Daylight Time),120011.89999999851,CFD-WM-012-007-HC.jpg,1600,dash,O,m,1306,10,1,23325.5,96686.39999999851,7141,ATS,B,7
8,prac,1,B,mfborder.png,1,m,Fri May 16 2025 18:06:54 GMT-0500 (Central Daylight Time),123595.29999999888,CFD-BM-037-041-A.jpg,2000,dash,O,m,799,5,1,26908.900000000373,96686.39999999851,7141,ATS,B,8
9,prac,1,B,mfborder.png,1,z,Fri May 16 2025 18:06:54 GMT-0500 (Central Daylight Time),126160.69999999925,CFD-BF-051-043-A.jpg,1000,dash,O,z,750,4,1,29474.300000000745,96686.39999999851,7141,ATS,B,9
10,prac,1,B,mfborder.png,1,z,Fri May 16 2025 18:06:54 GMT-0500 (Central Daylight Time),129659.69999999925,CFD-WF-027-007-HC.jpg,1900,dash,O,z,807,8,1,32973.300000000745,96686.39999999851,7141,ATS,B,10
11,prac,1,B,mfborder.png,1,m,Fri May 16 2025 18:06:54 GMT-0500 (Central Daylight Time),132759.09999999963,CFD-WM-037-060-A.jpg,1200,dash,O,m,1099,6,1,36072.70000000112,96686.39999999851,7141,ATS,B,11
11,prac,1,B,mfborder.png,0,z,Fri May 16 2025 18:06:54 GMT-0500 (Central Daylight Time),135992.29999999888,CFD-BF-035-007-HC.jpg,1400,dash,O,m,1061,7,1,39305.90000000037,96686.39999999851,7141,ATS,B,12
1,test,1,A,haborder.png,1,m,Fri May 16 2025 18:06:54 GMT-0500 (Central Daylight Time),153319.09999999963,CFD-WM-011-006-HC.jpg,1400,solid,O,m,1062,7,1,2499.5999999996275,150819.5,7141,ATS,B,1
2,test,1,A,haborder.png,1,m,Fri May 16 2025 18:06:54 GMT-0500 (Central Daylight Time),155403.5,CFD-WM-011-006-HC.jpg,1400,solid,O,m,661,7,1,4584.0,150819.5,7141,ATS,B,2
3,test,1,A,haborder.png,1,z,Fri May 16 2025 18:06:54 GMT-0500 (Central Daylight Time),157716.8999999985,CFD-BM-037-041-A.jpg,1600,solid,O,z,689,2,1,6897.39999999851,150819.5,7141,ATS,B,3
4,test,1,A,haborder.png,1,z,Fri May 16 2025 18:06:54 GMT-0500 (Central Daylight Time),160549.8999999985,CFD-WF-026-008-A.jpg,1600,solid,O,z,1209,10,1,9730.39999999851,150819.5,7141,ATS,B,4
5,test,1,A,haborder.png,1,m,Fri May 16 2025 18:06:54 GMT-0500 (Central Daylight Time),162682.8999999985,CFD-BM-020-024-HC.jpg,1500,solid,O,m,609,3,1,11863.39999999851,150819.5,7141,ATS,B,5
6,test,1,A,haborder.png,1,m,Fri May 16 2025 18:06:54 GMT-0500 (Central Daylight Time),164965.29999999888,CFD-WF-011-006-HC.jpg,1500,solid,O,m,756,11,1,14145.799999998882,150819.5,7141,ATS,B,6
7,test,1,A,haborder.png,1,z,Fri May 16 2025 18:06:54 GMT-0500 (Central Daylight Time),167249.8999999985,CFD-WF-026-008-A.jpg,1600,solid,O,z,665,10,1,16430.39999999851,150819.5,7141,ATS,B,7
8,test,1,A,haborder.png,1,z,Fri May 16 2025 18:06:54 GMT-0500 (Central Daylight Time),169580.19999999925,CFD-BF-050-012-A.jpg,1200,solid,O,z,1108,6,1,18760.699999999255,150819.5,7141,ATS,B,8
9,test,1,A,haborder.png,1,z,Fri May 16 2025 18:06:54 GMT-0500 (Central Daylight Time),172695.09999999963,CFD-BM-037-041-A.jpg,1600,solid,O,z,1493,2,1,21875.599999999627,150819.5,7141,ATS,B,9
10,test,1,A,haborder.png,1,m,Fri May 16 2025 18:06:54 GMT-0500 (Central Daylight Time),175045.19999999925,CFD-WF-011-006-HC.jpg,1500,solid,O,m,823,11,1,24225.699999999255,150819.5,7141,ATS,B,10
11,test,1,A,haborder.png,1,z,Fri May 16 2025 18:06:54 GMT-0500 (Central Daylight Time),176878.5,CFD-BF-051-043-A.jpg,1000,solid,O,z,805,4,1,26059.0,150819.5,7141,ATS,B,11
12,test,1,A,haborder.png,1,m,Fri May 16 2025 18:06:54 GMT-0500 (Central Daylight Time),179342.79999999888,CFD-BM-015-017-HC.jpg,1700,solid,O,m,745,1,1,28523.299999998882,150819.5,7141,ATS,B,12
13,test,1,A,haborder.png,1,z,Fri May 16 2025 18:06:54 GMT-0500 (Central Daylight Time),181661.3999999985,CFD-WF-013-015-A.jpg,1000,solid,O,z,1299,12,1,30841.89999999851,150819.5,7141,ATS,B,13
14,test,1,A,haborder.png,1,m,Fri May 16 2025 18:06:54 GMT-0500 (Central Daylight Time),183958.3999999985,CFD-BM-020-024-HC.jpg,1500,solid,O,m,779,3,1,33138.89999999851,150819.5,7141,ATS,B,14
15,test,1,A,haborder.png,1,z,Fri May 16 2025 18:06:54 GMT-0500 (Central Daylight Time),185924.79999999888,CFD-BF-050-012-A.jpg,1200,solid,O,z,747,6,1,35105.29999999888,150819.5,7141,ATS,B,15
16,test,1,A,haborder.png,1,z,Fri May 16 2025 18:06:54 GMT-0500 (Central Daylight Time),187673.59999999963,CFD-WF-013-015-A.jpg,1000,solid,O,z,718,12,1,36854.09999999963,150819.5,7141,ATS,B,16
17,test,1,A,haborder.png,1,m,Fri May 16 2025 18:06:54 GMT-0500 (Central Daylight Time),190039.69999999925,CFD-WM-012-007-HC.jpg,1700,solid,O,m,635,9,1,39220.199999999255,150819.5,7141,ATS,B,17
18,test,1,A,haborder.png,1,z,Fri May 16 2025 18:06:54 GMT-0500 (Central Daylight Time),191823.0,CFD-BF-051-043-A.jpg,1000,solid,O,z,754,4,1,41003.5,150819.5,7141,ATS,B,18
19,test,1,A,haborder.png,1,m,Fri May 16 2025 18:06:54 GMT-0500 (Central Daylight Time),194172.8999999985,CFD-BM-015-017-HC.jpg,1700,solid,O,m,624,1,1,43353.39999999851,150819.5,7141,ATS,B,19
19,test,1,A,haborder.png,0,z,Fri May 16 2025 18:06:54 GMT-0500 (Central Daylight Time),197005.09999999963,CFD-WM-009-009-A.jpg,1900,solid,O,m,908,8,1,46185.59999999963,150819.5,7141,ATS,B,20
20,test,1,A,haborder.png,1,m,Fri May 16 2025 18:06:54 GMT-0500 (Central Daylight Time),199354.59999999963,CFD-WM-012-007-HC.jpg,1700,solid,O,m,624,9,1,48535.09999999963,150819.5,7141,ATS,B,21
21,test,1,A,haborder.png,1,z,Fri May 16 2025 18:06:54 GMT-0500 (Central Daylight Time),201837.8999999985,CFD-WM-009-009-A.jpg,1900,solid,O,z,566,8,1,51018.39999999851,150819.5,7141,ATS,B,22
22,test,1,A,haborder.png,1,m,Fri May 16 2025 18:06:54 GMT-0500 (Central Daylight Time),204752.69999999925,CFD-BF-035-007-HC.jpg,2000,solid,O,m,896,5,1,53933.199999999255,150819.5,7141,ATS,B,23
22,test,1,A,haborder.png,0,m,Fri May 16 2025 18:06:54 GMT-0500 (Central Daylight Time),208285.19999999925,CFD-BF-035-007-HC.jpg,2000,solid,O,None,1508,5,1,57465.699999999255,150819.5,7141,ATS,B,24
1,test,1,B,mfborder.png,1,z,Fri May 16 2025 18:06:54 GMT-0500 (Central Daylight Time),221663.69999999925,CFD-BF-027-013-HC.jpg,1500,dash,O,z,1054,3,1,2582.4000000003725,219081.29999999888,7141,ATS,B,1
2,test,1,B,mfborder.png,1,z,Fri May 16 2025 18:06:54 GMT-0500 (Central Daylight Time),223863.79999999888,CFD-BF-035-007-HC.jpg,1400,dash,O,z,771,7,1,4782.5,219081.29999999888,7141,ATS,B,2
3,test,1,B,mfborder.png,1,m,Fri May 16 2025 18:06:54 GMT-0500 (Central Daylight Time),225896.09999999963,CFD-WM-037-060-A.jpg,1200,dash,O,m,815,6,1,6814.800000000745,219081.29999999888,7141,ATS,B,3
4,test,1,B,mfborder.png,1,m,Fri May 16 2025 18:06:54 GMT-0500 (Central Daylight Time),228262.5,CFD-BM-041-048-A.jpg,1600,dash,O,m,739,2,1,9181.200000001118,219081.29999999888,7141,ATS,B,4
4,test,1,B,mfborder.png,0,z,Fri May 16 2025 18:06:54 GMT-0500 (Central Daylight Time),230661.0,CFD-WF-026-008-A.jpg,1500,dash,O,m,874,11,1,11579.700000001118,219081.29999999888,7141,ATS,B,5
5,test,1,B,mfborder.png,1,z,Fri May 16 2025 18:06:54 GMT-0500 (Central Daylight Time),232761.69999999925,CFD-BF-051-043-A.jpg,1000,dash,O,z,1070,4,1,13680.400000000373,219081.29999999888,7141,ATS,B,6
6,test,1,B,mfborder.png,1,m,Fri May 16 2025 18:06:54 GMT-0500 (Central Daylight Time),235976.0,CFD-BM-037-041-A.jpg,2000,dash,O,m,1187,5,1,16894.700000001118,219081.29999999888,7141,ATS,B,7
7,test,1,B,mfborder.png,1,z,Fri May 16 2025 18:06:54 GMT-0500 (Central Daylight Time),239041.59999999963,CFD-WF-027-007-HC.jpg,1900,dash,O,z,1143,8,1,19960.300000000745,219081.29999999888,7141,ATS,B,8
8,test,1,B,mfborder.png,1,m,Fri May 16 2025 18:06:54 GMT-0500 (Central Daylight Time),241890.59999999963,CFD-BM-037-041-A.jpg,2000,dash,O,m,822,5,1,22809.300000000745,219081.29999999888,7141,ATS,B,9
9,test,1,B,mfborder.png,1,z,Fri May 16 2025 18:06:54 GMT-0500 (Central Daylight Time),244273.09999999963,CFD-WF-011-006-HC.jpg,1000,dash,O,z,1343,12,1,25191.800000000745,219081.29999999888,7141,ATS,B,10
10,test,1,B,mfborder.png,1,z,Fri May 16 2025 18:06:54 GMT-0500 (Central Daylight Time),246055.3999999985,CFD-BF-051-043-A.jpg,1000,dash,O,z,753,4,1,26974.099999999627,219081.29999999888,7141,ATS,B,11
11,test,1,B,mfborder.png,1,m,Fri May 16 2025 18:06:54 GMT-0500 (Central Daylight Time),248354.09999999963,CFD-WM-012-007-HC.jpg,1600,dash,O,m,673,10,1,29272.800000000745,219081.29999999888,7141,ATS,B,12
12,test,1,B,mfborder.png,1,m,Fri May 16 2025 18:06:54 GMT-0500 (Central Daylight Time),250970.69999999925,CFD-WM-009-009-A.jpg,1700,dash,O,m,885,9,1,31889.400000000373,219081.29999999888,7141,ATS,B,13
12,test,1,B,mfborder.png,0,m,Fri May 16 2025 18:06:54 GMT-0500 (Central Daylight Time),254205.69999999925,CFD-BM-020-024-HC.jpg,1700,dash,O,None,1509,1,1,35124.40000000037,219081.29999999888,7141,ATS,B,14
13,test,1,B,mfborder.png,1,z,Fri May 16 2025 18:06:54 GMT-0500 (Central Daylight Time),256836.09999999963,CFD-WF-027-007-HC.jpg,1900,dash,O,z,700,8,1,37754.800000000745,219081.29999999888,7141,ATS,B,15
14,test,1,B,mfborder.png,1,z,Fri May 16 2025 18:06:54 GMT-0500 (Central Daylight Time),258452.0,CFD-WF-011-006-HC.jpg,1000,dash,O,z,597,12,1,39370.70000000112,219081.29999999888,7141,ATS,B,16
15,test,1,B,mfborder.png,1,z,Fri May 16 2025 18:06:54 GMT-0500 (Central Daylight Time),260567.19999999925,CFD-BF-035-007-HC.jpg,1400,dash,O,z,695,7,1,41485.90000000037,219081.29999999888,7141,ATS,B,17
16,test,1,B,mfborder.png,1,m,Fri May 16 2025 18:06:54 GMT-0500 (Central Daylight Time),262917.8999999985,CFD-BM-020-024-HC.jpg,1700,dash,O,m,625,1,1,43836.59999999963,219081.29999999888,7141,ATS,B,18
17,test,1,B,mfborder.png,1,m,Fri May 16 2025 18:06:54 GMT-0500 (Central Daylight Time),265602.0999999996,CFD-WM-009-009-A.jpg,1700,dash,O,m,967,9,1,46520.800000000745,219081.29999999888,7141,ATS,B,19
18,test,1,B,mfborder.png,1,m,Fri May 16 2025 18:06:54 GMT-0500 (Central Daylight Time),267882.5999999996,CFD-WM-012-007-HC.jpg,1600,dash,O,m,651,10,1,48801.300000000745,219081.29999999888,7141,ATS,B,20
19,test,1,B,mfborder.png,1,m,Fri May 16 2025 18:06:54 GMT-0500 (Central Daylight Time),270131.5999999996,CFD-BM-041-048-A.jpg,1600,dash,O,m,619,2,1,51050.300000000745,219081.29999999888,7141,ATS,B,21
20,test,1,B,mfborder.png,1,z,Fri May 16 2025 18:06:54 GMT-0500 (Central Daylight Time),272530.8999999985,CFD-WF-026-008-A.jpg,1500,dash,O,z,875,11,1,53449.59999999963,219081.29999999888,7141,ATS,B,22
21,test,1,B,mfborder.png,1,m,Fri May 16 2025 18:06:54 GMT-0500 (Central Daylight Time),274405.3999999985,CFD-WM-037-060-A.jpg,1200,dash,O,m,649,6,1,55324.09999999963,219081.29999999888,7141,ATS,B,23
22,test,1,B,mfborder.png,1,z,Fri May 16 2025 18:06:54 GMT-0500 (Central Daylight Time),276695.5999999996,CFD-BF-027-013-HC.jpg,1500,dash,O,z,780,3,1,57614.300000000745,219081.29999999888,7141,ATS,B,24
0,8,1,C,haborder.png,0,z,Fri May 16 2025 18:06:54 GMT-0500 (Central Daylight Time),322715.7999999989,CFD-BF-050-012-A.jpg,1700,solid,O,None,1514,prac,1,3998.5,318717.2999999989,7141,ATS,B,1
1,7,1,C,haborder.png,1,z,Fri May 16 2025 18:06:54 GMT-0500 (Central Daylight Time),326547.7999999989,CFD-BF-051-043-A.jpg,1900,dash,O,z,1156,prac,1,7830.5,318717.2999999989,7141,ATS,B,2
2,9,1,C,haborder.png,1,z,Fri May 16 2025 18:06:54 GMT-0500 (Central Daylight Time),329996.19999999925,CFD-WF-026-008-A.jpg,1600,dash,O,z,1047,prac,1,11278.900000000373,318717.2999999989,7141,ATS,B,3
2,1,1,C,mfborder.png,0,z,Fri May 16 2025 18:06:54 GMT-0500 (Central Daylight Time),333428.69999999925,CFD-WF-011-006-HC.jpg,1600,dash,O,m,1056,prac,1,14711.400000000373,318717.2999999989,7141,ATS,B,4
2,11,1,C,haborder.png,0,m,Fri May 16 2025 18:06:54 GMT-0500 (Central Daylight Time),336711.0,CFD-WM-011-006-HC.jpg,1000,dash,O,None,1513,prac,1,17993.700000001118,318717.2999999989,7141,ATS,B,5
2,4,1,C,mfborder.png,0,m,Fri May 16 2025 18:06:54 GMT-0500 (Central Daylight Time),340392.0999999996,CFD-BM-015-017-HC.jpg,2000,solid,O,z,877,prac,1,21674.800000000745,318717.2999999989,7141,ATS,B,6
3,5,1,C,mfborder.png,1,m,Fri May 16 2025 18:06:54 GMT-0500 (Central Daylight Time),343191.69999999925,CFD-BM-037-041-A.jpg,1200,dash,O,m,810,prac,1,24474.400000000373,318717.2999999989,7141,ATS,B,7
3,2,1,C,mfborder.png,0,z,Fri May 16 2025 18:06:54 GMT-0500 (Central Daylight Time),346408.8999999985,CFD-WF-013-015-A.jpg,1500,solid,O,m,942,prac,1,27691.599999999627,318717.2999999989,7141,ATS,B,8
4,3,1,C,mfborder.png,1,z,Fri May 16 2025 18:06:54 GMT-0500 (Central Daylight Time),349091.0,CFD-BF-035-007-HC.jpg,1000,dash,O,z,892,prac,1,30373.700000001118,318717.2999999989,7141,ATS,B,9
4,12,1,C,haborder.png,0,m,Fri May 16 2025 18:06:54 GMT-0500 (Central Daylight Time),352239.5,CFD-WM-011-006-HC.jpg,1400,solid,O,z,944,prac,1,33522.20000000112,318717.2999999989,7141,ATS,B,10
4,6,1,C,mfborder.png,0,m,Fri May 16 2025 18:06:54 GMT-0500 (Central Daylight Time),356239.19999999925,CFD-WM-009-009-A.jpg,1700,solid,O,None,1516,prac,1,37521.90000000037,318717.2999999989,7141,ATS,B,11
5,10,1,C,haborder.png,1,m,Fri May 16 2025 18:06:54 GMT-0500 (Central Daylight Time),359419.8999999985,CFD-BM-020-024-HC.jpg,1500,solid,O,m,884,prac,1,40702.59999999963,318717.2999999989,7141,ATS,B,12
1,8,2,C,haborder.png,1,z,Fri May 16 2025 18:06:54 GMT-0500 (Central Daylight Time),366002.19999999925,CFD-BF-050-012-A.jpg,1700,solid,O,z,1064,prac,1,47284.90000000037,318717.2999999989,7141,ATS,B,1
2,7,2,C,haborder.png,1,z,Fri May 16 2025 18:06:54 GMT-0500 (Central Daylight Time),369901.2999999989,CFD-BF-051-043-A.jpg,1900,dash,O,z,1205,prac,1,51184.0,318717.2999999989,7141,ATS,B,2
2,1,2,C,mfborder.png,0,z,Fri May 16 2025 18:06:54 GMT-0500 (Central Daylight Time),373498.3999999985,CFD-WF-011-006-HC.jpg,1600,dash,O,m,1207,prac,1,54781.09999999963,318717.2999999989,7141,ATS,B,3
2,12,2,C,haborder.png,0,m,Fri May 16 2025 18:06:54 GMT-0500 (Central Daylight Time),377197.7999999989,CFD-WM-011-006-HC.jpg,1400,solid,O,None,1516,prac,1,58480.5,318717.2999999989,7141,ATS,B,4
3,9,2,C,haborder.png,1,z,Fri May 16 2025 18:06:54 GMT-0500 (Central Daylight Time),380980.7999999989,CFD-WF-026-008-A.jpg,1600,dash,O,z,1383,prac,1,62263.5,318717.2999999989,7141,ATS,B,5
3,11,2,C,haborder.png,0,m,Fri May 16 2025 18:06:54 GMT-0500 (Central Daylight Time),383846.5999999996,CFD-WM-011-006-HC.jpg,1000,dash,O,z,1077,prac,1,65129.300000000745,318717.2999999989,7141,ATS,B,6
3,3,2,C,mfborder.png,0,z,Fri May 16 2025 18:06:54 GMT-0500 (Central Daylight Time),387144.8999999985,CFD-BF-035-007-HC.jpg,1000,dash,O,None,1518,prac,1,68427.59999999963,318717.2999999989,7141,ATS,B,7
3,4,2,C,mfborder.png,0,m,Fri May 16 2025 18:06:54 GMT-0500 (Central Daylight Time),391443.69999999925,CFD-BM-015-017-HC.jpg,2000,solid,O,None,1517,prac,1,72726.40000000037,318717.2999999989,7141,ATS,B,8
4,10,2,C,haborder.png,1,m,Fri May 16 2025 18:06:54 GMT-0500 (Central Daylight Time),394309.7999999989,CFD-BM-020-024-HC.jpg,1500,solid,O,m,589,prac,1,75592.5,318717.2999999989,7141,ATS,B,9
4,5,2,C,mfborder.png,0,m,Fri May 16 2025 18:06:54 GMT-0500 (Central Daylight Time),397007.5999999996,CFD-BM-037-041-A.jpg,1200,dash,O,z,717,prac,1,78290.30000000075,318717.2999999989,7141,ATS,B,10
5,6,2,C,mfborder.png,1,m,Fri May 16 2025 18:06:54 GMT-0500 (Central Daylight Time),400107.0999999996,CFD-WM-009-009-A.jpg,1700,solid,O,m,607,prac,1,81389.80000000075,318717.2999999989,7141,ATS,B,11
5,2,2,C,mfborder.png,0,z,Fri May 16 2025 18:06:54 GMT-0500 (Central Daylight Time),403140.3999999985,CFD-WF-013-015-A.jpg,1500,solid,O,m,740,prac,1,84423.09999999963,318717.2999999989,7141,ATS,B,12
0,test,1,C,haborder.png,0,m,Fri May 16 2025 18:06:54 GMT-0500 (Central Daylight Time),436795.7999999989,CFD-WF-027-007-HC.jpg,1500,solid,O,None,1515,11,1,3033.199999999255,433762.5999999996,7141,ATS,B,1
0,test,1,C,mfborder.png,0,m,Fri May 16 2025 18:06:54 GMT-0500 (Central Daylight Time),439327.7999999989,CFD-WM-012-007-HC.jpg,1000,dash,O,None,1509,4,1,5565.199999999255,433762.5999999996,7141,ATS,B,2
0,test,1,C,haborder.png,0,z,Fri May 16 2025 18:06:54 GMT-0500 (Central Daylight Time),442759.5,CFD-BM-037-041-A.jpg,1900,solid,O,None,1513,8,1,8996.900000000373,433762.5999999996,7141,ATS,B,3
1,test,1,C,haborder.png,1,z,Fri May 16 2025 18:06:54 GMT-0500 (Central Daylight Time),445309.0999999996,CFD-BM-041-048-A.jpg,1700,solid,O,z,831,9,1,11546.5,433762.5999999996,7141,ATS,B,4
2,test,1,C,haborder.png,1,m,Fri May 16 2025 18:06:54 GMT-0500 (Central Daylight Time),447807.2999999989,CFD-WF-027-007-HC.jpg,1500,solid,O,m,971,11,1,14044.699999999255,433762.5999999996,7141,ATS,B,5
3,test,1,C,mfborder.png,1,m,Fri May 16 2025 18:06:54 GMT-0500 (Central Daylight Time),450708.8999999985,CFD-WM-037-060-A.jpg,2000,dash,O,m,884,5,1,16946.299999998882,433762.5999999996,7141,ATS,B,6
3,test,1,C,haborder.png,0,m,Fri May 16 2025 18:06:54 GMT-0500 (Central Daylight Time),453206.2999999989,CFD-WF-011-006-HC.jpg,1000,solid,O,z,1479,12,1,19443.699999999255,433762.5999999996,7141,ATS,B,7
3,test,1,C,mfborder.png,0,m,Fri May 16 2025 18:06:54 GMT-0500 (Central Daylight Time),455937.8999999985,CFD-BM-020-024-HC.jpg,1200,dash,O,None,1515,6,1,22175.299999998882,433762.5999999996,7141,ATS,B,8
3,test,1,C,haborder.png,0,z,Fri May 16 2025 18:06:54 GMT-0500 (Central Daylight Time),458538.69999999925,CFD-WM-009-009-A.jpg,1400,solid,O,m,1168,7,1,24776.099999999627,433762.5999999996,7141,ATS,B,9
3,test,1,C,haborder.png,0,z,Fri May 16 2025 18:06:54 GMT-0500 (Central Daylight Time),461120.8999999985,CFD-BM-037-041-A.jpg,1900,solid,O,m,660,8,1,27358.299999998882,433762.5999999996,7141,ATS,B,10
3,test,1,C,mfborder.png,0,m,Fri May 16 2025 18:06:54 GMT-0500 (Central Daylight Time),464519.69999999925,CFD-WM-037-060-A.jpg,2000,dash,O,z,1364,5,1,30757.099999999627,433762.5999999996,7141,ATS,B,11
4,test,1,C,haborder.png,1,z,Fri May 16 2025 18:06:54 GMT-0500 (Central Daylight Time),466967.5,CFD-WM-009-009-A.jpg,1400,solid,O,z,1025,7,1,33204.90000000037,433762.5999999996,7141,ATS,B,12
4,test,1,C,mfborder.png,0,z,Fri May 16 2025 18:06:54 GMT-0500 (Central Daylight Time),469784.19999999925,CFD-BF-051-043-A.jpg,1600,dash,O,m,1192,2,1,36021.59999999963,433762.5999999996,7141,ATS,B,13
5,test,1,C,mfborder.png,1,z,Fri May 16 2025 18:06:54 GMT-0500 (Central Daylight Time),472282.0999999996,CFD-WF-026-008-A.jpg,1500,dash,O,z,965,3,1,38519.5,433762.5999999996,7141,ATS,B,14
5,test,1,C,haborder.png,0,m,Fri May 16 2025 18:06:54 GMT-0500 (Central Daylight Time),474699.19999999925,CFD-BF-035-007-HC.jpg,1600,solid,O,z,791,10,1,40936.59999999963,433762.5999999996,7141,ATS,B,15
6,test,1,C,mfborder.png,1,z,Fri May 16 2025 18:06:54 GMT-0500 (Central Daylight Time),477598.5,CFD-BF-027-013-HC.jpg,1700,dash,O,z,1164,1,1,43835.90000000037,433762.5999999996,7141,ATS,B,16
6,test,1,C,mfborder.png,0,z,Fri May 16 2025 18:06:54 GMT-0500 (Central Daylight Time),480065.5,CFD-BF-051-043-A.jpg,1600,dash,O,m,845,2,1,46302.90000000037,433762.5999999996,7141,ATS,B,17
6,test,1,C,mfborder.png,0,m,Fri May 16 2025 18:06:54 GMT-0500 (Central Daylight Time),481648.8999999985,CFD-WM-012-007-HC.jpg,1000,dash,O,z,547,4,1,47886.29999999888,433762.5999999996,7141,ATS,B,18
7,test,1,C,haborder.png,1,z,Fri May 16 2025 18:06:54 GMT-0500 (Central Daylight Time),483880.0,CFD-BM-041-048-A.jpg,1700,solid,O,z,503,9,1,50117.40000000037,433762.5999999996,7141,ATS,B,19
7,test,1,C,haborder.png,0,m,Fri May 16 2025 18:06:54 GMT-0500 (Central Daylight Time),486762.5999999996,CFD-BF-035-007-HC.jpg,1600,solid,O,z,1259,10,1,53000.0,433762.5999999996,7141,ATS,B,20
8,test,1,C,mfborder.png,1,m,Fri May 16 2025 18:06:54 GMT-0500 (Central Daylight Time),489111.8999999985,CFD-BM-020-024-HC.jpg,1200,dash,O,m,1128,6,1,55349.29999999888,433762.5999999996,7141,ATS,B,21
8,test,1,C,haborder.png,0,m,Fri May 16 2025 18:06:54 GMT-0500 (Central Daylight Time),491160.8999999985,CFD-WF-011-006-HC.jpg,1000,solid,O,z,1018,12,1,57398.29999999888,433762.5999999996,7141,ATS,B,22
9,test,1,C,mfborder.png,1,z,Fri May 16 2025 18:06:54 GMT-0500 (Central Daylight Time),493327.3999999985,CFD-WF-026-008-A.jpg,1500,dash,O,z,638,3,1,59564.79999999888,433762.5999999996,7141,ATS,B,23
9,test,1,C,mfborder.png,0,z,Fri May 16 2025 18:06:54 GMT-0500 (Central Daylight Time),496410.69999999925,CFD-BF-027-013-HC.jpg,1700,dash,O,m,1358,1,1,62648.09999999963,433762.5999999996,7141,ATS,B,24
1,test,2,C,mfborder.png,1,z,Fri May 16 2025 18:06:54 GMT-0500 (Central Daylight Time),532681.0,CFD-WF-013-015-A.jpg,1600,dash,O,z,888,2,1,2513.300000000745,530167.6999999993,7141,ATS,B,1
2,test,2,C,haborder.png,1,m,Fri May 16 2025 18:06:54 GMT-0500 (Central Daylight Time),535649.1999999993,CFD-WM-011-006-HC.jpg,1500,solid,O,m,1430,11,1,5481.5,530167.6999999993,7141,ATS,B,2
3,test,2,C,mfborder.png,1,z,Fri May 16 2025 18:06:54 GMT-0500 (Central Daylight Time),538528.7999999989,CFD-WF-011-006-HC.jpg,1700,dash,O,z,1151,1,1,8361.099999999627,530167.6999999993,7141,ATS,B,3
3,test,2,C,mfborder.png,0,z,Fri May 16 2025 18:06:54 GMT-0500 (Central Daylight Time),541562.7999999989,CFD-BF-035-007-HC.jpg,1500,dash,O,None,1514,3,1,11395.099999999627,530167.6999999993,7141,ATS,B,4
3,test,2,C,haborder.png,0,m,Fri May 16 2025 18:06:54 GMT-0500 (Central Daylight Time),544694.8999999985,CFD-BM-020-024-HC.jpg,1600,solid,O,None,1516,10,1,14527.199999999255,530167.6999999993,7141,ATS,B,5
4,test,2,C,mfborder.png,1,m,Fri May 16 2025 18:06:54 GMT-0500 (Central Daylight Time),548175.8999999985,CFD-BM-037-041-A.jpg,2000,dash,O,m,1453,5,1,18008.199999999255,530167.6999999993,7141,ATS,B,6
5,test,2,C,mfborder.png,1,z,Fri May 16 2025 18:06:54 GMT-0500 (Central Daylight Time),551175.8999999985,CFD-WF-011-006-HC.jpg,1700,dash,O,z,1271,1,1,21008.199999999255,530167.6999999993,7141,ATS,B,7
5,test,2,C,haborder.png,0,z,Fri May 16 2025 18:06:54 GMT-0500 (Central Daylight Time),554407.5,CFD-WF-026-008-A.jpg,1700,solid,O,None,1513,9,1,24239.800000000745,530167.6999999993,7141,ATS,B,8
5,test,2,C,haborder.png,0,z,Fri May 16 2025 18:06:54 GMT-0500 (Central Daylight Time),557590.6999999993,CFD-BF-050-012-A.jpg,1900,solid,O,m,1255,8,1,27423.0,530167.6999999993,7141,ATS,B,9
5,test,2,C,mfborder.png,0,m,Fri May 16 2025 18:06:54 GMT-0500 (Central Daylight Time),560323.7999999989,CFD-WM-009-009-A.jpg,1200,dash,O,None,1516,6,1,30156.099999999627,530167.6999999993,7141,ATS,B,10
5,test,2,C,mfborder.png,0,m,Fri May 16 2025 18:06:54 GMT-0500 (Central Daylight Time),563236.7999999989,CFD-BM-037-041-A.jpg,2000,dash,O,z,896,5,1,33069.09999999963,530167.6999999993,7141,ATS,B,11
5,test,2,C,haborder.png,0,m,Fri May 16 2025 18:06:54 GMT-0500 (Central Daylight Time),565772.1999999993,CFD-WM-011-006-HC.jpg,1000,solid,O,None,1516,12,1,35604.5,530167.6999999993,7141,ATS,B,12
5,test,2,C,haborder.png,0,z,Fri May 16 2025 18:06:54 GMT-0500 (Central Daylight Time),568303.5,CFD-BF-051-043-A.jpg,1400,solid,O,m,1113,7,1,38135.800000000745,530167.6999999993,7141,ATS,B,13
5,test,2,C,haborder.png,0,m,Fri May 16 2025 18:06:54 GMT-0500 (Central Daylight Time),570568.0999999996,CFD-WM-011-006-HC.jpg,1000,solid,O,z,1236,12,1,40400.40000000037,530167.6999999993,7141,ATS,B,14
5,test,2,C,mfborder.png,0,z,Fri May 16 2025 18:06:54 GMT-0500 (Central Daylight Time),573602.7999999989,CFD-BF-035-007-HC.jpg,1500,dash,O,None,1516,3,1,43435.09999999963,530167.6999999993,7141,ATS,B,15
5,test,2,C,haborder.png,0,z,Fri May 16 2025 18:06:54 GMT-0500 (Central Daylight Time),575784.5,CFD-BF-050-012-A.jpg,1900,solid,O,m,253,8,1,45616.800000000745,530167.6999999993,7141,ATS,B,16
6,test,2,C,mfborder.png,1,m,Fri May 16 2025 18:06:54 GMT-0500 (Central Daylight Time),577234.2999999989,CFD-BM-015-017-HC.jpg,1000,dash,O,m,430,4,1,47066.59999999963,530167.6999999993,7141,ATS,B,17
6,test,2,C,mfborder.png,0,m,Fri May 16 2025 18:06:54 GMT-0500 (Central Daylight Time),578917.8999999985,CFD-WM-009-009-A.jpg,1200,dash,O,z,466,6,1,48750.199999999255,530167.6999999993,7141,ATS,B,18
7,test,2,C,haborder.png,1,m,Fri May 16 2025 18:06:54 GMT-0500 (Central Daylight Time),581482.3999999985,CFD-WM-011-006-HC.jpg,1500,solid,O,m,1042,11,1,51314.699999999255,530167.6999999993,7141,ATS,B,19
7,test,2,C,mfborder.png,0,m,Fri May 16 2025 18:06:54 GMT-0500 (Central Daylight Time),583450.7999999989,CFD-BM-015-017-HC.jpg,1000,dash,O,z,944,4,1,53283.09999999963,530167.6999999993,7141,ATS,B,20
8,test,2,C,haborder.png,1,m,Fri May 16 2025 18:06:54 GMT-0500 (Central Daylight Time),585914.0999999996,CFD-BM-020-024-HC.jpg,1600,solid,O,m,834,10,1,55746.40000000037,530167.6999999993,7141,ATS,B,21
9,test,2,C,haborder.png,1,z,Fri May 16 2025 18:06:54 GMT-0500 (Central Daylight Time),588782.5999999996,CFD-WF-026-008-A.jpg,1700,solid,O,z,1150,9,1,58614.90000000037,530167.6999999993,7141,ATS,B,22
10,test,2,C,mfborder.png,1,z,Fri May 16 2025 18:06:54 GMT-0500 (Central Daylight Time),591480.3999999985,CFD-WF-013-015-A.jpg,1600,dash,O,z,1071,2,1,61312.699999999255,530167.6999999993,7141,ATS,B,23
10,test,2,C,haborder.png,0,z,Fri May 16 2025 18:06:54 GMT-0500 (Central Daylight Time),593847.0,CFD-BF-051-043-A.jpg,1400,solid,O,m,949,7,1,63679.300000000745,530167.6999999993,7141,ATS,B,24
0,test,3,C,mfborder.png,0,m,Fri May 16 2025 18:06:54 GMT-0500 (Central Daylight Time),618887.5999999996,CFD-BM-020-024-HC.jpg,1200,dash,O,z,899,6,1,2132.7000000011176,616754.8999999985,7141,ATS,B,1
0,test,3,C,haborder.png,0,m,Fri May 16 2025 18:06:54 GMT-0500 (Central Daylight Time),621421.0,CFD-WF-011-006-HC.jpg,1000,solid,O,None,1517,12,1,4666.10000000149,616754.8999999985,7141,ATS,B,2
0,test,3,C,mfborder.png,0,m,Fri May 16 2025 18:06:54 GMT-0500 (Central Daylight Time),623951.5,CFD-WM-012-007-HC.jpg,1000,dash,O,None,1514,4,1,7196.60000000149,616754.8999999985,7141,ATS,B,3
0,test,3,C,haborder.png,0,z,Fri May 16 2025 18:06:54 GMT-0500 (Central Daylight Time),627385.0999999996,CFD-BM-037-041-A.jpg,1900,solid,O,None,1514,8,1,10630.200000001118,616754.8999999985,7141,ATS,B,4
1,test,3,C,haborder.png,1,m,Fri May 16 2025 18:06:54 GMT-0500 (Central Daylight Time),630233.8999999985,CFD-WF-027-007-HC.jpg,1500,solid,O,m,1329,11,1,13479.0,616754.8999999985,7141,ATS,B,5
1,test,3,C,mfborder.png,0,m,Fri May 16 2025 18:06:54 GMT-0500 (Central Daylight Time),632383.6999999993,CFD-WM-012-007-HC.jpg,1000,dash,O,z,1131,4,1,15628.800000000745,616754.8999999985,7141,ATS,B,6
1,test,3,C,haborder.png,0,z,Fri May 16 2025 18:06:54 GMT-0500 (Central Daylight Time),635617.0,CFD-BM-041-048-A.jpg,1700,solid,O,None,1511,9,1,18862.10000000149,616754.8999999985,7141,ATS,B,7
1,test,3,C,mfborder.png,0,z,Fri May 16 2025 18:06:54 GMT-0500 (Central Daylight Time),638748.5999999996,CFD-BF-051-043-A.jpg,1600,dash,O,None,1516,2,1,21993.700000001118,616754.8999999985,7141,ATS,B,8
2,test,3,C,mfborder.png,1,z,Fri May 16 2025 18:06:54 GMT-0500 (Central Daylight Time),641580.0,CFD-WF-026-008-A.jpg,1500,dash,O,z,1299,3,1,24825.10000000149,616754.8999999985,7141,ATS,B,9
3,test,3,C,mfborder.png,1,m,Fri May 16 2025 18:06:54 GMT-0500 (Central Daylight Time),644814.3999999985,CFD-WM-037-060-A.jpg,2000,dash,O,m,1217,5,1,28059.5,616754.8999999985,7141,ATS,B,10
3,test,3,C,mfborder.png,0,z,Fri May 16 2025 18:06:54 GMT-0500 (Central Daylight Time),647942.5999999996,CFD-BF-027-013-HC.jpg,1700,dash,O,m,1413,1,1,31187.700000001118,616754.8999999985,7141,ATS,B,11
4,test,3,C,haborder.png,1,m,Fri May 16 2025 18:06:54 GMT-0500 (Central Daylight Time),650878.5,CFD-BF-035-007-HC.jpg,1600,solid,O,m,1315,10,1,34123.60000000149,616754.8999999985,7141,ATS,B,12
4,test,3,C,mfborder.png,0,m,Fri May 16 2025 18:06:54 GMT-0500 (Central Daylight Time),653776.8999999985,CFD-WM-037-060-A.jpg,2000,dash,O,z,884,5,1,37022.0,616754.8999999985,7141,ATS,B,13
5,test,3,C,mfborder.png,1,z,Fri May 16 2025 18:06:54 GMT-0500 (Central Daylight Time),656708.2999999989,CFD-WF-026-008-A.jpg,1500,dash,O,z,1409,3,1,39953.40000000037,616754.8999999985,7141,ATS,B,14
6,test,3,C,mfborder.png,1,z,Fri May 16 2025 18:06:54 GMT-0500 (Central Daylight Time),659424.1999999993,CFD-BF-051-043-A.jpg,1600,dash,O,z,1086,2,1,42669.300000000745,616754.8999999985,7141,ATS,B,15
7,test,3,C,haborder.png,1,z,Fri May 16 2025 18:06:54 GMT-0500 (Central Daylight Time),662240.0,CFD-WM-009-009-A.jpg,1400,solid,O,z,1392,7,1,45485.10000000149,616754.8999999985,7141,ATS,B,16
8,test,3,C,haborder.png,1,m,Fri May 16 2025 18:06:54 GMT-0500 (Central Daylight Time),665056.2999999989,CFD-WF-027-007-HC.jpg,1500,solid,O,m,1286,11,1,48301.40000000037,616754.8999999985,7141,ATS,B,17
8,test,3,C,haborder.png,0,z,Fri May 16 2025 18:06:54 GMT-0500 (Central Daylight Time),668288.6999999993,CFD-BM-041-048-A.jpg,1700,solid,O,None,1517,9,1,51533.800000000745,616754.8999999985,7141,ATS,B,18
9,test,3,C,haborder.png,1,m,Fri May 16 2025 18:06:54 GMT-0500 (Central Daylight Time),670404.2999999989,CFD-WF-011-006-HC.jpg,1000,solid,O,m,1092,12,1,53649.40000000037,616754.8999999985,7141,ATS,B,19
10,test,3,C,haborder.png,1,m,Fri May 16 2025 18:06:54 GMT-0500 (Central Daylight Time),672953.7999999989,CFD-BF-035-007-HC.jpg,1600,solid,O,m,917,10,1,56198.90000000037,616754.8999999985,7141,ATS,B,20
11,test,3,C,mfborder.png,1,z,Fri May 16 2025 18:06:54 GMT-0500 (Central Daylight Time),675835.5999999996,CFD-BF-027-013-HC.jpg,1700,dash,O,z,1158,1,1,59080.70000000112,616754.8999999985,7141,ATS,B,21
12,test,3,C,haborder.png,1,z,Fri May 16 2025 18:06:54 GMT-0500 (Central Daylight Time),678943.0999999996,CFD-BM-037-041-A.jpg,1900,solid,O,z,1182,8,1,62188.20000000112,616754.8999999985,7141,ATS,B,22
13,test,3,C,haborder.png,1,z,Fri May 16 2025 18:06:54 GMT-0500 (Central Daylight Time),681468.0,CFD-WM-009-009-A.jpg,1400,solid,O,z,1100,7,1,64713.10000000149,616754.8999999985,7141,ATS,B,23
14,test,3,C,mfborder.png,1,m,Fri May 16 2025 18:06:54 GMT-0500 (Central Daylight Time),683599.6999999993,CFD-BM-020-024-HC.jpg,1200,dash,O,m,912,6,1,66844.80000000075,616754.8999999985,7141,ATS,B,24
0,test,4,C,haborder.png,0,z,Fri May 16 2025 18:06:54 GMT-0500 (Central Daylight Time),691597.3999999985,CFD-WF-026-008-A.jpg,1700,solid,O,m,989,9,1,2715.5,688881.8999999985,7141,ATS,B,1
1,test,4,C,mfborder.png,1,z,Fri May 16 2025 18:06:54 GMT-0500 (Central Daylight Time),694464.6999999993,CFD-BF-035-007-HC.jpg,1500,dash,O,z,1349,3,1,5582.800000000745,688881.8999999985,7141,ATS,B,2
2,test,4,C,haborder.png,1,z,Fri May 16 2025 18:06:54 GMT-0500 (Central Daylight Time),697680.0,CFD-BF-050-012-A.jpg,1900,solid,O,z,1298,8,1,8798.10000000149,688881.8999999985,7141,ATS,B,3
3,test,4,C,haborder.png,1,m,Fri May 16 2025 18:06:54 GMT-0500 (Central Daylight Time),700129.3999999985,CFD-WM-011-006-HC.jpg,1500,solid,O,m,928,11,1,11247.5,688881.8999999985,7141,ATS,B,4
4,test,4,C,mfborder.png,1,z,Fri May 16 2025 18:06:54 GMT-0500 (Central Daylight Time),702661.6999999993,CFD-BF-035-007-HC.jpg,1500,dash,O,z,1007,3,1,13779.800000000745,688881.8999999985,7141,ATS,B,5
5,test,4,C,mfborder.png,1,z,Fri May 16 2025 18:06:54 GMT-0500 (Central Daylight Time),705543.6999999993,CFD-WF-013-015-A.jpg,1600,dash,O,z,1264,2,1,16661.800000000745,688881.8999999985,7141,ATS,B,6
6,test,4,C,mfborder.png,1,m,Fri May 16 2025 18:06:54 GMT-0500 (Central Daylight Time),707914.6999999993,CFD-WM-009-009-A.jpg,1200,dash,O,m,1147,6,1,19032.800000000745,688881.8999999985,7141,ATS,B,7
7,test,4,C,mfborder.png,1,z,Fri May 16 2025 18:06:54 GMT-0500 (Central Daylight Time),710725.2999999989,CFD-WF-011-006-HC.jpg,1700,dash,O,z,1089,1,1,21843.400000000373,688881.8999999985,7141,ATS,B,8
8,test,4,C,mfborder.png,1,z,Fri May 16 2025 18:06:54 GMT-0500 (Central Daylight Time),713374.8999999985,CFD-WF-011-006-HC.jpg,1700,dash,O,z,933,1,1,24493.0,688881.8999999985,7141,ATS,B,9
8,test,4,C,haborder.png,0,z,Fri May 16 2025 18:06:54 GMT-0500 (Central Daylight Time),716606.0,CFD-WF-026-008-A.jpg,1700,solid,O,None,1515,9,1,27724.10000000149,688881.8999999985,7141,ATS,B,10
9,test,4,C,mfborder.png,1,m,Fri May 16 2025 18:06:54 GMT-0500 (Central Daylight Time),718913.6999999993,CFD-WM-009-009-A.jpg,1200,dash,O,m,1076,6,1,30031.800000000745,688881.8999999985,7141,ATS,B,11
10,test,4,C,mfborder.png,1,m,Fri May 16 2025 18:06:54 GMT-0500 (Central Daylight Time),720990.6999999993,CFD-BM-015-017-HC.jpg,1000,dash,O,m,1067,4,1,32108.800000000745,688881.8999999985,7141,ATS,B,12
11,test,4,C,haborder.png,1,m,Fri May 16 2025 18:06:54 GMT-0500 (Central Daylight Time),723538.1999999993,CFD-BM-020-024-HC.jpg,1600,solid,O,m,919,10,1,34656.300000000745,688881.8999999985,7141,ATS,B,13
12,test,4,C,haborder.png,1,z,Fri May 16 2025 18:06:54 GMT-0500 (Central Daylight Time),725794.8999999985,CFD-BF-051-043-A.jpg,1400,solid,O,z,841,7,1,36913.0,688881.8999999985,7141,ATS,B,14
13,test,4,C,haborder.png,1,m,Fri May 16 2025 18:06:54 GMT-0500 (Central Daylight Time),727671.1999999993,CFD-WM-011-006-HC.jpg,1000,solid,O,m,866,12,1,38789.300000000745,688881.8999999985,7141,ATS,B,15
13,test,4,C,mfborder.png,0,m,Fri May 16 2025 18:06:54 GMT-0500 (Central Daylight Time),730219.7999999989,CFD-BM-015-017-HC.jpg,1000,dash,O,None,1517,4,1,41337.90000000037,688881.8999999985,7141,ATS,B,16
13,test,4,C,mfborder.png,0,m,Fri May 16 2025 18:06:54 GMT-0500 (Central Daylight Time),733734.5999999996,CFD-BM-037-041-A.jpg,2000,dash,O,None,1501,5,1,44852.70000000112,688881.8999999985,7141,ATS,B,17
13,test,4,C,mfborder.png,0,z,Fri May 16 2025 18:06:54 GMT-0500 (Central Daylight Time),736853.0999999996,CFD-WF-013-015-A.jpg,1600,dash,O,None,1501,2,1,47971.20000000112,688881.8999999985,7141,ATS,B,18
14,test,4,C,haborder.png,1,z,Fri May 16 2025 18:06:54 GMT-0500 (Central Daylight Time),740100.2999999989,CFD-BF-050-012-A.jpg,1900,solid,O,z,1332,8,1,51218.40000000037,688881.8999999985,7141,ATS,B,19
15,test,4,C,mfborder.png,1,m,Fri May 16 2025 18:06:54 GMT-0500 (Central Daylight Time),743599.7999999989,CFD-BM-037-041-A.jpg,2000,dash,O,m,1482,5,1,54717.90000000037,688881.8999999985,7141,ATS,B,20
16,test,4,C,haborder.png,1,z,Fri May 16 2025 18:06:54 GMT-0500 (Central Daylight Time),746181.1999999993,CFD-BF-051-043-A.jpg,1400,solid,O,z,1149,7,1,57299.300000000745,688881.8999999985,7141,ATS,B,21
17,test,4,C,haborder.png,1,m,Fri May 16 2025 18:06:54 GMT-0500 (Central Daylight Time),749165.0,CFD-WM-011-006-HC.jpg,1500,solid,O,m,1451,11,1,60283.10000000149,688881.8999999985,7141,ATS,B,22
18,test,4,C,haborder.png,1,m,Fri May 16 2025 18:06:54 GMT-0500 (Central Daylight Time),751611.1999999993,CFD-BM-020-024-HC.jpg,1600,solid,O,m,824,10,1,62729.300000000745,688881.8999999985,7141,ATS,B,23
19,test,4,C,haborder.png,1,m,Fri May 16 2025 18:06:54 GMT-0500 (Central Daylight Time),753444.6999999993,CFD-WM-011-006-HC.jpg,1000,solid,O,m,808,12,1,64562.800000000745,688881.8999999985,7141,ATS,B,24
