acc_sum,block,block_c,block_cond,con_img,correct,correct_response,datetime,endtime,face,jitter,line,project,response,response_time,row_sel,session_number,start_end,starttime,subject_id,task,task_vers,trial
1,prac,1,A,haborder.png,1,m,Mon May 05 2025 18:39:12 GMT-0500 (Central Daylight Time),53159.40000003576,CFD-BF-019-004-HC.jpg,2000,solid,O,m,858,5,1,3648.900000035763,49510.5,7137,ATS,C,1
2,prac,1,A,haborder.png,1,m,Mon May 05 2025 18:39:12 GMT-0500 (Central Daylight Time),56008.5,CFD-WM-028-005-HC.jpg,1400,solid,O,m,657,7,1,6498.0,49510.5,7137,ATS,C,2
3,prac,1,A,haborder.png,1,m,Mon May 05 2025 18:39:12 GMT-0500 (Central Daylight Time),59123.90000003576,CFD-BM-022-004-HC.jpg,1500,solid,O,m,829,3,1,9613.400000035763,49510.5,7137,ATS,C,3
4,prac,1,A,haborder.png,1,m,Mon May 05 2025 18:39:12 GMT-0500 (Central Daylight Time),61923.40000003576,CFD-WF-013-009-HC.jpg,1500,solid,O,m,504,11,1,12412.900000035763,49510.5,7137,ATS,C,4
5,prac,1,A,haborder.png,1,m,Mon May 05 2025 18:39:12 GMT-0500 (Central Daylight Time),65022.19999998808,CFD-BM-034-035-HC.jpg,1700,solid,O,m,601,1,1,15511.699999988079,49510.5,7137,ATS,C,5
6,prac,1,A,haborder.png,1,z,Mon May 05 2025 18:39:12 GMT-0500 (Central Daylight Time),67438.0,CFD-WF-023-013-A.jpg,1000,solid,O,z,626,12,1,17927.5,49510.5,7137,ATS,C,6
7,prac,1,A,haborder.png,1,z,Mon May 05 2025 18:39:12 GMT-0500 (Central Daylight Time),70820.30000001192,CFD-WM-036-018-A.jpg,1900,solid,O,z,686,8,1,21309.80000001192,49510.5,7137,ATS,C,7
8,prac,1,A,haborder.png,1,m,Mon May 05 2025 18:39:12 GMT-0500 (Central Daylight Time),73936.10000002384,CFD-WM-035-036-HC.jpg,1700,solid,O,m,616,9,1,24425.600000023842,49510.5,7137,ATS,C,8
9,prac,1,A,haborder.png,1,z,Mon May 05 2025 18:39:12 GMT-0500 (Central Daylight Time),76668.40000003576,CFD-BF-002-018-A.jpg,1200,solid,O,z,736,6,1,27157.900000035763,49510.5,7137,ATS,C,9
10,prac,1,A,haborder.png,1,z,Mon May 05 2025 18:39:12 GMT-0500 (Central Daylight Time),80134.10000002384,CFD-BM-043-014-A.jpg,1600,solid,O,z,1076,2,1,30623.600000023842,49510.5,7137,ATS,C,10
11,prac,1,A,haborder.png,1,z,Mon May 05 2025 18:39:12 GMT-0500 (Central Daylight Time),83233.40000003576,CFD-WF-037-016-A.jpg,1600,solid,O,z,714,10,1,33722.90000003576,49510.5,7137,ATS,C,11
12,prac,1,A,haborder.png,1,z,Mon May 05 2025 18:39:12 GMT-0500 (Central Daylight Time),85715.69999998808,CFD-BF-031-020-A.jpg,1000,solid,O,z,631,4,1,36205.19999998808,49510.5,7137,ATS,C,12
1,prac,1,B,mfborder.png,1,m,Mon May 05 2025 18:39:12 GMT-0500 (Central Daylight Time),115423.0,CFD-BM-043-014-A.jpg,2000,5,O,m,784,dash,1,3581.899999976158,111841.10000002384,7137,ATS,C,1
2,prac,1,B,mfborder.png,1,z,Mon May 05 2025 18:39:12 GMT-0500 (Central Daylight Time),118255.30000001192,CFD-WF-037-016-A.jpg,1500,11,O,z,542,dash,1,6414.199999988079,111841.10000002384,7137,ATS,C,2
3,prac,1,B,mfborder.png,1,m,Mon May 05 2025 18:39:12 GMT-0500 (Central Daylight Time),121171.30000001192,CFD-BM-021-026-A.jpg,1600,2,O,m,529,dash,1,9330.199999988079,111841.10000002384,7137,ATS,C,3
4,prac,1,B,mfborder.png,1,m,Mon May 05 2025 18:39:12 GMT-0500 (Central Daylight Time),124570.10000002384,CFD-BM-022-004-HC.jpg,1700,1,O,m,905,dash,1,12729.0,111841.10000002384,7137,ATS,C,4
5,prac,1,B,mfborder.png,1,z,Mon May 05 2025 18:39:12 GMT-0500 (Central Daylight Time),128452.40000003576,CFD-WF-001-010-HC.jpg,1900,8,O,z,1194,dash,1,16611.30000001192,111841.10000002384,7137,ATS,C,5
6,prac,1,B,mfborder.png,1,z,Mon May 05 2025 18:39:12 GMT-0500 (Central Daylight Time),131267.90000003576,CFD-BF-042-031-HC.jpg,1500,3,O,z,528,dash,1,19426.80000001192,111841.10000002384,7137,ATS,C,6
7,prac,1,B,mfborder.png,1,m,Mon May 05 2025 18:39:12 GMT-0500 (Central Daylight Time),134483.80000001192,CFD-WM-035-036-HC.jpg,1600,10,O,m,770,dash,1,22642.69999998808,111841.10000002384,7137,ATS,C,7
8,prac,1,B,mfborder.png,1,m,Mon May 05 2025 18:39:12 GMT-0500 (Central Daylight Time),137816.19999998808,CFD-WM-036-018-A.jpg,1700,9,O,m,841,dash,1,25975.099999964237,111841.10000002384,7137,ATS,C,8
9,prac,1,B,mfborder.png,1,m,Mon May 05 2025 18:39:12 GMT-0500 (Central Daylight Time),140515.0,CFD-WM-034-040-A.jpg,1200,6,O,m,705,dash,1,28673.899999976158,111841.10000002384,7137,ATS,C,9
10,prac,1,B,mfborder.png,1,z,Mon May 05 2025 18:39:12 GMT-0500 (Central Daylight Time),142981.10000002384,CFD-WF-013-009-HC.jpg,1000,12,O,z,677,dash,1,31140.0,111841.10000002384,7137,ATS,C,10
11,prac,1,B,mfborder.png,1,z,Mon May 05 2025 18:39:12 GMT-0500 (Central Daylight Time),145580.19999998808,CFD-BF-031-020-A.jpg,1000,4,O,z,811,dash,1,33739.09999996424,111841.10000002384,7137,ATS,C,11
12,prac,1,B,mfborder.png,1,z,Mon May 05 2025 18:39:12 GMT-0500 (Central Daylight Time),148679.60000002384,CFD-BF-019-004-HC.jpg,1400,7,O,z,900,dash,1,36838.5,111841.10000002384,7137,ATS,C,12
0,prac,2,B,mfborder.png,0,m,Mon May 05 2025 18:39:12 GMT-0500 (Central Daylight Time),158476.40000003576,CFD-BM-022-004-HC.jpg,1700,1,O,None,1516,dash,1,46635.30000001192,111841.10000002384,7137,ATS,C,1
0,prac,2,B,mfborder.png,0,z,Mon May 05 2025 18:39:12 GMT-0500 (Central Daylight Time),161175.30000001192,CFD-BF-019-004-HC.jpg,1400,7,O,m,500,dash,1,49334.19999998808,111841.10000002384,7137,ATS,C,2
1,prac,2,B,mfborder.png,1,m,Mon May 05 2025 18:39:12 GMT-0500 (Central Daylight Time),164474.30000001192,CFD-WM-036-018-A.jpg,1700,9,O,m,814,dash,1,52633.19999998808,111841.10000002384,7137,ATS,C,3
2,prac,2,B,mfborder.png,1,m,Mon May 05 2025 18:39:12 GMT-0500 (Central Daylight Time),166923.5,CFD-WM-034-040-A.jpg,1200,6,O,m,463,dash,1,55082.39999997616,111841.10000002384,7137,ATS,C,4
3,prac,2,B,mfborder.png,1,z,Mon May 05 2025 18:39:12 GMT-0500 (Central Daylight Time),169339.60000002384,CFD-WF-013-009-HC.jpg,1000,12,O,z,620,dash,1,57498.5,111841.10000002384,7137,ATS,C,5
4,prac,2,B,mfborder.png,1,z,Mon May 05 2025 18:39:12 GMT-0500 (Central Daylight Time),172638.60000002384,CFD-WF-001-010-HC.jpg,1900,8,O,z,609,dash,1,60797.5,111841.10000002384,7137,ATS,C,6
5,prac,2,B,mfborder.png,1,z,Mon May 05 2025 18:39:12 GMT-0500 (Central Daylight Time),175437.60000002384,CFD-BF-042-031-HC.jpg,1500,3,O,z,502,dash,1,63596.5,111841.10000002384,7137,ATS,C,7
6,prac,2,B,mfborder.png,1,m,Mon May 05 2025 18:39:12 GMT-0500 (Central Daylight Time),178436.60000002384,CFD-BM-021-026-A.jpg,1600,2,O,m,611,dash,1,66595.5,111841.10000002384,7137,ATS,C,8
7,prac,2,B,mfborder.png,1,m,Mon May 05 2025 18:39:12 GMT-0500 (Central Daylight Time),181919.30000001192,CFD-BM-043-014-A.jpg,2000,5,O,m,683,dash,1,70078.19999998808,111841.10000002384,7137,ATS,C,9
8,prac,2,B,mfborder.png,1,z,Mon May 05 2025 18:39:12 GMT-0500 (Central Daylight Time),184401.5,CFD-BF-031-020-A.jpg,1000,4,O,z,689,dash,1,72560.39999997616,111841.10000002384,7137,ATS,C,10
9,prac,2,B,mfborder.png,1,z,Mon May 05 2025 18:39:12 GMT-0500 (Central Daylight Time),187384.0,CFD-WF-037-016-A.jpg,1500,11,O,z,684,dash,1,75542.89999997616,111841.10000002384,7137,ATS,C,11
10,prac,2,B,mfborder.png,1,m,Mon May 05 2025 18:39:12 GMT-0500 (Central Daylight Time),190316.30000001192,CFD-WM-035-036-HC.jpg,1600,10,O,m,536,dash,1,78475.19999998808,111841.10000002384,7137,ATS,C,12
1,test,1,A,haborder.png,1,z,Mon May 05 2025 18:39:12 GMT-0500 (Central Daylight Time),203812.10000002384,CFD-BF-002-018-A.jpg,1200,solid,O,z,1401,6,1,2632.600000023842,201179.5,7137,ATS,C,1
2,test,1,A,haborder.png,1,z,Mon May 05 2025 18:39:12 GMT-0500 (Central Daylight Time),206360.90000003576,CFD-WF-037-016-A.jpg,1600,solid,O,z,916,10,1,5181.400000035763,201179.5,7137,ATS,C,2
3,test,1,A,haborder.png,1,m,Mon May 05 2025 18:39:12 GMT-0500 (Central Daylight Time),208793.80000001192,CFD-BM-034-035-HC.jpg,1700,solid,O,m,716,1,1,7614.300000011921,201179.5,7137,ATS,C,3
4,test,1,A,haborder.png,1,z,Mon May 05 2025 18:39:12 GMT-0500 (Central Daylight Time),210726.69999998808,CFD-BF-002-018-A.jpg,1200,solid,O,z,711,6,1,9547.199999988079,201179.5,7137,ATS,C,4
5,test,1,A,haborder.png,1,m,Mon May 05 2025 18:39:12 GMT-0500 (Central Daylight Time),213042.40000003576,CFD-BM-034-035-HC.jpg,1700,solid,O,m,590,1,1,11862.900000035763,201179.5,7137,ATS,C,5
6,test,1,A,haborder.png,1,m,Mon May 05 2025 18:39:12 GMT-0500 (Central Daylight Time),215125.19999998808,CFD-WM-028-005-HC.jpg,1400,solid,O,m,662,7,1,13945.699999988079,201179.5,7137,ATS,C,6
7,test,1,A,haborder.png,1,m,Mon May 05 2025 18:39:12 GMT-0500 (Central Daylight Time),217057.69999998808,CFD-WM-028-005-HC.jpg,1400,solid,O,m,507,7,1,15878.199999988079,201179.5,7137,ATS,C,7
8,test,1,A,haborder.png,1,m,Mon May 05 2025 18:39:12 GMT-0500 (Central Daylight Time),219306.90000003576,CFD-WM-035-036-HC.jpg,1700,solid,O,m,523,9,1,18127.400000035763,201179.5,7137,ATS,C,8
9,test,1,A,haborder.png,1,m,Mon May 05 2025 18:39:12 GMT-0500 (Central Daylight Time),221673.0,CFD-WF-013-009-HC.jpg,1500,solid,O,m,833,11,1,20493.5,201179.5,7137,ATS,C,9
10,test,1,A,haborder.png,1,z,Mon May 05 2025 18:39:12 GMT-0500 (Central Daylight Time),224105.69999998808,CFD-BM-043-014-A.jpg,1600,solid,O,z,808,2,1,22926.19999998808,201179.5,7137,ATS,C,10
11,test,1,A,haborder.png,1,z,Mon May 05 2025 18:39:12 GMT-0500 (Central Daylight Time),225755.19999998808,CFD-BF-031-020-A.jpg,1000,solid,O,z,623,4,1,24575.69999998808,201179.5,7137,ATS,C,11
11,test,1,A,haborder.png,0,z,Mon May 05 2025 18:39:12 GMT-0500 (Central Daylight Time),228271.0,CFD-WM-036-018-A.jpg,1900,solid,O,m,593,8,1,27091.5,201179.5,7137,ATS,C,12
12,test,1,A,haborder.png,1,m,Mon May 05 2025 18:39:12 GMT-0500 (Central Daylight Time),230553.69999998808,CFD-BM-022-004-HC.jpg,1500,solid,O,m,750,3,1,29374.19999998808,201179.5,7137,ATS,C,13
13,test,1,A,haborder.png,1,m,Mon May 05 2025 18:39:12 GMT-0500 (Central Daylight Time),232886.40000003576,CFD-WM-035-036-HC.jpg,1700,solid,O,m,603,9,1,31706.900000035763,201179.5,7137,ATS,C,14
14,test,1,A,haborder.png,1,m,Mon May 05 2025 18:39:12 GMT-0500 (Central Daylight Time),235618.69999998808,CFD-BF-019-004-HC.jpg,2000,solid,O,m,706,5,1,34439.19999998808,201179.5,7137,ATS,C,15
15,test,1,A,haborder.png,1,z,Mon May 05 2025 18:39:12 GMT-0500 (Central Daylight Time),237301.5,CFD-WF-023-013-A.jpg,1000,solid,O,z,661,12,1,36122.0,201179.5,7137,ATS,C,16
16,test,1,A,haborder.png,1,m,Mon May 05 2025 18:39:12 GMT-0500 (Central Daylight Time),239983.90000003576,CFD-BF-019-004-HC.jpg,2000,solid,O,m,652,5,1,38804.40000003576,201179.5,7137,ATS,C,17
17,test,1,A,haborder.png,1,m,Mon May 05 2025 18:39:12 GMT-0500 (Central Daylight Time),242050.0,CFD-WF-013-009-HC.jpg,1500,solid,O,m,533,11,1,40870.5,201179.5,7137,ATS,C,18
18,test,1,A,haborder.png,1,z,Mon May 05 2025 18:39:12 GMT-0500 (Central Daylight Time),243583.0,CFD-BF-031-020-A.jpg,1000,solid,O,z,510,4,1,42403.5,201179.5,7137,ATS,C,19
19,test,1,A,haborder.png,1,z,Mon May 05 2025 18:39:12 GMT-0500 (Central Daylight Time),246015.5,CFD-BM-043-014-A.jpg,1600,solid,O,z,801,2,1,44836.0,201179.5,7137,ATS,C,20
20,test,1,A,haborder.png,1,m,Mon May 05 2025 18:39:12 GMT-0500 (Central Daylight Time),248198.19999998808,CFD-BM-022-004-HC.jpg,1500,solid,O,m,659,3,1,47018.69999998808,201179.5,7137,ATS,C,21
21,test,1,A,haborder.png,1,z,Mon May 05 2025 18:39:12 GMT-0500 (Central Daylight Time),250592.40000003576,CFD-WF-037-016-A.jpg,1600,solid,O,z,776,10,1,49412.90000003576,201179.5,7137,ATS,C,22
21,test,1,A,haborder.png,0,z,Mon May 05 2025 18:39:12 GMT-0500 (Central Daylight Time),253163.19999998808,CFD-WM-036-018-A.jpg,1900,solid,O,m,640,8,1,51983.69999998808,201179.5,7137,ATS,C,23
22,test,1,A,haborder.png,1,z,Mon May 05 2025 18:39:12 GMT-0500 (Central Daylight Time),255112.5,CFD-WF-023-013-A.jpg,1000,solid,O,z,926,12,1,53933.0,201179.5,7137,ATS,C,24
1,test,1,B,mfborder.png,1,m,Mon May 05 2025 18:39:12 GMT-0500 (Central Daylight Time),270241.10000002384,CFD-BM-021-026-A.jpg,1600,dash,O,m,996,2,1,2632.400000035763,267608.6999999881,7137,ATS,C,1
2,test,1,B,mfborder.png,1,z,Mon May 05 2025 18:39:12 GMT-0500 (Central Daylight Time),271974.0,CFD-WF-013-009-HC.jpg,1000,dash,O,z,712,12,1,4365.300000011921,267608.6999999881,7137,ATS,C,2
3,test,1,B,mfborder.png,1,m,Mon May 05 2025 18:39:12 GMT-0500 (Central Daylight Time),274298.1999999881,CFD-BM-022-004-HC.jpg,1700,dash,O,m,607,1,1,6689.5,267608.6999999881,7137,ATS,C,3
4,test,1,B,mfborder.png,1,z,Mon May 05 2025 18:39:12 GMT-0500 (Central Daylight Time),276422.60000002384,CFD-BF-019-004-HC.jpg,1400,dash,O,z,704,7,1,8813.900000035763,267608.6999999881,7137,ATS,C,4
5,test,1,B,mfborder.png,1,m,Mon May 05 2025 18:39:12 GMT-0500 (Central Daylight Time),278205.3000000119,CFD-WM-034-040-A.jpg,1200,dash,O,m,553,6,1,10596.600000023842,267608.6999999881,7137,ATS,C,5
6,test,1,B,mfborder.png,1,z,Mon May 05 2025 18:39:12 GMT-0500 (Central Daylight Time),280288.1999999881,CFD-WF-037-016-A.jpg,1500,dash,O,z,552,11,1,12679.5,267608.6999999881,7137,ATS,C,6
7,test,1,B,mfborder.png,1,m,Mon May 05 2025 18:39:12 GMT-0500 (Central Daylight Time),282553.90000003576,CFD-WM-035-036-HC.jpg,1600,dash,O,m,641,10,1,14945.200000047684,267608.6999999881,7137,ATS,C,7
8,test,1,B,mfborder.png,1,z,Mon May 05 2025 18:39:12 GMT-0500 (Central Daylight Time),284153.8000000119,CFD-BF-031-020-A.jpg,1000,dash,O,z,575,4,1,16545.100000023842,267608.6999999881,7137,ATS,C,8
9,test,1,B,mfborder.png,1,z,Mon May 05 2025 18:39:12 GMT-0500 (Central Daylight Time),286569.5,CFD-BF-042-031-HC.jpg,1500,dash,O,z,890,3,1,18960.80000001192,267608.6999999881,7137,ATS,C,9
10,test,1,B,mfborder.png,1,z,Mon May 05 2025 18:39:12 GMT-0500 (Central Daylight Time),288185.40000003576,CFD-BF-031-020-A.jpg,1000,dash,O,z,590,4,1,20576.700000047684,267608.6999999881,7137,ATS,C,10
11,test,1,B,mfborder.png,1,m,Mon May 05 2025 18:39:12 GMT-0500 (Central Daylight Time),290518.3000000119,CFD-WM-036-018-A.jpg,1700,dash,O,m,604,9,1,22909.600000023842,267608.6999999881,7137,ATS,C,11
12,test,1,B,mfborder.png,1,z,Mon May 05 2025 18:39:12 GMT-0500 (Central Daylight Time),292600.8000000119,CFD-WF-037-016-A.jpg,1500,dash,O,z,550,11,1,24992.100000023842,267608.6999999881,7137,ATS,C,12
13,test,1,B,mfborder.png,1,m,Mon May 05 2025 18:39:12 GMT-0500 (Central Daylight Time),294400.40000003576,CFD-WM-034-040-A.jpg,1200,dash,O,m,567,6,1,26791.700000047684,267608.6999999881,7137,ATS,C,13
14,test,1,B,mfborder.png,1,m,Mon May 05 2025 18:39:12 GMT-0500 (Central Daylight Time),296949.5,CFD-BM-043-014-A.jpg,2000,dash,O,m,521,5,1,29340.80000001192,267608.6999999881,7137,ATS,C,14
15,test,1,B,mfborder.png,1,m,Mon May 05 2025 18:39:12 GMT-0500 (Central Daylight Time),299498.40000003576,CFD-BM-043-014-A.jpg,2000,dash,O,m,532,5,1,31889.700000047684,267608.6999999881,7137,ATS,C,15
16,test,1,B,mfborder.png,1,z,Mon May 05 2025 18:39:12 GMT-0500 (Central Daylight Time),301614.90000003576,CFD-BF-019-004-HC.jpg,1400,dash,O,z,694,7,1,34006.200000047684,267608.6999999881,7137,ATS,C,16
17,test,1,B,mfborder.png,1,z,Mon May 05 2025 18:39:12 GMT-0500 (Central Daylight Time),303197.6999999881,CFD-WF-013-009-HC.jpg,1000,dash,O,z,562,12,1,35589.0,267608.6999999881,7137,ATS,C,17
18,test,1,B,mfborder.png,1,m,Mon May 05 2025 18:39:12 GMT-0500 (Central Daylight Time),305363.40000003576,CFD-BM-021-026-A.jpg,1600,dash,O,m,547,2,1,37754.700000047684,267608.6999999881,7137,ATS,C,18
19,test,1,B,mfborder.png,1,z,Mon May 05 2025 18:39:12 GMT-0500 (Central Daylight Time),308429.40000003576,CFD-WF-001-010-HC.jpg,1900,dash,O,z,1146,8,1,40820.700000047684,267608.6999999881,7137,ATS,C,19
20,test,1,B,mfborder.png,1,m,Mon May 05 2025 18:39:12 GMT-0500 (Central Daylight Time),310778.40000003576,CFD-BM-022-004-HC.jpg,1700,dash,O,m,619,1,1,43169.700000047684,267608.6999999881,7137,ATS,C,20
21,test,1,B,mfborder.png,1,m,Mon May 05 2025 18:39:12 GMT-0500 (Central Daylight Time),312944.40000003576,CFD-WM-035-036-HC.jpg,1600,dash,O,m,530,10,1,45335.700000047684,267608.6999999881,7137,ATS,C,21
22,test,1,B,mfborder.png,1,z,Mon May 05 2025 18:39:12 GMT-0500 (Central Daylight Time),315793.60000002384,CFD-WF-001-010-HC.jpg,1900,dash,O,z,916,8,1,48184.90000003576,267608.6999999881,7137,ATS,C,22
23,test,1,B,mfborder.png,1,m,Mon May 05 2025 18:39:12 GMT-0500 (Central Daylight Time),318109.5,CFD-WM-036-018-A.jpg,1700,dash,O,m,586,9,1,50500.80000001192,267608.6999999881,7137,ATS,C,23
24,test,1,B,mfborder.png,1,z,Mon May 05 2025 18:39:12 GMT-0500 (Central Daylight Time),320292.3000000119,CFD-BF-042-031-HC.jpg,1500,dash,O,z,659,3,1,52683.60000002384,267608.6999999881,7137,ATS,C,24
0,prac,1,C,haborder.png,0,m,Mon May 05 2025 18:39:12 GMT-0500 (Central Daylight Time),373892.10000002384,CFD-WM-028-005-HC.jpg,1400,solid,O,None,1516,3,1,3698.800000011921,370193.3000000119,7137,ATS,C,1
0,prac,1,C,mfborder.png,0,m,Mon May 05 2025 18:39:12 GMT-0500 (Central Daylight Time),378190.8000000119,CFD-BM-034-035-HC.jpg,2000,solid,O,None,1515,3,1,7997.5,370193.3000000119,7137,ATS,C,2
1,prac,1,C,mfborder.png,1,z,Mon May 05 2025 18:39:12 GMT-0500 (Central Daylight Time),381189.8000000119,CFD-WF-023-013-A.jpg,1500,solid,O,z,711,3,1,10996.5,370193.3000000119,7137,ATS,C,3
2,prac,1,C,haborder.png,1,z,Mon May 05 2025 18:39:12 GMT-0500 (Central Daylight Time),385088.5,CFD-BF-002-018-A.jpg,1700,solid,O,z,1400,3,1,14895.199999988079,370193.3000000119,7137,ATS,C,4
2,prac,1,C,mfborder.png,0,z,Mon May 05 2025 18:39:12 GMT-0500 (Central Daylight Time),388987.40000003576,CFD-WF-013-009-HC.jpg,1600,dash,O,None,1516,3,1,18794.100000023842,370193.3000000119,7137,ATS,C,5
2,prac,1,C,mfborder.png,0,m,Mon May 05 2025 18:39:12 GMT-0500 (Central Daylight Time),392936.10000002384,CFD-WM-036-018-A.jpg,1700,solid,O,z,1465,3,1,22742.80000001192,370193.3000000119,7137,ATS,C,6
3,prac,1,C,haborder.png,1,m,Mon May 05 2025 18:39:12 GMT-0500 (Central Daylight Time),395968.6999999881,CFD-WM-028-005-HC.jpg,1000,dash,O,m,1249,3,1,25775.399999976158,370193.3000000119,7137,ATS,C,7
4,prac,1,C,haborder.png,1,m,Mon May 05 2025 18:39:12 GMT-0500 (Central Daylight Time),399300.8000000119,CFD-BM-022-004-HC.jpg,1500,solid,O,m,1036,3,1,29107.5,370193.3000000119,7137,ATS,C,8
5,prac,1,C,haborder.png,1,z,Mon May 05 2025 18:39:12 GMT-0500 (Central Daylight Time),402883.10000002384,CFD-BF-031-020-A.jpg,1900,dash,O,z,888,3,1,32689.80000001192,370193.3000000119,7137,ATS,C,9
6,prac,1,C,haborder.png,1,z,Mon May 05 2025 18:39:12 GMT-0500 (Central Daylight Time),406265.3000000119,CFD-WF-037-016-A.jpg,1600,dash,O,z,997,3,1,36072.0,370193.3000000119,7137,ATS,C,10
6,prac,1,C,mfborder.png,0,z,Mon May 05 2025 18:39:12 GMT-0500 (Central Daylight Time),409197.90000003576,CFD-BF-019-004-HC.jpg,1000,dash,O,m,1143,3,1,39004.60000002384,370193.3000000119,7137,ATS,C,11
6,prac,1,C,mfborder.png,0,m,Mon May 05 2025 18:39:12 GMT-0500 (Central Daylight Time),412479.90000003576,CFD-BM-043-014-A.jpg,1200,dash,O,z,1299,3,1,42286.60000002384,370193.3000000119,7137,ATS,C,12
1,prac,2,C,haborder.png,1,m,Mon May 05 2025 18:39:12 GMT-0500 (Central Daylight Time),420743.90000003576,CFD-BM-022-004-HC.jpg,1500,solid,O,m,1000,3,1,50550.60000002384,370193.3000000119,7137,ATS,C,1
1,prac,2,C,mfborder.png,0,m,Mon May 05 2025 18:39:12 GMT-0500 (Central Daylight Time),424742.6999999881,CFD-WM-036-018-A.jpg,1700,solid,O,None,1515,3,1,54549.39999997616,370193.3000000119,7137,ATS,C,2
1,prac,2,C,mfborder.png,0,z,Mon May 05 2025 18:39:12 GMT-0500 (Central Daylight Time),428491.5,CFD-WF-013-009-HC.jpg,1600,dash,O,m,1363,3,1,58298.19999998808,370193.3000000119,7137,ATS,C,3
1,prac,2,C,mfborder.png,0,m,Mon May 05 2025 18:39:12 GMT-0500 (Central Daylight Time),431807.10000002384,CFD-BM-043-014-A.jpg,1200,dash,O,z,1316,3,1,61613.80000001192,370193.3000000119,7137,ATS,C,4
1,prac,2,C,haborder.png,0,z,Mon May 05 2025 18:39:12 GMT-0500 (Central Daylight Time),435706.0,CFD-WF-037-016-A.jpg,1600,dash,O,None,1516,3,1,65512.69999998808,370193.3000000119,7137,ATS,C,5
1,prac,2,C,haborder.png,0,z,Mon May 05 2025 18:39:12 GMT-0500 (Central Daylight Time),439704.8000000119,CFD-BF-002-018-A.jpg,1700,solid,O,None,1515,3,1,69511.5,370193.3000000119,7137,ATS,C,6
1,prac,2,C,mfborder.png,0,m,Mon May 05 2025 18:39:12 GMT-0500 (Central Daylight Time),444004.0,CFD-BM-034-035-HC.jpg,2000,solid,O,None,1516,3,1,73810.69999998808,370193.3000000119,7137,ATS,C,7
2,prac,2,C,haborder.png,1,m,Mon May 05 2025 18:39:12 GMT-0500 (Central Daylight Time),446852.8000000119,CFD-WM-028-005-HC.jpg,1000,dash,O,m,1061,3,1,76659.5,370193.3000000119,7137,ATS,C,8
3,prac,2,C,haborder.png,1,m,Mon May 05 2025 18:39:12 GMT-0500 (Central Daylight Time),450234.8000000119,CFD-WM-028-005-HC.jpg,1400,solid,O,m,1197,3,1,80041.5,370193.3000000119,7137,ATS,C,9
4,prac,2,C,mfborder.png,1,z,Mon May 05 2025 18:39:12 GMT-0500 (Central Daylight Time),453200.6999999881,CFD-BF-019-004-HC.jpg,1000,dash,O,z,1166,3,1,83007.39999997616,370193.3000000119,7137,ATS,C,10
5,prac,2,C,mfborder.png,1,z,Mon May 05 2025 18:39:12 GMT-0500 (Central Daylight Time),456899.60000002384,CFD-WF-023-013-A.jpg,1500,solid,O,z,1404,3,1,86706.30000001192,370193.3000000119,7137,ATS,C,11
6,prac,2,C,haborder.png,1,z,Mon May 05 2025 18:39:12 GMT-0500 (Central Daylight Time),460481.8000000119,CFD-BF-031-020-A.jpg,1900,dash,O,z,889,3,1,90288.5,370193.3000000119,7137,ATS,C,12
1,test,1,C,haborder.png,1,m,Mon May 05 2025 18:39:12 GMT-0500 (Central Daylight Time),486906.6999999881,CFD-WF-001-010-HC.jpg,1500,solid,O,m,641,11,1,2199.199999988079,484707.5,7137,ATS,C,1
2,test,1,C,mfborder.png,1,m,Mon May 05 2025 18:39:12 GMT-0500 (Central Daylight Time),489239.40000003576,CFD-WM-035-036-HC.jpg,1000,dash,O,m,1297,4,1,4531.900000035763,484707.5,7137,ATS,C,2
3,test,1,C,haborder.png,1,m,Mon May 05 2025 18:39:12 GMT-0500 (Central Daylight Time),491555.40000003576,CFD-WF-013-009-HC.jpg,1000,solid,O,m,1297,12,1,6847.900000035763,484707.5,7137,ATS,C,3
3,test,1,C,haborder.png,0,z,Mon May 05 2025 18:39:12 GMT-0500 (Central Daylight Time),494787.60000002384,CFD-BM-021-026-A.jpg,1700,solid,O,None,1516,9,1,10080.100000023842,484707.5,7137,ATS,C,4
4,test,1,C,haborder.png,1,z,Mon May 05 2025 18:39:12 GMT-0500 (Central Daylight Time),497903.3000000119,CFD-BM-043-014-A.jpg,1900,solid,O,z,1194,8,1,13195.800000011921,484707.5,7137,ATS,C,5
4,test,1,C,mfborder.png,0,m,Mon May 05 2025 18:39:12 GMT-0500 (Central Daylight Time),500635.60000002384,CFD-BM-022-004-HC.jpg,1200,dash,O,None,1516,6,1,15928.100000023842,484707.5,7137,ATS,C,6
5,test,1,C,mfborder.png,1,m,Mon May 05 2025 18:39:12 GMT-0500 (Central Daylight Time),503618.0,CFD-WM-034-040-A.jpg,2000,dash,O,m,957,5,1,18910.5,484707.5,7137,ATS,C,7
6,test,1,C,haborder.png,1,z,Mon May 05 2025 18:39:12 GMT-0500 (Central Daylight Time),505983.90000003576,CFD-WM-036-018-A.jpg,1400,solid,O,z,943,7,1,21276.400000035763,484707.5,7137,ATS,C,8
7,test,1,C,haborder.png,1,m,Mon May 05 2025 18:39:12 GMT-0500 (Central Daylight Time),508133.5,CFD-WF-001-010-HC.jpg,1500,solid,O,m,629,11,1,23426.0,484707.5,7137,ATS,C,9
8,test,1,C,mfborder.png,1,m,Mon May 05 2025 18:39:12 GMT-0500 (Central Daylight Time),510699.3000000119,CFD-BM-022-004-HC.jpg,1200,dash,O,m,1348,6,1,25991.80000001192,484707.5,7137,ATS,C,10
9,test,1,C,mfborder.png,1,z,Mon May 05 2025 18:39:12 GMT-0500 (Central Daylight Time),513281.90000003576,CFD-WF-037-016-A.jpg,1500,dash,O,z,1050,3,1,28574.400000035763,484707.5,7137,ATS,C,11
9,test,1,C,mfborder.png,0,z,Mon May 05 2025 18:39:12 GMT-0500 (Central Daylight Time),516314.1999999881,CFD-WF-037-016-A.jpg,1500,dash,O,None,1515,3,1,31606.69999998808,484707.5,7137,ATS,C,12
9,test,1,C,mfborder.png,0,z,Mon May 05 2025 18:39:12 GMT-0500 (Central Daylight Time),519546.3000000119,CFD-BF-042-031-HC.jpg,1700,dash,O,None,1515,1,1,34838.80000001192,484707.5,7137,ATS,C,13
9,test,1,C,mfborder.png,0,m,Mon May 05 2025 18:39:12 GMT-0500 (Central Daylight Time),522079.3000000119,CFD-WM-035-036-HC.jpg,1000,dash,O,None,1516,4,1,37371.80000001192,484707.5,7137,ATS,C,14
9,test,1,C,haborder.png,0,m,Mon May 05 2025 18:39:12 GMT-0500 (Central Daylight Time),524495.0,CFD-WF-013-009-HC.jpg,1000,solid,O,z,1393,12,1,39787.5,484707.5,7137,ATS,C,15
9,test,1,C,mfborder.png,0,z,Mon May 05 2025 18:39:12 GMT-0500 (Central Daylight Time),527727.5,CFD-BF-042-031-HC.jpg,1700,dash,O,None,1516,1,1,43020.0,484707.5,7137,ATS,C,16
9,test,1,C,mfborder.png,0,m,Mon May 05 2025 18:39:12 GMT-0500 (Central Daylight Time),531259.4000000358,CFD-WM-034-040-A.jpg,2000,dash,O,None,1515,5,1,46551.90000003576,484707.5,7137,ATS,C,17
10,test,1,C,haborder.png,1,m,Mon May 05 2025 18:39:12 GMT-0500 (Central Daylight Time),533842.1000000238,CFD-BF-019-004-HC.jpg,1600,solid,O,m,950,10,1,49134.60000002384,484707.5,7137,ATS,C,18
11,test,1,C,haborder.png,1,z,Mon May 05 2025 18:39:12 GMT-0500 (Central Daylight Time),536057.9000000358,CFD-WM-036-018-A.jpg,1400,solid,O,z,783,7,1,51350.40000003576,484707.5,7137,ATS,C,19
12,test,1,C,haborder.png,1,m,Mon May 05 2025 18:39:12 GMT-0500 (Central Daylight Time),538407.1000000238,CFD-BF-019-004-HC.jpg,1600,solid,O,m,727,10,1,53699.60000002384,484707.5,7137,ATS,C,20
13,test,1,C,mfborder.png,1,z,Mon May 05 2025 18:39:12 GMT-0500 (Central Daylight Time),540806.5,CFD-BF-031-020-A.jpg,1600,dash,O,z,777,2,1,56099.0,484707.5,7137,ATS,C,21
14,test,1,C,haborder.png,1,z,Mon May 05 2025 18:39:12 GMT-0500 (Central Daylight Time),543689.8000000119,CFD-BM-043-014-A.jpg,1900,solid,O,z,966,8,1,58982.30000001192,484707.5,7137,ATS,C,22
14,test,1,C,haborder.png,0,z,Mon May 05 2025 18:39:12 GMT-0500 (Central Daylight Time),546921.4000000358,CFD-BM-021-026-A.jpg,1700,solid,O,None,1511,9,1,62213.90000003576,484707.5,7137,ATS,C,23
15,test,1,C,mfborder.png,1,z,Mon May 05 2025 18:39:12 GMT-0500 (Central Daylight Time),549753.9000000358,CFD-BF-031-020-A.jpg,1600,dash,O,z,1216,2,1,65046.40000003576,484707.5,7137,ATS,C,24
0,test,2,C,mfborder.png,0,m,Mon May 05 2025 18:39:12 GMT-0500 (Central Daylight Time),558567.6999999881,CFD-WM-036-018-A.jpg,1200,dash,O,None,1501,6,1,2732.699999988079,555835.0,7137,ATS,C,1
1,test,2,C,haborder.png,1,m,Mon May 05 2025 18:39:12 GMT-0500 (Central Daylight Time),560417.0,CFD-WM-028-005-HC.jpg,1000,solid,O,m,813,12,1,4582.0,555835.0,7137,ATS,C,2
1,test,2,C,mfborder.png,0,m,Mon May 05 2025 18:39:12 GMT-0500 (Central Daylight Time),563632.6999999881,CFD-BM-043-014-A.jpg,2000,dash,O,z,1183,5,1,7797.699999988079,555835.0,7137,ATS,C,3
2,test,2,C,haborder.png,1,m,Mon May 05 2025 18:39:12 GMT-0500 (Central Daylight Time),566049.6999999881,CFD-WM-028-005-HC.jpg,1500,solid,O,m,883,11,1,10214.699999988079,555835.0,7137,ATS,C,4
3,test,2,C,mfborder.png,1,z,Mon May 05 2025 18:39:12 GMT-0500 (Central Daylight Time),568664.5,CFD-BF-019-004-HC.jpg,1500,dash,O,z,1093,3,1,12829.5,555835.0,7137,ATS,C,5
4,test,2,C,haborder.png,1,m,Mon May 05 2025 18:39:12 GMT-0500 (Central Daylight Time),571446.8000000119,CFD-BM-022-004-HC.jpg,1600,solid,O,m,1153,10,1,15611.800000011921,555835.0,7137,ATS,C,6
4,test,2,C,haborder.png,0,m,Mon May 05 2025 18:39:12 GMT-0500 (Central Daylight Time),574545.6999999881,CFD-BM-022-004-HC.jpg,1600,solid,O,z,1474,10,1,18710.69999998808,555835.0,7137,ATS,C,7
5,test,2,C,mfborder.png,1,m,Mon May 05 2025 18:39:12 GMT-0500 (Central Daylight Time),577211.6999999881,CFD-WM-036-018-A.jpg,1200,dash,O,m,1439,6,1,21376.69999998808,555835.0,7137,ATS,C,8
6,test,2,C,haborder.png,1,z,Mon May 05 2025 18:39:12 GMT-0500 (Central Daylight Time),579761.0,CFD-WF-037-016-A.jpg,1700,solid,O,z,817,9,1,23926.0,555835.0,7137,ATS,C,9
7,test,2,C,mfborder.png,1,m,Mon May 05 2025 18:39:12 GMT-0500 (Central Daylight Time),581860.4000000358,CFD-BM-034-035-HC.jpg,1000,dash,O,m,1073,4,1,26025.400000035763,555835.0,7137,ATS,C,10
8,test,2,C,mfborder.png,1,z,Mon May 05 2025 18:39:12 GMT-0500 (Central Daylight Time),584659.4000000358,CFD-WF-013-009-HC.jpg,1700,dash,O,z,1080,1,1,28824.400000035763,555835.0,7137,ATS,C,11
9,test,2,C,haborder.png,1,z,Mon May 05 2025 18:39:12 GMT-0500 (Central Daylight Time),586992.1999999881,CFD-BF-031-020-A.jpg,1400,solid,O,z,901,7,1,31157.19999998808,555835.0,7137,ATS,C,12
10,test,2,C,haborder.png,1,m,Mon May 05 2025 18:39:12 GMT-0500 (Central Daylight Time),588524.9000000358,CFD-WM-028-005-HC.jpg,1000,solid,O,m,512,12,1,32689.900000035763,555835.0,7137,ATS,C,13
11,test,2,C,haborder.png,1,z,Mon May 05 2025 18:39:12 GMT-0500 (Central Daylight Time),591224.1000000238,CFD-BF-002-018-A.jpg,1900,solid,O,z,769,8,1,35389.10000002384,555835.0,7137,ATS,C,14
12,test,2,C,haborder.png,1,z,Mon May 05 2025 18:39:12 GMT-0500 (Central Daylight Time),593306.6000000238,CFD-BF-031-020-A.jpg,1400,solid,O,z,665,7,1,37471.60000002384,555835.0,7137,ATS,C,15
13,test,2,C,mfborder.png,1,m,Mon May 05 2025 18:39:12 GMT-0500 (Central Daylight Time),595206.1999999881,CFD-BM-034-035-HC.jpg,1000,dash,O,m,878,4,1,39371.19999998808,555835.0,7137,ATS,C,16
14,test,2,C,mfborder.png,1,z,Mon May 05 2025 18:39:12 GMT-0500 (Central Daylight Time),597855.5,CFD-WF-013-009-HC.jpg,1700,dash,O,z,919,1,1,42020.5,555835.0,7137,ATS,C,17
15,test,2,C,mfborder.png,1,z,Mon May 05 2025 18:39:12 GMT-0500 (Central Daylight Time),600337.8000000119,CFD-BF-019-004-HC.jpg,1500,dash,O,z,958,3,1,44502.80000001192,555835.0,7137,ATS,C,18
16,test,2,C,mfborder.png,1,z,Mon May 05 2025 18:39:12 GMT-0500 (Central Daylight Time),602653.8000000119,CFD-WF-023-013-A.jpg,1600,dash,O,z,687,2,1,46818.80000001192,555835.0,7137,ATS,C,19
17,test,2,C,mfborder.png,1,z,Mon May 05 2025 18:39:12 GMT-0500 (Central Daylight Time),604956.4000000358,CFD-WF-023-013-A.jpg,1600,dash,O,z,676,2,1,49121.40000003576,555835.0,7137,ATS,C,20
18,test,2,C,mfborder.png,1,m,Mon May 05 2025 18:39:12 GMT-0500 (Central Daylight Time),607918.8000000119,CFD-BM-043-014-A.jpg,2000,dash,O,m,944,5,1,52083.80000001192,555835.0,7137,ATS,C,21
19,test,2,C,haborder.png,1,z,Mon May 05 2025 18:39:12 GMT-0500 (Central Daylight Time),610368.1000000238,CFD-WF-037-016-A.jpg,1700,solid,O,z,726,9,1,54533.10000002384,555835.0,7137,ATS,C,22
20,test,2,C,haborder.png,1,m,Mon May 05 2025 18:39:12 GMT-0500 (Central Daylight Time),612650.4000000358,CFD-WM-028-005-HC.jpg,1500,solid,O,m,765,11,1,56815.40000003576,555835.0,7137,ATS,C,23
21,test,2,C,haborder.png,1,z,Mon May 05 2025 18:39:12 GMT-0500 (Central Daylight Time),615283.1999999881,CFD-BF-002-018-A.jpg,1900,solid,O,z,707,8,1,59448.19999998808,555835.0,7137,ATS,C,24
1,test,3,C,haborder.png,1,m,Mon May 05 2025 18:39:12 GMT-0500 (Central Daylight Time),620648.6000000238,CFD-WF-001-010-HC.jpg,1500,solid,O,m,1147,11,1,2682.800000011921,617965.8000000119,7137,ATS,C,1
2,test,3,C,haborder.png,1,z,Mon May 05 2025 18:39:12 GMT-0500 (Central Daylight Time),623897.1999999881,CFD-BM-043-014-A.jpg,1900,solid,O,z,1313,8,1,5931.399999976158,617965.8000000119,7137,ATS,C,2
3,test,3,C,mfborder.png,1,m,Mon May 05 2025 18:39:12 GMT-0500 (Central Daylight Time),626329.8000000119,CFD-WM-035-036-HC.jpg,1000,dash,O,m,1400,4,1,8364.0,617965.8000000119,7137,ATS,C,3
4,test,3,C,mfborder.png,1,m,Mon May 05 2025 18:39:12 GMT-0500 (Central Daylight Time),629295.5,CFD-WM-034-040-A.jpg,2000,dash,O,m,939,5,1,11329.699999988079,617965.8000000119,7137,ATS,C,4
5,test,3,C,mfborder.png,1,z,Mon May 05 2025 18:39:12 GMT-0500 (Central Daylight Time),631611.4000000358,CFD-BF-031-020-A.jpg,1600,dash,O,z,689,2,1,13645.600000023842,617965.8000000119,7137,ATS,C,5
6,test,3,C,haborder.png,1,z,Mon May 05 2025 18:39:12 GMT-0500 (Central Daylight Time),633910.1999999881,CFD-WM-036-018-A.jpg,1400,solid,O,z,877,7,1,15944.399999976158,617965.8000000119,7137,ATS,C,6
7,test,3,C,haborder.png,1,m,Mon May 05 2025 18:39:12 GMT-0500 (Central Daylight Time),636209.6000000238,CFD-WF-001-010-HC.jpg,1500,solid,O,m,782,11,1,18243.80000001192,617965.8000000119,7137,ATS,C,7
8,test,3,C,haborder.png,1,z,Mon May 05 2025 18:39:12 GMT-0500 (Central Daylight Time),638425.9000000358,CFD-WM-036-018-A.jpg,1400,solid,O,z,792,7,1,20460.100000023842,617965.8000000119,7137,ATS,C,8
9,test,3,C,haborder.png,1,z,Mon May 05 2025 18:39:12 GMT-0500 (Central Daylight Time),641708.0,CFD-BM-043-014-A.jpg,1900,solid,O,z,1364,8,1,23742.19999998808,617965.8000000119,7137,ATS,C,9
10,test,3,C,haborder.png,1,m,Mon May 05 2025 18:39:12 GMT-0500 (Central Daylight Time),643591.1000000238,CFD-WF-013-009-HC.jpg,1000,solid,O,m,853,12,1,25625.30000001192,617965.8000000119,7137,ATS,C,10
10,test,3,C,mfborder.png,0,m,Mon May 05 2025 18:39:12 GMT-0500 (Central Daylight Time),646523.4000000358,CFD-WM-034-040-A.jpg,2000,dash,O,z,914,5,1,28557.600000023842,617965.8000000119,7137,ATS,C,11
11,test,3,C,haborder.png,1,m,Mon May 05 2025 18:39:12 GMT-0500 (Central Daylight Time),649272.5,CFD-BF-019-004-HC.jpg,1600,solid,O,m,1125,10,1,31306.69999998808,617965.8000000119,7137,ATS,C,12
12,test,3,C,mfborder.png,1,z,Mon May 05 2025 18:39:12 GMT-0500 (Central Daylight Time),651605.1000000238,CFD-WF-037-016-A.jpg,1500,dash,O,z,805,3,1,33639.30000001192,617965.8000000119,7137,ATS,C,13
12,test,3,C,haborder.png,0,z,Mon May 05 2025 18:39:12 GMT-0500 (Central Daylight Time),654270.8000000119,CFD-BM-021-026-A.jpg,1700,solid,O,m,944,9,1,36305.0,617965.8000000119,7137,ATS,C,14
12,test,3,C,haborder.png,0,m,Mon May 05 2025 18:39:12 GMT-0500 (Central Daylight Time),656806.9000000358,CFD-WF-013-009-HC.jpg,1000,solid,O,None,1515,12,1,38841.10000002384,617965.8000000119,7137,ATS,C,15
13,test,3,C,mfborder.png,1,z,Mon May 05 2025 18:39:12 GMT-0500 (Central Daylight Time),659252.8000000119,CFD-BF-042-031-HC.jpg,1700,dash,O,z,722,1,1,41287.0,617965.8000000119,7137,ATS,C,16
13,test,3,C,mfborder.png,0,z,Mon May 05 2025 18:39:12 GMT-0500 (Central Daylight Time),662385.1000000238,CFD-BF-031-020-A.jpg,1600,dash,O,None,1516,2,1,44419.30000001192,617965.8000000119,7137,ATS,C,17
14,test,3,C,mfborder.png,1,m,Mon May 05 2025 18:39:12 GMT-0500 (Central Daylight Time),664434.6000000238,CFD-BM-022-004-HC.jpg,1200,dash,O,m,819,6,1,46468.80000001192,617965.8000000119,7137,ATS,C,18
15,test,3,C,mfborder.png,1,z,Mon May 05 2025 18:39:12 GMT-0500 (Central Daylight Time),666600.6000000238,CFD-WF-037-016-A.jpg,1500,dash,O,z,643,3,1,48634.80000001192,617965.8000000119,7137,ATS,C,19
16,test,3,C,haborder.png,1,m,Mon May 05 2025 18:39:12 GMT-0500 (Central Daylight Time),668833.0,CFD-BF-019-004-HC.jpg,1600,solid,O,m,608,10,1,50867.19999998808,617965.8000000119,7137,ATS,C,20
16,test,3,C,mfborder.png,0,m,Mon May 05 2025 18:39:12 GMT-0500 (Central Daylight Time),671365.6999999881,CFD-WM-035-036-HC.jpg,1000,dash,O,None,1516,4,1,53399.89999997616,617965.8000000119,7137,ATS,C,21
17,test,3,C,mfborder.png,1,m,Mon May 05 2025 18:39:12 GMT-0500 (Central Daylight Time),673848.0,CFD-BM-022-004-HC.jpg,1200,dash,O,m,1252,6,1,55882.19999998808,617965.8000000119,7137,ATS,C,22
18,test,3,C,haborder.png,1,z,Mon May 05 2025 18:39:12 GMT-0500 (Central Daylight Time),676697.3000000119,CFD-BM-021-026-A.jpg,1700,solid,O,z,1116,9,1,58731.5,617965.8000000119,7137,ATS,C,23
19,test,3,C,mfborder.png,1,z,Mon May 05 2025 18:39:12 GMT-0500 (Central Daylight Time),679429.6000000238,CFD-BF-042-031-HC.jpg,1700,dash,O,z,1007,1,1,61463.80000001192,617965.8000000119,7137,ATS,C,24
0,test,4,C,haborder.png,0,z,Mon May 05 2025 18:39:12 GMT-0500 (Central Daylight Time),685411.3000000119,CFD-BF-031-020-A.jpg,1400,solid,O,None,1516,7,1,2932.5,682478.8000000119,7137,ATS,C,1
1,test,4,C,haborder.png,1,z,Mon May 05 2025 18:39:12 GMT-0500 (Central Daylight Time),688177.3000000119,CFD-BF-002-018-A.jpg,1900,solid,O,z,829,8,1,5698.5,682478.8000000119,7137,ATS,C,2
2,test,4,C,mfborder.png,1,m,Mon May 05 2025 18:39:12 GMT-0500 (Central Daylight Time),690159.6999999881,CFD-BM-034-035-HC.jpg,1000,dash,O,m,952,4,1,7680.899999976158,682478.8000000119,7137,ATS,C,3
3,test,4,C,haborder.png,1,z,Mon May 05 2025 18:39:12 GMT-0500 (Central Daylight Time),692692.3000000119,CFD-WF-037-016-A.jpg,1700,solid,O,z,812,9,1,10213.5,682478.8000000119,7137,ATS,C,4
4,test,4,C,mfborder.png,1,m,Mon May 05 2025 18:39:12 GMT-0500 (Central Daylight Time),694808.3000000119,CFD-WM-036-018-A.jpg,1200,dash,O,m,889,6,1,12329.5,682478.8000000119,7137,ATS,C,5
5,test,4,C,mfborder.png,1,m,Mon May 05 2025 18:39:12 GMT-0500 (Central Daylight Time),696841.1999999881,CFD-BM-034-035-HC.jpg,1000,dash,O,m,1001,4,1,14362.399999976158,682478.8000000119,7137,ATS,C,6
6,test,4,C,mfborder.png,1,z,Mon May 05 2025 18:39:12 GMT-0500 (Central Daylight Time),699390.3000000119,CFD-BF-019-004-HC.jpg,1500,dash,O,z,952,3,1,16911.5,682478.8000000119,7137,ATS,C,7
7,test,4,C,haborder.png,1,z,Mon May 05 2025 18:39:12 GMT-0500 (Central Daylight Time),701622.8000000119,CFD-BF-031-020-A.jpg,1400,solid,O,z,811,7,1,19144.0,682478.8000000119,7137,ATS,C,8
8,test,4,C,mfborder.png,1,z,Mon May 05 2025 18:39:12 GMT-0500 (Central Daylight Time),703888.6999999881,CFD-WF-013-009-HC.jpg,1700,dash,O,z,543,1,1,21409.899999976158,682478.8000000119,7137,ATS,C,9
8,test,4,C,haborder.png,0,z,Mon May 05 2025 18:39:12 GMT-0500 (Central Daylight Time),707121.0,CFD-BF-002-018-A.jpg,1900,solid,O,m,1300,8,1,24642.19999998808,682478.8000000119,7137,ATS,C,10
9,test,4,C,mfborder.png,1,z,Mon May 05 2025 18:39:12 GMT-0500 (Central Daylight Time),709803.6000000238,CFD-BF-019-004-HC.jpg,1500,dash,O,z,1156,3,1,27324.80000001192,682478.8000000119,7137,ATS,C,11
10,test,4,C,haborder.png,1,m,Mon May 05 2025 18:39:12 GMT-0500 (Central Daylight Time),711652.9000000358,CFD-WM-028-005-HC.jpg,1000,solid,O,m,821,12,1,29174.100000023842,682478.8000000119,7137,ATS,C,12
11,test,4,C,mfborder.png,1,m,Mon May 05 2025 18:39:12 GMT-0500 (Central Daylight Time),714702.1000000238,CFD-BM-043-014-A.jpg,2000,dash,O,m,1029,5,1,32223.30000001192,682478.8000000119,7137,ATS,C,13
12,test,4,C,mfborder.png,1,m,Mon May 05 2025 18:39:12 GMT-0500 (Central Daylight Time),716751.4000000358,CFD-WM-036-018-A.jpg,1200,dash,O,m,816,6,1,34272.60000002384,682478.8000000119,7137,ATS,C,14
13,test,4,C,haborder.png,1,m,Mon May 05 2025 18:39:12 GMT-0500 (Central Daylight Time),719050.9000000358,CFD-WM-028-005-HC.jpg,1500,solid,O,m,774,11,1,36572.10000002384,682478.8000000119,7137,ATS,C,15
14,test,4,C,haborder.png,1,z,Mon May 05 2025 18:39:12 GMT-0500 (Central Daylight Time),721566.6000000238,CFD-WF-037-016-A.jpg,1700,solid,O,z,794,9,1,39087.80000001192,682478.8000000119,7137,ATS,C,16
15,test,4,C,haborder.png,1,m,Mon May 05 2025 18:39:12 GMT-0500 (Central Daylight Time),724349.6000000238,CFD-WM-028-005-HC.jpg,1500,solid,O,m,1266,11,1,41870.80000001192,682478.8000000119,7137,ATS,C,17
16,test,4,C,haborder.png,1,m,Mon May 05 2025 18:39:12 GMT-0500 (Central Daylight Time),726881.6000000238,CFD-BM-022-004-HC.jpg,1600,solid,O,m,908,10,1,44402.80000001192,682478.8000000119,7137,ATS,C,18
16,test,4,C,mfborder.png,0,m,Mon May 05 2025 18:39:12 GMT-0500 (Central Daylight Time),730347.1000000238,CFD-BM-043-014-A.jpg,2000,dash,O,z,1440,5,1,47868.30000001192,682478.8000000119,7137,ATS,C,19
17,test,4,C,mfborder.png,1,z,Mon May 05 2025 18:39:12 GMT-0500 (Central Daylight Time),733029.8000000119,CFD-WF-013-009-HC.jpg,1700,dash,O,z,954,1,1,50551.0,682478.8000000119,7137,ATS,C,20
18,test,4,C,haborder.png,1,m,Mon May 05 2025 18:39:12 GMT-0500 (Central Daylight Time),734796.0,CFD-WM-028-005-HC.jpg,1000,solid,O,m,739,12,1,52317.19999998808,682478.8000000119,7137,ATS,C,21
19,test,4,C,mfborder.png,1,z,Mon May 05 2025 18:39:12 GMT-0500 (Central Daylight Time),737728.1000000238,CFD-WF-023-013-A.jpg,1600,dash,O,z,1302,2,1,55249.30000001192,682478.8000000119,7137,ATS,C,22
20,test,4,C,haborder.png,1,m,Mon May 05 2025 18:39:12 GMT-0500 (Central Daylight Time),740143.6999999881,CFD-BM-022-004-HC.jpg,1600,solid,O,m,792,10,1,57664.89999997616,682478.8000000119,7137,ATS,C,23
21,test,4,C,mfborder.png,1,z,Mon May 05 2025 18:39:12 GMT-0500 (Central Daylight Time),742759.9000000358,CFD-WF-023-013-A.jpg,1600,dash,O,z,996,2,1,60281.10000002384,682478.8000000119,7137,ATS,C,24
