acc_sum,block,block_c,change,condition,correct,correct_response,datetime,endtime,face,project,response,response_time,row_sel,session_number,start_end,starttime,subject_id,task,task_vers,trial
0,prac,1,,1-Back,,,Thu Nov 20 2025 11:24:44 GMT-0500 (Eastern Standard Time),,093_m_f_n_a.png,I,space,15542,1,3,,,9019,NNB,C,0
1,prac,1,0.0,1-Back,1.0,m,Thu Nov 20 2025 11:24:44 GMT-0500 (Eastern Standard Time),232515.89999997616,098_y_f_n_a.png,I,m,751,2,3,1731.3999999761581,230784.5,9019,NNB,C,1
2,prac,1,1.0,1-Back,1.0,z,Thu Nov 20 2025 11:24:44 GMT-0500 (Eastern Standard Time),234132.5,098_y_f_n_a.png,I,z,817,3,3,1600.6000000238419,232531.89999997616,9019,NNB,C,2
3,prac,1,0.0,1-Back,1.0,m,Thu Nov 20 2025 11:24:44 GMT-0500 (Eastern Standard Time),235832.39999997616,059_o_m_n_a.png,I,m,765,4,3,1681.5,234150.89999997616,9019,NNB,C,3
4,prac,1,0.0,1-Back,1.0,m,Thu Nov 20 2025 11:24:44 GMT-0500 (Eastern Standard Time),237749.10000002384,092_m_m_n_a.png,I,m,938,5,3,1899.2000000476837,235849.89999997616,9019,NNB,C,4
5,prac,1,1.0,1-Back,1.0,z,Thu Nov 20 2025 11:24:44 GMT-0500 (Eastern Standard Time),239299.0,092_m_m_n_a.png,I,z,748,6,3,1530.8999999761581,237768.10000002384,9019,NNB,C,5
6,prac,1,0.0,1-Back,1.0,m,Thu Nov 20 2025 11:24:44 GMT-0500 (Eastern Standard Time),241015.5,130_o_f_n_a.png,I,m,761,7,3,1698.8999999761581,239316.60000002384,9019,NNB,C,6
7,prac,1,0.0,1-Back,1.0,m,Thu Nov 20 2025 11:24:44 GMT-0500 (Eastern Standard Time),242814.80000007153,082_m_m_n_a.png,I,m,858,8,3,1781.6000000238419,241033.20000004768,9019,NNB,C,7
8,prac,1,0.0,1-Back,1.0,m,Thu Nov 20 2025 11:24:44 GMT-0500 (Eastern Standard Time),244315.60000002384,093_m_f_n_a.png,I,m,710,9,3,1484.7000000476837,242830.89999997616,9019,NNB,C,8
9,prac,1,1.0,1-Back,1.0,z,Thu Nov 20 2025 11:24:44 GMT-0500 (Eastern Standard Time),245849.0,093_m_f_n_a.png,I,z,742,10,3,1516.0,244333.0,9019,NNB,C,9
10,prac,1,0.0,1-Back,1.0,m,Thu Nov 20 2025 11:24:44 GMT-0500 (Eastern Standard Time),247299.10000002384,059_o_m_n_a.png,I,m,631,11,3,1414.3999999761581,245884.70000004768,9019,NNB,C,10
11,prac,1,0.0,1-Back,1.0,m,Thu Nov 20 2025 11:24:44 GMT-0500 (Eastern Standard Time),249015.80000007153,028_y_f_n_a.png,I,m,786,12,3,1701.6000000238419,247314.20000004768,9019,NNB,C,11
0,test,1,0.0,1-Back,,,Thu Nov 20 2025 11:24:44 GMT-0500 (Eastern Standard Time),249015.80000007153,098_y_f_n_a.png,I,space,14238,1,3,1701.6000000238419,247314.20000004768,9019,NNB,C,0
1,test,1,0.0,1-Back,1.0,m,Thu Nov 20 2025 11:24:44 GMT-0500 (Eastern Standard Time),273765.7000000477,006_m_f_n_a.png,I,m,950,2,3,1970.7000000476837,271795.0,9019,NNB,C,1
2,test,1,0.0,1-Back,1.0,m,Thu Nov 20 2025 11:24:44 GMT-0500 (Eastern Standard Time),275482.3000000715,028_y_f_n_a.png,I,m,694,3,3,1702.6000000238419,273779.7000000477,9019,NNB,C,2
3,test,1,1.0,1-Back,1.0,z,Thu Nov 20 2025 11:24:44 GMT-0500 (Eastern Standard Time),277248.7000000477,028_y_f_n_a.png,I,z,738,4,3,1753.1000000238419,275495.60000002384,9019,NNB,C,3
4,test,1,0.0,1-Back,1.0,m,Thu Nov 20 2025 11:24:44 GMT-0500 (Eastern Standard Time),278915.39999997616,006_m_f_n_a.png,I,m,635,5,3,1651.6999999284744,277263.7000000477,9019,NNB,C,4
5,test,1,0.0,1-Back,1.0,m,Thu Nov 20 2025 11:24:44 GMT-0500 (Eastern Standard Time),280565.5,059_o_m_n_a.png,I,m,616,6,3,1637.0,278928.5,9019,NNB,C,5
6,test,1,1.0,1-Back,1.0,z,Thu Nov 20 2025 11:24:44 GMT-0500 (Eastern Standard Time),282282.2000000477,059_o_m_n_a.png,I,z,677,7,3,1701.2000000476837,280581.0,9019,NNB,C,6
7,test,1,0.0,1-Back,1.0,m,Thu Nov 20 2025 11:24:44 GMT-0500 (Eastern Standard Time),283882.3000000715,092_m_m_n_a.png,I,m,578,8,3,1585.8000000715256,282296.5,9019,NNB,C,7
8,test,1,0.0,1-Back,1.0,m,Thu Nov 20 2025 11:24:44 GMT-0500 (Eastern Standard Time),285448.8000000715,130_o_f_n_a.png,I,m,545,9,3,1552.2000000476837,283896.60000002384,9019,NNB,C,8
9,test,1,0.0,1-Back,1.0,m,Thu Nov 20 2025 11:24:44 GMT-0500 (Eastern Standard Time),287148.8000000715,092_m_m_n_a.png,I,m,658,10,3,1683.2000000476837,285465.60000002384,9019,NNB,C,9
10,test,1,0.0,1-Back,1.0,m,Thu Nov 20 2025 11:24:44 GMT-0500 (Eastern Standard Time),288765.5,057_y_m_n_a.png,I,m,591,11,3,1603.7999999523163,287161.7000000477,9019,NNB,C,10
11,test,1,1.0,1-Back,1.0,z,Thu Nov 20 2025 11:24:44 GMT-0500 (Eastern Standard Time),290398.89999997616,057_y_m_n_a.png,I,z,606,12,3,1618.2999999523163,288780.60000002384,9019,NNB,C,11
12,test,1,0.0,1-Back,1.0,m,Thu Nov 20 2025 11:24:44 GMT-0500 (Eastern Standard Time),292048.89999997616,030_o_f_n_a.png,I,m,605,13,3,1634.5999999046326,290414.3000000715,9019,NNB,C,12
13,test,1,1.0,1-Back,1.0,z,Thu Nov 20 2025 11:24:44 GMT-0500 (Eastern Standard Time),293648.8000000715,030_o_f_n_a.png,I,z,571,14,3,1585.1000000238419,292063.7000000477,9019,NNB,C,13
14,test,1,0.0,1-Back,1.0,m,Thu Nov 20 2025 11:24:44 GMT-0500 (Eastern Standard Time),295182.2000000477,031_y_m_n_a.png,I,m,491,15,3,1517.5,293664.7000000477,9019,NNB,C,14
15,test,1,0.0,1-Back,1.0,m,Thu Nov 20 2025 11:24:44 GMT-0500 (Eastern Standard Time),296782.10000002384,093_m_f_n_a.png,I,m,573,16,3,1587.7999999523163,295194.3000000715,9019,NNB,C,15
16,test,1,0.0,1-Back,1.0,m,Thu Nov 20 2025 11:24:44 GMT-0500 (Eastern Standard Time),298332.10000002384,146_o_m_n_a.png,I,m,526,17,3,1537.2000000476837,296794.89999997616,9019,NNB,C,16
17,test,1,0.0,1-Back,1.0,m,Thu Nov 20 2025 11:24:44 GMT-0500 (Eastern Standard Time),299815.10000002384,093_m_f_n_a.png,I,m,464,18,3,1468.0,298347.10000002384,9019,NNB,C,17
0,test,2,0.0,1-Back,,,Thu Nov 20 2025 11:24:44 GMT-0500 (Eastern Standard Time),299815.10000002384,092_m_m_n_a.png,I,space,5899,1,3,1468.0,298347.10000002384,9019,NNB,C,0
1,test,2,0.0,1-Back,1.0,m,Thu Nov 20 2025 11:24:44 GMT-0500 (Eastern Standard Time),310298.7000000477,006_m_f_n_a.png,I,m,1510,2,3,2532.3000000715256,307766.39999997616,9019,NNB,C,1
2,test,2,1.0,1-Back,1.0,z,Thu Nov 20 2025 11:24:44 GMT-0500 (Eastern Standard Time),312032.2000000477,006_m_f_n_a.png,I,z,687,3,3,1716.6000000238419,310315.60000002384,9019,NNB,C,2
3,test,2,0.0,1-Back,1.0,m,Thu Nov 20 2025 11:24:44 GMT-0500 (Eastern Standard Time),313781.8000000715,092_m_m_n_a.png,I,m,732,4,3,1736.7000000476837,312045.10000002384,9019,NNB,C,3
4,test,2,0.0,1-Back,1.0,m,Thu Nov 20 2025 11:24:44 GMT-0500 (Eastern Standard Time),315448.8000000715,057_y_m_n_a.png,I,m,645,5,3,1653.0,313795.8000000715,9019,NNB,C,4
5,test,2,0.0,1-Back,1.0,m,Thu Nov 20 2025 11:24:44 GMT-0500 (Eastern Standard Time),317015.2000000477,098_y_f_n_a.png,I,m,548,6,3,1554.3999999761581,315460.8000000715,9019,NNB,C,5
6,test,2,1.0,1-Back,1.0,z,Thu Nov 20 2025 11:24:44 GMT-0500 (Eastern Standard Time),318532.10000002384,098_y_f_n_a.png,I,z,483,7,3,1502.7999999523163,317029.3000000715,9019,NNB,C,6
7,test,2,0.0,1-Back,1.0,m,Thu Nov 20 2025 11:24:44 GMT-0500 (Eastern Standard Time),320365.5,057_y_m_n_a.png,I,m,791,8,3,1817.8999999761581,318547.60000002384,9019,NNB,C,7
8,test,2,0.0,1-Back,1.0,m,Thu Nov 20 2025 11:24:44 GMT-0500 (Eastern Standard Time),321915.5,030_o_f_n_a.png,I,m,526,9,3,1537.6999999284744,320377.8000000715,9019,NNB,C,8
9,test,2,0.0,1-Back,1.0,m,Thu Nov 20 2025 11:24:44 GMT-0500 (Eastern Standard Time),323465.5,082_m_m_n_a.png,I,m,528,10,3,1538.1000000238419,321927.39999997616,9019,NNB,C,9
10,test,2,1.0,1-Back,1.0,z,Thu Nov 20 2025 11:24:44 GMT-0500 (Eastern Standard Time),325082.10000002384,082_m_m_n_a.png,I,z,594,11,3,1602.8999999761581,323479.2000000477,9019,NNB,C,10
11,test,2,0.0,1-Back,1.0,m,Thu Nov 20 2025 11:24:44 GMT-0500 (Eastern Standard Time),326732.10000002384,030_o_f_n_a.png,I,m,626,12,3,1637.3999999761581,325094.7000000477,9019,NNB,C,11
12,test,2,0.0,1-Back,1.0,m,Thu Nov 20 2025 11:24:44 GMT-0500 (Eastern Standard Time),328332.5,130_o_f_n_a.png,I,m,575,13,3,1587.6000000238419,326744.89999997616,9019,NNB,C,12
13,test,2,0.0,1-Back,1.0,m,Thu Nov 20 2025 11:24:44 GMT-0500 (Eastern Standard Time),329915.39999997616,059_o_m_n_a.png,I,m,544,14,3,1554.5,328360.89999997616,9019,NNB,C,13
14,test,2,0.0,1-Back,1.0,m,Thu Nov 20 2025 11:24:44 GMT-0500 (Eastern Standard Time),331598.3000000715,146_o_m_n_a.png,I,m,655,15,3,1669.2000000476837,329929.10000002384,9019,NNB,C,14
15,test,2,1.0,1-Back,1.0,z,Thu Nov 20 2025 11:24:44 GMT-0500 (Eastern Standard Time),333298.8000000715,146_o_m_n_a.png,I,z,652,16,3,1678.3000000715256,331620.5,9019,NNB,C,15
16,test,2,0.0,1-Back,1.0,m,Thu Nov 20 2025 11:24:44 GMT-0500 (Eastern Standard Time),334865.5,031_y_m_n_a.png,I,m,521,17,3,1553.1000000238419,333312.39999997616,9019,NNB,C,16
17,test,2,1.0,1-Back,1.0,z,Thu Nov 20 2025 11:24:44 GMT-0500 (Eastern Standard Time),336548.8000000715,031_y_m_n_a.png,I,z,651,18,3,1668.9000000953674,334879.89999997616,9019,NNB,C,17
0,test,3,1.0,1-Back,,,Thu Nov 20 2025 11:24:44 GMT-0500 (Eastern Standard Time),336548.8000000715,028_y_f_n_a.png,I,space,1599,1,3,1668.9000000953674,334879.89999997616,9019,NNB,C,0
1,test,3,0.0,1-Back,1.0,m,Thu Nov 20 2025 11:24:44 GMT-0500 (Eastern Standard Time),342015.39999997616,146_o_m_n_a.png,I,m,656,1,3,1684.2999999523163,340331.10000002384,9019,NNB,C,1
2,test,3,1.0,1-Back,1.0,z,Thu Nov 20 2025 11:24:44 GMT-0500 (Eastern Standard Time),344115.39999997616,146_o_m_n_a.png,I,z,1068,1,3,2086.7999999523163,342028.60000002384,9019,NNB,C,2
3,test,3,0.0,1-Back,1.0,m,Thu Nov 20 2025 11:24:44 GMT-0500 (Eastern Standard Time),345615.5,093_m_f_n_a.png,I,m,472,1,3,1486.3999999761581,344129.10000002384,9019,NNB,C,3
4,test,3,1.0,1-Back,1.0,z,Thu Nov 20 2025 11:24:44 GMT-0500 (Eastern Standard Time),347165.3000000715,093_m_f_n_a.png,I,z,524,1,3,1536.3000000715256,345629.0,9019,NNB,C,4
5,test,3,0.0,1-Back,1.0,m,Thu Nov 20 2025 11:24:44 GMT-0500 (Eastern Standard Time),348748.8000000715,030_o_f_n_a.png,I,m,542,1,3,1558.1000000238419,347190.7000000477,9019,NNB,C,5
6,test,3,0.0,1-Back,1.0,m,Thu Nov 20 2025 11:24:44 GMT-0500 (Eastern Standard Time),350231.89999997616,057_y_m_n_a.png,I,m,446,1,3,1467.7999999523163,348764.10000002384,9019,NNB,C,6
7,test,3,0.0,1-Back,1.0,m,Thu Nov 20 2025 11:24:44 GMT-0500 (Eastern Standard Time),351798.5,030_o_f_n_a.png,I,m,531,1,3,1550.6000000238419,350247.89999997616,9019,NNB,C,7
8,test,3,0.0,1-Back,1.0,m,Thu Nov 20 2025 11:24:44 GMT-0500 (Eastern Standard Time),353515.3000000715,031_y_m_n_a.png,I,m,676,1,3,1701.2000000476837,351814.10000002384,9019,NNB,C,8
9,test,3,1.0,1-Back,1.0,z,Thu Nov 20 2025 11:24:44 GMT-0500 (Eastern Standard Time),355498.7000000477,031_y_m_n_a.png,I,z,944,1,3,1955.0,353543.7000000477,9019,NNB,C,9
10,test,3,0.0,1-Back,1.0,m,Thu Nov 20 2025 11:24:44 GMT-0500 (Eastern Standard Time),357165.39999997616,006_m_f_n_a.png,I,m,641,1,3,1654.1999999284744,355511.2000000477,9019,NNB,C,10
11,test,3,0.0,1-Back,1.0,m,Thu Nov 20 2025 11:24:44 GMT-0500 (Eastern Standard Time),358798.5,098_y_f_n_a.png,I,m,606,1,3,1618.6999999284744,357179.8000000715,9019,NNB,C,11
12,test,3,1.0,1-Back,1.0,z,Thu Nov 20 2025 11:24:44 GMT-0500 (Eastern Standard Time),360515.39999997616,098_y_f_n_a.png,I,z,684,1,3,1704.0,358811.39999997616,9019,NNB,C,12
13,test,3,0.0,1-Back,1.0,m,Thu Nov 20 2025 11:24:44 GMT-0500 (Eastern Standard Time),362148.7000000477,006_m_f_n_a.png,I,m,583,1,3,1617.6000000238419,360531.10000002384,9019,NNB,C,13
14,test,3,0.0,1-Back,1.0,m,Thu Nov 20 2025 11:24:44 GMT-0500 (Eastern Standard Time),363782.89999997616,092_m_m_n_a.png,I,m,615,1,3,1620.5,362162.39999997616,9019,NNB,C,14
15,test,3,1.0,1-Back,1.0,z,Thu Nov 20 2025 11:24:44 GMT-0500 (Eastern Standard Time),365598.60000002384,092_m_m_n_a.png,I,z,789,1,3,1806.2999999523163,363792.3000000715,9019,NNB,C,15
16,test,3,0.0,1-Back,1.0,m,Thu Nov 20 2025 11:24:44 GMT-0500 (Eastern Standard Time),367181.89999997616,130_o_f_n_a.png,I,m,557,1,3,1570.3999999761581,365611.5,9019,NNB,C,16
17,test,3,1.0,1-Back,1.0,z,Thu Nov 20 2025 11:24:44 GMT-0500 (Eastern Standard Time),368715.3000000715,130_o_f_n_a.png,I,z,510,1,3,1520.5,367194.8000000715,9019,NNB,C,17
0,test,4,1.0,1-Back,,,Thu Nov 20 2025 11:24:44 GMT-0500 (Eastern Standard Time),368715.3000000715,093_m_f_n_a.png,I,space,1672,1,3,1520.5,367194.8000000715,9019,NNB,C,0
1,test,4,0.0,1-Back,1.0,m,Thu Nov 20 2025 11:24:44 GMT-0500 (Eastern Standard Time),374198.39999997616,146_o_m_n_a.png,I,m,631,2,3,1635.7999999523163,372562.60000002384,9019,NNB,C,1
2,test,4,0.0,1-Back,1.0,m,Thu Nov 20 2025 11:24:44 GMT-0500 (Eastern Standard Time),375815.10000002384,093_m_f_n_a.png,I,m,597,3,3,1601.2999999523163,374213.8000000715,9019,NNB,C,2
3,test,4,0.0,1-Back,1.0,m,Thu Nov 20 2025 11:24:44 GMT-0500 (Eastern Standard Time),377482.10000002384,030_o_f_n_a.png,I,m,644,4,3,1652.6000000238419,375829.5,9019,NNB,C,3
4,test,4,1.0,1-Back,1.0,z,Thu Nov 20 2025 11:24:44 GMT-0500 (Eastern Standard Time),379048.60000002384,030_o_f_n_a.png,I,z,546,5,3,1554.2999999523163,377494.3000000715,9019,NNB,C,4
5,test,4,0.0,1-Back,1.0,m,Thu Nov 20 2025 11:24:44 GMT-0500 (Eastern Standard Time),380682.10000002384,098_y_f_n_a.png,I,m,611,6,3,1620.8999999761581,379061.2000000477,9019,NNB,C,5
6,test,4,0.0,1-Back,1.0,m,Thu Nov 20 2025 11:24:44 GMT-0500 (Eastern Standard Time),382281.5,057_y_m_n_a.png,I,m,578,7,3,1584.1000000238419,380697.39999997616,9019,NNB,C,6
7,test,4,1.0,1-Back,1.0,z,Thu Nov 20 2025 11:24:44 GMT-0500 (Eastern Standard Time),383799.7000000477,057_y_m_n_a.png,I,z,498,8,3,1510.5,382289.2000000477,9019,NNB,C,7
8,test,4,0.0,1-Back,1.0,m,Thu Nov 20 2025 11:24:44 GMT-0500 (Eastern Standard Time),385381.60000002384,098_y_f_n_a.png,I,m,565,9,3,1569.2000000476837,383812.39999997616,9019,NNB,C,8
9,test,4,0.0,1-Back,1.0,m,Thu Nov 20 2025 11:24:44 GMT-0500 (Eastern Standard Time),386981.8000000715,082_m_m_n_a.png,I,m,582,10,3,1587.8000000715256,385394.0,9019,NNB,C,9
10,test,4,1.0,1-Back,1.0,z,Thu Nov 20 2025 11:24:44 GMT-0500 (Eastern Standard Time),388515.2000000477,082_m_m_n_a.png,I,z,501,11,3,1520.3000000715256,386994.89999997616,9019,NNB,C,10
11,test,4,0.0,1-Back,1.0,m,Thu Nov 20 2025 11:24:44 GMT-0500 (Eastern Standard Time),390132.0,130_o_f_n_a.png,I,m,567,12,3,1589.1000000238419,388542.89999997616,9019,NNB,C,11
12,test,4,0.0,1-Back,1.0,m,Thu Nov 20 2025 11:24:44 GMT-0500 (Eastern Standard Time),391715.3000000715,059_o_m_n_a.png,I,m,551,13,3,1570.3000000715256,390145.0,9019,NNB,C,12
13,test,4,0.0,1-Back,1.0,m,Thu Nov 20 2025 11:24:44 GMT-0500 (Eastern Standard Time),393315.3000000715,130_o_f_n_a.png,I,m,568,14,3,1585.9000000953674,391729.39999997616,9019,NNB,C,13
14,test,4,0.0,1-Back,1.0,m,Thu Nov 20 2025 11:24:44 GMT-0500 (Eastern Standard Time),394915.39999997616,028_y_f_n_a.png,I,m,567,15,3,1585.0999999046326,393330.3000000715,9019,NNB,C,14
15,test,4,1.0,1-Back,1.0,z,Thu Nov 20 2025 11:24:44 GMT-0500 (Eastern Standard Time),396565.3000000715,028_y_f_n_a.png,I,z,632,16,3,1634.9000000953674,394930.39999997616,9019,NNB,C,15
16,test,4,0.0,1-Back,1.0,m,Thu Nov 20 2025 11:24:44 GMT-0500 (Eastern Standard Time),398148.60000002384,006_m_f_n_a.png,I,m,551,17,3,1573.2999999523163,396575.3000000715,9019,NNB,C,16
17,test,4,1.0,1-Back,1.0,z,Thu Nov 20 2025 11:24:44 GMT-0500 (Eastern Standard Time),399848.60000002384,006_m_f_n_a.png,I,z,661,18,3,1686.1000000238419,398162.5,9019,NNB,C,17
0,test,5,1.0,1-Back,,,Thu Nov 20 2025 11:24:44 GMT-0500 (Eastern Standard Time),399848.60000002384,059_o_m_n_a.png,I,space,1323,1,3,1686.1000000238419,398162.5,9019,NNB,C,0
1,test,5,1.0,1-Back,1.0,z,Thu Nov 20 2025 11:24:44 GMT-0500 (Eastern Standard Time),404915.39999997616,059_o_m_n_a.png,I,z,684,2,3,1702.7999999523163,403212.60000002384,9019,NNB,C,1
2,test,5,0.0,1-Back,1.0,m,Thu Nov 20 2025 11:24:44 GMT-0500 (Eastern Standard Time),406515.3000000715,098_y_f_n_a.png,I,m,568,3,3,1584.8000000715256,404930.5,9019,NNB,C,2
3,test,5,0.0,1-Back,1.0,m,Thu Nov 20 2025 11:24:44 GMT-0500 (Eastern Standard Time),408082.0,057_y_m_n_a.png,I,m,520,4,3,1549.6999999284744,406532.3000000715,9019,NNB,C,3
4,test,5,0.0,1-Back,1.0,m,Thu Nov 20 2025 11:24:44 GMT-0500 (Eastern Standard Time),409582.10000002384,098_y_f_n_a.png,I,m,474,5,3,1486.5,408095.60000002384,9019,NNB,C,4
5,test,5,0.0,1-Back,1.0,m,Thu Nov 20 2025 11:24:44 GMT-0500 (Eastern Standard Time),411148.60000002384,092_m_m_n_a.png,I,m,541,6,3,1550.8999999761581,409597.7000000477,9019,NNB,C,5
6,test,5,1.0,1-Back,1.0,z,Thu Nov 20 2025 11:24:44 GMT-0500 (Eastern Standard Time),412648.5,092_m_m_n_a.png,I,z,479,7,3,1485.5,411163.0,9019,NNB,C,6
7,test,5,0.0,1-Back,1.0,m,Thu Nov 20 2025 11:24:44 GMT-0500 (Eastern Standard Time),414215.10000002384,028_y_f_n_a.png,I,m,546,8,3,1552.2999999523163,412662.8000000715,9019,NNB,C,7
8,test,5,0.0,1-Back,1.0,m,Thu Nov 20 2025 11:24:44 GMT-0500 (Eastern Standard Time),415881.8000000715,031_y_m_n_a.png,I,m,644,9,3,1652.6000000238419,414229.2000000477,9019,NNB,C,8
9,test,5,0.0,1-Back,1.0,m,Thu Nov 20 2025 11:24:44 GMT-0500 (Eastern Standard Time),417415.10000002384,028_y_f_n_a.png,I,m,497,10,3,1517.0,415898.10000002384,9019,NNB,C,9
10,test,5,0.0,1-Back,1.0,m,Thu Nov 20 2025 11:24:44 GMT-0500 (Eastern Standard Time),418981.89999997616,130_o_f_n_a.png,I,m,549,11,3,1551.5999999046326,417430.3000000715,9019,NNB,C,10
11,test,5,1.0,1-Back,1.0,z,Thu Nov 20 2025 11:24:44 GMT-0500 (Eastern Standard Time),420698.60000002384,130_o_f_n_a.png,I,z,693,12,3,1704.7000000476837,418993.89999997616,9019,NNB,C,11
12,test,5,0.0,1-Back,1.0,m,Thu Nov 20 2025 11:24:44 GMT-0500 (Eastern Standard Time),422548.60000002384,146_o_m_n_a.png,I,m,816,13,3,1834.8999999761581,420713.7000000477,9019,NNB,C,12
13,test,5,0.0,1-Back,1.0,m,Thu Nov 20 2025 11:24:44 GMT-0500 (Eastern Standard Time),424098.60000002384,093_m_f_n_a.png,I,m,518,14,3,1535.5,422563.10000002384,9019,NNB,C,13
14,test,5,1.0,1-Back,1.0,z,Thu Nov 20 2025 11:24:44 GMT-0500 (Eastern Standard Time),425632.0,093_m_f_n_a.png,I,z,505,15,3,1521.6000000238419,424110.39999997616,9019,NNB,C,14
15,test,5,0.0,1-Back,1.0,m,Thu Nov 20 2025 11:24:44 GMT-0500 (Eastern Standard Time),427215.39999997616,146_o_m_n_a.png,I,m,539,16,3,1568.3999999761581,425647.0,9019,NNB,C,15
16,test,5,0.0,1-Back,1.0,m,Thu Nov 20 2025 11:24:44 GMT-0500 (Eastern Standard Time),428715.3000000715,006_m_f_n_a.png,I,m,476,17,3,1484.9000000953674,427230.39999997616,9019,NNB,C,16
17,test,5,0.0,1-Back,1.0,m,Thu Nov 20 2025 11:24:44 GMT-0500 (Eastern Standard Time),430532.0,082_m_m_n_a.png,I,m,769,18,3,1801.1000000238419,428730.89999997616,9019,NNB,C,17
0,prac,1,0.0,2-Back,,,Thu Nov 20 2025 11:24:44 GMT-0500 (Eastern Standard Time),430532.0,031_y_m_n_a.png,I,space,14301,1,3,1801.1000000238419,428730.89999997616,9019,NNB,C,0
0,prac,1,0.0,2-Back,,,Thu Nov 20 2025 11:24:44 GMT-0500 (Eastern Standard Time),430532.0,006_m_f_n_a.png,I,space,14301,2,3,1801.1000000238419,428730.89999997616,9019,NNB,C,0
1,prac,1,1.0,2-Back,1.0,m,Thu Nov 20 2025 11:24:44 GMT-0500 (Eastern Standard Time),531732.2000000477,146_o_m_n_a.png,I,m,1147,3,3,2081.2000000476837,529651.0,9019,NNB,C,1
2,prac,1,0.0,2-Back,1.0,m,Thu Nov 20 2025 11:24:44 GMT-0500 (Eastern Standard Time),533615.3000000715,130_o_f_n_a.png,I,m,917,4,3,1866.7000000476837,531748.6000000238,9019,NNB,C,2
3,prac,1,0.0,2-Back,1.0,z,Thu Nov 20 2025 11:24:44 GMT-0500 (Eastern Standard Time),535265.3000000715,146_o_m_n_a.png,I,z,702,5,3,1633.9000000953674,533631.3999999762,9019,NNB,C,3
4,prac,1,1.0,2-Back,1.0,z,Thu Nov 20 2025 11:24:44 GMT-0500 (Eastern Standard Time),537348.6000000238,130_o_f_n_a.png,I,z,1301,6,3,2067.7000000476837,535280.8999999762,9019,NNB,C,4
5,prac,1,0.0,2-Back,1.0,m,Thu Nov 20 2025 11:24:44 GMT-0500 (Eastern Standard Time),539248.7000000477,082_m_m_n_a.png,I,m,952,7,3,1880.5,537368.2000000477,9019,NNB,C,5
6,prac,1,0.0,2-Back,1.0,m,Thu Nov 20 2025 11:24:44 GMT-0500 (Eastern Standard Time),541048.7000000477,059_o_m_n_a.png,I,m,867,8,3,1784.0,539264.7000000477,9019,NNB,C,6
7,prac,1,0.0,2-Back,1.0,m,Thu Nov 20 2025 11:24:44 GMT-0500 (Eastern Standard Time),542814.7000000477,028_y_f_n_a.png,I,m,829,9,3,1749.3000000715256,541065.3999999762,9019,NNB,C,7
8,prac,1,1.0,2-Back,1.0,z,Thu Nov 20 2025 11:24:44 GMT-0500 (Eastern Standard Time),544515.2000000477,059_o_m_n_a.png,I,z,920,10,3,1687.8999999761581,542827.3000000715,9019,NNB,C,8
9,prac,1,0.0,2-Back,1.0,m,Thu Nov 20 2025 11:24:44 GMT-0500 (Eastern Standard Time),546481.8999999762,098_y_f_n_a.png,I,m,1029,11,3,1950.7999999523163,544531.1000000238,9019,NNB,C,9
10,prac,1,0.0,2-Back,1.0,m,Thu Nov 20 2025 11:24:44 GMT-0500 (Eastern Standard Time),548281.8999999762,082_m_m_n_a.png,I,m,1008,12,3,1781.2999999523163,546500.6000000238,9019,NNB,C,10
0,test,1,0.0,2-Back,,,Thu Nov 20 2025 11:24:44 GMT-0500 (Eastern Standard Time),548281.8999999762,057_y_m_n_a.png,I,space,13493,1,3,1781.2999999523163,546500.6000000238,9019,NNB,C,0
0,test,1,0.0,2-Back,,,Thu Nov 20 2025 11:24:44 GMT-0500 (Eastern Standard Time),548281.8999999762,057_y_m_n_a.png,I,space,13493,2,3,1781.2999999523163,546500.6000000238,9019,NNB,C,0
1,test,1,0.0,2-Back,1.0,m,Thu Nov 20 2025 11:24:44 GMT-0500 (Eastern Standard Time),574382.0,130_o_f_n_a.png,I,m,824,3,3,1835.5,572546.5,9019,NNB,C,1
2,test,1,0.0,2-Back,1.0,m,Thu Nov 20 2025 11:24:44 GMT-0500 (Eastern Standard Time),575981.7000000477,092_m_m_n_a.png,I,m,573,4,3,1586.0,574395.7000000477,9019,NNB,C,2
3,test,1,1.0,2-Back,1.0,z,Thu Nov 20 2025 11:24:44 GMT-0500 (Eastern Standard Time),577531.8000000715,130_o_f_n_a.png,I,z,526,5,3,1540.4000000953674,575991.3999999762,9019,NNB,C,3
4,test,1,0.0,2-Back,1.0,m,Thu Nov 20 2025 11:24:44 GMT-0500 (Eastern Standard Time),579365.1000000238,098_y_f_n_a.png,I,m,799,6,3,1818.7999999523163,577546.3000000715,9019,NNB,C,4
5,test,1,0.0,2-Back,1.0,m,Thu Nov 20 2025 11:24:44 GMT-0500 (Eastern Standard Time),581231.8999999762,092_m_m_n_a.png,I,m,837,7,3,1851.8999999761581,579380.0,9019,NNB,C,5
5,test,1,1.0,2-Back,0.0,z,Thu Nov 20 2025 11:24:44 GMT-0500 (Eastern Standard Time),583381.5,098_y_f_n_a.png,I,m,1114,8,3,2134.5,581247.0,9019,NNB,C,6
6,test,1,0.0,2-Back,1.0,m,Thu Nov 20 2025 11:24:44 GMT-0500 (Eastern Standard Time),585298.5,031_y_m_n_a.png,I,m,885,9,3,1903.2999999523163,583395.2000000477,9019,NNB,C,7
7,test,1,0.0,2-Back,1.0,m,Thu Nov 20 2025 11:24:44 GMT-0500 (Eastern Standard Time),587148.5,030_o_f_n_a.png,I,m,824,10,3,1835.5,585313.0,9019,NNB,C,8
8,test,1,1.0,2-Back,1.0,z,Thu Nov 20 2025 11:24:44 GMT-0500 (Eastern Standard Time),588865.1000000238,031_y_m_n_a.png,I,z,687,11,3,1701.2999999523163,587163.8000000715,9019,NNB,C,9
9,test,1,0.0,2-Back,1.0,m,Thu Nov 20 2025 11:24:44 GMT-0500 (Eastern Standard Time),590865.0,006_m_f_n_a.png,I,m,970,12,3,1984.2999999523163,588880.7000000477,9019,NNB,C,10
10,test,1,0.0,2-Back,1.0,m,Thu Nov 20 2025 11:24:44 GMT-0500 (Eastern Standard Time),593081.8999999762,006_m_f_n_a.png,I,m,1194,13,3,2202.6999999284744,590879.2000000477,9019,NNB,C,11
11,test,1,0.0,2-Back,1.0,m,Thu Nov 20 2025 11:24:44 GMT-0500 (Eastern Standard Time),594998.0,146_o_m_n_a.png,I,m,881,14,3,1900.7999999523163,593097.2000000477,9019,NNB,C,12
12,test,1,0.0,2-Back,1.0,m,Thu Nov 20 2025 11:24:44 GMT-0500 (Eastern Standard Time),597015.1000000238,030_o_f_n_a.png,I,m,996,15,3,2005.3999999761581,595009.7000000477,9019,NNB,C,13
12,test,1,1.0,2-Back,0.0,z,Thu Nov 20 2025 11:24:44 GMT-0500 (Eastern Standard Time),598815.2000000477,146_o_m_n_a.png,I,m,755,16,3,1783.3999999761581,597031.8000000715,9019,NNB,C,14
13,test,1,0.0,2-Back,1.0,m,Thu Nov 20 2025 11:24:44 GMT-0500 (Eastern Standard Time),600715.0,093_m_f_n_a.png,I,m,869,17,3,1885.0,598830.0,9019,NNB,C,15
14,test,1,0.0,2-Back,1.0,m,Thu Nov 20 2025 11:24:44 GMT-0500 (Eastern Standard Time),602481.8000000715,082_m_m_n_a.png,I,m,736,18,3,1752.2000000476837,600729.6000000238,9019,NNB,C,16
0,test,2,0.0,2-Back,,,Thu Nov 20 2025 11:24:44 GMT-0500 (Eastern Standard Time),602481.8000000715,082_m_m_n_a.png,I,space,2073,1,3,1752.2000000476837,600729.6000000238,9019,NNB,C,0
0,test,2,0.0,2-Back,,,Thu Nov 20 2025 11:24:44 GMT-0500 (Eastern Standard Time),602481.8000000715,028_y_f_n_a.png,I,space,2073,2,3,1752.2000000476837,600729.6000000238,9019,NNB,C,0
1,test,2,1.0,2-Back,1.0,z,Thu Nov 20 2025 11:24:44 GMT-0500 (Eastern Standard Time),611565.1000000238,082_m_m_n_a.png,I,z,792,3,3,1803.0,609762.1000000238,9019,NNB,C,1
2,test,2,0.0,2-Back,1.0,m,Thu Nov 20 2025 11:24:44 GMT-0500 (Eastern Standard Time),613365.2000000477,093_m_f_n_a.png,I,m,766,4,3,1784.7000000476837,611580.5,9019,NNB,C,2
2,test,2,0.0,2-Back,0.0,m,Thu Nov 20 2025 11:24:44 GMT-0500 (Eastern Standard Time),615664.8999999762,028_y_f_n_a.png,I,z,1270,5,3,2287.0999999046326,613377.8000000715,9019,NNB,C,3
3,test,2,0.0,2-Back,1.0,m,Thu Nov 20 2025 11:24:44 GMT-0500 (Eastern Standard Time),618248.3000000715,146_o_m_n_a.png,I,m,1562,6,3,2570.3000000715256,615678.0,9019,NNB,C,4
4,test,2,0.0,2-Back,1.0,m,Thu Nov 20 2025 11:24:44 GMT-0500 (Eastern Standard Time),620565.1000000238,098_y_f_n_a.png,I,m,1267,7,3,2297.0,618268.1000000238,9019,NNB,C,5
5,test,2,1.0,2-Back,1.0,z,Thu Nov 20 2025 11:24:44 GMT-0500 (Eastern Standard Time),622681.8000000715,146_o_m_n_a.png,I,z,1078,8,3,2101.100000023842,620580.7000000477,9019,NNB,C,6
6,test,2,0.0,2-Back,1.0,m,Thu Nov 20 2025 11:24:44 GMT-0500 (Eastern Standard Time),624698.3000000715,031_y_m_n_a.png,I,m,993,9,3,2002.2000000476837,622696.1000000238,9019,NNB,C,7
7,test,2,0.0,2-Back,1.0,m,Thu Nov 20 2025 11:24:44 GMT-0500 (Eastern Standard Time),626665.2000000477,031_y_m_n_a.png,I,m,928,10,3,1950.7000000476837,624714.5,9019,NNB,C,8
8,test,2,0.0,2-Back,1.0,m,Thu Nov 20 2025 11:24:44 GMT-0500 (Eastern Standard Time),628681.8999999762,006_m_f_n_a.png,I,m,994,11,3,2001.2999999523163,626680.6000000238,9019,NNB,C,9
9,test,2,0.0,2-Back,1.0,m,Thu Nov 20 2025 11:24:44 GMT-0500 (Eastern Standard Time),630548.3999999762,028_y_f_n_a.png,I,m,833,12,3,1851.6999999284744,628696.7000000477,9019,NNB,C,10
9,test,2,1.0,2-Back,0.0,z,Thu Nov 20 2025 11:24:44 GMT-0500 (Eastern Standard Time),632848.3999999762,006_m_f_n_a.png,I,m,1255,13,3,2284.5999999046326,630563.8000000715,9019,NNB,C,11
10,test,2,0.0,2-Back,1.0,m,Thu Nov 20 2025 11:24:44 GMT-0500 (Eastern Standard Time),634648.3999999762,059_o_m_n_a.png,I,m,762,14,3,1784.0999999046326,632864.3000000715,9019,NNB,C,12
11,test,2,0.0,2-Back,1.0,m,Thu Nov 20 2025 11:24:44 GMT-0500 (Eastern Standard Time),636665.2000000477,059_o_m_n_a.png,I,m,995,15,3,2002.6000000238419,634662.6000000238,9019,NNB,C,13
12,test,2,0.0,2-Back,1.0,m,Thu Nov 20 2025 11:24:44 GMT-0500 (Eastern Standard Time),638498.3999999762,030_o_f_n_a.png,I,m,798,16,3,1815.7999999523163,636682.6000000238,9019,NNB,C,14
13,test,2,0.0,2-Back,1.0,m,Thu Nov 20 2025 11:24:44 GMT-0500 (Eastern Standard Time),640248.3999999762,092_m_m_n_a.png,I,m,712,17,3,1734.2999999523163,638514.1000000238,9019,NNB,C,15
14,test,2,1.0,2-Back,1.0,z,Thu Nov 20 2025 11:24:44 GMT-0500 (Eastern Standard Time),642065.1000000238,030_o_f_n_a.png,I,z,770,18,3,1800.3999999761581,640264.7000000477,9019,NNB,C,16
0,test,3,1.0,2-Back,,,Thu Nov 20 2025 11:24:44 GMT-0500 (Eastern Standard Time),642065.1000000238,057_y_m_n_a.png,I,space,1411,1,3,1800.3999999761581,640264.7000000477,9019,NNB,C,0
0,test,3,1.0,2-Back,,,Thu Nov 20 2025 11:24:44 GMT-0500 (Eastern Standard Time),642065.1000000238,057_y_m_n_a.png,I,space,1411,2,3,1800.3999999761581,640264.7000000477,9019,NNB,C,0
1,test,3,0.0,2-Back,1.0,m,Thu Nov 20 2025 11:24:44 GMT-0500 (Eastern Standard Time),650465.2000000477,030_o_f_n_a.png,I,m,737,3,3,1767.6000000238419,648697.6000000238,9019,NNB,C,1
2,test,3,0.0,2-Back,1.0,m,Thu Nov 20 2025 11:24:44 GMT-0500 (Eastern Standard Time),652248.3999999762,082_m_m_n_a.png,I,m,761,4,3,1767.3999999761581,650481.0,9019,NNB,C,2
3,test,3,1.0,2-Back,1.0,z,Thu Nov 20 2025 11:24:44 GMT-0500 (Eastern Standard Time),654065.3000000715,030_o_f_n_a.png,I,z,790,5,3,1802.8000000715256,652262.5,9019,NNB,C,3
4,test,3,0.0,2-Back,1.0,m,Thu Nov 20 2025 11:24:44 GMT-0500 (Eastern Standard Time),655965.1000000238,031_y_m_n_a.png,I,m,874,6,3,1888.2000000476837,654076.8999999762,9019,NNB,C,4
5,test,3,0.0,2-Back,1.0,m,Thu Nov 20 2025 11:24:44 GMT-0500 (Eastern Standard Time),657799.3000000715,082_m_m_n_a.png,I,m,797,7,3,1818.0,655981.3000000715,9019,NNB,C,5
6,test,3,1.0,2-Back,1.0,z,Thu Nov 20 2025 11:24:44 GMT-0500 (Eastern Standard Time),659514.8999999762,031_y_m_n_a.png,I,z,676,8,3,1699.2999999523163,657815.6000000238,9019,NNB,C,6
7,test,3,0.0,2-Back,1.0,m,Thu Nov 20 2025 11:24:44 GMT-0500 (Eastern Standard Time),661315.1000000238,028_y_f_n_a.png,I,m,768,9,3,1784.8999999761581,659530.2000000477,9019,NNB,C,7
8,test,3,0.0,2-Back,1.0,m,Thu Nov 20 2025 11:24:44 GMT-0500 (Eastern Standard Time),663481.7000000477,092_m_m_n_a.png,I,m,1128,10,3,2149.7000000476837,661332.0,9019,NNB,C,8
9,test,3,1.0,2-Back,1.0,z,Thu Nov 20 2025 11:24:44 GMT-0500 (Eastern Standard Time),665515.0,028_y_f_n_a.png,I,z,993,11,3,2017.6000000238419,663497.3999999762,9019,NNB,C,9
10,test,3,1.0,2-Back,1.0,z,Thu Nov 20 2025 11:24:44 GMT-0500 (Eastern Standard Time),667764.8999999762,092_m_m_n_a.png,I,z,1232,12,3,2235.2999999523163,665529.6000000238,9019,NNB,C,10
11,test,3,0.0,2-Back,1.0,m,Thu Nov 20 2025 11:24:44 GMT-0500 (Eastern Standard Time),669648.3999999762,030_o_f_n_a.png,I,m,852,13,3,1870.5,667777.8999999762,9019,NNB,C,11
12,test,3,0.0,2-Back,1.0,m,Thu Nov 20 2025 11:24:44 GMT-0500 (Eastern Standard Time),671578.6000000238,093_m_f_n_a.png,I,m,842,14,3,1916.1000000238419,669662.5,9019,NNB,C,12
13,test,3,0.0,2-Back,1.0,m,Thu Nov 20 2025 11:24:44 GMT-0500 (Eastern Standard Time),673465.0,146_o_m_n_a.png,I,m,845,15,3,1867.3999999761581,671597.6000000238,9019,NNB,C,13
14,test,3,1.0,2-Back,1.0,z,Thu Nov 20 2025 11:24:44 GMT-0500 (Eastern Standard Time),675365.0,093_m_f_n_a.png,I,z,850,16,3,1883.3999999761581,673481.6000000238,9019,NNB,C,14
15,test,3,0.0,2-Back,1.0,m,Thu Nov 20 2025 11:24:44 GMT-0500 (Eastern Standard Time),677215.0,130_o_f_n_a.png,I,m,822,17,3,1834.1999999284744,675380.8000000715,9019,NNB,C,15
16,test,3,0.0,2-Back,1.0,m,Thu Nov 20 2025 11:24:44 GMT-0500 (Eastern Standard Time),679365.1000000238,130_o_f_n_a.png,I,m,1116,18,3,2136.2000000476837,677228.8999999762,9019,NNB,C,16
0,test,4,0.0,2-Back,,,Thu Nov 20 2025 11:24:44 GMT-0500 (Eastern Standard Time),679365.1000000238,059_o_m_n_a.png,I,space,1262,1,3,2136.2000000476837,677228.8999999762,9019,NNB,C,0
0,test,4,0.0,2-Back,,,Thu Nov 20 2025 11:24:44 GMT-0500 (Eastern Standard Time),679365.1000000238,098_y_f_n_a.png,I,space,1262,2,3,2136.2000000476837,677228.8999999762,9019,NNB,C,0
1,test,4,1.0,2-Back,1.0,z,Thu Nov 20 2025 11:24:44 GMT-0500 (Eastern Standard Time),688115.0,059_o_m_n_a.png,I,z,1118,3,3,2149.899999976158,685965.1000000238,9019,NNB,C,1
2,test,4,1.0,2-Back,1.0,z,Thu Nov 20 2025 11:24:44 GMT-0500 (Eastern Standard Time),689748.3000000715,098_y_f_n_a.png,I,z,583,4,3,1617.4000000953674,688130.8999999762,9019,NNB,C,2
3,test,4,0.0,2-Back,1.0,m,Thu Nov 20 2025 11:24:44 GMT-0500 (Eastern Standard Time),691731.7000000477,030_o_f_n_a.png,I,m,934,5,3,1966.1000000238419,689765.6000000238,9019,NNB,C,3
4,test,4,0.0,2-Back,1.0,m,Thu Nov 20 2025 11:24:44 GMT-0500 (Eastern Standard Time),693715.0,030_o_f_n_a.png,I,m,951,6,3,1970.0,691745.0,9019,NNB,C,4
5,test,4,0.0,2-Back,1.0,m,Thu Nov 20 2025 11:24:44 GMT-0500 (Eastern Standard Time),695531.6000000238,006_m_f_n_a.png,I,m,775,7,3,1800.8999999761581,693730.7000000477,9019,NNB,C,5
6,test,4,0.0,2-Back,1.0,m,Thu Nov 20 2025 11:24:44 GMT-0500 (Eastern Standard Time),697314.5,031_y_m_n_a.png,I,m,735,8,3,1766.2999999523163,695548.2000000477,9019,NNB,C,6
7,test,4,1.0,2-Back,1.0,z,Thu Nov 20 2025 11:24:44 GMT-0500 (Eastern Standard Time),699531.6000000238,006_m_f_n_a.png,I,z,1187,9,3,2203.5,697328.1000000238,9019,NNB,C,7
8,test,4,0.0,2-Back,1.0,m,Thu Nov 20 2025 11:24:44 GMT-0500 (Eastern Standard Time),701315.0,092_m_m_n_a.png,I,m,735,10,3,1766.3999999761581,699548.6000000238,9019,NNB,C,8
9,test,4,0.0,2-Back,1.0,m,Thu Nov 20 2025 11:24:44 GMT-0500 (Eastern Standard Time),703698.3000000715,031_y_m_n_a.png,I,m,1335,11,3,2366.2000000476837,701332.1000000238,9019,NNB,C,9
10,test,4,0.0,2-Back,1.0,m,Thu Nov 20 2025 11:24:44 GMT-0500 (Eastern Standard Time),705564.8999999762,130_o_f_n_a.png,I,m,797,12,3,1849.0999999046326,703715.8000000715,9019,NNB,C,10
11,test,4,0.0,2-Back,1.0,m,Thu Nov 20 2025 11:24:44 GMT-0500 (Eastern Standard Time),707648.3000000715,057_y_m_n_a.png,I,m,1054,13,3,2067.7000000476837,705580.6000000238,9019,NNB,C,11
12,test,4,1.0,2-Back,1.0,z,Thu Nov 20 2025 11:24:44 GMT-0500 (Eastern Standard Time),709698.0,130_o_f_n_a.png,I,z,1016,14,3,2037.8999999761581,707660.1000000238,9019,NNB,C,12
13,test,4,1.0,2-Back,1.0,z,Thu Nov 20 2025 11:24:44 GMT-0500 (Eastern Standard Time),711748.3999999762,057_y_m_n_a.png,I,z,1017,15,3,2037.3999999761581,709711.0,9019,NNB,C,13
14,test,4,0.0,2-Back,1.0,m,Thu Nov 20 2025 11:24:44 GMT-0500 (Eastern Standard Time),713698.2000000477,082_m_m_n_a.png,I,m,902,16,3,1933.2000000476837,711765.0,9019,NNB,C,14
15,test,4,0.0,2-Back,1.0,m,Thu Nov 20 2025 11:24:44 GMT-0500 (Eastern Standard Time),715581.6000000238,093_m_f_n_a.png,I,m,856,17,3,1868.7999999523163,713712.8000000715,9019,NNB,C,15
16,test,4,1.0,2-Back,1.0,z,Thu Nov 20 2025 11:24:44 GMT-0500 (Eastern Standard Time),717381.3999999762,082_m_m_n_a.png,I,z,764,18,3,1781.5,715599.8999999762,9019,NNB,C,16
0,test,5,1.0,2-Back,,,Thu Nov 20 2025 11:24:44 GMT-0500 (Eastern Standard Time),717381.3999999762,057_y_m_n_a.png,I,space,1181,1,3,1781.5,715599.8999999762,9019,NNB,C,0
0,test,5,1.0,2-Back,,,Thu Nov 20 2025 11:24:44 GMT-0500 (Eastern Standard Time),717381.3999999762,093_m_f_n_a.png,I,space,1181,2,3,1781.5,715599.8999999762,9019,NNB,C,0
1,test,5,1.0,2-Back,1.0,z,Thu Nov 20 2025 11:24:44 GMT-0500 (Eastern Standard Time),725698.2000000477,057_y_m_n_a.png,I,z,768,3,3,1784.3999999761581,723913.8000000715,9019,NNB,C,1
2,test,5,1.0,2-Back,1.0,z,Thu Nov 20 2025 11:24:44 GMT-0500 (Eastern Standard Time),727165.0,093_m_f_n_a.png,I,z,441,4,3,1451.6000000238419,725713.3999999762,9019,NNB,C,2
3,test,5,0.0,2-Back,1.0,m,Thu Nov 20 2025 11:24:44 GMT-0500 (Eastern Standard Time),728881.6000000238,130_o_f_n_a.png,I,m,682,5,3,1702.2999999523163,727179.3000000715,9019,NNB,C,3
4,test,5,0.0,2-Back,1.0,m,Thu Nov 20 2025 11:24:44 GMT-0500 (Eastern Standard Time),730848.2000000477,057_y_m_n_a.png,I,m,921,6,3,1951.0,728897.2000000477,9019,NNB,C,4
5,test,5,0.0,2-Back,1.0,m,Thu Nov 20 2025 11:24:44 GMT-0500 (Eastern Standard Time),732731.6000000238,028_y_f_n_a.png,I,m,842,7,3,1867.2000000476837,730864.3999999762,9019,NNB,C,5
5,test,5,0.0,2-Back,0.0,m,Thu Nov 20 2025 11:24:44 GMT-0500 (Eastern Standard Time),734748.2000000477,130_o_f_n_a.png,I,z,991,8,3,2006.7000000476837,732741.5,9019,NNB,C,6
5,test,5,1.0,2-Back,0.0,z,Thu Nov 20 2025 11:24:44 GMT-0500 (Eastern Standard Time),736648.3000000715,028_y_f_n_a.png,I,m,879,9,3,1885.4000000953674,734762.8999999762,9019,NNB,C,7
6,test,5,0.0,2-Back,1.0,m,Thu Nov 20 2025 11:24:44 GMT-0500 (Eastern Standard Time),738498.2000000477,146_o_m_n_a.png,I,m,815,10,3,1833.8000000715256,736664.3999999762,9019,NNB,C,8
7,test,5,0.0,2-Back,1.0,m,Thu Nov 20 2025 11:24:44 GMT-0500 (Eastern Standard Time),740398.2000000477,006_m_f_n_a.png,I,m,821,11,3,1888.6000000238419,738509.6000000238,9019,NNB,C,9
8,test,5,0.0,2-Back,1.0,m,Thu Nov 20 2025 11:24:44 GMT-0500 (Eastern Standard Time),742214.8000000715,092_m_m_n_a.png,I,m,797,12,3,1801.4000000953674,740413.3999999762,9019,NNB,C,10
9,test,5,0.0,2-Back,1.0,m,Thu Nov 20 2025 11:24:44 GMT-0500 (Eastern Standard Time),743898.2000000477,146_o_m_n_a.png,I,m,643,13,3,1667.6000000238419,742230.6000000238,9019,NNB,C,11
10,test,5,1.0,2-Back,1.0,z,Thu Nov 20 2025 11:24:44 GMT-0500 (Eastern Standard Time),745598.1000000238,092_m_m_n_a.png,I,z,672,14,3,1686.5,743911.6000000238,9019,NNB,C,12
11,test,5,0.0,2-Back,1.0,m,Thu Nov 20 2025 11:24:44 GMT-0500 (Eastern Standard Time),747414.7000000477,098_y_f_n_a.png,I,m,781,15,3,1800.2000000476837,745614.5,9019,NNB,C,13
12,test,5,0.0,2-Back,1.0,m,Thu Nov 20 2025 11:24:44 GMT-0500 (Eastern Standard Time),749314.8000000715,059_o_m_n_a.png,I,m,867,16,3,1883.4000000953674,747431.3999999762,9019,NNB,C,14
13,test,5,0.0,2-Back,1.0,m,Thu Nov 20 2025 11:24:44 GMT-0500 (Eastern Standard Time),751281.6000000238,006_m_f_n_a.png,I,m,936,17,3,1952.8999999761581,749328.7000000477,9019,NNB,C,15
14,test,5,1.0,2-Back,1.0,z,Thu Nov 20 2025 11:24:44 GMT-0500 (Eastern Standard Time),753165.0,059_o_m_n_a.png,I,z,857,18,3,1869.3999999761581,751295.6000000238,9019,NNB,C,16
