acc_sum,block,block_c,change,condition,correct,correct_response,datetime,endtime,face,project,response,response_time,row_sel,session_number,start_end,starttime,subject_id,task,task_vers,trial
0,prac,1,,1-Back,,,Thu Nov 06 2025 09:44:45 GMT-0600 (Central Standard Time),,124_o_f_d_a.png,O,space,5176,1,1,,,7238,VNB,A,0
1,prac,1,0.0,1-Back,1.0,m,Thu Nov 06 2025 09:44:45 GMT-0600 (Central Standard Time),117309.70000000298,071_y_f_n_a.png,O,m,1116,2,1,1908.2999999970198,115401.40000000596,7238,VNB,A,1
1,prac,1,0.0,1-Back,0.0,m,Thu Nov 06 2025 09:44:45 GMT-0600 (Central Standard Time),120107.40000000596,165_m_m_h_a.png,O,None,2001,3,1,2790.0999999940395,117317.30000001192,7238,VNB,A,2
1,prac,1,0.0,1-Back,0.0,m,Thu Nov 06 2025 09:44:45 GMT-0600 (Central Standard Time),122676.60000000894,109_y_m_d_a.png,O,z,1775,4,1,2562.2000000029802,120114.40000000596,7238,VNB,A,3
2,prac,1,0.0,1-Back,1.0,m,Thu Nov 06 2025 09:44:45 GMT-0600 (Central Standard Time),125057.30000001192,124_o_f_n_a.png,O,m,1551,5,1,2372.800000011921,122684.5,7238,VNB,A,4
2,prac,1,1.0,1-Back,0.0,z,Thu Nov 06 2025 09:44:45 GMT-0600 (Central Standard Time),127106.10000000894,109_y_m_n_a.png,O,m,1234,6,1,2041.2000000029802,125064.90000000596,7238,VNB,A,5
2,prac,1,0.0,1-Back,0.0,m,Thu Nov 06 2025 09:44:45 GMT-0600 (Central Standard Time),129190.10000000894,039_o_m_h_a.png,O,z,1277,7,1,2075.6000000089407,127114.5,7238,VNB,A,6
3,prac,1,0.0,1-Back,1.0,m,Thu Nov 06 2025 09:44:45 GMT-0600 (Central Standard Time),131755.5,139_m_f_d_a.png,O,m,1761,8,1,2557.699999988079,129197.80000001192,7238,VNB,A,7
4,prac,1,1.0,1-Back,1.0,z,Thu Nov 06 2025 09:44:45 GMT-0600 (Central Standard Time),133805.0,071_y_f_d_a.png,O,z,1244,9,1,2042.0999999940395,131762.90000000596,7238,VNB,A,8
5,prac,1,0.0,1-Back,1.0,m,Thu Nov 06 2025 09:44:45 GMT-0600 (Central Standard Time),135921.20000000298,165_m_m_n_a.png,O,m,1306,10,1,2108.7000000029802,133812.5,7238,VNB,A,9
5,prac,1,0.0,1-Back,0.0,m,Thu Nov 06 2025 09:44:45 GMT-0600 (Central Standard Time),137636.5,124_o_f_h_a.png,O,z,905,11,1,1707.8999999910593,135928.60000000894,7238,VNB,A,10
5,prac,1,0.0,1-Back,0.0,m,Thu Nov 06 2025 09:44:45 GMT-0600 (Central Standard Time),139752.80000001192,109_y_m_d_a.png,O,z,1328,12,1,2109.0,137643.80000001192,7238,VNB,A,11
0,prac,2,0.0,1-Back,,,Thu Nov 06 2025 09:44:45 GMT-0600 (Central Standard Time),139752.80000001192,124_o_f_d_a.png,O,a,13184,1,1,2109.0,137643.80000001192,7238,VNB,A,0
1,prac,2,0.0,1-Back,1.0,m,Thu Nov 06 2025 09:44:45 GMT-0600 (Central Standard Time),157881.20000000298,071_y_f_n_a.png,O,m,1100,2,1,1888.3999999910593,155992.80000001192,7238,VNB,A,1
1,prac,2,0.0,1-Back,0.0,m,Thu Nov 06 2025 09:44:45 GMT-0600 (Central Standard Time),160362.5,165_m_m_h_a.png,O,z,1678,3,1,2474.0999999940395,157888.40000000596,7238,VNB,A,2
2,prac,2,0.0,1-Back,1.0,m,Thu Nov 06 2025 09:44:45 GMT-0600 (Central Standard Time),162678.20000000298,109_y_m_d_a.png,O,m,1530,4,1,2308.7000000029802,160369.5,7238,VNB,A,3
2,prac,2,0.0,1-Back,0.0,m,Thu Nov 06 2025 09:44:45 GMT-0600 (Central Standard Time),164494.10000000894,124_o_f_n_a.png,O,z,981,5,1,1807.6000000089407,162686.5,7238,VNB,A,4
2,prac,2,1.0,1-Back,0.0,z,Thu Nov 06 2025 09:44:45 GMT-0600 (Central Standard Time),167294.0,109_y_m_n_a.png,O,None,2015,6,1,2792.7999999970198,164501.20000000298,7238,VNB,A,5
3,prac,2,0.0,1-Back,1.0,m,Thu Nov 06 2025 09:44:45 GMT-0600 (Central Standard Time),169193.5,039_o_m_h_a.png,O,m,1089,7,1,1891.699999988079,167301.80000001192,7238,VNB,A,6
3,prac,2,0.0,1-Back,0.0,m,Thu Nov 06 2025 09:44:45 GMT-0600 (Central Standard Time),170976.60000000894,139_m_f_d_a.png,O,z,973,8,1,1775.9000000059605,169200.70000000298,7238,VNB,A,7
3,prac,2,1.0,1-Back,0.0,z,Thu Nov 06 2025 09:44:45 GMT-0600 (Central Standard Time),173008.70000000298,071_y_f_d_a.png,O,m,1229,9,1,2025.0,170983.70000000298,7238,VNB,A,8
3,prac,2,0.0,1-Back,0.0,m,Thu Nov 06 2025 09:44:45 GMT-0600 (Central Standard Time),175825.10000000894,165_m_m_n_a.png,O,None,2013,10,1,2809.7999999970198,173015.30000001192,7238,VNB,A,9
3,prac,2,0.0,1-Back,0.0,m,Thu Nov 06 2025 09:44:45 GMT-0600 (Central Standard Time),177789.90000000596,124_o_f_h_a.png,O,z,1150,11,1,1957.5,175832.40000000596,7238,VNB,A,10
4,prac,2,0.0,1-Back,1.0,m,Thu Nov 06 2025 09:44:45 GMT-0600 (Central Standard Time),179706.90000000596,109_y_m_d_a.png,O,m,1135,12,1,1909.9000000059605,177797.0,7238,VNB,A,11
0,test,1,0.0,1-Back,,,Thu Nov 06 2025 09:44:45 GMT-0600 (Central Standard Time),179706.90000000596,071_y_f_d_a.png,O,space,10023,1,1,1909.9000000059605,177797.0,7238,VNB,A,0
1,test,1,0.0,1-Back,1.0,m,Thu Nov 06 2025 09:44:45 GMT-0600 (Central Standard Time),205648.10000000894,139_m_f_n_a.png,O,m,902,2,1,1924.9000000059605,203723.20000000298,7238,VNB,A,1
2,test,1,0.0,1-Back,1.0,m,Thu Nov 06 2025 09:44:45 GMT-0600 (Central Standard Time),207865.40000000596,039_o_m_h_a.png,O,m,1186,3,1,2211.0,205654.40000000596,7238,VNB,A,2
3,test,1,1.0,1-Back,1.0,z,Thu Nov 06 2025 09:44:45 GMT-0600 (Central Standard Time),209813.70000000298,165_m_m_h_a.png,O,z,924,4,1,1942.0999999940395,207871.60000000894,7238,VNB,A,3
4,test,1,0.0,1-Back,1.0,m,Thu Nov 06 2025 09:44:45 GMT-0600 (Central Standard Time),211963.70000000298,124_o_f_n_a.png,O,m,1125,5,1,2143.2999999970198,209820.40000000596,7238,VNB,A,4
5,test,1,0.0,1-Back,1.0,m,Thu Nov 06 2025 09:44:45 GMT-0600 (Central Standard Time),214429.60000000894,109_y_m_d_a.png,O,m,1432,6,1,2459.4000000059605,211970.20000000298,7238,VNB,A,5
6,test,1,1.0,1-Back,1.0,z,Thu Nov 06 2025 09:44:45 GMT-0600 (Central Standard Time),216246.30000001192,139_m_f_d_a.png,O,z,799,7,1,1809.6000000089407,214436.70000000298,7238,VNB,A,6
7,test,1,0.0,1-Back,1.0,m,Thu Nov 06 2025 09:44:45 GMT-0600 (Central Standard Time),217960.90000000596,071_y_f_h_a.png,O,m,687,8,1,1708.7999999970198,216252.10000000894,7238,VNB,A,7
8,test,1,0.0,1-Back,1.0,m,Thu Nov 06 2025 09:44:45 GMT-0600 (Central Standard Time),219959.70000000298,039_o_m_n_a.png,O,m,971,9,1,1992.0999999940395,217967.60000000894,7238,VNB,A,8
9,test,1,0.0,1-Back,1.0,m,Thu Nov 06 2025 09:44:45 GMT-0600 (Central Standard Time),222293.60000000894,109_y_m_h_a.png,O,m,1308,10,1,2327.7999999970198,219965.80000001192,7238,VNB,A,9
10,test,1,0.0,1-Back,1.0,m,Thu Nov 06 2025 09:44:45 GMT-0600 (Central Standard Time),224574.90000000596,039_o_m_d_a.png,O,m,1262,11,1,2275.2000000029802,222299.70000000298,7238,VNB,A,10
11,test,1,1.0,1-Back,1.0,z,Thu Nov 06 2025 09:44:45 GMT-0600 (Central Standard Time),226458.20000000298,124_o_f_d_a.png,O,z,851,12,1,1876.5,224581.70000000298,7238,VNB,A,11
12,test,1,0.0,1-Back,1.0,m,Thu Nov 06 2025 09:44:45 GMT-0600 (Central Standard Time),228473.80000001192,165_m_m_n_a.png,O,m,985,13,1,2010.0,226463.80000001192,7238,VNB,A,12
13,test,1,1.0,1-Back,1.0,z,Thu Nov 06 2025 09:44:45 GMT-0600 (Central Standard Time),230357.20000000298,071_y_f_n_a.png,O,z,865,14,1,1877.2999999970198,228479.90000000596,7238,VNB,A,13
14,test,1,0.0,1-Back,1.0,m,Thu Nov 06 2025 09:44:45 GMT-0600 (Central Standard Time),232373.0,139_m_f_h_a.png,O,m,985,15,1,2008.8999999910593,230364.10000000894,7238,VNB,A,14
15,test,1,0.0,1-Back,1.0,m,Thu Nov 06 2025 09:44:45 GMT-0600 (Central Standard Time),234488.60000000894,165_m_m_d_a.png,O,m,1086,16,1,2109.6000000089407,232379.0,7238,VNB,A,15
16,test,1,0.0,1-Back,1.0,m,Thu Nov 06 2025 09:44:45 GMT-0600 (Central Standard Time),236354.70000000298,109_y_m_n_a.png,O,m,835,17,1,1860.2999999970198,234494.40000000596,7238,VNB,A,16
17,test,1,0.0,1-Back,1.0,m,Thu Nov 06 2025 09:44:45 GMT-0600 (Central Standard Time),238254.5,124_o_f_h_a.png,O,m,872,18,1,1893.2999999970198,236361.20000000298,7238,VNB,A,17
0,test,2,0.0,1-Back,,,Thu Nov 06 2025 09:44:45 GMT-0600 (Central Standard Time),238254.5,109_y_m_n_a.png,O,space,917,1,1,1893.2999999970198,236361.20000000298,7238,VNB,A,0
1,test,2,0.0,1-Back,1.0,m,Thu Nov 06 2025 09:44:45 GMT-0600 (Central Standard Time),243285.60000000894,071_y_f_h_a.png,O,m,1064,2,1,2074.5,241211.10000000894,7238,VNB,A,1
2,test,2,1.0,1-Back,1.0,m,Thu Nov 06 2025 09:44:45 GMT-0600 (Central Standard Time),245768.20000000298,039_o_m_n_a.png,O,m,1462,3,1,2476.5,243291.70000000298,7238,VNB,A,2
2,test,2,0.0,1-Back,0.0,m,Thu Nov 06 2025 09:44:45 GMT-0600 (Central Standard Time),247951.0,139_m_f_d_a.png,O,z,1155,4,1,2176.199999988079,245774.80000001192,7238,VNB,A,3
3,test,2,0.0,1-Back,1.0,z,Thu Nov 06 2025 09:44:45 GMT-0600 (Central Standard Time),250252.5,165_m_m_d_a.png,O,z,1278,5,1,2295.199999988079,247957.30000001192,7238,VNB,A,4
4,test,2,0.0,1-Back,1.0,m,Thu Nov 06 2025 09:44:45 GMT-0600 (Central Standard Time),251784.20000000298,109_y_m_h_a.png,O,m,513,6,1,1523.5999999940395,250260.60000000894,7238,VNB,A,5
5,test,2,1.0,1-Back,1.0,z,Thu Nov 06 2025 09:44:45 GMT-0600 (Central Standard Time),254417.10000000894,124_o_f_h_a.png,O,z,1612,7,1,2626.1000000089407,251791.0,7238,VNB,A,6
6,test,2,0.0,1-Back,1.0,m,Thu Nov 06 2025 09:44:45 GMT-0600 (Central Standard Time),256332.20000000298,139_m_f_n_a.png,O,m,883,8,1,1908.8999999910593,254423.30000001192,7238,VNB,A,7
7,test,2,0.0,1-Back,1.0,m,Thu Nov 06 2025 09:44:45 GMT-0600 (Central Standard Time),258514.5,071_y_f_d_a.png,O,m,1151,9,1,2175.7999999970198,256338.70000000298,7238,VNB,A,8
8,test,2,0.0,1-Back,1.0,m,Thu Nov 06 2025 09:44:45 GMT-0600 (Central Standard Time),260863.70000000298,165_m_m_n_a.png,O,m,1328,10,1,2342.2999999970198,258521.40000000596,7238,VNB,A,9
9,test,2,1.0,1-Back,1.0,m,Thu Nov 06 2025 09:44:45 GMT-0600 (Central Standard Time),262563.200000003,139_m_f_h_a.png,O,m,675,11,1,1692.7000000029802,260870.5,7238,VNB,A,10
10,test,2,0.0,1-Back,1.0,z,Thu Nov 06 2025 09:44:45 GMT-0600 (Central Standard Time),264513.5,039_o_m_h_a.png,O,z,928,12,1,1944.2999999970198,262569.200000003,7238,VNB,A,11
11,test,2,0.0,1-Back,1.0,m,Thu Nov 06 2025 09:44:45 GMT-0600 (Central Standard Time),266212.5,109_y_m_d_a.png,O,m,673,13,1,1691.7999999970198,264520.700000003,7238,VNB,A,12
12,test,2,0.0,1-Back,1.0,m,Thu Nov 06 2025 09:44:45 GMT-0600 (Central Standard Time),268378.3000000119,124_o_f_n_a.png,O,m,1136,14,1,2159.6000000089407,266218.700000003,7238,VNB,A,13
13,test,2,0.0,1-Back,1.0,z,Thu Nov 06 2025 09:44:45 GMT-0600 (Central Standard Time),270427.3000000119,071_y_f_n_a.png,O,z,1025,15,1,2043.2000000029802,268384.10000000894,7238,VNB,A,14
14,test,2,1.0,1-Back,1.0,m,Thu Nov 06 2025 09:44:45 GMT-0600 (Central Standard Time),272193.60000000894,165_m_m_h_a.png,O,m,744,16,1,1759.4000000059605,270434.200000003,7238,VNB,A,15
15,test,2,0.0,1-Back,1.0,m,Thu Nov 06 2025 09:44:45 GMT-0600 (Central Standard Time),274209.60000000894,124_o_f_d_a.png,O,m,986,17,1,2009.1000000089407,272200.5,7238,VNB,A,16
16,test,2,1.0,1-Back,1.0,z,Thu Nov 06 2025 09:44:45 GMT-0600 (Central Standard Time),275976.10000000894,039_o_m_d_a.png,O,z,746,18,1,1759.9000000059605,274216.200000003,7238,VNB,A,17
0,test,3,1.0,1-Back,,,Thu Nov 06 2025 09:44:45 GMT-0600 (Central Standard Time),275976.10000000894,124_o_f_h_a.png,O,space,963,1,1,1759.9000000059605,274216.200000003,7238,VNB,A,0
1,test,3,0.0,1-Back,1.0,m,Thu Nov 06 2025 09:44:45 GMT-0600 (Central Standard Time),280957.10000000894,139_m_f_d_a.png,O,m,948,2,1,1960.2999999970198,278996.8000000119,7238,VNB,A,1
2,test,3,1.0,1-Back,1.0,m,Thu Nov 06 2025 09:44:45 GMT-0600 (Central Standard Time),282956.5,165_m_m_n_a.png,O,m,982,3,1,1992.5999999940395,280963.90000000596,7238,VNB,A,2
3,test,3,0.0,1-Back,1.0,z,Thu Nov 06 2025 09:44:45 GMT-0600 (Central Standard Time),284706.5,124_o_f_n_a.png,O,z,727,4,1,1743.199999988079,282963.3000000119,7238,VNB,A,3
4,test,3,1.0,1-Back,1.0,m,Thu Nov 06 2025 09:44:45 GMT-0600 (Central Standard Time),286438.700000003,039_o_m_d_a.png,O,m,714,5,1,1726.0,284712.700000003,7238,VNB,A,4
5,test,3,0.0,1-Back,1.0,m,Thu Nov 06 2025 09:44:45 GMT-0600 (Central Standard Time),288871.200000003,071_y_f_h_a.png,O,m,1413,6,1,2426.2000000029802,286445.0,7238,VNB,A,5
6,test,3,0.0,1-Back,1.0,z,Thu Nov 06 2025 09:44:45 GMT-0600 (Central Standard Time),290770.60000000894,109_y_m_h_a.png,O,z,868,7,1,1892.5,288878.10000000894,7238,VNB,A,6
7,test,3,0.0,1-Back,1.0,m,Thu Nov 06 2025 09:44:45 GMT-0600 (Central Standard Time),292537.10000000894,139_m_f_n_a.png,O,m,744,8,1,1759.7000000029802,290777.40000000596,7238,VNB,A,7
8,test,3,0.0,1-Back,1.0,m,Thu Nov 06 2025 09:44:45 GMT-0600 (Central Standard Time),294620.3000000119,071_y_f_d_a.png,O,m,1059,9,1,2076.4000000059605,292543.90000000596,7238,VNB,A,8
8,test,3,1.0,1-Back,0.0,m,Thu Nov 06 2025 09:44:45 GMT-0600 (Central Standard Time),296969.700000003,039_o_m_n_a.png,O,z,1328,10,1,2343.3999999910593,294626.3000000119,7238,VNB,A,9
9,test,3,0.0,1-Back,1.0,m,Thu Nov 06 2025 09:44:45 GMT-0600 (Central Standard Time),298835.200000003,165_m_m_h_a.png,O,m,833,11,1,1858.7000000029802,296976.5,7238,VNB,A,10
10,test,3,0.0,1-Back,1.0,z,Thu Nov 06 2025 09:44:45 GMT-0600 (Central Standard Time),301534.90000000596,139_m_f_h_a.png,O,z,1678,12,1,2693.7000000029802,298841.200000003,7238,VNB,A,11
11,test,3,1.0,1-Back,1.0,m,Thu Nov 06 2025 09:44:45 GMT-0600 (Central Standard Time),303251.0,124_o_f_d_a.png,O,m,686,13,1,1710.0999999940395,301540.90000000596,7238,VNB,A,12
12,test,3,0.0,1-Back,1.0,z,Thu Nov 06 2025 09:44:45 GMT-0600 (Central Standard Time),305716.3000000119,165_m_m_d_a.png,O,z,1441,14,1,2458.7000000029802,303257.60000000894,7238,VNB,A,13
13,test,3,0.0,1-Back,1.0,m,Thu Nov 06 2025 09:44:45 GMT-0600 (Central Standard Time),307632.3000000119,109_y_m_n_a.png,O,m,895,15,1,1910.1000000089407,305722.200000003,7238,VNB,A,14
14,test,3,1.0,1-Back,1.0,m,Thu Nov 06 2025 09:44:45 GMT-0600 (Central Standard Time),309282.700000003,039_o_m_h_a.png,O,m,619,16,1,1644.2999999970198,307638.40000000596,7238,VNB,A,15
15,test,3,0.0,1-Back,1.0,m,Thu Nov 06 2025 09:44:45 GMT-0600 (Central Standard Time),310997.8000000119,109_y_m_d_a.png,O,m,698,17,1,1709.5,309288.3000000119,7238,VNB,A,16
16,test,3,1.0,1-Back,1.0,m,Thu Nov 06 2025 09:44:45 GMT-0600 (Central Standard Time),312614.10000000894,071_y_f_n_a.png,O,m,598,18,1,1609.4000000059605,311004.700000003,7238,VNB,A,17
0,test,4,1.0,1-Back,,,Thu Nov 06 2025 09:44:45 GMT-0600 (Central Standard Time),312614.10000000894,165_m_m_d_a.png,O,space,1165,1,1,1609.4000000059605,311004.700000003,7238,VNB,A,0
1,test,4,0.0,1-Back,1.0,z,Thu Nov 06 2025 09:44:45 GMT-0600 (Central Standard Time),318529.40000000596,039_o_m_d_a.png,O,z,1710,2,1,2726.7999999970198,315802.60000000894,7238,VNB,A,1
2,test,4,0.0,1-Back,1.0,m,Thu Nov 06 2025 09:44:45 GMT-0600 (Central Standard Time),320129.10000000894,109_y_m_h_a.png,O,m,579,3,1,1592.5,318536.60000000894,7238,VNB,A,2
3,test,4,0.0,1-Back,1.0,m,Thu Nov 06 2025 09:44:45 GMT-0600 (Central Standard Time),321860.90000000596,139_m_f_n_a.png,O,m,707,4,1,1725.7000000029802,320135.200000003,7238,VNB,A,3
4,test,4,1.0,1-Back,1.0,m,Thu Nov 06 2025 09:44:45 GMT-0600 (Central Standard Time),323578.40000000596,124_o_f_h_a.png,O,m,687,5,1,1710.2999999970198,321868.10000000894,7238,VNB,A,4
5,test,4,0.0,1-Back,1.0,m,Thu Nov 06 2025 09:44:45 GMT-0600 (Central Standard Time),325427.10000000894,165_m_m_n_a.png,O,m,825,6,1,1842.2999999970198,323584.8000000119,7238,VNB,A,5
6,test,4,0.0,1-Back,1.0,m,Thu Nov 06 2025 09:44:45 GMT-0600 (Central Standard Time),327093.8000000119,109_y_m_d_a.png,O,m,649,7,1,1661.0,325432.8000000119,7238,VNB,A,6
7,test,4,1.0,1-Back,1.0,z,Thu Nov 06 2025 09:44:45 GMT-0600 (Central Standard Time),328925.90000000596,071_y_f_d_a.png,O,z,817,8,1,1826.0999999940395,327099.8000000119,7238,VNB,A,7
8,test,4,0.0,1-Back,1.0,m,Thu Nov 06 2025 09:44:45 GMT-0600 (Central Standard Time),330526.0,139_m_f_h_a.png,O,m,581,9,1,1594.199999988079,328931.8000000119,7238,VNB,A,8
9,test,4,0.0,1-Back,1.0,z,Thu Nov 06 2025 09:44:45 GMT-0600 (Central Standard Time),332408.5,039_o_m_h_a.png,O,z,854,10,1,1876.5999999940395,330531.90000000596,7238,VNB,A,9
10,test,4,1.0,1-Back,1.0,m,Thu Nov 06 2025 09:44:45 GMT-0600 (Central Standard Time),334058.0,124_o_f_n_a.png,O,m,628,11,1,1643.0,332415.0,7238,VNB,A,10
11,test,4,0.0,1-Back,1.0,m,Thu Nov 06 2025 09:44:45 GMT-0600 (Central Standard Time),335773.5,139_m_f_d_a.png,O,m,697,12,1,1708.3999999910593,334065.10000000894,7238,VNB,A,11
12,test,4,0.0,1-Back,1.0,m,Thu Nov 06 2025 09:44:45 GMT-0600 (Central Standard Time),337606.8000000119,071_y_f_n_a.png,O,m,807,13,1,1826.9000000059605,335779.90000000596,7238,VNB,A,12
13,test,4,0.0,1-Back,1.0,m,Thu Nov 06 2025 09:44:45 GMT-0600 (Central Standard Time),339589.10000000894,124_o_f_d_a.png,O,m,957,14,1,1976.4000000059605,337612.700000003,7238,VNB,A,13
14,test,4,0.0,1-Back,1.0,m,Thu Nov 06 2025 09:44:45 GMT-0600 (Central Standard Time),341489.90000000596,071_y_f_h_a.png,O,m,878,15,1,1893.5999999940395,339596.3000000119,7238,VNB,A,14
15,test,4,1.0,1-Back,1.0,z,Thu Nov 06 2025 09:44:45 GMT-0600 (Central Standard Time),343105.200000003,165_m_m_h_a.png,O,z,594,16,1,1608.7999999970198,341496.40000000596,7238,VNB,A,15
16,test,4,0.0,1-Back,1.0,m,Thu Nov 06 2025 09:44:45 GMT-0600 (Central Standard Time),344887.700000003,039_o_m_n_a.png,O,m,754,17,1,1776.0,343111.700000003,7238,VNB,A,16
17,test,4,1.0,1-Back,1.0,z,Thu Nov 06 2025 09:44:45 GMT-0600 (Central Standard Time),347438.200000003,109_y_m_n_a.png,O,z,1524,18,1,2544.2999999970198,344893.90000000596,7238,VNB,A,17
0,test,5,1.0,1-Back,,,Thu Nov 06 2025 09:44:45 GMT-0600 (Central Standard Time),347438.200000003,039_o_m_n_a.png,O,space,989,1,1,2544.2999999970198,344893.90000000596,7238,VNB,A,0
1,test,5,1.0,1-Back,1.0,m,Thu Nov 06 2025 09:44:45 GMT-0600 (Central Standard Time),352817.40000000596,124_o_f_h_a.png,O,m,1343,2,1,2358.5999999940395,350458.8000000119,7238,VNB,A,1
2,test,5,0.0,1-Back,1.0,m,Thu Nov 06 2025 09:44:45 GMT-0600 (Central Standard Time),354967.200000003,109_y_m_d_a.png,O,m,1120,3,1,2143.7000000029802,352823.5,7238,VNB,A,2
3,test,5,0.0,1-Back,1.0,z,Thu Nov 06 2025 09:44:45 GMT-0600 (Central Standard Time),356516.8000000119,039_o_m_d_a.png,O,z,523,4,1,1542.7000000029802,354974.10000000894,7238,VNB,A,3
4,test,5,0.0,1-Back,1.0,m,Thu Nov 06 2025 09:44:45 GMT-0600 (Central Standard Time),358082.700000003,139_m_f_h_a.png,O,m,542,5,1,1559.5,356523.200000003,7238,VNB,A,4
5,test,5,0.0,1-Back,1.0,m,Thu Nov 06 2025 09:44:45 GMT-0600 (Central Standard Time),359932.5,071_y_f_n_a.png,O,m,832,6,1,1843.5999999940395,358088.90000000596,7238,VNB,A,5
6,test,5,1.0,1-Back,1.0,z,Thu Nov 06 2025 09:44:45 GMT-0600 (Central Standard Time),361749.5,124_o_f_n_a.png,O,z,790,7,1,1810.7999999970198,359938.700000003,7238,VNB,A,6
7,test,5,0.0,1-Back,1.0,m,Thu Nov 06 2025 09:44:45 GMT-0600 (Central Standard Time),363364.3000000119,139_m_f_d_a.png,O,m,591,8,1,1607.4000000059605,361756.90000000596,7238,VNB,A,7
8,test,5,0.0,1-Back,1.0,m,Thu Nov 06 2025 09:44:45 GMT-0600 (Central Standard Time),365082.60000000894,109_y_m_h_a.png,O,m,687,9,1,1711.7000000029802,363370.90000000596,7238,VNB,A,8
9,test,5,0.0,1-Back,1.0,m,Thu Nov 06 2025 09:44:45 GMT-0600 (Central Standard Time),367398.0,071_y_f_d_a.png,O,m,1298,10,1,2308.0999999940395,365089.90000000596,7238,VNB,A,9
10,test,5,0.0,1-Back,1.0,m,Thu Nov 06 2025 09:44:45 GMT-0600 (Central Standard Time),369230.0,165_m_m_n_a.png,O,m,807,11,1,1825.5,367404.5,7238,VNB,A,10
11,test,5,1.0,1-Back,1.0,z,Thu Nov 06 2025 09:44:45 GMT-0600 (Central Standard Time),371095.200000003,139_m_f_n_a.png,O,z,846,12,1,1858.7999999970198,369236.40000000596,7238,VNB,A,11
12,test,5,0.0,1-Back,1.0,m,Thu Nov 06 2025 09:44:45 GMT-0600 (Central Standard Time),372828.60000000894,039_o_m_h_a.png,O,m,708,13,1,1726.7000000029802,371101.90000000596,7238,VNB,A,12
13,test,5,0.0,1-Back,1.0,z,Thu Nov 06 2025 09:44:45 GMT-0600 (Central Standard Time),374727.5,165_m_m_h_a.png,O,z,879,14,1,1892.0,372835.5,7238,VNB,A,13
14,test,5,1.0,1-Back,1.0,m,Thu Nov 06 2025 09:44:45 GMT-0600 (Central Standard Time),376344.8000000119,124_o_f_d_a.png,O,m,588,15,1,1610.800000011921,374734.0,7238,VNB,A,14
15,test,5,0.0,1-Back,1.0,m,Thu Nov 06 2025 09:44:45 GMT-0600 (Central Standard Time),378042.8000000119,109_y_m_n_a.png,O,m,674,16,1,1691.7000000029802,376351.10000000894,7238,VNB,A,15
16,test,5,0.0,1-Back,1.0,m,Thu Nov 06 2025 09:44:45 GMT-0600 (Central Standard Time),379842.90000000596,071_y_f_h_a.png,O,m,776,17,1,1793.7999999970198,378049.10000000894,7238,VNB,A,16
17,test,5,0.0,1-Back,1.0,m,Thu Nov 06 2025 09:44:45 GMT-0600 (Central Standard Time),381558.40000000596,165_m_m_d_a.png,O,m,697,18,1,1708.7999999970198,379849.60000000894,7238,VNB,A,17
0,prac,1,0.0,2-Back,,,Thu Nov 06 2025 09:44:45 GMT-0600 (Central Standard Time),381558.40000000596,139_m_f_n_a.png,O,space,5029,1,1,1708.7999999970198,379849.60000000894,7238,VNB,A,0
0,prac,1,0.0,2-Back,,,Thu Nov 06 2025 09:44:45 GMT-0600 (Central Standard Time),381558.40000000596,124_o_f_h_a.png,O,space,5029,2,1,1708.7999999970198,379849.60000000894,7238,VNB,A,0
1,prac,1,0.0,2-Back,1.0,m,Thu Nov 06 2025 09:44:45 GMT-0600 (Central Standard Time),469014.5,039_o_m_d_a.png,O,m,1360,3,1,2158.5999999940395,466855.90000000596,7238,VNB,A,1
2,prac,1,1.0,2-Back,1.0,z,Thu Nov 06 2025 09:44:45 GMT-0600 (Central Standard Time),470798.0,165_m_m_h_a.png,O,z,976,4,1,1775.7999999970198,469022.200000003,7238,VNB,A,2
3,prac,1,0.0,2-Back,1.0,m,Thu Nov 06 2025 09:44:45 GMT-0600 (Central Standard Time),472613.0,071_y_f_n_a.png,O,m,1017,5,1,1807.699999988079,470805.3000000119,7238,VNB,A,3
3,prac,1,1.0,2-Back,0.0,z,Thu Nov 06 2025 09:44:45 GMT-0600 (Central Standard Time),474729.8000000119,039_o_m_h_a.png,O,m,1327,6,1,2109.1000000089407,472620.700000003,7238,VNB,A,4
4,prac,1,1.0,2-Back,1.0,z,Thu Nov 06 2025 09:44:45 GMT-0600 (Central Standard Time),477495.0,109_y_m_n_a.png,O,z,1951,7,1,2757.199999988079,474737.8000000119,7238,VNB,A,5
5,prac,1,0.0,2-Back,1.0,m,Thu Nov 06 2025 09:44:45 GMT-0600 (Central Standard Time),479628.90000000596,139_m_f_d_a.png,O,m,1344,8,1,2126.2999999970198,477502.60000000894,7238,VNB,A,6
5,prac,1,0.0,2-Back,0.0,m,Thu Nov 06 2025 09:44:45 GMT-0600 (Central Standard Time),481877.700000003,124_o_f_d_a.png,O,z,1431,9,1,2241.7000000029802,479636.0,7238,VNB,A,7
6,prac,1,0.0,2-Back,1.0,m,Thu Nov 06 2025 09:44:45 GMT-0600 (Central Standard Time),484444.200000003,165_m_m_h_a.png,O,m,1791,10,1,2559.0,481885.200000003,7238,VNB,A,8
7,prac,1,1.0,2-Back,1.0,z,Thu Nov 06 2025 09:44:45 GMT-0600 (Central Standard Time),487209.8000000119,071_y_f_d_a.png,O,z,1979,11,1,2757.9000000059605,484451.90000000596,7238,VNB,A,9
8,prac,1,0.0,2-Back,1.0,m,Thu Nov 06 2025 09:44:45 GMT-0600 (Central Standard Time),489208.5,039_o_m_n_a.png,O,m,1198,12,1,1991.0999999940395,487217.40000000596,7238,VNB,A,10
0,test,1,0.0,2-Back,,,Thu Nov 06 2025 09:44:45 GMT-0600 (Central Standard Time),489208.5,109_y_m_h_a.png,O,space,1391,1,1,1991.0999999940395,487217.40000000596,7238,VNB,A,0
0,test,1,0.0,2-Back,,,Thu Nov 06 2025 09:44:45 GMT-0600 (Central Standard Time),489208.5,124_o_f_n_a.png,O,space,1391,2,1,1991.0999999940395,487217.40000000596,7238,VNB,A,0
0,test,1,0.0,2-Back,0.0,z,Thu Nov 06 2025 09:44:45 GMT-0600 (Central Standard Time),502886.60000000894,039_o_m_h_a.png,O,m,1138,3,1,2157.7000000029802,500728.90000000596,7238,VNB,A,1
0,test,1,0.0,2-Back,0.0,m,Thu Nov 06 2025 09:44:45 GMT-0600 (Central Standard Time),505919.5,139_m_f_d_a.png,O,None,2016,4,1,3025.0,502894.5,7238,VNB,A,2
0,test,1,1.0,2-Back,0.0,m,Thu Nov 06 2025 09:44:45 GMT-0600 (Central Standard Time),508301.200000003,109_y_m_n_a.png,O,z,1364,5,1,2372.7999999970198,505928.40000000596,7238,VNB,A,3
1,test,1,0.0,2-Back,1.0,z,Thu Nov 06 2025 09:44:45 GMT-0600 (Central Standard Time),510601.700000003,071_y_f_d_a.png,O,z,1269,6,1,2293.5,508308.200000003,7238,VNB,A,4
2,test,1,0.0,2-Back,1.0,m,Thu Nov 06 2025 09:44:45 GMT-0600 (Central Standard Time),513318.10000000894,165_m_m_h_a.png,O,m,1698,7,1,2709.9000000059605,510608.200000003,7238,VNB,A,5
3,test,1,1.0,2-Back,1.0,m,Thu Nov 06 2025 09:44:45 GMT-0600 (Central Standard Time),515882.3000000119,071_y_f_n_a.png,O,m,1542,8,1,2557.0,513325.3000000119,7238,VNB,A,6
4,test,1,0.0,2-Back,1.0,z,Thu Nov 06 2025 09:44:45 GMT-0600 (Central Standard Time),518531.60000000894,124_o_f_h_a.png,O,z,1617,9,1,2642.4000000059605,515889.200000003,7238,VNB,A,7
4,test,1,0.0,2-Back,0.0,m,Thu Nov 06 2025 09:44:45 GMT-0600 (Central Standard Time),521564.90000000596,039_o_m_d_a.png,O,None,2017,10,1,3026.7999999970198,518538.10000000894,7238,VNB,A,8
5,test,1,1.0,2-Back,1.0,m,Thu Nov 06 2025 09:44:45 GMT-0600 (Central Standard Time),523597.5,165_m_m_d_a.png,O,m,1015,11,1,2025.8999999910593,521571.60000000894,7238,VNB,A,9
5,test,1,0.0,2-Back,0.0,m,Thu Nov 06 2025 09:44:45 GMT-0600 (Central Standard Time),525679.1000000089,139_m_f_n_a.png,O,z,1054,12,1,2075.0,523604.10000000894,7238,VNB,A,10
6,test,1,0.0,2-Back,1.0,m,Thu Nov 06 2025 09:44:45 GMT-0600 (Central Standard Time),527928.700000003,071_y_f_h_a.png,O,m,1220,13,1,2242.5,525686.200000003,7238,VNB,A,11
7,test,1,0.0,2-Back,1.0,z,Thu Nov 06 2025 09:44:45 GMT-0600 (Central Standard Time),530828.5,165_m_m_n_a.png,O,z,1874,14,1,2892.5999999940395,527935.900000006,7238,VNB,A,12
7,test,1,0.0,2-Back,0.0,m,Thu Nov 06 2025 09:44:45 GMT-0600 (Central Standard Time),533859.8000000119,109_y_m_d_a.png,O,None,2016,15,1,3023.9000000059605,530835.900000006,7238,VNB,A,13
7,test,1,1.0,2-Back,0.0,m,Thu Nov 06 2025 09:44:45 GMT-0600 (Central Standard Time),535992.5,139_m_f_h_a.png,O,z,1111,16,1,2119.699999988079,533872.8000000119,7238,VNB,A,14
7,test,1,0.0,2-Back,0.0,z,Thu Nov 06 2025 09:44:45 GMT-0600 (Central Standard Time),538025.8000000119,124_o_f_d_a.png,O,m,1011,17,1,2027.0,535998.8000000119,7238,VNB,A,15
7,test,1,0.0,2-Back,0.0,m,Thu Nov 06 2025 09:44:45 GMT-0600 (Central Standard Time),541058.6000000089,039_o_m_n_a.png,O,None,2017,18,1,3026.2000000029802,538032.400000006,7238,VNB,A,16
0,test,2,0.0,2-Back,,,Thu Nov 06 2025 09:44:45 GMT-0600 (Central Standard Time),541058.6000000089,165_m_m_h_a.png,O,space,4289,1,1,3026.2000000029802,538032.400000006,7238,VNB,A,0
0,test,2,0.0,2-Back,,,Thu Nov 06 2025 09:44:45 GMT-0600 (Central Standard Time),541058.6000000089,071_y_f_n_a.png,O,space,4289,2,1,3026.2000000029802,538032.400000006,7238,VNB,A,0
1,test,2,1.0,2-Back,1.0,z,Thu Nov 06 2025 09:44:45 GMT-0600 (Central Standard Time),552587.900000006,124_o_f_h_a.png,O,z,1117,3,1,2142.5,550445.400000006,7238,VNB,A,1
1,test,2,0.0,2-Back,0.0,m,Thu Nov 06 2025 09:44:45 GMT-0600 (Central Standard Time),555620.1000000089,039_o_m_d_a.png,O,None,2016,4,1,3025.7000000029802,552594.400000006,7238,VNB,A,2
2,test,2,0.0,2-Back,1.0,m,Thu Nov 06 2025 09:44:45 GMT-0600 (Central Standard Time),558319.1000000089,139_m_f_d_a.png,O,m,1669,5,1,2692.2999999970198,555626.8000000119,7238,VNB,A,3
3,test,2,0.0,2-Back,1.0,m,Thu Nov 06 2025 09:44:45 GMT-0600 (Central Standard Time),560335.6000000089,109_y_m_h_a.png,O,m,996,6,1,2010.2999999970198,558325.3000000119,7238,VNB,A,4
4,test,2,0.0,2-Back,1.0,m,Thu Nov 06 2025 09:44:45 GMT-0600 (Central Standard Time),562935.0,124_o_f_n_a.png,O,m,1571,7,1,2592.0,560343.0,7238,VNB,A,5
4,test,2,1.0,2-Back,0.0,z,Thu Nov 06 2025 09:44:45 GMT-0600 (Central Standard Time),565966.6000000089,039_o_m_h_a.png,O,None,2016,8,1,3024.4000000059605,562942.200000003,7238,VNB,A,6
4,test,2,0.0,2-Back,0.0,m,Thu Nov 06 2025 09:44:45 GMT-0600 (Central Standard Time),568999.1000000089,071_y_f_d_a.png,O,None,2015,9,1,3025.7999999970198,565973.3000000119,7238,VNB,A,7
5,test,2,0.0,2-Back,1.0,m,Thu Nov 06 2025 09:44:45 GMT-0600 (Central Standard Time),571832.900000006,109_y_m_d_a.png,O,m,1803,10,1,2825.2000000029802,569007.700000003,7238,VNB,A,8
6,test,2,0.0,2-Back,1.0,m,Thu Nov 06 2025 09:44:45 GMT-0600 (Central Standard Time),574165.5,165_m_m_n_a.png,O,m,1315,11,1,2326.199999988079,571839.3000000119,7238,VNB,A,9
7,test,2,0.0,2-Back,1.0,m,Thu Nov 06 2025 09:44:45 GMT-0600 (Central Standard Time),577064.1000000089,139_m_f_h_a.png,O,m,1871,12,1,2891.2999999970198,574172.8000000119,7238,VNB,A,10
8,test,2,1.0,2-Back,1.0,z,Thu Nov 06 2025 09:44:45 GMT-0600 (Central Standard Time),579212.3000000119,039_o_m_n_a.png,O,z,1131,13,1,2140.9000000059605,577071.400000006,7238,VNB,A,11
9,test,2,0.0,2-Back,1.0,m,Thu Nov 06 2025 09:44:45 GMT-0600 (Central Standard Time),581578.3000000119,124_o_f_d_a.png,O,m,1343,14,1,2359.300000011921,579219.0,7238,VNB,A,12
9,test,2,0.0,2-Back,0.0,m,Thu Nov 06 2025 09:44:45 GMT-0600 (Central Standard Time),584610.5,071_y_f_h_a.png,O,None,2015,15,1,3024.699999988079,581585.8000000119,7238,VNB,A,13
10,test,2,0.0,2-Back,1.0,z,Thu Nov 06 2025 09:44:45 GMT-0600 (Central Standard Time),586727.400000006,165_m_m_d_a.png,O,z,1096,16,1,2110.0999999940395,584617.3000000119,7238,VNB,A,14
11,test,2,0.0,2-Back,1.0,m,Thu Nov 06 2025 09:44:45 GMT-0600 (Central Standard Time),588859.400000006,109_y_m_n_a.png,O,m,1100,17,1,2125.2999999970198,586734.1000000089,7238,VNB,A,15
12,test,2,1.0,2-Back,1.0,m,Thu Nov 06 2025 09:44:45 GMT-0600 (Central Standard Time),591025.1000000089,139_m_f_n_a.png,O,m,1135,18,1,2158.9000000059605,588866.200000003,7238,VNB,A,16
0,test,3,1.0,2-Back,,,Thu Nov 06 2025 09:44:45 GMT-0600 (Central Standard Time),591025.1000000089,039_o_m_n_a.png,O,space,3379,1,1,2158.9000000059605,588866.200000003,7238,VNB,A,0
0,test,3,1.0,2-Back,,,Thu Nov 06 2025 09:44:45 GMT-0600 (Central Standard Time),591025.1000000089,124_o_f_d_a.png,O,space,3379,2,1,2158.9000000059605,588866.200000003,7238,VNB,A,0
1,test,3,0.0,2-Back,1.0,m,Thu Nov 06 2025 09:44:45 GMT-0600 (Central Standard Time),601521.6000000089,071_y_f_h_a.png,O,m,1036,3,1,2057.0,599464.6000000089,7238,VNB,A,1
2,test,3,0.0,2-Back,1.0,z,Thu Nov 06 2025 09:44:45 GMT-0600 (Central Standard Time),604138.1000000089,139_m_f_d_a.png,O,z,1585,4,1,2609.2000000029802,601528.900000006,7238,VNB,A,2
3,test,3,1.0,2-Back,1.0,m,Thu Nov 06 2025 09:44:45 GMT-0600 (Central Standard Time),606653.6000000089,109_y_m_n_a.png,O,m,1490,5,1,2508.2000000029802,604145.400000006,7238,VNB,A,3
3,test,3,0.0,2-Back,0.0,m,Thu Nov 06 2025 09:44:45 GMT-0600 (Central Standard Time),609069.5,039_o_m_h_a.png,O,z,1398,6,1,2409.3999999910593,606660.1000000089,7238,VNB,A,4
4,test,3,0.0,2-Back,1.0,z,Thu Nov 06 2025 09:44:45 GMT-0600 (Central Standard Time),611153.400000006,071_y_f_n_a.png,O,z,1054,7,1,2077.2999999970198,609076.1000000089,7238,VNB,A,5
5,test,3,1.0,2-Back,1.0,m,Thu Nov 06 2025 09:44:45 GMT-0600 (Central Standard Time),613452.400000006,165_m_m_d_a.png,O,m,1284,8,1,2291.0999999940395,611161.3000000119,7238,VNB,A,6
6,test,3,0.0,2-Back,1.0,m,Thu Nov 06 2025 09:44:45 GMT-0600 (Central Standard Time),616167.900000006,109_y_m_d_a.png,O,m,1695,9,1,2709.0,613458.900000006,7238,VNB,A,7
6,test,3,0.0,2-Back,0.0,m,Thu Nov 06 2025 09:44:45 GMT-0600 (Central Standard Time),618500.200000003,124_o_f_h_a.png,O,z,1307,10,1,2324.0,616176.200000003,7238,VNB,A,8
7,test,3,1.0,2-Back,1.0,m,Thu Nov 06 2025 09:44:45 GMT-0600 (Central Standard Time),621032.5,139_m_f_n_a.png,O,m,1503,11,1,2525.3999999910593,618507.1000000089,7238,VNB,A,9
8,test,3,1.0,2-Back,1.0,z,Thu Nov 06 2025 09:44:45 GMT-0600 (Central Standard Time),623799.0,165_m_m_h_a.png,O,z,1747,12,1,2759.3999999910593,621039.6000000089,7238,VNB,A,10
9,test,3,0.0,2-Back,1.0,m,Thu Nov 06 2025 09:44:45 GMT-0600 (Central Standard Time),626614.3000000119,071_y_f_d_a.png,O,m,1797,13,1,2808.7000000029802,623805.6000000089,7238,VNB,A,11
10,test,3,0.0,2-Back,1.0,m,Thu Nov 06 2025 09:44:45 GMT-0600 (Central Standard Time),628896.5,124_o_f_n_a.png,O,m,1254,14,1,2275.5999999940395,626620.900000006,7238,VNB,A,12
10,test,3,0.0,2-Back,0.0,z,Thu Nov 06 2025 09:44:45 GMT-0600 (Central Standard Time),631928.8000000119,039_o_m_d_a.png,O,None,2015,15,1,3025.5,628903.3000000119,7238,VNB,A,13
10,test,3,1.0,2-Back,0.0,m,Thu Nov 06 2025 09:44:45 GMT-0600 (Central Standard Time),634928.5,139_m_f_h_a.png,O,z,1979,16,1,2992.7999999970198,631935.700000003,7238,VNB,A,14
11,test,3,0.0,2-Back,1.0,m,Thu Nov 06 2025 09:44:45 GMT-0600 (Central Standard Time),637394.1000000089,165_m_m_n_a.png,O,m,1435,17,1,2459.0,634935.1000000089,7238,VNB,A,15
12,test,3,0.0,2-Back,1.0,z,Thu Nov 06 2025 09:44:45 GMT-0600 (Central Standard Time),640343.400000006,109_y_m_h_a.png,O,z,1921,18,1,2942.2999999970198,637401.1000000089,7238,VNB,A,16
0,test,4,0.0,2-Back,,,Thu Nov 06 2025 09:44:45 GMT-0600 (Central Standard Time),640343.400000006,139_m_f_n_a.png,O,space,1364,1,1,2942.2999999970198,637401.1000000089,7238,VNB,A,0
0,test,4,0.0,2-Back,,,Thu Nov 06 2025 09:44:45 GMT-0600 (Central Standard Time),640343.400000006,039_o_m_n_a.png,O,space,1364,2,1,2942.2999999970198,637401.1000000089,7238,VNB,A,0
1,test,4,1.0,2-Back,1.0,m,Thu Nov 06 2025 09:44:45 GMT-0600 (Central Standard Time),648973.3000000119,109_y_m_h_a.png,O,m,1173,3,1,2192.300000011921,646781.0,7238,VNB,A,1
1,test,4,1.0,2-Back,0.0,m,Thu Nov 06 2025 09:44:45 GMT-0600 (Central Standard Time),651422.400000006,124_o_f_d_a.png,O,z,1422,4,1,2441.7000000029802,648980.700000003,7238,VNB,A,2
1,test,4,0.0,2-Back,0.0,z,Thu Nov 06 2025 09:44:45 GMT-0600 (Central Standard Time),653621.700000003,039_o_m_h_a.png,O,m,1172,5,1,2191.2000000029802,651430.5,7238,VNB,A,3
2,test,4,0.0,2-Back,1.0,m,Thu Nov 06 2025 09:44:45 GMT-0600 (Central Standard Time),656238.1000000089,165_m_m_n_a.png,O,m,1589,6,1,2610.0,653628.1000000089,7238,VNB,A,4
2,test,4,0.0,2-Back,0.0,m,Thu Nov 06 2025 09:44:45 GMT-0600 (Central Standard Time),659270.1000000089,139_m_f_d_a.png,O,None,2016,7,1,3025.6000000089407,656244.5,7238,VNB,A,5
2,test,4,0.0,2-Back,0.0,z,Thu Nov 06 2025 09:44:45 GMT-0600 (Central Standard Time),661404.5,071_y_f_n_a.png,O,m,1099,8,1,2126.8999999910593,659277.6000000089,7238,VNB,A,6
3,test,4,1.0,2-Back,1.0,m,Thu Nov 06 2025 09:44:45 GMT-0600 (Central Standard Time),663836.8000000119,124_o_f_h_a.png,O,m,1399,9,1,2425.4000000059605,661411.400000006,7238,VNB,A,7
3,test,4,0.0,2-Back,0.0,m,Thu Nov 06 2025 09:44:45 GMT-0600 (Central Standard Time),666868.5,165_m_m_h_a.png,O,None,2016,10,1,3025.2999999970198,663843.200000003,7238,VNB,A,8
3,test,4,0.0,2-Back,0.0,m,Thu Nov 06 2025 09:44:45 GMT-0600 (Central Standard Time),669350.6000000089,071_y_f_d_a.png,O,z,1464,11,1,2475.5,666875.1000000089,7238,VNB,A,9
4,test,4,0.0,2-Back,1.0,m,Thu Nov 06 2025 09:44:45 GMT-0600 (Central Standard Time),671283.3000000119,109_y_m_n_a.png,O,m,909,12,1,1926.300000011921,669357.0,7238,VNB,A,10
5,test,4,0.0,2-Back,1.0,z,Thu Nov 06 2025 09:44:45 GMT-0600 (Central Standard Time),673399.5,039_o_m_d_a.png,O,z,1096,13,1,2109.7999999970198,671289.700000003,7238,VNB,A,11
5,test,4,1.0,2-Back,0.0,m,Thu Nov 06 2025 09:44:45 GMT-0600 (Central Standard Time),676431.6000000089,139_m_f_h_a.png,O,None,2016,14,1,3025.2999999970198,673406.3000000119,7238,VNB,A,12
5,test,4,1.0,2-Back,0.0,m,Thu Nov 06 2025 09:44:45 GMT-0600 (Central Standard Time),679281.6000000089,071_y_f_h_a.png,O,z,1820,15,1,2843.6000000089407,676438.0,7238,VNB,A,13
5,test,4,0.0,2-Back,0.0,m,Thu Nov 06 2025 09:44:45 GMT-0600 (Central Standard Time),681763.3000000119,124_o_f_n_a.png,O,z,1458,16,1,2474.800000011921,679288.5,7238,VNB,A,14
6,test,4,0.0,2-Back,1.0,m,Thu Nov 06 2025 09:44:45 GMT-0600 (Central Standard Time),683598.5,109_y_m_d_a.png,O,m,815,17,1,1826.5,681772.0,7238,VNB,A,15
7,test,4,1.0,2-Back,1.0,m,Thu Nov 06 2025 09:44:45 GMT-0600 (Central Standard Time),685878.5,165_m_m_d_a.png,O,m,1255,18,1,2273.5,683605.0,7238,VNB,A,16
0,test,5,1.0,2-Back,,,Thu Nov 06 2025 09:44:45 GMT-0600 (Central Standard Time),685878.5,071_y_f_d_a.png,O,space,2389,1,1,2273.5,683605.0,7238,VNB,A,0
0,test,5,1.0,2-Back,,,Thu Nov 06 2025 09:44:45 GMT-0600 (Central Standard Time),685878.5,124_o_f_h_a.png,O,space,2389,2,1,2273.5,683605.0,7238,VNB,A,0
1,test,5,1.0,2-Back,1.0,z,Thu Nov 06 2025 09:44:45 GMT-0600 (Central Standard Time),695926.3000000119,039_o_m_d_a.png,O,z,1539,3,1,2559.9000000059605,693366.400000006,7238,VNB,A,1
2,test,5,1.0,2-Back,1.0,m,Thu Nov 06 2025 09:44:45 GMT-0600 (Central Standard Time),698275.700000003,139_m_f_n_a.png,O,m,1317,4,1,2342.5999999940395,695933.1000000089,7238,VNB,A,2
2,test,5,0.0,2-Back,0.0,m,Thu Nov 06 2025 09:44:45 GMT-0600 (Central Standard Time),701307.900000006,165_m_m_h_a.png,O,None,2017,5,1,3025.5999999940395,698282.3000000119,7238,VNB,A,3
3,test,5,0.0,2-Back,1.0,z,Thu Nov 06 2025 09:44:45 GMT-0600 (Central Standard Time),703575.3000000119,071_y_f_n_a.png,O,z,1249,6,1,2260.7000000029802,701314.6000000089,7238,VNB,A,4
4,test,5,0.0,2-Back,1.0,m,Thu Nov 06 2025 09:44:45 GMT-0600 (Central Standard Time),705555.6000000089,124_o_f_d_a.png,O,m,949,7,1,1971.5,703584.1000000089,7238,VNB,A,5
5,test,5,0.0,2-Back,1.0,m,Thu Nov 06 2025 09:44:45 GMT-0600 (Central Standard Time),708189.0,039_o_m_h_a.png,O,m,1616,8,1,2626.3999999910593,705562.6000000089,7238,VNB,A,6
6,test,5,1.0,2-Back,1.0,z,Thu Nov 06 2025 09:44:45 GMT-0600 (Central Standard Time),709871.400000006,139_m_f_d_a.png,O,z,663,9,1,1675.2999999970198,708196.1000000089,7238,VNB,A,7
6,test,5,0.0,2-Back,0.0,m,Thu Nov 06 2025 09:44:45 GMT-0600 (Central Standard Time),712903.1000000089,109_y_m_n_a.png,O,None,2015,10,1,3025.0,709878.1000000089,7238,VNB,A,8
7,test,5,0.0,2-Back,1.0,m,Thu Nov 06 2025 09:44:45 GMT-0600 (Central Standard Time),715620.3000000119,165_m_m_n_a.png,O,m,1699,11,1,2710.2000000029802,712910.1000000089,7238,VNB,A,9
8,test,5,0.0,2-Back,1.0,m,Thu Nov 06 2025 09:44:45 GMT-0600 (Central Standard Time),717819.700000003,071_y_f_h_a.png,O,m,1175,12,1,2192.7999999970198,715626.900000006,7238,VNB,A,10
9,test,5,0.0,2-Back,1.0,m,Thu Nov 06 2025 09:44:45 GMT-0600 (Central Standard Time),720484.400000006,109_y_m_d_a.png,O,m,1633,13,1,2658.0,717826.400000006,7238,VNB,A,11
10,test,5,1.0,2-Back,1.0,z,Thu Nov 06 2025 09:44:45 GMT-0600 (Central Standard Time),723083.1000000089,139_m_f_h_a.png,O,z,1574,14,1,2591.9000000059605,720491.200000003,7238,VNB,A,12
10,test,5,0.0,2-Back,0.0,m,Thu Nov 06 2025 09:44:45 GMT-0600 (Central Standard Time),726117.700000003,039_o_m_n_a.png,O,None,2018,15,1,3028.0,723089.700000003,7238,VNB,A,13
11,test,5,0.0,2-Back,1.0,m,Thu Nov 06 2025 09:44:45 GMT-0600 (Central Standard Time),728948.5,165_m_m_d_a.png,O,m,1799,16,1,2824.0,726124.5,7238,VNB,A,14
11,test,5,0.0,2-Back,0.0,z,Thu Nov 06 2025 09:44:45 GMT-0600 (Central Standard Time),731980.8000000119,124_o_f_n_a.png,O,None,2016,17,1,3025.6000000089407,728955.200000003,7238,VNB,A,15
12,test,5,1.0,2-Back,1.0,m,Thu Nov 06 2025 09:44:45 GMT-0600 (Central Standard Time),734596.5,109_y_m_h_a.png,O,m,1583,18,1,2608.5,731988.0,7238,VNB,A,16
